{"assignmentId": "392CY0QWG2YWMNKTWPBCE2AECYJ4IA", "workerId": "MTK2878", "questiondata": {"origin": "United States", "strat-rehearsal": "4", "marital": "Divorced", "education": "Some college", "ethnicity": "Not Hispanic", "color_depth": 24, "distracted": "No", "wrote-notes": "Yes", "strat-other": "I visualized each word as I would see them moving in a line, and I wrote down the first letter of each word in the last 7 tests.", "screen_width": 1536, "avail_screen_width": 1536, "avail_screen_height": 864, "strat-image": "71", "language": "English", "gender": "Female", "age": "31", "gender_other": "", "race": ["White"], "strat-categorize": "4", "pixel_depth": 24, "strat-spatial": "63", "strat-story": "5", "race_other": "", "screen_height": 864}, "bonus": 0, "hitId": "3087LXLJ6MNTQO28MEDNAIBPUHN0FP", "counterbalance": 1977, "useragent": "Mozilla/5.0 (Windows NT 10.0; Win64; x64) AppleWebKit/537.36 (KHTML, like Gecko) Chrome/64.0.3282.167 Safari/537.36", "eventdata": [{"eventtype": "initialized", "interval": 0, "value": null, "timestamp": 1519440689845}, {"eventtype": "window_resize", "interval": 0, "value": [1536, 814], "timestamp": 1519440689845}, {"eventtype": "focus", "interval": 6529, "value": "off", "timestamp": 1519440696374}, {"eventtype": "focus", "interval": 9753, "value": "on", "timestamp": 1519440706127}, {"eventtype": "window_resize", "interval": 5927, "value": [1540, 874], "timestamp": 1519440712054}, {"eventtype": "window_resize", "interval": 1381, "value": [1536, 814], "timestamp": 1519440713435}, {"eventtype": "focus", "interval": 1053068, "value": "off", "timestamp": 1519441766503}, {"eventtype": "focus", "interval": 2876, "value": "on", "timestamp": 1519441769379}, {"eventtype": "focus", "interval": 1053, "value": "off", "timestamp": 1519441770432}, {"eventtype": "focus", "interval": 6141, "value": "on", "timestamp": 1519441776573}, {"eventtype": "focus", "interval": 1556061, "value": "off", "timestamp": 1519443332634}, {"eventtype": "focus", "interval": 7747, "value": "on", "timestamp": 1519443340381}], "data": [{"current_trial": 0, "trialdata": {"rt": 2469, "trial_type": "text", "internal_node_id": "0.0-0.0", "time_elapsed": 2471, "key_press": 70, "type": "INSTRUCTIONS", "trial_index": 0}, "uniqueid": "MTK2878:392CY0QWG2YWMNKTWPBCE2AECYJ4IA", "dateTime": 1519440723196}, {"current_trial": 1, "trialdata": {"rt": 20340, "trial_type": "text", "internal_node_id": "0.0-1.0", "time_elapsed": 22815, "key_press": 70, "type": "INSTRUCTIONS", "trial_index": 1}, "uniqueid": "MTK2878:392CY0QWG2YWMNKTWPBCE2AECYJ4IA", "dateTime": 1519440743540}, {"current_trial": 2, "trialdata": {"rt": [10213], "trial_type": "audio-test", "responses": ["ocean"], "internal_node_id": "0.0-2.0", "time_elapsed": 33045, "type": "AUDIO_TEST", "trial_index": 2}, "uniqueid": "MTK2878:392CY0QWG2YWMNKTWPBCE2AECYJ4IA", "dateTime": 1519440753770}, {"current_trial": 3, "trialdata": {"rt": [7532], "trial_type": "audio-test", "responses": ["crystal"], "internal_node_id": "0.0-3.0", "time_elapsed": 40581, "type": "AUDIO_TEST", "trial_index": 3}, "uniqueid": "MTK2878:392CY0QWG2YWMNKTWPBCE2AECYJ4IA", "dateTime": 1519440761306}, {"current_trial": 4, "trialdata": {"rt": [5597], "trial_type": "audio-test", "responses": ["spice"], "internal_node_id": "0.0-4.0", "time_elapsed": 46180, "type": "AUDIO_TEST", "trial_index": 4}, "uniqueid": "MTK2878:392CY0QWG2YWMNKTWPBCE2AECYJ4IA", "dateTime": 1519440766905}, {"current_trial": 5, "trialdata": {"rt": 21001, "trial_type": "survey-text", "responses": "{\"Q0\":\"3AM\",\"Q1\":\"10AM\",\"Q2\":\"4\"}", "internal_node_id": "0.0-5.0", "time_elapsed": 67935, "type": "SLEEP_SURVEY", "trial_index": 5}, "uniqueid": "MTK2878:392CY0QWG2YWMNKTWPBCE2AECYJ4IA", "dateTime": 1519440788660}, {"current_trial": 6, "trialdata": {"rt": 42621, "trial_type": "text", "internal_node_id": "0.0-6.0", "time_elapsed": 111557, "key_press": 70, "type": "INSTRUCTIONS", "trial_index": 6}, "uniqueid": "MTK2878:392CY0QWG2YWMNKTWPBCE2AECYJ4IA", "dateTime": 1519440832282}, {"current_trial": 7, "trialdata": {"rt": 25443, "trial_type": "text", "internal_node_id": "0.0-7.0", "time_elapsed": 137500, "key_press": 70, "type": "INSTRUCTIONS", "trial_index": 7}, "uniqueid": "MTK2878:392CY0QWG2YWMNKTWPBCE2AECYJ4IA", "dateTime": 1519440858226}, {"current_trial": 8, "trialdata": {"rt": 19586, "trial_type": "text", "internal_node_id": "0.0-8.0", "time_elapsed": 157588, "key_press": 70, "type": "INSTRUCTIONS", "trial_index": 8}, "uniqueid": "MTK2878:392CY0QWG2YWMNKTWPBCE2AECYJ4IA", "dateTime": 1519440878313}, {"current_trial": 9, "trialdata": {"rt": [2749, 6030, 9821, 11877, 13405, 16205, 17758], "trial_type": "math-distractor", "key_times": [2222, 2334, 2749, 5749, 6030, 9341, 9406, 9821, 11534, 11646, 11877, 13125, 13301, 13405, 15901, 16077, 16205, 17445, 17541, 17758], "responses": ["10", "8", "16", "20", "11", "14", "13"], "num2": [4, 4, 4, 9, 5, 2, 3, 1], "num3": [4, 3, 8, 2, 5, 3, 3, 7], "conditions": [18, 1200, "a", 18000], "internal_node_id": "0.0-9.0", "key_presses": [49, 48, 13, 56, 13, 97, 102, 13, 98, 96, 13, 97, 97, 13, 97, 100, 13, 97, 99, 13], "trial": 0, "time_elapsed": 176599, "type": "DISTRACTOR", "trial_index": 9, "num1": [2, 1, 4, 9, 1, 9, 7, 1]}, "uniqueid": "MTK2878:392CY0QWG2YWMNKTWPBCE2AECYJ4IA", "dateTime": 1519440897324}, {"current_trial": 10, "trialdata": {"rt": -1, "trial_type": "single-stim", "stimulus": "<p id=\"stim\">10</p>", "internal_node_id": "0.0-10.0-0.0", "time_elapsed": 179602, "key_press": -1, "trial_index": 10}, "uniqueid": "MTK2878:392CY0QWG2YWMNKTWPBCE2AECYJ4IA", "dateTime": 1519440900327}, {"current_trial": 11, "trialdata": {"rt": -1, "trial_type": "single-stim", "stimulus": "<p id=\"stim\">9</p>", "internal_node_id": "0.0-10.0-1.0", "time_elapsed": 180603, "key_press": -1, "trial_index": 11}, "uniqueid": "MTK2878:392CY0QWG2YWMNKTWPBCE2AECYJ4IA", "dateTime": 1519440901328}, {"current_trial": 12, "trialdata": {"rt": -1, "trial_type": "single-stim", "stimulus": "<p id=\"stim\">8</p>", "internal_node_id": "0.0-10.0-2.0", "time_elapsed": 181604, "key_press": -1, "trial_index": 12}, "uniqueid": "MTK2878:392CY0QWG2YWMNKTWPBCE2AECYJ4IA", "dateTime": 1519440902330}, {"current_trial": 13, "trialdata": {"rt": -1, "trial_type": "single-stim", "stimulus": "<p id=\"stim\">7</p>", "internal_node_id": "0.0-10.0-3.0", "time_elapsed": 182607, "key_press": -1, "trial_index": 13}, "uniqueid": "MTK2878:392CY0QWG2YWMNKTWPBCE2AECYJ4IA", "dateTime": 1519440903332}, {"current_trial": 14, "trialdata": {"rt": -1, "trial_type": "single-stim", "stimulus": "<p id=\"stim\">6</p>", "internal_node_id": "0.0-10.0-4.0", "time_elapsed": 183609, "key_press": -1, "trial_index": 14}, "uniqueid": "MTK2878:392CY0QWG2YWMNKTWPBCE2AECYJ4IA", "dateTime": 1519440904334}, {"current_trial": 15, "trialdata": {"rt": -1, "trial_type": "single-stim", "stimulus": "<p id=\"stim\">5</p>", "internal_node_id": "0.0-10.0-5.0", "time_elapsed": 184613, "key_press": -1, "trial_index": 15}, "uniqueid": "MTK2878:392CY0QWG2YWMNKTWPBCE2AECYJ4IA", "dateTime": 1519440905338}, {"current_trial": 16, "trialdata": {"rt": -1, "trial_type": "single-stim", "stimulus": "<p id=\"stim\">4</p>", "internal_node_id": "0.0-10.0-6.0", "time_elapsed": 185615, "key_press": -1, "trial_index": 16}, "uniqueid": "MTK2878:392CY0QWG2YWMNKTWPBCE2AECYJ4IA", "dateTime": 1519440906340}, {"current_trial": 17, "trialdata": {"rt": -1, "trial_type": "single-stim", "stimulus": "<p id=\"stim\">3</p>", "internal_node_id": "0.0-10.0-7.0", "time_elapsed": 186615, "key_press": -1, "trial_index": 17}, "uniqueid": "MTK2878:392CY0QWG2YWMNKTWPBCE2AECYJ4IA", "dateTime": 1519440907340}, {"current_trial": 18, "trialdata": {"rt": -1, "trial_type": "single-stim", "stimulus": "<p id=\"stim\">2</p>", "internal_node_id": "0.0-10.0-8.0", "time_elapsed": 187617, "key_press": -1, "trial_index": 18}, "uniqueid": "MTK2878:392CY0QWG2YWMNKTWPBCE2AECYJ4IA", "dateTime": 1519440908342}, {"current_trial": 19, "trialdata": {"rt": -1, "trial_type": "single-stim", "stimulus": "<p id=\"stim\">1</p>", "internal_node_id": "0.0-10.0-9.0", "time_elapsed": 188619, "key_press": -1, "trial_index": 19}, "uniqueid": "MTK2878:392CY0QWG2YWMNKTWPBCE2AECYJ4IA", "dateTime": 1519440909344}, {"current_trial": 20, "trialdata": {"rt": -1, "trial_type": "single-stim", "stimulus": "<p id=\"stim\">+</p>", "internal_node_id": "0.0-11.0-0.0", "time_elapsed": 190121, "key_press": -1, "type": "FIXATION", "trial_index": 20}, "uniqueid": "MTK2878:392CY0QWG2YWMNKTWPBCE2AECYJ4IA", "dateTime": 1519440910846}, {"current_trial": 21, "trialdata": {"rt": -1000, "trial_type": "single-audio", "word": "turtle", "stimulus": "/static/audio/wordpool/TURTLE.wav", "conditions": [18, 1200, "a", 18000], "internal_node_id": "0.0-12.0", "trial": 0, "time_elapsed": 192375, "serialpos": 0, "key_press": -1, "wordID": 1521, "type": "PRES_AUD", "trial_index": 21}, "uniqueid": "MTK2878:392CY0QWG2YWMNKTWPBCE2AECYJ4IA", "dateTime": 1519440913100}, {"current_trial": 22, "trialdata": {"rt": -1000, "trial_type": "single-audio", "word": "trench", "stimulus": "/static/audio/wordpool/TRENCH.wav", "conditions": [18, 1200, "a", 18000], "internal_node_id": "0.0-13.0", "trial": 0, "time_elapsed": 194455, "serialpos": 1, "key_press": -1, "wordID": 1502, "type": "PRES_AUD", "trial_index": 22}, "uniqueid": "MTK2878:392CY0QWG2YWMNKTWPBCE2AECYJ4IA", "dateTime": 1519440915180}, {"current_trial": 23, "trialdata": {"rt": -1000, "trial_type": "single-audio", "word": "pistol", "stimulus": "/static/audio/wordpool/PISTOL.wav", "conditions": [18, 1200, "a", 18000], "internal_node_id": "0.0-14.0", "trial": 0, "time_elapsed": 196595, "serialpos": 2, "key_press": -1, "wordID": 1074, "type": "PRES_AUD", "trial_index": 23}, "uniqueid": "MTK2878:392CY0QWG2YWMNKTWPBCE2AECYJ4IA", "dateTime": 1519440917321}, {"current_trial": 24, "trialdata": {"rt": -1000, "trial_type": "single-audio", "word": "cloud", "stimulus": "/static/audio/wordpool/CLOUD.wav", "conditions": [18, 1200, "a", 18000], "internal_node_id": "0.0-15.0", "trial": 0, "time_elapsed": 198780, "serialpos": 3, "key_press": -1, "wordID": 327, "type": "PRES_AUD", "trial_index": 24}, "uniqueid": "MTK2878:392CY0QWG2YWMNKTWPBCE2AECYJ4IA", "dateTime": 1519440919505}, {"current_trial": 25, "trialdata": {"rt": -1000, "trial_type": "single-audio", "word": "pimple", "stimulus": "/static/audio/wordpool/PIMPLE.wav", "conditions": [18, 1200, "a", 18000], "internal_node_id": "0.0-16.0", "trial": 0, "time_elapsed": 201144, "serialpos": 4, "key_press": -1, "wordID": 1070, "type": "PRES_AUD", "trial_index": 25}, "uniqueid": "MTK2878:392CY0QWG2YWMNKTWPBCE2AECYJ4IA", "dateTime": 1519440921869}, {"current_trial": 26, "trialdata": {"rt": -1000, "trial_type": "single-audio", "word": "kidney", "stimulus": "/static/audio/wordpool/KIDNEY.wav", "conditions": [18, 1200, "a", 18000], "internal_node_id": "0.0-17.0", "trial": 0, "time_elapsed": 203251, "serialpos": 5, "key_press": -1, "wordID": 775, "type": "PRES_AUD", "trial_index": 26}, "uniqueid": "MTK2878:392CY0QWG2YWMNKTWPBCE2AECYJ4IA", "dateTime": 1519440923976}, {"current_trial": 27, "trialdata": {"rt": -1000, "trial_type": "single-audio", "word": "freckle", "stimulus": "/static/audio/wordpool/FRECKLE.wav", "conditions": [18, 1200, "a", 18000], "internal_node_id": "0.0-18.0", "trial": 0, "time_elapsed": 205278, "serialpos": 6, "key_press": -1, "wordID": 601, "type": "PRES_AUD", "trial_index": 27}, "uniqueid": "MTK2878:392CY0QWG2YWMNKTWPBCE2AECYJ4IA", "dateTime": 1519440926003}, {"current_trial": 28, "trialdata": {"rt": -1000, "trial_type": "single-audio", "word": "breast", "stimulus": "/static/audio/wordpool/BREAST.wav", "conditions": [18, 1200, "a", 18000], "internal_node_id": "0.0-19.0", "trial": 0, "time_elapsed": 207381, "serialpos": 7, "key_press": -1, "wordID": 170, "type": "PRES_AUD", "trial_index": 28}, "uniqueid": "MTK2878:392CY0QWG2YWMNKTWPBCE2AECYJ4IA", "dateTime": 1519440928106}, {"current_trial": 29, "trialdata": {"rt": -1000, "trial_type": "single-audio", "word": "lightning", "stimulus": "/static/audio/wordpool/LIGHTNING.wav", "conditions": [18, 1200, "a", 18000], "internal_node_id": "0.0-20.0", "trial": 0, "time_elapsed": 209710, "serialpos": 8, "key_press": -1, "wordID": 819, "type": "PRES_AUD", "trial_index": 29}, "uniqueid": "MTK2878:392CY0QWG2YWMNKTWPBCE2AECYJ4IA", "dateTime": 1519440930435}, {"current_trial": 30, "trialdata": {"rt": -1000, "trial_type": "single-audio", "word": "glove", "stimulus": "/static/audio/wordpool/GLOVE.wav", "conditions": [18, 1200, "a", 18000], "internal_node_id": "0.0-21.0", "trial": 0, "time_elapsed": 211741, "serialpos": 9, "key_press": -1, "wordID": 641, "type": "PRES_AUD", "trial_index": 30}, "uniqueid": "MTK2878:392CY0QWG2YWMNKTWPBCE2AECYJ4IA", "dateTime": 1519440932466}, {"current_trial": 31, "trialdata": {"rt": -1000, "trial_type": "single-audio", "word": "sunset", "stimulus": "/static/audio/wordpool/SUNSET.wav", "conditions": [18, 1200, "a", 18000], "internal_node_id": "0.0-22.0", "trial": 0, "time_elapsed": 214132, "serialpos": 10, "key_press": -1, "wordID": 1407, "type": "PRES_AUD", "trial_index": 31}, "uniqueid": "MTK2878:392CY0QWG2YWMNKTWPBCE2AECYJ4IA", "dateTime": 1519440934857}, {"current_trial": 32, "trialdata": {"rt": -1000, "trial_type": "single-audio", "word": "beaker", "stimulus": "/static/audio/wordpool/BEAKER.wav", "conditions": [18, 1200, "a", 18000], "internal_node_id": "0.0-23.0", "trial": 0, "time_elapsed": 216184, "serialpos": 11, "key_press": -1, "wordID": 103, "type": "PRES_AUD", "trial_index": 32}, "uniqueid": "MTK2878:392CY0QWG2YWMNKTWPBCE2AECYJ4IA", "dateTime": 1519440936909}, {"current_trial": 33, "trialdata": {"rt": -1000, "trial_type": "single-audio", "word": "sword", "stimulus": "/static/audio/wordpool/SWORD.wav", "conditions": [18, 1200, "a", 18000], "internal_node_id": "0.0-24.0", "trial": 0, "time_elapsed": 218358, "serialpos": 12, "key_press": -1, "wordID": 1422, "type": "PRES_AUD", "trial_index": 33}, "uniqueid": "MTK2878:392CY0QWG2YWMNKTWPBCE2AECYJ4IA", "dateTime": 1519440939083}, {"current_trial": 34, "trialdata": {"rt": -1000, "trial_type": "single-audio", "word": "velvet", "stimulus": "/static/audio/wordpool/VELVET.wav", "conditions": [18, 1200, "a", 18000], "internal_node_id": "0.0-25.0", "trial": 0, "time_elapsed": 220372, "serialpos": 13, "key_press": -1, "wordID": 1554, "type": "PRES_AUD", "trial_index": 34}, "uniqueid": "MTK2878:392CY0QWG2YWMNKTWPBCE2AECYJ4IA", "dateTime": 1519440941097}, {"current_trial": 35, "trialdata": {"rt": -1000, "trial_type": "single-audio", "word": "motel", "stimulus": "/static/audio/wordpool/MOTEL.wav", "conditions": [18, 1200, "a", 18000], "internal_node_id": "0.0-26.0", "trial": 0, "time_elapsed": 222586, "serialpos": 14, "key_press": -1, "wordID": 918, "type": "PRES_AUD", "trial_index": 35}, "uniqueid": "MTK2878:392CY0QWG2YWMNKTWPBCE2AECYJ4IA", "dateTime": 1519440943312}, {"current_trial": 36, "trialdata": {"rt": -1000, "trial_type": "single-audio", "word": "market", "stimulus": "/static/audio/wordpool/MARKET.wav", "conditions": [18, 1200, "a", 18000], "internal_node_id": "0.0-27.0", "trial": 0, "time_elapsed": 224927, "serialpos": 15, "key_press": -1, "wordID": 870, "type": "PRES_AUD", "trial_index": 36}, "uniqueid": "MTK2878:392CY0QWG2YWMNKTWPBCE2AECYJ4IA", "dateTime": 1519440945652}, {"current_trial": 37, "trialdata": {"rt": -1000, "trial_type": "single-audio", "word": "compass", "stimulus": "/static/audio/wordpool/COMPASS.wav", "conditions": [18, 1200, "a", 18000], "internal_node_id": "0.0-28.0", "trial": 0, "time_elapsed": 227291, "serialpos": 16, "key_press": -1, "wordID": 357, "type": "PRES_AUD", "trial_index": 37}, "uniqueid": "MTK2878:392CY0QWG2YWMNKTWPBCE2AECYJ4IA", "dateTime": 1519440948016}, {"current_trial": 38, "trialdata": {"rt": -1000, "trial_type": "single-audio", "word": "dresser", "stimulus": "/static/audio/wordpool/DRESSER.wav", "conditions": [18, 1200, "a", 18000], "internal_node_id": "0.0-29.0", "trial": 0, "time_elapsed": 229436, "serialpos": 17, "key_press": -1, "wordID": 495, "type": "PRES_AUD", "trial_index": 38}, "uniqueid": "MTK2878:392CY0QWG2YWMNKTWPBCE2AECYJ4IA", "dateTime": 1519440950161}, {"current_trial": 39, "trialdata": {"rt": -1, "trial_type": "single-stim", "stimulus": "", "internal_node_id": "0.0-30.0-0.0", "time_elapsed": 230737, "key_press": -1, "type": "PRE_RECALL_DELAY", "trial_index": 39}, "uniqueid": "MTK2878:392CY0QWG2YWMNKTWPBCE2AECYJ4IA", "dateTime": 1519440951462}, {"current_trial": 40, "trialdata": {"rt": -1000, "trial_type": "single-audio", "stimulus": "/static/audio/400Hz.wav", "internal_node_id": "0.0-31.0", "time_elapsed": 231238, "key_press": -1, "type": "PRE_RECALL_ALERT", "trial_index": 40}, "uniqueid": "MTK2878:392CY0QWG2YWMNKTWPBCE2AECYJ4IA", "dateTime": 1519440951963}, {"current_trial": 41, "trialdata": {"rt": [2332, 5036, 6804, 8716, 13124, 14595, 15948, 17356, 34148, 40059, 48132], "recwords": ["compas", "dresser", "motel", "beaker", "breast", "pimple", "trench", "turtle", "pistol", "sword", "sunset"], "key_times": [1358, 1469, 1636, 1836, 1972, 2029, 2332, 3878, 4084, 4172, 4364, 4508, 4684, 4796, 5036, 5588, 5764, 5884, 6020, 6172, 6804, 7716, 7908, 8060, 8204, 8316, 8404, 8716, 10892, 11084, 11204, 11373, 11460, 11580, 13124, 13428, 13684, 13868, 14084, 14268, 14452, 14595, 14964, 15133, 15285, 15424, 15612, 15724, 15948, 16133, 16316, 16413, 16613, 16835, 17012, 17356, 33212, 33445, 33556, 33652, 33764, 33956, 34148, 39028, 39364, 39500, 39732, 39941, 40059, 46956, 47084, 47357, 47549, 47860, 48028, 48132], "trial_type": "free-recall", "conditions": [18, 1200, "a", 18000], "internal_node_id": "0.0-32.0-0.0", "key_presses": [67, 79, 77, 80, 65, 83, 13, 68, 82, 69, 83, 83, 69, 82, 13, 77, 79, 84, 69, 76, 13, 66, 69, 65, 75, 69, 82, 13, 66, 82, 69, 65, 83, 84, 13, 80, 73, 77, 80, 76, 69, 13, 84, 82, 69, 78, 67, 72, 13, 84, 85, 82, 84, 76, 69, 13, 80, 73, 83, 84, 79, 76, 13, 83, 87, 79, 82, 68, 13, 83, 85, 78, 83, 69, 84, 13], "trial": 0, "time_elapsed": 291242, "type": "FREE_RECALL", "trial_index": 41}, "uniqueid": "MTK2878:392CY0QWG2YWMNKTWPBCE2AECYJ4IA", "dateTime": 1519441011968}, {"current_trial": 42, "trialdata": {"rt": 2608, "trial_type": "text", "internal_node_id": "0.0-33.0", "time_elapsed": 295852, "key_press": 74, "type": "INSTRUCTIONS", "trial_index": 42}, "uniqueid": "MTK2878:392CY0QWG2YWMNKTWPBCE2AECYJ4IA", "dateTime": 1519441016577}, {"current_trial": 43, "trialdata": {"rt": [2965, 4725, 6781, 9949, 12901, 15453, 17390], "trial_type": "math-distractor", "key_times": [2558, 2789, 2965, 4589, 4725, 6342, 6437, 6781, 9757, 9829, 9949, 12677, 12750, 12901, 15261, 15301, 15453, 17197, 17309, 17390], "responses": ["17", "5", "10", "21", "15", "15", "10"], "num2": [7, 1, 3, 7, 9, 1, 7, 2], "num3": [8, 1, 1, 9, 5, 8, 2, 7], "conditions": [18, 1200, "a", 18000], "internal_node_id": "0.0-34.0", "key_presses": [97, 103, 13, 101, 13, 97, 96, 13, 98, 97, 13, 97, 101, 13, 97, 101, 13, 97, 96, 13], "trial": 1, "time_elapsed": 315856, "type": "DISTRACTOR", "trial_index": 43, "num1": [2, 3, 6, 5, 1, 6, 1, 8]}, "uniqueid": "MTK2878:392CY0QWG2YWMNKTWPBCE2AECYJ4IA", "dateTime": 1519441036581}, {"current_trial": 44, "trialdata": {"rt": -1, "trial_type": "single-stim", "stimulus": "<p id=\"stim\">10</p>", "internal_node_id": "0.0-35.0-0.0", "time_elapsed": 318859, "key_press": -1, "trial_index": 44}, "uniqueid": "MTK2878:392CY0QWG2YWMNKTWPBCE2AECYJ4IA", "dateTime": 1519441039584}, {"current_trial": 45, "trialdata": {"rt": -1, "trial_type": "single-stim", "stimulus": "<p id=\"stim\">9</p>", "internal_node_id": "0.0-35.0-1.0", "time_elapsed": 319860, "key_press": -1, "trial_index": 45}, "uniqueid": "MTK2878:392CY0QWG2YWMNKTWPBCE2AECYJ4IA", "dateTime": 1519441040585}, {"current_trial": 46, "trialdata": {"rt": -1, "trial_type": "single-stim", "stimulus": "<p id=\"stim\">8</p>", "internal_node_id": "0.0-35.0-2.0", "time_elapsed": 320862, "key_press": -1, "trial_index": 46}, "uniqueid": "MTK2878:392CY0QWG2YWMNKTWPBCE2AECYJ4IA", "dateTime": 1519441041587}, {"current_trial": 47, "trialdata": {"rt": -1, "trial_type": "single-stim", "stimulus": "<p id=\"stim\">7</p>", "internal_node_id": "0.0-35.0-3.0", "time_elapsed": 321862, "key_press": -1, "trial_index": 47}, "uniqueid": "MTK2878:392CY0QWG2YWMNKTWPBCE2AECYJ4IA", "dateTime": 1519441042587}, {"current_trial": 48, "trialdata": {"rt": -1, "trial_type": "single-stim", "stimulus": "<p id=\"stim\">6</p>", "internal_node_id": "0.0-35.0-4.0", "time_elapsed": 322865, "key_press": -1, "trial_index": 48}, "uniqueid": "MTK2878:392CY0QWG2YWMNKTWPBCE2AECYJ4IA", "dateTime": 1519441043590}, {"current_trial": 49, "trialdata": {"rt": -1, "trial_type": "single-stim", "stimulus": "<p id=\"stim\">5</p>", "internal_node_id": "0.0-35.0-5.0", "time_elapsed": 323866, "key_press": -1, "trial_index": 49}, "uniqueid": "MTK2878:392CY0QWG2YWMNKTWPBCE2AECYJ4IA", "dateTime": 1519441044591}, {"current_trial": 50, "trialdata": {"rt": -1, "trial_type": "single-stim", "stimulus": "<p id=\"stim\">4</p>", "internal_node_id": "0.0-35.0-6.0", "time_elapsed": 324867, "key_press": -1, "trial_index": 50}, "uniqueid": "MTK2878:392CY0QWG2YWMNKTWPBCE2AECYJ4IA", "dateTime": 1519441045592}, {"current_trial": 51, "trialdata": {"rt": -1, "trial_type": "single-stim", "stimulus": "<p id=\"stim\">3</p>", "internal_node_id": "0.0-35.0-7.0", "time_elapsed": 325869, "key_press": -1, "trial_index": 51}, "uniqueid": "MTK2878:392CY0QWG2YWMNKTWPBCE2AECYJ4IA", "dateTime": 1519441046594}, {"current_trial": 52, "trialdata": {"rt": -1, "trial_type": "single-stim", "stimulus": "<p id=\"stim\">2</p>", "internal_node_id": "0.0-35.0-8.0", "time_elapsed": 326871, "key_press": -1, "trial_index": 52}, "uniqueid": "MTK2878:392CY0QWG2YWMNKTWPBCE2AECYJ4IA", "dateTime": 1519441047596}, {"current_trial": 53, "trialdata": {"rt": -1, "trial_type": "single-stim", "stimulus": "<p id=\"stim\">1</p>", "internal_node_id": "0.0-35.0-9.0", "time_elapsed": 327874, "key_press": -1, "trial_index": 53}, "uniqueid": "MTK2878:392CY0QWG2YWMNKTWPBCE2AECYJ4IA", "dateTime": 1519441048599}, {"current_trial": 54, "trialdata": {"rt": -1, "trial_type": "single-stim", "stimulus": "<p id=\"stim\">+</p>", "internal_node_id": "0.0-36.0-0.0", "time_elapsed": 329375, "key_press": -1, "type": "FIXATION", "trial_index": 54}, "uniqueid": "MTK2878:392CY0QWG2YWMNKTWPBCE2AECYJ4IA", "dateTime": 1519441050100}, {"current_trial": 55, "trialdata": {"rt": -1000, "trial_type": "single-audio", "word": "lipstick", "stimulus": "/static/audio/wordpool/LIPSTICK.wav", "conditions": [18, 1200, "a", 18000], "internal_node_id": "0.0-37.0", "trial": 1, "time_elapsed": 331434, "serialpos": 0, "key_press": -1, "wordID": 828, "type": "PRES_AUD", "trial_index": 55}, "uniqueid": "MTK2878:392CY0QWG2YWMNKTWPBCE2AECYJ4IA", "dateTime": 1519441052159}, {"current_trial": 56, "trialdata": {"rt": -1000, "trial_type": "single-audio", "word": "pebble", "stimulus": "/static/audio/wordpool/PEBBLE.wav", "conditions": [18, 1200, "a", 18000], "internal_node_id": "0.0-38.0", "trial": 1, "time_elapsed": 333676, "serialpos": 1, "key_press": -1, "wordID": 1034, "type": "PRES_AUD", "trial_index": 56}, "uniqueid": "MTK2878:392CY0QWG2YWMNKTWPBCE2AECYJ4IA", "dateTime": 1519441054401}, {"current_trial": 57, "trialdata": {"rt": -1000, "trial_type": "single-audio", "word": "europe", "stimulus": "/static/audio/wordpool/EUROPE.wav", "conditions": [18, 1200, "a", 18000], "internal_node_id": "0.0-39.0", "trial": 1, "time_elapsed": 335874, "serialpos": 2, "key_press": -1, "wordID": 540, "type": "PRES_AUD", "trial_index": 57}, "uniqueid": "MTK2878:392CY0QWG2YWMNKTWPBCE2AECYJ4IA", "dateTime": 1519441056599}, {"current_trial": 58, "trialdata": {"rt": -1000, "trial_type": "single-audio", "word": "stallion", "stimulus": "/static/audio/wordpool/STALLION.wav", "conditions": [18, 1200, "a", 18000], "internal_node_id": "0.0-40.0", "trial": 1, "time_elapsed": 337898, "serialpos": 3, "key_press": -1, "wordID": 1368, "type": "PRES_AUD", "trial_index": 58}, "uniqueid": "MTK2878:392CY0QWG2YWMNKTWPBCE2AECYJ4IA", "dateTime": 1519441058623}, {"current_trial": 59, "trialdata": {"rt": -1000, "trial_type": "single-audio", "word": "picnic", "stimulus": "/static/audio/wordpool/PICNIC.wav", "conditions": [18, 1200, "a", 18000], "internal_node_id": "0.0-41.0", "trial": 1, "time_elapsed": 340228, "serialpos": 4, "key_press": -1, "wordID": 1059, "type": "PRES_AUD", "trial_index": 59}, "uniqueid": "MTK2878:392CY0QWG2YWMNKTWPBCE2AECYJ4IA", "dateTime": 1519441060953}, {"current_trial": 60, "trialdata": {"rt": -1000, "trial_type": "single-audio", "word": "backbone", "stimulus": "/static/audio/wordpool/BACKBONE.wav", "conditions": [18, 1200, "a", 18000], "internal_node_id": "0.0-42.0", "trial": 1, "time_elapsed": 342340, "serialpos": 5, "key_press": -1, "wordID": 65, "type": "PRES_AUD", "trial_index": 60}, "uniqueid": "MTK2878:392CY0QWG2YWMNKTWPBCE2AECYJ4IA", "dateTime": 1519441063065}, {"current_trial": 61, "trialdata": {"rt": -1000, "trial_type": "single-audio", "word": "woman", "stimulus": "/static/audio/wordpool/WOMAN.wav", "conditions": [18, 1200, "a", 18000], "internal_node_id": "0.0-43.0", "trial": 1, "time_elapsed": 344346, "serialpos": 6, "key_press": -1, "wordID": 1619, "type": "PRES_AUD", "trial_index": 61}, "uniqueid": "MTK2878:392CY0QWG2YWMNKTWPBCE2AECYJ4IA", "dateTime": 1519441065072}, {"current_trial": 62, "trialdata": {"rt": -1000, "trial_type": "single-audio", "word": "padding", "stimulus": "/static/audio/wordpool/PADDING.wav", "conditions": [18, 1200, "a", 18000], "internal_node_id": "0.0-44.0", "trial": 1, "time_elapsed": 346493, "serialpos": 7, "key_press": -1, "wordID": 998, "type": "PRES_AUD", "trial_index": 62}, "uniqueid": "MTK2878:392CY0QWG2YWMNKTWPBCE2AECYJ4IA", "dateTime": 1519441067218}, {"current_trial": 63, "trialdata": {"rt": -1000, "trial_type": "single-audio", "word": "driver", "stimulus": "/static/audio/wordpool/DRIVER.wav", "conditions": [18, 1200, "a", 18000], "internal_node_id": "0.0-45.0", "trial": 1, "time_elapsed": 348550, "serialpos": 8, "key_press": -1, "wordID": 498, "type": "PRES_AUD", "trial_index": 63}, "uniqueid": "MTK2878:392CY0QWG2YWMNKTWPBCE2AECYJ4IA", "dateTime": 1519441069275}, {"current_trial": 64, "trialdata": {"rt": -1000, "trial_type": "single-audio", "word": "record", "stimulus": "/static/audio/wordpool/RECORD.wav", "conditions": [18, 1200, "a", 18000], "internal_node_id": "0.0-46.0", "trial": 1, "time_elapsed": 350595, "serialpos": 9, "key_press": -1, "wordID": 1175, "type": "PRES_AUD", "trial_index": 64}, "uniqueid": "MTK2878:392CY0QWG2YWMNKTWPBCE2AECYJ4IA", "dateTime": 1519441071320}, {"current_trial": 65, "trialdata": {"rt": -1000, "trial_type": "single-audio", "word": "doughnut", "stimulus": "/static/audio/wordpool/DOUGHNUT.wav", "conditions": [18, 1200, "a", 18000], "internal_node_id": "0.0-47.0", "trial": 1, "time_elapsed": 352801, "serialpos": 10, "key_press": -1, "wordID": 489, "type": "PRES_AUD", "trial_index": 65}, "uniqueid": "MTK2878:392CY0QWG2YWMNKTWPBCE2AECYJ4IA", "dateTime": 1519441073526}, {"current_trial": 66, "trialdata": {"rt": -1000, "trial_type": "single-audio", "word": "virus", "stimulus": "/static/audio/wordpool/VIRUS.wav", "conditions": [18, 1200, "a", 18000], "internal_node_id": "0.0-48.0", "trial": 1, "time_elapsed": 355163, "serialpos": 11, "key_press": -1, "wordID": 1571, "type": "PRES_AUD", "trial_index": 66}, "uniqueid": "MTK2878:392CY0QWG2YWMNKTWPBCE2AECYJ4IA", "dateTime": 1519441075888}, {"current_trial": 67, "trialdata": {"rt": -1000, "trial_type": "single-audio", "word": "gangster", "stimulus": "/static/audio/wordpool/GANGSTER.wav", "conditions": [18, 1200, "a", 18000], "internal_node_id": "0.0-49.0", "trial": 1, "time_elapsed": 357518, "serialpos": 12, "key_press": -1, "wordID": 619, "type": "PRES_AUD", "trial_index": 67}, "uniqueid": "MTK2878:392CY0QWG2YWMNKTWPBCE2AECYJ4IA", "dateTime": 1519441078243}, {"current_trial": 68, "trialdata": {"rt": -1000, "trial_type": "single-audio", "word": "infant", "stimulus": "/static/audio/wordpool/INFANT.wav", "conditions": [18, 1200, "a", 18000], "internal_node_id": "0.0-50.0", "trial": 1, "time_elapsed": 359853, "serialpos": 13, "key_press": -1, "wordID": 736, "type": "PRES_AUD", "trial_index": 68}, "uniqueid": "MTK2878:392CY0QWG2YWMNKTWPBCE2AECYJ4IA", "dateTime": 1519441080580}, {"current_trial": 69, "trialdata": {"rt": -1000, "trial_type": "single-audio", "word": "crater", "stimulus": "/static/audio/wordpool/CRATER.wav", "conditions": [18, 1200, "a", 18000], "internal_node_id": "0.0-51.0", "trial": 1, "time_elapsed": 361902, "serialpos": 14, "key_press": -1, "wordID": 399, "type": "PRES_AUD", "trial_index": 69}, "uniqueid": "MTK2878:392CY0QWG2YWMNKTWPBCE2AECYJ4IA", "dateTime": 1519441082627}, {"current_trial": 70, "trialdata": {"rt": -1000, "trial_type": "single-audio", "word": "sticker", "stimulus": "/static/audio/wordpool/STICKER.wav", "conditions": [18, 1200, "a", 18000], "internal_node_id": "0.0-52.0", "trial": 1, "time_elapsed": 364294, "serialpos": 15, "key_press": -1, "wordID": 1381, "type": "PRES_AUD", "trial_index": 70}, "uniqueid": "MTK2878:392CY0QWG2YWMNKTWPBCE2AECYJ4IA", "dateTime": 1519441085019}, {"current_trial": 71, "trialdata": {"rt": -1000, "trial_type": "single-audio", "word": "item", "stimulus": "/static/audio/wordpool/ITEM.wav", "conditions": [18, 1200, "a", 18000], "internal_node_id": "0.0-53.0", "trial": 1, "time_elapsed": 366468, "serialpos": 16, "key_press": -1, "wordID": 745, "type": "PRES_AUD", "trial_index": 71}, "uniqueid": "MTK2878:392CY0QWG2YWMNKTWPBCE2AECYJ4IA", "dateTime": 1519441087193}, {"current_trial": 72, "trialdata": {"rt": -1000, "trial_type": "single-audio", "word": "frame", "stimulus": "/static/audio/wordpool/FRAME.wav", "conditions": [18, 1200, "a", 18000], "internal_node_id": "0.0-54.0", "trial": 1, "time_elapsed": 368705, "serialpos": 17, "key_press": -1, "wordID": 599, "type": "PRES_AUD", "trial_index": 72}, "uniqueid": "MTK2878:392CY0QWG2YWMNKTWPBCE2AECYJ4IA", "dateTime": 1519441089430}, {"current_trial": 73, "trialdata": {"rt": -1, "trial_type": "single-stim", "stimulus": "", "internal_node_id": "0.0-55.0-0.0", "time_elapsed": 370040, "key_press": -1, "type": "PRE_RECALL_DELAY", "trial_index": 73}, "uniqueid": "MTK2878:392CY0QWG2YWMNKTWPBCE2AECYJ4IA", "dateTime": 1519441090765}, {"current_trial": 74, "trialdata": {"rt": -1000, "trial_type": "single-audio", "stimulus": "/static/audio/400Hz.wav", "internal_node_id": "0.0-56.0", "time_elapsed": 370542, "key_press": -1, "type": "PRE_RECALL_ALERT", "trial_index": 74}, "uniqueid": "MTK2878:392CY0QWG2YWMNKTWPBCE2AECYJ4IA", "dateTime": 1519441091267}, {"current_trial": 75, "trialdata": {"rt": [1797, 2604, 4781, 6420, 9117, 18278, 47669], "recwords": ["sticker", "item", "frame", "woman", "infant", "record", "europe"], "key_times": [821, 932, 1045, 1197, 1340, 1469, 1564, 1797, 2044, 2165, 2301, 2396, 2604, 3805, 4005, 4157, 4253, 4389, 4781, 5701, 5789, 5964, 6069, 6205, 6420, 6661, 6828, 6956, 7100, 7261, 7661, 7956, 8045, 9117, 17270, 17365, 17621, 17766, 18005, 18140, 18278, 45805, 46613, 46908, 47045, 47453, 47565, 47669], "trial_type": "free-recall", "conditions": [18, 1200, "a", 18000], "internal_node_id": "0.0-57.0-0.0", "key_presses": [83, 84, 73, 67, 75, 69, 82, 13, 73, 84, 69, 77, 32, 70, 82, 65, 77, 69, 13, 87, 79, 77, 65, 78, 13, 73, 78, 70, 65, 77, 8, 78, 84, 13, 82, 69, 67, 79, 82, 68, 13, 69, 85, 82, 79, 80, 69, 13], "trial": 1, "time_elapsed": 430545, "type": "FREE_RECALL", "trial_index": 75}, "uniqueid": "MTK2878:392CY0QWG2YWMNKTWPBCE2AECYJ4IA", "dateTime": 1519441151271}, {"current_trial": 76, "trialdata": {"rt": 3441, "trial_type": "text", "internal_node_id": "0.0-58.0", "time_elapsed": 435987, "key_press": 74, "type": "INSTRUCTIONS", "trial_index": 76}, "uniqueid": "MTK2878:392CY0QWG2YWMNKTWPBCE2AECYJ4IA", "dateTime": 1519441156712}, {"current_trial": 77, "trialdata": {"rt": [6021, 9013, 10605], "trial_type": "math-distractor", "key_times": [5693, 5845, 6021, 8685, 8805, 9013, 10245, 10429, 10605], "responses": ["22", "12", "17"], "num2": [8, 3, 8, 9], "num3": [5, 5, 1, 9], "conditions": [24, 800, "a", 12000], "internal_node_id": "0.0-59.0", "key_presses": [98, 98, 13, 97, 98, 13, 97, 103, 13], "trial": 2, "time_elapsed": 448991, "type": "DISTRACTOR", "trial_index": 77, "num1": [9, 4, 8, 6]}, "uniqueid": "MTK2878:392CY0QWG2YWMNKTWPBCE2AECYJ4IA", "dateTime": 1519441169716}, {"current_trial": 78, "trialdata": {"rt": -1, "trial_type": "single-stim", "stimulus": "<p id=\"stim\">10</p>", "internal_node_id": "0.0-60.0-0.0", "time_elapsed": 451992, "key_press": -1, "trial_index": 78}, "uniqueid": "MTK2878:392CY0QWG2YWMNKTWPBCE2AECYJ4IA", "dateTime": 1519441172717}, {"current_trial": 79, "trialdata": {"rt": -1, "trial_type": "single-stim", "stimulus": "<p id=\"stim\">9</p>", "internal_node_id": "0.0-60.0-1.0", "time_elapsed": 452994, "key_press": -1, "trial_index": 79}, "uniqueid": "MTK2878:392CY0QWG2YWMNKTWPBCE2AECYJ4IA", "dateTime": 1519441173719}, {"current_trial": 80, "trialdata": {"rt": -1, "trial_type": "single-stim", "stimulus": "<p id=\"stim\">8</p>", "internal_node_id": "0.0-60.0-2.0", "time_elapsed": 453995, "key_press": -1, "trial_index": 80}, "uniqueid": "MTK2878:392CY0QWG2YWMNKTWPBCE2AECYJ4IA", "dateTime": 1519441174720}, {"current_trial": 81, "trialdata": {"rt": -1, "trial_type": "single-stim", "stimulus": "<p id=\"stim\">7</p>", "internal_node_id": "0.0-60.0-3.0", "time_elapsed": 454997, "key_press": -1, "trial_index": 81}, "uniqueid": "MTK2878:392CY0QWG2YWMNKTWPBCE2AECYJ4IA", "dateTime": 1519441175722}, {"current_trial": 82, "trialdata": {"rt": -1, "trial_type": "single-stim", "stimulus": "<p id=\"stim\">6</p>", "internal_node_id": "0.0-60.0-4.0", "time_elapsed": 455999, "key_press": -1, "trial_index": 82}, "uniqueid": "MTK2878:392CY0QWG2YWMNKTWPBCE2AECYJ4IA", "dateTime": 1519441176724}, {"current_trial": 83, "trialdata": {"rt": -1, "trial_type": "single-stim", "stimulus": "<p id=\"stim\">5</p>", "internal_node_id": "0.0-60.0-5.0", "time_elapsed": 457000, "key_press": -1, "trial_index": 83}, "uniqueid": "MTK2878:392CY0QWG2YWMNKTWPBCE2AECYJ4IA", "dateTime": 1519441177725}, {"current_trial": 84, "trialdata": {"rt": -1, "trial_type": "single-stim", "stimulus": "<p id=\"stim\">4</p>", "internal_node_id": "0.0-60.0-6.0", "time_elapsed": 458002, "key_press": -1, "trial_index": 84}, "uniqueid": "MTK2878:392CY0QWG2YWMNKTWPBCE2AECYJ4IA", "dateTime": 1519441178727}, {"current_trial": 85, "trialdata": {"rt": -1, "trial_type": "single-stim", "stimulus": "<p id=\"stim\">3</p>", "internal_node_id": "0.0-60.0-7.0", "time_elapsed": 459004, "key_press": -1, "trial_index": 85}, "uniqueid": "MTK2878:392CY0QWG2YWMNKTWPBCE2AECYJ4IA", "dateTime": 1519441179729}, {"current_trial": 86, "trialdata": {"rt": -1, "trial_type": "single-stim", "stimulus": "<p id=\"stim\">2</p>", "internal_node_id": "0.0-60.0-8.0", "time_elapsed": 460005, "key_press": -1, "trial_index": 86}, "uniqueid": "MTK2878:392CY0QWG2YWMNKTWPBCE2AECYJ4IA", "dateTime": 1519441180730}, {"current_trial": 87, "trialdata": {"rt": -1, "trial_type": "single-stim", "stimulus": "<p id=\"stim\">1</p>", "internal_node_id": "0.0-60.0-9.0", "time_elapsed": 461007, "key_press": -1, "trial_index": 87}, "uniqueid": "MTK2878:392CY0QWG2YWMNKTWPBCE2AECYJ4IA", "dateTime": 1519441181732}, {"current_trial": 88, "trialdata": {"rt": -1, "trial_type": "single-stim", "stimulus": "<p id=\"stim\">+</p>", "internal_node_id": "0.0-61.0-0.0", "time_elapsed": 462508, "key_press": -1, "type": "FIXATION", "trial_index": 88}, "uniqueid": "MTK2878:392CY0QWG2YWMNKTWPBCE2AECYJ4IA", "dateTime": 1519441183233}, {"current_trial": 89, "trialdata": {"rt": -1000, "trial_type": "single-audio", "word": "robber", "stimulus": "/static/audio/wordpool/ROBBER.wav", "conditions": [24, 800, "a", 12000], "internal_node_id": "0.0-62.0", "trial": 2, "time_elapsed": 464343, "serialpos": 0, "key_press": -1, "wordID": 1196, "type": "PRES_AUD", "trial_index": 89}, "uniqueid": "MTK2878:392CY0QWG2YWMNKTWPBCE2AECYJ4IA", "dateTime": 1519441185068}, {"current_trial": 90, "trialdata": {"rt": -1000, "trial_type": "single-audio", "word": "picture", "stimulus": "/static/audio/wordpool/PICTURE.wav", "conditions": [24, 800, "a", 12000], "internal_node_id": "0.0-63.0", "trial": 2, "time_elapsed": 466302, "serialpos": 1, "key_press": -1, "wordID": 1060, "type": "PRES_AUD", "trial_index": 90}, "uniqueid": "MTK2878:392CY0QWG2YWMNKTWPBCE2AECYJ4IA", "dateTime": 1519441187027}, {"current_trial": 91, "trialdata": {"rt": -1000, "trial_type": "single-audio", "word": "jungle", "stimulus": "/static/audio/wordpool/JUNGLE.wav", "conditions": [24, 800, "a", 12000], "internal_node_id": "0.0-64.0", "trial": 2, "time_elapsed": 467939, "serialpos": 2, "key_press": -1, "wordID": 763, "type": "PRES_AUD", "trial_index": 91}, "uniqueid": "MTK2878:392CY0QWG2YWMNKTWPBCE2AECYJ4IA", "dateTime": 1519441188664}, {"current_trial": 92, "trialdata": {"rt": -1000, "trial_type": "single-audio", "word": "brother", "stimulus": "/static/audio/wordpool/BROTHER.wav", "conditions": [24, 800, "a", 12000], "internal_node_id": "0.0-65.0", "trial": 2, "time_elapsed": 469585, "serialpos": 3, "key_press": -1, "wordID": 178, "type": "PRES_AUD", "trial_index": 92}, "uniqueid": "MTK2878:392CY0QWG2YWMNKTWPBCE2AECYJ4IA", "dateTime": 1519441190310}, {"current_trial": 93, "trialdata": {"rt": -1000, "trial_type": "single-audio", "word": "plaza", "stimulus": "/static/audio/wordpool/PLAZA.wav", "conditions": [24, 800, "a", 12000], "internal_node_id": "0.0-66.0", "trial": 2, "time_elapsed": 471570, "serialpos": 4, "key_press": -1, "wordID": 1087, "type": "PRES_AUD", "trial_index": 93}, "uniqueid": "MTK2878:392CY0QWG2YWMNKTWPBCE2AECYJ4IA", "dateTime": 1519441192295}, {"current_trial": 94, "trialdata": {"rt": -1000, "trial_type": "single-audio", "word": "globe", "stimulus": "/static/audio/wordpool/GLOBE.wav", "conditions": [24, 800, "a", 12000], "internal_node_id": "0.0-67.0", "trial": 2, "time_elapsed": 473357, "serialpos": 5, "key_press": -1, "wordID": 640, "type": "PRES_AUD", "trial_index": 94}, "uniqueid": "MTK2878:392CY0QWG2YWMNKTWPBCE2AECYJ4IA", "dateTime": 1519441194082}, {"current_trial": 95, "trialdata": {"rt": -1000, "trial_type": "single-audio", "word": "country", "stimulus": "/static/audio/wordpool/COUNTRY.wav", "conditions": [24, 800, "a", 12000], "internal_node_id": "0.0-68.0", "trial": 2, "time_elapsed": 475009, "serialpos": 6, "key_press": -1, "wordID": 387, "type": "PRES_AUD", "trial_index": 95}, "uniqueid": "MTK2878:392CY0QWG2YWMNKTWPBCE2AECYJ4IA", "dateTime": 1519441195734}, {"current_trial": 96, "trialdata": {"rt": -1000, "trial_type": "single-audio", "word": "suspect", "stimulus": "/static/audio/wordpool/SUSPECT.wav", "conditions": [24, 800, "a", 12000], "internal_node_id": "0.0-69.0", "trial": 2, "time_elapsed": 476735, "serialpos": 7, "key_press": -1, "wordID": 1414, "type": "PRES_AUD", "trial_index": 96}, "uniqueid": "MTK2878:392CY0QWG2YWMNKTWPBCE2AECYJ4IA", "dateTime": 1519441197460}, {"current_trial": 97, "trialdata": {"rt": -1000, "trial_type": "single-audio", "word": "branch", "stimulus": "/static/audio/wordpool/BRANCH.wav", "conditions": [24, 800, "a", 12000], "internal_node_id": "0.0-70.0", "trial": 2, "time_elapsed": 478486, "serialpos": 8, "key_press": -1, "wordID": 167, "type": "PRES_AUD", "trial_index": 97}, "uniqueid": "MTK2878:392CY0QWG2YWMNKTWPBCE2AECYJ4IA", "dateTime": 1519441199211}, {"current_trial": 98, "trialdata": {"rt": -1000, "trial_type": "single-audio", "word": "pudding", "stimulus": "/static/audio/wordpool/PUDDING.wav", "conditions": [24, 800, "a", 12000], "internal_node_id": "0.0-71.0", "trial": 2, "time_elapsed": 480193, "serialpos": 9, "key_press": -1, "wordID": 1138, "type": "PRES_AUD", "trial_index": 98}, "uniqueid": "MTK2878:392CY0QWG2YWMNKTWPBCE2AECYJ4IA", "dateTime": 1519441200918}, {"current_trial": 99, "trialdata": {"rt": -1000, "trial_type": "single-audio", "word": "sculpture", "stimulus": "/static/audio/wordpool/SCULPTURE.wav", "conditions": [24, 800, "a", 12000], "internal_node_id": "0.0-72.0", "trial": 2, "time_elapsed": 481836, "serialpos": 10, "key_press": -1, "wordID": 1257, "type": "PRES_AUD", "trial_index": 99}, "uniqueid": "MTK2878:392CY0QWG2YWMNKTWPBCE2AECYJ4IA", "dateTime": 1519441202561}, {"current_trial": 100, "trialdata": {"rt": -1000, "trial_type": "single-audio", "word": "statue", "stimulus": "/static/audio/wordpool/STATUE.wav", "conditions": [24, 800, "a", 12000], "internal_node_id": "0.0-73.0", "trial": 2, "time_elapsed": 483667, "serialpos": 11, "key_press": -1, "wordID": 1373, "type": "PRES_AUD", "trial_index": 100}, "uniqueid": "MTK2878:392CY0QWG2YWMNKTWPBCE2AECYJ4IA", "dateTime": 1519441204392}, {"current_trial": 101, "trialdata": {"rt": -1000, "trial_type": "single-audio", "word": "soda", "stimulus": "/static/audio/wordpool/SODA.wav", "conditions": [24, 800, "a", 12000], "internal_node_id": "0.0-74.0", "trial": 2, "time_elapsed": 485466, "serialpos": 12, "key_press": -1, "wordID": 1340, "type": "PRES_AUD", "trial_index": 101}, "uniqueid": "MTK2878:392CY0QWG2YWMNKTWPBCE2AECYJ4IA", "dateTime": 1519441206191}, {"current_trial": 102, "trialdata": {"rt": -1000, "trial_type": "single-audio", "word": "bike", "stimulus": "/static/audio/wordpool/BIKE.wav", "conditions": [24, 800, "a", 12000], "internal_node_id": "0.0-75.0", "trial": 2, "time_elapsed": 487152, "serialpos": 13, "key_press": -1, "wordID": 124, "type": "PRES_AUD", "trial_index": 102}, "uniqueid": "MTK2878:392CY0QWG2YWMNKTWPBCE2AECYJ4IA", "dateTime": 1519441207877}, {"current_trial": 103, "trialdata": {"rt": -1000, "trial_type": "single-audio", "word": "slug", "stimulus": "/static/audio/wordpool/SLUG.wav", "conditions": [24, 800, "a", 12000], "internal_node_id": "0.0-76.0", "trial": 2, "time_elapsed": 488936, "serialpos": 14, "key_press": -1, "wordID": 1328, "type": "PRES_AUD", "trial_index": 103}, "uniqueid": "MTK2878:392CY0QWG2YWMNKTWPBCE2AECYJ4IA", "dateTime": 1519441209661}, {"current_trial": 104, "trialdata": {"rt": -1000, "trial_type": "single-audio", "word": "crayon", "stimulus": "/static/audio/wordpool/CRAYON.wav", "conditions": [24, 800, "a", 12000], "internal_node_id": "0.0-77.0", "trial": 2, "time_elapsed": 490822, "serialpos": 15, "key_press": -1, "wordID": 400, "type": "PRES_AUD", "trial_index": 104}, "uniqueid": "MTK2878:392CY0QWG2YWMNKTWPBCE2AECYJ4IA", "dateTime": 1519441211547}, {"current_trial": 105, "trialdata": {"rt": -1000, "trial_type": "single-audio", "word": "mailman", "stimulus": "/static/audio/wordpool/MAILMAN.wav", "conditions": [24, 800, "a", 12000], "internal_node_id": "0.0-78.0", "trial": 2, "time_elapsed": 492736, "serialpos": 16, "key_press": -1, "wordID": 857, "type": "PRES_AUD", "trial_index": 105}, "uniqueid": "MTK2878:392CY0QWG2YWMNKTWPBCE2AECYJ4IA", "dateTime": 1519441213461}, {"current_trial": 106, "trialdata": {"rt": -1000, "trial_type": "single-audio", "word": "pilot", "stimulus": "/static/audio/wordpool/PILOT.wav", "conditions": [24, 800, "a", 12000], "internal_node_id": "0.0-79.0", "trial": 2, "time_elapsed": 494627, "serialpos": 17, "key_press": -1, "wordID": 1069, "type": "PRES_AUD", "trial_index": 106}, "uniqueid": "MTK2878:392CY0QWG2YWMNKTWPBCE2AECYJ4IA", "dateTime": 1519441215352}, {"current_trial": 107, "trialdata": {"rt": -1000, "trial_type": "single-audio", "word": "arm", "stimulus": "/static/audio/wordpool/ARM.wav", "conditions": [24, 800, "a", 12000], "internal_node_id": "0.0-80.0", "trial": 2, "time_elapsed": 496278, "serialpos": 18, "key_press": -1, "wordID": 37, "type": "PRES_AUD", "trial_index": 107}, "uniqueid": "MTK2878:392CY0QWG2YWMNKTWPBCE2AECYJ4IA", "dateTime": 1519441217003}, {"current_trial": 108, "trialdata": {"rt": -1000, "trial_type": "single-audio", "word": "outdoors", "stimulus": "/static/audio/wordpool/OUTDOORS.wav", "conditions": [24, 800, "a", 12000], "internal_node_id": "0.0-81.0", "trial": 2, "time_elapsed": 498239, "serialpos": 19, "key_press": -1, "wordID": 986, "type": "PRES_AUD", "trial_index": 108}, "uniqueid": "MTK2878:392CY0QWG2YWMNKTWPBCE2AECYJ4IA", "dateTime": 1519441218964}, {"current_trial": 109, "trialdata": {"rt": -1000, "trial_type": "single-audio", "word": "flashlight", "stimulus": "/static/audio/wordpool/FLASHLIGHT.wav", "conditions": [24, 800, "a", 12000], "internal_node_id": "0.0-82.0", "trial": 2, "time_elapsed": 500039, "serialpos": 20, "key_press": -1, "wordID": 574, "type": "PRES_AUD", "trial_index": 109}, "uniqueid": "MTK2878:392CY0QWG2YWMNKTWPBCE2AECYJ4IA", "dateTime": 1519441220764}, {"current_trial": 110, "trialdata": {"rt": -1000, "trial_type": "single-audio", "word": "coffee", "stimulus": "/static/audio/wordpool/COFFEE.wav", "conditions": [24, 800, "a", 12000], "internal_node_id": "0.0-83.0", "trial": 2, "time_elapsed": 502002, "serialpos": 21, "key_press": -1, "wordID": 340, "type": "PRES_AUD", "trial_index": 110}, "uniqueid": "MTK2878:392CY0QWG2YWMNKTWPBCE2AECYJ4IA", "dateTime": 1519441222727}, {"current_trial": 111, "trialdata": {"rt": -1000, "trial_type": "single-audio", "word": "creature", "stimulus": "/static/audio/wordpool/CREATURE.wav", "conditions": [24, 800, "a", 12000], "internal_node_id": "0.0-84.0", "trial": 2, "time_elapsed": 503747, "serialpos": 22, "key_press": -1, "wordID": 402, "type": "PRES_AUD", "trial_index": 111}, "uniqueid": "MTK2878:392CY0QWG2YWMNKTWPBCE2AECYJ4IA", "dateTime": 1519441224472}, {"current_trial": 112, "trialdata": {"rt": -1000, "trial_type": "single-audio", "word": "monster", "stimulus": "/static/audio/wordpool/MONSTER.wav", "conditions": [24, 800, "a", 12000], "internal_node_id": "0.0-85.0", "trial": 2, "time_elapsed": 505545, "serialpos": 23, "key_press": -1, "wordID": 911, "type": "PRES_AUD", "trial_index": 112}, "uniqueid": "MTK2878:392CY0QWG2YWMNKTWPBCE2AECYJ4IA", "dateTime": 1519441226270}, {"current_trial": 113, "trialdata": {"rt": -1, "trial_type": "single-stim", "stimulus": "", "internal_node_id": "0.0-86.0-0.0", "time_elapsed": 506833, "key_press": -1, "type": "PRE_RECALL_DELAY", "trial_index": 113}, "uniqueid": "MTK2878:392CY0QWG2YWMNKTWPBCE2AECYJ4IA", "dateTime": 1519441227558}, {"current_trial": 114, "trialdata": {"rt": -1000, "trial_type": "single-audio", "stimulus": "/static/audio/400Hz.wav", "internal_node_id": "0.0-87.0", "time_elapsed": 507335, "key_press": -1, "type": "PRE_RECALL_ALERT", "trial_index": 114}, "uniqueid": "MTK2878:392CY0QWG2YWMNKTWPBCE2AECYJ4IA", "dateTime": 1519441228060}, {"current_trial": 115, "trialdata": {"rt": [2066, 3266, 4682, 6538, 8930, 12370, 13866, 21161, 31674, 57546], "recwords": ["creature", "monster", "pilot", "arm", "sticker", "picture", "globe", "teacher", "robber", "frame"], "key_times": [738, 978, 1066, 1210, 1321, 1505, 1643, 1691, 2066, 2297, 2458, 2610, 2732, 2795, 2921, 3017, 3266, 3569, 3866, 4162, 4393, 4521, 4682, 6058, 6185, 6306, 6538, 8082, 8282, 8378, 8529, 8659, 8762, 8834, 8930, 11354, 11577, 11618, 11801, 11946, 12050, 12130, 12370, 13161, 13251, 13443, 13546, 13753, 13866, 20217, 20361, 20529, 20705, 20802, 20953, 21033, 21161, 30713, 30849, 31042, 31226, 31426, 31514, 31674, 56602, 56825, 56993, 57169, 57353, 57546], "trial_type": "free-recall", "conditions": [24, 800, "a", 12000], "internal_node_id": "0.0-88.0-0.0", "key_presses": [67, 82, 69, 65, 84, 85, 82, 69, 13, 77, 79, 78, 83, 84, 69, 82, 13, 80, 73, 76, 79, 84, 13, 65, 82, 77, 13, 83, 84, 73, 67, 75, 69, 82, 13, 80, 73, 67, 84, 85, 82, 69, 13, 71, 76, 79, 66, 69, 13, 84, 69, 65, 67, 72, 69, 82, 13, 82, 79, 66, 66, 69, 82, 13, 70, 82, 65, 77, 69, 13], "trial": 2, "time_elapsed": 567338, "type": "FREE_RECALL", "trial_index": 115}, "uniqueid": "MTK2878:392CY0QWG2YWMNKTWPBCE2AECYJ4IA", "dateTime": 1519441288065}, {"current_trial": 116, "trialdata": {"rt": 2237, "trial_type": "text", "internal_node_id": "0.0-89.0", "time_elapsed": 571578, "key_press": 74, "type": "INSTRUCTIONS", "trial_index": 116}, "uniqueid": "MTK2878:392CY0QWG2YWMNKTWPBCE2AECYJ4IA", "dateTime": 1519441292303}, {"current_trial": 117, "trialdata": {"rt": [3245, 5365, 8397, 10285], "trial_type": "math-distractor", "key_times": [2869, 3125, 3245, 5133, 5285, 5365, 8110, 8205, 8397, 10005, 10173, 10285], "responses": ["14", "11", "13", "14"], "num2": [6, 3, 3, 2, 6], "num3": [8, 6, 6, 8, 3], "conditions": [24, 1600, "a", 12000], "internal_node_id": "0.0-90.0", "key_presses": [97, 100, 13, 97, 97, 13, 97, 99, 13, 97, 100, 13], "trial": 3, "time_elapsed": 585582, "type": "DISTRACTOR", "trial_index": 117, "num1": [1, 2, 4, 4, 4]}, "uniqueid": "MTK2878:392CY0QWG2YWMNKTWPBCE2AECYJ4IA", "dateTime": 1519441306307}, {"current_trial": 118, "trialdata": {"rt": -1, "trial_type": "single-stim", "stimulus": "<p id=\"stim\">10</p>", "internal_node_id": "0.0-91.0-0.0", "time_elapsed": 588583, "key_press": -1, "trial_index": 118}, "uniqueid": "MTK2878:392CY0QWG2YWMNKTWPBCE2AECYJ4IA", "dateTime": 1519441309308}, {"current_trial": 119, "trialdata": {"rt": -1, "trial_type": "single-stim", "stimulus": "<p id=\"stim\">9</p>", "internal_node_id": "0.0-91.0-1.0", "time_elapsed": 589585, "key_press": -1, "trial_index": 119}, "uniqueid": "MTK2878:392CY0QWG2YWMNKTWPBCE2AECYJ4IA", "dateTime": 1519441310310}, {"current_trial": 120, "trialdata": {"rt": -1, "trial_type": "single-stim", "stimulus": "<p id=\"stim\">8</p>", "internal_node_id": "0.0-91.0-2.0", "time_elapsed": 590587, "key_press": -1, "trial_index": 120}, "uniqueid": "MTK2878:392CY0QWG2YWMNKTWPBCE2AECYJ4IA", "dateTime": 1519441311315}, {"current_trial": 121, "trialdata": {"rt": -1, "trial_type": "single-stim", "stimulus": "<p id=\"stim\">7</p>", "internal_node_id": "0.0-91.0-3.0", "time_elapsed": 591592, "key_press": -1, "trial_index": 121}, "uniqueid": "MTK2878:392CY0QWG2YWMNKTWPBCE2AECYJ4IA", "dateTime": 1519441312317}, {"current_trial": 122, "trialdata": {"rt": -1, "trial_type": "single-stim", "stimulus": "<p id=\"stim\">6</p>", "internal_node_id": "0.0-91.0-4.0", "time_elapsed": 592592, "key_press": -1, "trial_index": 122}, "uniqueid": "MTK2878:392CY0QWG2YWMNKTWPBCE2AECYJ4IA", "dateTime": 1519441313318}, {"current_trial": 123, "trialdata": {"rt": -1, "trial_type": "single-stim", "stimulus": "<p id=\"stim\">5</p>", "internal_node_id": "0.0-91.0-5.0", "time_elapsed": 593594, "key_press": -1, "trial_index": 123}, "uniqueid": "MTK2878:392CY0QWG2YWMNKTWPBCE2AECYJ4IA", "dateTime": 1519441314319}, {"current_trial": 124, "trialdata": {"rt": -1, "trial_type": "single-stim", "stimulus": "<p id=\"stim\">4</p>", "internal_node_id": "0.0-91.0-6.0", "time_elapsed": 594595, "key_press": -1, "trial_index": 124}, "uniqueid": "MTK2878:392CY0QWG2YWMNKTWPBCE2AECYJ4IA", "dateTime": 1519441315320}, {"current_trial": 125, "trialdata": {"rt": -1, "trial_type": "single-stim", "stimulus": "<p id=\"stim\">3</p>", "internal_node_id": "0.0-91.0-7.0", "time_elapsed": 595598, "key_press": -1, "trial_index": 125}, "uniqueid": "MTK2878:392CY0QWG2YWMNKTWPBCE2AECYJ4IA", "dateTime": 1519441316323}, {"current_trial": 126, "trialdata": {"rt": -1, "trial_type": "single-stim", "stimulus": "<p id=\"stim\">2</p>", "internal_node_id": "0.0-91.0-8.0", "time_elapsed": 596598, "key_press": -1, "trial_index": 126}, "uniqueid": "MTK2878:392CY0QWG2YWMNKTWPBCE2AECYJ4IA", "dateTime": 1519441317323}, {"current_trial": 127, "trialdata": {"rt": -1, "trial_type": "single-stim", "stimulus": "<p id=\"stim\">1</p>", "internal_node_id": "0.0-91.0-9.0", "time_elapsed": 597599, "key_press": -1, "trial_index": 127}, "uniqueid": "MTK2878:392CY0QWG2YWMNKTWPBCE2AECYJ4IA", "dateTime": 1519441318324}, {"current_trial": 128, "trialdata": {"rt": -1, "trial_type": "single-stim", "stimulus": "<p id=\"stim\">+</p>", "internal_node_id": "0.0-92.0-0.0", "time_elapsed": 599102, "key_press": -1, "type": "FIXATION", "trial_index": 128}, "uniqueid": "MTK2878:392CY0QWG2YWMNKTWPBCE2AECYJ4IA", "dateTime": 1519441319828}, {"current_trial": 129, "trialdata": {"rt": -1000, "trial_type": "single-audio", "word": "radish", "stimulus": "/static/audio/wordpool/RADISH.wav", "conditions": [24, 1600, "a", 12000], "internal_node_id": "0.0-93.0", "trial": 3, "time_elapsed": 601866, "serialpos": 0, "key_press": -1, "wordID": 1157, "type": "PRES_AUD", "trial_index": 129}, "uniqueid": "MTK2878:392CY0QWG2YWMNKTWPBCE2AECYJ4IA", "dateTime": 1519441322591}, {"current_trial": 130, "trialdata": {"rt": -1000, "trial_type": "single-audio", "word": "cafe", "stimulus": "/static/audio/wordpool/CAFE.wav", "conditions": [24, 1600, "a", 12000], "internal_node_id": "0.0-94.0", "trial": 3, "time_elapsed": 604482, "serialpos": 1, "key_press": -1, "wordID": 215, "type": "PRES_AUD", "trial_index": 130}, "uniqueid": "MTK2878:392CY0QWG2YWMNKTWPBCE2AECYJ4IA", "dateTime": 1519441325207}, {"current_trial": 131, "trialdata": {"rt": -1000, "trial_type": "single-audio", "word": "diner", "stimulus": "/static/audio/wordpool/DINER.wav", "conditions": [24, 1600, "a", 12000], "internal_node_id": "0.0-95.0", "trial": 3, "time_elapsed": 607234, "serialpos": 2, "key_press": -1, "wordID": 466, "type": "PRES_AUD", "trial_index": 131}, "uniqueid": "MTK2878:392CY0QWG2YWMNKTWPBCE2AECYJ4IA", "dateTime": 1519441327959}, {"current_trial": 132, "trialdata": {"rt": -1000, "trial_type": "single-audio", "word": "window", "stimulus": "/static/audio/wordpool/WINDOW.wav", "conditions": [24, 1600, "a", 12000], "internal_node_id": "0.0-96.0", "trial": 3, "time_elapsed": 609981, "serialpos": 3, "key_press": -1, "wordID": 1610, "type": "PRES_AUD", "trial_index": 132}, "uniqueid": "MTK2878:392CY0QWG2YWMNKTWPBCE2AECYJ4IA", "dateTime": 1519441330707}, {"current_trial": 133, "trialdata": {"rt": -1000, "trial_type": "single-audio", "word": "summit", "stimulus": "/static/audio/wordpool/SUMMIT.wav", "conditions": [24, 1600, "a", 12000], "internal_node_id": "0.0-97.0", "trial": 3, "time_elapsed": 612546, "serialpos": 4, "key_press": -1, "wordID": 1404, "type": "PRES_AUD", "trial_index": 133}, "uniqueid": "MTK2878:392CY0QWG2YWMNKTWPBCE2AECYJ4IA", "dateTime": 1519441333271}, {"current_trial": 134, "trialdata": {"rt": -1000, "trial_type": "single-audio", "word": "igloo", "stimulus": "/static/audio/wordpool/IGLOO.wav", "conditions": [24, 1600, "a", 12000], "internal_node_id": "0.0-98.0", "trial": 3, "time_elapsed": 615079, "serialpos": 5, "key_press": -1, "wordID": 733, "type": "PRES_AUD", "trial_index": 134}, "uniqueid": "MTK2878:392CY0QWG2YWMNKTWPBCE2AECYJ4IA", "dateTime": 1519441335804}, {"current_trial": 135, "trialdata": {"rt": -1000, "trial_type": "single-audio", "word": "beast", "stimulus": "/static/audio/wordpool/BEAST.wav", "conditions": [24, 1600, "a", 12000], "internal_node_id": "0.0-99.0", "trial": 3, "time_elapsed": 617823, "serialpos": 6, "key_press": -1, "wordID": 107, "type": "PRES_AUD", "trial_index": 135}, "uniqueid": "MTK2878:392CY0QWG2YWMNKTWPBCE2AECYJ4IA", "dateTime": 1519441338548}, {"current_trial": 136, "trialdata": {"rt": -1000, "trial_type": "single-audio", "word": "parsley", "stimulus": "/static/audio/wordpool/PARSLEY.wav", "conditions": [24, 1600, "a", 12000], "internal_node_id": "0.0-100.0", "trial": 3, "time_elapsed": 620437, "serialpos": 7, "key_press": -1, "wordID": 1015, "type": "PRES_AUD", "trial_index": 136}, "uniqueid": "MTK2878:392CY0QWG2YWMNKTWPBCE2AECYJ4IA", "dateTime": 1519441341162}, {"current_trial": 137, "trialdata": {"rt": -1000, "trial_type": "single-audio", "word": "yacht", "stimulus": "/static/audio/wordpool/YACHT.wav", "conditions": [24, 1600, "a", 12000], "internal_node_id": "0.0-101.0", "trial": 3, "time_elapsed": 622941, "serialpos": 8, "key_press": -1, "wordID": 1628, "type": "PRES_AUD", "trial_index": 137}, "uniqueid": "MTK2878:392CY0QWG2YWMNKTWPBCE2AECYJ4IA", "dateTime": 1519441343666}, {"current_trial": 138, "trialdata": {"rt": -1000, "trial_type": "single-audio", "word": "champagne", "stimulus": "/static/audio/wordpool/CHAMPAGNE.wav", "conditions": [24, 1600, "a", 12000], "internal_node_id": "0.0-102.0", "trial": 3, "time_elapsed": 625470, "serialpos": 9, "key_press": -1, "wordID": 277, "type": "PRES_AUD", "trial_index": 138}, "uniqueid": "MTK2878:392CY0QWG2YWMNKTWPBCE2AECYJ4IA", "dateTime": 1519441346195}, {"current_trial": 139, "trialdata": {"rt": -1000, "trial_type": "single-audio", "word": "candy", "stimulus": "/static/audio/wordpool/CANDY.wav", "conditions": [24, 1600, "a", 12000], "internal_node_id": "0.0-103.0", "trial": 3, "time_elapsed": 628142, "serialpos": 10, "key_press": -1, "wordID": 229, "type": "PRES_AUD", "trial_index": 139}, "uniqueid": "MTK2878:392CY0QWG2YWMNKTWPBCE2AECYJ4IA", "dateTime": 1519441348868}, {"current_trial": 140, "trialdata": {"rt": -1000, "trial_type": "single-audio", "word": "thief", "stimulus": "/static/audio/wordpool/THIEF.wav", "conditions": [24, 1600, "a", 12000], "internal_node_id": "0.0-104.0", "trial": 3, "time_elapsed": 630576, "serialpos": 11, "key_press": -1, "wordID": 1455, "type": "PRES_AUD", "trial_index": 140}, "uniqueid": "MTK2878:392CY0QWG2YWMNKTWPBCE2AECYJ4IA", "dateTime": 1519441351301}, {"current_trial": 141, "trialdata": {"rt": -1000, "trial_type": "single-audio", "word": "rod", "stimulus": "/static/audio/wordpool/ROD.wav", "conditions": [24, 1600, "a", 12000], "internal_node_id": "0.0-105.0", "trial": 3, "time_elapsed": 633233, "serialpos": 12, "key_press": -1, "wordID": 1202, "type": "PRES_AUD", "trial_index": 141}, "uniqueid": "MTK2878:392CY0QWG2YWMNKTWPBCE2AECYJ4IA", "dateTime": 1519441353958}, {"current_trial": 142, "trialdata": {"rt": -1000, "trial_type": "single-audio", "word": "garbage", "stimulus": "/static/audio/wordpool/GARBAGE.wav", "conditions": [24, 1600, "a", 12000], "internal_node_id": "0.0-106.0", "trial": 3, "time_elapsed": 635856, "serialpos": 13, "key_press": -1, "wordID": 621, "type": "PRES_AUD", "trial_index": 142}, "uniqueid": "MTK2878:392CY0QWG2YWMNKTWPBCE2AECYJ4IA", "dateTime": 1519441356581}, {"current_trial": 143, "trialdata": {"rt": -1000, "trial_type": "single-audio", "word": "truck", "stimulus": "/static/audio/wordpool/TRUCK.wav", "conditions": [24, 1600, "a", 12000], "internal_node_id": "0.0-107.0", "trial": 3, "time_elapsed": 638644, "serialpos": 14, "key_press": -1, "wordID": 1511, "type": "PRES_AUD", "trial_index": 143}, "uniqueid": "MTK2878:392CY0QWG2YWMNKTWPBCE2AECYJ4IA", "dateTime": 1519441359369}, {"current_trial": 144, "trialdata": {"rt": -1000, "trial_type": "single-audio", "word": "cowboy", "stimulus": "/static/audio/wordpool/COWBOY.wav", "conditions": [24, 1600, "a", 12000], "internal_node_id": "0.0-108.0", "trial": 3, "time_elapsed": 641120, "serialpos": 15, "key_press": -1, "wordID": 394, "type": "PRES_AUD", "trial_index": 144}, "uniqueid": "MTK2878:392CY0QWG2YWMNKTWPBCE2AECYJ4IA", "dateTime": 1519441361845}, {"current_trial": 145, "trialdata": {"rt": -1000, "trial_type": "single-audio", "word": "servant", "stimulus": "/static/audio/wordpool/SERVANT.wav", "conditions": [24, 1600, "a", 12000], "internal_node_id": "0.0-109.0", "trial": 3, "time_elapsed": 643895, "serialpos": 16, "key_press": -1, "wordID": 1270, "type": "PRES_AUD", "trial_index": 145}, "uniqueid": "MTK2878:392CY0QWG2YWMNKTWPBCE2AECYJ4IA", "dateTime": 1519441364620}, {"current_trial": 146, "trialdata": {"rt": -1000, "trial_type": "single-audio", "word": "mustard", "stimulus": "/static/audio/wordpool/MUSTARD.wav", "conditions": [24, 1600, "a", 12000], "internal_node_id": "0.0-110.0", "trial": 3, "time_elapsed": 646429, "serialpos": 17, "key_press": -1, "wordID": 934, "type": "PRES_AUD", "trial_index": 146}, "uniqueid": "MTK2878:392CY0QWG2YWMNKTWPBCE2AECYJ4IA", "dateTime": 1519441367154}, {"current_trial": 147, "trialdata": {"rt": -1000, "trial_type": "single-audio", "word": "wagon", "stimulus": "/static/audio/wordpool/WAGON.wav", "conditions": [24, 1600, "a", 12000], "internal_node_id": "0.0-111.0", "trial": 3, "time_elapsed": 648926, "serialpos": 18, "key_press": -1, "wordID": 1577, "type": "PRES_AUD", "trial_index": 147}, "uniqueid": "MTK2878:392CY0QWG2YWMNKTWPBCE2AECYJ4IA", "dateTime": 1519441369651}, {"current_trial": 148, "trialdata": {"rt": -1000, "trial_type": "single-audio", "word": "pigeon", "stimulus": "/static/audio/wordpool/PIGEON.wav", "conditions": [24, 1600, "a", 12000], "internal_node_id": "0.0-112.0", "trial": 3, "time_elapsed": 651489, "serialpos": 19, "key_press": -1, "wordID": 1064, "type": "PRES_AUD", "trial_index": 148}, "uniqueid": "MTK2878:392CY0QWG2YWMNKTWPBCE2AECYJ4IA", "dateTime": 1519441372216}, {"current_trial": 149, "trialdata": {"rt": -1000, "trial_type": "single-audio", "word": "blade", "stimulus": "/static/audio/wordpool/BLADE.wav", "conditions": [24, 1600, "a", 12000], "internal_node_id": "0.0-113.0", "trial": 3, "time_elapsed": 653924, "serialpos": 20, "key_press": -1, "wordID": 133, "type": "PRES_AUD", "trial_index": 149}, "uniqueid": "MTK2878:392CY0QWG2YWMNKTWPBCE2AECYJ4IA", "dateTime": 1519441374649}, {"current_trial": 150, "trialdata": {"rt": -1000, "trial_type": "single-audio", "word": "knife", "stimulus": "/static/audio/wordpool/KNIFE.wav", "conditions": [24, 1600, "a", 12000], "internal_node_id": "0.0-114.0", "trial": 3, "time_elapsed": 656702, "serialpos": 21, "key_press": -1, "wordID": 784, "type": "PRES_AUD", "trial_index": 150}, "uniqueid": "MTK2878:392CY0QWG2YWMNKTWPBCE2AECYJ4IA", "dateTime": 1519441377427}, {"current_trial": 151, "trialdata": {"rt": -1000, "trial_type": "single-audio", "word": "witness", "stimulus": "/static/audio/wordpool/WITNESS.wav", "conditions": [24, 1600, "a", 12000], "internal_node_id": "0.0-115.0", "trial": 3, "time_elapsed": 659275, "serialpos": 22, "key_press": -1, "wordID": 1617, "type": "PRES_AUD", "trial_index": 151}, "uniqueid": "MTK2878:392CY0QWG2YWMNKTWPBCE2AECYJ4IA", "dateTime": 1519441380000}, {"current_trial": 152, "trialdata": {"rt": -1000, "trial_type": "single-audio", "word": "pork", "stimulus": "/static/audio/wordpool/PORK.wav", "conditions": [24, 1600, "a", 12000], "internal_node_id": "0.0-116.0", "trial": 3, "time_elapsed": 661708, "serialpos": 23, "key_press": -1, "wordID": 1107, "type": "PRES_AUD", "trial_index": 152}, "uniqueid": "MTK2878:392CY0QWG2YWMNKTWPBCE2AECYJ4IA", "dateTime": 1519441382434}, {"current_trial": 153, "trialdata": {"rt": -1, "trial_type": "single-stim", "stimulus": "", "internal_node_id": "0.0-117.0-0.0", "time_elapsed": 663090, "key_press": -1, "type": "PRE_RECALL_DELAY", "trial_index": 153}, "uniqueid": "MTK2878:392CY0QWG2YWMNKTWPBCE2AECYJ4IA", "dateTime": 1519441383815}, {"current_trial": 154, "trialdata": {"rt": -1000, "trial_type": "single-audio", "stimulus": "/static/audio/400Hz.wav", "internal_node_id": "0.0-118.0", "time_elapsed": 663591, "key_press": -1, "type": "PRE_RECALL_ALERT", "trial_index": 154}, "uniqueid": "MTK2878:392CY0QWG2YWMNKTWPBCE2AECYJ4IA", "dateTime": 1519441384317}, {"current_trial": 155, "trialdata": {"rt": [1898, 3426, 4546, 5643, 8018, 10482, 13130, 16266, 17474, 19380, 21154, 45882], "recwords": ["pork", "witness", "blade", "wagon", "beast", "igloo", "parsnip", "radish", "diner", "cafe", "window", "garlic"], "key_times": [1123, 1330, 1458, 1554, 1898, 2122, 2306, 2449, 2610, 2707, 2906, 3067, 3426, 3770, 3874, 4010, 4154, 4363, 4546, 4883, 5026, 5114, 5290, 5490, 5643, 7242, 7482, 7682, 7746, 7882, 8018, 8306, 8386, 8706, 8834, 9067, 9186, 9417, 9762, 9906, 10482, 11970, 12066, 12155, 12291, 12450, 12611, 12946, 13130, 15274, 15402, 15538, 15810, 15930, 16050, 16266, 16850, 16929, 17090, 17186, 17290, 17474, 18043, 18345, 18412, 18554, 18666, 18874, 19380, 19818, 20138, 20194, 20378, 20594, 20730, 20834, 21003, 21154, 45154, 45290, 45394, 45490, 45666, 45729, 45882], "trial_type": "free-recall", "conditions": [24, 1600, "a", 12000], "internal_node_id": "0.0-119.0-0.0", "key_presses": [80, 79, 82, 75, 13, 87, 73, 84, 78, 69, 83, 83, 13, 66, 76, 65, 68, 69, 13, 87, 65, 71, 79, 78, 13, 66, 69, 65, 83, 84, 13, 71, 73, 8, 8, 73, 71, 76, 79, 79, 13, 80, 65, 82, 83, 78, 73, 80, 13, 82, 65, 68, 73, 83, 72, 13, 68, 73, 78, 69, 82, 13, 71, 8, 67, 65, 70, 69, 13, 68, 8, 87, 73, 78, 68, 79, 87, 13, 71, 65, 82, 76, 73, 67, 13], "trial": 3, "time_elapsed": 723593, "type": "FREE_RECALL", "trial_index": 155}, "uniqueid": "MTK2878:392CY0QWG2YWMNKTWPBCE2AECYJ4IA", "dateTime": 1519441444319}, {"current_trial": 156, "trialdata": {"rt": 2102, "trial_type": "text", "internal_node_id": "0.0-120.0", "time_elapsed": 727698, "key_press": 74, "type": "INSTRUCTIONS", "trial_index": 156}, "uniqueid": "MTK2878:392CY0QWG2YWMNKTWPBCE2AECYJ4IA", "dateTime": 1519441448423}, {"current_trial": 157, "trialdata": {"rt": [2519, 6685, 8302, 11070, 13670, 15741, 18294, 20070, 21646], "trial_type": "math-distractor", "key_times": [2237, 2318, 2519, 5134, 6502, 6685, 8070, 8206, 8302, 10798, 10959, 11070, 13518, 13614, 13670, 15502, 15598, 15741, 17950, 18095, 18294, 19726, 19886, 20070, 21438, 21502, 21646], "responses": ["16", "18", "11", "14", "20", "15", "19", "18", "15"], "num2": [9, 4, 1, 2, 5, 5, 6, 5, 9, 8], "num3": [5, 6, 6, 5, 6, 7, 8, 8, 1, 3], "conditions": [24, 1600, "a", 24000], "internal_node_id": "0.0-121.0", "key_presses": [97, 102, 13, 97, 104, 13, 97, 97, 13, 97, 100, 13, 98, 96, 13, 97, 101, 13, 97, 105, 13, 97, 104, 13, 97, 101, 13], "trial": 4, "time_elapsed": 753701, "type": "DISTRACTOR", "trial_index": 157, "num1": [2, 8, 4, 7, 9, 3, 5, 5, 5, 6]}, "uniqueid": "MTK2878:392CY0QWG2YWMNKTWPBCE2AECYJ4IA", "dateTime": 1519441474426}, {"current_trial": 158, "trialdata": {"rt": -1, "trial_type": "single-stim", "stimulus": "<p id=\"stim\">10</p>", "internal_node_id": "0.0-122.0-0.0", "time_elapsed": 756704, "key_press": -1, "trial_index": 158}, "uniqueid": "MTK2878:392CY0QWG2YWMNKTWPBCE2AECYJ4IA", "dateTime": 1519441477429}, {"current_trial": 159, "trialdata": {"rt": -1, "trial_type": "single-stim", "stimulus": "<p id=\"stim\">9</p>", "internal_node_id": "0.0-122.0-1.0", "time_elapsed": 757705, "key_press": -1, "trial_index": 159}, "uniqueid": "MTK2878:392CY0QWG2YWMNKTWPBCE2AECYJ4IA", "dateTime": 1519441478430}, {"current_trial": 160, "trialdata": {"rt": -1, "trial_type": "single-stim", "stimulus": "<p id=\"stim\">8</p>", "internal_node_id": "0.0-122.0-2.0", "time_elapsed": 758705, "key_press": -1, "trial_index": 160}, "uniqueid": "MTK2878:392CY0QWG2YWMNKTWPBCE2AECYJ4IA", "dateTime": 1519441479430}, {"current_trial": 161, "trialdata": {"rt": -1, "trial_type": "single-stim", "stimulus": "<p id=\"stim\">7</p>", "internal_node_id": "0.0-122.0-3.0", "time_elapsed": 759707, "key_press": -1, "trial_index": 161}, "uniqueid": "MTK2878:392CY0QWG2YWMNKTWPBCE2AECYJ4IA", "dateTime": 1519441480432}, {"current_trial": 162, "trialdata": {"rt": -1, "trial_type": "single-stim", "stimulus": "<p id=\"stim\">6</p>", "internal_node_id": "0.0-122.0-4.0", "time_elapsed": 760709, "key_press": -1, "trial_index": 162}, "uniqueid": "MTK2878:392CY0QWG2YWMNKTWPBCE2AECYJ4IA", "dateTime": 1519441481435}, {"current_trial": 163, "trialdata": {"rt": -1, "trial_type": "single-stim", "stimulus": "<p id=\"stim\">5</p>", "internal_node_id": "0.0-122.0-5.0", "time_elapsed": 761710, "key_press": -1, "trial_index": 163}, "uniqueid": "MTK2878:392CY0QWG2YWMNKTWPBCE2AECYJ4IA", "dateTime": 1519441482436}, {"current_trial": 164, "trialdata": {"rt": -1, "trial_type": "single-stim", "stimulus": "<p id=\"stim\">4</p>", "internal_node_id": "0.0-122.0-6.0", "time_elapsed": 762712, "key_press": -1, "trial_index": 164}, "uniqueid": "MTK2878:392CY0QWG2YWMNKTWPBCE2AECYJ4IA", "dateTime": 1519441483437}, {"current_trial": 165, "trialdata": {"rt": -1, "trial_type": "single-stim", "stimulus": "<p id=\"stim\">3</p>", "internal_node_id": "0.0-122.0-7.0", "time_elapsed": 763714, "key_press": -1, "trial_index": 165}, "uniqueid": "MTK2878:392CY0QWG2YWMNKTWPBCE2AECYJ4IA", "dateTime": 1519441484439}, {"current_trial": 166, "trialdata": {"rt": -1, "trial_type": "single-stim", "stimulus": "<p id=\"stim\">2</p>", "internal_node_id": "0.0-122.0-8.0", "time_elapsed": 764717, "key_press": -1, "trial_index": 166}, "uniqueid": "MTK2878:392CY0QWG2YWMNKTWPBCE2AECYJ4IA", "dateTime": 1519441485442}, {"current_trial": 167, "trialdata": {"rt": -1, "trial_type": "single-stim", "stimulus": "<p id=\"stim\">1</p>", "internal_node_id": "0.0-122.0-9.0", "time_elapsed": 765718, "key_press": -1, "trial_index": 167}, "uniqueid": "MTK2878:392CY0QWG2YWMNKTWPBCE2AECYJ4IA", "dateTime": 1519441486443}, {"current_trial": 168, "trialdata": {"rt": -1, "trial_type": "single-stim", "stimulus": "<p id=\"stim\">+</p>", "internal_node_id": "0.0-123.0-0.0", "time_elapsed": 767219, "key_press": -1, "type": "FIXATION", "trial_index": 168}, "uniqueid": "MTK2878:392CY0QWG2YWMNKTWPBCE2AECYJ4IA", "dateTime": 1519441487944}, {"current_trial": 169, "trialdata": {"rt": -1000, "trial_type": "single-audio", "word": "baby", "stimulus": "/static/audio/wordpool/BABY.wav", "conditions": [24, 1600, "a", 24000], "internal_node_id": "0.0-124.0", "trial": 4, "time_elapsed": 769677, "serialpos": 0, "key_press": -1, "wordID": 63, "type": "PRES_AUD", "trial_index": 169}, "uniqueid": "MTK2878:392CY0QWG2YWMNKTWPBCE2AECYJ4IA", "dateTime": 1519441490402}, {"current_trial": 170, "trialdata": {"rt": -1000, "trial_type": "single-audio", "word": "girl", "stimulus": "/static/audio/wordpool/GIRL.wav", "conditions": [24, 1600, "a", 24000], "internal_node_id": "0.0-125.0", "trial": 4, "time_elapsed": 772306, "serialpos": 1, "key_press": -1, "wordID": 636, "type": "PRES_AUD", "trial_index": 170}, "uniqueid": "MTK2878:392CY0QWG2YWMNKTWPBCE2AECYJ4IA", "dateTime": 1519441493031}, {"current_trial": 171, "trialdata": {"rt": -1000, "trial_type": "single-audio", "word": "elbow", "stimulus": "/static/audio/wordpool/ELBOW.wav", "conditions": [24, 1600, "a", 24000], "internal_node_id": "0.0-126.0", "trial": 4, "time_elapsed": 775082, "serialpos": 2, "key_press": -1, "wordID": 519, "type": "PRES_AUD", "trial_index": 171}, "uniqueid": "MTK2878:392CY0QWG2YWMNKTWPBCE2AECYJ4IA", "dateTime": 1519441495807}, {"current_trial": 172, "trialdata": {"rt": -1000, "trial_type": "single-audio", "word": "spool", "stimulus": "/static/audio/wordpool/SPOOL.wav", "conditions": [24, 1600, "a", 24000], "internal_node_id": "0.0-127.0", "trial": 4, "time_elapsed": 777596, "serialpos": 3, "key_press": -1, "wordID": 1355, "type": "PRES_AUD", "trial_index": 172}, "uniqueid": "MTK2878:392CY0QWG2YWMNKTWPBCE2AECYJ4IA", "dateTime": 1519441498321}, {"current_trial": 173, "trialdata": {"rt": -1000, "trial_type": "single-audio", "word": "loft", "stimulus": "/static/audio/wordpool/LOFT.wav", "conditions": [24, 1600, "a", 24000], "internal_node_id": "0.0-128.0", "trial": 4, "time_elapsed": 780174, "serialpos": 4, "key_press": -1, "wordID": 839, "type": "PRES_AUD", "trial_index": 173}, "uniqueid": "MTK2878:392CY0QWG2YWMNKTWPBCE2AECYJ4IA", "dateTime": 1519441500899}, {"current_trial": 174, "trialdata": {"rt": -1000, "trial_type": "single-audio", "word": "donkey", "stimulus": "/static/audio/wordpool/DONKEY.wav", "conditions": [24, 1600, "a", 24000], "internal_node_id": "0.0-129.0", "trial": 4, "time_elapsed": 782927, "serialpos": 5, "key_press": -1, "wordID": 483, "type": "PRES_AUD", "trial_index": 174}, "uniqueid": "MTK2878:392CY0QWG2YWMNKTWPBCE2AECYJ4IA", "dateTime": 1519441503652}, {"current_trial": 175, "trialdata": {"rt": -1000, "trial_type": "single-audio", "word": "poet", "stimulus": "/static/audio/wordpool/POET.wav", "conditions": [24, 1600, "a", 24000], "internal_node_id": "0.0-130.0", "trial": 4, "time_elapsed": 785444, "serialpos": 6, "key_press": -1, "wordID": 1094, "type": "PRES_AUD", "trial_index": 175}, "uniqueid": "MTK2878:392CY0QWG2YWMNKTWPBCE2AECYJ4IA", "dateTime": 1519441506169}, {"current_trial": 176, "trialdata": {"rt": -1000, "trial_type": "single-audio", "word": "cashier", "stimulus": "/static/audio/wordpool/CASHIER.wav", "conditions": [24, 1600, "a", 24000], "internal_node_id": "0.0-131.0", "trial": 4, "time_elapsed": 788088, "serialpos": 7, "key_press": -1, "wordID": 253, "type": "PRES_AUD", "trial_index": 176}, "uniqueid": "MTK2878:392CY0QWG2YWMNKTWPBCE2AECYJ4IA", "dateTime": 1519441508813}, {"current_trial": 177, "trialdata": {"rt": -1000, "trial_type": "single-audio", "word": "camel", "stimulus": "/static/audio/wordpool/CAMEL.wav", "conditions": [24, 1600, "a", 24000], "internal_node_id": "0.0-132.0", "trial": 4, "time_elapsed": 790656, "serialpos": 8, "key_press": -1, "wordID": 222, "type": "PRES_AUD", "trial_index": 177}, "uniqueid": "MTK2878:392CY0QWG2YWMNKTWPBCE2AECYJ4IA", "dateTime": 1519441511381}, {"current_trial": 178, "trialdata": {"rt": -1000, "trial_type": "single-audio", "word": "preacher", "stimulus": "/static/audio/wordpool/PREACHER.wav", "conditions": [24, 1600, "a", 24000], "internal_node_id": "0.0-133.0", "trial": 4, "time_elapsed": 793095, "serialpos": 9, "key_press": -1, "wordID": 1118, "type": "PRES_AUD", "trial_index": 178}, "uniqueid": "MTK2878:392CY0QWG2YWMNKTWPBCE2AECYJ4IA", "dateTime": 1519441513820}, {"current_trial": 179, "trialdata": {"rt": -1000, "trial_type": "single-audio", "word": "penguin", "stimulus": "/static/audio/wordpool/PENGUIN.wav", "conditions": [24, 1600, "a", 24000], "internal_node_id": "0.0-134.0", "trial": 4, "time_elapsed": 795644, "serialpos": 10, "key_press": -1, "wordID": 1043, "type": "PRES_AUD", "trial_index": 179}, "uniqueid": "MTK2878:392CY0QWG2YWMNKTWPBCE2AECYJ4IA", "dateTime": 1519441516369}, {"current_trial": 180, "trialdata": {"rt": -1000, "trial_type": "single-audio", "word": "sheriff", "stimulus": "/static/audio/wordpool/SHERIFF.wav", "conditions": [24, 1600, "a", 24000], "internal_node_id": "0.0-135.0", "trial": 4, "time_elapsed": 798337, "serialpos": 11, "key_press": -1, "wordID": 1283, "type": "PRES_AUD", "trial_index": 180}, "uniqueid": "MTK2878:392CY0QWG2YWMNKTWPBCE2AECYJ4IA", "dateTime": 1519441519062}, {"current_trial": 181, "trialdata": {"rt": -1000, "trial_type": "single-audio", "word": "grape", "stimulus": "/static/audio/wordpool/GRAPE.wav", "conditions": [24, 1600, "a", 24000], "internal_node_id": "0.0-136.0", "trial": 4, "time_elapsed": 800856, "serialpos": 12, "key_press": -1, "wordID": 653, "type": "PRES_AUD", "trial_index": 181}, "uniqueid": "MTK2878:392CY0QWG2YWMNKTWPBCE2AECYJ4IA", "dateTime": 1519441521581}, {"current_trial": 182, "trialdata": {"rt": -1000, "trial_type": "single-audio", "word": "hero", "stimulus": "/static/audio/wordpool/HERO.wav", "conditions": [24, 1600, "a", 24000], "internal_node_id": "0.0-137.0", "trial": 4, "time_elapsed": 803413, "serialpos": 13, "key_press": -1, "wordID": 705, "type": "PRES_AUD", "trial_index": 182}, "uniqueid": "MTK2878:392CY0QWG2YWMNKTWPBCE2AECYJ4IA", "dateTime": 1519441524139}, {"current_trial": 183, "trialdata": {"rt": -1000, "trial_type": "single-audio", "word": "atom", "stimulus": "/static/audio/wordpool/ATOM.wav", "conditions": [24, 1600, "a", 24000], "internal_node_id": "0.0-138.0", "trial": 4, "time_elapsed": 806125, "serialpos": 14, "key_press": -1, "wordID": 54, "type": "PRES_AUD", "trial_index": 183}, "uniqueid": "MTK2878:392CY0QWG2YWMNKTWPBCE2AECYJ4IA", "dateTime": 1519441526850}, {"current_trial": 184, "trialdata": {"rt": -1000, "trial_type": "single-audio", "word": "paper", "stimulus": "/static/audio/wordpool/PAPER.wav", "conditions": [24, 1600, "a", 24000], "internal_node_id": "0.0-139.0", "trial": 4, "time_elapsed": 808814, "serialpos": 15, "key_press": -1, "wordID": 1010, "type": "PRES_AUD", "trial_index": 184}, "uniqueid": "MTK2878:392CY0QWG2YWMNKTWPBCE2AECYJ4IA", "dateTime": 1519441529539}, {"current_trial": 185, "trialdata": {"rt": -1000, "trial_type": "single-audio", "word": "kleenex", "stimulus": "/static/audio/wordpool/KLEENEX.wav", "conditions": [24, 1600, "a", 24000], "internal_node_id": "0.0-140.0", "trial": 4, "time_elapsed": 811388, "serialpos": 16, "key_press": -1, "wordID": 781, "type": "PRES_AUD", "trial_index": 185}, "uniqueid": "MTK2878:392CY0QWG2YWMNKTWPBCE2AECYJ4IA", "dateTime": 1519441532113}, {"current_trial": 186, "trialdata": {"rt": -1000, "trial_type": "single-audio", "word": "clock", "stimulus": "/static/audio/wordpool/CLOCK.wav", "conditions": [24, 1600, "a", 24000], "internal_node_id": "0.0-141.0", "trial": 4, "time_elapsed": 813794, "serialpos": 17, "key_press": -1, "wordID": 324, "type": "PRES_AUD", "trial_index": 186}, "uniqueid": "MTK2878:392CY0QWG2YWMNKTWPBCE2AECYJ4IA", "dateTime": 1519441534519}, {"current_trial": 187, "trialdata": {"rt": -1000, "trial_type": "single-audio", "word": "pecan", "stimulus": "/static/audio/wordpool/PECAN.wav", "conditions": [24, 1600, "a", 24000], "internal_node_id": "0.0-142.0", "trial": 4, "time_elapsed": 816354, "serialpos": 18, "key_press": -1, "wordID": 1035, "type": "PRES_AUD", "trial_index": 187}, "uniqueid": "MTK2878:392CY0QWG2YWMNKTWPBCE2AECYJ4IA", "dateTime": 1519441537079}, {"current_trial": 188, "trialdata": {"rt": -1000, "trial_type": "single-audio", "word": "slide", "stimulus": "/static/audio/wordpool/SLIDE.wav", "conditions": [24, 1600, "a", 24000], "internal_node_id": "0.0-143.0", "trial": 4, "time_elapsed": 819142, "serialpos": 19, "key_press": -1, "wordID": 1325, "type": "PRES_AUD", "trial_index": 188}, "uniqueid": "MTK2878:392CY0QWG2YWMNKTWPBCE2AECYJ4IA", "dateTime": 1519441539867}, {"current_trial": 189, "trialdata": {"rt": -1000, "trial_type": "single-audio", "word": "canyon", "stimulus": "/static/audio/wordpool/CANYON.wav", "conditions": [24, 1600, "a", 24000], "internal_node_id": "0.0-144.0", "trial": 4, "time_elapsed": 821589, "serialpos": 20, "key_press": -1, "wordID": 234, "type": "PRES_AUD", "trial_index": 189}, "uniqueid": "MTK2878:392CY0QWG2YWMNKTWPBCE2AECYJ4IA", "dateTime": 1519441542314}, {"current_trial": 190, "trialdata": {"rt": -1000, "trial_type": "single-audio", "word": "valley", "stimulus": "/static/audio/wordpool/VALLEY.wav", "conditions": [24, 1600, "a", 24000], "internal_node_id": "0.0-145.0", "trial": 4, "time_elapsed": 824386, "serialpos": 21, "key_press": -1, "wordID": 1544, "type": "PRES_AUD", "trial_index": 190}, "uniqueid": "MTK2878:392CY0QWG2YWMNKTWPBCE2AECYJ4IA", "dateTime": 1519441545112}, {"current_trial": 191, "trialdata": {"rt": -1000, "trial_type": "single-audio", "word": "sunrise", "stimulus": "/static/audio/wordpool/SUNRISE.wav", "conditions": [24, 1600, "a", 24000], "internal_node_id": "0.0-146.0", "trial": 4, "time_elapsed": 827032, "serialpos": 22, "key_press": -1, "wordID": 1406, "type": "PRES_AUD", "trial_index": 191}, "uniqueid": "MTK2878:392CY0QWG2YWMNKTWPBCE2AECYJ4IA", "dateTime": 1519441547757}, {"current_trial": 192, "trialdata": {"rt": -1000, "trial_type": "single-audio", "word": "peanut", "stimulus": "/static/audio/wordpool/PEANUT.wav", "conditions": [24, 1600, "a", 24000], "internal_node_id": "0.0-147.0", "trial": 4, "time_elapsed": 829677, "serialpos": 23, "key_press": -1, "wordID": 1031, "type": "PRES_AUD", "trial_index": 192}, "uniqueid": "MTK2878:392CY0QWG2YWMNKTWPBCE2AECYJ4IA", "dateTime": 1519441550402}, {"current_trial": 193, "trialdata": {"rt": -1, "trial_type": "single-stim", "stimulus": "", "internal_node_id": "0.0-148.0-0.0", "time_elapsed": 831069, "key_press": -1, "type": "PRE_RECALL_DELAY", "trial_index": 193}, "uniqueid": "MTK2878:392CY0QWG2YWMNKTWPBCE2AECYJ4IA", "dateTime": 1519441551794}, {"current_trial": 194, "trialdata": {"rt": -1000, "trial_type": "single-audio", "stimulus": "/static/audio/400Hz.wav", "internal_node_id": "0.0-149.0", "time_elapsed": 831572, "key_press": -1, "type": "PRE_RECALL_ALERT", "trial_index": 194}, "uniqueid": "MTK2878:392CY0QWG2YWMNKTWPBCE2AECYJ4IA", "dateTime": 1519441552297}, {"current_trial": 195, "trialdata": {"rt": [1236, 2867, 4203, 6699, 8004, 9819, 22316, 42235], "recwords": ["baby", "girl", "elbow", "sunrise", "peanut", "valley", "coal", "valley"], "key_times": [437, 636, 851, 1036, 1236, 2004, 2229, 2340, 2467, 2867, 3307, 3491, 3708, 3827, 3995, 4203, 5492, 5579, 5805, 5972, 6155, 6292, 6523, 6699, 7028, 7156, 7363, 7483, 7700, 7860, 8004, 8924, 9091, 9227, 9364, 9492, 9611, 9819, 21564, 21675, 21748, 21963, 22316, 41308, 41476, 41588, 41755, 41844, 42003, 42235], "trial_type": "free-recall", "conditions": [24, 1600, "a", 24000], "internal_node_id": "0.0-150.0-0.0", "key_presses": [66, 65, 66, 89, 32, 71, 73, 82, 76, 13, 69, 76, 66, 79, 87, 13, 83, 85, 78, 82, 73, 83, 69, 13, 80, 69, 65, 78, 85, 84, 13, 86, 65, 76, 76, 69, 89, 13, 67, 79, 65, 76, 13, 86, 65, 76, 76, 69, 89, 13], "trial": 4, "time_elapsed": 891574, "type": "FREE_RECALL", "trial_index": 195}, "uniqueid": "MTK2878:392CY0QWG2YWMNKTWPBCE2AECYJ4IA", "dateTime": 1519441612301}, {"current_trial": 196, "trialdata": {"rt": 1504, "trial_type": "text", "internal_node_id": "0.0-151.0", "time_elapsed": 895081, "key_press": 74, "type": "INSTRUCTIONS", "trial_index": 196}, "uniqueid": "MTK2878:392CY0QWG2YWMNKTWPBCE2AECYJ4IA", "dateTime": 1519441615807}, {"current_trial": 197, "trialdata": {"rt": [1702, 4598, 6205, 7766, 10269, 14197, 17925, 20797, 22925], "trial_type": "math-distractor", "key_times": [1462, 1558, 1702, 4397, 4501, 4598, 5989, 6045, 6205, 7414, 7613, 7766, 9854, 10085, 10269, 13797, 14030, 14197, 17677, 17757, 17925, 20462, 20629, 20797, 22573, 22774, 22925], "responses": ["15", "20", "12", "17", "17", "18", "13", "16", "15"], "num2": [6, 6, 9, 5, 8, 4, 7, 9, 4, 8], "num3": [4, 6, 1, 7, 3, 7, 5, 2, 4, 7], "conditions": [24, 800, "a", 24000], "internal_node_id": "0.0-152.0", "key_presses": [97, 101, 13, 98, 96, 13, 97, 98, 13, 97, 103, 13, 97, 103, 13, 97, 104, 13, 97, 99, 13, 97, 102, 13, 97, 101, 13], "trial": 5, "time_elapsed": 921085, "type": "DISTRACTOR", "trial_index": 197, "num1": [5, 8, 2, 5, 6, 7, 1, 5, 7, 7]}, "uniqueid": "MTK2878:392CY0QWG2YWMNKTWPBCE2AECYJ4IA", "dateTime": 1519441641810}, {"current_trial": 198, "trialdata": {"rt": -1, "trial_type": "single-stim", "stimulus": "<p id=\"stim\">10</p>", "internal_node_id": "0.0-153.0-0.0", "time_elapsed": 924087, "key_press": -1, "trial_index": 198}, "uniqueid": "MTK2878:392CY0QWG2YWMNKTWPBCE2AECYJ4IA", "dateTime": 1519441644812}, {"current_trial": 199, "trialdata": {"rt": -1, "trial_type": "single-stim", "stimulus": "<p id=\"stim\">9</p>", "internal_node_id": "0.0-153.0-1.0", "time_elapsed": 925089, "key_press": -1, "trial_index": 199}, "uniqueid": "MTK2878:392CY0QWG2YWMNKTWPBCE2AECYJ4IA", "dateTime": 1519441645814}, {"current_trial": 200, "trialdata": {"rt": -1, "trial_type": "single-stim", "stimulus": "<p id=\"stim\">8</p>", "internal_node_id": "0.0-153.0-2.0", "time_elapsed": 926090, "key_press": -1, "trial_index": 200}, "uniqueid": "MTK2878:392CY0QWG2YWMNKTWPBCE2AECYJ4IA", "dateTime": 1519441646816}, {"current_trial": 201, "trialdata": {"rt": -1, "trial_type": "single-stim", "stimulus": "<p id=\"stim\">7</p>", "internal_node_id": "0.0-153.0-3.0", "time_elapsed": 927092, "key_press": -1, "trial_index": 201}, "uniqueid": "MTK2878:392CY0QWG2YWMNKTWPBCE2AECYJ4IA", "dateTime": 1519441647817}, {"current_trial": 202, "trialdata": {"rt": -1, "trial_type": "single-stim", "stimulus": "<p id=\"stim\">6</p>", "internal_node_id": "0.0-153.0-4.0", "time_elapsed": 928094, "key_press": -1, "trial_index": 202}, "uniqueid": "MTK2878:392CY0QWG2YWMNKTWPBCE2AECYJ4IA", "dateTime": 1519441648819}, {"current_trial": 203, "trialdata": {"rt": -1, "trial_type": "single-stim", "stimulus": "<p id=\"stim\">5</p>", "internal_node_id": "0.0-153.0-5.0", "time_elapsed": 929096, "key_press": -1, "trial_index": 203}, "uniqueid": "MTK2878:392CY0QWG2YWMNKTWPBCE2AECYJ4IA", "dateTime": 1519441649821}, {"current_trial": 204, "trialdata": {"rt": -1, "trial_type": "single-stim", "stimulus": "<p id=\"stim\">4</p>", "internal_node_id": "0.0-153.0-6.0", "time_elapsed": 930097, "key_press": -1, "trial_index": 204}, "uniqueid": "MTK2878:392CY0QWG2YWMNKTWPBCE2AECYJ4IA", "dateTime": 1519441650822}, {"current_trial": 205, "trialdata": {"rt": -1, "trial_type": "single-stim", "stimulus": "<p id=\"stim\">3</p>", "internal_node_id": "0.0-153.0-7.0", "time_elapsed": 931098, "key_press": -1, "trial_index": 205}, "uniqueid": "MTK2878:392CY0QWG2YWMNKTWPBCE2AECYJ4IA", "dateTime": 1519441651823}, {"current_trial": 206, "trialdata": {"rt": -1, "trial_type": "single-stim", "stimulus": "<p id=\"stim\">2</p>", "internal_node_id": "0.0-153.0-8.0", "time_elapsed": 932100, "key_press": -1, "trial_index": 206}, "uniqueid": "MTK2878:392CY0QWG2YWMNKTWPBCE2AECYJ4IA", "dateTime": 1519441652825}, {"current_trial": 207, "trialdata": {"rt": -1, "trial_type": "single-stim", "stimulus": "<p id=\"stim\">1</p>", "internal_node_id": "0.0-153.0-9.0", "time_elapsed": 933102, "key_press": -1, "trial_index": 207}, "uniqueid": "MTK2878:392CY0QWG2YWMNKTWPBCE2AECYJ4IA", "dateTime": 1519441653827}, {"current_trial": 208, "trialdata": {"rt": -1, "trial_type": "single-stim", "stimulus": "<p id=\"stim\">+</p>", "internal_node_id": "0.0-154.0-0.0", "time_elapsed": 934604, "key_press": -1, "type": "FIXATION", "trial_index": 208}, "uniqueid": "MTK2878:392CY0QWG2YWMNKTWPBCE2AECYJ4IA", "dateTime": 1519441655330}, {"current_trial": 209, "trialdata": {"rt": -1000, "trial_type": "single-audio", "word": "chemist", "stimulus": "/static/audio/wordpool/CHEMIST.wav", "conditions": [24, 800, "a", 24000], "internal_node_id": "0.0-155.0", "trial": 5, "time_elapsed": 936240, "serialpos": 0, "key_press": -1, "wordID": 291, "type": "PRES_AUD", "trial_index": 209}, "uniqueid": "MTK2878:392CY0QWG2YWMNKTWPBCE2AECYJ4IA", "dateTime": 1519441656965}, {"current_trial": 210, "trialdata": {"rt": -1000, "trial_type": "single-audio", "word": "pastry", "stimulus": "/static/audio/wordpool/PASTRY.wav", "conditions": [24, 800, "a", 24000], "internal_node_id": "0.0-156.0", "trial": 5, "time_elapsed": 938152, "serialpos": 1, "key_press": -1, "wordID": 1021, "type": "PRES_AUD", "trial_index": 210}, "uniqueid": "MTK2878:392CY0QWG2YWMNKTWPBCE2AECYJ4IA", "dateTime": 1519441658877}, {"current_trial": 211, "trialdata": {"rt": -1000, "trial_type": "single-audio", "word": "garden", "stimulus": "/static/audio/wordpool/GARDEN.wav", "conditions": [24, 800, "a", 24000], "internal_node_id": "0.0-157.0", "trial": 5, "time_elapsed": 939755, "serialpos": 2, "key_press": -1, "wordID": 622, "type": "PRES_AUD", "trial_index": 211}, "uniqueid": "MTK2878:392CY0QWG2YWMNKTWPBCE2AECYJ4IA", "dateTime": 1519441660481}, {"current_trial": 212, "trialdata": {"rt": -1000, "trial_type": "single-audio", "word": "panther", "stimulus": "/static/audio/wordpool/PANTHER.wav", "conditions": [24, 800, "a", 24000], "internal_node_id": "0.0-158.0", "trial": 5, "time_elapsed": 941416, "serialpos": 3, "key_press": -1, "wordID": 1008, "type": "PRES_AUD", "trial_index": 212}, "uniqueid": "MTK2878:392CY0QWG2YWMNKTWPBCE2AECYJ4IA", "dateTime": 1519441662142}, {"current_trial": 213, "trialdata": {"rt": -1000, "trial_type": "single-audio", "word": "piston", "stimulus": "/static/audio/wordpool/PISTON.wav", "conditions": [24, 800, "a", 24000], "internal_node_id": "0.0-159.0", "trial": 5, "time_elapsed": 943236, "serialpos": 4, "key_press": -1, "wordID": 1075, "type": "PRES_AUD", "trial_index": 213}, "uniqueid": "MTK2878:392CY0QWG2YWMNKTWPBCE2AECYJ4IA", "dateTime": 1519441663961}, {"current_trial": 214, "trialdata": {"rt": -1000, "trial_type": "single-audio", "word": "leopard", "stimulus": "/static/audio/wordpool/LEOPARD.wav", "conditions": [24, 800, "a", 24000], "internal_node_id": "0.0-160.0", "trial": 5, "time_elapsed": 945072, "serialpos": 5, "key_press": -1, "wordID": 811, "type": "PRES_AUD", "trial_index": 214}, "uniqueid": "MTK2878:392CY0QWG2YWMNKTWPBCE2AECYJ4IA", "dateTime": 1519441665798}, {"current_trial": 215, "trialdata": {"rt": -1000, "trial_type": "single-audio", "word": "shrub", "stimulus": "/static/audio/wordpool/SHRUB.wav", "conditions": [24, 800, "a", 24000], "internal_node_id": "0.0-161.0", "trial": 5, "time_elapsed": 947042, "serialpos": 6, "key_press": -1, "wordID": 1298, "type": "PRES_AUD", "trial_index": 215}, "uniqueid": "MTK2878:392CY0QWG2YWMNKTWPBCE2AECYJ4IA", "dateTime": 1519441667767}, {"current_trial": 216, "trialdata": {"rt": -1000, "trial_type": "single-audio", "word": "chest", "stimulus": "/static/audio/wordpool/CHEST.wav", "conditions": [24, 800, "a", 24000], "internal_node_id": "0.0-162.0", "trial": 5, "time_elapsed": 948684, "serialpos": 7, "key_press": -1, "wordID": 294, "type": "PRES_AUD", "trial_index": 216}, "uniqueid": "MTK2878:392CY0QWG2YWMNKTWPBCE2AECYJ4IA", "dateTime": 1519441669410}, {"current_trial": 217, "trialdata": {"rt": -1000, "trial_type": "single-audio", "word": "cod", "stimulus": "/static/audio/wordpool/COD.wav", "conditions": [24, 800, "a", 24000], "internal_node_id": "0.0-163.0", "trial": 5, "time_elapsed": 950414, "serialpos": 8, "key_press": -1, "wordID": 339, "type": "PRES_AUD", "trial_index": 217}, "uniqueid": "MTK2878:392CY0QWG2YWMNKTWPBCE2AECYJ4IA", "dateTime": 1519441671139}, {"current_trial": 218, "trialdata": {"rt": -1000, "trial_type": "single-audio", "word": "scallop", "stimulus": "/static/audio/wordpool/SCALLOP.wav", "conditions": [24, 800, "a", 24000], "internal_node_id": "0.0-164.0", "trial": 5, "time_elapsed": 952144, "serialpos": 9, "key_press": -1, "wordID": 1241, "type": "PRES_AUD", "trial_index": 218}, "uniqueid": "MTK2878:392CY0QWG2YWMNKTWPBCE2AECYJ4IA", "dateTime": 1519441672870}, {"current_trial": 219, "trialdata": {"rt": -1000, "trial_type": "single-audio", "word": "knapsack", "stimulus": "/static/audio/wordpool/KNAPSACK.wav", "conditions": [24, 800, "a", 24000], "internal_node_id": "0.0-165.0", "trial": 5, "time_elapsed": 954000, "serialpos": 10, "key_press": -1, "wordID": 782, "type": "PRES_AUD", "trial_index": 219}, "uniqueid": "MTK2878:392CY0QWG2YWMNKTWPBCE2AECYJ4IA", "dateTime": 1519441674725}, {"current_trial": 220, "trialdata": {"rt": -1000, "trial_type": "single-audio", "word": "body", "stimulus": "/static/audio/wordpool/BODY.wav", "conditions": [24, 800, "a", 24000], "internal_node_id": "0.0-166.0", "trial": 5, "time_elapsed": 955917, "serialpos": 11, "key_press": -1, "wordID": 144, "type": "PRES_AUD", "trial_index": 220}, "uniqueid": "MTK2878:392CY0QWG2YWMNKTWPBCE2AECYJ4IA", "dateTime": 1519441676642}, {"current_trial": 221, "trialdata": {"rt": -1000, "trial_type": "single-audio", "word": "expert", "stimulus": "/static/audio/wordpool/EXPERT.wav", "conditions": [24, 800, "a", 24000], "internal_node_id": "0.0-167.0", "trial": 5, "time_elapsed": 957863, "serialpos": 12, "key_press": -1, "wordID": 542, "type": "PRES_AUD", "trial_index": 221}, "uniqueid": "MTK2878:392CY0QWG2YWMNKTWPBCE2AECYJ4IA", "dateTime": 1519441678588}, {"current_trial": 222, "trialdata": {"rt": -1000, "trial_type": "single-audio", "word": "author", "stimulus": "/static/audio/wordpool/AUTHOR.wav", "conditions": [24, 800, "a", 24000], "internal_node_id": "0.0-168.0", "trial": 5, "time_elapsed": 959669, "serialpos": 13, "key_press": -1, "wordID": 60, "type": "PRES_AUD", "trial_index": 222}, "uniqueid": "MTK2878:392CY0QWG2YWMNKTWPBCE2AECYJ4IA", "dateTime": 1519441680394}, {"current_trial": 223, "trialdata": {"rt": -1000, "trial_type": "single-audio", "word": "sphinx", "stimulus": "/static/audio/wordpool/SPHINX.wav", "conditions": [24, 800, "a", 24000], "internal_node_id": "0.0-169.0", "trial": 5, "time_elapsed": 961589, "serialpos": 14, "key_press": -1, "wordID": 1348, "type": "PRES_AUD", "trial_index": 223}, "uniqueid": "MTK2878:392CY0QWG2YWMNKTWPBCE2AECYJ4IA", "dateTime": 1519441682315}, {"current_trial": 224, "trialdata": {"rt": -1000, "trial_type": "single-audio", "word": "perch", "stimulus": "/static/audio/wordpool/PERCH.wav", "conditions": [24, 800, "a", 24000], "internal_node_id": "0.0-170.0", "trial": 5, "time_elapsed": 963397, "serialpos": 15, "key_press": -1, "wordID": 1047, "type": "PRES_AUD", "trial_index": 224}, "uniqueid": "MTK2878:392CY0QWG2YWMNKTWPBCE2AECYJ4IA", "dateTime": 1519441684122}, {"current_trial": 225, "trialdata": {"rt": -1000, "trial_type": "single-audio", "word": "salad", "stimulus": "/static/audio/wordpool/SALAD.wav", "conditions": [24, 800, "a", 24000], "internal_node_id": "0.0-171.0", "trial": 5, "time_elapsed": 965288, "serialpos": 16, "key_press": -1, "wordID": 1223, "type": "PRES_AUD", "trial_index": 225}, "uniqueid": "MTK2878:392CY0QWG2YWMNKTWPBCE2AECYJ4IA", "dateTime": 1519441686013}, {"current_trial": 226, "trialdata": {"rt": -1000, "trial_type": "single-audio", "word": "bacon", "stimulus": "/static/audio/wordpool/BACON.wav", "conditions": [24, 800, "a", 24000], "internal_node_id": "0.0-172.0", "trial": 5, "time_elapsed": 966965, "serialpos": 17, "key_press": -1, "wordID": 66, "type": "PRES_AUD", "trial_index": 226}, "uniqueid": "MTK2878:392CY0QWG2YWMNKTWPBCE2AECYJ4IA", "dateTime": 1519441687690}, {"current_trial": 227, "trialdata": {"rt": -1000, "trial_type": "single-audio", "word": "lake", "stimulus": "/static/audio/wordpool/LAKE.wav", "conditions": [24, 800, "a", 24000], "internal_node_id": "0.0-173.0", "trial": 5, "time_elapsed": 968929, "serialpos": 18, "key_press": -1, "wordID": 795, "type": "PRES_AUD", "trial_index": 227}, "uniqueid": "MTK2878:392CY0QWG2YWMNKTWPBCE2AECYJ4IA", "dateTime": 1519441689654}, {"current_trial": 228, "trialdata": {"rt": -1000, "trial_type": "single-audio", "word": "jello", "stimulus": "/static/audio/wordpool/JELLO.wav", "conditions": [24, 800, "a", 24000], "internal_node_id": "0.0-174.0", "trial": 5, "time_elapsed": 970846, "serialpos": 19, "key_press": -1, "wordID": 753, "type": "PRES_AUD", "trial_index": 228}, "uniqueid": "MTK2878:392CY0QWG2YWMNKTWPBCE2AECYJ4IA", "dateTime": 1519441691572}, {"current_trial": 229, "trialdata": {"rt": -1000, "trial_type": "single-audio", "word": "lettuce", "stimulus": "/static/audio/wordpool/LETTUCE.wav", "conditions": [24, 800, "a", 24000], "internal_node_id": "0.0-175.0", "trial": 5, "time_elapsed": 972605, "serialpos": 20, "key_press": -1, "wordID": 813, "type": "PRES_AUD", "trial_index": 229}, "uniqueid": "MTK2878:392CY0QWG2YWMNKTWPBCE2AECYJ4IA", "dateTime": 1519441693330}, {"current_trial": 230, "trialdata": {"rt": -1000, "trial_type": "single-audio", "word": "turnip", "stimulus": "/static/audio/wordpool/TURNIP.wav", "conditions": [24, 800, "a", 24000], "internal_node_id": "0.0-176.0", "trial": 5, "time_elapsed": 974555, "serialpos": 21, "key_press": -1, "wordID": 1520, "type": "PRES_AUD", "trial_index": 230}, "uniqueid": "MTK2878:392CY0QWG2YWMNKTWPBCE2AECYJ4IA", "dateTime": 1519441695280}, {"current_trial": 231, "trialdata": {"rt": -1000, "trial_type": "single-audio", "word": "couch", "stimulus": "/static/audio/wordpool/COUCH.wav", "conditions": [24, 800, "a", 24000], "internal_node_id": "0.0-177.0", "trial": 5, "time_elapsed": 976391, "serialpos": 22, "key_press": -1, "wordID": 385, "type": "PRES_AUD", "trial_index": 231}, "uniqueid": "MTK2878:392CY0QWG2YWMNKTWPBCE2AECYJ4IA", "dateTime": 1519441697116}, {"current_trial": 232, "trialdata": {"rt": -1000, "trial_type": "single-audio", "word": "cabbage", "stimulus": "/static/audio/wordpool/CABBAGE.wav", "conditions": [24, 800, "a", 24000], "internal_node_id": "0.0-178.0", "trial": 5, "time_elapsed": 978169, "serialpos": 23, "key_press": -1, "wordID": 209, "type": "PRES_AUD", "trial_index": 232}, "uniqueid": "MTK2878:392CY0QWG2YWMNKTWPBCE2AECYJ4IA", "dateTime": 1519441698894}, {"current_trial": 233, "trialdata": {"rt": -1, "trial_type": "single-stim", "stimulus": "", "internal_node_id": "0.0-179.0-0.0", "time_elapsed": 979531, "key_press": -1, "type": "PRE_RECALL_DELAY", "trial_index": 233}, "uniqueid": "MTK2878:392CY0QWG2YWMNKTWPBCE2AECYJ4IA", "dateTime": 1519441700256}, {"current_trial": 234, "trialdata": {"rt": -1000, "trial_type": "single-audio", "stimulus": "/static/audio/400Hz.wav", "internal_node_id": "0.0-180.0", "time_elapsed": 980032, "key_press": -1, "type": "PRE_RECALL_ALERT", "trial_index": 234}, "uniqueid": "MTK2878:392CY0QWG2YWMNKTWPBCE2AECYJ4IA", "dateTime": 1519441700757}, {"current_trial": 235, "trialdata": {"rt": [1808, 3000, 5008, 8840, 11928, 15584], "recwords": ["cabbage", "couch", "turnip", "lettuce", "cottage", "piston"], "key_times": [665, 848, 1026, 1177, 1330, 1464, 1680, 1808, 2024, 2216, 2351, 2671, 2775, 3000, 4103, 4215, 4312, 4448, 4583, 4840, 5008, 7775, 7880, 8088, 8225, 8393, 8496, 8728, 8840, 10953, 11120, 11312, 11479, 11592, 11688, 11824, 11928, 14680, 14920, 15047, 15160, 15256, 15432, 15584], "trial_type": "free-recall", "conditions": [24, 800, "a", 24000], "internal_node_id": "0.0-181.0-0.0", "key_presses": [67, 65, 66, 66, 65, 71, 69, 13, 67, 79, 85, 67, 72, 13, 84, 85, 82, 78, 73, 80, 13, 76, 69, 84, 84, 85, 67, 69, 13, 67, 79, 84, 84, 65, 71, 69, 13, 80, 73, 83, 84, 79, 78, 13], "trial": 5, "time_elapsed": 1040035, "type": "FREE_RECALL", "trial_index": 235}, "uniqueid": "MTK2878:392CY0QWG2YWMNKTWPBCE2AECYJ4IA", "dateTime": 1519441760762}, {"current_trial": 236, "trialdata": {"rt": 3627, "trial_type": "text", "internal_node_id": "0.0-182.0", "time_elapsed": 1045665, "key_press": 18, "type": "INSTRUCTIONS", "trial_index": 236}, "uniqueid": "MTK2878:392CY0QWG2YWMNKTWPBCE2AECYJ4IA", "dateTime": 1519441766390}, {"current_trial": 237, "trialdata": {"rt": [], "trial_type": "math-distractor", "key_times": [1846], "responses": [], "num2": [6], "num3": [5], "conditions": [12, 800, "a", 12000], "internal_node_id": "0.0-183.0", "key_presses": [18], "trial": 6, "time_elapsed": 1059668, "type": "DISTRACTOR", "trial_index": 237, "num1": [5]}, "uniqueid": "MTK2878:392CY0QWG2YWMNKTWPBCE2AECYJ4IA", "dateTime": 1519441780393}, {"current_trial": 238, "trialdata": {"rt": -1, "trial_type": "single-stim", "stimulus": "<p id=\"stim\">10</p>", "internal_node_id": "0.0-184.0-0.0", "time_elapsed": 1062669, "key_press": -1, "trial_index": 238}, "uniqueid": "MTK2878:392CY0QWG2YWMNKTWPBCE2AECYJ4IA", "dateTime": 1519441783395}, {"current_trial": 239, "trialdata": {"rt": -1, "trial_type": "single-stim", "stimulus": "<p id=\"stim\">9</p>", "internal_node_id": "0.0-184.0-1.0", "time_elapsed": 1063671, "key_press": -1, "trial_index": 239}, "uniqueid": "MTK2878:392CY0QWG2YWMNKTWPBCE2AECYJ4IA", "dateTime": 1519441784396}, {"current_trial": 240, "trialdata": {"rt": -1, "trial_type": "single-stim", "stimulus": "<p id=\"stim\">8</p>", "internal_node_id": "0.0-184.0-2.0", "time_elapsed": 1064673, "key_press": -1, "trial_index": 240}, "uniqueid": "MTK2878:392CY0QWG2YWMNKTWPBCE2AECYJ4IA", "dateTime": 1519441785398}, {"current_trial": 241, "trialdata": {"rt": -1, "trial_type": "single-stim", "stimulus": "<p id=\"stim\">7</p>", "internal_node_id": "0.0-184.0-3.0", "time_elapsed": 1065673, "key_press": -1, "trial_index": 241}, "uniqueid": "MTK2878:392CY0QWG2YWMNKTWPBCE2AECYJ4IA", "dateTime": 1519441786398}, {"current_trial": 242, "trialdata": {"rt": -1, "trial_type": "single-stim", "stimulus": "<p id=\"stim\">6</p>", "internal_node_id": "0.0-184.0-4.0", "time_elapsed": 1066675, "key_press": -1, "trial_index": 242}, "uniqueid": "MTK2878:392CY0QWG2YWMNKTWPBCE2AECYJ4IA", "dateTime": 1519441787400}, {"current_trial": 243, "trialdata": {"rt": -1, "trial_type": "single-stim", "stimulus": "<p id=\"stim\">5</p>", "internal_node_id": "0.0-184.0-5.0", "time_elapsed": 1067675, "key_press": -1, "trial_index": 243}, "uniqueid": "MTK2878:392CY0QWG2YWMNKTWPBCE2AECYJ4IA", "dateTime": 1519441788401}, {"current_trial": 244, "trialdata": {"rt": -1, "trial_type": "single-stim", "stimulus": "<p id=\"stim\">4</p>", "internal_node_id": "0.0-184.0-6.0", "time_elapsed": 1068677, "key_press": -1, "trial_index": 244}, "uniqueid": "MTK2878:392CY0QWG2YWMNKTWPBCE2AECYJ4IA", "dateTime": 1519441789402}, {"current_trial": 245, "trialdata": {"rt": -1, "trial_type": "single-stim", "stimulus": "<p id=\"stim\">3</p>", "internal_node_id": "0.0-184.0-7.0", "time_elapsed": 1069679, "key_press": -1, "trial_index": 245}, "uniqueid": "MTK2878:392CY0QWG2YWMNKTWPBCE2AECYJ4IA", "dateTime": 1519441790404}, {"current_trial": 246, "trialdata": {"rt": -1, "trial_type": "single-stim", "stimulus": "<p id=\"stim\">2</p>", "internal_node_id": "0.0-184.0-8.0", "time_elapsed": 1070681, "key_press": -1, "trial_index": 246}, "uniqueid": "MTK2878:392CY0QWG2YWMNKTWPBCE2AECYJ4IA", "dateTime": 1519441791407}, {"current_trial": 247, "trialdata": {"rt": -1, "trial_type": "single-stim", "stimulus": "<p id=\"stim\">1</p>", "internal_node_id": "0.0-184.0-9.0", "time_elapsed": 1071683, "key_press": -1, "trial_index": 247}, "uniqueid": "MTK2878:392CY0QWG2YWMNKTWPBCE2AECYJ4IA", "dateTime": 1519441792408}, {"current_trial": 248, "trialdata": {"rt": -1, "trial_type": "single-stim"