{"assignmentId": "382M9COHEIMJNGCMFCC36RAGJDDEU1", "workerId": "MTK2729", "questiondata": {"avail_screen_height": 738, "color_depth": 24, "screen_width": 1366, "pixel_depth": 24, "avail_screen_width": 1366, "screen_height": 768}, "bonus": 0, "hitId": "33IXYHIZB5P8GK5Q6QXVBOJ4FDQE21", "counterbalance": 1731, "useragent": "Mozilla/5.0 (Windows NT 6.3; Win64; x64; rv:58.0) Gecko/20100101 Firefox/58.0", "eventdata": [{"eventtype": "initialized", "interval": 0, "value": null, "timestamp": 1519317265301}, {"eventtype": "window_resize", "interval": 0, "value": [1366, 678], "timestamp": 1519317265301}, {"eventtype": "focus", "interval": 74381, "value": "off", "timestamp": 1519317339682}, {"eventtype": "focus", "interval": 31744, "value": "on", "timestamp": 1519317371426}, {"eventtype": "focus", "interval": 19223, "value": "off", "timestamp": 1519317390649}, {"eventtype": "focus", "interval": 36024, "value": "on", "timestamp": 1519317426673}, {"eventtype": "focus", "interval": 9688, "value": "off", "timestamp": 1519317436361}, {"eventtype": "focus", "interval": 12715, "value": "on", "timestamp": 1519317449076}, {"eventtype": "focus", "interval": 729304, "value": "off", "timestamp": 1519318178380}, {"eventtype": "focus", "interval": 17534, "value": "on", "timestamp": 1519318195914}, {"eventtype": "focus", "interval": 519833, "value": "off", "timestamp": 1519318715747}, {"eventtype": "focus", "interval": 2089, "value": "on", "timestamp": 1519318717836}, {"eventtype": "focus", "interval": 1139, "value": "off", "timestamp": 1519318718975}, {"eventtype": "focus", "interval": 7284, "value": "on", "timestamp": 1519318726259}, {"eventtype": "focus", "interval": 232448, "value": "off", "timestamp": 1519318958707}, {"eventtype": "focus", "interval": 4054, "value": "on", "timestamp": 1519318962761}, {"eventtype": "focus", "interval": 606, "value": "off", "timestamp": 1519318963367}, {"eventtype": "focus", "interval": 2760, "value": "on", "timestamp": 1519318966127}, {"eventtype": "focus", "interval": 2104, "value": "off", "timestamp": 1519318968231}, {"eventtype": "focus", "interval": 1181, "value": "on", "timestamp": 1519318969412}, {"eventtype": "focus", "interval": 1287, "value": "off", "timestamp": 1519318970699}, {"eventtype": "focus", "interval": 11393, "value": "on", "timestamp": 1519318982092}, {"eventtype": "focus", "interval": 105825, "value": "off", "timestamp": 1519319087917}, {"eventtype": "focus", "interval": 26548, "value": "on", "timestamp": 1519319114465}, {"eventtype": "focus", "interval": 1250, "value": "off", "timestamp": 1519319115715}, {"eventtype": "focus", "interval": 4491, "value": "on", "timestamp": 1519319120206}, {"eventtype": "focus", "interval": 165207, "value": "off", "timestamp": 1519319285413}, {"eventtype": "focus", "interval": 0, "value": "on", "timestamp": 1519319285413}, {"eventtype": "focus", "interval": 253401, "value": "off", "timestamp": 1519319538814}, {"eventtype": "focus", "interval": 21353, "value": "on", "timestamp": 1519319560167}], "data": [{"current_trial": 0, "trialdata": {"rt": 2461, "trial_type": "text", "internal_node_id": "0.0-0.0", "time_elapsed": 2463, "key_press": 32, "type": "INSTRUCTIONS", "trial_index": 0}, "uniqueid": "MTK2729:382M9COHEIMJNGCMFCC36RAGJDDEU1", "dateTime": 1519317268638}, {"current_trial": 1, "trialdata": {"rt": 12133, "trial_type": "text", "internal_node_id": "0.0-1.0", "time_elapsed": 14598, "key_press": 32, "type": "INSTRUCTIONS", "trial_index": 1}, "uniqueid": "MTK2729:382M9COHEIMJNGCMFCC36RAGJDDEU1", "dateTime": 1519317280773}, {"current_trial": 2, "trialdata": {"rt": [6292], "trial_type": "audio-test", "responses": ["ocean"], "internal_node_id": "0.0-2.0", "time_elapsed": 20919, "type": "AUDIO_TEST", "trial_index": 2}, "uniqueid": "MTK2729:382M9COHEIMJNGCMFCC36RAGJDDEU1", "dateTime": 1519317287094}, {"current_trial": 3, "trialdata": {"rt": [4964], "trial_type": "audio-test", "responses": ["crystal"], "internal_node_id": "0.0-3.0", "time_elapsed": 25895, "type": "AUDIO_TEST", "trial_index": 3}, "uniqueid": "MTK2729:382M9COHEIMJNGCMFCC36RAGJDDEU1", "dateTime": 1519317292069}, {"current_trial": 4, "trialdata": {"rt": [4396], "trial_type": "audio-test", "responses": ["spice"], "internal_node_id": "0.0-4.0", "time_elapsed": 30303, "type": "AUDIO_TEST", "trial_index": 4}, "uniqueid": "MTK2729:382M9COHEIMJNGCMFCC36RAGJDDEU1", "dateTime": 1519317296477}, {"current_trial": 5, "trialdata": {"rt": 30510, "trial_type": "survey-text", "responses": "{\"Q0\":\"1AM\",\"Q1\":\"9AM\",\"Q2\":\"5\"}", "internal_node_id": "0.0-5.0", "time_elapsed": 61576, "type": "SLEEP_SURVEY", "trial_index": 5}, "uniqueid": "MTK2729:382M9COHEIMJNGCMFCC36RAGJDDEU1", "dateTime": 1519317327750}, {"current_trial": 6, "trialdata": {"rt": 122734, "trial_type": "text", "internal_node_id": "0.0-6.0", "time_elapsed": 185325, "key_press": 32, "type": "INSTRUCTIONS", "trial_index": 6}, "uniqueid": "MTK2729:382M9COHEIMJNGCMFCC36RAGJDDEU1", "dateTime": 1519317451500}, {"current_trial": 7, "trialdata": {"rt": 11098, "trial_type": "text", "internal_node_id": "0.0-7.0", "time_elapsed": 196926, "key_press": 32, "type": "INSTRUCTIONS", "trial_index": 7}, "uniqueid": "MTK2729:382M9COHEIMJNGCMFCC36RAGJDDEU1", "dateTime": 1519317463100}, {"current_trial": 8, "trialdata": {"rt": 5825, "trial_type": "text", "internal_node_id": "0.0-8.0", "time_elapsed": 203254, "key_press": 32, "type": "INSTRUCTIONS", "trial_index": 8}, "uniqueid": "MTK2729:382M9COHEIMJNGCMFCC36RAGJDDEU1", "dateTime": 1519317469428}, {"current_trial": 9, "trialdata": {"rt": [3627, 7523, 9747, 12386, 15754, 17674], "trial_type": "math-distractor", "key_times": [3235, 3355, 3627, 7186, 7323, 7523, 9577, 9747, 11978, 12226, 12386, 15466, 15539, 15754, 17338, 17538, 17674], "responses": ["16", "22", "8", "10", "21", "10"], "num2": [7, 9, 1, 7, 8, 1, 6], "num3": [7, 7, 3, 1, 8, 7, 6], "conditions": [18, 1200, "v", 18000], "internal_node_id": "0.0-9.0", "key_presses": [97, 102, 13, 98, 98, 13, 104, 13, 97, 96, 13, 98, 97, 13, 97, 96, 13], "trial": 0, "time_elapsed": 222272, "type": "DISTRACTOR", "trial_index": 9, "num1": [2, 6, 4, 2, 5, 2, 4]}, "uniqueid": "MTK2729:382M9COHEIMJNGCMFCC36RAGJDDEU1", "dateTime": 1519317488446}, {"current_trial": 10, "trialdata": {"rt": -1, "trial_type": "single-stim", "stimulus": "<p id=\"stim\">10</p>", "internal_node_id": "0.0-10.0-0.0", "time_elapsed": 225289, "key_press": -1, "trial_index": 10}, "uniqueid": "MTK2729:382M9COHEIMJNGCMFCC36RAGJDDEU1", "dateTime": 1519317491463}, {"current_trial": 11, "trialdata": {"rt": -1, "trial_type": "single-stim", "stimulus": "<p id=\"stim\">9</p>", "internal_node_id": "0.0-10.0-1.0", "time_elapsed": 226304, "key_press": -1, "trial_index": 11}, "uniqueid": "MTK2729:382M9COHEIMJNGCMFCC36RAGJDDEU1", "dateTime": 1519317492478}, {"current_trial": 12, "trialdata": {"rt": -1, "trial_type": "single-stim", "stimulus": "<p id=\"stim\">8</p>", "internal_node_id": "0.0-10.0-2.0", "time_elapsed": 227320, "key_press": -1, "trial_index": 12}, "uniqueid": "MTK2729:382M9COHEIMJNGCMFCC36RAGJDDEU1", "dateTime": 1519317493494}, {"current_trial": 13, "trialdata": {"rt": -1, "trial_type": "single-stim", "stimulus": "<p id=\"stim\">7</p>", "internal_node_id": "0.0-10.0-3.0", "time_elapsed": 228336, "key_press": -1, "trial_index": 13}, "uniqueid": "MTK2729:382M9COHEIMJNGCMFCC36RAGJDDEU1", "dateTime": 1519317494510}, {"current_trial": 14, "trialdata": {"rt": -1, "trial_type": "single-stim", "stimulus": "<p id=\"stim\">6</p>", "internal_node_id": "0.0-10.0-4.0", "time_elapsed": 229351, "key_press": -1, "trial_index": 14}, "uniqueid": "MTK2729:382M9COHEIMJNGCMFCC36RAGJDDEU1", "dateTime": 1519317495525}, {"current_trial": 15, "trialdata": {"rt": -1, "trial_type": "single-stim", "stimulus": "<p id=\"stim\">5</p>", "internal_node_id": "0.0-10.0-5.0", "time_elapsed": 230367, "key_press": -1, "trial_index": 15}, "uniqueid": "MTK2729:382M9COHEIMJNGCMFCC36RAGJDDEU1", "dateTime": 1519317496541}, {"current_trial": 16, "trialdata": {"rt": -1, "trial_type": "single-stim", "stimulus": "<p id=\"stim\">4</p>", "internal_node_id": "0.0-10.0-6.0", "time_elapsed": 231383, "key_press": -1, "trial_index": 16}, "uniqueid": "MTK2729:382M9COHEIMJNGCMFCC36RAGJDDEU1", "dateTime": 1519317497557}, {"current_trial": 17, "trialdata": {"rt": -1, "trial_type": "single-stim", "stimulus": "<p id=\"stim\">3</p>", "internal_node_id": "0.0-10.0-7.0", "time_elapsed": 232398, "key_press": -1, "trial_index": 17}, "uniqueid": "MTK2729:382M9COHEIMJNGCMFCC36RAGJDDEU1", "dateTime": 1519317498572}, {"current_trial": 18, "trialdata": {"rt": -1, "trial_type": "single-stim", "stimulus": "<p id=\"stim\">2</p>", "internal_node_id": "0.0-10.0-8.0", "time_elapsed": 233414, "key_press": -1, "trial_index": 18}, "uniqueid": "MTK2729:382M9COHEIMJNGCMFCC36RAGJDDEU1", "dateTime": 1519317499588}, {"current_trial": 19, "trialdata": {"rt": -1, "trial_type": "single-stim", "stimulus": "<p id=\"stim\">1</p>", "internal_node_id": "0.0-10.0-9.0", "time_elapsed": 234429, "key_press": -1, "trial_index": 19}, "uniqueid": "MTK2729:382M9COHEIMJNGCMFCC36RAGJDDEU1", "dateTime": 1519317500604}, {"current_trial": 20, "trialdata": {"rt": -1, "trial_type": "single-stim", "stimulus": "<p id=\"stim\">+</p>", "internal_node_id": "0.0-11.0-0.0", "time_elapsed": 235944, "key_press": -1, "type": "FIXATION", "trial_index": 20}, "uniqueid": "MTK2729:382M9COHEIMJNGCMFCC36RAGJDDEU1", "dateTime": 1519317502118}, {"current_trial": 21, "trialdata": {"rt": -1, "trial_type": "single-stim", "word": "marine", "stimulus": "<p id=\"stim\">MARINE</p>", "conditions": [18, 1200, "v", 18000], "internal_node_id": "0.0-12.0", "trial": 0, "time_elapsed": 237147, "serialpos": 0, "key_press": -1, "wordID": 868, "type": "PRES_VIS", "trial_index": 21}, "uniqueid": "MTK2729:382M9COHEIMJNGCMFCC36RAGJDDEU1", "dateTime": 1519317503321}, {"current_trial": 22, "trialdata": {"rt": -1, "trial_type": "single-stim", "word": "playground", "stimulus": "<p id=\"stim\">PLAYGROUND</p>", "conditions": [18, 1200, "v", 18000], "internal_node_id": "0.0-13.0", "trial": 0, "time_elapsed": 239428, "serialpos": 1, "key_press": -1, "wordID": 1086, "type": "PRES_VIS", "trial_index": 22}, "uniqueid": "MTK2729:382M9COHEIMJNGCMFCC36RAGJDDEU1", "dateTime": 1519317505603}, {"current_trial": 23, "trialdata": {"rt": -1, "trial_type": "single-stim", "word": "sibling", "stimulus": "<p id=\"stim\">SIBLING</p>", "conditions": [18, 1200, "v", 18000], "internal_node_id": "0.0-14.0", "trial": 0, "time_elapsed": 241475, "serialpos": 2, "key_press": -1, "wordID": 1300, "type": "PRES_VIS", "trial_index": 23}, "uniqueid": "MTK2729:382M9COHEIMJNGCMFCC36RAGJDDEU1", "dateTime": 1519317507649}, {"current_trial": 24, "trialdata": {"rt": -1, "trial_type": "single-stim", "word": "fungus", "stimulus": "<p id=\"stim\">FUNGUS</p>", "conditions": [18, 1200, "v", 18000], "internal_node_id": "0.0-15.0", "trial": 0, "time_elapsed": 243538, "serialpos": 3, "key_press": -1, "wordID": 613, "type": "PRES_VIS", "trial_index": 24}, "uniqueid": "MTK2729:382M9COHEIMJNGCMFCC36RAGJDDEU1", "dateTime": 1519317509712}, {"current_trial": 25, "trialdata": {"rt": -1, "trial_type": "single-stim", "word": "typist", "stimulus": "<p id=\"stim\">TYPIST</p>", "conditions": [18, 1200, "v", 18000], "internal_node_id": "0.0-16.0", "trial": 0, "time_elapsed": 245710, "serialpos": 4, "key_press": -1, "wordID": 1531, "type": "PRES_VIS", "trial_index": 25}, "uniqueid": "MTK2729:382M9COHEIMJNGCMFCC36RAGJDDEU1", "dateTime": 1519317511884}, {"current_trial": 26, "trialdata": {"rt": -1, "trial_type": "single-stim", "word": "bug", "stimulus": "<p id=\"stim\">BUG</p>", "conditions": [18, 1200, "v", 18000], "internal_node_id": "0.0-17.0", "trial": 0, "time_elapsed": 247786, "serialpos": 5, "key_press": -1, "wordID": 186, "type": "PRES_VIS", "trial_index": 26}, "uniqueid": "MTK2729:382M9COHEIMJNGCMFCC36RAGJDDEU1", "dateTime": 1519317513960}, {"current_trial": 27, "trialdata": {"rt": -1, "trial_type": "single-stim", "word": "curtain", "stimulus": "<p id=\"stim\">CURTAIN</p>", "conditions": [18, 1200, "v", 18000], "internal_node_id": "0.0-18.0", "trial": 0, "time_elapsed": 249849, "serialpos": 6, "key_press": -1, "wordID": 426, "type": "PRES_VIS", "trial_index": 27}, "uniqueid": "MTK2729:382M9COHEIMJNGCMFCC36RAGJDDEU1", "dateTime": 1519317516023}, {"current_trial": 28, "trialdata": {"rt": -1, "trial_type": "single-stim", "word": "plaza", "stimulus": "<p id=\"stim\">PLAZA</p>", "conditions": [18, 1200, "v", 18000], "internal_node_id": "0.0-19.0", "trial": 0, "time_elapsed": 251958, "serialpos": 7, "key_press": -1, "wordID": 1087, "type": "PRES_VIS", "trial_index": 28}, "uniqueid": "MTK2729:382M9COHEIMJNGCMFCC36RAGJDDEU1", "dateTime": 1519317518132}, {"current_trial": 29, "trialdata": {"rt": -1, "trial_type": "single-stim", "word": "napkin", "stimulus": "<p id=\"stim\">NAPKIN</p>", "conditions": [18, 1200, "v", 18000], "internal_node_id": "0.0-20.0", "trial": 0, "time_elapsed": 254145, "serialpos": 8, "key_press": -1, "wordID": 936, "type": "PRES_VIS", "trial_index": 29}, "uniqueid": "MTK2729:382M9COHEIMJNGCMFCC36RAGJDDEU1", "dateTime": 1519317520320}, {"current_trial": 30, "trialdata": {"rt": -1, "trial_type": "single-stim", "word": "wardrobe", "stimulus": "<p id=\"stim\">WARDROBE</p>", "conditions": [18, 1200, "v", 18000], "internal_node_id": "0.0-21.0", "trial": 0, "time_elapsed": 256492, "serialpos": 9, "key_press": -1, "wordID": 1586, "type": "PRES_VIS", "trial_index": 30}, "uniqueid": "MTK2729:382M9COHEIMJNGCMFCC36RAGJDDEU1", "dateTime": 1519317522666}, {"current_trial": 31, "trialdata": {"rt": -1, "trial_type": "single-stim", "word": "hawk", "stimulus": "<p id=\"stim\">HAWK</p>", "conditions": [18, 1200, "v", 18000], "internal_node_id": "0.0-22.0", "trial": 0, "time_elapsed": 258805, "serialpos": 10, "key_press": -1, "wordID": 691, "type": "PRES_VIS", "trial_index": 31}, "uniqueid": "MTK2729:382M9COHEIMJNGCMFCC36RAGJDDEU1", "dateTime": 1519317524979}, {"current_trial": 32, "trialdata": {"rt": -1, "trial_type": "single-stim", "word": "cocktail", "stimulus": "<p id=\"stim\">COCKTAIL</p>", "conditions": [18, 1200, "v", 18000], "internal_node_id": "0.0-23.0", "trial": 0, "time_elapsed": 261132, "serialpos": 11, "key_press": -1, "wordID": 337, "type": "PRES_VIS", "trial_index": 32}, "uniqueid": "MTK2729:382M9COHEIMJNGCMFCC36RAGJDDEU1", "dateTime": 1519317527306}, {"current_trial": 33, "trialdata": {"rt": -1, "trial_type": "single-stim", "word": "forehead", "stimulus": "<p id=\"stim\">FOREHEAD</p>", "conditions": [18, 1200, "v", 18000], "internal_node_id": "0.0-24.0", "trial": 0, "time_elapsed": 263460, "serialpos": 12, "key_press": -1, "wordID": 591, "type": "PRES_VIS", "trial_index": 33}, "uniqueid": "MTK2729:382M9COHEIMJNGCMFCC36RAGJDDEU1", "dateTime": 1519317529634}, {"current_trial": 34, "trialdata": {"rt": -1, "trial_type": "single-stim", "word": "lightning", "stimulus": "<p id=\"stim\">LIGHTNING</p>", "conditions": [18, 1200, "v", 18000], "internal_node_id": "0.0-25.0", "trial": 0, "time_elapsed": 265586, "serialpos": 13, "key_press": -1, "wordID": 819, "type": "PRES_VIS", "trial_index": 34}, "uniqueid": "MTK2729:382M9COHEIMJNGCMFCC36RAGJDDEU1", "dateTime": 1519317531760}, {"current_trial": 35, "trialdata": {"rt": -1, "trial_type": "single-stim", "word": "sketch", "stimulus": "<p id=\"stim\">SKETCH</p>", "conditions": [18, 1200, "v", 18000], "internal_node_id": "0.0-26.0", "trial": 0, "time_elapsed": 267602, "serialpos": 14, "key_press": -1, "wordID": 1314, "type": "PRES_VIS", "trial_index": 35}, "uniqueid": "MTK2729:382M9COHEIMJNGCMFCC36RAGJDDEU1", "dateTime": 1519317533776}, {"current_trial": 36, "trialdata": {"rt": -1, "trial_type": "single-stim", "word": "shelter", "stimulus": "<p id=\"stim\">SHELTER</p>", "conditions": [18, 1200, "v", 18000], "internal_node_id": "0.0-27.0", "trial": 0, "time_elapsed": 269696, "serialpos": 15, "key_press": -1, "wordID": 1281, "type": "PRES_VIS", "trial_index": 36}, "uniqueid": "MTK2729:382M9COHEIMJNGCMFCC36RAGJDDEU1", "dateTime": 1519317535870}, {"current_trial": 37, "trialdata": {"rt": -1, "trial_type": "single-stim", "word": "box", "stimulus": "<p id=\"stim\">BOX</p>", "conditions": [18, 1200, "v", 18000], "internal_node_id": "0.0-28.0", "trial": 0, "time_elapsed": 271821, "serialpos": 16, "key_press": -1, "wordID": 158, "type": "PRES_VIS", "trial_index": 37}, "uniqueid": "MTK2729:382M9COHEIMJNGCMFCC36RAGJDDEU1", "dateTime": 1519317537995}, {"current_trial": 38, "trialdata": {"rt": -1, "trial_type": "single-stim", "word": "mask", "stimulus": "<p id=\"stim\">MASK</p>", "conditions": [18, 1200, "v", 18000], "internal_node_id": "0.0-29.0", "trial": 0, "time_elapsed": 274086, "serialpos": 17, "key_press": -1, "wordID": 875, "type": "PRES_VIS", "trial_index": 38}, "uniqueid": "MTK2729:382M9COHEIMJNGCMFCC36RAGJDDEU1", "dateTime": 1519317540260}, {"current_trial": 39, "trialdata": {"rt": -1, "trial_type": "single-stim", "stimulus": "", "internal_node_id": "0.0-30.0-0.0", "time_elapsed": 276602, "key_press": -1, "type": "PRE_RECALL_DELAY", "trial_index": 39}, "uniqueid": "MTK2729:382M9COHEIMJNGCMFCC36RAGJDDEU1", "dateTime": 1519317542776}, {"current_trial": 40, "trialdata": {"rt": -1000, "trial_type": "single-audio", "stimulus": "/static/audio/400Hz.wav", "internal_node_id": "0.0-31.0", "time_elapsed": 277118, "key_press": -1, "type": "PRE_RECALL_ALERT", "trial_index": 40}, "uniqueid": "MTK2729:382M9COHEIMJNGCMFCC36RAGJDDEU1", "dateTime": 1519317543292}, {"current_trial": 41, "trialdata": {"rt": [3372, 3428, 5020, 6332, 8316, 9396, 11020, 12260, 20220, 28357, 44477], "recwords": ["maks", "", "bug", "hawk", "sibling", "napkin", "playground", "marine", "cocktail", "plaza", "forehead"], "key_times": [3005, 3132, 3180, 3181, 3372, 3428, 3596, 4324, 4428, 5020, 5548, 5676, 5725, 5876, 6332, 7692, 7764, 7852, 7956, 8027, 8085, 8117, 8316, 8652, 8764, 8844, 8996, 9188, 9236, 9396, 9948, 10133, 10133, 10300, 10372, 10572, 10612, 10667, 10836, 10917, 11020, 11212, 11308, 11396, 11445, 11508, 12076, 12260, 19356, 19468, 19541, 19644, 19780, 19844, 19924, 20012, 20220, 26700, 27452, 27780, 28092, 28268, 28357, 43492, 43940, 43996, 44060, 44165, 44245, 44364, 44404, 44477], "trial_type": "free-recall", "conditions": [18, 1200, "v", 18000], "internal_node_id": "0.0-32.0-0.0", "key_presses": [77, 65, 75, 83, 188, 32, 66, 85, 71, 32, 72, 65, 87, 75, 13, 83, 73, 66, 76, 73, 78, 71, 13, 78, 65, 80, 75, 73, 78, 13, 80, 76, 65, 89, 71, 82, 79, 85, 78, 68, 13, 77, 65, 82, 73, 78, 69, 13, 67, 79, 67, 75, 84, 65, 73, 76, 13, 80, 76, 65, 90, 65, 13, 70, 79, 82, 69, 72, 69, 65, 68, 13], "trial": 0, "time_elapsed": 337132, "type": "FREE_RECALL", "trial_index": 41}, "uniqueid": "MTK2729:382M9COHEIMJNGCMFCC36RAGJDDEU1", "dateTime": 1519317603310}, {"current_trial": 42, "trialdata": {"rt": 1521, "trial_type": "text", "internal_node_id": "0.0-33.0", "time_elapsed": 340669, "key_press": 32, "type": "INSTRUCTIONS", "trial_index": 42}, "uniqueid": "MTK2729:382M9COHEIMJNGCMFCC36RAGJDDEU1", "dateTime": 1519317606843}, {"current_trial": 43, "trialdata": {"rt": [3402, 5042, 7290, 9482, 11475, 14770, 17506], "trial_type": "math-distractor", "key_times": [3034, 3275, 3402, 4722, 4914, 5042, 6970, 7290, 9146, 9306, 9482, 11226, 11378, 11475, 14490, 14658, 14770, 17202, 17338, 17506], "responses": ["17", "10", "9", "12", "11", "22", "15"], "num2": [3, 8, 1, 9, 2, 9, 2, 1], "num3": [9, 1, 6, 1, 3, 5, 7, 4], "conditions": [18, 1200, "v", 18000], "internal_node_id": "0.0-34.0", "key_presses": [97, 103, 13, 97, 96, 13, 105, 13, 97, 98, 13, 97, 97, 13, 98, 98, 13, 97, 101, 13], "trial": 1, "time_elapsed": 360694, "type": "DISTRACTOR", "trial_index": 43, "num1": [5, 1, 2, 2, 6, 8, 6, 6]}, "uniqueid": "MTK2729:382M9COHEIMJNGCMFCC36RAGJDDEU1", "dateTime": 1519317626869}, {"current_trial": 44, "trialdata": {"rt": -1, "trial_type": "single-stim", "stimulus": "<p id=\"stim\">10</p>", "internal_node_id": "0.0-35.0-0.0", "time_elapsed": 363725, "key_press": -1, "trial_index": 44}, "uniqueid": "MTK2729:382M9COHEIMJNGCMFCC36RAGJDDEU1", "dateTime": 1519317629899}, {"current_trial": 45, "trialdata": {"rt": -1, "trial_type": "single-stim", "stimulus": "<p id=\"stim\">9</p>", "internal_node_id": "0.0-35.0-1.0", "time_elapsed": 364741, "key_press": -1, "trial_index": 45}, "uniqueid": "MTK2729:382M9COHEIMJNGCMFCC36RAGJDDEU1", "dateTime": 1519317630915}, {"current_trial": 46, "trialdata": {"rt": -1, "trial_type": "single-stim", "stimulus": "<p id=\"stim\">8</p>", "internal_node_id": "0.0-35.0-2.0", "time_elapsed": 365757, "key_press": -1, "trial_index": 46}, "uniqueid": "MTK2729:382M9COHEIMJNGCMFCC36RAGJDDEU1", "dateTime": 1519317631931}, {"current_trial": 47, "trialdata": {"rt": -1, "trial_type": "single-stim", "stimulus": "<p id=\"stim\">7</p>", "internal_node_id": "0.0-35.0-3.0", "time_elapsed": 366772, "key_press": -1, "trial_index": 47}, "uniqueid": "MTK2729:382M9COHEIMJNGCMFCC36RAGJDDEU1", "dateTime": 1519317632946}, {"current_trial": 48, "trialdata": {"rt": -1, "trial_type": "single-stim", "stimulus": "<p id=\"stim\">6</p>", "internal_node_id": "0.0-35.0-4.0", "time_elapsed": 367788, "key_press": -1, "trial_index": 48}, "uniqueid": "MTK2729:382M9COHEIMJNGCMFCC36RAGJDDEU1", "dateTime": 1519317633962}, {"current_trial": 49, "trialdata": {"rt": -1, "trial_type": "single-stim", "stimulus": "<p id=\"stim\">5</p>", "internal_node_id": "0.0-35.0-5.0", "time_elapsed": 368803, "key_press": -1, "trial_index": 49}, "uniqueid": "MTK2729:382M9COHEIMJNGCMFCC36RAGJDDEU1", "dateTime": 1519317634978}, {"current_trial": 50, "trialdata": {"rt": -1, "trial_type": "single-stim", "stimulus": "<p id=\"stim\">4</p>", "internal_node_id": "0.0-35.0-6.0", "time_elapsed": 369819, "key_press": -1, "trial_index": 50}, "uniqueid": "MTK2729:382M9COHEIMJNGCMFCC36RAGJDDEU1", "dateTime": 1519317635993}, {"current_trial": 51, "trialdata": {"rt": -1, "trial_type": "single-stim", "stimulus": "<p id=\"stim\">3</p>", "internal_node_id": "0.0-35.0-7.0", "time_elapsed": 370835, "key_press": -1, "trial_index": 51}, "uniqueid": "MTK2729:382M9COHEIMJNGCMFCC36RAGJDDEU1", "dateTime": 1519317637009}, {"current_trial": 52, "trialdata": {"rt": -1, "trial_type": "single-stim", "stimulus": "<p id=\"stim\">2</p>", "internal_node_id": "0.0-35.0-8.0", "time_elapsed": 371850, "key_press": -1, "trial_index": 52}, "uniqueid": "MTK2729:382M9COHEIMJNGCMFCC36RAGJDDEU1", "dateTime": 1519317638025}, {"current_trial": 53, "trialdata": {"rt": -1, "trial_type": "single-stim", "stimulus": "<p id=\"stim\">1</p>", "internal_node_id": "0.0-35.0-9.0", "time_elapsed": 372866, "key_press": -1, "trial_index": 53}, "uniqueid": "MTK2729:382M9COHEIMJNGCMFCC36RAGJDDEU1", "dateTime": 1519317639040}, {"current_trial": 54, "trialdata": {"rt": -1, "trial_type": "single-stim", "stimulus": "<p id=\"stim\">+</p>", "internal_node_id": "0.0-36.0-0.0", "time_elapsed": 374382, "key_press": -1, "type": "FIXATION", "trial_index": 54}, "uniqueid": "MTK2729:382M9COHEIMJNGCMFCC36RAGJDDEU1", "dateTime": 1519317640556}, {"current_trial": 55, "trialdata": {"rt": -1, "trial_type": "single-stim", "word": "airport", "stimulus": "<p id=\"stim\">AIRPORT</p>", "conditions": [18, 1200, "v", 18000], "internal_node_id": "0.0-37.0", "trial": 1, "time_elapsed": 375584, "serialpos": 0, "key_press": -1, "wordID": 12, "type": "PRES_VIS", "trial_index": 55}, "uniqueid": "MTK2729:382M9COHEIMJNGCMFCC36RAGJDDEU1", "dateTime": 1519317641758}, {"current_trial": 56, "trialdata": {"rt": -1, "trial_type": "single-stim", "word": "novel", "stimulus": "<p id=\"stim\">NOVEL</p>", "conditions": [18, 1200, "v", 18000], "internal_node_id": "0.0-38.0", "trial": 1, "time_elapsed": 377833, "serialpos": 1, "key_press": -1, "wordID": 959, "type": "PRES_VIS", "trial_index": 56}, "uniqueid": "MTK2729:382M9COHEIMJNGCMFCC36RAGJDDEU1", "dateTime": 1519317644007}, {"current_trial": 57, "trialdata": {"rt": -1, "trial_type": "single-stim", "word": "cloud", "stimulus": "<p id=\"stim\">CLOUD</p>", "conditions": [18, 1200, "v", 18000], "internal_node_id": "0.0-39.0", "trial": 1, "time_elapsed": 380145, "serialpos": 2, "key_press": -1, "wordID": 327, "type": "PRES_VIS", "trial_index": 57}, "uniqueid": "MTK2729:382M9COHEIMJNGCMFCC36RAGJDDEU1", "dateTime": 1519317646320}, {"current_trial": 58, "trialdata": {"rt": -1, "trial_type": "single-stim", "word": "laser", "stimulus": "<p id=\"stim\">LASER</p>", "conditions": [18, 1200, "v", 18000], "internal_node_id": "0.0-40.0", "trial": 1, "time_elapsed": 382161, "serialpos": 3, "key_press": -1, "wordID": 800, "type": "PRES_VIS", "trial_index": 58}, "uniqueid": "MTK2729:382M9COHEIMJNGCMFCC36RAGJDDEU1", "dateTime": 1519317648335}, {"current_trial": 59, "trialdata": {"rt": -1, "trial_type": "single-stim", "word": "palace", "stimulus": "<p id=\"stim\">PALACE</p>", "conditions": [18, 1200, "v", 18000], "internal_node_id": "0.0-41.0", "trial": 1, "time_elapsed": 384208, "serialpos": 4, "key_press": -1, "wordID": 1005, "type": "PRES_VIS", "trial_index": 59}, "uniqueid": "MTK2729:382M9COHEIMJNGCMFCC36RAGJDDEU1", "dateTime": 1519317650382}, {"current_trial": 60, "trialdata": {"rt": -1, "trial_type": "single-stim", "word": "staple", "stimulus": "<p id=\"stim\">STAPLE</p>", "conditions": [18, 1200, "v", 18000], "internal_node_id": "0.0-42.0", "trial": 1, "time_elapsed": 386553, "serialpos": 5, "key_press": -1, "wordID": 1370, "type": "PRES_VIS", "trial_index": 60}, "uniqueid": "MTK2729:382M9COHEIMJNGCMFCC36RAGJDDEU1", "dateTime": 1519317652727}, {"current_trial": 61, "trialdata": {"rt": -1, "trial_type": "single-stim", "word": "contract", "stimulus": "<p id=\"stim\">CONTRACT</p>", "conditions": [18, 1200, "v", 18000], "internal_node_id": "0.0-43.0", "trial": 1, "time_elapsed": 388834, "serialpos": 6, "key_press": -1, "wordID": 367, "type": "PRES_VIS", "trial_index": 61}, "uniqueid": "MTK2729:382M9COHEIMJNGCMFCC36RAGJDDEU1", "dateTime": 1519317655008}, {"current_trial": 62, "trialdata": {"rt": -1, "trial_type": "single-stim", "word": "sister", "stimulus": "<p id=\"stim\">SISTER</p>", "conditions": [18, 1200, "v", 18000], "internal_node_id": "0.0-44.0", "trial": 1, "time_elapsed": 390850, "serialpos": 7, "key_press": -1, "wordID": 1311, "type": "PRES_VIS", "trial_index": 62}, "uniqueid": "MTK2729:382M9COHEIMJNGCMFCC36RAGJDDEU1", "dateTime": 1519317657024}, {"current_trial": 63, "trialdata": {"rt": -1, "trial_type": "single-stim", "word": "uncle", "stimulus": "<p id=\"stim\">UNCLE</p>", "conditions": [18, 1200, "v", 18000], "internal_node_id": "0.0-45.0", "trial": 1, "time_elapsed": 393162, "serialpos": 8, "key_press": -1, "wordID": 1535, "type": "PRES_VIS", "trial_index": 63}, "uniqueid": "MTK2729:382M9COHEIMJNGCMFCC36RAGJDDEU1", "dateTime": 1519317659336}, {"current_trial": 64, "trialdata": {"rt": -1, "trial_type": "single-stim", "word": "mailbox", "stimulus": "<p id=\"stim\">MAILBOX</p>", "conditions": [18, 1200, "v", 18000], "internal_node_id": "0.0-46.0", "trial": 1, "time_elapsed": 395178, "serialpos": 9, "key_press": -1, "wordID": 856, "type": "PRES_VIS", "trial_index": 64}, "uniqueid": "MTK2729:382M9COHEIMJNGCMFCC36RAGJDDEU1", "dateTime": 1519317661352}, {"current_trial": 65, "trialdata": {"rt": -1, "trial_type": "single-stim", "word": "icing", "stimulus": "<p id=\"stim\">ICING</p>", "conditions": [18, 1200, "v", 18000], "internal_node_id": "0.0-47.0", "trial": 1, "time_elapsed": 397225, "serialpos": 10, "key_press": -1, "wordID": 731, "type": "PRES_VIS", "trial_index": 65}, "uniqueid": "MTK2729:382M9COHEIMJNGCMFCC36RAGJDDEU1", "dateTime": 1519317663399}, {"current_trial": 66, "trialdata": {"rt": -1, "trial_type": "single-stim", "word": "london", "stimulus": "<p id=\"stim\">LONDON</p>", "conditions": [18, 1200, "v", 18000], "internal_node_id": "0.0-48.0", "trial": 1, "time_elapsed": 399366, "serialpos": 11, "key_press": -1, "wordID": 842, "type": "PRES_VIS", "trial_index": 66}, "uniqueid": "MTK2729:382M9COHEIMJNGCMFCC36RAGJDDEU1", "dateTime": 1519317665540}, {"current_trial": 67, "trialdata": {"rt": -1, "trial_type": "single-stim", "word": "dolphin", "stimulus": "<p id=\"stim\">DOLPHIN</p>", "conditions": [18, 1200, "v", 18000], "internal_node_id": "0.0-49.0", "trial": 1, "time_elapsed": 401725, "serialpos": 12, "key_press": -1, "wordID": 482, "type": "PRES_VIS", "trial_index": 67}, "uniqueid": "MTK2729:382M9COHEIMJNGCMFCC36RAGJDDEU1", "dateTime": 1519317667899}, {"current_trial": 68, "trialdata": {"rt": -1, "trial_type": "single-stim", "word": "relish", "stimulus": "<p id=\"stim\">RELISH</p>", "conditions": [18, 1200, "v", 18000], "internal_node_id": "0.0-50.0", "trial": 1, "time_elapsed": 404116, "serialpos": 13, "key_press": -1, "wordID": 1182, "type": "PRES_VIS", "trial_index": 68}, "uniqueid": "MTK2729:382M9COHEIMJNGCMFCC36RAGJDDEU1", "dateTime": 1519317670290}, {"current_trial": 69, "trialdata": {"rt": -1, "trial_type": "single-stim", "word": "sausage", "stimulus": "<p id=\"stim\">SAUSAGE</p>", "conditions": [18, 1200, "v", 18000], "internal_node_id": "0.0-51.0", "trial": 1, "time_elapsed": 406269, "serialpos": 14, "key_press": -1, "wordID": 1237, "type": "PRES_VIS", "trial_index": 69}, "uniqueid": "MTK2729:382M9COHEIMJNGCMFCC36RAGJDDEU1", "dateTime": 1519317672443}, {"current_trial": 70, "trialdata": {"rt": -1, "trial_type": "single-stim", "word": "grill", "stimulus": "<p id=\"stim\">GRILL</p>", "conditions": [18, 1200, "v", 18000], "internal_node_id": "0.0-52.0", "trial": 1, "time_elapsed": 408466, "serialpos": 15, "key_press": -1, "wordID": 660, "type": "PRES_VIS", "trial_index": 70}, "uniqueid": "MTK2729:382M9COHEIMJNGCMFCC36RAGJDDEU1", "dateTime": 1519317674640}, {"current_trial": 71, "trialdata": {"rt": -1, "trial_type": "single-stim", "word": "panther", "stimulus": "<p id=\"stim\">PANTHER</p>", "conditions": [18, 1200, "v", 18000], "internal_node_id": "0.0-53.0", "trial": 1, "time_elapsed": 410482, "serialpos": 16, "key_press": -1, "wordID": 1008, "type": "PRES_VIS", "trial_index": 71}, "uniqueid": "MTK2729:382M9COHEIMJNGCMFCC36RAGJDDEU1", "dateTime": 1519317676656}, {"current_trial": 72, "trialdata": {"rt": -1, "trial_type": "single-stim", "word": "possum", "stimulus": "<p id=\"stim\">POSSUM</p>", "conditions": [18, 1200, "v", 18000], "internal_node_id": "0.0-54.0", "trial": 1, "time_elapsed": 412669, "serialpos": 17, "key_press": -1, "wordID": 1111, "type": "PRES_VIS", "trial_index": 72}, "uniqueid": "MTK2729:382M9COHEIMJNGCMFCC36RAGJDDEU1", "dateTime": 1519317678843}, {"current_trial": 73, "trialdata": {"rt": -1, "trial_type": "single-stim", "stimulus": "", "internal_node_id": "0.0-55.0-0.0", "time_elapsed": 414951, "key_press": -1, "type": "PRE_RECALL_DELAY", "trial_index": 73}, "uniqueid": "MTK2729:382M9COHEIMJNGCMFCC36RAGJDDEU1", "dateTime": 1519317681125}, {"current_trial": 74, "trialdata": {"rt": -1000, "trial_type": "single-audio", "stimulus": "/static/audio/400Hz.wav", "internal_node_id": "0.0-56.0", "time_elapsed": 415466, "key_press": -1, "type": "PRE_RECALL_ALERT", "trial_index": 74}, "uniqueid": "MTK2729:382M9COHEIMJNGCMFCC36RAGJDDEU1", "dateTime": 1519317681640}, {"current_trial": 75, "trialdata": {"rt": [3569, 4609, 5489, 6585, 7513, 8729, 9473, 10393, 13913], "recwords": ["possum", "panther", "sausage", "grill", "relish", "sister", "uncle", "mailbox", "airport"], "key_times": [1825, 1929, 2001, 2105, 2225, 2297, 2785, 2921, 3129, 3441, 3569, 3825, 3929, 4057, 4177, 4266, 4385, 4465, 4609, 4841, 4985, 5073, 5154, 5265, 5321, 5393, 5489, 5625, 5801, 5817, 5953, 6417, 6585, 6777, 6937, 7033, 7089, 7209, 7313, 7513, 8153, 8281, 8362, 8482, 8601, 8673, 8729, 8937, 9105, 9178, 9290, 9386, 9473, 9641, 9721, 9817, 9954, 10033, 10169, 10265, 10393, 13305, 13377, 13497, 13577, 13665, 13705, 13841, 13913], "trial_type": "free-recall", "conditions": [18, 1200, "v", 18000], "internal_node_id": "0.0-57.0-0.0", "key_presses": [80, 79, 83, 83, 79, 77, 8, 8, 85, 77, 13, 80, 65, 78, 84, 72, 69, 82, 13, 83, 65, 85, 83, 65, 71, 69, 13, 71, 82, 73, 76, 76, 13, 82, 69, 76, 73, 83, 72, 13, 83, 73, 83, 84, 69, 82, 13, 85, 78, 67, 76, 69, 13, 77, 65, 73, 76, 66, 79, 88, 13, 65, 73, 82, 80, 79, 82, 84, 13], "trial": 1, "time_elapsed": 475470, "type": "FREE_RECALL", "trial_index": 75}, "uniqueid": "MTK2729:382M9COHEIMJNGCMFCC36RAGJDDEU1", "dateTime": 1519317741646}, {"current_trial": 76, "trialdata": {"rt": 1872, "trial_type": "text", "internal_node_id": "0.0-58.0", "time_elapsed": 479358, "key_press": 32, "type": "INSTRUCTIONS", "trial_index": 76}, "uniqueid": "MTK2729:382M9COHEIMJNGCMFCC36RAGJDDEU1", "dateTime": 1519317745532}, {"current_trial": 77, "trialdata": {"rt": [2899, 4819, 7339, 8859, 10795], "trial_type": "math-distractor", "key_times": [2635, 2731, 2899, 4459, 4548, 4819, 7091, 7195, 7339, 8603, 8675, 8859, 10531, 10627, 10795], "responses": ["16", "15", "13", "16", "16"], "num2": [8, 1, 5, 2, 6, 7], "num3": [4, 6, 2, 6, 5, 2], "conditions": [12, 1600, "v", 12000], "internal_node_id": "0.0-59.0", "key_presses": [97, 102, 13, 97, 101, 13, 97, 99, 13, 97, 102, 13, 97, 102, 13], "trial": 2, "time_elapsed": 492377, "type": "DISTRACTOR", "trial_index": 77, "num1": [4, 8, 6, 8, 5, 8]}, "uniqueid": "MTK2729:382M9COHEIMJNGCMFCC36RAGJDDEU1", "dateTime": 1519317758551}, {"current_trial": 78, "trialdata": {"rt": -1, "trial_type": "single-stim", "stimulus": "<p id=\"stim\">10</p>", "internal_node_id": "0.0-60.0-0.0", "time_elapsed": 495408, "key_press": -1, "trial_index": 78}, "uniqueid": "MTK2729:382M9COHEIMJNGCMFCC36RAGJDDEU1", "dateTime": 1519317761582}, {"current_trial": 79, "trialdata": {"rt": -1, "trial_type": "single-stim", "stimulus": "<p id=\"stim\">9</p>", "internal_node_id": "0.0-60.0-1.0", "time_elapsed": 496420, "key_press": -1, "trial_index": 79}, "uniqueid": "MTK2729:382M9COHEIMJNGCMFCC36RAGJDDEU1", "dateTime": 1519317762594}, {"current_trial": 80, "trialdata": {"rt": -1, "trial_type": "single-stim", "stimulus": "<p id=\"stim\">8</p>", "internal_node_id": "0.0-60.0-2.0", "time_elapsed": 497435, "key_press": -1, "trial_index": 80}, "uniqueid": "MTK2729:382M9COHEIMJNGCMFCC36RAGJDDEU1", "dateTime": 1519317763610}, {"current_trial": 81, "trialdata": {"rt": -1, "trial_type": "single-stim", "stimulus": "<p id=\"stim\">7</p>", "internal_node_id": "0.0-60.0-3.0", "time_elapsed": 498451, "key_press": -1, "trial_index": 81}, "uniqueid": "MTK2729:382M9COHEIMJNGCMFCC36RAGJDDEU1", "dateTime": 1519317764625}, {"current_trial": 82, "trialdata": {"rt": -1, "trial_type": "single-stim", "stimulus": "<p id=\"stim\">6</p>", "internal_node_id": "0.0-60.0-4.0", "time_elapsed": 499467, "key_press": -1, "trial_index": 82}, "uniqueid": "MTK2729:382M9COHEIMJNGCMFCC36RAGJDDEU1", "dateTime": 1519317765641}, {"current_trial": 83, "trialdata": {"rt": -1, "trial_type": "single-stim", "stimulus": "<p id=\"stim\">5</p>", "internal_node_id": "0.0-60.0-5.0", "time_elapsed": 500482, "key_press": -1, "trial_index": 83}, "uniqueid": "MTK2729:382M9COHEIMJNGCMFCC36RAGJDDEU1", "dateTime": 1519317766656}, {"current_trial": 84, "trialdata": {"rt": -1, "trial_type": "single-stim", "stimulus": "<p id=\"stim\">4</p>", "internal_node_id": "0.0-60.0-6.0", "time_elapsed": 501498, "key_press": -1, "trial_index": 84}, "uniqueid": "MTK2729:382M9COHEIMJNGCMFCC36RAGJDDEU1", "dateTime": 1519317767672}, {"current_trial": 85, "trialdata": {"rt": -1, "trial_type": "single-stim", "stimulus": "<p id=\"stim\">3</p>", "internal_node_id": "0.0-60.0-7.0", "time_elapsed": 502513, "key_press": -1, "trial_index": 85}, "uniqueid": "MTK2729:382M9COHEIMJNGCMFCC36RAGJDDEU1", "dateTime": 1519317768688}, {"current_trial": 86, "trialdata": {"rt": -1, "trial_type": "single-stim", "stimulus": "<p id=\"stim\">2</p>", "internal_node_id": "0.0-60.0-8.0", "time_elapsed": 503529, "key_press": -1, "trial_index": 86}, "uniqueid": "MTK2729:382M9COHEIMJNGCMFCC36RAGJDDEU1", "dateTime": 1519317769703}, {"current_trial": 87, "trialdata": {"rt": -1, "trial_type": "single-stim", "stimulus": "<p id=\"stim\">1</p>", "internal_node_id": "0.0-60.0-9.0", "time_elapsed": 504545, "key_press": -1, "trial_index": 87}, "uniqueid": "MTK2729:382M9COHEIMJNGCMFCC36RAGJDDEU1", "dateTime": 1519317770719}, {"current_trial": 88, "trialdata": {"rt": -1, "trial_type": "single-stim", "stimulus": "<p id=\"stim\">+</p>", "internal_node_id": "0.0-61.0-0.0", "time_elapsed": 506060, "key_press": -1, "type": "FIXATION", "trial_index": 88}, "uniqueid": "MTK2729:382M9COHEIMJNGCMFCC36RAGJDDEU1", "dateTime": 1519317772235}, {"current_trial": 89, "trialdata": {"rt": -1, "trial_type": "single-stim", "word": "cottage", "stimulus": "<p id=\"stim\">COTTAGE</p>", "conditions": [12, 1600, "v", 12000], "internal_node_id": "0.0-62.0", "trial": 2, "time_elapsed": 507670, "serialpos": 0, "key_press": -1, "wordID": 383, "type": "PRES_VIS", "trial_index": 89}, "uniqueid": "MTK2729:382M9COHEIMJNGCMFCC36RAGJDDEU1", "dateTime": 1519317773845}, {"current_trial": 90, "trialdata": {"rt": -1, "trial_type": "single-stim", "word": "stone", "stimulus": "<p id=\"stim\">STONE</p>", "conditions": [12, 1600, "v", 12000], "internal_node_id": "0.0-63.0", "trial": 2, "time_elapsed": 510233, "serialpos": 1, "key_press": -1, "wordID": 1384, "type": "PRES_VIS", "trial_index": 90}, "uniqueid": "MTK2729:382M9COHEIMJNGCMFCC36RAGJDDEU1", "dateTime": 1519317776407}, {"current_trial": 91, "trialdata": {"rt": -1, "trial_type": "single-stim", "word": "butcher", "stimulus": "<p id=\"stim\">BUTCHER</p>", "conditions": [12, 1600, "v", 12000], "internal_node_id": "0.0-64.0", "trial": 2, "time_elapsed": 512874, "serialpos": 2, "key_press": -1, "wordID": 202, "type": "PRES_VIS", "trial_index": 91}, "uniqueid": "MTK2729:382M9COHEIMJNGCMFCC36RAGJDDEU1", "dateTime": 1519317779048}, {"current_trial": 92, "trialdata": {"rt": -1, "trial_type": "single-stim", "word": "creature", "stimulus": "<p id=\"stim\">CREATURE</p>", "conditions": [12, 1600, "v", 12000], "internal_node_id": "0.0-65.0", "trial": 2, "time_elapsed": 515592, "serialpos": 3, "key_press": -1, "wordID": 402, "type": "PRES_VIS", "trial_index": 92}, "uniqueid": "MTK2729:382M9COHEIMJNGCMFCC36RAGJDDEU1", "dateTime": 1519317781767}, {"current_trial": 93, "trialdata": {"rt": -1, "trial_type": "single-stim", "word": "hiker", "stimulus": "<p id=\"stim\">HIKER</p>", "conditions": [12, 1600, "v", 12000], "internal_node_id": "0.0-66.0", "trial": 2, "time_elapsed": 518273, "serialpos": 4, "key_press": -1, "wordID": 707, "type": "PRES_VIS", "trial_index": 93}, "uniqueid": "MTK2729:382M9COHEIMJNGCMFCC36RAGJDDEU1", "dateTime": 1519317784447}, {"current_trial": 94, "trialdata": {"rt": -1, "trial_type": "single-stim", "word": "climber", "stimulus": "<p id=\"stim\">CLIMBER</p>", "conditions": [12, 1600, "v", 12000], "internal_node_id": "0.0-67.0", "trial": 2, "time_elapsed": 520898, "serialpos": 5, "key_press": -1, "wordID": 322, "type": "PRES_VIS", "trial_index": 94}, "uniqueid": "MTK2729:382M9COHEIMJNGCMFCC36RAGJDDEU1", "dateTime": 1519317787072}, {"current_trial": 95, "trialdata": {"rt": -1, "trial_type": "single-stim", "word": "drink", "stimulus": "<p id=\"stim\">DRINK</p>", "conditions": [12, 1600, "v", 12000], "internal_node_id": "0.0-68.0", "trial": 2, "time_elapsed": 523601, "serialpos": 6, "key_press": -1, "wordID": 497, "type": "PRES_VIS", "trial_index": 95}, "uniqueid": "MTK2729:382M9COHEIMJNGCMFCC36RAGJDDEU1", "dateTime": 1519317789775}, {"current_trial": 96, "trialdata": {"rt": -1, "trial_type": "single-stim", "word": "buggy", "stimulus": "<p id=\"stim\">BUGGY</p>", "conditions": [12, 1600, "v", 12000], "internal_node_id": "0.0-69.0", "trial": 2, "time_elapsed": 526306, "serialpos": 7, "key_press": -1, "wordID": 187, "type": "PRES_VIS", "trial_index": 96}, "uniqueid": "MTK2729:382M9COHEIMJNGCMFCC36RAGJDDEU1", "dateTime": 1519317792480}, {"current_trial": 97, "trialdata": {"rt": -1, "trial_type": "single-stim", "word": "dragon", "stimulus": "<p id=\"stim\">DRAGON</p>", "conditions": [12, 1600, "v", 12000], "internal_node_id": "0.0-70.0", "trial": 2, "time_elapsed": 528978, "serialpos": 8, "key_press": -1, "wordID": 491, "type": "PRES_VIS", "trial_index": 97}, "uniqueid": "MTK2729:382M9COHEIMJNGCMFCC36RAGJDDEU1", "dateTime": 1519317795152}, {"current_trial": 98, "trialdata": {"rt": -1, "trial_type": "single-stim", "word": "skillet", "stimulus": "<p id=\"stim\">SKILLET</p>", "conditions": [12, 1600, "v", 12000], "internal_node_id": "0.0-71.0", "trial": 2, "time_elapsed": 531603, "serialpos": 9, "key_press": -1, "wordID": 1316, "type": "PRES_VIS", "trial_index": 98}, "uniqueid": "MTK2729:382M9COHEIMJNGCMFCC36RAGJDDEU1", "dateTime": 1519317797777}, {"current_trial": 99, "trialdata": {"rt": -1, "trial_type": "single-stim", "word": "spouse", "stimulus": "<p id=\"stim\">SPOUSE</p>", "conditions": [12, 1600, "v", 12000], "internal_node_id": "0.0-72.0", "trial": 2, "time_elapsed": 534415, "serialpos": 10, "key_press": -1, "wordID": 1357, "type": "PRES_VIS", "trial_index": 99}, "uniqueid": "MTK2729:382M9COHEIMJNGCMFCC36RAGJDDEU1", "dateTime": 1519317800589}, {"current_trial": 100, "trialdata": {"rt": -1, "trial_type": "single-stim", "word": "sunrise", "stimulus": "<p id=\"stim\">SUNRISE</p>", "conditions": [12, 1600, "v", 12000], "internal_node_id": "0.0-73.0", "trial": 2, "time_elapsed": 536837, "serialpos": 11, "key_press": -1, "wordID": 1406, "type": "PRES_VIS", "trial_index": 100}, "uniqueid": "MTK2729:382M9COHEIMJNGCMFCC36RAGJDDEU1", "dateTime": 1519317803011}, {"current_trial": 101, "trialdata": {"rt": -1, "trial_type": "single-stim", "stimulus": "", "internal_node_id": "0.0-74.0-0.0", "time_elapsed": 539261, "key_press": -1, "type": "PRE_RECALL_DELAY", "trial_index": 101}, "uniqueid": "MTK2729:382M9COHEIMJNGCMFCC36RAGJDDEU1", "dateTime": 1519317805435}, {"current_trial": 102, "trialdata": {"rt": -1000, "trial_type": "single-audio", "stimulus": "/static/audio/400Hz.wav", "internal_node_id": "0.0-75.0", "time_elapsed": 539777, "key_press": -1, "type": "PRE_RECALL_ALERT", "trial_index": 102}, "uniqueid": "MTK2729:382M9COHEIMJNGCMFCC36RAGJDDEU1", "dateTime": 1519317805951}, {"current_trial": 103, "trialdata": {"rt": [1954, 3778, 5490, 6330, 7002, 10042, 10867, 12442, 13049, 56090], "recwords": ["surnise", "spouse", "butcher", "creature", "dragon", "hiker", "climber", "cottage", "stone", "buggy"], "key_times": [1098, 1338, 1474, 1578, 1691, 1747, 1826, 1954, 2122, 2282, 2506, 2658, 3033, 3178, 3394, 3426, 3506, 3570, 3778, 4426, 4530, 4642, 4794, 4858, 5282, 5370, 5490, 5666, 5842, 5882, 5971, 6034, 6106, 6201, 6258, 6330, 6441, 6513, 6625, 6722, 6794, 6867, 7002, 9554, 9634, 9802, 9858, 9914, 10042, 10258, 10394, 10442, 10522, 10562, 10730, 10786, 10867, 11754, 11827, 11930, 12114, 12194, 12298, 12346, 12442, 12578, 12658, 12762, 12851, 12899, 13049, 55578, 55714, 55762, 55898, 55978, 56090], "trial_type": "free-recall", "conditions": [12, 1600, "v", 12000], "internal_node_id": "0.0-76.0-0.0", "key_presses": [83, 85, 82, 78, 73, 83, 69, 13, 83, 80, 73, 67, 8, 8, 79, 85, 83, 69, 13, 66, 85, 84, 67, 72, 69, 82, 13, 67, 82, 69, 65, 84, 85, 82, 69, 13, 68, 82, 65, 71, 79, 78, 13, 72, 73, 75, 69, 82, 13, 67, 76, 73, 77, 66, 69, 82, 13, 67, 79, 84, 84, 65, 71, 69, 13, 83, 84, 79, 78, 69, 13, 66, 85, 71, 71, 89, 13], "trial": 2, "time_elapsed": 599781, "type": "FREE_RECALL", "trial_index": 103}, "uniqueid": "MTK2729:382M9COHEIMJNGCMFCC36RAGJDDEU1", "dateTime": 1519317865957}, {"current_trial": 104, "trialdata": {"rt": 1793, "trial_type": "text", "internal_node_id": "0.0-77.0", "time_elapsed": 603590, "key_press": 32, "type": "INSTRUCTIONS", "trial_index": 104}, "uniqueid": "MTK2729:382M9COHEIMJNGCMFCC36RAGJDDEU1", "dateTime": 1519317869764}, {"current_trial": 105, "trialdata": {"rt": [3715, 5467, 7131, 9107, 11227], "trial_type": "math-distractor", "key_times": [2907, 3459, 3715, 5035, 5131, 5467, 6835, 6955, 7131, 8971, 9107, 11019, 11083, 11227], "responses": ["20", "13", "16", "8", "15"], "num2": [5, 1, 9, 1, 3, 9], "num3": [7, 6, 6, 4, 3, 8], "conditions": [24, 1600, "v", 12000], "internal_node_id": "0.0-78.0", "key_presses": [98, 96, 13, 97, 99, 13, 97, 102, 13, 104, 13, 97, 101, 13], "trial": 3, "time_elapsed": 617599, "type": "DISTRACTOR", "trial_index": 105, "num1": [8, 6, 1, 3, 9, 2]}, "uniqueid": "MTK2729:382M9COHEIMJNGCMFCC36RAGJDDEU1", "dateTime": 1519317883773}, {"current_trial": 106, "trialdata": {"rt": -1, "trial_type": "single-stim", "stimulus": "<p id=\"stim\">10</p>", "internal_node_id": "0.0-79.0-0.0", "time_elapsed": 620630, "key_press": -1, "trial_index": 106}, "uniqueid": "MTK2729:382M9COHEIMJNGCMFCC36RAGJDDEU1", "dateTime": 1519317886804}, {"current_trial": 107, "trialdata": {"rt": -1, "trial_type": "single-stim", "stimulus": "<p id=\"stim\">9</p>", "internal_node_id": "0.0-79.0-1.0", "time_elapsed": 621645, "key_press": -1, "trial_index": 107}, "uniqueid": "MTK2729:382M9COHEIMJNGCMFCC36RAGJDDEU1", "dateTime": 1519317887820}, {"current_trial": 108, "trialdata": {"rt": -1, "trial_type": "single-stim", "stimulus": "<p id=\"stim\">8</p>", "internal_node_id": "0.0-79.0-2.0", "time_elapsed": 622661, "key_press": -1, "trial_index": 108}, "uniqueid": "MTK2729:382M9COHEIMJNGCMFCC36RAGJDDEU1", "dateTime": 1519317888835}, {"current_trial": 109, "trialdata": {"rt": -1, "trial_type": "single-stim", "stimulus": "<p id=\"stim\">7</p>", "internal_node_id": "0.0-79.0-3.0", "time_elapsed": 623677, "key_press": -1, "trial_index": 109}, "uniqueid": "MTK2729:382M9COHEIMJNGCMFCC36RAGJDDEU1", "dateTime": 1519317889851}, {"current_trial": 110, "trialdata": {"rt": -1, "trial_type": "single-stim", "stimulus": "<p id=\"stim\">6</p>", "internal_node_id": "0.0-79.0-4.0", "time_elapsed": 624680, "key_press": -1, "trial_index": 110}, "uniqueid": "MTK2729:382M9COHEIMJNGCMFCC36RAGJDDEU1", "dateTime": 1519317890854}, {"current_trial": 111, "trialdata": {"rt": -1, "trial_type": "single-stim", "stimulus": "<p id=\"stim\">5</p>", "internal_node_id": "0.0-79.0-5.0", "time_elapsed": 625696, "key_press": -1, "trial_index": 111}, "uniqueid": "MTK2729:382M9COHEIMJNGCMFCC36RAGJDDEU1", "dateTime": 1519317891870}, {"current_trial": 112, "trialdata": {"rt": -1, "trial_type": "single-stim", "stimulus": "<p id=\"stim\">4</p>", "internal_node_id": "0.0-79.0-6.0", "time_elapsed": 626711, "key_press": -1, "trial_index": 112}, "uniqueid": "MTK2729:382M9COHEIMJNGCMFCC36RAGJDDEU1", "dateTime": 1519317892885}, {"current_trial": 113, "trialdata": {"rt": -1, "trial_type": "single-stim", "stimulus": "<p id=\"stim\">3</p>", "internal_node_id": "0.0-79.0-7.0", "time_elapsed": 627727, "key_press": -1, "trial_index": 113}, "uniqueid": "MTK2729:382M9COHEIMJNGCMFCC36RAGJDDEU1", "dateTime": 1519317893901}, {"current_trial": 114, "trialdata": {"rt": -1, "trial_type": "single-stim", "stimulus": "<p id=\"stim\">2</p>", "internal_node_id": "0.0-79.0-8.0", "time_elapsed": 628742, "key_press": -1, "trial_index": 114}, "uniqueid": "MTK2729:382M9COHEIMJNGCMFCC36RAGJDDEU1", "dateTime": 1519317894916}, {"current_trial": 115, "trialdata": {"rt": -1, "trial_type": "single-stim", "stimulus": "<p id=\"stim\">1</p>", "internal_node_id": "0.0-79.0-9.0", "time_elapsed": 629757, "key_press": -1, "trial_index": 115}, "uniqueid": "MTK2729:382M9COHEIMJNGCMFCC36RAGJDDEU1", "dateTime": 1519317895931}, {"current_trial": 116, "trialdata": {"rt": -1, "trial_type": "single-stim", "stimulus": "<p id=\"stim\">+</p>", "internal_node_id": "0.0-80.0-0.0", "time_elapsed": 631273, "key_press": -1, "type": "FIXATION", "trial_index": 116}, "uniqueid": "MTK2729:382M9COHEIMJNGCMFCC36RAGJDDEU1", "dateTime": 1519317897447}, {"current_trial": 117, "trialdata": {"rt": -1, "trial_type": "single-stim", "word": "braces", "stimulus": "<p id=\"stim\">BRACES</p>", "conditions": [24, 1600, "v", 12000], "internal_node_id": "0.0-81.0", "trial": 3, "time_elapsed": 632883, "serialpos": 0, "key_press": -1, "wordID": 163, "type": "PRES_VIS", "trial_index": 117}, "uniqueid": "MTK2729:382M9COHEIMJNGCMFCC36RAGJDDEU1", "dateTime": 1519317899057}, {"current_trial": 118, "trialdata": {"rt": -1, "trial_type": "single-stim", "word": "preacher", "stimulus": "<p id=\"stim\">PREACHER</p>", "conditions": [24, 1600, "v", 12000], "internal_node_id": "0.0-82.0", "trial": 3, "time_elapsed": 635351, "serialpos": 1, "key_press": -1, "wordID": 1118, "type": "PRES_VIS", "trial_index": 118}, "uniqueid": "MTK2729:382M9COHEIMJNGCMFCC36RAGJDDEU1", "dateTime": 1519317901525}, {"current_trial": 119, "trialdata": {"rt": -1, "trial_type": "single-stim", "word": "nurse", "stimulus": "<p id=\"stim\">NURSE</p>", "conditions": [24, 1600, "v", 12000], "internal_node_id": "0.0-83.0", "trial": 3, "time_elapsed": 637898, "serialpos": 2, "key_press": -1, "wordID": 962, "type": "PRES_VIS", "trial_index": 119}, "uniqueid": "MTK2729:382M9COHEIMJNGCMFCC36RAGJDDEU1", "dateTime": 1519317904072}, {"current_trial": 120, "trialdata": {"rt": -1, "trial_type": "single-stim", "word": "cabin", "stimulus": "<p id=\"stim\">CABIN</p>", "conditions": [24, 1600, "v", 12000], "internal_node_id": "0.0-84.0", "trial": 3, "time_elapsed": 640539, "serialpos": 3, "key_press": -1, "wordID": 210, "type": "PRES_VIS", "trial_index": 120}, "uniqueid": "MTK2729:382M9COHEIMJNGCMFCC36RAGJDDEU1", "dateTime": 1519317906713}, {"current_trial": 121, "trialdata": {"rt": -1, "trial_type": "single-stim", "word": "student", "stimulus": "<p id=\"stim\">STUDENT</p>", "conditions": [24, 1600, "v", 12000], "internal_node_id": "0.0-85.0", "trial": 3, "time_elapsed": 643039, "serialpos": 4, "key_press": -1, "wordID": 1394, "type": "PRES_VIS", "trial_index": 121}, "uniqueid": "MTK2729:382M9COHEIMJNGCMFCC36RAGJDDEU1", "dateTime": 1519317909213}, {"current_trial": 122, "trialdata": {"rt": -1, "trial_type": "single-stim", "word": "garden", "stimulus": "<p id=\"stim\">GARDEN</p>", "conditions": [24, 1600, "v", 12000], "internal_node_id": "0.0-86.0", "trial": 3, "time_elapsed": 645508, "serialpos": 5, "key_press": -1, "wordID": 622, "type": "PRES_VIS", "trial_index": 122}, "uniqueid": "MTK2729:382M9COHEIMJNGCMFCC36RAGJDDEU1", "dateTime": 1519317911682}, {"current_trial": 123, "trialdata": {"rt": -1, "trial_type": "single-stim", "word": "pebble", "stimulus": "<p id=\"stim\">PEBBLE</p>", "conditions": [24, 1600, "v", 12000], "internal_node_id": "0.0-87.0", "trial": 3, "time_elapsed": 648152, "serialpos": 6, "key_press": -1, "wordID": 1034, "type": "PRES_VIS", "trial_index": 123}, "uniqueid": "MTK2729:382M9COHEIMJNGCMFCC36RAGJDDEU1", "dateTime": 1519317914326}, {"current_trial": 124, "trialdata": {"rt": -1, "trial_type": "single-stim", "word": "report", "stimulus": "<p id=\"stim\">REPORT</p>", "conditions": [24, 1600, "v", 12000], "internal_node_id": "0.0-88.0", "trial": 3, "time_elapsed": 650886, "serialpos": 7, "key_press": -1, "wordID": 1183, "type": "PRES_VIS", "trial_index": 124}, "uniqueid": "MTK2729:382M9COHEIMJNGCMFCC36RAGJDDEU1", "dateTime": 1519317917060}, {"current_trial": 125, "trialdata": {"rt": -1, "trial_type": "single-stim", "word": "flower", "stimulus": "<p id=\"stim\">FLOWER</p>", "conditions": [24, 1600, "v", 12000], "internal_node_id": "0.0-89.0", "trial": 3, "time_elapsed": 653402, "serialpos": 8, "key_press": -1, "wordID": 583, "type": "PRES_VIS", "trial_index": 125}, "uniqueid": "MTK2729:382M9COHEIMJNGCMFCC36RAGJDDEU1", "dateTime": 1519317919576}, {"current_trial": 126, "trialdata": {"rt": -1, "trial_type": "single-stim", "word": "orchid", "stimulus": "<p id=\"stim\">ORCHID</p>", "conditions": [24, 1600, "v", 12000], "internal_node_id": "0.0-90.0", "trial": 3, "time_elapsed": 656074, "serialpos": 9, "key_press": -1, "wordID": 981, "type": "PRES_VIS", "trial_index": 126}, "uniqueid": "MTK2729:382M9COHEIMJNGCMFCC36RAGJDDEU1", "dateTime": 1519317922248}, {"current_trial": 127, "trialdata": {"rt": -1, "trial_type": "single-stim", "word": "survey", "stimulus": "<p id=\"stim\">SURVEY</p>", "conditions": [24, 1600, "v", 12000], "internal_node_id": "0.0-91.0", "trial": 3, "time_elapsed": 658699, "serialpos": 10, "key_press": -1, "wordID": 1413, "type": "PRES_VIS", "trial_index": 127}, "uniqueid": "MTK2729:382M9COHEIMJNGCMFCC36RAGJDDEU1", "dateTime": 1519317924873}, {"current_trial": 128, "trialdata": {"rt": -1, "trial_type": "single-stim", "word": "lace", "stimulus": "<p id=\"stim\">LACE</p>", "conditions": [24, 1600, "v", 12000], "internal_node_id": "0.0-92.0", "trial": 3, "time_elapsed": 661373, "serialpos": 11, "key_press": -1, "wordID": 791, "type": "PRES_VIS", "trial_index": 128}, "uniqueid": "MTK2729:382M9COHEIMJNGCMFCC36RAGJDDEU1", "dateTime": 1519317927547}, {"current_trial": 129, "trialdata": {"rt": -1, "trial_type": "single-stim", "word": "puddle", "stimulus": "<p id=\"stim\">PUDDLE</p>", "conditions": [24, 1600, "v", 12000], "internal_node_id": "0.0-93.0", "trial": 3, "time_elapsed": 663841, "serialpos": 12, "key_press": -1, "wordID": 1139, "type": "PRES_VIS", "trial_index": 129}, "uniqueid": "MTK2729:382M9COHEIMJNGCMFCC36RAGJDDEU1", "dateTime": 1519317930016}, {"current_trial": 130, "trialdata": {"rt": -1, "trial_type": "single-stim", "word": "star", "stimulus": "<p id=\"stim\">STAR</p>", "conditions": [24, 1600, "v", 12000], "internal_node_id": "0.0-94.0", "trial": 3, "time_elapsed": 666592, "serialpos": 13, "key_press": -1, "wordID": 1372, "type": "PRES_VIS", "trial_index": 130}, "uniqueid": "MTK2729:382M9COHEIMJNGCMFCC36RAGJDDEU1", "dateTime": 1519317932766}, {"current_trial": 131, "trialdata": {"rt": -1, "trial_type": "single-stim", "word": "critic", "stimulus": "<p id=\"stim\">CRITIC</p>", "conditions": [24, 1600, "v", 12000], "internal_node_id": "0.0-95.0", "trial": 3, "time_elapsed": 669185, "serialpos": 14, "key_press": -1, "wordID": 409, "type": "PRES_VIS", "trial_index": 131}, "uniqueid": "MTK2729:382M9COHEIMJNGCMFCC36RAGJDDEU1", "dateTime": 1519317935359}, {"current_trial": 132, "trialdata": {"rt": -1, "trial_type": "single-stim", "word": "baby", "stimulus": "<p id=\"stim\">BABY</p>", "conditions": [24, 1600, "v", 12000], "internal_node_id": "0.0-96.0", "trial": 3, "time_elapsed": 671951, "serialpos": 15, "key_press": -1, "wordID": 63, "type": "PRES_VIS", "trial_index": 132}, "uniqueid": "MTK2729:382M9COHEIMJNGCMFCC36RAGJDDEU1", "dateTime": 1519317938125}, {"current_trial": 133, "trialdata": {"rt": -1, "trial_type": "single-stim", "word": "apple", "stimulus": "<p id=\"stim\">APPLE</p>", "conditions": [24, 1600, "v", 12000], "internal_node_id": "0.0-97.0", "trial": 3, "time_elapsed": 674389, "serialpos": 16, "key_press": -1, "wordID": 32, "type": "PRES_VIS", "trial_index": 133}, "uniqueid": "MTK2729:382M9COHEIMJNGCMFCC36RAGJDDEU1", "dateTime": 1519317940563}, {"current_trial": 134, "trialdata": {"rt": -1, "trial_type": "single-stim", "word": "peach", "stimulus": "<p id=\"stim\">PEACH</p>", "conditions": [24, 1600, "v", 12000], "internal_node_id": "0.0-98.0", "trial": 3, "time_elapsed": 676842, "serialpos": 17, "key_press": -1, "wordID": 1030, "type": "PRES_VIS", "trial_index": 134}, "uniqueid": "MTK2729:382M9COHEIMJNGCMFCC36RAGJDDEU1", "dateTime": 1519317943016}, {"current_trial": 135, "trialdata": {"rt": -1, "trial_type": "single-stim", "word": "carriage", "stimulus": "<p id=\"stim\">CARRIAGE</p>", "conditions": [24, 1600, "v", 12000], "internal_node_id": "0.0-99.0", "trial": 3, "time_elapsed": 679659, "serialpos": 18, "key_press": -1, "wordID": 247, "type": "PRES_VIS", "trial_index": 135}, "uniqueid": "MTK2729:382M9COHEIMJNGCMFCC36RAGJDDEU1", "dateTime": 1519317945833}, {"current_trial": 136, "trialdata": {"rt": -1, "trial_type": "single-stim", "word": "juggler", "stimulus": "<p id=\"stim\">JUGGLER</p>", "conditions": [24, 1600, "v", 12000], "internal_node_id": "0.0-100.0", "trial": 3, "time_elapsed": 682159, "serialpos": 19, "key_press": -1, "wordID": 762, "type": "PRES_VIS", "trial_index": 136}, "uniqueid": "MTK2729:382M9COHEIMJNGCMFCC36RAGJDDEU1", "dateTime": 1519317948333}, {"current_trial": 137, "trialdata": {"rt": -1, "trial_type": "single-stim", "word": "guitar", "stimulus": "<p id=\"stim\">GUITAR</p>", "conditions": [24, 1600, "v", 12000], "internal_node_id": "0.0-101.0", "trial": 3, "time_elapsed": 684956, "serialpos": 20, "key_press": -1, "wordID": 669, "type": "PRES_VIS", "trial_index": 137}, "uniqueid": "MTK2729:382M9COHEIMJNGCMFCC36RAGJDDEU1", "dateTime": 1519317951130}, {"current_trial": 138, "trialdata": {"rt": -1, "trial_type": "single-stim", "word": "pliers", "stimulus": "<p id=\"stim\">PLIERS</p>", "conditions": [24, 1600, "v", 12000], "internal_node_id": "0.0-102.0", "trial": 3, "time_elapsed": 687769, "serialpos": 21, "key_press": -1, "wordID": 1088, "type": "PRES_VIS", "trial_index": 138}, "uniqueid": "MTK2729:382M9COHEIMJNGCMFCC36RAGJDDEU1", "dateTime": 1519317953943}, {"current_trial": 139, "trialdata": {"rt": -1, "trial_type": "single-stim", "word": "queen", "stimulus": "<p id=\"stim\">QUEEN</p>", "conditions": [24, 1600, "v", 12000], "internal_node_id": "0.0-103.0", "trial": 3, "time_elapsed": 690347, "serialpos": 22, "key_press": -1, "wordID": 1148, "type": "PRES_VIS", "trial_index": 139}, "uniqueid": "MTK2729:382M9COHEIMJNGCMFCC36RAGJDDEU1", "dateTime": 1519317956521}, {"current_trial": 140, "trialdata": {"rt": -1, "trial_type": "single-stim", "word": "crib", "stimulus": "<p id=\"stim\">CRIB</p>", "conditions": [24, 1600, "v", 12000], "internal_node_id": "0.0-104.0", "trial": 3, "time_elapsed": 693159, "serialpos": 23, "key_press": -1, "wordID": 406, "type": "PRES_VIS", "trial_index": 140}, "uniqueid": "MTK2729:382M9COHEIMJNGCMFCC36RAGJDDEU1", "dateTime": 1519317959333}, {"current_trial": 141, "trialdata": {"rt": -1, "trial_type": "single-stim", "stimulus": "", "internal_node_id": "0.0-105.0-0.0", "time_elapsed": 695456, "key_press": -1, "type": "PRE_RECALL_DELAY", "trial_index": 141}, "uniqueid": "MTK2729:382M9COHEIMJNGCMFCC36RAGJDDEU1", "dateTime": 1519317961630}, {"current_trial": 142, "trialdata": {"rt": -1000, "trial_type": "single-audio", "stimulus": "/static/audio/400Hz.wav", "internal_node_id": "0.0-106.0", "time_elapsed": 695972, "key_press": -1, "type": "PRE_RECALL_ALERT", "trial_index": 142}, "uniqueid": "MTK2729:382M9COHEIMJNGCMFCC36RAGJDDEU1", "dateTime": 1519317962146}, {"current_trial": 143, "trialdata": {"rt": [1960, 2544, 3640, 4896, 7272, 8264, 17328, 45592], "recwords": ["baby", "crib", "preacher", "student", "guitar", "pliers", "critic", "carriage"], "key_times": [1456, 1560, 1640, 1792, 1960, 2064, 2216, 2296, 2432, 2544, 2904, 2976, 3040, 3128, 3240, 3352, 3448, 3504, 3640, 3784, 3864, 3984, 4287, 4536, 4616, 4704, 4896, 6751, 6833, 6920, 6983, 7112, 7168, 7272, 7592, 7816, 7888, 8001, 8080, 8144, 8264, 16472, 16664, 16753, 16848, 16952, 17088, 17328, 43896, 44112, 44240, 44344, 44456, 44624, 44688, 44760, 45592], "trial_type": "free-recall", "conditions": [24, 1600, "v", 12000], "internal_node_id": "0.0-107.0-0.0", "key_presses": [66, 65, 66, 89, 13, 67, 82, 73, 66, 13, 80, 82, 69, 65, 67, 72, 69, 82, 13, 83, 84, 85, 68, 69, 78, 84, 13, 71, 85, 73, 84, 65, 82, 13, 80, 76, 73, 69, 82, 83, 13, 67, 82, 73, 84, 73, 67, 13, 67, 65, 82, 82, 73, 65, 71, 69, 13], "trial": 3, "time_elapsed": 755978, "type": "FREE_RECALL", "trial_index": 143}, "uniqueid": "MTK2729:382M9COHEIMJNGCMFCC36RAGJDDEU1", "dateTime": 1519318022154}, {"current_trial": 144, "trialdata": {"rt": 1306, "trial_type": "text", "internal_node_id": "0.0-108.0", "time_elapsed": 759301, "key_press": 32, "type": "INSTRUCTIONS", "trial_index": 144}, "uniqueid": "MTK2729:382M9COHEIMJNGCMFCC36RAGJDDEU1", "dateTime": 1519318025475}, {"current_trial": 145, "trialdata": {"rt": [1562, 3449, 6305, 8904, 11353, 14449, 16441, 21201, 22737, 23929], "trial_type": "math-distractor", "key_times": [1321, 1408, 1562, 3105, 3313, 3449, 6025, 6305, 8601, 8745, 8904, 10904, 11128, 11353, 14177, 14353, 14449, 16121, 16345, 16441, 17881, 18609, 19096, 19337, 20089, 20241, 20929, 21097, 21201, 22577, 22737, 23713, 23857, 23929], "responses": ["13", "10", "2", "11", "15", "14", "14", "10", "7", "11"], "num2": [6, 4, 9, 6, 6, 8, 7, 4, 5, 5, 4], "num3": [4, 5, 3, 2, 8, 5, 5, 1, 1, 5, 3], "conditions": [24, 1600, "v", 24000], "internal_node_id": "0.0-109.0", "key_presses": [97, 99, 13, 97, 96, 13, 98, 13, 97, 97, 13, 97, 101, 13, 97, 100, 13, 97, 100, 13, 100, 8, 98, 96, 8, 8, 97, 96, 13, 103, 13, 97, 97, 13], "trial": 4, "time_elapsed": 785309, "type": "DISTRACTOR", "trial_index": 145, "num1": [3, 1, 9, 3, 1, 1, 2, 5, 1, 1, 7]}, "uniqueid": "MTK2729:382M9COHEIMJNGCMFCC36RAGJDDEU1", "dateTime": 1519318051483}, {"current_trial": 146, "trialdata": {"rt": -1, "trial_type": "single-stim", "stimulus": "<p id=\"stim\">10</p>", "internal_node_id": "0.0-110.0-0.0", "time_elapsed": 788340, "key_press": -1, "trial_index": 146}, "uniqueid": "MTK2729:382M9COHEIMJNGCMFCC36RAGJDDEU1", "dateTime": 1519318054514}, {"current_trial": 147, "trialdata": {"rt": -1, "trial_type": "single-stim", "stimulus": "<p id=\"stim\">9</p>", "internal_node_id": "0.0-110.0-1.0", "time_elapsed": 789356, "key_press": -1, "trial_index": 147}, "uniqueid": "MTK2729:382M9COHEIMJNGCMFCC36RAGJDDEU1", "dateTime": 1519318055530}, {"current_trial": 148, "trialdata": {"rt": -1, "trial_type": "single-stim", "stimulus": "<p id=\"stim\">8</p>", "internal_node_id": "0.0-110.0-2.0", "time_elapsed": 790356, "key_press": -1, "trial_index": 148}, "uniqueid": "MTK2729:382M9COHEIMJNGCMFCC36RAGJDDEU1", "dateTime": 1519318056530}, {"current_trial": 149, "trialdata": {"rt": -1, "trial_type": "single-stim", "stimulus": "<p id=\"stim\">7</p>", "internal_node_id": "0.0-110.0-3.0", "time_elapsed": 791371, "key_press": -1, "trial_index": 149}, "uniqueid": "MTK2729:382M9COHEIMJNGCMFCC36RAGJDDEU1", "dateTime": 1519318057546}, {"current_trial": 150, "trialdata": {"rt": -1, "trial_type": "single-stim", "stimulus": "<p id=\"stim\">6</p>", "internal_node_id": "0.0-110.0-4.0", "time_elapsed": 792387, "key_press": -1, "trial_index": 150}, "uniqueid": "MTK2729:382M9COHEIMJNGCMFCC36RAGJDDEU1", "dateTime": 1519318058561}, {"current_trial": 151, "trialdata": {"rt": -1, "trial_type": "single-stim", "stimulus": "<p id=\"stim\">5</p>", "internal_node_id": "0.0-110.0-5.0", "time_elapsed": 793403, "key_press": -1, "trial_index": 151}, "uniqueid": "MTK2729:382M9COHEIMJNGCMFCC36RAGJDDEU1", "dateTime": 1519318059577}, {"current_trial": 152, "trialdata": {"rt": -1, "trial_type": "single-stim", "stimulus": "<p id=\"stim\">4</p>", "internal_node_id": "0.0-110.0-6.0", "time_elapsed": 794418, "key_press": -1, "trial_index": 152}, "uniqueid": "MTK2729:382M9COHEIMJNGCMFCC36RAGJDDEU1", "dateTime": 1519318060593}, {"current_trial": 153, "trialdata": {"rt": -1, "trial_type": "single-stim", "stimulus": "<p id=\"stim\">3</p>", "internal_node_id": "0.0-110.0-7.0", "time_elapsed": 795434, "key_press": -1, "trial_index": 153}, "uniqueid": "MTK2729:382M9COHEIMJNGCMFCC36RAGJDDEU1", "dateTime": 1519318061608}, {"current_trial": 154, "trialdata": {"rt": -1, "trial_type": "single-stim", "stimulus": "<p id=\"stim\">2</p>", "internal_node_id": "0.0-110.0-8.0", "time_elapsed": 796450, "key_press": -1, "trial_index": 154}, "uniqueid": "MTK2729:382M9COHEIMJNGCMFCC36RAGJDDEU1", "dateTime": 1519318062624}, {"current_trial": 155, "trialdata": {"rt": -1, "trial_type": "single-stim", "stimulus": "<p id=\"stim\">1</p>", "internal_node_id": "0.0-110.0-9.0", "time_elapsed": 797465, "key_press": -1, "trial_index": 155}, "uniqueid": "MTK2729:382M9COHEIMJNGCMFCC36RAGJDDEU1", "dateTime": 1519318063639}, {"current_trial": 156, "trialdata": {"rt": -1, "trial_type": "single-stim", "stimulus": "<p id=\"stim\">+</p>", "internal_node_id": "0.0-111.0-0.0", "time_elapsed": 798981, "key_press": -1, "type": "FIXATION", "trial_index": 156}, "uniqueid": "MTK2729:382M9COHEIMJNGCMFCC36RAGJDDEU1", "dateTime": 1519318065155}, {"current_trial": 157, "trialdata": {"rt": -1, "trial_type": "single-stim", "word": "nightgown", "stimulus": "<p id=\"stim\">NIGHTGOWN</p>", "conditions": [24, 1600, "v", 24000], "internal_node_id": "0.0-112.0", "trial": 4, "time_elapsed": 800587, "serialpos": 0, "key_press": -1, "wordID": 952, "type": "PRES_VIS", "trial_index": 157}, "uniqueid": "MTK2729:382M9COHEIMJNGCMFCC36RAGJDDEU1", "dateTime": 1519318066761}, {"current_trial": 158, "trialdata": {"rt": -1, "trial_type": "single-stim", "word": "blouse", "stimulus": "<p id=\"stim\">BLOUSE</p>", "conditions": [24, 1600, "v", 24000], "internal_node_id": "0.0-113.0", "trial": 4, "time_elapsed": 803087, "serialpos": 1, "key_press": -1, "wordID": 138, "type": "PRES_VIS", "trial_index": 158}, "uniqueid": "MTK2729:382M9COHEIMJNGCMFCC36RAGJDDEU1", "dateTime": 1519318069262}, {"current_trial": 159, "trialdata": {"rt": -1, "trial_type": "single-stim", "word": "pork", "stimulus": "<p id=\"stim\">PORK</p>", "conditions": [24, 1600, "v", 24000], "internal_node_id": "0.0-114.0", "trial": 4, "time_elapsed": 805572, "serialpos": 2, "key_press": -1, "wordID": 1107, "type": "PRES_VIS", "trial_index": 159}, "uniqueid": "MTK2729:382M9COHEIMJNGCMFCC36RAGJDDEU1", "dateTime": 1519318071746}, {"current_trial": 160, "trialdata": {"rt": -1, "trial_type": "single-stim", "word": "doughnut", "stimulus": "<p id=\"stim\">DOUGHNUT</p>", "conditions": [24, 1600, "v", 24000], "internal_node_id": "0.0-115.0", "trial": 4, "time_elapsed": 808150, "serialpos": 3, "key_press": -1, "wordID": 489, "type": "PRES_VIS", "trial_index": 160}, "uniqueid": "MTK2729:382M9COHEIMJNGCMFCC36RAGJDDEU1", "dateTime": 1519318074324}, {"current_trial": 161, "trialdata": {"rt": -1, "trial_type": "single-stim", "word": "outlaw", "stimulus": "<p id=\"stim\">OUTLAW</p>", "conditions": [24, 1600, "v", 24000], "internal_node_id": "0.0-116.0", "trial": 4, "time_elapsed": 810869, "serialpos": 4, "key_press": -1, "wordID": 988, "type": "PRES_VIS", "trial_index": 161}, "uniqueid": "MTK2729:382M9COHEIMJNGCMFCC36RAGJDDEU1", "dateTime": 1519318077043}, {"current_trial": 162, "trialdata": {"rt": -1, "trial_type": "single-stim", "word": "slope", "stimulus": "<p id=\"stim\">SLOPE</p>", "conditions": [24, 1600, "v", 24000], "internal_node_id": "0.0-117.0", "trial": 4, "time_elapsed": 813606, "serialpos": 5, "key_press": -1, "wordID": 1327, "type": "PRES_VIS", "trial_index": 162}, "uniqueid": "MTK2729:382M9COHEIMJNGCMFCC36RAGJDDEU1", "dateTime": 1519318079780}, {"current_trial": 163, "trialdata": {"rt": -1, "trial_type": "single-stim", "word": "shortcake", "stimulus": "<p id=\"stim\">SHORTCAKE</p>", "conditions": [24, 1600, "v", 24000], "internal_node_id": "0.0-118.0", "trial": 4, "time_elapsed": 816153, "serialpos": 6, "key_press": -1, "wordID": 1291, "type": "PRES_VIS", "trial_index": 163}, "uniqueid": "MTK2729:382M9COHEIMJNGCMFCC36RAGJDDEU1", "dateTime": 1519318082327}, {"current_trial": 164, "trialdata": {"rt": -1, "trial_type": "single-stim", "word": "passage", "stimulus": "<p id=\"stim\">PASSAGE</p>", "conditions": [24, 1600, "v", 24000], "internal_node_id": "0.0-119.0", "trial": 4, "time_elapsed": 818715, "serialpos": 7, "key_press": -1, "wordID": 1018, "type": "PRES_VIS", "trial_index": 164}, "uniqueid": "MTK2729:382M9COHEIMJNGCMFCC36RAGJDDEU1", "dateTime": 1519318084889}, {"current_trial": 165, "trialdata": {"rt": -1, "trial_type": "single-stim", "word": "pecan", "stimulus": "<p id=\"stim\">PECAN</p>", "conditions": [24, 1600, "v", 24000], "internal_node_id": "0.0-120.0", "trial": 4, "time_elapsed": 821356, "serialpos": 8, "key_press": -1, "wordID": 1035, "type": "PRES_VIS", "trial_index": 165}, "uniqueid": "MTK2729:382M9COHEIMJNGCMFCC36RAGJDDEU1", "dateTime": 1519318087530}, {"current_trial": 166, "trialdata": {"rt": -1, "trial_type": "single-stim", "word": "mummy", "stimulus": "<p id=\"stim\">MUMMY</p>", "conditions": [24, 1600, "v", 24000], "internal_node_id": "0.0-121.0", "trial": 4, "time_elapsed": 824075, "serialpos": 9, "key_press": -1, "wordID": 931, "type": "PRES_VIS", "trial_index": 166}, "uniqueid": "MTK2729:382M9COHEIMJNGCMFCC36RAGJDDEU1", "dateTime": 1519318090249}, {"current_trial": 167, "trialdata": {"rt": -1, "trial_type": "single-stim", "word": "omelet", "stimulus": "<p id=\"stim\">OMELET</p>", "conditions": [24, 1600, "v", 24000], "internal_node_id": "0.0-122.0", "trial": 4, "time_elapsed": 826746, "serialpos": 10, "key_press": -1, "wordID": 975, "type": "PRES_VIS", "trial_index": 167}, "uniqueid": "MTK2729:382M9COHEIMJNGCMFCC36RAGJDDEU1", "dateTime": 1519318092921}, {"current_trial": 168, "trialdata": {"rt": -1, "trial_type": "single-stim", "word": "dentist", "stimulus": "<p id=\"stim\">DENTIST</p>", "conditions": [24, 1600, "v", 24000], "internal_node_id": "0.0-123.0", "trial": 4, "time_elapsed": 829168, "serialpos": 11, "key_press": -1, "wordID": 446, "type": "PRES_VIS", "trial_index": 168}, "uniqueid": "MTK2729:382M9COHEIMJNGCMFCC36RAGJDDEU1", "dateTime": 1519318095343}, {"current_trial": 169, "trialdata": {"rt": -1, "trial_type": "single-stim", "word": "finger", "stimulus": "<p id=\"stim\">FINGER</p>", "conditions": [24, 1600, "v", 24000], "internal_node_id": "0.0-124.0", "trial": 4, "time_elapsed": 831868, "serialpos": 12, "key_press": -1, "wordID": 566, "type": "PRES_VIS", "trial_index": 169}, "uniqueid": "MTK2729:382M9COHEIMJNGCMFCC36RAGJDDEU1", "dateTime": 1519318098042}, {"current_trial": 170, "trialdata": {"rt": -1, "trial_type": "single-stim", "word": "cobra", "stimulus": "<p id=\"stim\">COBRA</p>", "conditions": [24, 1600, "v", 24000], "internal_node_id": "0.0-125.0", "trial": 4, "time_elapsed": 834368, "serialpos": 13, "key_press": -1, "wordID": 335, "type": "PRES_VIS", "trial_index": 170}, "uniqueid": "MTK2729:382M9COHEIMJNGCMFCC36RAGJDDEU1", "dateTime": 1519318100542}, {"current_trial": 171, "trialdata": {"rt": -1, "trial_type": "single-stim", "word": "termite", "stimulus": "<p id=\"stim\">TERMITE</p>", "conditions": [24, 1600, "v", 24000], "internal_node_id": "0.0-126.0", "trial": 4, "time_elapsed": 836931, "serialpos": 14, "key_press": -1, "wordID": 1450, "type": "PRES_VIS", "trial_index": 171}, "uniqueid": "MTK2729:382M9COHEIMJNGCMFCC36RAGJDDEU1", "dateTime": 1519318103105}, {"current_trial": 172, "trialdata": {"rt": -1, "trial_type": "single-stim", "word": "elbow", "stimulus": "<p id=\"stim\">ELBOW</p>", "conditions": [24, 1600, "v", 24000], "internal_node_id": "0.0-127.0", "trial": 4, "time_elapsed": 839399, "serialpos": 15, "key_press": -1, "wordID": 519, "type": "PRES_VIS", "trial_index": 172}, "uniqueid": "MTK2729:382M9COHEIMJNGCMFCC36RAGJDDEU1", "dateTime": 1519318105573}, {"current_trial": 173, "trialdata": {"rt": -1, "trial_type": "single-stim", "word": "motel", "stimulus": "<p id=\"stim\">MOTEL</p>", "conditions": [24, 1600, "v", 24000], "internal_node_id": "0.0-128.0", "trial": 4, "time_elapsed": 842040, "serialpos": 16, "key_press": -1, "wordID": 918, "type": "PRES_VIS", "trial_index": 173}, "uniqueid": "MTK2729:382M9COHEIMJNGCMFCC36RAGJDDEU1", "dateTime": 1519318108214}, {"current_trial": 174, "trialdata": {"rt": -1, "trial_type": "single-stim", "word": "clothes", "stimulus": "<p id=\"stim\">CLOTHES</p>", "conditions": [24, 1600, "v", 24000], "internal_node_id": "0.0-129.0", "trial": 4, "time_elapsed": 844714, "serialpos": 17, "key_press": -1, "wordID": 326, "type": "PRES_VIS", "trial_index": 174}, "uniqueid": "MTK2729:382M9COHEIMJNGCMFCC36RAGJDDEU1", "dateTime": 1519318110888}, {"current_trial": 175, "trialdata": {"rt": -1, "trial_type": "single-stim", "word": "denim", "stimulus": "<p id=\"stim\">DENIM</p>", "conditions": [24, 1600, "v", 24000], "internal_node_id": "0.0-130.0", "trial": 4, "time_elapsed": 847245, "serialpos": 18, "key_press": -1, "wordID": 445, "type": "PRES_VIS", "trial_index": 175}, "uniqueid": "MTK2729:382M9COHEIMJNGCMFCC36RAGJDDEU1", "dateTime": 1519318113419}, {"current_trial": 176, "trialdata": {"rt": -1, "trial_type": "single-stim", "word": "diver", "stimulus": "<p id=\"stim\">DIVER</p>", "conditions": [24, 1600, "v", 24000], "internal_node_id": "0.0-131.0", "trial": 4, "time_elapsed": 849933, "serialpos": 19, "key_press": -1, "wordID": 475, "type": "PRES_VIS", "trial_index": 176}, "uniqueid": "MTK2729:382M9COHEIMJNGCMFCC36RAGJDDEU1", "dateTime": 1519318116107}, {"current_trial": 177, "trialdata": {"rt": -1, "trial_type": "single-stim", "word": "statue", "stimulus": "<p id=\"stim\">STATUE</p>", "conditions": [24, 1600, "v", 24000], "internal_node_id": "0.0-132.0", "trial": 4, "time_elapsed": 852714, "serialpos": 20, "key_press": -1, "wordID": 1373, "type": "PRES_VIS", "trial_index": 177}, "uniqueid": "MTK2729:382M9COHEIMJNGCMFCC36RAGJDDEU1", "dateTime": 1519318118888}, {"current_trial": 178, "trialdata": {"rt": -1, "trial_type": "single-stim", "word": "flashlight", "stimulus": "<p id=\"stim\">FLASHLIGHT</p>", "conditions": [24, 1600, "v", 24000], "internal_node_id": "0.0-133.0", "trial": 4, "time_elapsed": 855448, "serialpos": 21, "key_press": -1, "wordID": 574, "type": "PRES_VIS", "trial_index": 178}, "uniqueid": "MTK2729:382M9COHEIMJNGCMFCC36RAGJDDEU1", "dateTime": 1519318121623}, {"current_trial": 179, "trialdata": {"rt": -1, "trial_type": "single-stim", "word": "wrist", "stimulus": "<p id=\"stim\">WRIST</p>", "conditions": [24, 1600, "v", 24000], "internal_node_id": "0.0-134.0", "trial": 4, "time_elapsed": 857917, "serialpos": 22, "key_press": -1, "wordID": 1625, "type": "PRES_VIS", "trial_index": 179}, "uniqueid": "MTK2729:382M9COHEIMJNGCMFCC36RAGJDDEU1", "dateTime": 1519318124091}, {"current_trial": 180, "trialdata": {"rt": -1, "trial_type": "single-stim", "word": "rod", "stimulus": "<p id=\"stim\">ROD</p>", "conditions": [24, 1600, "v", 24000], "internal_node_id": "0.0-135.0", "trial": 4, "time_elapsed": 860667, "serialpos": 23, "key_press": -1, "wordID": 1202, "type": "PRES_VIS", "trial_index": 180}, "uniqueid": "MTK2729:382M9COHEIMJNGCMFCC36RAGJDDEU1", "dateTime": 1519318126841}, {"current_trial": 181, "trialdata": {"rt": -1, "trial_type": "single-stim", "stimulus": "", "internal_node_id": "0.0-136.0-0.0", "time_elapsed": 862834, "key_press": -1, "type": "PRE_RECALL_DELAY", "trial_index": 181}, "uniqueid": "MTK2729:382M9COHEIMJNGCMFCC36RAGJDDEU1", "dateTime": 1519318129008}, {"current_trial": 182, "trialdata": {"rt": -1000, "trial_type": "single-audio", "stimulus": "/static/audio/400Hz.wav", "internal_node_id": "0.0-137.0", "time_elapsed": 863335, "key_press": -1, "type": "PRE_RECALL_ALERT", "trial_index": 182}, "uniqueid": "MTK2729:382M9COHEIMJNGCMFCC36RAGJDDEU1", "dateTime": 1519318129509}, {"current_trial": 183, "trialdata": {"rt": [1555, 2603, 3700, 9132, 9851, 10716, 20228, 22980, 31324], "recwords": ["rod", "fleshlight", "wrist", "nightgown", "blouse", "clothes", "mummy", "pecan", "elbow"], "key_times": [1044, 1196, 1396, 1555, 1683, 1820, 1908, 1956, 2084, 2228, 2292, 2332, 2444, 2524, 2603, 3196, 3276, 3380, 3476, 3548, 3700, 8332, 8420, 8484, 8566, 8652, 8820, 8884, 8956, 9020, 9132, 9268, 9380, 9548, 9612, 9653, 9708, 9851, 9972, 10076, 10228, 10324, 10396, 10508, 10531, 10716, 19276, 19508, 19708, 19836, 20036, 20228, 20531, 20771, 21116, 21436, 21548, 21859, 22004, 22060, 22324, 22412, 22468, 22980, 30716, 30836, 30988, 31092, 31188, 31324], "trial_type": "free-recall", "conditions": [24, 1600, "v", 24000], "internal_node_id": "0.0-138.0-0.0", "key_presses": [82, 79, 68, 13, 70, 76, 69, 83, 72, 76, 73, 71, 72, 84, 13, 87, 82, 73, 83, 84, 13, 78, 73, 71, 72, 84, 71, 79, 87, 78, 13, 66, 76, 79, 85, 83, 69, 13, 67, 76, 79, 84, 72, 69, 83, 13, 77, 85, 77, 77, 89, 13, 80, 65, 8, 67, 65, 8, 8, 69, 67, 65, 78, 13, 69, 76, 66, 79, 87, 13], "trial": 4, "time_elapsed": 923341, "type": "FREE_RECALL", "trial_index": 183}, "uniqueid": "MTK2729:382M9COHEIMJNGCMFCC36RAGJDDEU1", "dateTime": 1519318189518}, {"current_trial": 184, "trialdata": {"rt": 5576, "trial_type": "text", "internal_node_id": "0.0-139.0", "time_elapsed": 930933, "key_press": 32, "type": "INSTRUCTIONS", "trial_index": 184}, "uniqueid": "MTK2729:382M9COHEIMJNGCMFCC36RAGJDDEU1", "dateTime": 1519318197107}, {"current_trial": 185, "trialdata": {"rt": [2715, 5364, 6923, 8388, 9708, 12283, 14588, 16844, 18596, 22564], "trial_type": "math-distractor", "key_times": [2460, 2604, 2715, 4996, 5164, 5364, 6547, 6747, 6923, 8140, 8251, 8388, 9356, 9428, 9708, 11251, 12283, 14204, 14404, 14588, 16372, 16596, 16844, 18300, 18428, 18596, 22291, 22444, 22564], "responses": ["11", "18", "19", "12", "12", "6", "16", "20", "13", "15"], "num2": [3, 7, 4, 1, 1, 3, 5, 6, 5, 2, 1], "num3": [2, 3, 9, 2, 2, 1, 4, 7, 2, 7, 9], "conditions": [12, 800, "v", 24000], "internal_node_id": "0.0-140.0", "key_presses": [97, 97, 13, 97, 104, 13, 97, 105, 13, 97, 98, 13, 97, 98, 13, 102, 13, 97, 102, 13, 98, 96, 13, 97, 99, 13, 97, 101, 13], "trial": 5, "time_elapsed": 956946, "type": "DISTRACTOR", "trial_index": 185, "num1": [6, 8, 6, 9, 9, 2, 7, 7, 6, 6, 3]}, "uniqueid": "MTK2729:382M9COHEIMJNGCMFCC36RAGJDDEU1", "dateTime": 1519318223120}, {"current_trial": 186, "trialdata": {"rt": -1, "trial_type": "single-stim", "stimulus": "<p id=\"stim\">10</p>", "internal_node_id": "0.0-141.0-0.0", "time_elapsed": 959977, "key_press": -1, "trial_index": 186}, "uniqueid": "MTK2729:382M9COHEIMJNGCMFCC36RAGJDDEU1", "dateTime": 1519318226151}, {"current_trial": 187, "trialdata": {"rt": -1, "trial_type": "single-stim", "stimulus": "<p id=\"stim\">9</p>", "internal_node_id": "0.0-141.0-1.0", "time_elapsed": 960993, "key_press": -1, "trial_index": 187}, "uniqueid": "MTK2729:382M9COHEIMJNGCMFCC36RAGJDDEU1", "dateTime": 1519318227167}, {"current_trial": 188, "trialdata": {"rt": -1, "trial_type": "single-stim", "stimulus": "<p id=\"stim\">8</p>", "internal_node_id": "0.0-141.0-2.0", "time_elapsed": 962008, "key_press": -1, "trial_index": 188}, "uniqueid": "MTK2729:382M9COHEIMJNGCMFCC36RAGJDDEU1", "dateTime": 1519318228182}, {"current_trial": 189, "trialdata": {"rt": -1, "trial_type": "single-stim", "stimulus": "<p id=\"stim\">7</p>", "internal_node_id": "0.0-141.0-3.0", "time_elapsed": 963024, "key_press": -1, "trial_index": 189}, "uniqueid": "MTK2729:382M9COHEIMJNGCMFCC36RAGJDDEU1", "dateTime": 1519318229198}, {"current_trial": 190, "trialdata": {"rt": -1, "trial_type": "single-stim", "stimulus": "<p id=\"stim\">6</p>", "internal_node_id": "0.0-141.0-4.0", "time_elapsed": 964040, "key_press": -1, "trial_index": 190}, "uniqueid": "MTK2729:382M9COHEIMJNGCMFCC36RAGJDDEU1", "dateTime": 1519318230214}, {"current_trial": 191, "trialdata": {"rt": -1, "trial_type": "single-stim", "stimulus": "<p id=\"stim\">5</p>", "internal_node_id": "0.0-141.0-5.0", "time_elapsed": 965055, "key_press": -1, "trial_index": 191}, "uniqueid": "MTK2729:382M9COHEIMJNGCMFCC36RAGJDDEU1", "dateTime": 1519318231229}, {"current_trial": 192, "trialdata": {"rt": -1, "trial_type": "single-stim", "stimulus": "<p id=\"stim\">4</p>", "internal_node_id": "0.0-141.0-6.0", "time_elapsed": 966057, "key_press": -1, "trial_index": 192}, "uniqueid": "MTK2729:382M9COHEIMJNGCMFCC36RAGJDDEU1", "dateTime": 1519318232231}, {"current_trial": 193, "trialdata": {"rt": -1, "trial_type": "single-stim", "stimulus": "<p id=\"stim\">3</p>", "internal_node_id": "0.0-141.0-7.0", "time_elapsed": 967072, "key_press": -1, "trial_index": 193}, "uniqueid": "MTK2729:382M9COHEIMJNGCMFCC36RAGJDDEU1", "dateTime": 1519318233247}, {"current_trial": 194, "trialdata": {"rt": -1, "trial_type": "single-stim", "stimulus": "<p id=\"stim\">2</p>", "internal_node_id": "0.0-141.0-8.0", "time_elapsed": 968088, "key_press": -1, "trial_index": 194}, "uniqueid": "MTK2729:382M9COHEIMJNGCMFCC36RAGJDDEU1", "dateTime": 1519318234262}, {"current_trial": 195, "trialdata": {"rt": -1, "trial_type": "single-stim", "stimulus": "<p id=\"stim\">1</p>", "internal_node_id": "0.0-141.0-9.0", "time_elapsed": 969104, "key_press": -1, "trial_index": 195}, "uniqueid": "MTK2729:382M9COHEIMJNGCMFCC36RAGJDDEU1", "dateTime": 1519318235278}, {"current_trial": 196, "trialdata": {"rt": -1, "trial_type": "single-stim", "stimulus": "<p id=\"stim\">+</p>", "internal_node_id": "0.0-142.0-0.0", "time_elapsed": 970619, "key_press": -1, "type": "FIXATION", "trial_index": 196}, "uniqueid": "MTK2729:382M9COHEIMJNGCMFCC36RAGJDDEU1", "dateTime": 1519318236793}, {"current_trial": 197, "trialdata": {"rt": -1, "trial_type": "single-stim", "word": "swamp", "stimulus": "<p id=\"stim\">SWAMP</p>", "conditions": [12, 800, "v", 24000], "internal_node_id": "0.0-143.0", "trial": 5, "time_elapsed": 971432, "serialpos": 0, "key_press": -1, "wordID": 1415, "type": "PRES_VIS", "trial_index": 197}, "uniqueid": "MTK2729:382M9COHEIMJNGCMFCC36RAGJDDEU1", "dateTime": 1519318237606}, {"current_trial": 198, "trialdata": {"rt": -1, "trial_type": "single-stim", "word": "lettuce", "stimulus": "<p id=\"stim\">LETTUCE</p>", "conditions": [12, 800, "v", 24000], "internal_node_id": "0.0-144.0", "trial": 5, "time_elapsed": 973244, "serialpos": 1, "key_press": -1, "wordID": 813, "type": "PRES_VIS", "trial_index": 198}, "uniqueid": "MTK2729:382M9COHEIMJNGCMFCC36RAGJDDEU1", "dateTime": 1519318239418}, {"current_trial": 199, "trialdata": {"rt": -1, "trial_type": "single-stim", "word": "clamp", "stimulus": "<p id=\"stim\">CLAMP</p>", "conditions": [12, 800, "v", 24000], "internal_node_id": "0.0-145.0", "trial": 5, "time_elapsed": 975010, "serialpos": 2, "key_press": -1, "wordID": 315, "type": "PRES_VIS", "trial_index": 199}, "uniqueid": "MTK2729:382M9COHEIMJNGCMFCC36RAGJDDEU1", "dateTime": 1519318241184}, {"current_trial": 200, "trialdata": {"rt": -1, "trial_type": "single-stim", "word": "girl", "stimulus": "<p id=\"stim\">GIRL</p>", "conditions": [12, 800, "v", 24000], "internal_node_id": "0.0-146.0", "trial": 5, "time_elapsed": 976697, "serialpos": 3, "key_press": -1, "wordID": 636, "type": "PRES_VIS", "trial_index": 200}, "uniqueid": "MTK2729:382M9COHEIMJNGCMFCC36RAGJDDEU1", "dateTime": 1519318242872}, {"current_trial": 201, "trialdata": {"rt": -1, "trial_type": "single-stim", "word": "custard", "stimulus": "<p id=\"stim\">CUSTARD</p>", "conditions": [12, 800, "v", 24000], "internal_node_id": "0.0-147.0", "trial": 5, "time_elapsed": 978541, "serialpos": 4, "key_press": -1, "wordID": 428, "type": "PRES_VIS", "trial_index": 201}, "uniqueid": "MTK2729:382M9COHEIMJNGCMFCC36RAGJDDEU1", "dateTime": 1519318244716}, {"current_trial": 202, "trialdata": {"rt": -1, "trial_type": "single-stim", "word": "jelly", "stimulus": "<p id=\"stim\">JELLY</p>", "conditions": [12, 800, "v", 24000], "internal_node_id": "0.0-148.0", "trial": 5, "time_elapsed": 980510, "serialpos": 5, "key_press": -1, "wordID": 754, "type": "PRES_VIS", "trial_index": 202}, "uniqueid": "MTK2729:382M9COHEIMJNGCMFCC36RAGJDDEU1", "dateTime": 1519318246684}, {"current_trial": 203, "trialdata": {"rt": -1, "trial_type": "single-stim", "word": "perfume", "stimulus": "<p id=\"stim\">PERFUME</p>", "conditions": [12, 800, "v", 24000], "internal_node_id": "0.0-149.0", "trial": 5, "time_elapsed": 982447, "serialpos": 6, "key_press": -1, "wordID": 1048, "type": "PRES_VIS", "trial_index": 203}, "uniqueid": "MTK2729:382M9COHEIMJNGCMFCC36RAGJDDEU1", "dateTime": 1519318248622}, {"current_trial": 204, "trialdata": {"rt": -1, "trial_type": "single-stim", "word": "woman", "stimulus": "<p id=\"stim\">WOMAN</p>", "conditions": [12, 800, "v", 24000], "internal_node_id": "0.0-150.0", "trial": 5, "time_elapsed": 984338, "serialpos": 7, "key_press": -1, "wordID": 1619, "type": "PRES_VIS", "trial_index": 204}, "uniqueid": "MTK2729:382M9COHEIMJNGCMFCC36RAGJDDEU1", "dateTime": 1519318250513}, {"current_trial": 205, "trialdata": {"rt": -1, "trial_type": "single-stim", "word": "slug", "stimulus": "<p id=\"stim\">SLUG</p>", "conditions": [12, 800, "v", 24000], "internal_node_id": "0.0-151.0", "trial": 5, "time_elapsed": 986016, "serialpos": 8, "key_press": -1, "wordID": 1328, "type": "PRES_VIS", "trial_index": 205}, "uniqueid": "MTK2729:382M9COHEIMJNGCMFCC36RAGJDDEU1", "dateTime": 1519318252190}, {"current_trial": 206, "trialdata": {"rt": -1, "trial_type": "single-stim", "word": "fireplace", "stimulus": "<p id=\"stim\">FIREPLACE</p>", "conditions": [12, 800, "v", 24000], "internal_node_id": "0.0-152.0", "trial": 5, "time_elapsed": 987782, "serialpos": 9, "key_press": -1, "wordID": 569, "type": "PRES_VIS", "trial_index": 206}, "uniqueid": "MTK2729:382M9COHEIMJNGCMFCC36RAGJDDEU1", "dateTime": 1519318253956}, {"current_trial": 207, "trialdata": {"rt": -1, "trial_type": "single-stim", "word": "lunch", "stimulus": "<p id=\"stim\">LUNCH</p>", "conditions": [12, 800, "v", 24000], "internal_node_id": "0.0-153.0", "trial": 5, "time_elapsed": 989766, "serialpos": 10, "key_press": -1, "wordID": 848, "type": "PRES_VIS", "trial_index": 207}, "uniqueid": "MTK2729:382M9COHEIMJNGCMFCC36RAGJDDEU1", "dateTime": 1519318255940}, {"current_trial": 208, "trialdata": {"rt": -1, "trial_type": "single-stim", "word": "cashier", "stimulus": "<p id=\"stim\">CASHIER</p>", "conditions": [12, 800, "v", 24000], "internal_node_id": "0.0-154.0", "trial": 5, "time_elapsed": 991579, "serialpos": 11, "key_press": -1, "wordID": 253, "type": "PRES_VIS", "trial_index": 208}, "uniqueid": "MTK2729:382M9COHEIMJNGCMFCC36RAGJDDEU1", "dateTime": 1519318257753}, {"current_trial": 209, "trialdata": {"rt": -1, "trial_type": "single-stim", "stimulus": "", "internal_node_id": "0.0-155.0-0.0", "time_elapsed": 993782, "key_press": -1, "type": "PRE_RECALL_DELAY", "trial_index": 209}, "uniqueid": "MTK2729:382M9COHEIMJNGCMFCC36RAGJDDEU1", "dateTime": 1519318259956}, {"current_trial": 210, "trialdata": {"rt": -1000, "trial_type": "single-audio", "stimulus": "/static/audio/400Hz.wav", "internal_node_id": "0.0-156.0", "time_elapsed": 994298, "key_press": -1, "type": "PRE_RECALL_ALERT", "trial_index": 210}, "uniqueid": "MTK2729:382M9COHEIMJNGCMFCC36RAGJDDEU1", "dateTime": 1519318260472}, {"current_trial": 211, "trialdata": {"rt": [1777, 2312, 3177, 4016, 5761, 6784, 20585, 22240], "recwords": ["woman", "girl", "clamp", "swamp", "cashier", "lunch", "jelly", "perfume"], "key_times": [1073, 1345, 1416, 1489, 1625, 1777, 1873, 1953, 2072, 2153, 2312, 2425, 2537, 2713, 2777, 2905, 3177, 3328, 3505, 3561, 3617, 3753, 4016, 5025, 5114, 5225, 5273, 5369, 5441, 5505, 5761, 6153, 6281, 6488, 6553, 6657, 6784, 19449, 19584, 19681, 19817, 20409, 20585, 20873, 20977, 21009, 21241, 21329, 21584, 21664, 22240], "trial_type": "free-recall", "conditions": [12, 800, "v", 24000], "internal_node_id": "0.0-157.0-0.0", "key_presses": [87, 79, 77, 65, 78, 13, 71, 73, 82, 76, 13, 67, 76, 65, 77, 80, 13, 83, 87, 65, 77, 80, 13, 67, 65, 83, 72, 73, 69, 82, 13, 76, 85, 78, 67, 72, 13, 74, 69, 76, 76, 89, 13, 80, 69, 82, 70, 85, 77, 69, 13], "trial": 5, "time_elapsed": 1054310, "type": "FREE_RECALL", "trial_index": 211}, "uniqueid": "MTK2729:382M9COHEIMJNGCMFCC36RAGJDDEU1", "dateTime": 1519318320487}, {"current_trial": 212, "trialdata": {"rt": 919, "trial_type": "text", "internal_node_id": "0.0-158.0", "time_elapsed": 1057245, "key_press": 32, "type": "INSTRUCTIONS", "trial_index": 212}, "uniqueid": "MTK2729:382M9COHEIMJNGCMFCC36RAGJDDEU1", "dateTime": 1519318323419}, {"current_trial": 213, "trialdata": {"rt": [3558, 5230, 6982, 8886, 11999, 15670, 17046, 19135, 21022, 23839], "trial_type": "math-distractor", "key_times": [3342, 3438, 3558, 4991, 5095, 5230, 6639, 6855, 6982, 8615, 8711, 8886, 11663, 11846, 11999, 14839, 15263, 15670, 16574, 16863, 17046, 18718, 18958, 19135, 20487, 20799, 21022, 23478, 23647, 23839], "responses": ["21", "12", "17", "16", "26", "22", "14", "18", "12", "18"], "num2": [9, 2, 6, 7, 9, 5, 5, 2, 8, 7, 4], "num3": [4, 1, 7, 8, 8, 8, 4, 7, 2, 9, 4], "conditions": [12, 1600, "v", 24000], "internal_node_id": "0.0-159.0", "key_presses": [98, 97, 13, 97, 98, 13, 97, 103, 13, 97, 102, 13, 98, 102, 13, 98, 98, 13, 97, 100, 13, 97, 104, 13, 97, 98, 13, 97, 104, 13], "trial": 6, "time_elapsed": 1083268, "type": "DISTRACTOR", "trial_index": 213, "num1": [8, 9, 3, 1, 9, 9, 5, 9, 2, 2, 5]}, "uniqueid": "MTK2729:382M9COHEIMJNGCMFCC36RAGJDDEU1", "dateTime": 1519318349442}, {"current_trial": 214, "trialdata": {"rt": -1, "trial_type": "single-stim", "stimulus": "<p id=\"stim\">10</p>", "internal_node_id": "0.0-160.0-0.0", "time_elapsed": 1086299, "key_press": -1, "trial_index": 214}, "uniqueid": "MTK2729:382M9COHEIMJNGCMFCC36RAGJDDEU1", "dateTime": 1519318352473}, {"current_trial": 215, "trialdata": {"rt": -1, "trial_type": "single-stim", "stimulus": "<p id=\"stim\">9</p>", "internal_node_id": "0.0-160.0-1.0", "time_elapsed": 1087315, "key_press": -1, "trial_index": 215}, "uniqueid": "MTK2729:382M9COHEIMJNGCMFCC36RAGJDDEU1", "dateTime": 1519318353489}, {"current_trial": 216, "trialdata": {"rt": -1, "trial_type": "single-stim", "stimulus": "<p id=\"stim\">8</p>", "internal_node_id": "0.0-160.0-2.0", "time_elapsed": 1088330, "key_press": -1, "trial_index": 216}, "uniqueid": "MTK2729:382M9COHEIMJNGCMFCC36RAGJDDEU1", "dateTime": 1519318354504}, {"current_trial": 217, "trialdata": {"rt": -1, "trial_type": "single-stim", "stimulus": "<p id=\"stim\">7</p>", "internal_node_id": "0.0-160.0-3.0", "time_elapsed": 1089333, "key_press": -1, "trial_index": 217}, "uniqueid": "MTK2729:382M9COHEIMJNGCMFCC36RAGJDDEU1", "dateTime": 1519318355507}, {"current_trial": 218, "trialdata": {"rt": -1, "trial_type": "single-stim", "stimulus": "<p id=\"stim\">6</p>", "internal_node_id": "0.0-160.0-4.0", "time_elapsed": 1090348, "key_press": -1, "trial_index": 218}, "uniqueid": "MTK2729:382M9COHEIMJNGCMFCC36RAGJDDEU1", "dateTime": 1519318356522}, {"current_trial": 219, "trialdata": {"rt": -1, "trial_type": "single-stim", "stimulus": "<p id=\"stim\">5</p>", "internal_node_id": "0.0-160.0-5.0", "time_elapsed": 1091364, "key_press": -1, "trial_index": 219}, "uniqueid": "MTK2729:382M9COHEIMJNGCMFCC36RAGJDDEU1", "dateTime": 1519318357538}, {"current_trial": 220, "trialdata": {"rt": -1, "trial_type": "single-stim", "stimulus": "<p id=\"stim\">4</p>", "internal_node_id": "0.0-160.0-6.0", "time_elapsed": 1092380, "key_press": -1, "trial_index": 220}, "uniqueid": "MTK2729:382M9COHEIMJNGCMFCC36RAGJDDEU1", "dateTime": 1519318358554}, {"current_trial": 221, "trialdata": {"rt": -1, "trial_type": "single-stim", "stimulus": "<p id=\"stim\">3</p>", "internal_node_id": "0.0-160.0-7.0", "time_elapsed": 1093395, "key_press": -1, "trial_index": 221}, "uniqueid": "MTK2729:382M9COHEIMJNGCMFCC36RAGJDDEU1", "dateTime": 1519318359569}, {"current_trial": 222, "trialdata": {"rt": -1, "trial_type": "single-stim", "stimulus": "<p id=\"stim\">2</p>", "internal_node_id": "0.0-160.0-8.0", "time_elapsed": 1094411, "key_press": -1, "trial_index": 222}, "uniqueid": "MTK2729:382M9COHEIMJNGCMFCC36RAGJDDEU1", "dateTime": 1519318360585}, {"current_trial": 223, "trialdata": {"rt": -1, "trial_type": "single-stim", "stimulus": "<p id=\"stim\">1</p>", "internal_node_id": "0.0-160.0-9.0", "time_elapsed": 1095426, "key_press": -1, "trial_index": 223}, "uniqueid": "MTK2729:382M9COHEIMJNGCMFCC36RAGJDDEU1", "dateTime": 1519318361601}, {"current_trial": 224, "trialdata": {"rt": -1, "trial_type": "single-stim", "stimulus": "<p id=\"stim\">+</p>", "internal_node_id": "0.0-161.0-0.0", "time_elapsed": 1096942, "key_press": -1, "type": "FIXATION", "trial_index": 224}, "uniqueid": "MTK2729:382M9COHEIMJNGCMFCC36RAGJDDEU1", "dateTime": 1519318363116}, {"current_trial": 225, "trialdata": {"rt": -1, "trial_type": "single-stim", "word": "kitchen", "stimulus": "<p id=\"stim\">KITCHEN</p>", "conditions": [12, 1600, "v", 24000], "internal_node_id": "0.0-162.0", "trial": 6, "time_elapsed": 1098551, "serialpos": 0, "key_press": -1, "wordID": 777, "type": "PRES_VIS", "trial_index": 225}, "uniqueid": "MTK2729:382M9COHEIMJNGCMFCC36RAGJDDEU1", "dateTime": 1519318364726}, {"current_trial": 226, "trialdata": {"rt": -1, "trial_type": "single-stim", "word": "pistol", "stimulus": "<p id=\"stim\">PISTOL</p>", "conditions": [12, 1600, "v", 24000], "internal_node_id": "0.0-163.0", "trial": 6, "time_elapsed": 1101176, "serialpos": 1, "key_press": -1, "wordID": 1074, "type": "PRES_VIS", "trial_index": 226}, "uniqueid": "MTK2729:382M9COHEIMJNGCMFCC36RAGJDDEU1", "dateTime": 1519318367351}, {"current_trial": 227, "trialdata": {"rt": -1, "trial_type": "single-stim", "word": "knife", "stimulus": "<p id=\"stim\">KNIFE</p>", "conditions": [12, 1600, "v", 24000], "internal_node_id": "0.0-164.0", "trial": 6, "time_elapsed": 1103630, "serialpos": 2, "key_press": -1, "wordID": 784, "type": "PRES_VIS", "trial_index": 227}, "uniqueid": "MTK2729:382M9COHEIMJNGCMFCC36RAGJDDEU1", "dateTime": 1519318369804}, {"current_trial": 228, "trialdata": {"rt": -1, "trial_type": "single-stim", "word": "dime", "stimulus": "<p id=\"stim\">DIME</p>", "conditions": [12, 1600, "v", 24000], "internal_node_id": "0.0-165.0", "trial": 6, "time_elapsed": 1106239, "serialpos": 3, "key_press": -1, "wordID": 465, "type": "PRES_VIS", "trial_index": 228}, "uniqueid": "MTK2729:382M9COHEIMJNGCMFCC36RAGJDDEU1", "dateTime": 1519318372413}, {"current_trial": 229, "trialdata": {"rt": -1, "trial_type": "single-stim", "word": "sunset", "stimulus": "<p id=\"stim\">SUNSET</p>", "conditions": [12, 1600, "v", 24000], "internal_node_id": "0.0-166.0", "trial": 6, "time_elapsed": 1108927, "serialpos": 4, "key_press": -1, "wordID": 1407, "type": "PRES_VIS", "trial_index": 229}, "uniqueid": "MTK2729:382M9COHEIMJNGCMFCC36RAGJDDEU1", "dateTime": 1519318375101}, {"current_trial": 230, "trialdata": {"rt": -1, "trial_type": "single-stim", "word": "cod", "stimulus": "<p id=\"stim\">COD</p>", "conditions": [12, 1600, "v", 24000], "internal_node_id": "0.0-167.0", "trial": 6, "time_elapsed": 1111349, "serialpos": 5, "key_press": -1, "wordID": 339, "type": "PRES_VIS", "trial_index": 230}, "uniqueid": "MTK2729:382M9COHEIMJNGCMFCC36RAGJDDEU1", "dateTime": 1519318377523}, {"current_trial": 231, "trialdata": {"rt": -1, "trial_type": "single-stim", "word": "army", "stimulus": "<p id=\"stim\">ARMY</p>", "conditions": [12, 1600, "v", 24000], "internal_node_id": "0.0-168.0", "trial": 6, "time_elapsed": 1114133, "serialpos": 6, "key_press": -1, "wordID": 38, "type": "PRES_VIS", "trial_index": 231}, "uniqueid": "MTK2729:382M9COHEIMJNGCMFCC36RAGJDDEU1", "dateTime": 1519318380307}, {"current_trial": 232, "trialdata": {"rt": -1, "trial_type": "single-stim", "word": "shovel", "stimulus": "<p id=\"stim\">SHOVEL</p>", "conditions": [12, 1600, "v", 24000], "internal_node_id": "0.0-169.0", "trial": 6, "time_elapsed": 1116883, "serialpos": 7, "key_press": -1, "wordID": 1294, "type": "PRES_VIS", "trial_index": 232}, "uniqueid": "MTK2729:382M9COHEIMJNGCMFCC36RAGJDDEU1", "dateTime": 1519318383057}, {"current_trial": 233, "trialdata": {"rt": -1, "trial_type": "single-stim", "word": "lion", "stimulus": "<p id=\"stim\">LION</p>", "conditions": [12, 1600, "v", 24000], "internal_node_id": "0.0-170.0", "trial": 6, "time_elapsed": 1119570, "serialpos": 8, "key_press": -1, "wordID": 826, "type": "PRES_VIS", "trial_index": 233}, "uniqueid": "MTK2729:382M9COHEIMJNGCMFCC36RAGJDDEU1", "dateTime": 1519318385744}, {"current_trial": 234, "trialdata": {"rt": -1, "trial_type": "single-stim", "word": "quail", "stimulus": "<p id=\"stim\">QUAIL</p>", "conditions": [12, 1600, "v", 24000], "internal_node_id": "0.0-171.0", "trial": 6, "time_elapsed": 1122367, "serialpos": 9, "key_press": -1, "wordID": 1146, "type": "PRES_VIS", "trial_index": 234}, "uniqueid": "MTK2729:382M9COHEIMJNGCMFCC36RAGJDDEU1", "dateTime": 1519318388541}, {"current_trial": 235, "trialdata": {"rt": -1, "trial_type": "single-stim", "word": "item", "stimulus": "<p id=\"stim\">ITEM</p>", "conditions": [12, 1600, "v", 24000], "internal_node_id": "0.0-172.0", "trial": 6, "time_elapsed": 1124852, "serialpos": 10, "key_press": -1, "wordID": 745, "type": "PRES_VIS", "trial_index": 235}, "uniqueid": "MTK2729:382M9COHEIMJNGCMFCC36RAGJDDEU1", "dateTime": 1519318391026}, {"current_trial": 236, "trialdata": {"rt": -1, "trial_type": "single-stim", "word": "basement", "stimulus": "<p id=\"stim\">BASEMENT</p>", "conditions": [12, 1600, "v", 24000], "internal_node_id": "0.0-173.0", "trial": 6, "time_elapsed": 1127477, "serialpos": 11, "key_press": -1, "wordID": 93, "type": "PRES_VIS", "trial_index": 236}, "uniqueid": "MTK2729:382M9COHEIMJNGCMFCC36RAGJDDEU1", "dateTime": 1519318393651}, {"current_trial": 237, "trialdata": {"rt": -1, "trial_type": "single-stim", "stimulus": "", "internal_node_id": "0.0-174.0-0.0", "time_elapsed": 1129898, "key_press": -1, "type": "PRE_RECALL_DELAY", "trial_index": 237}, "uniqueid": "MTK2729:382M9COHEIMJNGCMFCC36RAGJDDEU1", "dateTime": 1519318396073}, {"current_trial": 238, "trialdata": {"rt": -1000, "trial_type": "single-audio", "stimulus": "/static/audio/400Hz.wav", "internal_node_id": "0.0-175.0", "time_elapsed": 1130414, "key_press": -1, "type": "PRE_RECALL_ALERT", "trial_index": 238}, "uniqueid": "MTK2729:382M9COHEIMJNGCMFCC36RAGJDDEU1", "dateTime": 1519318396588}, {"current_trial": 239, "trialdata": {"rt": [2283, 3108, 3973, 4580, 5084, 6260, 6948, 7996], "recwords": ["basement", "lion", "quail", "army", "item", "pistol", "knife", "kitchen"], "key_times": [741, 869, 981, 1053, 1605, 1708, 1820, 1956, 2283, 2564, 2740, 2836, 2917, 3108, 3293, 3404, 3580, 3700, 3781, 3973, 4108, 4180, 4260, 4452, 4580, 4764, 4845, 4901, 5004, 5084, 5628, 5733, 5805, 5844, 5924, 6100, 6260, 6524, 6621, 6741, 6796, 6852, 6948, 7110, 7277, 7356, 7493, 7604, 7700, 7804, 7996], "trial_type": "free-recall", "conditions": [12, 1600, "v", 24000], "internal_node_id": "0.0-176.0-0.0", "key_presses": [66, 65, 83, 69, 77, 69, 78, 84, 13, 76, 73, 79, 78, 13, 81, 85, 65, 73, 76, 13, 65, 82, 77, 89, 13, 73, 84, 69, 77, 13, 80, 73, 83, 84, 79, 76, 13, 75, 78, 73, 70, 69, 13, 75, 73, 84, 67, 72, 69, 78, 13], "trial": 6, "time_elapsed": 1190418, "type": "FREE_RECALL", "trial_index": 239}, "uniqueid": "MTK2729:382M9COHEIMJNGCMFCC36RAGJDDEU1", "dateTime": 1519318456595}, {"current_trial": 240, "trialdata": {"rt": 1987, "trial_type": "text", "internal_node_id": "0.0-177.0", "time_elapsed": 1194421, "key_press": 32, "type": "INSTRUCTIONS", "trial_index": 240}, "uniqueid": "MTK2729:382M9COHEIMJNGCMFCC36RAGJDDEU1", "dateTime": 1519318460595}, {"current_trial": 241, "trialdata": {"rt": [2361, 5465, 7849, 9114, 10954, 15377, 16714, 18681, 22009, 23409], "trial_type": "math-distractor", "key_times": [2113, 2210, 2361, 5001, 5329, 5465, 7617, 7698, 7849, 8897, 9041, 9114, 10754, 10785, 10954, 13561, 13841, 14761, 15169, 15377, 16369, 16569, 16714, 18321, 18562, 18681, 21570, 21849, 22009, 23121, 23241, 23409], "responses": ["12", "14", "21", "11", "12", "19", "16", "17", "23", "13"], "num2": [2, 5, 9, 5, 5, 9, 4, 1, 7, 2, 6], "num3": [3, 6, 6, 5, 3, 3, 6, 9, 8, 3, 6], "conditions": [24, 800, "v", 24000], "internal_node_id": "0.0-178.0", "key_presses": [97, 98, 13, 97, 100, 13, 98, 97, 13, 97, 97, 13, 97, 98, 13, 97, 102, 8, 105, 13, 97, 102, 13, 97, 103, 13, 98, 99, 13, 97, 99, 13], "trial": 7, "time_elapsed": 1220450, "type": "DISTRACTOR", "trial_index": 241, "num1": [7, 3, 6, 1, 4, 7, 6, 7, 9, 8, 1]}, "uniqueid": "MTK2729:382M9COHEIMJNGCMFCC36RAGJDDEU1", "dateTime": 1519318486624}, {"current_trial": 242, "trialdata": {"rt": -1, "trial_type": "single-stim", "stimulus": "<p id=\"stim\">10</p>", "internal_node_id": "0.0-179.0-0.0", "time_elapsed": 1223475, "key_press": -1, "trial_index": 242}, "uniqueid": "MTK2729:382M9COHEIMJNGCMFCC36RAGJDDEU1", "dateTime": 1519318489649}, {"current_trial": 243, "trialdata": {"rt": -1, "trial_type": "single-stim", "stimulus": "<p id=\"stim\">9</p>", "internal_node_id": "0.0-179.0-1.0", "time_elapsed": 1224491, "key_press": -1, "trial_index": 243}, "uniqueid": "MTK2729:382M9COHEIMJNGCMFCC36RAGJDDEU1", "dateTime": 1519318490665}, {"current_trial": 244, "trialdata": {"rt": -1, "trial_type": "single-stim", "stimulus": "<p id=\"stim\">8</p>", "internal_node_id": "0.0-179.0-2.0", "time_elapsed": 1225507, "key_press": -1, "trial_index": 244}, "uniqueid": "MTK2729:382M9COHEIMJNGCMFCC36RAGJDDEU1", "dateTime": 1519318491681}, {"current_trial": 245, "trialdata": {"rt": -1, "trial_type": "single-stim", "stimulus": "<p id=\"stim\">7</p>", "internal_node_id": "0.0-179.0-3.0", "time_elapsed": 1226522, "key_press": -1, "trial_index": 245}, "uniqueid": "MTK2729:382M9COHEIMJNGCMFCC36RAGJDDEU1", "dateTime": 1519318492697}, {"current_trial": 246, "trialdata": {"rt": -1, "trial_type": "single-stim", "stimulus": "<p id=\"stim\">6</p>", "internal_node_id": "0.0-179.0-4.0", "time_elapsed": 1227538, "key_press": -1, "trial_index": 246}, "uniqueid": "MTK2729:382M9COHEIMJNGCMFCC36RAGJDDEU1", "dateTime": 1519318493712}, {"current_trial": 24