{"assignmentId": "35GMH2SV3FOOABSPJQ0U7LIR1SFEOG", "workerId": "MTK2770", "questiondata": {"origin": "United States", "strat-rehearsal": "95", "marital": "Single", "education": "Associate degree", "ethnicity": "Not Hispanic", "color_depth": 24, "distracted": "No", "wrote-notes": "No", "strat-other": "", "screen_width": 1920, "avail_screen_width": 1920, "avail_screen_height": 1103, "strat-image": "30", "language": "english", "gender": "Male", "age": "26", "gender_other": "", "race": ["White"], "strat-categorize": "99", "pixel_depth": 24, "strat-spatial": "1", "strat-story": "43", "race_other": "", "screen_height": 1200}, "bonus": 0, "hitId": "3GS542CVJVUJKLXWGYJ7HHL58Q859Q", "counterbalance": 216, "useragent": "Mozilla/5.0 (Macintosh; Intel Mac OS X 10_9_5) AppleWebKit/537.36 (KHTML, like Gecko) Chrome/64.0.3282.167 Safari/537.36", "eventdata": [{"eventtype": "initialized", "interval": 0, "value": null, "timestamp": 1519329364082}, {"eventtype": "window_resize", "interval": 0, "value": [1920, 1052], "timestamp": 1519329364082}], "data": [{"current_trial": 0, "trialdata": {"rt": 1653, "trial_type": "text", "internal_node_id": "0.0-0.0", "time_elapsed": 1656, "key_press": 32, "type": "INSTRUCTIONS", "trial_index": 0}, "uniqueid": "MTK2770:35GMH2SV3FOOABSPJQ0U7LIR1SFEOG", "dateTime": 1519329366029}, {"current_trial": 1, "trialdata": {"rt": 11437, "trial_type": "text", "internal_node_id": "0.0-1.0", "time_elapsed": 13096, "key_press": 32, "type": "INSTRUCTIONS", "trial_index": 1}, "uniqueid": "MTK2770:35GMH2SV3FOOABSPJQ0U7LIR1SFEOG", "dateTime": 1519329377468}, {"current_trial": 2, "trialdata": {"rt": [6234], "trial_type": "audio-test", "responses": ["ocean"], "internal_node_id": "0.0-2.0", "time_elapsed": 19375, "type": "AUDIO_TEST", "trial_index": 2}, "uniqueid": "MTK2770:35GMH2SV3FOOABSPJQ0U7LIR1SFEOG", "dateTime": 1519329383747}, {"current_trial": 3, "trialdata": {"rt": [8272], "trial_type": "audio-test", "responses": ["crystal"], "internal_node_id": "0.0-3.0", "time_elapsed": 27654, "type": "AUDIO_TEST", "trial_index": 3}, "uniqueid": "MTK2770:35GMH2SV3FOOABSPJQ0U7LIR1SFEOG", "dateTime": 1519329392026}, {"current_trial": 4, "trialdata": {"rt": [6596], "trial_type": "audio-test", "responses": ["spice"], "internal_node_id": "0.0-4.0", "time_elapsed": 34254, "type": "AUDIO_TEST", "trial_index": 4}, "uniqueid": "MTK2770:35GMH2SV3FOOABSPJQ0U7LIR1SFEOG", "dateTime": 1519329398626}, {"current_trial": 5, "trialdata": {"rt": 14406, "trial_type": "survey-text", "responses": "{\"Q0\":\"1:00 am\",\"Q1\":\"8:00 am\",\"Q2\":\"5\"}", "internal_node_id": "0.0-5.0", "time_elapsed": 49412, "type": "SLEEP_SURVEY", "trial_index": 5}, "uniqueid": "MTK2770:35GMH2SV3FOOABSPJQ0U7LIR1SFEOG", "dateTime": 1519329413784}, {"current_trial": 6, "trialdata": {"rt": 24824, "trial_type": "text", "internal_node_id": "0.0-6.0", "time_elapsed": 75238, "key_press": 32, "type": "INSTRUCTIONS", "trial_index": 6}, "uniqueid": "MTK2770:35GMH2SV3FOOABSPJQ0U7LIR1SFEOG", "dateTime": 1519329439610}, {"current_trial": 7, "trialdata": {"rt": 3993, "trial_type": "text", "internal_node_id": "0.0-7.0", "time_elapsed": 79733, "key_press": 32, "type": "INSTRUCTIONS", "trial_index": 7}, "uniqueid": "MTK2770:35GMH2SV3FOOABSPJQ0U7LIR1SFEOG", "dateTime": 1519329444105}, {"current_trial": 8, "trialdata": {"rt": 9004, "trial_type": "text", "internal_node_id": "0.0-8.0", "time_elapsed": 89238, "key_press": 32, "type": "INSTRUCTIONS", "trial_index": 8}, "uniqueid": "MTK2770:35GMH2SV3FOOABSPJQ0U7LIR1SFEOG", "dateTime": 1519329453610}, {"current_trial": 9, "trialdata": {"rt": [3478, 9794, 11650, 13842, 16258], "trial_type": "math-distractor", "key_times": [2819, 2946, 3478, 9067, 9315, 9794, 11267, 11378, 11650, 13379, 13558, 13842, 15874, 16060, 16258], "responses": ["15", "17", "13", "21", "18"], "num2": [5, 2, 8, 6, 6, 4], "num3": [3, 6, 3, 7, 8, 7], "conditions": [18, 1200, "v", 18000], "internal_node_id": "0.0-9.0", "key_presses": [49, 53, 13, 49, 55, 13, 49, 51, 13, 50, 49, 13, 49, 56, 13], "trial": 0, "time_elapsed": 108244, "type": "DISTRACTOR", "trial_index": 9, "num1": [7, 9, 2, 8, 4, 7]}, "uniqueid": "MTK2770:35GMH2SV3FOOABSPJQ0U7LIR1SFEOG", "dateTime": 1519329472616}, {"current_trial": 10, "trialdata": {"rt": -1, "trial_type": "single-stim", "stimulus": "<p id=\"stim\">10</p>", "internal_node_id": "0.0-10.0-0.0", "time_elapsed": 111247, "key_press": -1, "trial_index": 10}, "uniqueid": "MTK2770:35GMH2SV3FOOABSPJQ0U7LIR1SFEOG", "dateTime": 1519329475620}, {"current_trial": 11, "trialdata": {"rt": -1, "trial_type": "single-stim", "stimulus": "<p id=\"stim\">9</p>", "internal_node_id": "0.0-10.0-1.0", "time_elapsed": 112249, "key_press": -1, "trial_index": 11}, "uniqueid": "MTK2770:35GMH2SV3FOOABSPJQ0U7LIR1SFEOG", "dateTime": 1519329476622}, {"current_trial": 12, "trialdata": {"rt": -1, "trial_type": "single-stim", "stimulus": "<p id=\"stim\">8</p>", "internal_node_id": "0.0-10.0-2.0", "time_elapsed": 113252, "key_press": -1, "trial_index": 12}, "uniqueid": "MTK2770:35GMH2SV3FOOABSPJQ0U7LIR1SFEOG", "dateTime": 1519329477624}, {"current_trial": 13, "trialdata": {"rt": -1, "trial_type": "single-stim", "stimulus": "<p id=\"stim\">7</p>", "internal_node_id": "0.0-10.0-3.0", "time_elapsed": 114253, "key_press": -1, "trial_index": 13}, "uniqueid": "MTK2770:35GMH2SV3FOOABSPJQ0U7LIR1SFEOG", "dateTime": 1519329478625}, {"current_trial": 14, "trialdata": {"rt": -1, "trial_type": "single-stim", "stimulus": "<p id=\"stim\">6</p>", "internal_node_id": "0.0-10.0-4.0", "time_elapsed": 115255, "key_press": -1, "trial_index": 14}, "uniqueid": "MTK2770:35GMH2SV3FOOABSPJQ0U7LIR1SFEOG", "dateTime": 1519329479628}, {"current_trial": 15, "trialdata": {"rt": -1, "trial_type": "single-stim", "stimulus": "<p id=\"stim\">5</p>", "internal_node_id": "0.0-10.0-5.0", "time_elapsed": 116257, "key_press": -1, "trial_index": 15}, "uniqueid": "MTK2770:35GMH2SV3FOOABSPJQ0U7LIR1SFEOG", "dateTime": 1519329480629}, {"current_trial": 16, "trialdata": {"rt": -1, "trial_type": "single-stim", "stimulus": "<p id=\"stim\">4</p>", "internal_node_id": "0.0-10.0-6.0", "time_elapsed": 117259, "key_press": -1, "trial_index": 16}, "uniqueid": "MTK2770:35GMH2SV3FOOABSPJQ0U7LIR1SFEOG", "dateTime": 1519329481631}, {"current_trial": 17, "trialdata": {"rt": -1, "trial_type": "single-stim", "stimulus": "<p id=\"stim\">3</p>", "internal_node_id": "0.0-10.0-7.0", "time_elapsed": 118260, "key_press": -1, "trial_index": 17}, "uniqueid": "MTK2770:35GMH2SV3FOOABSPJQ0U7LIR1SFEOG", "dateTime": 1519329482632}, {"current_trial": 18, "trialdata": {"rt": -1, "trial_type": "single-stim", "stimulus": "<p id=\"stim\">2</p>", "internal_node_id": "0.0-10.0-8.0", "time_elapsed": 119262, "key_press": -1, "trial_index": 18}, "uniqueid": "MTK2770:35GMH2SV3FOOABSPJQ0U7LIR1SFEOG", "dateTime": 1519329483634}, {"current_trial": 19, "trialdata": {"rt": -1, "trial_type": "single-stim", "stimulus": "<p id=\"stim\">1</p>", "internal_node_id": "0.0-10.0-9.0", "time_elapsed": 120263, "key_press": -1, "trial_index": 19}, "uniqueid": "MTK2770:35GMH2SV3FOOABSPJQ0U7LIR1SFEOG", "dateTime": 1519329484635}, {"current_trial": 20, "trialdata": {"rt": -1, "trial_type": "single-stim", "stimulus": "<p id=\"stim\">+</p>", "internal_node_id": "0.0-11.0-0.0", "time_elapsed": 121765, "key_press": -1, "type": "FIXATION", "trial_index": 20}, "uniqueid": "MTK2770:35GMH2SV3FOOABSPJQ0U7LIR1SFEOG", "dateTime": 1519329486137}, {"current_trial": 21, "trialdata": {"rt": -1, "trial_type": "single-stim", "word": "sketch", "stimulus": "<p id=\"stim\">SKETCH</p>", "conditions": [18, 1200, "v", 18000], "internal_node_id": "0.0-12.0", "trial": 0, "time_elapsed": 122967, "serialpos": 0, "key_press": -1, "wordID": 1314, "type": "PRES_VIS", "trial_index": 21}, "uniqueid": "MTK2770:35GMH2SV3FOOABSPJQ0U7LIR1SFEOG", "dateTime": 1519329487339}, {"current_trial": 22, "trialdata": {"rt": -1, "trial_type": "single-stim", "word": "zipper", "stimulus": "<p id=\"stim\">ZIPPER</p>", "conditions": [18, 1200, "v", 18000], "internal_node_id": "0.0-13.0", "trial": 0, "time_elapsed": 125002, "serialpos": 1, "key_press": -1, "wordID": 1635, "type": "PRES_VIS", "trial_index": 22}, "uniqueid": "MTK2770:35GMH2SV3FOOABSPJQ0U7LIR1SFEOG", "dateTime": 1519329489375}, {"current_trial": 23, "trialdata": {"rt": -1, "trial_type": "single-stim", "word": "money", "stimulus": "<p id=\"stim\">MONEY</p>", "conditions": [18, 1200, "v", 18000], "internal_node_id": "0.0-14.0", "trial": 0, "time_elapsed": 127183, "serialpos": 2, "key_press": -1, "wordID": 907, "type": "PRES_VIS", "trial_index": 23}, "uniqueid": "MTK2770:35GMH2SV3FOOABSPJQ0U7LIR1SFEOG", "dateTime": 1519329491555}, {"current_trial": 24, "trialdata": {"rt": -1, "trial_type": "single-stim", "word": "snail", "stimulus": "<p id=\"stim\">SNAIL</p>", "conditions": [18, 1200, "v", 18000], "internal_node_id": "0.0-15.0", "trial": 0, "time_elapsed": 129556, "serialpos": 3, "key_press": -1, "wordID": 1331, "type": "PRES_VIS", "trial_index": 24}, "uniqueid": "MTK2770:35GMH2SV3FOOABSPJQ0U7LIR1SFEOG", "dateTime": 1519329493928}, {"current_trial": 25, "trialdata": {"rt": -1, "trial_type": "single-stim", "word": "casket", "stimulus": "<p id=\"stim\">CASKET</p>", "conditions": [18, 1200, "v", 18000], "internal_node_id": "0.0-16.0", "trial": 0, "time_elapsed": 131795, "serialpos": 4, "key_press": -1, "wordID": 254, "type": "PRES_VIS", "trial_index": 25}, "uniqueid": "MTK2770:35GMH2SV3FOOABSPJQ0U7LIR1SFEOG", "dateTime": 1519329496168}, {"current_trial": 26, "trialdata": {"rt": -1, "trial_type": "single-stim", "word": "lava", "stimulus": "<p id=\"stim\">LAVA</p>", "conditions": [18, 1200, "v", 18000], "internal_node_id": "0.0-17.0", "trial": 0, "time_elapsed": 133945, "serialpos": 5, "key_press": -1, "wordID": 803, "type": "PRES_VIS", "trial_index": 26}, "uniqueid": "MTK2770:35GMH2SV3FOOABSPJQ0U7LIR1SFEOG", "dateTime": 1519329498317}, {"current_trial": 27, "trialdata": {"rt": -1, "trial_type": "single-stim", "word": "iceberg", "stimulus": "<p id=\"stim\">ICEBERG</p>", "conditions": [18, 1200, "v", 18000], "internal_node_id": "0.0-18.0", "trial": 0, "time_elapsed": 136226, "serialpos": 6, "key_press": -1, "wordID": 730, "type": "PRES_VIS", "trial_index": 27}, "uniqueid": "MTK2770:35GMH2SV3FOOABSPJQ0U7LIR1SFEOG", "dateTime": 1519329500598}, {"current_trial": 28, "trialdata": {"rt": -1, "trial_type": "single-stim", "word": "trombone", "stimulus": "<p id=\"stim\">TROMBONE</p>", "conditions": [18, 1200, "v", 18000], "internal_node_id": "0.0-19.0", "trial": 0, "time_elapsed": 138428, "serialpos": 7, "key_press": -1, "wordID": 1507, "type": "PRES_VIS", "trial_index": 28}, "uniqueid": "MTK2770:35GMH2SV3FOOABSPJQ0U7LIR1SFEOG", "dateTime": 1519329502800}, {"current_trial": 29, "trialdata": {"rt": -1, "trial_type": "single-stim", "word": "climber", "stimulus": "<p id=\"stim\">CLIMBER</p>", "conditions": [18, 1200, "v", 18000], "internal_node_id": "0.0-20.0", "trial": 0, "time_elapsed": 140625, "serialpos": 8, "key_press": -1, "wordID": 322, "type": "PRES_VIS", "trial_index": 29}, "uniqueid": "MTK2770:35GMH2SV3FOOABSPJQ0U7LIR1SFEOG", "dateTime": 1519329504997}, {"current_trial": 30, "trialdata": {"rt": -1, "trial_type": "single-stim", "word": "fleet", "stimulus": "<p id=\"stim\">FLEET</p>", "conditions": [18, 1200, "v", 18000], "internal_node_id": "0.0-21.0", "trial": 0, "time_elapsed": 142645, "serialpos": 9, "key_press": -1, "wordID": 577, "type": "PRES_VIS", "trial_index": 30}, "uniqueid": "MTK2770:35GMH2SV3FOOABSPJQ0U7LIR1SFEOG", "dateTime": 1519329507017}, {"current_trial": 31, "trialdata": {"rt": -1, "trial_type": "single-stim", "word": "rooster", "stimulus": "<p id=\"stim\">ROOSTER</p>", "conditions": [18, 1200, "v", 18000], "internal_node_id": "0.0-22.0", "trial": 0, "time_elapsed": 144878, "serialpos": 10, "key_press": -1, "wordID": 1208, "type": "PRES_VIS", "trial_index": 31}, "uniqueid": "MTK2770:35GMH2SV3FOOABSPJQ0U7LIR1SFEOG", "dateTime": 1519329509251}, {"current_trial": 32, "trialdata": {"rt": -1, "trial_type": "single-stim", "word": "diver", "stimulus": "<p id=\"stim\">DIVER</p>", "conditions": [18, 1200, "v", 18000], "internal_node_id": "0.0-23.0", "trial": 0, "time_elapsed": 147230, "serialpos": 11, "key_press": -1, "wordID": 475, "type": "PRES_VIS", "trial_index": 32}, "uniqueid": "MTK2770:35GMH2SV3FOOABSPJQ0U7LIR1SFEOG", "dateTime": 1519329511602}, {"current_trial": 33, "trialdata": {"rt": -1, "trial_type": "single-stim", "word": "mattress", "stimulus": "<p id=\"stim\">MATTRESS</p>", "conditions": [18, 1200, "v", 18000], "internal_node_id": "0.0-24.0", "trial": 0, "time_elapsed": 149275, "serialpos": 12, "key_press": -1, "wordID": 878, "type": "PRES_VIS", "trial_index": 33}, "uniqueid": "MTK2770:35GMH2SV3FOOABSPJQ0U7LIR1SFEOG", "dateTime": 1519329513647}, {"current_trial": 34, "trialdata": {"rt": -1, "trial_type": "single-stim", "word": "chapel", "stimulus": "<p id=\"stim\">CHAPEL</p>", "conditions": [18, 1200, "v", 18000], "internal_node_id": "0.0-25.0", "trial": 0, "time_elapsed": 151324, "serialpos": 13, "key_press": -1, "wordID": 279, "type": "PRES_VIS", "trial_index": 34}, "uniqueid": "MTK2770:35GMH2SV3FOOABSPJQ0U7LIR1SFEOG", "dateTime": 1519329515696}, {"current_trial": 35, "trialdata": {"rt": -1, "trial_type": "single-stim", "word": "scribble", "stimulus": "<p id=\"stim\">SCRIBBLE</p>", "conditions": [18, 1200, "v", 18000], "internal_node_id": "0.0-26.0", "trial": 0, "time_elapsed": 153527, "serialpos": 14, "key_press": -1, "wordID": 1255, "type": "PRES_VIS", "trial_index": 35}, "uniqueid": "MTK2770:35GMH2SV3FOOABSPJQ0U7LIR1SFEOG", "dateTime": 1519329517899}, {"current_trial": 36, "trialdata": {"rt": -1, "trial_type": "single-stim", "word": "wrench", "stimulus": "<p id=\"stim\">WRENCH</p>", "conditions": [18, 1200, "v", 18000], "internal_node_id": "0.0-27.0", "trial": 0, "time_elapsed": 155654, "serialpos": 15, "key_press": -1, "wordID": 1624, "type": "PRES_VIS", "trial_index": 36}, "uniqueid": "MTK2770:35GMH2SV3FOOABSPJQ0U7LIR1SFEOG", "dateTime": 1519329520026}, {"current_trial": 37, "trialdata": {"rt": -1, "trial_type": "single-stim", "word": "beaker", "stimulus": "<p id=\"stim\">BEAKER</p>", "conditions": [18, 1200, "v", 18000], "internal_node_id": "0.0-28.0", "trial": 0, "time_elapsed": 157820, "serialpos": 16, "key_press": -1, "wordID": 103, "type": "PRES_VIS", "trial_index": 37}, "uniqueid": "MTK2770:35GMH2SV3FOOABSPJQ0U7LIR1SFEOG", "dateTime": 1519329522192}, {"current_trial": 38, "trialdata": {"rt": -1, "trial_type": "single-stim", "word": "dolphin", "stimulus": "<p id=\"stim\">DOLPHIN</p>", "conditions": [18, 1200, "v", 18000], "internal_node_id": "0.0-29.0", "trial": 0, "time_elapsed": 159988, "serialpos": 17, "key_press": -1, "wordID": 482, "type": "PRES_VIS", "trial_index": 38}, "uniqueid": "MTK2770:35GMH2SV3FOOABSPJQ0U7LIR1SFEOG", "dateTime": 1519329524360}, {"current_trial": 39, "trialdata": {"rt": -1, "trial_type": "single-stim", "stimulus": "", "internal_node_id": "0.0-30.0-0.0", "time_elapsed": 162343, "key_press": -1, "type": "PRE_RECALL_DELAY", "trial_index": 39}, "uniqueid": "MTK2770:35GMH2SV3FOOABSPJQ0U7LIR1SFEOG", "dateTime": 1519329526715}, {"current_trial": 40, "trialdata": {"rt": -1000, "trial_type": "single-audio", "stimulus": "/static/audio/400Hz.wav", "internal_node_id": "0.0-31.0", "time_elapsed": 162870, "key_press": -1, "type": "PRE_RECALL_ALERT", "trial_index": 40}, "uniqueid": "MTK2770:35GMH2SV3FOOABSPJQ0U7LIR1SFEOG", "dateTime": 1519329527242}, {"current_trial": 41, "trialdata": {"rt": [2027, 4365, 8948, 13749, 14844, 25005, 25764], "recwords": ["sketch", "zipper", "trombone", "snail", "money", "", ""], "key_times": [1245, 1388, 1500, 1669, 1868, 1940, 2027, 2172, 2628, 2917, 3076, 3292, 3436, 3508, 3661, 4365, 6829, 7012, 7093, 7276, 7413, 7516, 7669, 8069, 8260, 8349, 8948, 11645, 11748, 11844, 11940, 12109, 13749, 14253, 14397, 14541, 14628, 14733, 14844, 25005, 25764], "trial_type": "free-recall", "conditions": [18, 1200, "v", 18000], "internal_node_id": "0.0-32.0-0.0", "key_presses": [83, 75, 69, 84, 67, 72, 32, 83, 8, 90, 73, 80, 80, 69, 82, 32, 84, 82, 79, 77, 66, 79, 77, 8, 78, 69, 32, 83, 78, 65, 73, 76, 13, 77, 79, 78, 69, 89, 13, 13, 32], "trial": 0, "time_elapsed": 222874, "type": "FREE_RECALL", "trial_index": 41}, "uniqueid": "MTK2770:35GMH2SV3FOOABSPJQ0U7LIR1SFEOG", "dateTime": 1519329587249}, {"current_trial": 42, "trialdata": {"rt": 4869, "trial_type": "text", "internal_node_id": "0.0-33.0", "time_elapsed": 229749, "key_press": 32, "type": "INSTRUCTIONS", "trial_index": 42}, "uniqueid": "MTK2770:35GMH2SV3FOOABSPJQ0U7LIR1SFEOG", "dateTime": 1519329594122}, {"current_trial": 43, "trialdata": {"rt": [5037, 7725, 9605, 12957, 15085, 17365], "trial_type": "math-distractor", "key_times": [4501, 4645, 5037, 7281, 7525, 7725, 9213, 9405, 9605, 12526, 12742, 12957, 14749, 14869, 15085, 16958, 17149, 17157, 17365], "responses": ["22", "19", "14", "26", "15", "189"], "num2": [6, 6, 5, 9, 6, 9, 6], "num3": [7, 4, 1, 9, 1, 5, 2], "conditions": [18, 1200, "v", 18000], "internal_node_id": "0.0-34.0", "key_presses": [50, 50, 13, 49, 57, 13, 49, 52, 13, 50, 54, 13, 49, 53, 13, 49, 56, 57, 13], "trial": 1, "time_elapsed": 249752, "type": "DISTRACTOR", "trial_index": 43, "num1": [9, 9, 8, 8, 8, 4, 9]}, "uniqueid": "MTK2770:35GMH2SV3FOOABSPJQ0U7LIR1SFEOG", "dateTime": 1519329614124}, {"current_trial": 44, "trialdata": {"rt": -1, "trial_type": "single-stim", "stimulus": "<p id=\"stim\">10</p>", "internal_node_id": "0.0-35.0-0.0", "time_elapsed": 252755, "key_press": -1, "trial_index": 44}, "uniqueid": "MTK2770:35GMH2SV3FOOABSPJQ0U7LIR1SFEOG", "dateTime": 1519329617127}, {"current_trial": 45, "trialdata": {"rt": -1, "trial_type": "single-stim", "stimulus": "<p id=\"stim\">9</p>", "internal_node_id": "0.0-35.0-1.0", "time_elapsed": 253757, "key_press": -1, "trial_index": 45}, "uniqueid": "MTK2770:35GMH2SV3FOOABSPJQ0U7LIR1SFEOG", "dateTime": 1519329618129}, {"current_trial": 46, "trialdata": {"rt": -1, "trial_type": "single-stim", "stimulus": "<p id=\"stim\">8</p>", "internal_node_id": "0.0-35.0-2.0", "time_elapsed": 254761, "key_press": -1, "trial_index": 46}, "uniqueid": "MTK2770:35GMH2SV3FOOABSPJQ0U7LIR1SFEOG", "dateTime": 1519329619133}, {"current_trial": 47, "trialdata": {"rt": -1, "trial_type": "single-stim", "stimulus": "<p id=\"stim\">7</p>", "internal_node_id": "0.0-35.0-3.0", "time_elapsed": 255763, "key_press": -1, "trial_index": 47}, "uniqueid": "MTK2770:35GMH2SV3FOOABSPJQ0U7LIR1SFEOG", "dateTime": 1519329620135}, {"current_trial": 48, "trialdata": {"rt": -1, "trial_type": "single-stim", "stimulus": "<p id=\"stim\">6</p>", "internal_node_id": "0.0-35.0-4.0", "time_elapsed": 256763, "key_press": -1, "trial_index": 48}, "uniqueid": "MTK2770:35GMH2SV3FOOABSPJQ0U7LIR1SFEOG", "dateTime": 1519329621135}, {"current_trial": 49, "trialdata": {"rt": -1, "trial_type": "single-stim", "stimulus": "<p id=\"stim\">5</p>", "internal_node_id": "0.0-35.0-5.0", "time_elapsed": 257766, "key_press": -1, "trial_index": 49}, "uniqueid": "MTK2770:35GMH2SV3FOOABSPJQ0U7LIR1SFEOG", "dateTime": 1519329622138}, {"current_trial": 50, "trialdata": {"rt": -1, "trial_type": "single-stim", "stimulus": "<p id=\"stim\">4</p>", "internal_node_id": "0.0-35.0-6.0", "time_elapsed": 258767, "key_press": -1, "trial_index": 50}, "uniqueid": "MTK2770:35GMH2SV3FOOABSPJQ0U7LIR1SFEOG", "dateTime": 1519329623139}, {"current_trial": 51, "trialdata": {"rt": -1, "trial_type": "single-stim", "stimulus": "<p id=\"stim\">3</p>", "internal_node_id": "0.0-35.0-7.0", "time_elapsed": 259769, "key_press": -1, "trial_index": 51}, "uniqueid": "MTK2770:35GMH2SV3FOOABSPJQ0U7LIR1SFEOG", "dateTime": 1519329624141}, {"current_trial": 52, "trialdata": {"rt": -1, "trial_type": "single-stim", "stimulus": "<p id=\"stim\">2</p>", "internal_node_id": "0.0-35.0-8.0", "time_elapsed": 260771, "key_press": -1, "trial_index": 52}, "uniqueid": "MTK2770:35GMH2SV3FOOABSPJQ0U7LIR1SFEOG", "dateTime": 1519329625143}, {"current_trial": 53, "trialdata": {"rt": -1, "trial_type": "single-stim", "stimulus": "<p id=\"stim\">1</p>", "internal_node_id": "0.0-35.0-9.0", "time_elapsed": 261772, "key_press": -1, "trial_index": 53}, "uniqueid": "MTK2770:35GMH2SV3FOOABSPJQ0U7LIR1SFEOG", "dateTime": 1519329626144}, {"current_trial": 54, "trialdata": {"rt": -1, "trial_type": "single-stim", "stimulus": "<p id=\"stim\">+</p>", "internal_node_id": "0.0-36.0-0.0", "time_elapsed": 263274, "key_press": -1, "type": "FIXATION", "trial_index": 54}, "uniqueid": "MTK2770:35GMH2SV3FOOABSPJQ0U7LIR1SFEOG", "dateTime": 1519329627646}, {"current_trial": 55, "trialdata": {"rt": -1, "trial_type": "single-stim", "word": "balloon", "stimulus": "<p id=\"stim\">BALLOON</p>", "conditions": [18, 1200, "v", 18000], "internal_node_id": "0.0-37.0", "trial": 1, "time_elapsed": 264475, "serialpos": 0, "key_press": -1, "wordID": 74, "type": "PRES_VIS", "trial_index": 55}, "uniqueid": "MTK2770:35GMH2SV3FOOABSPJQ0U7LIR1SFEOG", "dateTime": 1519329628847}, {"current_trial": 56, "trialdata": {"rt": -1, "trial_type": "single-stim", "word": "hatchet", "stimulus": "<p id=\"stim\">HATCHET</p>", "conditions": [18, 1200, "v", 18000], "internal_node_id": "0.0-38.0", "trial": 1, "time_elapsed": 266874, "serialpos": 1, "key_press": -1, "wordID": 690, "type": "PRES_VIS", "trial_index": 56}, "uniqueid": "MTK2770:35GMH2SV3FOOABSPJQ0U7LIR1SFEOG", "dateTime": 1519329631246}, {"current_trial": 57, "trialdata": {"rt": -1, "trial_type": "single-stim", "word": "blueprint", "stimulus": "<p id=\"stim\">BLUEPRINT</p>", "conditions": [18, 1200, "v", 18000], "internal_node_id": "0.0-39.0", "trial": 1, "time_elapsed": 268962, "serialpos": 2, "key_press": -1, "wordID": 141, "type": "PRES_VIS", "trial_index": 57}, "uniqueid": "MTK2770:35GMH2SV3FOOABSPJQ0U7LIR1SFEOG", "dateTime": 1519329633334}, {"current_trial": 58, "trialdata": {"rt": -1, "trial_type": "single-stim", "word": "lunch", "stimulus": "<p id=\"stim\">LUNCH</p>", "conditions": [18, 1200, "v", 18000], "internal_node_id": "0.0-40.0", "trial": 1, "time_elapsed": 271323, "serialpos": 3, "key_press": -1, "wordID": 848, "type": "PRES_VIS", "trial_index": 58}, "uniqueid": "MTK2770:35GMH2SV3FOOABSPJQ0U7LIR1SFEOG", "dateTime": 1519329635695}, {"current_trial": 59, "trialdata": {"rt": -1, "trial_type": "single-stim", "word": "pizza", "stimulus": "<p id=\"stim\">PIZZA</p>", "conditions": [18, 1200, "v", 18000], "internal_node_id": "0.0-41.0", "trial": 1, "time_elapsed": 273634, "serialpos": 4, "key_press": -1, "wordID": 1078, "type": "PRES_VIS", "trial_index": 59}, "uniqueid": "MTK2770:35GMH2SV3FOOABSPJQ0U7LIR1SFEOG", "dateTime": 1519329638006}, {"current_trial": 60, "trialdata": {"rt": -1, "trial_type": "single-stim", "word": "farmer", "stimulus": "<p id=\"stim\">FARMER</p>", "conditions": [18, 1200, "v", 18000], "internal_node_id": "0.0-42.0", "trial": 1, "time_elapsed": 275813, "serialpos": 5, "key_press": -1, "wordID": 552, "type": "PRES_VIS", "trial_index": 60}, "uniqueid": "MTK2770:35GMH2SV3FOOABSPJQ0U7LIR1SFEOG", "dateTime": 1519329640187}, {"current_trial": 61, "trialdata": {"rt": -1, "trial_type": "single-stim", "word": "lettuce", "stimulus": "<p id=\"stim\">LETTUCE</p>", "conditions": [18, 1200, "v", 18000], "internal_node_id": "0.0-43.0", "trial": 1, "time_elapsed": 277897, "serialpos": 6, "key_press": -1, "wordID": 813, "type": "PRES_VIS", "trial_index": 61}, "uniqueid": "MTK2770:35GMH2SV3FOOABSPJQ0U7LIR1SFEOG", "dateTime": 1519329642269}, {"current_trial": 62, "trialdata": {"rt": -1, "trial_type": "single-stim", "word": "flesh", "stimulus": "<p id=\"stim\">FLESH</p>", "conditions": [18, 1200, "v", 18000], "internal_node_id": "0.0-44.0", "trial": 1, "time_elapsed": 279940, "serialpos": 7, "key_press": -1, "wordID": 578, "type": "PRES_VIS", "trial_index": 62}, "uniqueid": "MTK2770:35GMH2SV3FOOABSPJQ0U7LIR1SFEOG", "dateTime": 1519329644312}, {"current_trial": 63, "trialdata": {"rt": -1, "trial_type": "single-stim", "word": "beast", "stimulus": "<p id=\"stim\">BEAST</p>", "conditions": [18, 1200, "v", 18000], "internal_node_id": "0.0-45.0", "trial": 1, "time_elapsed": 281962, "serialpos": 8, "key_press": -1, "wordID": 107, "type": "PRES_VIS", "trial_index": 63}, "uniqueid": "MTK2770:35GMH2SV3FOOABSPJQ0U7LIR1SFEOG", "dateTime": 1519329646334}, {"current_trial": 64, "trialdata": {"rt": -1, "trial_type": "single-stim", "word": "dorm", "stimulus": "<p id=\"stim\">DORM</p>", "conditions": [18, 1200, "v", 18000], "internal_node_id": "0.0-46.0", "trial": 1, "time_elapsed": 284216, "serialpos": 9, "key_press": -1, "wordID": 487, "type": "PRES_VIS", "trial_index": 64}, "uniqueid": "MTK2770:35GMH2SV3FOOABSPJQ0U7LIR1SFEOG", "dateTime": 1519329648589}, {"current_trial": 65, "trialdata": {"rt": -1, "trial_type": "single-stim", "word": "piston", "stimulus": "<p id=\"stim\">PISTON</p>", "conditions": [18, 1200, "v", 18000], "internal_node_id": "0.0-47.0", "trial": 1, "time_elapsed": 286442, "serialpos": 10, "key_press": -1, "wordID": 1075, "type": "PRES_VIS", "trial_index": 65}, "uniqueid": "MTK2770:35GMH2SV3FOOABSPJQ0U7LIR1SFEOG", "dateTime": 1519329650814}, {"current_trial": 66, "trialdata": {"rt": -1, "trial_type": "single-stim", "word": "viking", "stimulus": "<p id=\"stim\">VIKING</p>", "conditions": [18, 1200, "v", 18000], "internal_node_id": "0.0-48.0", "trial": 1, "time_elapsed": 288791, "serialpos": 11, "key_press": -1, "wordID": 1564, "type": "PRES_VIS", "trial_index": 66}, "uniqueid": "MTK2770:35GMH2SV3FOOABSPJQ0U7LIR1SFEOG", "dateTime": 1519329653163}, {"current_trial": 67, "trialdata": {"rt": -1, "trial_type": "single-stim", "word": "pastry", "stimulus": "<p id=\"stim\">PASTRY</p>", "conditions": [18, 1200, "v", 18000], "internal_node_id": "0.0-49.0", "trial": 1, "time_elapsed": 290807, "serialpos": 12, "key_press": -1, "wordID": 1021, "type": "PRES_VIS", "trial_index": 67}, "uniqueid": "MTK2770:35GMH2SV3FOOABSPJQ0U7LIR1SFEOG", "dateTime": 1519329655179}, {"current_trial": 68, "trialdata": {"rt": -1, "trial_type": "single-stim", "word": "neutron", "stimulus": "<p id=\"stim\">NEUTRON</p>", "conditions": [18, 1200, "v", 18000], "internal_node_id": "0.0-50.0", "trial": 1, "time_elapsed": 293058, "serialpos": 13, "key_press": -1, "wordID": 946, "type": "PRES_VIS", "trial_index": 68}, "uniqueid": "MTK2770:35GMH2SV3FOOABSPJQ0U7LIR1SFEOG", "dateTime": 1519329657432}, {"current_trial": 69, "trialdata": {"rt": -1, "trial_type": "single-stim", "word": "napkin", "stimulus": "<p id=\"stim\">NAPKIN</p>", "conditions": [18, 1200, "v", 18000], "internal_node_id": "0.0-51.0", "trial": 1, "time_elapsed": 295438, "serialpos": 14, "key_press": -1, "wordID": 936, "type": "PRES_VIS", "trial_index": 69}, "uniqueid": "MTK2770:35GMH2SV3FOOABSPJQ0U7LIR1SFEOG", "dateTime": 1519329659810}, {"current_trial": 70, "trialdata": {"rt": -1, "trial_type": "single-stim", "word": "cattle", "stimulus": "<p id=\"stim\">CATTLE</p>", "conditions": [18, 1200, "v", 18000], "internal_node_id": "0.0-52.0", "trial": 1, "time_elapsed": 297480, "serialpos": 15, "key_press": -1, "wordID": 260, "type": "PRES_VIS", "trial_index": 70}, "uniqueid": "MTK2770:35GMH2SV3FOOABSPJQ0U7LIR1SFEOG", "dateTime": 1519329661852}, {"current_trial": 71, "trialdata": {"rt": -1, "trial_type": "single-stim", "word": "umpire", "stimulus": "<p id=\"stim\">UMPIRE</p>", "conditions": [18, 1200, "v", 18000], "internal_node_id": "0.0-53.0", "trial": 1, "time_elapsed": 299509, "serialpos": 16, "key_press": -1, "wordID": 1534, "type": "PRES_VIS", "trial_index": 71}, "uniqueid": "MTK2770:35GMH2SV3FOOABSPJQ0U7LIR1SFEOG", "dateTime": 1519329663881}, {"current_trial": 72, "trialdata": {"rt": -1, "trial_type": "single-stim", "word": "pilot", "stimulus": "<p id=\"stim\">PILOT</p>", "conditions": [18, 1200, "v", 18000], "internal_node_id": "0.0-54.0", "trial": 1, "time_elapsed": 301622, "serialpos": 17, "key_press": -1, "wordID": 1069, "type": "PRES_VIS", "trial_index": 72}, "uniqueid": "MTK2770:35GMH2SV3FOOABSPJQ0U7LIR1SFEOG", "dateTime": 1519329665994}, {"current_trial": 73, "trialdata": {"rt": -1, "trial_type": "single-stim", "stimulus": "", "internal_node_id": "0.0-55.0-0.0", "time_elapsed": 303888, "key_press": -1, "type": "PRE_RECALL_DELAY", "trial_index": 73}, "uniqueid": "MTK2770:35GMH2SV3FOOABSPJQ0U7LIR1SFEOG", "dateTime": 1519329668260}, {"current_trial": 74, "trialdata": {"rt": -1000, "trial_type": "single-audio", "stimulus": "/static/audio/400Hz.wav", "internal_node_id": "0.0-56.0", "time_elapsed": 304389, "key_press": -1, "type": "PRE_RECALL_ALERT", "trial_index": 74}, "uniqueid": "MTK2770:35GMH2SV3FOOABSPJQ0U7LIR1SFEOG", "dateTime": 1519329668761}, {"current_trial": 75, "trialdata": {"rt": [2621, 4741, 6678, 8085], "recwords": ["umpire", "pilot", "blueprint", "flesh"], "key_times": [1072, 1253, 1453, 1597, 1669, 1813, 2028, 2397, 2621, 3101, 3333, 3685, 4189, 4357, 4501, 4661, 4741, 4973, 5045, 5237, 5317, 5485, 5757, 5925, 6214, 6301, 6481, 6549, 6678, 7342, 7621, 7685, 7854, 7966, 8085], "trial_type": "free-recall", "conditions": [18, 1200, "v", 18000], "internal_node_id": "0.0-57.0-0.0", "key_presses": [85, 77, 80, 73, 82, 69, 80, 8, 13, 80, 73, 8, 73, 76, 79, 84, 13, 66, 76, 85, 69, 66, 8, 80, 82, 73, 78, 84, 13, 70, 76, 69, 83, 72, 13], "trial": 1, "time_elapsed": 364392, "type": "FREE_RECALL", "trial_index": 75}, "uniqueid": "MTK2770:35GMH2SV3FOOABSPJQ0U7LIR1SFEOG", "dateTime": 1519329728765}, {"current_trial": 76, "trialdata": {"rt": 2018, "trial_type": "text", "internal_node_id": "0.0-58.0", "time_elapsed": 368412, "key_press": 32, "type": "INSTRUCTIONS", "trial_index": 76}, "uniqueid": "MTK2770:35GMH2SV3FOOABSPJQ0U7LIR1SFEOG", "dateTime": 1519329732785}, {"current_trial": 77, "trialdata": {"rt": [3350, 6390, 9781, 12009, 13662, 16022, 18447, 21046], "trial_type": "math-distractor", "key_times": [2990, 3038, 3350, 6014, 6157, 6390, 9414, 9582, 9781, 11678, 11766, 12009, 13462, 13662, 15678, 15798, 15821, 16022, 18062, 18150, 18447, 20607, 21046, 23870], "responses": ["16", "22", "21", "15", "9", "158", "12", "1"], "num2": [6, 5, 6, 2, 1, 6, 5, 5, 4], "num3": [8, 9, 7, 4, 4, 9, 4, 9, 4], "conditions": [12, 1600, "v", 24000], "internal_node_id": "0.0-59.0", "key_presses": [49, 54, 13, 50, 50, 13, 50, 49, 13, 49, 53, 13, 57, 13, 49, 53, 56, 13, 49, 50, 13, 49, 13, 49], "trial": 2, "time_elapsed": 393416, "type": "DISTRACTOR", "trial_index": 77, "num1": [2, 8, 8, 9, 4, 3, 3, 3, 5]}, "uniqueid": "MTK2770:35GMH2SV3FOOABSPJQ0U7LIR1SFEOG", "dateTime": 1519329757789}, {"current_trial": 78, "trialdata": {"rt": -1, "trial_type": "single-stim", "stimulus": "<p id=\"stim\">10</p>", "internal_node_id": "0.0-60.0-0.0", "time_elapsed": 396420, "key_press": -1, "trial_index": 78}, "uniqueid": "MTK2770:35GMH2SV3FOOABSPJQ0U7LIR1SFEOG", "dateTime": 1519329760792}, {"current_trial": 79, "trialdata": {"rt": -1, "trial_type": "single-stim", "stimulus": "<p id=\"stim\">9</p>", "internal_node_id": "0.0-60.0-1.0", "time_elapsed": 397421, "key_press": -1, "trial_index": 79}, "uniqueid": "MTK2770:35GMH2SV3FOOABSPJQ0U7LIR1SFEOG", "dateTime": 1519329761793}, {"current_trial": 80, "trialdata": {"rt": -1, "trial_type": "single-stim", "stimulus": "<p id=\"stim\">8</p>", "internal_node_id": "0.0-60.0-2.0", "time_elapsed": 398422, "key_press": -1, "trial_index": 80}, "uniqueid": "MTK2770:35GMH2SV3FOOABSPJQ0U7LIR1SFEOG", "dateTime": 1519329762794}, {"current_trial": 81, "trialdata": {"rt": -1, "trial_type": "single-stim", "stimulus": "<p id=\"stim\">7</p>", "internal_node_id": "0.0-60.0-3.0", "time_elapsed": 399424, "key_press": -1, "trial_index": 81}, "uniqueid": "MTK2770:35GMH2SV3FOOABSPJQ0U7LIR1SFEOG", "dateTime": 1519329763796}, {"current_trial": 82, "trialdata": {"rt": -1, "trial_type": "single-stim", "stimulus": "<p id=\"stim\">6</p>", "internal_node_id": "0.0-60.0-4.0", "time_elapsed": 400426, "key_press": -1, "trial_index": 82}, "uniqueid": "MTK2770:35GMH2SV3FOOABSPJQ0U7LIR1SFEOG", "dateTime": 1519329764798}, {"current_trial": 83, "trialdata": {"rt": -1, "trial_type": "single-stim", "stimulus": "<p id=\"stim\">5</p>", "internal_node_id": "0.0-60.0-5.0", "time_elapsed": 401428, "key_press": -1, "trial_index": 83}, "uniqueid": "MTK2770:35GMH2SV3FOOABSPJQ0U7LIR1SFEOG", "dateTime": 1519329765800}, {"current_trial": 84, "trialdata": {"rt": -1, "trial_type": "single-stim", "stimulus": "<p id=\"stim\">4</p>", "internal_node_id": "0.0-60.0-6.0", "time_elapsed": 402429, "key_press": -1, "trial_index": 84}, "uniqueid": "MTK2770:35GMH2SV3FOOABSPJQ0U7LIR1SFEOG", "dateTime": 1519329766801}, {"current_trial": 85, "trialdata": {"rt": -1, "trial_type": "single-stim", "stimulus": "<p id=\"stim\">3</p>", "internal_node_id": "0.0-60.0-7.0", "time_elapsed": 403430, "key_press": -1, "trial_index": 85}, "uniqueid": "MTK2770:35GMH2SV3FOOABSPJQ0U7LIR1SFEOG", "dateTime": 1519329767802}, {"current_trial": 86, "trialdata": {"rt": -1, "trial_type": "single-stim", "stimulus": "<p id=\"stim\">2</p>", "internal_node_id": "0.0-60.0-8.0", "time_elapsed": 404431, "key_press": -1, "trial_index": 86}, "uniqueid": "MTK2770:35GMH2SV3FOOABSPJQ0U7LIR1SFEOG", "dateTime": 1519329768803}, {"current_trial": 87, "trialdata": {"rt": -1, "trial_type": "single-stim", "stimulus": "<p id=\"stim\">1</p>", "internal_node_id": "0.0-60.0-9.0", "time_elapsed": 405435, "key_press": -1, "trial_index": 87}, "uniqueid": "MTK2770:35GMH2SV3FOOABSPJQ0U7LIR1SFEOG", "dateTime": 1519329769807}, {"current_trial": 88, "trialdata": {"rt": -1, "trial_type": "single-stim", "stimulus": "<p id=\"stim\">+</p>", "internal_node_id": "0.0-61.0-0.0", "time_elapsed": 406936, "key_press": -1, "type": "FIXATION", "trial_index": 88}, "uniqueid": "MTK2770:35GMH2SV3FOOABSPJQ0U7LIR1SFEOG", "dateTime": 1519329771308}, {"current_trial": 89, "trialdata": {"rt": -1, "trial_type": "single-stim", "word": "compass", "stimulus": "<p id=\"stim\">COMPASS</p>", "conditions": [12, 1600, "v", 24000], "internal_node_id": "0.0-62.0", "trial": 2, "time_elapsed": 408538, "serialpos": 0, "key_press": -1, "wordID": 357, "type": "PRES_VIS", "trial_index": 89}, "uniqueid": "MTK2770:35GMH2SV3FOOABSPJQ0U7LIR1SFEOG", "dateTime": 1519329772910}, {"current_trial": 90, "trialdata": {"rt": -1, "trial_type": "single-stim", "word": "pebble", "stimulus": "<p id=\"stim\">PEBBLE</p>", "conditions": [12, 1600, "v", 24000], "internal_node_id": "0.0-63.0", "trial": 2, "time_elapsed": 411174, "serialpos": 1, "key_press": -1, "wordID": 1034, "type": "PRES_VIS", "trial_index": 90}, "uniqueid": "MTK2770:35GMH2SV3FOOABSPJQ0U7LIR1SFEOG", "dateTime": 1519329775546}, {"current_trial": 91, "trialdata": {"rt": -1, "trial_type": "single-stim", "word": "shirt", "stimulus": "<p id=\"stim\">SHIRT</p>", "conditions": [12, 1600, "v", 24000], "internal_node_id": "0.0-64.0", "trial": 2, "time_elapsed": 413840, "serialpos": 2, "key_press": -1, "wordID": 1286, "type": "PRES_VIS", "trial_index": 91}, "uniqueid": "MTK2770:35GMH2SV3FOOABSPJQ0U7LIR1SFEOG", "dateTime": 1519329778212}, {"current_trial": 92, "trialdata": {"rt": -1, "trial_type": "single-stim", "word": "scissors", "stimulus": "<p id=\"stim\">SCISSORS</p>", "conditions": [12, 1600, "v", 24000], "internal_node_id": "0.0-65.0", "trial": 2, "time_elapsed": 416280, "serialpos": 3, "key_press": -1, "wordID": 1249, "type": "PRES_VIS", "trial_index": 92}, "uniqueid": "MTK2770:35GMH2SV3FOOABSPJQ0U7LIR1SFEOG", "dateTime": 1519329780652}, {"current_trial": 93, "trialdata": {"rt": -1, "trial_type": "single-stim", "word": "scalpel", "stimulus": "<p id=\"stim\">SCALPEL</p>", "conditions": [12, 1600, "v", 24000], "internal_node_id": "0.0-66.0", "trial": 2, "time_elapsed": 418739, "serialpos": 4, "key_press": -1, "wordID": 1242, "type": "PRES_VIS", "trial_index": 93}, "uniqueid": "MTK2770:35GMH2SV3FOOABSPJQ0U7LIR1SFEOG", "dateTime": 1519329783111}, {"current_trial": 94, "trialdata": {"rt": -1, "trial_type": "single-stim", "word": "leopard", "stimulus": "<p id=\"stim\">LEOPARD</p>", "conditions": [12, 1600, "v", 24000], "internal_node_id": "0.0-67.0", "trial": 2, "time_elapsed": 421349, "serialpos": 5, "key_press": -1, "wordID": 811, "type": "PRES_VIS", "trial_index": 94}, "uniqueid": "MTK2770:35GMH2SV3FOOABSPJQ0U7LIR1SFEOG", "dateTime": 1519329785721}, {"current_trial": 95, "trialdata": {"rt": -1, "trial_type": "single-stim", "word": "judge", "stimulus": "<p id=\"stim\">JUDGE</p>", "conditions": [12, 1600, "v", 24000], "internal_node_id": "0.0-68.0", "trial": 2, "time_elapsed": 424006, "serialpos": 6, "key_press": -1, "wordID": 760, "type": "PRES_VIS", "trial_index": 95}, "uniqueid": "MTK2770:35GMH2SV3FOOABSPJQ0U7LIR1SFEOG", "dateTime": 1519329788378}, {"current_trial": 96, "trialdata": {"rt": -1, "trial_type": "single-stim", "word": "waiter", "stimulus": "<p id=\"stim\">WAITER</p>", "conditions": [12, 1600, "v", 24000], "internal_node_id": "0.0-69.0", "trial": 2, "time_elapsed": 426682, "serialpos": 7, "key_press": -1, "wordID": 1579, "type": "PRES_VIS", "trial_index": 96}, "uniqueid": "MTK2770:35GMH2SV3FOOABSPJQ0U7LIR1SFEOG", "dateTime": 1519329791054}, {"current_trial": 97, "trialdata": {"rt": -1, "trial_type": "single-stim", "word": "keeper", "stimulus": "<p id=\"stim\">KEEPER</p>", "conditions": [12, 1600, "v", 24000], "internal_node_id": "0.0-70.0", "trial": 2, "time_elapsed": 429395, "serialpos": 8, "key_press": -1, "wordID": 768, "type": "PRES_VIS", "trial_index": 97}, "uniqueid": "MTK2770:35GMH2SV3FOOABSPJQ0U7LIR1SFEOG", "dateTime": 1519329793767}, {"current_trial": 98, "trialdata": {"rt": -1, "trial_type": "single-stim", "word": "blouse", "stimulus": "<p id=\"stim\">BLOUSE</p>", "conditions": [12, 1600, "v", 24000], "internal_node_id": "0.0-71.0", "trial": 2, "time_elapsed": 432050, "serialpos": 9, "key_press": -1, "wordID": 138, "type": "PRES_VIS", "trial_index": 98}, "uniqueid": "MTK2770:35GMH2SV3FOOABSPJQ0U7LIR1SFEOG", "dateTime": 1519329796422}, {"current_trial": 99, "trialdata": {"rt": -1, "trial_type": "single-stim", "word": "fiddle", "stimulus": "<p id=\"stim\">FIDDLE</p>", "conditions": [12, 1600, "v", 24000], "internal_node_id": "0.0-72.0", "trial": 2, "time_elapsed": 434761, "serialpos": 10, "key_press": -1, "wordID": 560, "type": "PRES_VIS", "trial_index": 99}, "uniqueid": "MTK2770:35GMH2SV3FOOABSPJQ0U7LIR1SFEOG", "dateTime": 1519329799133}, {"current_trial": 100, "trialdata": {"rt": -1, "trial_type": "single-stim", "word": "blackboard", "stimulus": "<p id=\"stim\">BLACKBOARD</p>", "conditions": [12, 1600, "v", 24000], "internal_node_id": "0.0-73.0", "trial": 2, "time_elapsed": 437177, "serialpos": 11, "key_press": -1, "wordID": 132, "type": "PRES_VIS", "trial_index": 100}, "uniqueid": "MTK2770:35GMH2SV3FOOABSPJQ0U7LIR1SFEOG", "dateTime": 1519329801549}, {"current_trial": 101, "trialdata": {"rt": -1, "trial_type": "single-stim", "stimulus": "", "internal_node_id": "0.0-74.0-0.0", "time_elapsed": 439381, "key_press": -1, "type": "PRE_RECALL_DELAY", "trial_index": 101}, "uniqueid": "MTK2770:35GMH2SV3FOOABSPJQ0U7LIR1SFEOG", "dateTime": 1519329803753}, {"current_trial": 102, "trialdata": {"rt": -1000, "trial_type": "single-audio", "stimulus": "/static/audio/400Hz.wav", "internal_node_id": "0.0-75.0", "time_elapsed": 439881, "key_press": -1, "type": "PRE_RECALL_ALERT", "trial_index": 102}, "uniqueid": "MTK2770:35GMH2SV3FOOABSPJQ0U7LIR1SFEOG", "dateTime": 1519329804253}, {"current_trial": 103, "trialdata": {"rt": [2961, 5531, 7753], "recwords": ["fiddle", "blackboard", "compass"], "key_times": [881, 993, 1336, 1432, 1569, 1785, 1945, 2097, 2241, 2409, 2497, 2658, 2769, 2864, 2961, 3217, 3337, 3497, 3681, 3769, 3905, 4000, 4136, 4146, 4393, 4617, 4769, 4929, 5048, 5289, 5466, 5531, 5905, 6682, 6841, 6913, 7081, 7249, 7320, 7513, 7665, 7753], "trial_type": "free-recall", "conditions": [12, 1600, "v", 24000], "internal_node_id": "0.0-76.0-0.0", "key_presses": [70, 76, 73, 68, 68, 8, 8, 8, 8, 73, 68, 68, 76, 69, 32, 66, 76, 65, 67, 75, 66, 79, 82, 84, 65, 8, 8, 8, 65, 82, 68, 13, 83, 8, 67, 79, 77, 80, 65, 83, 83, 13], "trial": 2, "time_elapsed": 499884, "type": "FREE_RECALL", "trial_index": 103}, "uniqueid": "MTK2770:35GMH2SV3FOOABSPJQ0U7LIR1SFEOG", "dateTime": 1519329864258}, {"current_trial": 104, "trialdata": {"rt": 2213, "trial_type": "text", "internal_node_id": "0.0-77.0", "time_elapsed": 504100, "key_press": 32, "type": "INSTRUCTIONS", "trial_index": 104}, "uniqueid": "MTK2770:35GMH2SV3FOOABSPJQ0U7LIR1SFEOG", "dateTime": 1519329868472}, {"current_trial": 105, "trialdata": {"rt": [2420, 4204, 7252, 9916, 11381, 13908, 16252, 18061, 22148], "trial_type": "math-distractor", "key_times": [2077, 2198, 2420, 3860, 3997, 4204, 6868, 7062, 7252, 9582, 9725, 9916, 11133, 11381, 13517, 13685, 13908, 15805, 16006, 16252, 17564, 17716, 18061, 21149, 21933, 22148, 23676, 23765], "responses": ["11", "15", "19", "19", "6", "19", "17", "10", "25"], "num2": [1, 6, 8, 3, 4, 9, 7, 4, 8, 3], "num3": [8, 3, 2, 7, 1, 2, 9, 2, 8, 4], "conditions": [12, 800, "v", 24000], "internal_node_id": "0.0-78.0", "key_presses": [49, 49, 13, 49, 53, 13, 49, 57, 13, 49, 57, 13, 54, 13, 49, 57, 13, 49, 55, 13, 49, 48, 13, 50, 53, 13, 49, 51], "trial": 3, "time_elapsed": 530104, "type": "DISTRACTOR", "trial_index": 105, "num1": [2, 6, 9, 9, 1, 8, 1, 4, 9, 6]}, "uniqueid": "MTK2770:35GMH2SV3FOOABSPJQ0U7LIR1SFEOG", "dateTime": 1519329894476}, {"current_trial": 106, "trialdata": {"rt": -1, "trial_type": "single-stim", "stimulus": "<p id=\"stim\">10</p>", "internal_node_id": "0.0-79.0-0.0", "time_elapsed": 533106, "key_press": -1, "trial_index": 106}, "uniqueid": "MTK2770:35GMH2SV3FOOABSPJQ0U7LIR1SFEOG", "dateTime": 1519329897478}, {"current_trial": 107, "trialdata": {"rt": -1, "trial_type": "single-stim", "stimulus": "<p id=\"stim\">9</p>", "internal_node_id": "0.0-79.0-1.0", "time_elapsed": 534108, "key_press": -1, "trial_index": 107}, "uniqueid": "MTK2770:35GMH2SV3FOOABSPJQ0U7LIR1SFEOG", "dateTime": 1519329898480}, {"current_trial": 108, "trialdata": {"rt": -1, "trial_type": "single-stim", "stimulus": "<p id=\"stim\">8</p>", "internal_node_id": "0.0-79.0-2.0", "time_elapsed": 535109, "key_press": -1, "trial_index": 108}, "uniqueid": "MTK2770:35GMH2SV3FOOABSPJQ0U7LIR1SFEOG", "dateTime": 1519329899481}, {"current_trial": 109, "trialdata": {"rt": -1, "trial_type": "single-stim", "stimulus": "<p id=\"stim\">7</p>", "internal_node_id": "0.0-79.0-3.0", "time_elapsed": 536112, "key_press": -1, "trial_index": 109}, "uniqueid": "MTK2770:35GMH2SV3FOOABSPJQ0U7LIR1SFEOG", "dateTime": 1519329900484}, {"current_trial": 110, "trialdata": {"rt": -1, "trial_type": "single-stim", "stimulus": "<p id=\"stim\">6</p>", "internal_node_id": "0.0-79.0-4.0", "time_elapsed": 537113, "key_press": -1, "trial_index": 110}, "uniqueid": "MTK2770:35GMH2SV3FOOABSPJQ0U7LIR1SFEOG", "dateTime": 1519329901485}, {"current_trial": 111, "trialdata": {"rt": -1, "trial_type": "single-stim", "stimulus": "<p id=\"stim\">5</p>", "internal_node_id": "0.0-79.0-5.0", "time_elapsed": 538114, "key_press": -1, "trial_index": 111}, "uniqueid": "MTK2770:35GMH2SV3FOOABSPJQ0U7LIR1SFEOG", "dateTime": 1519329902486}, {"current_trial": 112, "trialdata": {"rt": -1, "trial_type": "single-stim", "stimulus": "<p id=\"stim\">4</p>", "internal_node_id": "0.0-79.0-6.0", "time_elapsed": 539115, "key_press": -1, "trial_index": 112}, "uniqueid": "MTK2770:35GMH2SV3FOOABSPJQ0U7LIR1SFEOG", "dateTime": 1519329903488}, {"current_trial": 113, "trialdata": {"rt": -1, "trial_type": "single-stim", "stimulus": "<p id=\"stim\">3</p>", "internal_node_id": "0.0-79.0-7.0", "time_elapsed": 540118, "key_press": -1, "trial_index": 113}, "uniqueid": "MTK2770:35GMH2SV3FOOABSPJQ0U7LIR1SFEOG", "dateTime": 1519329904490}, {"current_trial": 114, "trialdata": {"rt": -1, "trial_type": "single-stim", "stimulus": "<p id=\"stim\">2</p>", "internal_node_id": "0.0-79.0-8.0", "time_elapsed": 541119, "key_press": -1, "trial_index": 114}, "uniqueid": "MTK2770:35GMH2SV3FOOABSPJQ0U7LIR1SFEOG", "dateTime": 1519329905491}, {"current_trial": 115, "trialdata": {"rt": -1, "trial_type": "single-stim", "stimulus": "<p id=\"stim\">1</p>", "internal_node_id": "0.0-79.0-9.0", "time_elapsed": 542121, "key_press": -1, "trial_index": 115}, "uniqueid": "MTK2770:35GMH2SV3FOOABSPJQ0U7LIR1SFEOG", "dateTime": 1519329906494}, {"current_trial": 116, "trialdata": {"rt": -1, "trial_type": "single-stim", "stimulus": "<p id=\"stim\">+</p>", "internal_node_id": "0.0-80.0-0.0", "time_elapsed": 543622, "key_press": -1, "type": "FIXATION", "trial_index": 116}, "uniqueid": "MTK2770:35GMH2SV3FOOABSPJQ0U7LIR1SFEOG", "dateTime": 1519329907994}, {"current_trial": 117, "trialdata": {"rt": -1, "trial_type": "single-stim", "word": "dentist", "stimulus": "<p id=\"stim\">DENTIST</p>", "conditions": [12, 800, "v", 24000], "internal_node_id": "0.0-81.0", "trial": 3, "time_elapsed": 544424, "serialpos": 0, "key_press": -1, "wordID": 446, "type": "PRES_VIS", "trial_index": 117}, "uniqueid": "MTK2770:35GMH2SV3FOOABSPJQ0U7LIR1SFEOG", "dateTime": 1519329908797}, {"current_trial": 118, "trialdata": {"rt": -1, "trial_type": "single-stim", "word": "brother", "stimulus": "<p id=\"stim\">BROTHER</p>", "conditions": [12, 800, "v", 24000], "internal_node_id": "0.0-82.0", "trial": 3, "time_elapsed": 546331, "serialpos": 1, "key_press": -1, "wordID": 178, "type": "PRES_VIS", "trial_index": 118}, "uniqueid": "MTK2770:35GMH2SV3FOOABSPJQ0U7LIR1SFEOG", "dateTime": 1519329910703}, {"current_trial": 119, "trialdata": {"rt": -1, "trial_type": "single-stim", "word": "omelet", "stimulus": "<p id=\"stim\">OMELET</p>", "conditions": [12, 800, "v", 24000], "internal_node_id": "0.0-83.0", "trial": 3, "time_elapsed": 547999, "serialpos": 2, "key_press": -1, "wordID": 975, "type": "PRES_VIS", "trial_index": 119}, "uniqueid": "MTK2770:35GMH2SV3FOOABSPJQ0U7LIR1SFEOG", "dateTime": 1519329912371}, {"current_trial": 120, "trialdata": {"rt": -1, "trial_type": "single-stim", "word": "foot", "stimulus": "<p id=\"stim\">FOOT</p>", "conditions": [12, 800, "v", 24000], "internal_node_id": "0.0-84.0", "trial": 3, "time_elapsed": 549624, "serialpos": 3, "key_press": -1, "wordID": 589, "type": "PRES_VIS", "trial_index": 120}, "uniqueid": "MTK2770:35GMH2SV3FOOABSPJQ0U7LIR1SFEOG", "dateTime": 1519329913996}, {"current_trial": 121, "trialdata": {"rt": -1, "trial_type": "single-stim", "word": "chest", "stimulus": "<p id=\"stim\">CHEST</p>", "conditions": [12, 800, "v", 24000], "internal_node_id": "0.0-85.0", "trial": 3, "time_elapsed": 551375, "serialpos": 4, "key_press": -1, "wordID": 294, "type": "PRES_VIS", "trial_index": 121}, "uniqueid": "MTK2770:35GMH2SV3FOOABSPJQ0U7LIR1SFEOG", "dateTime": 1519329915747}, {"current_trial": 122, "trialdata": {"rt": -1, "trial_type": "single-stim", "word": "antler", "stimulus": "<p id=\"stim\">ANTLER</p>", "conditions": [12, 800, "v", 24000], "internal_node_id": "0.0-86.0", "trial": 3, "time_elapsed": 553144, "serialpos": 5, "key_press": -1, "wordID": 28, "type": "PRES_VIS", "trial_index": 122}, "uniqueid": "MTK2770:35GMH2SV3FOOABSPJQ0U7LIR1SFEOG", "dateTime": 1519329917516}, {"current_trial": 123, "trialdata": {"rt": -1, "trial_type": "single-stim", "word": "cabin", "stimulus": "<p id=\"stim\">CABIN</p>", "conditions": [12, 800, "v", 24000], "internal_node_id": "0.0-87.0", "trial": 3, "time_elapsed": 554976, "serialpos": 6, "key_press": -1, "wordID": 210, "type": "PRES_VIS", "trial_index": 123}, "uniqueid": "MTK2770:35GMH2SV3FOOABSPJQ0U7LIR1SFEOG", "dateTime": 1519329919349}, {"current_trial": 124, "trialdata": {"rt": -1, "trial_type": "single-stim", "word": "tombstone", "stimulus": "<p id=\"stim\">TOMBSTONE</p>", "conditions": [12, 800, "v", 24000], "internal_node_id": "0.0-88.0", "trial": 3, "time_elapsed": 556742, "serialpos": 7, "key_press": -1, "wordID": 1477, "type": "PRES_VIS", "trial_index": 124}, "uniqueid": "MTK2770:35GMH2SV3FOOABSPJQ0U7LIR1SFEOG", "dateTime": 1519329921114}, {"current_trial": 125, "trialdata": {"rt": -1, "trial_type": "single-stim", "word": "statue", "stimulus": "<p id=\"stim\">STATUE</p>", "conditions": [12, 800, "v", 24000], "internal_node_id": "0.0-89.0", "trial": 3, "time_elapsed": 558634, "serialpos": 8, "key_press": -1, "wordID": 1373, "type": "PRES_VIS", "trial_index": 125}, "uniqueid": "MTK2770:35GMH2SV3FOOABSPJQ0U7LIR1SFEOG", "dateTime": 1519329923006}, {"current_trial": 126, "trialdata": {"rt": -1, "trial_type": "single-stim", "word": "cousin", "stimulus": "<p id=\"stim\">COUSIN</p>", "conditions": [12, 800, "v", 24000], "internal_node_id": "0.0-90.0", "trial": 3, "time_elapsed": 560529, "serialpos": 9, "key_press": -1, "wordID": 391, "type": "PRES_VIS", "trial_index": 126}, "uniqueid": "MTK2770:35GMH2SV3FOOABSPJQ0U7LIR1SFEOG", "dateTime": 1519329924901}, {"current_trial": 127, "trialdata": {"rt": -1, "trial_type": "single-stim", "word": "wife", "stimulus": "<p id=\"stim\">WIFE</p>", "conditions": [12, 800, "v", 24000], "internal_node_id": "0.0-91.0", "trial": 3, "time_elapsed": 562438, "serialpos": 10, "key_press": -1, "wordID": 1608, "type": "PRES_VIS", "trial_index": 127}, "uniqueid": "MTK2770:35GMH2SV3FOOABSPJQ0U7LIR1SFEOG", "dateTime": 1519329926810}, {"current_trial": 128, "trialdata": {"rt": -1, "trial_type": "single-stim", "word": "robot", "stimulus": "<p id=\"stim\">ROBOT</p>", "conditions": [12, 800, "v", 24000], "internal_node_id": "0.0-92.0", "trial": 3, "time_elapsed": 564293, "serialpos": 11, "key_press": -1, "wordID": 1199, "type": "PRES_VIS", "trial_index": 128}, "uniqueid": "MTK2770:35GMH2SV3FOOABSPJQ0U7LIR1SFEOG", "dateTime": 1519329928665}, {"current_trial": 129, "trialdata": {"rt": -1, "trial_type": "single-stim", "stimulus": "", "internal_node_id": "0.0-93.0-0.0", "time_elapsed": 566430, "key_press": -1, "type": "PRE_RECALL_DELAY", "trial_index": 129}, "uniqueid": "MTK2770:35GMH2SV3FOOABSPJQ0U7LIR1SFEOG", "dateTime": 1519329930802}, {"current_trial": 130, "trialdata": {"rt": -1000, "trial_type": "single-audio", "stimulus": "/static/audio/400Hz.wav", "internal_node_id": "0.0-94.0", "time_elapsed": 566931, "key_press": -1, "type": "PRE_RECALL_ALERT", "trial_index": 130}, "uniqueid": "MTK2770:35GMH2SV3FOOABSPJQ0U7LIR1SFEOG", "dateTime": 1519329931303}, {"current_trial": 131, "trialdata": {"rt": [1823, 3976, 5511, 5760, 7183, 8839, 9928, 10927, 12553], "recwords": ["dentist", "brother", "omelete", "", "statue", "tombstone", "statue", "wife", "robot"], "key_times": [1045, 1119, 1239, 1328, 1455, 1583, 1768, 1823, 2136, 2335, 2399, 2584, 2607, 2856, 3007, 3167, 3295, 3384, 3503, 3584, 3703, 3783, 3920, 3976, 4608, 4800, 4887, 4999, 5104, 5287, 5448, 5511, 5760, 6375, 6592, 6704, 6799, 6994, 7039, 7183, 7675, 7737, 7954, 7977, 8268, 8415, 8487, 8647, 8727, 8839, 9200, 9335, 9464, 9536, 9720, 9791, 9928, 10440, 10567, 10680, 10855, 10927, 12048, 12143, 12288, 12368, 12479, 12553], "trial_type": "free-recall", "conditions": [12, 800, "v", 24000], "internal_node_id": "0.0-95.0-0.0", "key_presses": [68, 69, 78, 84, 73, 83, 84, 13, 66, 79, 82, 84, 72, 8, 8, 8, 8, 82, 79, 84, 72, 69, 82, 13, 79, 77, 69, 76, 69, 84, 69, 32, 13, 83, 84, 65, 84, 85, 69, 13, 84, 79, 77, 66, 83, 84, 79, 78, 69, 13, 83, 84, 65, 84, 85, 69, 13, 87, 73, 70, 69, 13, 82, 79, 66, 79, 84, 13], "trial": 3, "time_elapsed": 626934, "type": "FREE_RECALL", "trial_index": 131}, "uniqueid": "MTK2770:35GMH2SV3FOOABSPJQ0U7LIR1SFEOG", "dateTime": 1519329991310}, {"current_trial": 132, "trialdata": {"rt": 1346, "trial_type": "text", "internal_node_id": "0.0-96.0", "time_elapsed": 630285, "key_press": 32, "type": "INSTRUCTIONS", "trial_index": 132}, "uniqueid": "MTK2770:35GMH2SV3FOOABSPJQ0U7LIR1SFEOG", "dateTime": 1519329994657}, {"current_trial": 133, "trialdata": {"rt": [4220, 6244, 8044, 10029, 11477, 12925, 15532, 17724, 19300, 22548], "trial_type": "math-distractor", "key_times": [1557, 1633, 2141, 2724, 2780, 3285, 3421, 4044, 4220, 5997, 6244, 7429, 7789, 8044, 9621, 9836, 10029, 11052, 11253, 11477, 12605, 12684, 12925, 14044, 14660, 14804, 15213, 15340, 15532, 17349, 17461, 17724, 18973, 19108, 19300, 22133, 22276, 22548], "responses": ["13", "5", "17", "17", "13", "15", "11", "16", "11", "10"], "num2": [9, 4, 6, 2, 5, 4, 1, 3, 5, 3, 6], "num3": [3, 1, 3, 8, 5, 5, 5, 9, 3, 2, 2], "conditions": [24, 1600, "v", 24000], "internal_node_id": "0.0-97.0", "key_presses": [49, 51, 8, 49, 51, 8, 8, 51, 13, 53, 13, 49, 55, 13, 49, 55, 13, 49, 51, 13, 49, 53, 13, 54, 8, 8, 49, 49, 13, 49, 54, 13, 49, 49, 13, 49, 48, 13], "trial": 4, "time_elapsed": 656288, "type": "DISTRACTOR", "trial_index": 133, "num1": [1, 3, 8, 7, 3, 6, 5, 4, 5, 5, 3]}, "uniqueid": "MTK2770:35GMH2SV3FOOABSPJQ0U7LIR1SFEOG", "dateTime": 1519330020660}, {"current_trial": 134, "trialdata": {"rt": -1, "trial_type": "single-stim", "stimulus": "<p id=\"stim\">10</p>", "internal_node_id": "0.0-98.0-0.0", "time_elapsed": 659291, "key_press": -1, "trial_index": 134}, "uniqueid": "MTK2770:35GMH2SV3FOOABSPJQ0U7LIR1SFEOG", "dateTime": 1519330023663}, {"current_trial": 135, "trialdata": {"rt": -1, "trial_type": "single-stim", "stimulus": "<p id=\"stim\">9</p>", "internal_node_id": "0.0-98.0-1.0", "time_elapsed": 660292, "key_press": -1, "trial_index": 135}, "uniqueid": "MTK2770:35GMH2SV3FOOABSPJQ0U7LIR1SFEOG", "dateTime": 1519330024664}, {"current_trial": 136, "trialdata": {"rt": -1, "trial_type": "single-stim", "stimulus": "<p id=\"stim\">8</p>", "internal_node_id": "0.0-98.0-2.0", "time_elapsed": 661294, "key_press": -1, "trial_index": 136}, "uniqueid": "MTK2770:35GMH2SV3FOOABSPJQ0U7LIR1SFEOG", "dateTime": 1519330025666}, {"current_trial": 137, "trialdata": {"rt": -1, "trial_type": "single-stim", "stimulus": "<p id=\"stim\">7</p>", "internal_node_id": "0.0-98.0-3.0", "time_elapsed": 662296, "key_press": -1, "trial_index": 137}, "uniqueid": "MTK2770:35GMH2SV3FOOABSPJQ0U7LIR1SFEOG", "dateTime": 1519330026668}, {"current_trial": 138, "trialdata": {"rt": -1, "trial_type": "single-stim", "stimulus": "<p id=\"stim\">6</p>", "internal_node_id": "0.0-98.0-4.0", "time_elapsed": 663297, "key_press": -1, "trial_index": 138}, "uniqueid": "MTK2770:35GMH2SV3FOOABSPJQ0U7LIR1SFEOG", "dateTime": 1519330027669}, {"current_trial": 139, "trialdata": {"rt": -1, "trial_type": "single-stim", "stimulus": "<p id=\"stim\">5</p>", "internal_node_id": "0.0-98.0-5.0", "time_elapsed": 664299, "key_press": -1, "trial_index": 139}, "uniqueid": "MTK2770:35GMH2SV3FOOABSPJQ0U7LIR1SFEOG", "dateTime": 1519330028671}, {"current_trial": 140, "trialdata": {"rt": -1, "trial_type": "single-stim", "stimulus": "<p id=\"stim\">4</p>", "internal_node_id": "0.0-98.0-6.0", "time_elapsed": 665301, "key_press": -1, "trial_index": 140}, "uniqueid": "MTK2770:35GMH2SV3FOOABSPJQ0U7LIR1SFEOG", "dateTime": 1519330029673}, {"current_trial": 141, "trialdata": {"rt": -1, "trial_type": "single-stim", "stimulus": "<p id=\"stim\">3</p>", "internal_node_id": "0.0-98.0-7.0", "time_elapsed": 666302, "key_press": -1, "trial_index": 141}, "uniqueid": "MTK2770:35GMH2SV3FOOABSPJQ0U7LIR1SFEOG", "dateTime": 1519330030674}, {"current_trial": 142, "trialdata": {"rt": -1, "trial_type": "single-stim", "stimulus": "<p id=\"stim\">2</p>", "internal_node_id": "0.0-98.0-8.0", "time_elapsed": 667304, "key_press": -1, "trial_index": 142}, "uniqueid": "MTK2770:35GMH2SV3FOOABSPJQ0U7LIR1SFEOG", "dateTime": 1519330031676}, {"current_trial": 143, "trialdata": {"rt": -1, "trial_type": "single-stim", "stimulus": "<p id=\"stim\">1</p>", "internal_node_id": "0.0-98.0-9.0", "time_elapsed": 668306, "key_press": -1, "trial_index": 143}, "uniqueid": "MTK2770:35GMH2SV3FOOABSPJQ0U7LIR1SFEOG", "dateTime": 1519330032678}, {"current_trial": 144, "trialdata": {"rt": -1, "trial_type": "single-stim", "stimulus": "<p id=\"stim\">+</p>", "internal_node_id": "0.0-99.0-0.0", "time_elapsed": 669808, "key_press": -1, "type": "FIXATION", "trial_index": 144}, "uniqueid": "MTK2770:35GMH2SV3FOOABSPJQ0U7LIR1SFEOG", "dateTime": 1519330034180}, {"current_trial": 145, "trialdata": {"rt": -1, "trial_type": "single-stim", "word": "inmate", "stimulus": "<p id=\"stim\">INMATE</p>", "conditions": [24, 1600, "v", 24000], "internal_node_id": "0.0-100.0", "trial": 4, "time_elapsed": 671410, "serialpos": 0, "key_press": -1, "wordID": 737, "type": "PRES_VIS", "trial_index": 145}, "uniqueid": "MTK2770:35GMH2SV3FOOABSPJQ0U7LIR1SFEOG", "dateTime": 1519330035782}, {"current_trial": 146, "trialdata": {"rt": -1, "trial_type": "single-stim", "word": "stove", "stimulus": "<p id=\"stim\">STOVE</p>", "conditions": [24, 1600, "v", 24000], "internal_node_id": "0.0-101.0", "trial": 4, "time_elapsed": 673943, "serialpos": 1, "key_press": -1, "wordID": 1387, "type": "PRES_VIS", "trial_index": 146}, "uniqueid": "MTK2770:35GMH2SV3FOOABSPJQ0U7LIR1SFEOG", "dateTime": 1519330038315}, {"current_trial": 147, "trialdata": {"rt": -1, "trial_type": "single-stim", "word": "wrist", "stimulus": "<p id=\"stim\">WRIST</p>", "conditions": [24, 1600, "v", 24000], "internal_node_id": "0.0-102.0", "trial": 4, "time_elapsed": 676736, "serialpos": 2, "key_press": -1, "wordID": 1625, "type": "PRES_VIS", "trial_index": 147}, "uniqueid": "MTK2770:35GMH2SV3FOOABSPJQ0U7LIR1SFEOG", "dateTime": 1519330041109}, {"current_trial": 148, "trialdata": {"rt": -1, "trial_type": "single-stim", "word": "server", "stimulus": "<p id=\"stim\">SERVER</p>", "conditions": [24, 1600, "v", 24000], "internal_node_id": "0.0-103.0", "trial": 4, "time_elapsed": 679452, "serialpos": 3, "key_press": -1, "wordID": 1271, "type": "PRES_VIS", "trial_index": 148}, "uniqueid": "MTK2770:35GMH2SV3FOOABSPJQ0U7LIR1SFEOG", "dateTime": 1519330043824}, {"current_trial": 149, "trialdata": {"rt": -1, "trial_type": "single-stim", "word": "turnip", "stimulus": "<p id=\"stim\">TURNIP</p>", "conditions": [24, 1600, "v", 24000], "internal_node_id": "0.0-104.0", "trial": 4, "time_elapsed": 681893, "serialpos": 4, "key_press": -1, "wordID": 1520, "type": "PRES_VIS", "trial_index": 149}, "uniqueid": "MTK2770:35GMH2SV3FOOABSPJQ0U7LIR1SFEOG", "dateTime": 1519330046265}, {"current_trial": 150, "trialdata": {"rt": -1, "trial_type": "single-stim", "word": "expert", "stimulus": "<p id=\"stim\">EXPERT</p>", "conditions": [24, 1600, "v", 24000], "internal_node_id": "0.0-105.0", "trial": 4, "time_elapsed": 684329, "serialpos": 5, "key_press": -1, "wordID": 542, "type": "PRES_VIS", "trial_index": 150}, "uniqueid": "MTK2770:35GMH2SV3FOOABSPJQ0U7LIR1SFEOG", "dateTime": 1519330048701}, {"current_trial": 151, "trialdata": {"rt": -1, "trial_type": "single-stim", "word": "diner", "stimulus": "<p id=\"stim\">DINER</p>", "conditions": [24, 1600, "v", 24000], "internal_node_id": "0.0-106.0", "trial": 4, "time_elapsed": 686985, "serialpos": 6, "key_press": -1, "wordID": 466, "type": "PRES_VIS", "trial_index": 151}, "uniqueid": "MTK2770:35GMH2SV3FOOABSPJQ0U7LIR1SFEOG", "dateTime": 1519330051357}, {"current_trial": 152, "trialdata": {"rt": -1, "trial_type": "single-stim", "word": "sunrise", "stimulus": "<p id=\"stim\">SUNRISE</p>", "conditions": [24, 1600, "v", 24000], "internal_node_id": "0.0-107.0", "trial": 4, "time_elapsed": 689554, "serialpos": 7, "key_press": -1, "wordID": 1406, "type": "PRES_VIS", "trial_index": 152}, "uniqueid": "MTK2770:35GMH2SV3FOOABSPJQ0U7LIR1SFEOG", "dateTime": 1519330053926}, {"current_trial": 153, "trialdata": {"rt": -1, "trial_type": "single-stim", "word": "sunset", "stimulus": "<p id=\"stim\">SUNSET</p>", "conditions": [24, 1600, "v", 24000], "internal_node_id": "0.0-108.0", "trial": 4, "time_elapsed": 692186, "serialpos": 8, "key_press": -1, "wordID": 1407, "type": "PRES_VIS", "trial_index": 153}, "uniqueid": "MTK2770:35GMH2SV3FOOABSPJQ0U7LIR1SFEOG", "dateTime": 1519330056558}, {"current_trial": 154, "trialdata": {"rt": -1, "trial_type": "single-stim", "word": "toaster", "stimulus": "<p id=\"stim\">TOASTER</p>", "conditions": [24, 1600, "v", 24000], "internal_node_id": "0.0-109.0", "trial": 4, "time_elapsed": 694771, "serialpos": 9, "key_press": -1, "wordID": 1471, "type": "PRES_VIS", "trial_index": 154}, "uniqueid": "MTK2770:35GMH2SV3FOOABSPJQ0U7LIR1SFEOG", "dateTime": 1519330059143}, {"current_trial": 155, "trialdata": {"rt": -1, "trial_type": "single-stim", "word": "custard", "stimulus": "<p id=\"stim\">CUSTARD</p>", "conditions": [24, 1600, "v", 24000], "internal_node_id": "0.0-110.0", "trial": 4, "time_elapsed": 697417, "serialpos": 10, "key_press": -1, "wordID": 428, "type": "PRES_VIS", "trial_index": 155}, "uniqueid": "MTK2770:35GMH2SV3FOOABSPJQ0U7LIR1SFEOG", "dateTime": 1519330061789}, {"current_trial": 156, "trialdata": {"rt": -1, "trial_type": "single-stim", "word": "pimple", "stimulus": "<p id=\"stim\">PIMPLE</p>", "conditions": [24, 1600, "v", 24000], "internal_node_id": "0.0-111.0", "trial": 4, "time_elapsed": 700135, "serialpos": 11, "key_press": -1, "wordID": 1070, "type": "PRES_VIS", "trial_index": 156}, "uniqueid": "MTK2770:35GMH2SV3FOOABSPJQ0U7LIR1SFEOG", "dateTime": 1519330064507}, {"current_trial": 157, "trialdata": {"rt": -1, "trial_type": "single-stim", "word": "chauffeur", "stimulus": "<p id=\"stim\">CHAUFFEUR</p>", "conditions": [24, 1600, "v", 24000], "internal_node_id": "0.0-112.0", "trial": 4, "time_elapsed": 702696, "serialpos": 12, "key_press": -1, "wordID": 282, "type": "PRES_VIS", "trial_index": 157}, "uniqueid": "MTK2770:35GMH2SV3FOOABSPJQ0U7LIR1SFEOG", "dateTime": 1519330067068}, {"current_trial": 158, "trialdata": {"rt": -1, "trial_type": "single-stim", "word": "rabbit", "stimulus": "<p id=\"stim\">RABBIT</p>", "conditions": [24, 1600, "v", 24000], "internal_node_id": "0.0-113.0", "trial": 4, "time_elapsed": 705126, "serialpos": 13, "key_press": -1, "wordID": 1151, "type": "PRES_VIS", "trial_index": 158}, "uniqueid": "MTK2770:35GMH2SV3FOOABSPJQ0U7LIR1SFEOG", "dateTime": 1519330069498}, {"current_trial": 159, "trialdata": {"rt": -1, "trial_type": "single-stim", "word": "yacht", "stimulus": "<p id=\"stim\">YACHT</p>", "conditions": [24, 1600, "v", 24000], "internal_node_id": "0.0-114.0", "trial": 4, "time_elapsed": 707869, "serialpos": 14, "key_press": -1, "wordID": 1628, "type": "PRES_VIS", "trial_index": 159}, "uniqueid": "MTK2770:35GMH2SV3FOOABSPJQ0U7LIR1SFEOG", "dateTime": 1519330072241}, {"current_trial": 160, "trialdata": {"rt": -1, "trial_type": "single-stim", "word": "motor", "stimulus": "<p id=\"stim\">MOTOR</p>", "conditions": [24, 1600, "v", 24000], "internal_node_id": "0.0-115.0", "trial": 4, "time_elapsed": 710357, "serialpos": 15, "key_press": -1, "wordID": 921, "type": "PRES_VIS", "trial_index": 160}, "uniqueid": "MTK2770:35GMH2SV3FOOABSPJQ0U7LIR1SFEOG", "dateTime": 1519330074729}, {"current_trial": 161, "trialdata": {"rt": -1, "trial_type": "single-stim", "word": "trout", "stimulus": "<p id=\"stim\">TROUT</p>", "conditions": [24, 1600, "v", 24000], "internal_node_id": "0.0-116.0", "trial": 4, "time_elapsed": 712925, "serialpos": 16, "key_press": -1, "wordID": 1510, "type": "PRES_VIS", "trial_index": 161}, "uniqueid": "MTK2770:35GMH2SV3FOOABSPJQ0U7LIR1SFEOG", "dateTime": 1519330077298}, {"current_trial": 162, "trialdata": {"rt": -1, "trial_type": "single-stim", "word": "shoulder", "stimulus": "<p id=\"stim\">SHOULDER</p>", "conditions": [24, 1600, "v", 24000], "internal_node_id": "0.0-117.0", "trial": 4, "time_elapsed": 715499, "serialpos": 17, "key_press": -1, "wordID": 1293, "type": "PRES_VIS", "trial_index": 162}, "uniqueid": "MTK2770:35GMH2SV3FOOABSPJQ0U7LIR1SFEOG", "dateTime": 1519330079871}, {"current_trial": 163, "trialdata": {"rt": -1, "trial_type": "single-stim", "word": "beaver", "stimulus": "<p id=\"stim\">BEAVER</p>", "conditions": [24, 1600, "v", 24000], "internal_node_id": "0.0-118.0", "trial": 4, "time_elapsed": 718069, "serialpos": 18, "key_press": -1, "wordID": 108, "type": "PRES_VIS", "trial_index": 163}, "uniqueid": "MTK2770:35GMH2SV3FOOABSPJQ0U7LIR1SFEOG", "dateTime": 1519330082441}, {"current_trial": 164, "trialdata": {"rt": -1, "trial_type": "single-stim", "word": "cross", "stimulus": "<p id=\"stim\">CROSS</p>", "conditions": [24, 1600, "v", 24000], "internal_node_id": "0.0-119.0", "trial": 4, "time_elapsed": 720859, "serialpos": 19, "key_press": -1, "wordID": 412, "type": "PRES_VIS", "trial_index": 164}, "uniqueid": "MTK2770:35GMH2SV3FOOABSPJQ0U7LIR1SFEOG", "dateTime": 1519330085231}, {"current_trial": 165, "trialdata": {"rt": -1, "trial_type": "single-stim", "word": "kidney", "stimulus": "<p id=\"stim\">KIDNEY</p>", "conditions": [24, 1600, "v", 24000], "internal_node_id": "0.0-120.0", "trial": 4, "time_elapsed": 723376, "serialpos": 20, "key_press": -1, "wordID": 775, "type": "PRES_VIS", "trial_index": 165}, "uniqueid": "MTK2770:35GMH2SV3FOOABSPJQ0U7LIR1SFEOG", "dateTime": 1519330087748}, {"current_trial": 166, "trialdata": {"rt": -1, "trial_type": "single-stim", "word": "world", "stimulus": "<p id=\"stim\">WORLD</p>", "conditions": [24, 1600, "v", 24000], "internal_node_id": "0.0-121.0", "trial": 4, "time_elapsed": 726159, "serialpos": 21, "key_press": -1, "wordID": 1621, "type": "PRES_VIS", "trial_index": 166}, "uniqueid": "MTK2770:35GMH2SV3FOOABSPJQ0U7LIR1SFEOG", "dateTime": 1519330090531}, {"current_trial": 167, "trialdata": {"rt": -1, "trial_type": "single-stim", "word": "globe", "stimulus": "<p id=\"stim\">GLOBE</p>", "conditions": [24, 1600, "v", 24000], "internal_node_id": "0.0-122.0", "trial": 4, "time_elapsed": 728893, "serialpos": 22, "key_press": -1, "wordID": 640, "type": "PRES_VIS", "trial_index": 167}, "uniqueid": "MTK2770:35GMH2SV3FOOABSPJQ0U7LIR1SFEOG", "dateTime": 1519330093265}, {"current_trial": 168, "trialdata": {"rt": -1, "trial_type": "single-stim", "word": "hand", "stimulus": "<p id=\"stim\">HAND</p>", "conditions": [24, 1600, "v", 24000], "internal_node_id": "0.0-123.0", "trial": 4, "time_elapsed": 731393, "serialpos": 23, "key_press": -1, "wordID": 682, "type": "PRES_VIS", "trial_index": 168}, "uniqueid": "MTK2770:35GMH2SV3FOOABSPJQ0U7LIR1SFEOG", "dateTime": 1519330095765}, {"current_trial": 169, "trialdata": {"rt": -1, "trial_type": "single-stim", "stimulus": "", "internal_node_id": "0.0-124.0-0.0", "time_elapsed": 733692, "key_press": -1, "type": "PRE_RECALL_DELAY", "trial_index": 169}, "uniqueid": "MTK2770:35GMH2SV3FOOABSPJQ0U7LIR1SFEOG", "dateTime": 1519330098064}, {"current_trial": 170, "trialdata": {"rt": -1000, "trial_type": "single-audio", "stimulus": "/static/audio/400Hz.wav", "internal_node_id": "0.0-125.0", "time_elapsed": 734194, "key_press": -1, "type": "PRE_RECALL_ALERT", "trial_index": 170}, "uniqueid": "MTK2770:35GMH2SV3FOOABSPJQ0U7LIR1SFEOG", "dateTime": 1519330098566}, {"current_trial": 171, "trialdata": {"rt": [1783, 2871, 3767, 4711, 6471, 7599, 9047, 10447, 12695, 19443, 20447, 22543, 23783], "recwords": ["inmate", "stove", "wrist", "sunset", "sunrise", "custard", "world", "globe", "chaueffeur", "yacht", "motor", "beaver", "pimple"], "key_times": [743, 951, 1147, 1247, 1503, 1687, 1783, 2143, 2359, 2463, 2575, 2799, 2871, 3031, 3207, 3343, 3463, 3671, 3767, 3943, 4017, 4191, 4272, 4455, 4615, 4711, 5199, 5376, 5567, 5655, 5799, 6208, 6399, 6471, 6647, 6743, 6895, 7008, 7119, 7351, 7527, 7599, 8583, 8671, 8768, 8843, 8951, 9047, 9241, 9447, 9599, 9687, 10048, 10143, 10375, 10447, 10976, 11103, 11256, 11391, 11559, 11816, 11943, 12145, 12424, 12567, 12695, 18799, 18873, 19039, 19143, 19319, 19443, 19816, 19991, 20087, 20231, 20319, 20447, 21871, 21904, 22063, 22207, 22311, 22463, 22543, 22895, 23087, 23255, 23432, 23567, 23664, 23783], "trial_type": "free-recall", "conditions": [24, 1600, "v", 24000], "internal_node_id": "0.0-126.0-0.0", "key_presses": [73, 78, 77, 65, 84, 69, 13, 83, 84, 79, 86, 69, 13, 87, 82, 73, 83, 84, 13, 83, 85, 78, 83, 69, 84, 13, 83, 85, 78, 82, 73, 83, 69, 13, 67, 85, 83, 84, 65, 82, 68, 13, 87, 79, 82, 76, 68, 13, 71, 76, 79, 86, 8, 66, 69, 13, 67, 72, 65, 85, 69, 70, 70, 69, 85, 82, 32, 89, 65, 67, 72, 84, 13, 77, 79, 84, 79, 82, 13, 66, 69, 65, 86, 69, 82, 13, 80, 73, 77, 80, 76, 69, 13], "trial": 4, "time_elapsed": 794197, "type": "FREE_RECALL", "trial_index": 171}, "uniqueid": "MTK2770:35GMH2SV3FOOABSPJQ0U7LIR1SFEOG", "dateTime": 1519330158571}, {"current_trial": 172, "trialdata": {"rt": 2491, "trial_type": "text", "internal_node_id": "0.0-127.0", "time_elapsed": 798692, "key_press": 32, "type": "INSTRUCTIONS", "trial_index": 172}, "uniqueid": "MTK2770:35GMH2SV3FOOABSPJQ0U7LIR1SFEOG", "dateTime": 1519330163064}, {"current_trial": 173, "trialdata": {"rt": [3198, 5197, 8621, 10845, 12628, 13997, 16693, 18693, 20205, 22647], "trial_type": "math-distractor", "key_times": [2749, 2965, 3198, 4613, 4933, 5197, 8301, 8389, 8621, 10501, 10652, 10845, 12294, 12413, 12628, 13749, 13997, 16237, 16461, 16693, 18357, 18461, 18693, 19878, 19981, 20205, 22253, 22452, 22647, 23989], "responses": ["14", "22", "16", "14", "12", "9", "17", "15", "15", "18"], "num2": [7, 9, 2, 7, 2, 4, 4, 5, 3, 7, 8], "num3": [6, 9, 6, 1, 1, 4, 8, 4, 6, 5, 1], "conditions": [12, 1600, "v", 24000], "internal_node_id": "0.0-128.0", "key_presses": [49, 52, 13, 50, 50, 13, 49, 54, 13, 49, 52, 13, 49, 50, 13, 57, 13, 49, 55, 13, 49, 53, 13, 49, 53, 13, 49, 56, 13, 49], "trial": 5, "time_elapsed": 824695, "type": "DISTRACTOR", "trial_index": 173, "num1": [1, 4, 8, 6, 9, 1, 5, 6, 6, 6, 9]}, "uniqueid": "MTK2770:35GMH2SV3FOOABSPJQ0U7LIR1SFEOG", "dateTime": 1519330189067}, {"current_trial": 174, "trialdata": {"rt": -1, "trial_type": "single-stim", "stimulus": "<p id=\"stim\">10</p>", "internal_node_id": "0.0-129.0-0.0", "time_elapsed": 827697, "key_press": -1, "trial_index": 174}, "uniqueid": "MTK2770:35GMH2SV3FOOABSPJQ0U7LIR1SFEOG", "dateTime": 1519330192069}, {"current_trial": 175, "trialdata": {"rt": -1, "trial_type": "single-stim", "stimulus": "<p id=\"stim\">9</p>", "internal_node_id": "0.0-129.0-1.0", "time_elapsed": 828699, "key_press": -1, "trial_index": 175}, "uniqueid": "MTK2770:35GMH2SV3FOOABSPJQ0U7LIR1SFEOG", "dateTime": 1519330193071}, {"current_trial": 176, "trialdata": {"rt": -1, "trial_type": "single-stim", "stimulus": "<p id=\"stim\">8</p>", "internal_node_id": "0.0-129.0-2.0", "time_elapsed": 829700, "key_press": -1, "trial_index": 176}, "uniqueid": "MTK2770:35GMH2SV3FOOABSPJQ0U7LIR1SFEOG", "dateTime": 1519330194073}, {"current_trial": 177, "trialdata": {"rt": -1, "trial_type": "single-stim", "stimulus": "<p id=\"stim\">7</p>", "internal_node_id": "0.0-129.0-3.0", "time_elapsed": 830702, "key_press": -1, "trial_index": 177}, "uniqueid": "MTK2770:35GMH2SV3FOOABSPJQ0U7LIR1SFEOG", "dateTime": 1519330195074}, {"current_trial": 178, "trialdata": {"rt": -1, "trial_type": "single-stim", "stimulus": "<p id=\"stim\">6</p>", "internal_node_id": "0.0-129.0-4.0", "time_elapsed": 831704, "key_press": -1, "trial_index": 178}, "uniqueid": "MTK2770:35GMH2SV3FOOABSPJQ0U7LIR1SFEOG", "dateTime": 1519330196076}, {"current_trial": 179, "trialdata": {"rt": -1, "trial_type": "single-stim", "stimulus": "<p id=\"stim\">5</p>", "internal_node_id": "0.0-129.0-5.0", "time_elapsed": 832706, "key_press": -1, "trial_index": 179}, "uniqueid": "MTK2770:35GMH2SV3FOOABSPJQ0U7LIR1SFEOG", "dateTime": 1519330197078}, {"current_trial": 180, "trialdata": {"rt": -1, "trial_type": "single-stim", "stimulus": "<p id=\"stim\">4</p>", "internal_node_id": "0.0-129.0-6.0", "time_elapsed": 833707, "key_press": -1, "trial_index": 180}, "uniqueid": "MTK2770:35GMH2SV3FOOABSPJQ0U7LIR1SFEOG", "dateTime": 1519330198080}, {"current_trial": 181, "trialdata": {"rt": -1, "trial_type": "single-stim", "stimulus": "<p id=\"stim\">3</p>", "internal_node_id": "0.0-129.0-7.0", "time_elapsed": 834709, "key_press": -1, "trial_index": 181}, "uniqueid": "MTK2770:35GMH2SV3FOOABSPJQ0U7LIR1SFEOG", "dateTime": 1519330199081}, {"current_trial": 182, "trialdata": {"rt": -1, "trial_type": "single-stim", "stimulus": "<p id=\"stim\">2</p>", "internal_node_id": "0.0-129.0-8.0", "time_elapsed": 835711, "key_press": -1, "trial_index": 182}, "uniqueid": "MTK2770:35GMH2SV3FOOABSPJQ0U7LIR1SFEOG", "dateTime": 1519330200083}, {"current_trial": 183, "trialdata": {"rt": -1, "trial_type": "single-stim", "stimulus": "<p id=\"stim\">1</p>", "internal_node_id": "0.0-129.0-9.0", "time_elapsed": 836712, "key_press": -1, "trial_index": 183}, "uniqueid": "MTK2770:35GMH2SV3FOOABSPJQ0U7LIR1SFEOG", "dateTime": 1519330201085}, {"current_trial": 184, "trialdata": {"rt": -1, "trial_type": "single-stim", "stimulus": "<p id=\"stim\">+</p>", "internal_node_id": "0.0-130.0-0.0", "time_elapsed": 838214, "key_press": -1, "type": "FIXATION", "trial_index": 184}, "uniqueid": "MTK2770:35GMH2SV3FOOABSPJQ0U7LIR1SFEOG", "dateTime": 1519330202586}, {"current_trial": 185, "trialdata": {"rt": -1, "trial_type": "single-stim", "word": "salmon", "stimulus": "<p id=\"stim\">SALMON</p>", "conditions": [12, 1600, "v", 24000], "internal_node_id": "0.0-131.0", "trial": 5, "time_elapsed": 839816, "serialpos": 0, "key_press": -1, "wordID": 1226, "type": "PRES_VIS", "trial_index": 185}, "uniqueid": "MTK2770:35GMH2SV3FOOABSPJQ0U7LIR1SFEOG", "dateTime": 1519330204188}, {"current_trial": 186, "trialdata": {"rt": -1, "trial_type": "single-stim", "word": "peach", "stimulus": "<p id=\"stim\">PEACH</p>", "conditions": [12, 1600, "v", 24000], "internal_node_id": "0.0-132.0", "trial": 5, "time_elapsed": 842233, "serialpos": 1, "key_press": -1, "wordID": 1030, "type": "PRES_VIS", "trial_index": 186}, "uniqueid": "MTK2770:35GMH2SV3FOOABSPJQ0U7LIR1SFEOG", "dateTime": 1519330206605}, {"current_trial": 187, "trialdata": {"rt": -1, "trial_type": "single-stim", "word": "rattle", "stimulus": "<p id=\"stim\">RATTLE</p>", "conditions": [12, 1600, "v", 24000], "internal_node_id": "0.0-133.0", "trial": 5, "time_elapsed": 845026, "serialpos": 2, "key_press": -1, "wordID": 1169, "type": "PRES_VIS", "trial_index": 187}, "uniqueid": "MTK2770:35GMH2SV3FOOABSPJQ0U7LIR1SFEOG", "dateTime": 1519330209398}, {"current_trial": 188, "trialdata": {"rt": -1, "trial_type": "single-stim", "word": "market", "stimulus": "<p id=\"stim\">MARKET</p>", "conditions": [12, 1600, "v", 24000], "internal_node_id": "0.0-134.0", "trial": 5, "time_elapsed": 847565, "serialpos": 3, "key_press": -1, "wordID": 870, "type": "PRES_VIS", "trial_index": 188}, "uniqueid": "MTK2770:35GMH2SV3FOOABSPJQ0U7LIR1SFEOG", "dateTime": 1519330211937}, {"current_trial": 189, "trialdata": {"rt": -1, "trial_type": "single-stim", "word": "agent", "stimulus": "<p id=\"stim\">AGENT</p>", "conditions": [12, 1600, "v", 24000], "internal_node_id": "0.0-135.0", "trial": 5, "time_elapsed": 850304, "serialpos": 4, "key_press": -1, "wordID": 9, "type": "PRES_VIS", "trial_index": 189}, "uniqueid": "MTK2770:35GMH2SV3FOOABSPJQ0U7LIR1SFEOG", "dateTime": 1519330214677}, {"current_trial": 190, "trialdata": {"rt": -1, "trial_type": "single-stim", "word": "husband", "stimulus": "<p id=\"stim\">HUSBAND</p>", "conditions": [12, 1600, "v", 24000], "internal_node_id": "0.0-136.0", "trial": 5, "time_elapsed": 853040, "serialpos": 5, "key_press": -1, "wordID": 727, "type": "PRES_VIS", "trial_index": 190}, "uniqueid": "MTK2770:35GMH2SV3FOOABSPJQ0U7LIR1SFEOG", "dateTime": 1519330217412}, {"current_trial": 191, "trialdata": {"rt": -1, "trial_type": "single-stim", "word": "chipmunk", "stimulus": "<p id=\"stim\">CHIPMUNK</p>", "conditions": [12, 1600, "v", 24000], "internal_node_id": "0.0-137.0", "trial": 5, "time_elapsed": 855567, "serialpos": 6, "key_press": -1, "wordID": 303, "type": "PRES_VIS", "trial_index": 191}, "uniqueid": "MTK2770:35GMH2SV3FOOABSPJQ0U7LIR1SFEOG", "dateTime": 1519330219939}, {"current_trial": 192, "trialdata": {"rt": -1, "trial_type": "single-stim", "word": "jello", "stimulus": "<p id=\"stim\">JELLO</p>", "conditions": [12, 1600, "v", 24000], "internal_node_id": "0.0-138.0", "trial": 5, "time_elapsed": 858235, "serialpos": 7, "key_press": -1, "wordID": 753, "type": "PRES_VIS", "trial_index": 192}, "uniqueid": "MTK2770:35GMH2SV3FOOABSPJQ0U7LIR1SFEOG", "dateTime": 1519330222607}, {"current_trial": 193, "trialdata": {"rt": -1, "trial_type": "single-stim", "word": "jelly", "stimulus": "<p id=\"stim\">JELLY</p>", "conditions": [12, 1600, "v", 24000], "internal_node_id": "0.0-139.0", "trial": 5, "time_elapsed": 860657, "serialpos": 8, "key_press": -1, "wordID": 754, "type": "PRES_VIS", "trial_index": 193}, "uniqueid": "MTK2770:35GMH2SV3FOOABSPJQ0U7LIR1SFEOG", "dateTime": 1519330225029}, {"current_trial": 194, "trialdata": {"rt": -1, "trial_type": "single-stim", "word": "lover", "stimulus": "<p id=\"stim\">LOVER</p>", "conditions": [12, 1600, "v", 24000], "internal_node_id": "0.0-140.0", "trial": 5, "time_elapsed": 863209, "serialpos": 9, "key_press": -1, "wordID": 845, "type": "PRES_VIS", "trial_index": 194}, "uniqueid": "MTK2770:35GMH2SV3FOOABSPJQ0U7LIR1SFEOG", "dateTime": 1519330227581}, {"current_trial": 195, "trialdata": {"rt": -1, "trial_type": "single-stim", "word": "princess", "stimulus": "<p id=\"stim\">PRINCESS</p>", "conditions": [12, 1600, "v", 24000], "internal_node_id": "0.0-141.0", "trial": 5, "time_elapsed": 865674, "serialpos": 10, "key_press": -1, "wordID": 1124, "type": "PRES_VIS", "trial_index": 195}, "uniqueid": "MTK2770:35GMH2SV3FOOABSPJQ0U7LIR1SFEOG", "dateTime": 1519330230046}, {"current_trial": 196, "trialdata": {"rt": -1, "trial_type": "single-stim", "word": "peanut", "stimulus": "<p id=\"stim\">PEANUT</p>", "conditions": [12, 1600, "v", 24000], "internal_node_id": "0.0-142.0", "trial": 5, "time_elapsed": 868200, "serialpos": 11, "key_press": -1, "wordID": 1031, "type": "PRES_VIS", "trial_index": 196}, "uniqueid": "MTK2770:35GMH2SV3FOOABSPJQ0U7LIR1SFEOG", "dateTime": 1519330232572}, {"current_trial": 197, "trialdata": {"rt": -1, "trial_type": "single-stim", "stimulus": "", "internal_node_id": "0.0-143.0-0.0", "time_elapsed": 870404, "key_press": -1, "type": "PRE_RECALL_DELAY", "trial_index": 197}, "uniqueid": "MTK2770:35GMH2SV3FOOABSPJQ0U7LIR1SFEOG", "dateTime": 1519330234776}, {"current_trial": 198, "trialdata": {"rt": -1000, "trial_type": "single-audio", "stimulus": "/static/audio/400Hz.wav", "internal_node_id": "0.0-144.0", "time_elapsed": 870905, "key_press": -1, "type": "PRE_RECALL_ALERT", "trial_index": 198}, "uniqueid": "MTK2770:35GMH2SV3FOOABSPJQ0U7LIR1SFEOG", "dateTime": 1519330235277}, {"current_trial": 199, "trialdata": {"rt": [1680, 2601, 4432, 5296, 6200, 7920, 10016], "recwords": ["salmon", "peach", "jelly", "jello", "rattle", "lemon", "jacket"], "key_times": [730, 913, 1009, 1185, 1352, 1522, 1680, 1904, 2001, 2187, 2369, 2457, 2601, 3721, 3817, 3937, 4056, 4280, 4432, 4649, 4777, 4897, 5016, 5193, 5296, 5432, 5617, 5809, 5945, 6016, 6137, 6200, 6409, 6568, 6664, 6865, 6874, 7305, 7449, 7561, 7792, 7920, 9225, 9321, 9513, 9609, 9712, 9921, 10016], "trial_type": "free-recall", "conditions": [12, 1600, "v", 24000], "internal_node_id": "0.0-145.0-0.0", "key_presses": [83, 65, 76, 77, 79, 78, 13, 80, 69, 65, 67, 72, 13, 74, 69, 76, 76, 89, 13, 74, 69, 76, 76, 79, 13, 82, 65, 84, 84, 76, 69, 13, 76, 69, 77, 80, 79, 8, 8, 79, 78, 13, 74, 65, 67, 75, 69, 84, 13], "trial": 5, "time_elapsed": 930908, "type": "FREE_RECALL", "trial_index": 199}, "uniqueid": "MTK2770:35GMH2SV3FOOABSPJQ0U7LIR1SFEOG", "dateTime": 1519330295283}, {"current_trial": 200, "trialdata": {"rt": 2596, "trial_type": "text", "internal_node_id": "0.0-146.0", "time_elapsed": 935508, "key_press": 32, "type": "INSTRUCTIONS", "trial_index": 200}, "uniqueid": "MTK2770:35GMH2SV3FOOABSPJQ0U7LIR1SFEOG", "dateTime": 1519330299880}, {"current_trial": 201, "trialdata": {"rt": [2045, 3828, 5200, 7021, 9253, 11108, 13493, 15589, 18885, 20364, 23933], "trial_type": "math-distractor", "key_times": [1589, 1781, 2045, 3468, 3556, 3828, 4933, 5200, 6533, 6765, 7021, 8765, 8965, 9253, 10669, 10861, 11108, 13100, 13253, 13493, 15148, 15317, 15589, 18444, 18676, 18885, 19957, 20125, 20364, 23437, 23582, 23933], "responses": ["18", "15", "9", "13", "13", "12", "12", "12", "17", "10", "20"], "num2": [8, 5, 3, 3, 9, 7, 7, 8, 5, 6, 4, 3], "num3": [2, 8, 3, 2, 2, 2, 3, 2, 9, 2, 9, 8], "conditions": [12, 800, "v", 24000], "internal_node_id": "0.0-147.0", "key_presses": [49, 56, 13, 49, 53, 13, 57, 13, 49, 51, 13, 49, 51, 13, 49, 50, 13, 49, 50, 13, 49, 50, 13, 49, 55, 13, 49, 48, 13, 50, 48, 13], "trial": 6, "time_elapsed": 961512, "type": "DISTRACTOR", "trial_index": 201, "num1": [8, 2, 3, 8, 2, 3, 2, 2, 3, 2, 7, 7]}, "uniqueid": "MTK2770:35GMH2SV3FOOABSPJQ0U7LIR1SFEOG", "dateTime": 1519330325884}, {"current_trial": 202, "trialdata": {"rt": -1, "trial_type": "single-stim", "stimulus": "<p id=\"stim\">10</p>", "internal_node_id": "0.0-148.0-0.0", "time_elapsed": 964515, "key_press": -1, "trial_index": 202}, "uniqueid": "MTK2770:35GMH2SV3FOOABSPJQ0U7LIR1SFEOG", "dateTime": 1519330328887}, {"current_trial": 203, "trialdata": {"rt": -1, "trial_type": "single-stim", "stimulus": "<p id=\"stim\">9</p>", "internal_node_id": "0.0-148.0-1.0", "time_elapsed": 965516, "key_press": -1, "trial_index": 203}, "uniqueid": "MTK2770:35GMH2SV3FOOABSPJQ0U7LIR1SFEOG", "dateTime": 1519330329888}, {"current_trial": 204, "trialdata": {"rt": -1, "trial_type": "single-stim", "stimulus": "<p id=\"stim\">8</p>", "internal_node_id": "0.0-148.0-2.0", "time_elapsed": 966517, "key_press": -1, "trial_index": 204}, "uniqueid": "MTK2770:35GMH2SV3FOOABSPJQ0U7LIR1SFEOG", "dateTime": 1519330330889}, {"current_trial": 205, "trialdata": {"rt": -1, "trial_type": "single-stim", "stimulus": "<p id=\"stim\">7</p>", "internal_node_id": "0.0-148.0-3.0", "time_elapsed": 967520, "key_press": -1, "trial_index": 205}, "uniqueid": "MTK2770:35GMH2SV3FOOABSPJQ0U7LIR1SFEOG", "dateTime": 1519330331892}, {"current_trial": 206, "trialdata": {"rt": -1, "trial_type": "single-stim", "stimulus": "<p id=\"stim\">6</p>", "internal_node_id": "0.0-148.0-4.0", "time_elapsed": 968521, "key_press": -1, "trial_index": 206}, "uniqueid": "MTK2770:35GMH2SV3FOOABSPJQ0U7LIR1SFEOG", "dateTime": 1519330332893}, {"current_trial": 207, "trialdata": {"rt": -1, "trial_type": "single-stim", "stimulus": "<p id=\"stim\">5</p>", "internal_node_id": "0.0-148.0-5.0", "time_elapsed": 969523, "key_press": -1, "trial_index": 207}, "uniqueid": "MTK2770:35GMH2SV3FOOABSPJQ0U7LIR1SFEOG", "dateTime": 1519330333895}, {"current_trial": 208, "trialdata": {"rt": -1, "trial_type": "single-stim", "stimulus": "<p id=\"stim\">4</p>", "internal_node_id": "0.0-148.0-6.0", "time_elapsed": 970525, "key_press": -1, "trial_index": 208}, "uniqueid": "MTK2770:35GMH2SV3FOOABSPJQ0U7LIR1SFEOG", "dateTime": 1519330334898}, {"current_trial": 209, "trialdata": {"rt": -1, "trial_type": "single-stim", "stimulus": "<p id=\"stim\">3</p>", "internal_node_id": "0.0-148.0-7.0", "time_elapsed": 971529, "key_press": -1, "trial_index": 209}, "uniqueid": "MTK2770:35GMH2SV3FOOABSPJQ0U7LIR1SFEOG", "dateTime": 1519330335901}, {"current_trial": 210, "trialdata": {"rt": -1, "trial_type": "single-stim", "stimulus": "<p id=\"stim\">2</p>", "internal_node_id": "0.0-148.0-8.0", "time_elapsed": 972532, "key_press": -1, "trial_index": 210}, "uniqueid": "MTK2770:35GMH2SV3FOOABSPJQ0U7LIR1SFEOG", "dateTime": 1519330336904}, {"current_trial": 211, "trialdata": {"rt": -1, "trial_type": "single-stim", "stimulus": "<p id=\"stim\">1</p>", "internal_node_id": "0.0-148.0-9.0", "time_elapsed": 973535, "key_press": -1, "trial_index": 211}, "uniqueid": "MTK2770:35GMH2SV3FOOABSPJQ0U7LIR1SFEOG", "dateTime": 1519330337907}, {"current_trial": 212, "trialdata": {"rt": -1, "trial_type": "single-stim", "stimulus": "<p id=\"stim\">+</p>", "internal_node_id": "0.0-149.0-0.0", "time_elapsed": 975037, "key_press": -1, "type": "FIXATION", "trial_index": 212}, "uniqueid": "MTK2770:35GMH2SV3FOOABSPJQ0U7LIR1SFEOG", "dateTime": 1519330339409}, {"current_trial": 213, "trialdata": {"rt": -1, "trial_type": "single-stim", "word": "pork", "stimulus": "<p id=\"stim\">PORK</p>", "conditions": [12, 800, "v", 24000], "internal_node_id": "0.0-150.0", "trial": 6, "time_elapsed": 975840, "serialpos": 0, "key_press": -1, "wordID": 1107, "type": "PRES_VIS", "trial_index": 213}, "uniqueid": "MTK2770:35GMH2SV3FOOABSPJQ0U7LIR1SFEOG", "dateTime": 1519330340212}, {"current_trial": 214, "trialdata": {"rt": -1, "trial_type": "single-stim", "word": "turkey", "stimulus": "<p id=\"stim\">TURKEY</p>", "conditions": [12, 800, "v", 24000], "internal_node_id": "0.0-151.0", "trial": 6, "time_elapsed": 977566, "serialpos": 1, "key_press": -1, "wordID": 1519, "type": "PRES_VIS", "trial_index": 214}, "uniqueid": "MTK2770:35GMH2SV3FOOABSPJQ0U7LIR1SFEOG", "dateTime": 1519330341938}, {"current_trial": 215, "trialdata": {"rt": -1, "trial_type": "single-stim", "word": "child", "stimulus": "<p id=\"stim\">CHILD</p>", "conditions": [12, 800, "v", 24000], "internal_node_id": "0.0-152.0", "trial": 6, "time_elapsed": 979269, "serialpos": 2, "key_press": -1, "wordID": 298, "type": "PRES_VIS", "trial_index": 215}, "uniqueid": "MTK2770:35GMH2SV3FOOABSPJQ0U7LIR1SFEOG", "dateTime": 1519330343641}, {"current_trial": 216, "trialdata": {"rt": -1, "trial_type": "single-stim", "word": "package", "stimulus": "<p id=\"stim\">PACKAGE</p>", "conditions": [12, 800, "v", 24000], "internal_node_id": "0.0-153.0", "trial": 6, "time_elapsed": 980873, "serialpos": 3, "key_press": -1, "wordID": 996, "type": "PRES_VIS", "trial_index": 216}, "uniqueid": "MTK2770:35GMH2SV3FOOABSPJQ0U7LIR1SFEOG", "dateTime": 1519330345245}, {"current_trial": 217, "trialdata": {"rt": -1, "trial_type": "single-stim", "word": "hound", "stimulus": "<p id=\"stim\">HOUND</p>", "conditions": [12, 800, "v", 24000], "internal_node_id": "0.0-154.0", "trial": 6, "time_elapsed": 982540, "serialpos": 4, "key_press": -1, "wordID": 723, "type": "PRES_VIS", "trial_index": 217}, "uniqueid": "MTK2770:35GMH2SV3FOOABSPJQ0U7LIR1SFEOG", "dateTime": 1519330346912}, {"current_trial": 218, "trialdata": {"rt": -1, "trial_type": "single-stim", "word": "survey", "stimulus": "<p id=\"stim\">SURVEY</p>", "conditions": [12, 800, "v", 24000], "internal_node_id": "0.0-155.0", "trial": 6, "time_elapsed": 984356, "serialpos": 5, "key_press": -1, "wordID": 1413, "type": "PRES_VIS", "trial_index": 218}, "uniqueid": "MTK2770:35GMH2SV3FOOABSPJQ0U7LIR1SFEOG", "dateTime": 1519330348728}, {"current_trial": 219, "trialdata": {"rt": -1, "trial_type": "single-stim", "word": "infant", "stimulus": "<p id=\"stim\">INFANT</p>", "conditions": [12, 800, "v", 24000], "internal_node_id": "0.0-156.0", "trial": 6, "time_elapsed": 986216, "serialpos": 6, "key_press": -1, "wordID": 736, "type": "PRES_VIS", "trial_index": 219}, "uniqueid": "MTK2770:35GMH2SV3FOOABSPJQ0U7LIR1SFEOG", "dateTime": 1519330350588}, {"current_trial": 220, "trialdata": {"rt": -1, "trial_type": "single-stim", "word": "pliers", "stimulus": "<p id=\"stim\">PLIERS</p>", "conditions": [12, 800, "v", 24000], "internal_node_id": "0.0-157.0", "trial": 6, "time_elapsed": 987906, "serialpos": 7, "key_press": -1, "wordID": 1088, "type": "PRES_VIS", "trial_index": 220}, "uniqueid": "MTK2770:35GMH2SV3FOOABSPJQ0U7LIR1SFEOG", "dateTime": 1519330352279}, {"current_trial": 221, "trialdata": {"rt": -1, "trial_type": "single-stim", "word": "gift", "stimulus": "<p id=\"stim\">GIFT</p>", "conditions": [12, 800, "v", 24000], "internal_node_id": "0.0-158.0", "trial": 6, "time_elapsed": 989704, "serialpos": 8, "key_press": -1, "wordID": 634, "type": "PRES_VIS", "trial_index": 221}, "uniqueid": "MTK2770:35GMH2SV3FOOABSPJQ0U7LIR1SFEOG", "dateTime": 1519330354076}, {"current_trial": 222, "trialdata": {"rt": -1, "trial_type": "single-stim", "word": "stamp", "stimulus": "<p id=\"stim\">STAMP</p>", "conditions": [12, 800, "v", 24000], "internal_node_id": "0.0-159.0", "trial": 6, "time_elapsed": 991660, "serialpos": 9, "key_press": -1, "wordID": 1369, "type": "PRES_VIS", "trial_index": 222}, "uniqueid": "MTK2770:35GMH2SV3FOOABSPJQ0U7LIR1SFEOG", "dateTime": 1519330356032}, {"current_trial": 223, "trialdata": {"rt": -1, "trial_type": "single-stim", "word": "window", "stimulus": "<p id=\"stim\">WINDOW</p>", "conditions": [12, 800, "v", 24000], "internal_node_id": "0.0-160.0", "trial": 6, "time_elapsed": 993530, "serialpos": 10, "key_press": -1, "wordID": 1610, "type": "PRES_VIS", "trial_index": 223}, "uniqueid": "MTK2770:35GMH2SV3FOOABSPJQ0U7LIR1SFEOG", "dateTime": 1519330357902}, {"current_trial": 224, "trialdata": {"rt": -1, "trial_type": "single-stim", "word": "binder", "stimulus": "<p id=\"stim\">BINDER</p>", "conditions": [12, 800, "v", 24000], "internal_node_id": "0.0-161.0", "trial": 6, "time_elapsed": 995341, "serialpos": 11, "key_press": -1, "wordID": 126, "type": "PRES_VIS", "trial_index": 224}, "uniqueid": "MTK2770:35GMH2SV3FOOABSPJQ0U7LIR1SFEOG", "dateTime": 1519330359713}, {"current_trial": 225, "trialdata": {"rt": -1, "trial_type": "single-stim", "stimulus": "", "internal_node_id": "0.0-162.0-0.0", "time_elapsed": 997477, "key_press": -1, "type": "PRE_RECALL_DELAY", "trial_index": 225}, "uniqueid": "MTK2770:35GMH2SV3FOOABSPJQ0U7LIR1SFEOG", "dateTime": 1519330361850}, {"current_trial": 226, "trialdata": {"rt": -1000, "trial_type": "single-audio", "stimulus": "/static/audio/400Hz.wav", "internal_node_id": "0.0-163.0", "time_elapsed": 997979, "key_press": -1, "type": "PRE_RECALL_ALERT", "trial_index": 226}, "uniqueid": "MTK2770:35GMH2SV3FOOABSPJQ0U7LIR1SFEOG", "dateTime": 1519330362351}, {"current_trial": 227, "trialdata": {"rt": [2375, 3734, 4518, 5518, 6366, 7934, 9335, 12615], "recwords": ["pork", "turkey", "child", "package", "houd", "hound", "binder", "gift"], "key_times": [1767, 1943, 2142, 2286, 2375, 3046, 3175, 3271, 3366, 3462, 3585, 3734, 3887, 3983, 4150, 4310, 4414, 4518, 4711, 4822, 5007, 5079, 5207, 5318, 5439, 5518, 5735, 5919, 6070, 6158, 6366, 7240, 7406, 7574, 7719, 7783, 7934, 8622, 8734, 8887, 8927, 9110, 9239, 9335, 12159, 12255, 12350, 12535, 12615], "trial_type": "free-recall", "conditions": [12, 800, "v", 24000], "internal_node_id": "0.0-164.0-0.0", "key_presses": [80, 79, 82, 75, 32, 84, 85, 82, 75, 69, 89, 13, 67, 72, 73, 76, 68, 13, 80, 65, 67, 75, 65, 71, 69, 13, 72, 79, 85, 68, 13, 72, 79, 85, 78, 68, 13, 66, 73, 78, 68, 69, 82, 13, 71, 73, 70, 84, 13], "trial": 6, "time_elapsed": 1057982, "type": "FREE_RECALL", "trial_index": 227}, "uniqueid": "MTK2770:35GMH2SV3FOOABSPJQ0U7LIR1SFEOG", "dateTime": 1519330422357}, {"current_trial": 228, "trialdata": {"rt": 2968, "trial_type": "text", "internal_node_id": "0.0-165.0", "time_elapsed": 1062955, "key_press": 32, "type": "INSTRUCTIONS", "trial_index": 228}, "uniqueid": "MTK2770:35GMH2SV3FOOABSPJQ0U7LIR1SFEOG", "dateTime": 1519330427327}, {"current_trial": 229, "trialdata": {"rt": [2406, 5981, 8142, 11902], "trial_type": "math-distractor", "key_times": [1918, 2157, 2406, 5582, 5742, 5981, 7830, 7909, 8142, 11493, 11662, 11902], "responses": ["17", "12", "16", "21"], "num2": [2, 3, 1, 9, 7], "num3": [8, 3, 6, 5, 5], "conditions": [24, 1600, "v", 12000], "internal_node_id": "0.0-166.0", "key_presses": [49, 55, 13, 49, 50, 13, 49, 54, 13, 50, 49, 13], "trial": 7, "time_elapsed": 1076959, "type": "DISTRACTOR", "trial_index": 229, "num1": [7, 6, 9, 7, 2]}, "uniqueid": "MTK2770:35GMH2SV3FOOABSPJQ0U7LIR1SFEOG", "dateTime": 1519330441331}, {"current_trial": 230, "trialdata": {"rt": -1, "trial_type": "single-stim", "stimulus": "<p id=\"stim\">10</p>", "internal_node_id": "0.0-167.0-0.0", "time_elapsed": 1079962, "key_press": -1, "trial_index": 230}, "uniqueid": "MTK2770:35GMH2SV3FOOABSPJQ0U7LIR1SFEOG", "dateTime": 1519330444334}, {"current_trial": 231, "trialdata": {"rt": -1, "trial_type": "single-stim", "stimulus": "<p id=\"stim\">9</p>", "internal_node_id": "0.0-167.0-1.0", "time_elapsed": 1080964, "key_press": -1, "trial_index": 231}, "uniqueid": "MTK2770:35GMH2SV3FOOABSPJQ0U7LIR1SFEOG", "dateTime": 1519330445336}, {"current_trial": 232, "trialdata": {"rt": -1, "trial_type": "single-stim", "stimulus": "<p id=\"stim\">8</p>", "internal_node_id": "0.0-167.0-2.0", "time_elapsed": 1081965, "key_press": -1, "trial_index": 232}, "uniqueid": "MTK2770:35GMH2SV3FOOABSPJQ0U7LIR1SFEOG", "dateTime": 1519330446337}, {"current_trial": 233, "trialdata": {"rt": -1, "trial_type": "single-stim", "stimulus": "<p id=\"stim\">7</p>", "internal_node_id": "0.0-167.0-3.0", "time_elapsed": 1082967, "key_press": -1, "trial_index": 233}, "uniqueid": "MTK2770:35GMH2SV3FOOABSPJQ0U7LIR1SFEOG", "dateTime": 1519330447339}, {"current_trial": 234, "trialdata": {"rt": -1, "trial_type": "single-stim", "stimulus": "<p id=\"stim\">6</p>", "internal_node_id": "0.0-167.0-4.0", "time_elapsed": 1083969, "key_press": -1, "trial_index": 234}, "uniqueid": "MTK2770:35GMH2SV3FOOABSPJQ0U7LIR1SFEOG", "dateTime": 1519330448341}, {"current_trial": 235, "trialdata": {"rt": -1, "trial_type": "single-stim", "stimulus": "<p id=\"stim\">5</p>", "internal_node_id": "0.0-167.0-5.0", "time_elapsed": 1084970, "key_press": -1, "trial_index": 235}, "uniqueid": "MTK2770:35GMH2SV3FOOABSPJQ0U7LIR1SFEOG", "dateTime": 1519330449342}, {"current_trial": 236, "trialdata": {"rt": -1, "trial_type": "single-stim", "stimulus": "<p id=\"stim\">4</p>", "internal_node_id": "0.0-167.0-6.0", "time_elapsed": 1085972, "key_press": -1, "trial_index": 236}, "uniqueid": "MTK2770:35GMH2SV3FOOABSPJQ0U7LIR1SFEOG", "dateTime": 1519330450344}, {"current_trial": 237, "trialdata": {"rt": -1, "trial_type": "single-stim", "stimulus": "<p id=\"stim\">3</p>", "internal_node_id": "0.0-167.0-7.0", "time_elapsed": 1086973, "key_press": -1, "trial_index": 237}, "uniqueid": "MTK2770:35GMH2SV3FOOABSPJQ0U7LIR1SFEOG", "dateTime": 1519330451345}, {"current_trial": 238, "trialdata": {"rt": -1, "trial_type": "single-stim", "stimulus": "<p id=\"stim\">2</p>", "internal_node_id": "0.0-167.0-8.0", "time_elapsed": 1087974, "key_press": -1, "trial_index": 238}, "uniqueid": "MTK2770:35GMH2SV3FOOABSPJQ0U7LIR1SFEOG", "dateTime": 1519330452346}, {"current_trial": 239, "trialdata": {"rt": -1, "trial_type": "single-stim", "stimulus": "<p id=\"stim\">1</p>", "internal_node_id": "0.0-167.0-9.0", "time_elapsed": 1088976, "key_press": -1, "trial_index": 239}, "uniqueid": "MTK2770:35GMH2SV3FOOABSPJQ0U7LIR1SFEOG", "dateTime": 1519330453349}, {"current_trial": 240, "trialdata": {"rt": -1, "trial_type": "single-stim", "stimulus": "<p id=\"stim\">+</p>", "internal_node_id": "0.0-168.0-0.0", "time_elapsed": 1090478, "key_press": -1, "type": "FIXATION", "trial_index": 240}, "uniqueid": "MTK2770:35GMH2SV3FOOABSPJQ0U7LIR1SFEOG", "dateTime": 1519330454850}, {"current_trial": 241, "trialdata": {"rt": -1, "trial_type": "single-stim", "word": "river", "stimulus": "<p id=\"stim\">RIVER</p>", "conditions": [24, 1600, "v", 12000], "internal_node_id": "0.0-169.0", "trial": 7, "time_elapsed": 1092079, "serialpos": 0, "key_press": -1, "wordID": 1193, "type": "PRES_VIS", "trial_index": 241}, "uniqueid": "MTK2770:35GMH2SV3FOOABSPJQ0U7LIR1SFEOG", "dateTime": 1519330456451}, {"current_trial": 242, "trialdata": {"rt": -1, "trial_type": "single-stim", "word": "popcorn", "stimulus": "<p id=\"stim\">POPCORN</p>", "conditions": [24, 1600, "v", 12000], "internal_node_id": "0.0-170.0", "trial": 7, "time_elapsed": 1094843, "serialpos": 1, "key_press": -1, "wordID": 1103, "type": "PRES_VIS", "trial_index": 242}, "uniqueid": "MTK2770:35GMH2SV3FOOABSPJQ0U7LIR1SFEOG", "dateTime": 1519330459215}, {"current_trial": 243, "trialdata": {"rt": -1, "trial_type": "single-stim", "word": "concert", "stimulus": "<p id=\"stim\">CONCERT</p>", "conditions": [24, 1600, "v", 12000], "internal_node_id": "0.0-171.0", "trial": 7, "time_elapsed": 1097251, "serialpos": 2, "key_press": -1, "wordID": 359, "type": "PRES_VIS", "trial_index": 243}, "uniqueid": "MTK2770:35GMH2SV3FOOABSPJQ0U7LIR1SFEOG", "dateTime": 1519330461624}, {"current_trial": 244, "trialdata": {"rt": -1, "trial_type": "single-stim", "word": "flower", "stimulus": "<p id=\"stim\">FLOWER</p>", "conditions": [24, 1600, "v", 12000], "internal_node_id": "0.0-172.0", "trial": 7, "time_elapsed": 1099879, "serialpos": 3, "key_press": -1, "wordID": 583, "type": "PRES_VIS", "trial_index": 244}, "uniqueid": "MTK2770:35GMH2SV3FOOABSPJQ0U7LIR1SFEOG", "dateTime": 1519330464251}, {"current_trial": 245, "trialdata": {"rt": -1, "trial_type": "single-stim", "word": "gravel", "stimulus": "<p id=\"stim\">GRAVEL</p>", "conditions": [24, 1600, "v", 12000], "internal_node_id": "0.0-173.0", "trial": 7, "time_elapsed": 1102623, "serialpos": 4, "key_press": -1, "wordID": 658, "type": "PRES_VIS", "trial_index": 245}, "uniqueid": "MTK2770:35GMH2SV3FOOABSPJQ0U7LIR1SFEOG", "dateTime": 1519330466995}, {"current_trial": 246, "trialdata": {"rt": -1, "trial_type": "single-stim", "word": "robber", "stimulus": "<p id=\"stim\">ROBBER</p>", "conditions": [24, 1600, "v", 12000], "internal_node_id": "0.0-174.0", "trial": 7, "time_elapsed": 1105401, "serialpos": 5, "key_press": -1, "wordID": 1196, "type": "PRES_VIS", "trial_index": 246}, "uniqueid": "MTK2770:35GMH2SV3FOOABSPJQ0U7LIR1SFEOG", "dateTime": 1519330469773}, {"current_trial": 247, "trialdata": {"rt": -1, "trial_type": "single-stim", "word": "cashier", "stimulus": "<p id=\"stim\">CASHIER</p>", "conditions": [24, 1600, "v", 12000], "internal_node_id": "0.0-175.0", "trial": 7, "time_elapsed": 1108029, "serialpos": 6, "key_press": -1, "wordID": 253, "type": "PRES_VIS", "trial_index": 247}, "uniqueid": "MTK2770:35GMH2SV3FOOABSPJQ0U7LIR1SFEOG", "dateTime": 1519330472401}, {"current_trial": 248, "trialdata": {"rt": -1, "trial_type": "single-stim", "word": "slime", "stimulus": "<p id=\"stim\">SLIME</p>", "conditions": [24, 1600, "v", 12000], "internal_node_id": "0.0-176.0", "trial": 7, "time_elapsed": 1110518, "serialpos": 7, "key_press": -1, "wordID": 1326, "type": "PRES_VIS", "trial_index": 248}, "uniqueid": "MTK2770:35GMH2SV3FOOABSPJQ0U7LIR1SFEOG", "dateTime": 1519330474890}, {"current_trial": 249, "trialdata": {"rt": -1, "trial_type": "single-stim", "word": "brook", "stimulus": "<p id=\"stim\">BROOK</p>", "conditions": [24, 1600, "v", 12000], "internal_node_id": "0.0-177.0", "trial": 7, "time_elapsed": 1112933, "serialpos": 8, "key_press": -1, "wordID": 176, "type": "PRES_VIS", "trial_index": 249}, "uniqueid": "MTK2770:35GMH2SV3FOOABSPJQ0U7LIR1SFEOG", "dateTime": 1519330477305}, {"current_trial": 250, "trialdata": {"rt": -1, "trial_type": "single-stim", "word": "trench", "stimulus": "<p id=\"stim\">TRENCH</p>", "conditions": [24, 1600, "v", 12000], "internal_node_id": "0.0-178.0", "trial": 7, "time_elapsed": 1115407, "serialpos": 9, "key_press": -1, "wordID": 1502, "type": "PRES_VIS", "trial_index": 250}, "uniqueid": "MTK2770:35GMH2SV3FOOABSPJQ0U7LIR1SFEOG", "dateTime": 1519330479779}, {"current_trial": 251, "trialdata": {"rt": -1, "trial_type": "single-stim", "word": "parent", "stimulus": "<p id=\"stim\">PARENT</p>", "conditions": [24, 1600, "v", 12000], "internal_node_id": "0.0-179.0", "trial": 7, "time_elapsed": 1118138, "serialpos": 10, "key_press": -1, "wordID": 1012, "type": "PRES_VIS", "trial_index": 251}, "uniqueid": "MTK2770:35GMH2SV3FOOABSPJQ0U7LIR1SFEOG", "dateTime": 1519330482510}, {"current_trial": 252, "trialdata": {"rt": -1, "trial_type": "single-stim", "word": "bouquet", "stimulus": "<p id=\"stim\">BOUQUET</p>", "conditions": [24, 1600, "v", 12000], "internal_node_id": "0.0-180.0", "trial": 7, "time_elapsed": 1120700, "serialpos": 11, "key_press": -1, "wordID": 156, "type": "PRES_VIS", "trial_index": 252}, "uniqueid": "MTK2770:35GMH2SV3FOOABSPJQ0U7LIR1SFEOG", "dateTime": 1519330485072}, {"current_trial": 253, "trialdata": {"rt": -1, "trial_type": "single-stim", "word": "powder", "stimulus": "<p id=\"stim\">POWDER</p>", "conditions": [24, 1600, "v", 12000], "internal_node_id": "0.0-181.0", "trial": 7, "time_elapsed": 1123416, "serialpos": 12, "key_press": -1, "wordID": 1116, "type": "PRES_VIS", "trial_index": 253}, "uniqueid": "MTK2770:35GMH2SV3FOOABSPJQ0U7LIR1SFEOG", "dateTime": 1519330487788}, {"current_trial": 254, "trialdata": {"rt": -1, "trial_type": "single-stim", "word": "chemist", "stimulus": "<p id=\"stim\">CHEMIST</p>", "conditions": [24, 1600, "v", 12000], "internal_node_id": "0.0-182.0", "trial": 7, "time_elapsed": 1125946, "serialpos": 13, "key_press": -1, "wordID": 291, "type": "PRES_VIS", "trial_index": 254}, "uniqueid": "MTK2770:35GMH2SV3FOOABSPJQ0U7LIR1SFEOG", "dateTime": 1519330490318}, {"current_trial": 255, "trialdata": {"rt": -1, "trial_type": "single-stim", "word": "donor", "stimulus": "<p id=\"stim\">DONOR</p>", "conditions": [24, 1600, "v", 12000], "internal_node_id": "0.0-183.0", "trial": 7, "time_elapsed": 1128613, "serialpos": 14, "key_press": -1, "wordID": 484, "type": "PRES_VIS", "trial_index": 255}, 