{"assignmentId": "3C2NJ6JBKBOEXAGXPR5GQV9XCKB2NM", "workerId": "MTK2383", "questiondata": {"origin": "United States", "strat-rehearsal": "35", "marital": "Single", "education": "Doctorate degree", "ethnicity": "Not Hispanic", "color_depth": 24, "distracted": "No", "wrote-notes": "No", "strat-other": "", "screen_width": 1366, "avail_screen_width": 1366, "avail_screen_height": 728, "strat-image": "10", "language": "English", "gender": "Male", "age": "36", "gender_other": "", "race": ["White"], "strat-categorize": "65", "pixel_depth": 24, "strat-spatial": "5", "strat-story": "25", "race_other": "", "screen_height": 768}, "bonus": 0, "hitId": "32W3UF2EZOS3M00ZEDAOEFGZEWGC47", "counterbalance": 2629, "useragent": "Mozilla/5.0 (Windows NT 10.0; Win64; x64) AppleWebKit/537.36 (KHTML, like Gecko) Chrome/63.0.3239.132 Safari/537.36", "eventdata": [{"eventtype": "initialized", "interval": 0, "value": null, "timestamp": 1517004795043}, {"eventtype": "window_resize", "interval": 0, "value": [1366, 721], "timestamp": 1517004795043}, {"eventtype": "window_resize", "interval": 12213, "value": [1366, 719], "timestamp": 1517004807256}, {"eventtype": "window_resize", "interval": 4036, "value": [1366, 712], "timestamp": 1517004811292}, {"eventtype": "window_resize", "interval": 37840, "value": [1366, 709], "timestamp": 1517004849132}], "data": [{"current_trial": 0, "trialdata": {"rt": 5487, "trial_type": "text", "internal_node_id": "0.0-0.0", "time_elapsed": 5492, "key_press": 32, "type": "INSTRUCTIONS", "trial_index": 0}, "uniqueid": "MTK2383:3C2NJ6JBKBOEXAGXPR5GQV9XCKB2NM", "dateTime": 1517004815192}, {"current_trial": 1, "trialdata": {"rt": 16108, "trial_type": "text", "internal_node_id": "0.0-1.0", "time_elapsed": 21605, "key_press": 32, "type": "INSTRUCTIONS", "trial_index": 1}, "uniqueid": "MTK2383:3C2NJ6JBKBOEXAGXPR5GQV9XCKB2NM", "dateTime": 1517004831303}, {"current_trial": 2, "trialdata": {"rt": [18186], "trial_type": "audio-test", "responses": ["ocean"], "internal_node_id": "0.0-2.0", "time_elapsed": 39813, "type": "AUDIO_TEST", "trial_index": 2}, "uniqueid": "MTK2383:3C2NJ6JBKBOEXAGXPR5GQV9XCKB2NM", "dateTime": 1517004849511}, {"current_trial": 3, "trialdata": {"rt": [31442], "trial_type": "audio-test", "responses": ["crystal"], "internal_node_id": "0.0-3.0", "time_elapsed": 71261, "type": "AUDIO_TEST", "trial_index": 3}, "uniqueid": "MTK2383:3C2NJ6JBKBOEXAGXPR5GQV9XCKB2NM", "dateTime": 1517004880959}, {"current_trial": 4, "trialdata": {"rt": [8434], "trial_type": "audio-test", "responses": ["spice"], "internal_node_id": "0.0-4.0", "time_elapsed": 79700, "type": "AUDIO_TEST", "trial_index": 4}, "uniqueid": "MTK2383:3C2NJ6JBKBOEXAGXPR5GQV9XCKB2NM", "dateTime": 1517004889398}, {"current_trial": 5, "trialdata": {"rt": 45123, "trial_type": "survey-text", "responses": "{\"Q0\":\"9pm\",\"Q1\":\"7am\",\"Q2\":\"3\"}", "internal_node_id": "0.0-5.0", "time_elapsed": 125577, "type": "SLEEP_SURVEY", "trial_index": 5}, "uniqueid": "MTK2383:3C2NJ6JBKBOEXAGXPR5GQV9XCKB2NM", "dateTime": 1517004935275}, {"current_trial": 6, "trialdata": {"rt": 64101, "trial_type": "text", "internal_node_id": "0.0-6.0", "time_elapsed": 190682, "key_press": 32, "type": "INSTRUCTIONS", "trial_index": 6}, "uniqueid": "MTK2383:3C2NJ6JBKBOEXAGXPR5GQV9XCKB2NM", "dateTime": 1517005000380}, {"current_trial": 7, "trialdata": {"rt": 27730, "trial_type": "text", "internal_node_id": "0.0-7.0", "time_elapsed": 218914, "key_press": 32, "type": "INSTRUCTIONS", "trial_index": 7}, "uniqueid": "MTK2383:3C2NJ6JBKBOEXAGXPR5GQV9XCKB2NM", "dateTime": 1517005028612}, {"current_trial": 8, "trialdata": {"rt": 11064, "trial_type": "text", "internal_node_id": "0.0-8.0", "time_elapsed": 230480, "key_press": 32, "type": "INSTRUCTIONS", "trial_index": 8}, "uniqueid": "MTK2383:3C2NJ6JBKBOEXAGXPR5GQV9XCKB2NM", "dateTime": 1517005040178}, {"current_trial": 9, "trialdata": {"rt": [4702, 8634, 11252, 14303, 16552], "trial_type": "math-distractor", "key_times": [3670, 4702, 7424, 7994, 8634, 9795, 10506, 11252, 13581, 13869, 14303, 15824, 16043, 16552], "responses": ["9", "16", "16", "18", "11"], "num2": [1, 1, 7, 7, 1, 2], "num3": [6, 8, 1, 5, 1, 8], "conditions": [18, 1200, "a", 18000], "internal_node_id": "0.0-9.0", "key_presses": [57, 13, 49, 54, 13, 49, 54, 13, 49, 56, 13, 49, 49, 13], "trial": 0, "time_elapsed": 249494, "type": "DISTRACTOR", "trial_index": 9, "num1": [2, 7, 8, 6, 9, 3]}, "uniqueid": "MTK2383:3C2NJ6JBKBOEXAGXPR5GQV9XCKB2NM", "dateTime": 1517005059193}, {"current_trial": 10, "trialdata": {"rt": -1, "trial_type": "single-stim", "stimulus": "<p id=\"stim\">10</p>", "internal_node_id": "0.0-10.0-0.0", "time_elapsed": 252500, "key_press": -1, "trial_index": 10}, "uniqueid": "MTK2383:3C2NJ6JBKBOEXAGXPR5GQV9XCKB2NM", "dateTime": 1517005062198}, {"current_trial": 11, "trialdata": {"rt": -1, "trial_type": "single-stim", "stimulus": "<p id=\"stim\">9</p>", "internal_node_id": "0.0-10.0-1.0", "time_elapsed": 253503, "key_press": -1, "trial_index": 11}, "uniqueid": "MTK2383:3C2NJ6JBKBOEXAGXPR5GQV9XCKB2NM", "dateTime": 1517005063201}, {"current_trial": 12, "trialdata": {"rt": -1, "trial_type": "single-stim", "stimulus": "<p id=\"stim\">8</p>", "internal_node_id": "0.0-10.0-2.0", "time_elapsed": 254505, "key_press": -1, "trial_index": 12}, "uniqueid": "MTK2383:3C2NJ6JBKBOEXAGXPR5GQV9XCKB2NM", "dateTime": 1517005064203}, {"current_trial": 13, "trialdata": {"rt": -1, "trial_type": "single-stim", "stimulus": "<p id=\"stim\">7</p>", "internal_node_id": "0.0-10.0-3.0", "time_elapsed": 255507, "key_press": -1, "trial_index": 13}, "uniqueid": "MTK2383:3C2NJ6JBKBOEXAGXPR5GQV9XCKB2NM", "dateTime": 1517005065205}, {"current_trial": 14, "trialdata": {"rt": -1, "trial_type": "single-stim", "stimulus": "<p id=\"stim\">6</p>", "internal_node_id": "0.0-10.0-4.0", "time_elapsed": 256510, "key_press": -1, "trial_index": 14}, "uniqueid": "MTK2383:3C2NJ6JBKBOEXAGXPR5GQV9XCKB2NM", "dateTime": 1517005066208}, {"current_trial": 15, "trialdata": {"rt": -1, "trial_type": "single-stim", "stimulus": "<p id=\"stim\">5</p>", "internal_node_id": "0.0-10.0-5.0", "time_elapsed": 257513, "key_press": -1, "trial_index": 15}, "uniqueid": "MTK2383:3C2NJ6JBKBOEXAGXPR5GQV9XCKB2NM", "dateTime": 1517005067211}, {"current_trial": 16, "trialdata": {"rt": -1, "trial_type": "single-stim", "stimulus": "<p id=\"stim\">4</p>", "internal_node_id": "0.0-10.0-6.0", "time_elapsed": 258515, "key_press": -1, "trial_index": 16}, "uniqueid": "MTK2383:3C2NJ6JBKBOEXAGXPR5GQV9XCKB2NM", "dateTime": 1517005068213}, {"current_trial": 17, "trialdata": {"rt": -1, "trial_type": "single-stim", "stimulus": "<p id=\"stim\">3</p>", "internal_node_id": "0.0-10.0-7.0", "time_elapsed": 259519, "key_press": -1, "trial_index": 17}, "uniqueid": "MTK2383:3C2NJ6JBKBOEXAGXPR5GQV9XCKB2NM", "dateTime": 1517005069217}, {"current_trial": 18, "trialdata": {"rt": -1, "trial_type": "single-stim", "stimulus": "<p id=\"stim\">2</p>", "internal_node_id": "0.0-10.0-8.0", "time_elapsed": 260521, "key_press": -1, "trial_index": 18}, "uniqueid": "MTK2383:3C2NJ6JBKBOEXAGXPR5GQV9XCKB2NM", "dateTime": 1517005070220}, {"current_trial": 19, "trialdata": {"rt": -1, "trial_type": "single-stim", "stimulus": "<p id=\"stim\">1</p>", "internal_node_id": "0.0-10.0-9.0", "time_elapsed": 261524, "key_press": -1, "trial_index": 19}, "uniqueid": "MTK2383:3C2NJ6JBKBOEXAGXPR5GQV9XCKB2NM", "dateTime": 1517005071222}, {"current_trial": 20, "trialdata": {"rt": -1, "trial_type": "single-stim", "stimulus": "<p id=\"stim\">+</p>", "internal_node_id": "0.0-11.0-0.0", "time_elapsed": 263026, "key_press": -1, "type": "FIXATION", "trial_index": 20}, "uniqueid": "MTK2383:3C2NJ6JBKBOEXAGXPR5GQV9XCKB2NM", "dateTime": 1517005072724}, {"current_trial": 21, "trialdata": {"rt": -1000, "trial_type": "single-audio", "word": "hawk", "stimulus": "/static/audio/wordpool/HAWK.wav", "conditions": [18, 1200, "a", 18000], "internal_node_id": "0.0-12.0", "trial": 0, "time_elapsed": 265386, "serialpos": 0, "key_press": -1, "wordID": 691, "type": "PRES_AUD", "trial_index": 21}, "uniqueid": "MTK2383:3C2NJ6JBKBOEXAGXPR5GQV9XCKB2NM", "dateTime": 1517005075085}, {"current_trial": 22, "trialdata": {"rt": -1000, "trial_type": "single-audio", "word": "penguin", "stimulus": "/static/audio/wordpool/PENGUIN.wav", "conditions": [18, 1200, "a", 18000], "internal_node_id": "0.0-13.0", "trial": 0, "time_elapsed": 267558, "serialpos": 1, "key_press": -1, "wordID": 1043, "type": "PRES_AUD", "trial_index": 22}, "uniqueid": "MTK2383:3C2NJ6JBKBOEXAGXPR5GQV9XCKB2NM", "dateTime": 1517005077256}, {"current_trial": 23, "trialdata": {"rt": -1000, "trial_type": "single-audio", "word": "sculpture", "stimulus": "/static/audio/wordpool/SCULPTURE.wav", "conditions": [18, 1200, "a", 18000], "internal_node_id": "0.0-14.0", "trial": 0, "time_elapsed": 269715, "serialpos": 2, "key_press": -1, "wordID": 1257, "type": "PRES_AUD", "trial_index": 23}, "uniqueid": "MTK2383:3C2NJ6JBKBOEXAGXPR5GQV9XCKB2NM", "dateTime": 1517005079413}, {"current_trial": 24, "trialdata": {"rt": -1000, "trial_type": "single-audio", "word": "hood", "stimulus": "/static/audio/wordpool/HOOD.wav", "conditions": [18, 1200, "a", 18000], "internal_node_id": "0.0-15.0", "trial": 0, "time_elapsed": 271837, "serialpos": 3, "key_press": -1, "wordID": 713, "type": "PRES_AUD", "trial_index": 24}, "uniqueid": "MTK2383:3C2NJ6JBKBOEXAGXPR5GQV9XCKB2NM", "dateTime": 1517005081536}, {"current_trial": 25, "trialdata": {"rt": -1000, "trial_type": "single-audio", "word": "child", "stimulus": "/static/audio/wordpool/CHILD.wav", "conditions": [18, 1200, "a", 18000], "internal_node_id": "0.0-16.0", "trial": 0, "time_elapsed": 274236, "serialpos": 4, "key_press": -1, "wordID": 298, "type": "PRES_AUD", "trial_index": 25}, "uniqueid": "MTK2383:3C2NJ6JBKBOEXAGXPR5GQV9XCKB2NM", "dateTime": 1517005083934}, {"current_trial": 26, "trialdata": {"rt": -1000, "trial_type": "single-audio", "word": "cabbage", "stimulus": "/static/audio/wordpool/CABBAGE.wav", "conditions": [18, 1200, "a", 18000], "internal_node_id": "0.0-17.0", "trial": 0, "time_elapsed": 276346, "serialpos": 5, "key_press": -1, "wordID": 209, "type": "PRES_AUD", "trial_index": 26}, "uniqueid": "MTK2383:3C2NJ6JBKBOEXAGXPR5GQV9XCKB2NM", "dateTime": 1517005086045}, {"current_trial": 27, "trialdata": {"rt": -1000, "trial_type": "single-audio", "word": "grave", "stimulus": "/static/audio/wordpool/GRAVE.wav", "conditions": [18, 1200, "a", 18000], "internal_node_id": "0.0-18.0", "trial": 0, "time_elapsed": 278479, "serialpos": 6, "key_press": -1, "wordID": 657, "type": "PRES_AUD", "trial_index": 27}, "uniqueid": "MTK2383:3C2NJ6JBKBOEXAGXPR5GQV9XCKB2NM", "dateTime": 1517005088177}, {"current_trial": 28, "trialdata": {"rt": -1000, "trial_type": "single-audio", "word": "scarf", "stimulus": "/static/audio/wordpool/SCARF.wav", "conditions": [18, 1200, "a", 18000], "internal_node_id": "0.0-19.0", "trial": 0, "time_elapsed": 280533, "serialpos": 7, "key_press": -1, "wordID": 1245, "type": "PRES_AUD", "trial_index": 28}, "uniqueid": "MTK2383:3C2NJ6JBKBOEXAGXPR5GQV9XCKB2NM", "dateTime": 1517005090231}, {"current_trial": 29, "trialdata": {"rt": -1000, "trial_type": "single-audio", "word": "softball", "stimulus": "/static/audio/wordpool/SOFTBALL.wav", "conditions": [18, 1200, "a", 18000], "internal_node_id": "0.0-20.0", "trial": 0, "time_elapsed": 282585, "serialpos": 8, "key_press": -1, "wordID": 1342, "type": "PRES_AUD", "trial_index": 29}, "uniqueid": "MTK2383:3C2NJ6JBKBOEXAGXPR5GQV9XCKB2NM", "dateTime": 1517005092283}, {"current_trial": 30, "trialdata": {"rt": -1000, "trial_type": "single-audio", "word": "lettuce", "stimulus": "/static/audio/wordpool/LETTUCE.wav", "conditions": [18, 1200, "a", 18000], "internal_node_id": "0.0-21.0", "trial": 0, "time_elapsed": 284849, "serialpos": 9, "key_press": -1, "wordID": 813, "type": "PRES_AUD", "trial_index": 30}, "uniqueid": "MTK2383:3C2NJ6JBKBOEXAGXPR5GQV9XCKB2NM", "dateTime": 1517005094548}, {"current_trial": 31, "trialdata": {"rt": -1000, "trial_type": "single-audio", "word": "salad", "stimulus": "/static/audio/wordpool/SALAD.wav", "conditions": [18, 1200, "a", 18000], "internal_node_id": "0.0-22.0", "trial": 0, "time_elapsed": 286983, "serialpos": 10, "key_press": -1, "wordID": 1223, "type": "PRES_AUD", "trial_index": 31}, "uniqueid": "MTK2383:3C2NJ6JBKBOEXAGXPR5GQV9XCKB2NM", "dateTime": 1517005096682}, {"current_trial": 32, "trialdata": {"rt": -1000, "trial_type": "single-audio", "word": "rattle", "stimulus": "/static/audio/wordpool/RATTLE.wav", "conditions": [18, 1200, "a", 18000], "internal_node_id": "0.0-23.0", "trial": 0, "time_elapsed": 289184, "serialpos": 11, "key_press": -1, "wordID": 1169, "type": "PRES_AUD", "trial_index": 32}, "uniqueid": "MTK2383:3C2NJ6JBKBOEXAGXPR5GQV9XCKB2NM", "dateTime": 1517005098882}, {"current_trial": 33, "trialdata": {"rt": -1000, "trial_type": "single-audio", "word": "convict", "stimulus": "/static/audio/wordpool/CONVICT.wav", "conditions": [18, 1200, "a", 18000], "internal_node_id": "0.0-24.0", "trial": 0, "time_elapsed": 291281, "serialpos": 12, "key_press": -1, "wordID": 370, "type": "PRES_AUD", "trial_index": 33}, "uniqueid": "MTK2383:3C2NJ6JBKBOEXAGXPR5GQV9XCKB2NM", "dateTime": 1517005100979}, {"current_trial": 34, "trialdata": {"rt": -1000, "trial_type": "single-audio", "word": "plate", "stimulus": "/static/audio/wordpool/PLATE.wav", "conditions": [18, 1200, "a", 18000], "internal_node_id": "0.0-25.0", "trial": 0, "time_elapsed": 293511, "serialpos": 13, "key_press": -1, "wordID": 1085, "type": "PRES_AUD", "trial_index": 34}, "uniqueid": "MTK2383:3C2NJ6JBKBOEXAGXPR5GQV9XCKB2NM", "dateTime": 1517005103209}, {"current_trial": 35, "trialdata": {"rt": -1000, "trial_type": "single-audio", "word": "church", "stimulus": "/static/audio/wordpool/CHURCH.wav", "conditions": [18, 1200, "a", 18000], "internal_node_id": "0.0-26.0", "trial": 0, "time_elapsed": 295807, "serialpos": 14, "key_press": -1, "wordID": 306, "type": "PRES_AUD", "trial_index": 35}, "uniqueid": "MTK2383:3C2NJ6JBKBOEXAGXPR5GQV9XCKB2NM", "dateTime": 1517005105505}, {"current_trial": 36, "trialdata": {"rt": -1000, "trial_type": "single-audio", "word": "leader", "stimulus": "/static/audio/wordpool/LEADER.wav", "conditions": [18, 1200, "a", 18000], "internal_node_id": "0.0-27.0", "trial": 0, "time_elapsed": 298043, "serialpos": 15, "key_press": -1, "wordID": 806, "type": "PRES_AUD", "trial_index": 36}, "uniqueid": "MTK2383:3C2NJ6JBKBOEXAGXPR5GQV9XCKB2NM", "dateTime": 1517005107742}, {"current_trial": 37, "trialdata": {"rt": -1000, "trial_type": "single-audio", "word": "marsh", "stimulus": "/static/audio/wordpool/MARSH.wav", "conditions": [18, 1200, "a", 18000], "internal_node_id": "0.0-28.0", "trial": 0, "time_elapsed": 300060, "serialpos": 16, "key_press": -1, "wordID": 873, "type": "PRES_AUD", "trial_index": 37}, "uniqueid": "MTK2383:3C2NJ6JBKBOEXAGXPR5GQV9XCKB2NM", "dateTime": 1517005109758}, {"current_trial": 38, "trialdata": {"rt": -1000, "trial_type": "single-audio", "word": "passage", "stimulus": "/static/audio/wordpool/PASSAGE.wav", "conditions": [18, 1200, "a", 18000], "internal_node_id": "0.0-29.0", "trial": 0, "time_elapsed": 302382, "serialpos": 17, "key_press": -1, "wordID": 1018, "type": "PRES_AUD", "trial_index": 38}, "uniqueid": "MTK2383:3C2NJ6JBKBOEXAGXPR5GQV9XCKB2NM", "dateTime": 1517005112081}, {"current_trial": 39, "trialdata": {"rt": -1, "trial_type": "single-stim", "stimulus": "", "internal_node_id": "0.0-30.0-0.0", "time_elapsed": 303679, "key_press": -1, "type": "PRE_RECALL_DELAY", "trial_index": 39}, "uniqueid": "MTK2383:3C2NJ6JBKBOEXAGXPR5GQV9XCKB2NM", "dateTime": 1517005113377}, {"current_trial": 40, "trialdata": {"rt": -1000, "trial_type": "single-audio", "stimulus": "/static/audio/400Hz.wav", "internal_node_id": "0.0-31.0", "time_elapsed": 304181, "key_press": -1, "type": "PRE_RECALL_ALERT", "trial_index": 40}, "uniqueid": "MTK2383:3C2NJ6JBKBOEXAGXPR5GQV9XCKB2NM", "dateTime": 1517005113879}, {"current_trial": 41, "trialdata": {"rt": [4816, 7319, 9906, 13626, 15401, 17149, 19023, 23684, 27110, 35056, 50679], "recwords": ["passage", "leader", "march", "penguin", "hawk", "child", "rattle", "lettuce", "cabbage", "salad", "convict"], "key_times": [2009, 2332, 2548, 3272, 3533, 3709, 4154, 4816, 6022, 6117, 6275, 6440, 6850, 6959, 7319, 8651, 8852, 8919, 9312, 9459, 9906, 11527, 11672, 11806, 12249, 12367, 12519, 12717, 13626, 14463, 14602, 14716, 14963, 15401, 16276, 16411, 16526, 16602, 16752, 17149, 17996, 18120, 18268, 18455, 18617, 18734, 19023, 22270, 22405, 22559, 22725, 23199, 23270, 23390, 23684, 24253, 24404, 24608, 24790, 25651, 25755, 25901, 27110, 28590, 28738, 29016, 29627, 29906, 35056, 46241, 46352, 46469, 46894, 47084, 47219, 48406, 50679], "trial_type": "free-recall", "conditions": [18, 1200, "a", 18000], "internal_node_id": "0.0-32.0-0.0", "key_presses": [80, 65, 83, 83, 65, 71, 69, 13, 76, 69, 65, 68, 69, 82, 13, 77, 65, 82, 67, 72, 13, 80, 69, 78, 71, 85, 73, 78, 13, 72, 65, 87, 75, 13, 67, 72, 73, 76, 68, 13, 82, 65, 84, 84, 76, 69, 13, 76, 69, 84, 84, 85, 67, 69, 13, 67, 65, 66, 66, 65, 71, 69, 13, 83, 65, 76, 65, 68, 13, 67, 79, 78, 86, 73, 67, 84, 13], "trial": 0, "time_elapsed": 364189, "type": "FREE_RECALL", "trial_index": 41}, "uniqueid": "MTK2383:3C2NJ6JBKBOEXAGXPR5GQV9XCKB2NM", "dateTime": 1517005173892}, {"current_trial": 42, "trialdata": {"rt": 2803, "trial_type": "text", "internal_node_id": "0.0-33.0", "time_elapsed": 368999, "key_press": 32, "type": "INSTRUCTIONS", "trial_index": 42}, "uniqueid": "MTK2383:3C2NJ6JBKBOEXAGXPR5GQV9XCKB2NM", "dateTime": 1517005178697}, {"current_trial": 43, "trialdata": {"rt": [3019, 6108, 8701, 12197, 17106], "trial_type": "math-distractor", "key_times": [2203, 2401, 3019, 5454, 5703, 6108, 7631, 8103, 8701, 9903, 10401, 11284, 11636, 12197, 14458, 14857, 15431, 15721, 16205, 16443, 17106], "responses": ["18", "12", "18", "17", "19"], "num2": [3, 1, 7, 4, 8, 5], "num3": [9, 6, 4, 6, 4, 9], "conditions": [18, 1200, "a", 18000], "internal_node_id": "0.0-34.0", "key_presses": [49, 56, 13, 49, 50, 13, 49, 56, 13, 49, 54, 8, 55, 13, 49, 56, 8, 48, 8, 57, 13], "trial": 1, "time_elapsed": 389006, "type": "DISTRACTOR", "trial_index": 43, "num1": [6, 5, 7, 7, 7, 6]}, "uniqueid": "MTK2383:3C2NJ6JBKBOEXAGXPR5GQV9XCKB2NM", "dateTime": 1517005198705}, {"current_trial": 44, "trialdata": {"rt": -1, "trial_type": "single-stim", "stimulus": "<p id=\"stim\">10</p>", "internal_node_id": "0.0-35.0-0.0", "time_elapsed": 392010, "key_press": -1, "trial_index": 44}, "uniqueid": "MTK2383:3C2NJ6JBKBOEXAGXPR5GQV9XCKB2NM", "dateTime": 1517005201708}, {"current_trial": 45, "trialdata": {"rt": -1, "trial_type": "single-stim", "stimulus": "<p id=\"stim\">9</p>", "internal_node_id": "0.0-35.0-1.0", "time_elapsed": 393012, "key_press": -1, "trial_index": 45}, "uniqueid": "MTK2383:3C2NJ6JBKBOEXAGXPR5GQV9XCKB2NM", "dateTime": 1517005202710}, {"current_trial": 46, "trialdata": {"rt": -1, "trial_type": "single-stim", "stimulus": "<p id=\"stim\">8</p>", "internal_node_id": "0.0-35.0-2.0", "time_elapsed": 394014, "key_press": -1, "trial_index": 46}, "uniqueid": "MTK2383:3C2NJ6JBKBOEXAGXPR5GQV9XCKB2NM", "dateTime": 1517005203713}, {"current_trial": 47, "trialdata": {"rt": -1, "trial_type": "single-stim", "stimulus": "<p id=\"stim\">7</p>", "internal_node_id": "0.0-35.0-3.0", "time_elapsed": 395017, "key_press": -1, "trial_index": 47}, "uniqueid": "MTK2383:3C2NJ6JBKBOEXAGXPR5GQV9XCKB2NM", "dateTime": 1517005204715}, {"current_trial": 48, "trialdata": {"rt": -1, "trial_type": "single-stim", "stimulus": "<p id=\"stim\">6</p>", "internal_node_id": "0.0-35.0-4.0", "time_elapsed": 396019, "key_press": -1, "trial_index": 48}, "uniqueid": "MTK2383:3C2NJ6JBKBOEXAGXPR5GQV9XCKB2NM", "dateTime": 1517005205717}, {"current_trial": 49, "trialdata": {"rt": -1, "trial_type": "single-stim", "stimulus": "<p id=\"stim\">5</p>", "internal_node_id": "0.0-35.0-5.0", "time_elapsed": 397021, "key_press": -1, "trial_index": 49}, "uniqueid": "MTK2383:3C2NJ6JBKBOEXAGXPR5GQV9XCKB2NM", "dateTime": 1517005206719}, {"current_trial": 50, "trialdata": {"rt": -1, "trial_type": "single-stim", "stimulus": "<p id=\"stim\">4</p>", "internal_node_id": "0.0-35.0-6.0", "time_elapsed": 398024, "key_press": -1, "trial_index": 50}, "uniqueid": "MTK2383:3C2NJ6JBKBOEXAGXPR5GQV9XCKB2NM", "dateTime": 1517005207722}, {"current_trial": 51, "trialdata": {"rt": -1, "trial_type": "single-stim", "stimulus": "<p id=\"stim\">3</p>", "internal_node_id": "0.0-35.0-7.0", "time_elapsed": 399026, "key_press": -1, "trial_index": 51}, "uniqueid": "MTK2383:3C2NJ6JBKBOEXAGXPR5GQV9XCKB2NM", "dateTime": 1517005208724}, {"current_trial": 52, "trialdata": {"rt": -1, "trial_type": "single-stim", "stimulus": "<p id=\"stim\">2</p>", "internal_node_id": "0.0-35.0-8.0", "time_elapsed": 400028, "key_press": -1, "trial_index": 52}, "uniqueid": "MTK2383:3C2NJ6JBKBOEXAGXPR5GQV9XCKB2NM", "dateTime": 1517005209726}, {"current_trial": 53, "trialdata": {"rt": -1, "trial_type": "single-stim", "stimulus": "<p id=\"stim\">1</p>", "internal_node_id": "0.0-35.0-9.0", "time_elapsed": 401030, "key_press": -1, "trial_index": 53}, "uniqueid": "MTK2383:3C2NJ6JBKBOEXAGXPR5GQV9XCKB2NM", "dateTime": 1517005210728}, {"current_trial": 54, "trialdata": {"rt": -1, "trial_type": "single-stim", "stimulus": "<p id=\"stim\">+</p>", "internal_node_id": "0.0-36.0-0.0", "time_elapsed": 402532, "key_press": -1, "type": "FIXATION", "trial_index": 54}, "uniqueid": "MTK2383:3C2NJ6JBKBOEXAGXPR5GQV9XCKB2NM", "dateTime": 1517005212230}, {"current_trial": 55, "trialdata": {"rt": -1000, "trial_type": "single-audio", "word": "tablet", "stimulus": "/static/audio/wordpool/TABLET.wav", "conditions": [18, 1200, "a", 18000], "internal_node_id": "0.0-37.0", "trial": 1, "time_elapsed": 404735, "serialpos": 0, "key_press": -1, "wordID": 1426, "type": "PRES_AUD", "trial_index": 55}, "uniqueid": "MTK2383:3C2NJ6JBKBOEXAGXPR5GQV9XCKB2NM", "dateTime": 1517005214434}, {"current_trial": 56, "trialdata": {"rt": -1000, "trial_type": "single-audio", "word": "scotch", "stimulus": "/static/audio/wordpool/SCOTCH.wav", "conditions": [18, 1200, "a", 18000], "internal_node_id": "0.0-38.0", "trial": 1, "time_elapsed": 407023, "serialpos": 1, "key_press": -1, "wordID": 1250, "type": "PRES_AUD", "trial_index": 56}, "uniqueid": "MTK2383:3C2NJ6JBKBOEXAGXPR5GQV9XCKB2NM", "dateTime": 1517005216722}, {"current_trial": 57, "trialdata": {"rt": -1000, "trial_type": "single-audio", "word": "novel", "stimulus": "/static/audio/wordpool/NOVEL.wav", "conditions": [18, 1200, "a", 18000], "internal_node_id": "0.0-39.0", "trial": 1, "time_elapsed": 409230, "serialpos": 2, "key_press": -1, "wordID": 959, "type": "PRES_AUD", "trial_index": 57}, "uniqueid": "MTK2383:3C2NJ6JBKBOEXAGXPR5GQV9XCKB2NM", "dateTime": 1517005218928}, {"current_trial": 58, "trialdata": {"rt": -1000, "trial_type": "single-audio", "word": "donor", "stimulus": "/static/audio/wordpool/DONOR.wav", "conditions": [18, 1200, "a", 18000], "internal_node_id": "0.0-40.0", "trial": 1, "time_elapsed": 411413, "serialpos": 3, "key_press": -1, "wordID": 484, "type": "PRES_AUD", "trial_index": 58}, "uniqueid": "MTK2383:3C2NJ6JBKBOEXAGXPR5GQV9XCKB2NM", "dateTime": 1517005221111}, {"current_trial": 59, "trialdata": {"rt": -1000, "trial_type": "single-audio", "word": "tart", "stimulus": "/static/audio/wordpool/TART.wav", "conditions": [18, 1200, "a", 18000], "internal_node_id": "0.0-41.0", "trial": 1, "time_elapsed": 413505, "serialpos": 4, "key_press": -1, "wordID": 1435, "type": "PRES_AUD", "trial_index": 59}, "uniqueid": "MTK2383:3C2NJ6JBKBOEXAGXPR5GQV9XCKB2NM", "dateTime": 1517005223204}, {"current_trial": 60, "trialdata": {"rt": -1000, "trial_type": "single-audio", "word": "flesh", "stimulus": "/static/audio/wordpool/FLESH.wav", "conditions": [18, 1200, "a", 18000], "internal_node_id": "0.0-42.0", "trial": 1, "time_elapsed": 415674, "serialpos": 5, "key_press": -1, "wordID": 578, "type": "PRES_AUD", "trial_index": 60}, "uniqueid": "MTK2383:3C2NJ6JBKBOEXAGXPR5GQV9XCKB2NM", "dateTime": 1517005225373}, {"current_trial": 61, "trialdata": {"rt": -1000, "trial_type": "single-audio", "word": "cellar", "stimulus": "/static/audio/wordpool/CELLAR.wav", "conditions": [18, 1200, "a", 18000], "internal_node_id": "0.0-43.0", "trial": 1, "time_elapsed": 417945, "serialpos": 6, "key_press": -1, "wordID": 266, "type": "PRES_AUD", "trial_index": 61}, "uniqueid": "MTK2383:3C2NJ6JBKBOEXAGXPR5GQV9XCKB2NM", "dateTime": 1517005227644}, {"current_trial": 62, "trialdata": {"rt": -1000, "trial_type": "single-audio", "word": "orchid", "stimulus": "/static/audio/wordpool/ORCHID.wav", "conditions": [18, 1200, "a", 18000], "internal_node_id": "0.0-44.0", "trial": 1, "time_elapsed": 420181, "serialpos": 7, "key_press": -1, "wordID": 981, "type": "PRES_AUD", "trial_index": 62}, "uniqueid": "MTK2383:3C2NJ6JBKBOEXAGXPR5GQV9XCKB2NM", "dateTime": 1517005229880}, {"current_trial": 63, "trialdata": {"rt": -1000, "trial_type": "single-audio", "word": "popcorn", "stimulus": "/static/audio/wordpool/POPCORN.wav", "conditions": [18, 1200, "a", 18000], "internal_node_id": "0.0-45.0", "trial": 1, "time_elapsed": 422521, "serialpos": 8, "key_press": -1, "wordID": 1103, "type": "PRES_AUD", "trial_index": 63}, "uniqueid": "MTK2383:3C2NJ6JBKBOEXAGXPR5GQV9XCKB2NM", "dateTime": 1517005232219}, {"current_trial": 64, "trialdata": {"rt": -1000, "trial_type": "single-audio", "word": "wrist", "stimulus": "/static/audio/wordpool/WRIST.wav", "conditions": [18, 1200, "a", 18000], "internal_node_id": "0.0-46.0", "trial": 1, "time_elapsed": 424722, "serialpos": 9, "key_press": -1, "wordID": 1625, "type": "PRES_AUD", "trial_index": 64}, "uniqueid": "MTK2383:3C2NJ6JBKBOEXAGXPR5GQV9XCKB2NM", "dateTime": 1517005234420}, {"current_trial": 65, "trialdata": {"rt": -1000, "trial_type": "single-audio", "word": "motel", "stimulus": "/static/audio/wordpool/MOTEL.wav", "conditions": [18, 1200, "a", 18000], "internal_node_id": "0.0-47.0", "trial": 1, "time_elapsed": 426838, "serialpos": 10, "key_press": -1, "wordID": 918, "type": "PRES_AUD", "trial_index": 65}, "uniqueid": "MTK2383:3C2NJ6JBKBOEXAGXPR5GQV9XCKB2NM", "dateTime": 1517005236537}, {"current_trial": 66, "trialdata": {"rt": -1000, "trial_type": "single-audio", "word": "france", "stimulus": "/static/audio/wordpool/FRANCE.wav", "conditions": [18, 1200, "a", 18000], "internal_node_id": "0.0-48.0", "trial": 1, "time_elapsed": 428877, "serialpos": 11, "key_press": -1, "wordID": 600, "type": "PRES_AUD", "trial_index": 66}, "uniqueid": "MTK2383:3C2NJ6JBKBOEXAGXPR5GQV9XCKB2NM", "dateTime": 1517005238576}, {"current_trial": 67, "trialdata": {"rt": -1000, "trial_type": "single-audio", "word": "mars", "stimulus": "/static/audio/wordpool/MARS.wav", "conditions": [18, 1200, "a", 18000], "internal_node_id": "0.0-49.0", "trial": 1, "time_elapsed": 431240, "serialpos": 12, "key_press": -1, "wordID": 872, "type": "PRES_AUD", "trial_index": 67}, "uniqueid": "MTK2383:3C2NJ6JBKBOEXAGXPR5GQV9XCKB2NM", "dateTime": 1517005240939}, {"current_trial": 68, "trialdata": {"rt": -1000, "trial_type": "single-audio", "word": "sister", "stimulus": "/static/audio/wordpool/SISTER.wav", "conditions": [18, 1200, "a", 18000], "internal_node_id": "0.0-50.0", "trial": 1, "time_elapsed": 433386, "serialpos": 13, "key_press": -1, "wordID": 1311, "type": "PRES_AUD", "trial_index": 68}, "uniqueid": "MTK2383:3C2NJ6JBKBOEXAGXPR5GQV9XCKB2NM", "dateTime": 1517005243090}, {"current_trial": 69, "trialdata": {"rt": -1000, "trial_type": "single-audio", "word": "judge", "stimulus": "/static/audio/wordpool/JUDGE.wav", "conditions": [18, 1200, "a", 18000], "internal_node_id": "0.0-51.0", "trial": 1, "time_elapsed": 435643, "serialpos": 14, "key_press": -1, "wordID": 760, "type": "PRES_AUD", "trial_index": 69}, "uniqueid": "MTK2383:3C2NJ6JBKBOEXAGXPR5GQV9XCKB2NM", "dateTime": 1517005245341}, {"current_trial": 70, "trialdata": {"rt": -1000, "trial_type": "single-audio", "word": "hero", "stimulus": "/static/audio/wordpool/HERO.wav", "conditions": [18, 1200, "a", 18000], "internal_node_id": "0.0-52.0", "trial": 1, "time_elapsed": 438024, "serialpos": 15, "key_press": -1, "wordID": 705, "type": "PRES_AUD", "trial_index": 70}, "uniqueid": "MTK2383:3C2NJ6JBKBOEXAGXPR5GQV9XCKB2NM", "dateTime": 1517005247723}, {"current_trial": 71, "trialdata": {"rt": -1000, "trial_type": "single-audio", "word": "country", "stimulus": "/static/audio/wordpool/COUNTRY.wav", "conditions": [18, 1200, "a", 18000], "internal_node_id": "0.0-53.0", "trial": 1, "time_elapsed": 440124, "serialpos": 16, "key_press": -1, "wordID": 387, "type": "PRES_AUD", "trial_index": 71}, "uniqueid": "MTK2383:3C2NJ6JBKBOEXAGXPR5GQV9XCKB2NM", "dateTime": 1517005249823}, {"current_trial": 72, "trialdata": {"rt": -1000, "trial_type": "single-audio", "word": "turtle", "stimulus": "/static/audio/wordpool/TURTLE.wav", "conditions": [18, 1200, "a", 18000], "internal_node_id": "0.0-54.0", "trial": 1, "time_elapsed": 442219, "serialpos": 17, "key_press": -1, "wordID": 1521, "type": "PRES_AUD", "trial_index": 72}, "uniqueid": "MTK2383:3C2NJ6JBKBOEXAGXPR5GQV9XCKB2NM", "dateTime": 1517005251917}, {"current_trial": 73, "trialdata": {"rt": -1, "trial_type": "single-stim", "stimulus": "", "internal_node_id": "0.0-55.0-0.0", "time_elapsed": 443547, "key_press": -1, "type": "PRE_RECALL_DELAY", "trial_index": 73}, "uniqueid": "MTK2383:3C2NJ6JBKBOEXAGXPR5GQV9XCKB2NM", "dateTime": 1517005253245}, {"current_trial": 74, "trialdata": {"rt": -1000, "trial_type": "single-audio", "stimulus": "/static/audio/400Hz.wav", "internal_node_id": "0.0-56.0", "time_elapsed": 444051, "key_press": -1, "type": "PRE_RECALL_ALERT", "trial_index": 74}, "uniqueid": "MTK2383:3C2NJ6JBKBOEXAGXPR5GQV9XCKB2NM", "dateTime": 1517005253749}, {"current_trial": 75, "trialdata": {"rt": [2999, 4784, 7205, 9422, 11519, 13894, 21579, 23627, 26646, 29763, 43569], "recwords": ["turtle", "judge", "country", "sister", "france", "mars", "tablet", "nove", "novel", "scotch", "donor"], "key_times": [1106, 1747, 2153, 2351, 2513, 2611, 2999, 3765, 3972, 4047, 4241, 4412, 4784, 5773, 5879, 5949, 6178, 6355, 6526, 6643, 7205, 7689, 7817, 7917, 8685, 8854, 8957, 9422, 10370, 10538, 10656, 11114, 11235, 11349, 11519, 12932, 13010, 13143, 13253, 13496, 13894, 19468, 19593, 19763, 20330, 20379, 20473, 21579, 22231, 22333, 22529, 22715, 23140, 23305, 23381, 23485, 23627, 25025, 25160, 25604, 25760, 25890, 26646, 27730, 27909, 28425, 28522, 28750, 28889, 29763, 42552, 42678, 42792, 43211, 43340, 43569], "trial_type": "free-recall", "conditions": [18, 1200, "a", 18000], "internal_node_id": "0.0-57.0-0.0", "key_presses": [84, 85, 82, 84, 76, 69, 13, 74, 85, 68, 71, 69, 13, 67, 79, 85, 78, 84, 82, 89, 13, 83, 73, 83, 84, 69, 82, 13, 70, 82, 65, 78, 67, 69, 13, 16, 77, 65, 82, 83, 13, 84, 65, 66, 76, 69, 84, 13, 78, 79, 67, 69, 8, 8, 86, 69, 186, 78, 79, 86, 69, 76, 13, 83, 67, 79, 84, 67, 72, 13, 68, 79, 78, 79, 82, 13], "trial": 1, "time_elapsed": 504056, "type": "FREE_RECALL", "trial_index": 75}, "uniqueid": "MTK2383:3C2NJ6JBKBOEXAGXPR5GQV9XCKB2NM", "dateTime": 1517005313759}, {"current_trial": 76, "trialdata": {"rt": 2694, "trial_type": "text", "internal_node_id": "0.0-58.0", "time_elapsed": 508758, "key_press": 32, "type": "INSTRUCTIONS", "trial_index": 76}, "uniqueid": "MTK2383:3C2NJ6JBKBOEXAGXPR5GQV9XCKB2NM", "dateTime": 1517005318456}, {"current_trial": 77, "trialdata": {"rt": [3181, 5813, 7274, 9778, 12188, 14322, 18798, 20441, 22580], "trial_type": "math-distractor", "key_times": [2809, 2881, 3181, 4885, 5426, 5813, 6943, 7040, 7274, 8597, 9386, 9778, 11888, 12188, 13604, 14061, 14322, 16949, 17764, 18323, 18798, 20129, 20278, 20441, 21840, 22446, 22580], "responses": ["12", "18", "12", "15", "8", "15", "8", "11", "15"], "num2": [3, 1, 5, 8, 2, 6, 1, 2, 6, 3], "num3": [4, 9, 6, 2, 3, 3, 3, 2, 4, 8], "conditions": [12, 800, "a", 24000], "internal_node_id": "0.0-59.0", "key_presses": [49, 50, 13, 49, 56, 13, 49, 50, 13, 49, 53, 13, 56, 13, 49, 53, 13, 55, 8, 56, 13, 49, 49, 13, 49, 53, 13], "trial": 2, "time_elapsed": 533765, "type": "DISTRACTOR", "trial_index": 77, "num1": [5, 8, 1, 5, 3, 6, 4, 7, 5, 1]}, "uniqueid": "MTK2383:3C2NJ6JBKBOEXAGXPR5GQV9XCKB2NM", "dateTime": 1517005343463}, {"current_trial": 78, "trialdata": {"rt": -1, "trial_type": "single-stim", "stimulus": "<p id=\"stim\">10</p>", "internal_node_id": "0.0-60.0-0.0", "time_elapsed": 536768, "key_press": -1, "trial_index": 78}, "uniqueid": "MTK2383:3C2NJ6JBKBOEXAGXPR5GQV9XCKB2NM", "dateTime": 1517005346466}, {"current_trial": 79, "trialdata": {"rt": -1, "trial_type": "single-stim", "stimulus": "<p id=\"stim\">9</p>", "internal_node_id": "0.0-60.0-1.0", "time_elapsed": 537770, "key_press": -1, "trial_index": 79}, "uniqueid": "MTK2383:3C2NJ6JBKBOEXAGXPR5GQV9XCKB2NM", "dateTime": 1517005347468}, {"current_trial": 80, "trialdata": {"rt": -1, "trial_type": "single-stim", "stimulus": "<p id=\"stim\">8</p>", "internal_node_id": "0.0-60.0-2.0", "time_elapsed": 538773, "key_press": -1, "trial_index": 80}, "uniqueid": "MTK2383:3C2NJ6JBKBOEXAGXPR5GQV9XCKB2NM", "dateTime": 1517005348471}, {"current_trial": 81, "trialdata": {"rt": -1, "trial_type": "single-stim", "stimulus": "<p id=\"stim\">7</p>", "internal_node_id": "0.0-60.0-3.0", "time_elapsed": 539776, "key_press": -1, "trial_index": 81}, "uniqueid": "MTK2383:3C2NJ6JBKBOEXAGXPR5GQV9XCKB2NM", "dateTime": 1517005349475}, {"current_trial": 82, "trialdata": {"rt": -1, "trial_type": "single-stim", "stimulus": "<p id=\"stim\">6</p>", "internal_node_id": "0.0-60.0-4.0", "time_elapsed": 540778, "key_press": -1, "trial_index": 82}, "uniqueid": "MTK2383:3C2NJ6JBKBOEXAGXPR5GQV9XCKB2NM", "dateTime": 1517005350477}, {"current_trial": 83, "trialdata": {"rt": -1, "trial_type": "single-stim", "stimulus": "<p id=\"stim\">5</p>", "internal_node_id": "0.0-60.0-5.0", "time_elapsed": 541780, "key_press": -1, "trial_index": 83}, "uniqueid": "MTK2383:3C2NJ6JBKBOEXAGXPR5GQV9XCKB2NM", "dateTime": 1517005351478}, {"current_trial": 84, "trialdata": {"rt": -1, "trial_type": "single-stim", "stimulus": "<p id=\"stim\">4</p>", "internal_node_id": "0.0-60.0-6.0", "time_elapsed": 542783, "key_press": -1, "trial_index": 84}, "uniqueid": "MTK2383:3C2NJ6JBKBOEXAGXPR5GQV9XCKB2NM", "dateTime": 1517005352481}, {"current_trial": 85, "trialdata": {"rt": -1, "trial_type": "single-stim", "stimulus": "<p id=\"stim\">3</p>", "internal_node_id": "0.0-60.0-7.0", "time_elapsed": 543785, "key_press": -1, "trial_index": 85}, "uniqueid": "MTK2383:3C2NJ6JBKBOEXAGXPR5GQV9XCKB2NM", "dateTime": 1517005353483}, {"current_trial": 86, "trialdata": {"rt": -1, "trial_type": "single-stim", "stimulus": "<p id=\"stim\">2</p>", "internal_node_id": "0.0-60.0-8.0", "time_elapsed": 544787, "key_press": -1, "trial_index": 86}, "uniqueid": "MTK2383:3C2NJ6JBKBOEXAGXPR5GQV9XCKB2NM", "dateTime": 1517005354486}, {"current_trial": 87, "trialdata": {"rt": -1, "trial_type": "single-stim", "stimulus": "<p id=\"stim\">1</p>", "internal_node_id": "0.0-60.0-9.0", "time_elapsed": 545791, "key_press": -1, "trial_index": 87}, "uniqueid": "MTK2383:3C2NJ6JBKBOEXAGXPR5GQV9XCKB2NM", "dateTime": 1517005355489}, {"current_trial": 88, "trialdata": {"rt": -1, "trial_type": "single-stim", "stimulus": "<p id=\"stim\">+</p>", "internal_node_id": "0.0-61.0-0.0", "time_elapsed": 547293, "key_press": -1, "type": "FIXATION", "trial_index": 88}, "uniqueid": "MTK2383:3C2NJ6JBKBOEXAGXPR5GQV9XCKB2NM", "dateTime": 1517005356991}, {"current_trial": 89, "trialdata": {"rt": -1000, "trial_type": "single-audio", "word": "missile", "stimulus": "/static/audio/wordpool/MISSILE.wav", "conditions": [12, 800, "a", 24000], "internal_node_id": "0.0-62.0", "trial": 2, "time_elapsed": 549090, "serialpos": 0, "key_press": -1, "wordID": 899, "type": "PRES_AUD", "trial_index": 89}, "uniqueid": "MTK2383:3C2NJ6JBKBOEXAGXPR5GQV9XCKB2NM", "dateTime": 1517005358788}, {"current_trial": 90, "trialdata": {"rt": -1000, "trial_type": "single-audio", "word": "salmon", "stimulus": "/static/audio/wordpool/SALMON.wav", "conditions": [12, 800, "a", 24000], "internal_node_id": "0.0-63.0", "trial": 2, "time_elapsed": 550848, "serialpos": 1, "key_press": -1, "wordID": 1226, "type": "PRES_AUD", "trial_index": 90}, "uniqueid": "MTK2383:3C2NJ6JBKBOEXAGXPR5GQV9XCKB2NM", "dateTime": 1517005360546}, {"current_trial": 91, "trialdata": {"rt": -1000, "trial_type": "single-audio", "word": "jelly", "stimulus": "/static/audio/wordpool/JELLY.wav", "conditions": [12, 800, "a", 24000], "internal_node_id": "0.0-64.0", "trial": 2, "time_elapsed": 552846, "serialpos": 2, "key_press": -1, "wordID": 754, "type": "PRES_AUD", "trial_index": 91}, "uniqueid": "MTK2383:3C2NJ6JBKBOEXAGXPR5GQV9XCKB2NM", "dateTime": 1517005362545}, {"current_trial": 92, "trialdata": {"rt": -1000, "trial_type": "single-audio", "word": "jello", "stimulus": "/static/audio/wordpool/JELLO.wav", "conditions": [12, 800, "a", 24000], "internal_node_id": "0.0-65.0", "trial": 2, "time_elapsed": 554755, "serialpos": 3, "key_press": -1, "wordID": 753, "type": "PRES_AUD", "trial_index": 92}, "uniqueid": "MTK2383:3C2NJ6JBKBOEXAGXPR5GQV9XCKB2NM", "dateTime": 1517005364455}, {"current_trial": 93, "trialdata": {"rt": -1000, "trial_type": "single-audio", "word": "rocket", "stimulus": "/static/audio/wordpool/ROCKET.wav", "conditions": [12, 800, "a", 24000], "internal_node_id": "0.0-66.0", "trial": 2, "time_elapsed": 556590, "serialpos": 4, "key_press": -1, "wordID": 1201, "type": "PRES_AUD", "trial_index": 93}, "uniqueid": "MTK2383:3C2NJ6JBKBOEXAGXPR5GQV9XCKB2NM", "dateTime": 1517005366288}, {"current_trial": 94, "trialdata": {"rt": -1000, "trial_type": "single-audio", "word": "switch", "stimulus": "/static/audio/wordpool/SWITCH.wav", "conditions": [12, 800, "a", 24000], "internal_node_id": "0.0-67.0", "trial": 2, "time_elapsed": 558395, "serialpos": 5, "key_press": -1, "wordID": 1421, "type": "PRES_AUD", "trial_index": 94}, "uniqueid": "MTK2383:3C2NJ6JBKBOEXAGXPR5GQV9XCKB2NM", "dateTime": 1517005368093}, {"current_trial": 95, "trialdata": {"rt": -1000, "trial_type": "single-audio", "word": "taxi", "stimulus": "/static/audio/wordpool/TAXI.wav", "conditions": [12, 800, "a", 24000], "internal_node_id": "0.0-68.0", "trial": 2, "time_elapsed": 560142, "serialpos": 6, "key_press": -1, "wordID": 1437, "type": "PRES_AUD", "trial_index": 95}, "uniqueid": "MTK2383:3C2NJ6JBKBOEXAGXPR5GQV9XCKB2NM", "dateTime": 1517005369840}, {"current_trial": 96, "trialdata": {"rt": -1000, "trial_type": "single-audio", "word": "thief", "stimulus": "/static/audio/wordpool/THIEF.wav", "conditions": [12, 800, "a", 24000], "internal_node_id": "0.0-69.0", "trial": 2, "time_elapsed": 561924, "serialpos": 7, "key_press": -1, "wordID": 1455, "type": "PRES_AUD", "trial_index": 96}, "uniqueid": "MTK2383:3C2NJ6JBKBOEXAGXPR5GQV9XCKB2NM", "dateTime": 1517005371622}, {"current_trial": 97, "trialdata": {"rt": -1000, "trial_type": "single-audio", "word": "blade", "stimulus": "/static/audio/wordpool/BLADE.wav", "conditions": [12, 800, "a", 24000], "internal_node_id": "0.0-70.0", "trial": 2, "time_elapsed": 563566, "serialpos": 8, "key_press": -1, "wordID": 133, "type": "PRES_AUD", "trial_index": 97}, "uniqueid": "MTK2383:3C2NJ6JBKBOEXAGXPR5GQV9XCKB2NM", "dateTime": 1517005373264}, {"current_trial": 98, "trialdata": {"rt": -1000, "trial_type": "single-audio", "word": "trombone", "stimulus": "/static/audio/wordpool/TROMBONE.wav", "conditions": [12, 800, "a", 24000], "internal_node_id": "0.0-71.0", "trial": 2, "time_elapsed": 565399, "serialpos": 9, "key_press": -1, "wordID": 1507, "type": "PRES_AUD", "trial_index": 98}, "uniqueid": "MTK2383:3C2NJ6JBKBOEXAGXPR5GQV9XCKB2NM", "dateTime": 1517005375097}, {"current_trial": 99, "trialdata": {"rt": -1000, "trial_type": "single-audio", "word": "raft", "stimulus": "/static/audio/wordpool/RAFT.wav", "conditions": [12, 800, "a", 24000], "internal_node_id": "0.0-72.0", "trial": 2, "time_elapsed": 567377, "serialpos": 10, "key_press": -1, "wordID": 1158, "type": "PRES_AUD", "trial_index": 99}, "uniqueid": "MTK2383:3C2NJ6JBKBOEXAGXPR5GQV9XCKB2NM", "dateTime": 1517005377075}, {"current_trial": 100, "trialdata": {"rt": -1000, "trial_type": "single-audio", "word": "gallon", "stimulus": "/static/audio/wordpool/GALLON.wav", "conditions": [12, 800, "a", 24000], "internal_node_id": "0.0-73.0", "trial": 2, "time_elapsed": 569345, "serialpos": 11, "key_press": -1, "wordID": 617, "type": "PRES_AUD", "trial_index": 100}, "uniqueid": "MTK2383:3C2NJ6JBKBOEXAGXPR5GQV9XCKB2NM", "dateTime": 1517005379043}, {"current_trial": 101, "trialdata": {"rt": -1, "trial_type": "single-stim", "stimulus": "", "internal_node_id": "0.0-74.0-0.0", "time_elapsed": 570615, "key_press": -1, "type": "PRE_RECALL_DELAY", "trial_index": 101}, "uniqueid": "MTK2383:3C2NJ6JBKBOEXAGXPR5GQV9XCKB2NM", "dateTime": 1517005380313}, {"current_trial": 102, "trialdata": {"rt": -1000, "trial_type": "single-audio", "stimulus": "/static/audio/400Hz.wav", "internal_node_id": "0.0-75.0", "time_elapsed": 571118, "key_press": -1, "type": "PRE_RECALL_ALERT", "trial_index": 102}, "uniqueid": "MTK2383:3C2NJ6JBKBOEXAGXPR5GQV9XCKB2NM", "dateTime": 1517005380816}, {"current_trial": 103, "trialdata": {"rt": [3651, 5385, 9846, 13626, 16295, 17996, 19839, 54029, 56105], "recwords": ["raft", "gallon", "trombone", "theif", "blade", "missle", "rocket", "jelly", "jello"], "key_times": [2502, 2611, 2783, 3101, 3651, 4082, 4201, 4529, 4665, 4852, 4933, 5385, 5755, 5940, 6537, 8047, 8352, 8466, 8577, 8700, 9846, 11667, 11762, 11855, 11957, 12050, 12873, 12960, 13626, 15245, 15451, 15681, 15825, 16020, 16295, 16655, 16802, 17041, 17161, 17434, 17540, 17996, 18526, 18670, 18772, 18897, 19065, 19191, 19839, 52666, 52797, 53247, 53408, 53708, 54029, 54551, 54972, 55301, 55438, 55624, 56105], "trial_type": "free-recall", "conditions": [12, 800, "a", 24000], "internal_node_id": "0.0-76.0-0.0", "key_presses": [82, 65, 70, 84, 13, 71, 65, 76, 76, 79, 78, 13, 84, 82, 79, 77, 66, 79, 78, 69, 13, 84, 72, 69, 73, 82, 8, 70, 13, 66, 76, 65, 68, 69, 13, 77, 73, 83, 83, 76, 69, 13, 82, 79, 67, 75, 69, 84, 13, 74, 69, 76, 76, 89, 13, 74, 69, 76, 76, 79, 13], "trial": 2, "time_elapsed": 631127, "type": "FREE_RECALL", "trial_index": 103}, "uniqueid": "MTK2383:3C2NJ6JBKBOEXAGXPR5GQV9XCKB2NM", "dateTime": 1517005440830}, {"current_trial": 104, "trialdata": {"rt": 2710, "trial_type": "text", "internal_node_id": "0.0-77.0", "time_elapsed": 635844, "key_press": 32, "type": "INSTRUCTIONS", "trial_index": 104}, "uniqueid": "MTK2383:3C2NJ6JBKBOEXAGXPR5GQV9XCKB2NM", "dateTime": 1517005445542}, {"current_trial": 105, "trialdata": {"rt": [2828, 6479, 7966, 12117, 14947, 16857, 19297, 22783], "trial_type": "math-distractor", "key_times": [2027, 2292, 2828, 4359, 4852, 5841, 6080, 6479, 7610, 7796, 7966, 10576, 10938, 11491, 11783, 12117, 13918, 14692, 14947, 16071, 16482, 16857, 18313, 18861, 19297, 21750, 21855, 22783], "responses": ["12", "20", "11", "20", "16", "11", "10", "21"], "num2": [8, 6, 8, 7, 6, 3, 7, 8, 4], "num3": [1, 8, 1, 8, 8, 3, 2, 9, 5], "conditions": [24, 800, "a", 24000], "internal_node_id": "0.0-78.0", "key_presses": [49, 50, 13, 50, 57, 8, 48, 13, 49, 49, 13, 50, 57, 8, 48, 13, 49, 54, 13, 49, 49, 13, 49, 48, 13, 50, 49, 13], "trial": 3, "time_elapsed": 661851, "type": "DISTRACTOR", "trial_index": 105, "num1": [3, 6, 2, 5, 2, 5, 1, 4, 4]}, "uniqueid": "MTK2383:3C2NJ6JBKBOEXAGXPR5GQV9XCKB2NM", "dateTime": 1517005471549}, {"current_trial": 106, "trialdata": {"rt": -1, "trial_type": "single-stim", "stimulus": "<p id=\"stim\">10</p>", "internal_node_id": "0.0-79.0-0.0", "time_elapsed": 664854, "key_press": -1, "trial_index": 106}, "uniqueid": "MTK2383:3C2NJ6JBKBOEXAGXPR5GQV9XCKB2NM", "dateTime": 1517005474552}, {"current_trial": 107, "trialdata": {"rt": -1, "trial_type": "single-stim", "stimulus": "<p id=\"stim\">9</p>", "internal_node_id": "0.0-79.0-1.0", "time_elapsed": 665857, "key_press": -1, "trial_index": 107}, "uniqueid": "MTK2383:3C2NJ6JBKBOEXAGXPR5GQV9XCKB2NM", "dateTime": 1517005475555}, {"current_trial": 108, "trialdata": {"rt": -1, "trial_type": "single-stim", "stimulus": "<p id=\"stim\">8</p>", "internal_node_id": "0.0-79.0-2.0", "time_elapsed": 666859, "key_press": -1, "trial_index": 108}, "uniqueid": "MTK2383:3C2NJ6JBKBOEXAGXPR5GQV9XCKB2NM", "dateTime": 1517005476557}, {"current_trial": 109, "trialdata": {"rt": -1, "trial_type": "single-stim", "stimulus": "<p id=\"stim\">7</p>", "internal_node_id": "0.0-79.0-3.0", "time_elapsed": 667861, "key_press": -1, "trial_index": 109}, "uniqueid": "MTK2383:3C2NJ6JBKBOEXAGXPR5GQV9XCKB2NM", "dateTime": 1517005477560}, {"current_trial": 110, "trialdata": {"rt": -1, "trial_type": "single-stim", "stimulus": "<p id=\"stim\">6</p>", "internal_node_id": "0.0-79.0-4.0", "time_elapsed": 668864, "key_press": -1, "trial_index": 110}, "uniqueid": "MTK2383:3C2NJ6JBKBOEXAGXPR5GQV9XCKB2NM", "dateTime": 1517005478562}, {"current_trial": 111, "trialdata": {"rt": -1, "trial_type": "single-stim", "stimulus": "<p id=\"stim\">5</p>", "internal_node_id": "0.0-79.0-5.0", "time_elapsed": 669865, "key_press": -1, "trial_index": 111}, "uniqueid": "MTK2383:3C2NJ6JBKBOEXAGXPR5GQV9XCKB2NM", "dateTime": 1517005479564}, {"current_trial": 112, "trialdata": {"rt": -1, "trial_type": "single-stim", "stimulus": "<p id=\"stim\">4</p>", "internal_node_id": "0.0-79.0-6.0", "time_elapsed": 670867, "key_press": -1, "trial_index": 112}, "uniqueid": "MTK2383:3C2NJ6JBKBOEXAGXPR5GQV9XCKB2NM", "dateTime": 1517005480565}, {"current_trial": 113, "trialdata": {"rt": -1, "trial_type": "single-stim", "stimulus": "<p id=\"stim\">3</p>", "internal_node_id": "0.0-79.0-7.0", "time_elapsed": 671869, "key_press": -1, "trial_index": 113}, "uniqueid": "MTK2383:3C2NJ6JBKBOEXAGXPR5GQV9XCKB2NM", "dateTime": 1517005481567}, {"current_trial": 114, "trialdata": {"rt": -1, "trial_type": "single-stim", "stimulus": "<p id=\"stim\">2</p>", "internal_node_id": "0.0-79.0-8.0", "time_elapsed": 672871, "key_press": -1, "trial_index": 114}, "uniqueid": "MTK2383:3C2NJ6JBKBOEXAGXPR5GQV9XCKB2NM", "dateTime": 1517005482570}, {"current_trial": 115, "trialdata": {"rt": -1, "trial_type": "single-stim", "stimulus": "<p id=\"stim\">1</p>", "internal_node_id": "0.0-79.0-9.0", "time_elapsed": 673873, "key_press": -1, "trial_index": 115}, "uniqueid": "MTK2383:3C2NJ6JBKBOEXAGXPR5GQV9XCKB2NM", "dateTime": 1517005483571}, {"current_trial": 116, "trialdata": {"rt": -1, "trial_type": "single-stim", "stimulus": "<p id=\"stim\">+</p>", "internal_node_id": "0.0-80.0-0.0", "time_elapsed": 675377, "key_press": -1, "type": "FIXATION", "trial_index": 116}, "uniqueid": "MTK2383:3C2NJ6JBKBOEXAGXPR5GQV9XCKB2NM", "dateTime": 1517005485075}, {"current_trial": 117, "trialdata": {"rt": -1000, "trial_type": "single-audio", "word": "playground", "stimulus": "/static/audio/wordpool/PLAYGROUND.wav", "conditions": [24, 800, "a", 24000], "internal_node_id": "0.0-81.0", "trial": 3, "time_elapsed": 677020, "serialpos": 0, "key_press": -1, "wordID": 1086, "type": "PRES_AUD", "trial_index": 117}, "uniqueid": "MTK2383:3C2NJ6JBKBOEXAGXPR5GQV9XCKB2NM", "dateTime": 1517005486718}, {"current_trial": 118, "trialdata": {"rt": -1000, "trial_type": "single-audio", "word": "husband", "stimulus": "/static/audio/wordpool/HUSBAND.wav", "conditions": [24, 800, "a", 24000], "internal_node_id": "0.0-82.0", "trial": 3, "time_elapsed": 678916, "serialpos": 1, "key_press": -1, "wordID": 727, "type": "PRES_AUD", "trial_index": 118}, "uniqueid": "MTK2383:3C2NJ6JBKBOEXAGXPR5GQV9XCKB2NM", "dateTime": 1517005488614}, {"current_trial": 119, "trialdata": {"rt": -1000, "trial_type": "single-audio", "word": "lover", "stimulus": "/static/audio/wordpool/LOVER.wav", "conditions": [24, 800, "a", 24000], "internal_node_id": "0.0-83.0", "trial": 3, "time_elapsed": 680665, "serialpos": 2, "key_press": -1, "wordID": 845, "type": "PRES_AUD", "trial_index": 119}, "uniqueid": "MTK2383:3C2NJ6JBKBOEXAGXPR5GQV9XCKB2NM", "dateTime": 1517005490363}, {"current_trial": 120, "trialdata": {"rt": -1000, "trial_type": "single-audio", "word": "widow", "stimulus": "/static/audio/wordpool/WIDOW.wav", "conditions": [24, 800, "a", 24000], "internal_node_id": "0.0-84.0", "trial": 3, "time_elapsed": 682305, "serialpos": 3, "key_press": -1, "wordID": 1607, "type": "PRES_AUD", "trial_index": 120}, "uniqueid": "MTK2383:3C2NJ6JBKBOEXAGXPR5GQV9XCKB2NM", "dateTime": 1517005492003}, {"current_trial": 121, "trialdata": {"rt": -1000, "trial_type": "single-audio", "word": "slug", "stimulus": "/static/audio/wordpool/SLUG.wav", "conditions": [24, 800, "a", 24000], "internal_node_id": "0.0-85.0", "trial": 3, "time_elapsed": 684292, "serialpos": 4, "key_press": -1, "wordID": 1328, "type": "PRES_AUD", "trial_index": 121}, "uniqueid": "MTK2383:3C2NJ6JBKBOEXAGXPR5GQV9XCKB2NM", "dateTime": 1517005493991}, {"current_trial": 122, "trialdata": {"rt": -1000, "trial_type": "single-audio", "word": "fireplace", "stimulus": "/static/audio/wordpool/FIREPLACE.wav", "conditions": [24, 800, "a", 24000], "internal_node_id": "0.0-86.0", "trial": 3, "time_elapsed": 686087, "serialpos": 5, "key_press": -1, "wordID": 569, "type": "PRES_AUD", "trial_index": 122}, "uniqueid": "MTK2383:3C2NJ6JBKBOEXAGXPR5GQV9XCKB2NM", "dateTime": 1517005495785}, {"current_trial": 123, "trialdata": {"rt": -1000, "trial_type": "single-audio", "word": "wife", "stimulus": "/static/audio/wordpool/WIFE.wav", "conditions": [24, 800, "a", 24000], "internal_node_id": "0.0-87.0", "trial": 3, "time_elapsed": 688018, "serialpos": 6, "key_press": -1, "wordID": 1608, "type": "PRES_AUD", "trial_index": 123}, "uniqueid": "MTK2383:3C2NJ6JBKBOEXAGXPR5GQV9XCKB2NM", "dateTime": 1517005497716}, {"current_trial": 124, "trialdata": {"rt": -1000, "trial_type": "single-audio", "word": "hatchet", "stimulus": "/static/audio/wordpool/HATCHET.wav", "conditions": [24, 800, "a", 24000], "internal_node_id": "0.0-88.0", "trial": 3, "time_elapsed": 689747, "serialpos": 7, "key_press": -1, "wordID": 690, "type": "PRES_AUD", "trial_index": 124}, "uniqueid": "MTK2383:3C2NJ6JBKBOEXAGXPR5GQV9XCKB2NM", "dateTime": 1517005499445}, {"current_trial": 125, "trialdata": {"rt": -1000, "trial_type": "single-audio", "word": "lapel", "stimulus": "/static/audio/wordpool/LAPEL.wav", "conditions": [24, 800, "a", 24000], "internal_node_id": "0.0-89.0", "trial": 3, "time_elapsed": 691479, "serialpos": 8, "key_press": -1, "wordID": 799, "type": "PRES_AUD", "trial_index": 125}, "uniqueid": "MTK2383:3C2NJ6JBKBOEXAGXPR5GQV9XCKB2NM", "dateTime": 1517005501178}, {"current_trial": 126, "trialdata": {"rt": -1000, "trial_type": "single-audio", "word": "igloo", "stimulus": "/static/audio/wordpool/IGLOO.wav", "conditions": [24, 800, "a", 24000], "internal_node_id": "0.0-90.0", "trial": 3, "time_elapsed": 693395, "serialpos": 9, "key_press": -1, "wordID": 733, "type": "PRES_AUD", "trial_index": 126}, "uniqueid": "MTK2383:3C2NJ6JBKBOEXAGXPR5GQV9XCKB2NM", "dateTime": 1517005503094}, {"current_trial": 127, "trialdata": {"rt": -1000, "trial_type": "single-audio", "word": "peanut", "stimulus": "/static/audio/wordpool/PEANUT.wav", "conditions": [24, 800, "a", 24000], "internal_node_id": "0.0-91.0", "trial": 3, "time_elapsed": 695041, "serialpos": 10, "key_press": -1, "wordID": 1031, "type": "PRES_AUD", "trial_index": 127}, "uniqueid": "MTK2383:3C2NJ6JBKBOEXAGXPR5GQV9XCKB2NM", "dateTime": 1517005504740}, {"current_trial": 128, "trialdata": {"rt": -1000, "trial_type": "single-audio", "word": "daughter", "stimulus": "/static/audio/wordpool/DAUGHTER.wav", "conditions": [24, 800, "a", 24000], "internal_node_id": "0.0-92.0", "trial": 3, "time_elapsed": 696773, "serialpos": 11, "key_press": -1, "wordID": 441, "type": "PRES_AUD", "trial_index": 128}, "uniqueid": "MTK2383:3C2NJ6JBKBOEXAGXPR5GQV9XCKB2NM", "dateTime": 1517005506471}, {"current_trial": 129, "trialdata": {"rt": -1000, "trial_type": "single-audio", "word": "transplant", "stimulus": "/static/audio/wordpool/TRANSPLANT.wav", "conditions": [24, 800, "a", 24000], "internal_node_id": "0.0-93.0", "trial": 3, "time_elapsed": 698609, "serialpos": 12, "key_press": -1, "wordID": 1495, "type": "PRES_AUD", "trial_index": 129}, "uniqueid": "MTK2383:3C2NJ6JBKBOEXAGXPR5GQV9XCKB2NM", "dateTime": 1517005508307}, {"current_trial": 130, "trialdata": {"rt": -1000, "trial_type": "single-audio", "word": "pigeon", "stimulus": "/static/audio/wordpool/PIGEON.wav", "conditions": [24, 800, "a", 24000], "internal_node_id": "0.0-94.0", "trial": 3, "time_elapsed": 700402, "serialpos": 13, "key_press": -1, "wordID": 1064, "type": "PRES_AUD", "trial_index": 130}, "uniqueid": "MTK2383:3C2NJ6JBKBOEXAGXPR5GQV9XCKB2NM", "dateTime": 1517005510100}, {"current_trial": 131, "trialdata": {"rt": -1000, "trial_type": "single-audio", "word": "shorts", "stimulus": "/static/audio/wordpool/SHORTS.wav", "conditions": [24, 800, "a", 24000], "internal_node_id": "0.0-95.0", "trial": 3, "time_elapsed": 702373, "serialpos": 14, "key_press": -1, "wordID": 1292, "type": "PRES_AUD", "trial_index": 131}, "uniqueid": "MTK2383:3C2NJ6JBKBOEXAGXPR5GQV9XCKB2NM", "dateTime": 1517005512071}, {"current_trial": 132, "trialdata": {"rt": -1000, "trial_type": "single-audio", "word": "plaid", "stimulus": "/static/audio/wordpool/PLAID.wav", "conditions": [24, 800, "a", 24000], "internal_node_id": "0.0-96.0", "trial": 3, "time_elapsed": 704184, "serialpos": 15, "key_press": -1, "wordID": 1079, "type": "PRES_AUD", "trial_index": 132}, "uniqueid": "MTK2383:3C2NJ6JBKBOEXAGXPR5GQV9XCKB2NM", "dateTime": 1517005513882}, {"current_trial": 133, "trialdata": {"rt": -1000, "trial_type": "single-audio", "word": "goblin", "stimulus": "/static/audio/wordpool/GOBLIN.wav", "conditions": [24, 800, "a", 24000], "internal_node_id": "0.0-97.0", "trial": 3, "time_elapsed": 706177, "serialpos": 16, "key_press": -1, "wordID": 644, "type": "PRES_AUD", "trial_index": 133}, "uniqueid": "MTK2383:3C2NJ6JBKBOEXAGXPR5GQV9XCKB2NM", "dateTime": 1517005515875}, {"current_trial": 134, "trialdata": {"rt": -1000, "trial_type": "single-audio", "word": "crib", "stimulus": "/static/audio/wordpool/CRIB.wav", "conditions": [24, 800, "a", 24000], "internal_node_id": "0.0-98.0", "trial": 3, "time_elapsed": 708037, "serialpos": 17, "key_press": -1, "wordID": 406, "type": "PRES_AUD", "trial_index": 134}, "uniqueid": "MTK2383:3C2NJ6JBKBOEXAGXPR5GQV9XCKB2NM", "dateTime": 1517005517736}, {"current_trial": 135, "trialdata": {"rt": -1000, "trial_type": "single-audio", "word": "sidewalk", "stimulus": "/static/audio/wordpool/SIDEWALK.wav", "conditions": [24, 800, "a", 24000], "internal_node_id": "0.0-99.0", "trial": 3, "time_elapsed": 709807, "serialpos": 18, "key_press": -1, "wordID": 1302, "type": "PRES_AUD", "trial_index": 135}, "uniqueid": "MTK2383:3C2NJ6JBKBOEXAGXPR5GQV9XCKB2NM", "dateTime": 1517005519506}, {"current_trial": 136, "trialdata": {"rt": -1000, "trial_type": "single-audio", "word": "piston", "stimulus": "/static/audio/wordpool/PISTON.wav", "conditions": [24, 800, "a", 24000], "internal_node_id": "0.0-100.0", "trial": 3, "time_elapsed": 711492, "serialpos": 19, "key_press": -1, "wordID": 1075, "type": "PRES_AUD", "trial_index": 136}, "uniqueid": "MTK2383:3C2NJ6JBKBOEXAGXPR5GQV9XCKB2NM", "dateTime": 1517005521190}, {"current_trial": 137, "trialdata": {"rt": -1000, "trial_type": "single-audio", "word": "mattress", "stimulus": "/static/audio/wordpool/MATTRESS.wav", "conditions": [24, 800, "a", 24000], "internal_node_id": "0.0-101.0", "trial": 3, "time_elapsed": 713181, "serialpos": 20, "key_press": -1, "wordID": 878, "type": "PRES_AUD", "trial_index": 137}, "uniqueid": "MTK2383:3C2NJ6JBKBOEXAGXPR5GQV9XCKB2NM", "dateTime": 1517005522879}, {"current_trial": 138, "trialdata": {"rt": -1000, "trial_type": "single-audio", "word": "monster", "stimulus": "/static/audio/wordpool/MONSTER.wav", "conditions": [24, 800, "a", 24000], "internal_node_id": "0.0-102.0", "trial": 3, "time_elapsed": 715092, "serialpos": 21, "key_press": -1, "wordID": 911, "type": "PRES_AUD", "trial_index": 138}, "uniqueid": "MTK2383:3C2NJ6JBKBOEXAGXPR5GQV9XCKB2NM", "dateTime": 1517005524790}, {"current_trial": 139, "trialdata": {"rt": -1000, "trial_type": "single-audio", "word": "creature", "stimulus": "/static/audio/wordpool/CREATURE.wav", "conditions": [24, 800, "a", 24000], "internal_node_id": "0.0-103.0", "trial": 3, "time_elapsed": 716710, "serialpos": 22, "key_press": -1, "wordID": 402, "type": "PRES_AUD", "trial_index": 139}, "uniqueid": "MTK2383:3C2NJ6JBKBOEXAGXPR5GQV9XCKB2NM", "dateTime": 1517005526409}, {"current_trial": 140, "trialdata": {"rt": -1000, "trial_type": "single-audio", "word": "woman", "stimulus": "/static/audio/wordpool/WOMAN.wav", "conditions": [24, 800, "a", 24000], "internal_node_id": "0.0-104.0", "trial": 3, "time_elapsed": 718714, "serialpos": 23, "key_press": -1, "wordID": 1619, "type": "PRES_AUD", "trial_index": 140}, "uniqueid": "MTK2383:3C2NJ6JBKBOEXAGXPR5GQV9XCKB2NM", "dateTime": 1517005528412}, {"current_trial": 141, "trialdata": {"rt": -1, "trial_type": "single-stim", "stimulus": "", "internal_node_id": "0.0-105.0-0.0", "time_elapsed": 720022, "key_press": -1, "type": "PRE_RECALL_DELAY", "trial_index": 141}, "uniqueid": "MTK2383:3C2NJ6JBKBOEXAGXPR5GQV9XCKB2NM", "dateTime": 1517005529720}, {"current_trial": 142, "trialdata": {"rt": -1000, "trial_type": "single-audio", "stimulus": "/static/audio/400Hz.wav", "internal_node_id": "0.0-106.0", "time_elapsed": 720527, "key_press": -1, "type": "PRE_RECALL_ALERT", "trial_index": 142}, "uniqueid": "MTK2383:3C2NJ6JBKBOEXAGXPR5GQV9XCKB2NM", "dateTime": 1517005530225}, {"current_trial": 143, "trialdata": {"rt": [3993, 11069, 12519, 13637, 17346, 20869, 25332, 29418, 40311, 47944, 57849], "recwords": ["monster", "creature", "woman", "wife", "husband", "daughter", "playground", "pigeon", "hatchet", "slug", "marriage"], "key_times": [2417, 2512, 2652, 3015, 3144, 3330, 3417, 3993, 6652, 6862, 6966, 7086, 7225, 8319, 8420, 8524, 11069, 11605, 11701, 11878, 12015, 12177, 12519, 13057, 13170, 13290, 13393, 13637, 14291, 14485, 14620, 15725, 15836, 15937, 16007, 17346, 18596, 18813, 19010, 19342, 19478, 19816, 20005, 20093, 20869, 21697, 22105, 22309, 22711, 24060, 24274, 24347, 24459, 24707, 24790, 25332, 26417, 27027, 27491, 27883, 28431, 28492, 29418, 37104, 37215, 37354, 37608, 37768, 39662, 39779, 40311, 46902, 47081, 47413, 47531, 47944, 55740, 56255, 56354, 56536, 56755, 56866, 56959, 57176, 57849], "trial_type": "free-recall", "conditions": [24, 800, "a", 24000], "internal_node_id": "0.0-107.0-0.0", "key_presses": [77, 79, 78, 83, 84, 69, 82, 13, 67, 82, 69, 65, 84, 85, 82, 69, 13, 87, 79, 77, 65, 78, 13, 87, 73, 70, 69, 13, 72, 85, 83, 66, 65, 78, 68, 13, 68, 65, 85, 71, 72, 84, 69, 82, 13, 80, 76, 65, 89, 71, 82, 79, 85, 78, 68, 13, 80, 73, 71, 69, 79, 78, 13, 72, 65, 84, 67, 72, 69, 84, 13, 83, 76, 85, 71, 13, 77, 65, 82, 82, 73, 65, 71, 69, 13], "trial": 3, "time_elapsed": 780533, "type": "FREE_RECALL", "trial_index": 143}, "uniqueid": "MTK2383:3C2NJ6JBKBOEXAGXPR5GQV9XCKB2NM", "dateTime": 1517005590237}, {"current_trial": 144, "trialdata": {"rt": 1875, "trial_type": "text", "internal_node_id": "0.0-108.0", "time_elapsed": 784416, "key_press": 32, "type": "INSTRUCTIONS", "trial_index": 144}, "uniqueid": "MTK2383:3C2NJ6JBKBOEXAGXPR5GQV9XCKB2NM", "dateTime": 1517005594114}, {"current_trial": 145, "trialdata": {"rt": [2108, 4918, 7460, 9911], "trial_type": "math-distractor", "key_times": [1729, 1912, 2108, 3248, 3948, 4530, 4664, 4918, 6998, 7087, 7460, 9136, 9508, 9911, 11201, 11809], "responses": ["11", "13", "18", "16"], "num2": [3, 2, 9, 7, 2], "num3": [2, 8, 9, 5, 6], "conditions": [12, 800, "a", 12000], "internal_node_id": "0.0-109.0", "key_presses": [49, 49, 13, 49, 52, 8, 51, 13, 49, 56, 13, 49, 54, 13, 49, 54], "trial": 4, "time_elapsed": 798424, "type": "DISTRACTOR", "trial_index": 145, "num1": [6, 3, 9, 4, 8]}, "uniqueid": "MTK2383:3C2NJ6JBKBOEXAGXPR5GQV9XCKB2NM", "dateTime": 1517005608123}, {"current_trial": 146, "trialdata": {"rt": -1, "trial_type": "single-stim", "stimulus": "<p id=\"stim\">10</p>", "internal_node_id": "0.0-110.0-0.0", "time_elapsed": 801429, "key_press": -1, "trial_index": 146}, "uniqueid": "MTK2383:3C2NJ6JBKBOEXAGXPR5GQV9XCKB2NM", "dateTime": 1517005611127}, {"current_trial": 147, "trialdata": {"rt": -1, "trial_type": "single-stim", "stimulus": "<p id=\"stim\">9</p>", "internal_node_id": "0.0-110.0-1.0", "time_elapsed": 802432, "key_press": -1, "trial_index": 147}, "uniqueid": "MTK2383:3C2NJ6JBKBOEXAGXPR5GQV9XCKB2NM", "dateTime": 1517005612130}, {"current_trial": 148, "trialdata": {"rt": -1, "trial_type": "single-stim", "stimulus": "<p id=\"stim\">8</p>", "internal_node_id": "0.0-110.0-2.0", "time_elapsed": 803434, "key_press": -1, "trial_index": 148}, "uniqueid": "MTK2383:3C2NJ6JBKBOEXAGXPR5GQV9XCKB2NM", "dateTime": 1517005613133}, {"current_trial": 149, "trialdata": {"rt": -1, "trial_type": "single-stim", "stimulus": "<p id=\"stim\">7</p>", "internal_node_id": "0.0-110.0-3.0", "time_elapsed": 804436, "key_press": -1, "trial_index": 149}, "uniqueid": "MTK2383:3C2NJ6JBKBOEXAGXPR5GQV9XCKB2NM", "dateTime": 1517005614134}, {"current_trial": 150, "trialdata": {"rt": -1, "trial_type": "single-stim", "stimulus": "<p id=\"stim\">6</p>", "internal_node_id": "0.0-110.0-4.0", "time_elapsed": 805439, "key_press": -1, "trial_index": 150}, "uniqueid": "MTK2383:3C2NJ6JBKBOEXAGXPR5GQV9XCKB2NM", "dateTime": 1517005615137}, {"current_trial": 151, "trialdata": {"rt": -1, "trial_type": "single-stim", "stimulus": "<p id=\"stim\">5</p>", "internal_node_id": "0.0-110.0-5.0", "time_elapsed": 806441, "key_press": -1, "trial_index": 151}, "uniqueid": "MTK2383:3C2NJ6JBKBOEXAGXPR5GQV9XCKB2NM", "dateTime": 1517005616139}, {"current_trial": 152, "trialdata": {"rt": -1, "trial_type": "single-stim", "stimulus": "<p id=\"stim\">4</p>", "internal_node_id": "0.0-110.0-6.0", "time_elapsed": 807443, "key_press": -1, "trial_index": 152}, "uniqueid": "MTK2383:3C2NJ6JBKBOEXAGXPR5GQV9XCKB2NM", "dateTime": 1517005617141}, {"current_trial": 153, "trialdata": {"rt": -1, "trial_type": "single-stim", "stimulus": "<p id=\"stim\">3</p>", "internal_node_id": "0.0-110.0-7.0", "time_elapsed": 808445, "key_press": -1, "trial_index": 153}, "uniqueid": "MTK2383:3C2NJ6JBKBOEXAGXPR5GQV9XCKB2NM", "dateTime": 1517005618143}, {"current_trial": 154, "trialdata": {"rt": -1, "trial_type": "single-stim", "stimulus": "<p id=\"stim\">2</p>", "internal_node_id": "0.0-110.0-8.0", "time_elapsed": 809447, "key_press": -1, "trial_index": 154}, "uniqueid": "MTK2383:3C2NJ6JBKBOEXAGXPR5GQV9XCKB2NM", "dateTime": 1517005619145}, {"current_trial": 155, "trialdata": {"rt": -1, "trial_type": "single-stim", "stimulus": "<p id=\"stim\">1</p>", "internal_node_id": "0.0-110.0-9.0", "time_elapsed": 810449, "key_press": -1, "trial_index": 155}, "uniqueid": "MTK2383:3C2NJ6JBKBOEXAGXPR5GQV9XCKB2NM", "dateTime": 1517005620147}, {"current_trial": 156, "trialdata": {"rt": -1, "trial_type": "single-stim", "stimulus": "<p id=\"stim\">+</p>", "internal_node_id": "0.0-111.0-0.0", "time_elapsed": 811952, "key_press": -1, "type": "FIXATION", "trial_index": 156}, "uniqueid": "MTK2383:3C2NJ6JBKBOEXAGXPR5GQV9XCKB2NM", "dateTime": 1517005621650}, {"current_trial": 157, "trialdata": {"rt": -1000, "trial_type": "single-audio", "word": "bunny", "stimulus": "/static/audio/wordpool/BUNNY.wav", "conditions": [12, 800, "a", 12000], "internal_node_id": "0.0-112.0", "trial": 4, "time_elapsed": 813684, "serialpos": 0, "key_press": -1, "wordID": 197, "type": "PRES_AUD", "trial_index": 157}, "uniqueid": "MTK2383:3C2NJ6JBKBOEXAGXPR5GQV9XCKB2NM", "dateTime": 1517005623382}, {"current_trial": 158, "trialdata": {"rt": -1000, "trial_type": "single-audio", "word": "rod", "stimulus": "/static/audio/wordpool/ROD.wav", "conditions": [12, 800, "a", 12000], "internal_node_id": "0.0-113.0", "trial": 4, "time_elapsed": 815336, "serialpos": 1, "key_press": -1, "wordID": 1202, "type": "PRES_AUD", "trial_index": 158}, "uniqueid": "MTK2383:3C2NJ6JBKBOEXAGXPR5GQV9XCKB2NM", "dateTime": 1517005625034}, {"current_trial": 159, "trialdata": {"rt": -1000, "trial_type": "single-audio", "word": "canal", "stimulus": "/static/audio/wordpool/CANAL.wav", "conditions": [12, 800, "a", 12000], "internal_node_id": "0.0-114.0", "trial": 4, "time_elapsed": 817198, "serialpos": 2, "key_press": -1, "wordID": 225, "type": "PRES_AUD", "trial_index": 159}, "uniqueid": "MTK2383:3C2NJ6JBKBOEXAGXPR5GQV9XCKB2NM", "dateTime": 1517005626897}, {"current_trial": 160, "trialdata": {"rt": -1000, "trial_type": "single-audio", "word": "lake", "stimulus": "/static/audio/wordpool/LAKE.wav", "conditions": [12, 800, "a", 12000], "internal_node_id": "0.0-115.0", "trial": 4, "time_elapsed": 819103, "serialpos": 3, "key_press": -1, "wordID": 795, "type": "PRES_AUD", "trial_index": 160}, "uniqueid": "MTK2383:3C2NJ6JBKBOEXAGXPR5GQV9XCKB2NM", "dateTime": 1517005628801}, {"current_trial": 161, "trialdata": {"rt": -1000, "trial_type": "single-audio", "word": "hound", "stimulus": "/static/audio/wordpool/HOUND.wav", "conditions": [12, 800, "a", 12000], "internal_node_id": "0.0-116.0", "trial": 4, "time_elapsed": 820744, "serialpos": 4, "key_press": -1, "wordID": 723, "type": "PRES_AUD", "trial_index": 161}, "uniqueid": "MTK2383:3C2NJ6JBKBOEXAGXPR5GQV9XCKB2NM", "dateTime": 1517005630442}, {"current_trial": 162, "trialdata": {"rt": -1000, "trial_type": "single-audio", "word": "spider", "stimulus": "/static/audio/wordpool/SPIDER.wav", "conditions": [12, 800, "a", 12000], "internal_node_id": "0.0-117.0", "trial": 4, "time_elapsed": 822538, "serialpos": 5, "key_press": -1, "wordID": 1350, "type": "PRES_AUD", "trial_index": 162}, "uniqueid": "MTK2383:3C2NJ6JBKBOEXAGXPR5GQV9XCKB2NM", "dateTime": 1517005632237}, {"current_trial": 163, "trialdata": {"rt": -1000, "trial_type": "single-audio", "word": "custard", "stimulus": "/static/audio/wordpool/CUSTARD.wav", "conditions": [12, 800, "a", 12000], "internal_node_id": "0.0-118.0", "trial": 4, "time_elapsed": 824197, "serialpos": 6, "key_press": -1, "wordID": 428, "type": "PRES_AUD", "trial_index": 163}, "uniqueid": "MTK2383:3C2NJ6JBKBOEXAGXPR5GQV9XCKB2NM", "dateTime": 1517005633895}, {"current_trial": 164, "trialdata": {"rt": -1000, "trial_type": "single-audio", "word": "whistle", "stimulus": "/static/audio/wordpool/WHISTLE.wav", "conditions": [12, 800, "a", 12000], "internal_node_id": "0.0-119.0", "trial": 4, "time_elapsed": 825965, "serialpos": 7, "key_press": -1, "wordID": 1605, "type": "PRES_AUD", "trial_index": 164}, "uniqueid": "MTK2383:3C2NJ6JBKBOEXAGXPR5GQV9XCKB2NM", "dateTime": 1517005635663}, {"current_trial": 165, "trialdata": {"rt": -1000, "trial_type": "single-audio", "word": "sunrise", "stimulus": "/static/audio/wordpool/SUNRISE.wav", "conditions": [12, 800, "a", 12000], "internal_node_id": "0.0-120.0", "trial": 4, "time_elapsed": 827899, "serialpos": 8, "key_press": -1, "wordID": 1406, "type": "PRES_AUD", "trial_index": 165}, "uniqueid": "MTK2383:3C2NJ6JBKBOEXAGXPR5GQV9XCKB2NM", "dateTime": 1517005637597}, {"current_trial": 166, "trialdata": {"rt": -1000, "trial_type": "single-audio", "word": "washer", "stimulus": "/static/audio/wordpool/WASHER.wav", "conditions": [12, 800, "a", 12000], "internal_node_id": "0.0-121.0", "trial": 4, "time_elapsed": 829723, "serialpos": 9, "key_press": -1, "wordID": 1591, "type": "PRES_AUD", "trial_index": 166}, "uniqueid": "MTK2383:3C2NJ6JBKBOEXAGXPR5GQV9XCKB2NM", "dateTime": 1517005639421}, {"current_trial": 167, "trialdata": {"rt": -1000, "trial_type": "single-audio", "word": "lace", "stimulus": "/static/audio/wordpool/LACE.wav", "conditions": [12, 800, "a", 12000], "internal_node_id": "0.0-122.0", "trial": 4, "time_elapsed": 831386, "serialpos": 10, "key_press": -1, "wordID": 791, "type": "PRES_AUD", "trial_index": 167}, "uniqueid": "MTK2383:3C2NJ6JBKBOEXAGXPR5GQV9XCKB2NM", "dateTime": 1517005641085}, {"current_trial": 168, "trialdata": {"rt": -1000, "trial_type": "single-audio", "word": "rabbit", "stimulus": "/static/audio/wordpool/RABBIT.wav", "conditions": [12, 800, "a", 12000], "internal_node_id": "0.0-123.0", "trial": 4, "time_elapsed": 833253, "serialpos": 11, "key_press": -1, "wordID": 1151, "type": "PRES_AUD", "trial_index": 168}, "uniqueid": "MTK2383:3C2NJ6JBKBOEXAGXPR5GQV9XCKB2NM", "dateTime": 1517005642951}, {"current_trial": 169, "trialdata": {"rt": -1, "trial_type": "single-stim", "stimulus": "", "internal_node_id": "0.0-124.0-0.0", "time_elapsed": 834658, "key_press": -1, "type": "PRE_RECALL_DELAY", "trial_index": 169}, "uniqueid": "MTK2383:3C2NJ6JBKBOEXAGXPR5GQV9XCKB2NM", "dateTime": 1517005644356}, {"current_trial": 170, "trialdata": {"rt": -1000, "trial_type": "single-audio", "stimulus": "/static/audio/400Hz.wav", "internal_node_id": "0.0-125.0", "time_elapsed": 835164, "key_press": -1, "type": "PRE_RECALL_ALERT", "trial_index": 170}, "uniqueid": "MTK2383:3C2NJ6JBKBOEXAGXPR5GQV9XCKB2NM", "dateTime": 1517005644863}, {"current_trial": 171, "trialdata": {"rt": [2821, 3928, 5315, 8113, 10245, 35575], "recwords": ["funny", "lace", "rabbit", "custard", "sunrise", "donor"], "key_times": [1166, 1516, 2179, 2337, 2567, 2821, 3416, 3524, 3640, 3805, 3928, 4430, 4532, 4648, 4841, 5015, 5121, 5315, 6196, 6341, 6538, 6846, 7016, 7130, 7475, 8113, 8640, 8775, 8994, 9128, 9254, 9375, 9485, 10245, 34533, 34618, 34708, 34841, 34979, 35575], "trial_type": "free-recall", "conditions": [12, 800, "a", 12000], "internal_node_id": "0.0-126.0-0.0", "key_presses": [70, 85, 78, 78, 89, 13, 76, 65, 67, 69, 13, 82, 65, 66, 66, 73, 84, 13, 67, 85, 83, 84, 65, 82, 68, 13, 83, 85, 78, 82, 73, 83, 69, 13, 68, 79, 78, 79, 82, 13], "trial": 4, "time_elapsed": 895170, "type": "FREE_RECALL", "trial_index": 171}, "uniqueid": "MTK2383:3C2NJ6JBKBOEXAGXPR5GQV9XCKB2NM", "dateTime": 1517005704875}, {"current_trial": 172, "trialdata": {"rt": 1850, "trial_type": "text", "internal_node_id": "0.0-127.0", "time_elapsed": 899029, "key_press": 32, "type": "INSTRUCTIONS", "trial_index": 172}, "uniqueid": "MTK2383:3C2NJ6JBKBOEXAGXPR5GQV9XCKB2NM", "dateTime": 1517005708727}, {"current_trial": 173, "trialdata": {"rt": [1773, 4673, 6754, 9266, 11867], "trial_type": "math-distractor", "key_times": [1339, 1773, 2963, 3397, 3922, 4261, 4673, 6108, 6429, 6754, 8329, 8859, 9266, 11117, 11417, 11867], "responses": ["3", "17", "10", "16", "18"], "num2": [1, 8, 7, 3, 7, 6], "num3": [1, 7, 2, 7, 6, 6], "conditions": [12, 1600, "a", 12000], "internal_node_id": "0.0-128.0", "key_presses": [51, 13, 49, 56, 8, 55, 13, 49, 48, 13, 49, 54, 13, 49, 56, 13], "trial": 5, "time_elapsed": 913037, "type": "DISTRACTOR", "trial_index": 173, "num1": [1, 2, 1, 6, 5, 5]}, "uniqueid": "MTK2383:3C2NJ6JBKBOEXAGXPR5GQV9XCKB2NM", "dateTime": 1517005722735}, {"current_trial": 174, "trialdata": {"rt": -1, "trial_type": "single-stim", "stimulus": "<p id=\"stim\">10</p>", "internal_node_id": "0.0-129.0-0.0", "time_elapsed": 916039, "key_press": -1, "trial_index": 174}, "uniqueid": "MTK2383:3C2NJ6JBKBOEXAGXPR5GQV9XCKB2NM", "dateTime": 1517005725738}, {"current_trial": 175, "trialdata": {"rt": -1, "trial_type": "single-stim", "stimulus": "<p id=\"stim\">9</p>", "internal_node_id": "0.0-129.0-1.0", "time_elapsed": 917042, "key_press": -1, "trial_index": 175}, "uniqueid": "MTK2383:3C2NJ6JBKBOEXAGXPR5GQV9XCKB2NM", "dateTime": 1517005726740}, {"current_trial": 176, "trialdata": {"rt": -1, "trial_type": "single-stim", "stimulus": "<p id=\"stim\">8</p>", "internal_node_id": "0.0-129.0-2.0", "time_elapsed": 918044, "key_press": -1, "trial_index": 176}, "uniqueid": "MTK2383:3C2NJ6JBKBOEXAGXPR5GQV9XCKB2NM", "dateTime": 1517005727742}, {"current_trial": 177, "trialdata": {"rt": -1, "trial_type": "single-stim", "stimulus": "<p id=\"stim\">7</p>", "internal_node_id": "0.0-129.0-3.0", "time_elapsed": 919046, "key_press": -1, "trial_index": 177}, "uniqueid": "MTK2383:3C2NJ6JBKBOEXAGXPR5GQV9XCKB2NM", "dateTime": 1517005728745}, {"current_trial": 178, "trialdata": {"rt": -1, "trial_type": "single-stim", "stimulus": "<p id=\"stim\">6</p>", "internal_node_id": "0.0-129.0-4.0", "time_elapsed": 920048, "key_press": -1, "trial_index": 178}, "uniqueid": "MTK2383:3C2NJ6JBKBOEXAGXPR5GQV9XCKB2NM", "dateTime": 1517005729746}, {"current_trial": 179, "trialdata": {"rt": -1, "trial_type": "single-stim", "stimulus": "<p id=\"stim\">5</p>", "internal_node_id": "0.0-129.0-5.0", "time_elapsed": 921049, "key_press": -1, "trial_index": 179}, "uniqueid": "MTK2383:3C2NJ6JBKBOEXAGXPR5GQV9XCKB2NM", "dateTime": 1517005730748}, {"current_trial": 180, "trialdata": {"rt": -1, "trial_type": "single-stim", "stimulus": "<p id=\"stim\">4</p>", "internal_node_id": "0.0-129.0-6.0", "time_elapsed": 922051, "key_press": -1, "trial_index": 180}, "uniqueid": "MTK2383:3C2NJ6JBKBOEXAGXPR5GQV9XCKB2NM", "dateTime": 1517005731749}, {"current_trial": 181, "trialdata": {"rt": -1, "trial_type": "single-stim", "stimulus": "<p id=\"stim\">3</p>", "internal_node_id": "0.0-129.0-7.0", "time_elapsed": 923053, "key_press": -1, "trial_index": 181}, "uniqueid": "MTK2383:3C2NJ6JBKBOEXAGXPR5GQV9XCKB2NM", "dateTime": 1517005732751}, {"current_trial": 182, "trialdata": {"rt": -1, "trial_type": "single-stim", "stimulus": "<p id=\"stim\">2</p>", "internal_node_id": "0.0-129.0-8.0", "time_elapsed": 924055, "key_press": -1, "trial_index": 182}, "uniqueid": "MTK2383:3C2NJ6JBKBOEXAGXPR5GQV9XCKB2NM", "dateTime": 1517005733754}, {"current_trial": 183, "trialdata": {"rt": -1, "trial_type": "single-stim", "stimulus": "<p id=\"stim\">1</p>", "internal_node_id": "0.0-129.0-9.0", "time_elapsed": 925058, "key_press": -1, "trial_index": 183}, "uniqueid": "MTK2383:3C2NJ6JBKBOEXAGXPR5GQV9XCKB2NM", "dateTime": 1517005734756}, {"current_trial": 184, "trialdata": {"rt": -1, "trial_type": "single-stim", "stimulus": "<p id=\"stim\">+</p>", "internal_node_id": "0.0-130.0-0.0", "time_elapsed": 926560, "key_press": -1, "type": "FIXATION", "trial_index": 184}, "uniqueid": "MTK2383:3C2NJ6JBKBOEXAGXPR5GQV9XCKB2NM", "dateTime": 1517005736259}, {"current_trial": 185, "trialdata": {"rt": -1000, "trial_type": "single-audio", "word": "dragon", "stimulus": "/static/audio/wordpool/DRAGON.wav", "conditions": [12, 1600, "a", 12000], "internal_node_id": "0.0-131.0", "trial": 5, "time_elapsed": 929135, "serialpos": 0, "key_press": -1, "wordID": 491, "type": "PRES_AUD", "trial_index": 185}, "uniqueid": "MTK2383:3C2NJ6JBKBOEXAGXPR5GQV9XCKB2NM", "dateTime": 1517005738833}, {"current_trial": 186, "trialdata": {"rt": -1000, "trial_type": "single-audio", "word": "panther", "stimulus": "/static/audio/wordpool/PANTHER.wav", "conditions": [12, 1600, "a", 12000], "internal_node_id": "0.0-132.0", "trial": 5, "time_elapsed": 931916, "serialpos": 1, "key_press": -1, "wordID": 1008, "type": "PRES_AUD", "trial_index": 186}, "uniqueid": "MTK2383:3C2NJ6JBKBOEXAGXPR5GQV9XCKB2NM", "dateTime": 1517005741614}, {"current_trial": 187, "trialdata": {"rt": -1000, "trial_type": "single-audio", "word": "possum", "stimulus": "/static/audio/wordpool/POSSUM.wav", "conditions": [12, 1600, "a", 12000], "internal_node_id": "0.0-133.0", "trial": 5, "time_elapsed": 934617, "serialpos": 2, "key_press": -1, "wordID": 1111, "type": "PRES_AUD", "trial_index": 187}, "uniqueid": "MTK2383:3C2NJ6JBKBOEXAGXPR5GQV9XCKB2NM", "dateTime": 1517005744315}, {"current_trial": 188, "trialdata": {"rt": -1000, "trial_type": "single-audio", "word": "freezer", "stimulus": "/static/audio/wordpool/FREEZER.wav", "conditions": [12, 1600, "a", 12000], "internal_node_id": "0.0-134.0", "trial": 5, "time_elapsed": 937131, "serialpos": 3, "key_press": -1, "wordID": 603, "type": "PRES_AUD", "trial_index": 188}, "uniqueid": "MTK2383:3C2NJ6JBKBOEXAGXPR5GQV9XCKB2NM", "dateTime": 1517005746829}, {"current_trial": 189, "trialdata": {"rt": -1000, "trial_type": "single-audio", "word": "tunnel", "stimulus": "/static/audio/wordpool/TUNNEL.wav", "conditions": [12, 1600, "a", 12000], "internal_node_id": "0.0-135.0", "trial": 5, "time_elapsed": 939723, "serialpos": 4, "key_press": -1, "wordID": 1518, "type": "PRES_AUD", "trial_index": 189}, "uniqueid": "MTK2383:3C2NJ6JBKBOEXAGXPR5GQV9XCKB2NM", "dateTime": 1517005749421}, {"current_trial": 190, "trialdata": {"rt": -1000, "trial_type": "single-audio", "word": "orange", "stimulus": "/static/audio/wordpool/ORANGE.wav", "conditions": [12, 1600, "a", 12000], "internal_node_id": "0.0-136.0", "trial": 5, "time_elapsed": 942351, "serialpos": 5, "key_press": -1, "wordID": 979, "type": "PRES_AUD", "trial_index": 190}, "uniqueid": "MTK2383:3C2NJ6JBKBOEXAGXPR5GQV9XCKB2NM", "dateTime": 1517005752049}, {"current_trial": 191, "trialdata": {"rt": -1000, "trial_type": "single-audio", "word": "stream", "stimulus": "/static/audio/wordpool/STREAM.wav", "conditions": [12, 1600, "a", 12000], "internal_node_id": "0.0-137.0", "trial": 5, "time_elapsed": 944861, "serialpos": 6, "key_press": -1, "wordID": 1391, "type": "PRES_AUD", "trial_index": 191}, "uniqueid": "MTK2383:3C2NJ6JBKBOEXAGXPR5GQV9XCKB2NM", "dateTime": 1517005754559}, {"current_trial": 192, "trialdata": {"rt": -1000, "trial_type": "single-audio", "word": "apple", "stimulus": "/static/audio/wordpool/APPLE.wav", "conditions": [12, 1600, "a", 12000], "internal_node_id": "0.0-138.0", "trial": 5, "time_elapsed": 947531, "serialpos": 7, "key_press": -1, "wordID": 32, "type": "PRES_AUD", "trial_index": 192}, "uniqueid": "MTK2383:3C2NJ6JBKBOEXAGXPR5GQV9XCKB2NM", "dateTime": 1517005757229}, {"current_trial": 193, "trialdata": {"rt": -1000, "trial_type": "single-audio", "word": "sparrow", "stimulus": "/static/audio/wordpool/SPARROW.wav", "conditions": [12, 1600, "a", 12000], "internal_node_id": "0.0-139.0", "trial": 5, "time_elapsed": 950284, "serialpos": 8, "key_press": -1, "wordID": 1346, "type": "PRES_AUD", "trial_index": 193}, "uniqueid": "MTK2383:3C2NJ6JBKBOEXAGXPR5GQV9XCKB2NM", "dateTime": 1517005759982}, {"current_trial": 194, "trialdata": {"rt": -1000, "trial_type": "single-audio", "word": "infant", "stimulus": "/static/audio/wordpool/INFANT.wav", "conditions": [12, 1600, "a", 12000], "internal_node_id": "0.0-140.0", "trial": 5, "time_elapsed": 953072, "serialpos": 9, "key_press": -1, "wordID": 736, "type": "PRES_AUD", "trial_index": 194}, "uniqueid": "MTK2383:3C2NJ6JBKBOEXAGXPR5GQV9XCKB2NM", "dateTime": 1517005762771}, {"current_trial": 195, "trialdata": {"rt": -1000, "trial_type": "single-audio", "word": "gazelle", "stimulus": "/static/audio/wordpool/GAZELLE.wav", "conditions": [12, 1600, "a", 12000], "internal_node_id": "0.0-141.0", "trial": 5, "time_elapsed": 955545, "serialpos": 10, "key_press": -1, "wordID": 627, "type": "PRES_AUD", "trial_index": 195}, "uniqueid": "MTK2383:3C2NJ6JBKBOEXAGXPR5GQV9XCKB2NM", "dateTime": 1517005765243}, {"current_trial": 196, "trialdata": {"rt": -1000, "trial_type": "single-audio", "word": "fruit", "stimulus": "/static/audio/wordpool/FRUIT.wav", "conditions": [12, 1600, "a", 12000], "internal_node_id": "0.0-142.0", "trial": 5, "time_elapsed": 958337, "serialpos": 11, "key_press": -1, "wordID": 609, "type": "PRES_AUD", "trial_index": 196}, "uniqueid": "MTK2383:3C2NJ6JBKBOEXAGXPR5GQV9XCKB2NM", "dateTime": 1517005768035}, {"current_trial": 197, "trialdata": {"rt": -1, "trial_type": "single-stim", "stimulus": "", "internal_node_id": "0.0-143.0-0.0", "time_elapsed": 959707, "key_press": -1, "type": "PRE_RECALL_DELAY", "trial_index": 197}, "uniqueid": "MTK2383:3C2NJ6JBKBOEXAGXPR5GQV9XCKB2NM", "dateTime": 1517005769405}, {"current_trial": 198, "trialdata": {"rt": -1000, "trial_type": "single-audio", "stimulus": "/static/audio/400Hz.wav", "internal_node_id": "0.0-144.0", "time_elapsed": 960217, "key_press": -1, "type": "PRE_RECALL_ALERT", "trial_index": 198}, "uniqueid": "MTK2383:3C2NJ6JBKBOEXAGXPR5GQV9XCKB2NM", "dateTime": 1517005769916}, {"current_trial": 199, "trialdata": {"rt": [2290, 4969, 6256, 10018, 12092, 17147, 24298, 28178, 30066, 47389], "recwords": ["apple", "organe", "fruit", "gazelle", "infant", "sparrow", "possum", "dragon", "panther", "freezer"], "key_times": [1236, 1580, 1753, 1939, 2106, 2290, 3301, 3421, 3707, 3850, 3991, 4794, 4969, 5484, 5664, 5797, 5925, 6036, 6256, 6855, 7403, 8746, 9012, 9284, 9432, 9505, 10018, 10908, 10993, 11097, 11687, 11797, 11922, 12092, 13217, 13341, 13551, 13670, 13996, 14136, 14239, 17147, 21451, 21695, 22800, 22947, 22976, 23584, 24298, 25770, 25988, 26138, 26306, 26472, 26557, 28178, 28784, 28984, 29087, 29252, 29371, 29416, 29481, 30066, 44410, 44596, 44708, 45132, 46541, 46831, 46946, 47389], "trial_type": "free-recall", "conditions": [12, 1600, "a", 12000], "internal_node_id": "0.0-145.0-0.0", "key_presses": [65, 80, 80, 76, 69, 13, 79, 82, 71, 65, 78, 69, 13, 70, 82, 85, 73, 84, 13, 71, 65, 90, 69, 76, 76, 69, 13, 73, 78, 70, 65, 78, 84, 13, 83, 80, 65, 82, 82, 79, 87, 13, 80, 79, 83, 83, 85, 77, 13, 68, 82, 65, 71, 79, 78, 13, 80, 65, 78, 84, 72, 69, 82, 13, 70, 82, 69, 69, 90, 69, 82, 13], "trial": 5, "time_elapsed": 1020223, "type": "FREE_RECALL", "trial_index": 199}, "uniqueid": "MTK2383:3C2NJ6JBKBOEXAGXPR5GQV9XCKB2NM", "dateTime": 1517005829930}, {"current_trial": 200, "trialdata": {"rt": 1022, "trial_type": "text", "internal_node_id": "0.0-146.0", "time_elapsed": 1023256, "key_press": 32, "type": "INSTRUCTIONS", "trial_index": 200}, "uniqueid": "MTK2383:3C2NJ6JBKBOEXAGXPR5GQV9XCKB2NM", "dateTime": 1517005832954}, {"current_trial": 201, "trialdata": {"rt": [3084, 6623, 9307, 14651, 18513, 20689, 23012], "trial_type": "math-distractor", "key_times": [2373, 2516, 3084, 6303, 6623, 8993, 9096, 9307, 10590, 11107, 13493, 14196, 14651, 16768, 17523, 17963, 18513, 20090, 20540, 20689, 22656, 22759, 23012], "responses": ["21", "8", "21", "19", "9", "14", "13"], "num2": [6, 4, 7, 2, 5, 3, 1, 4], "num3": [7, 1, 5, 8, 3, 2, 8, 6], "conditions": [12, 1600, "a", 24000], "internal_node_id": "0.0-147.0", "key_presses": [50, 49, 13, 56, 13, 50, 49, 13, 49, 56, 8, 57, 13, 56, 8, 57, 13, 49, 52, 13, 49, 51, 13], "trial": 6, "time_elapsed": 1049263, "type": "DISTRACTOR", "trial_index": 201, "num1": [8, 3, 9, 9, 1, 9, 4, 8]}, "uniqueid": "MTK2383:3C2NJ6JBKBOEXAGXPR5GQV9XCKB2NM", "dateTime": 1517005858962}, {"current_trial": 202, "trialdata": {"rt": -1, "trial_type": "single-stim", "stimulus": "<p id=\"stim\">10</p>", "internal_node_id": "0.0-148.0-0.0", "time_elapsed": 1052268, "key_press": -1, "trial_index": 202}, "uniqueid": "MTK2383:3C2NJ6JBKBOEXAGXPR5GQV9XCKB2NM", "dateTime": 1517005861966}, {"current_trial": 203, "trialdata": {"rt": -1, "trial_type": "single-stim", "stimulus": "<p id=\"stim\">9</p>", "internal_node_id": "0.0-148.0-1.0", "time_elapsed": 1053271, "key_press": -1, "trial_index": 203}, "uniqueid": "MTK2383:3C2NJ6JBKBOEXAGXPR5GQV9XCKB2NM", "dateTime": 1517005862969}, {"current_trial": 204, "trialdata": {"rt": -1, "trial_type": "single-stim", "stimulus": "<p id=\"stim\">8</p>", "internal_node_id": "0.0-148.0-2.0", "time_elapsed": 1054273, "key_press": -1, "trial_index": 204}, "uniqueid": "MTK2383:3C2NJ6JBKBOEXAGXPR5GQV9XCKB2NM", "dateTime": 1517005863972}, {"current_trial": 205, "trialdata": {"rt": -1, "trial_type": "single-stim", "stimulus": "<p id=\"stim\">7</p>", "internal_node_id": "0.0-148.0-3.0", "time_elapsed": 1055276, "key_press": -1, "trial_index": 205}, "uniqueid": "MTK2383:3C2NJ6JBKBOEXAGXPR5GQV9XCKB2NM", "dateTime": 1517005864974}, {"current_trial": 206, "trialdata": {"rt": -1, "trial_type": "single-stim", "stimulus": "<p id=\"stim\">6</p>", "internal_node_id": "0.0-148.0-4.0", "time_elapsed": 1056278, "key_press": -1, "trial_index": 206}, "uniqueid": "MTK2383:3C2NJ6JBKBOEXAGXPR5GQV9XCKB2NM", "dateTime": 1517005865977}, {"current_trial": 207, "trialdata": {"rt": -1, "trial_type": "single-stim", "stimulus": "<p id=\"stim\">5</p>", "internal_node_id": "0.0-148.0-5.0", "time_elapsed": 1057281, "key_press": -1, "trial_index": 207}, "uniqueid": "MTK2383:3C2NJ6JBKBOEXAGXPR5GQV9XCKB2NM", "dateTime": 1517005866979}, {"current_trial": 208, "trialdata": {"rt": -1, "trial_type": "single-stim", "stimulus": "<p id=\"stim\">4</p>", "internal_node_id": "0.0-148.0-6.0", "time_elapsed": 1058283, "key_press": -1, "trial_index": 208}, "uniqueid": "MTK2383:3C2NJ6JBKBOEXAGXPR5GQV9XCKB2NM", "dateTime": 1517005867981}, {"current_trial": 209, "trialdata": {"rt": -1, "trial_type": "single-stim", "stimulus": "<p id=\"stim\">3</p>", "internal_node_id": "0.0-148.0-7.0", "time_elapsed": 1059285, "key_press": -1, "trial_index": 209}, "uniqueid": "MTK2383:3C2NJ6JBKBOEXAGXPR5GQV9XCKB2NM", "dateTime": 1517005868984}, {"current_trial": 210, "trialdata": {"rt": -1, "trial_type": "single-stim", "stimulus": "<p id=\"stim\">2</p>", "internal_node_id": "0.0-148.0-8.0", "time_elapsed": 1060289, "key_press": -1, "trial_index": 210}, "uniqueid": "MTK2383:3C2NJ6JBKBOEXAGXPR5GQV9XCKB2NM", "dateTime": 1517005869987}, {"current_trial": 211, "trialdata": {"rt": -1, "trial_type": "single-stim", "stimulus": "<p id=\"stim\">1</p>", "internal_node_id": "0.0-148.0-9.0", "time_elapsed": 1061291, "key_press": -1, "trial_index": 211}, "uniqueid": "MTK2383:3C2NJ6JBKBOEXAGXPR5GQV9XCKB2NM", "dateTime": 1517005870989}, {"current_trial": 212, "trialdata": {"rt": -1, "trial_type": "single-stim", "stimulus": "<p id=\"stim\">+</p>", "internal_node_id": "0.0-149.0-0.0", "time_elapsed": 1062792, "key_press": -1, "type": "FIXATION", "trial_index": 212}, "uniqueid": "MTK2383:3C2NJ6JBKBOEXAGXPR5GQV9XCKB2NM", "dateTime": 1517005872491}, {"current_trial": 213, "trialdata": {"rt": -1000, "trial_type": "single-audio", "word": "wrench", "stimulus": "/static/audio/wordpool/WRENCH.wav", "conditions": [12, 1600, "a", 24000], "internal_node_id": "0.0-150.0", "trial": 6, "time_elapsed": 1065546, "serialpos": 0, "key_press": -1, "wordID": 1624, "type": "PRES_AUD", "trial_index": 213}, "uniqueid": "MTK2383:3C2NJ6JBKBOEXAGXPR5GQV9XCKB2NM", "dateTime": 1517005875245}, {"current_trial": 214, "trialdata": {"rt": -1000, "trial_type": "single-audio", "word": "sausage", "stimulus": "/static/audio/wordpool/SAUSAGE.wav", "conditions": [12, 1600, "a", 24000], "internal_node_id": "0.0-151.0", "trial": 6, "time_elapsed": 1068080, "serialpos": 1, "key_press": -1, "wordID": 1237, "type": "PRES_AUD", "trial_index": 214}, "uniqueid": "MTK2383:3C2NJ6JBKBOEXAGXPR5GQV9XCKB2NM", "dateTime": 1517005877779}, {"current_trial": 215, "trialdata": {"rt": -1000, "trial_type": "single-audio", "word": "catcher", "stimulus": "/static/audio/wordpool/CATCHER.wav", "conditions": [12, 1600, "a", 24000], "internal_node_id": "0.0-152.0", "trial": 6, "time_elapsed": 1070640, "serialpos": 2, "key_press": -1, "wordID": 257, "type": "PRES_AUD", "trial_index": 215}, "uniqueid": "MTK2383:3C2NJ6JBKBOEXAGXPR5GQV9XCKB2NM", "dateTime": 1517005880339}, {"current_trial": 216, "trialdata": {"rt": -1000, "trial_type": "single-audio", "word": "umpire", "stimulus": "/static/audio/wordpool/UMPIRE.wav", "conditions": [12, 1600, "a", 24000], "internal_node_id": "0.0-153.0", "trial": 6, "time_elapsed": 1073319, "serialpos": 3, "key_press": -1, "wordID": 1534, "type": "PRES_AUD", "trial_index": 216}, "uniqueid": "MTK2383:3C2NJ6JBKBOEXAGXPR5GQV9XCKB2NM", "dateTime": 1517005883017}, {"current_trial": 217, "trialdata": {"rt": -1000, "trial_type": "single-audio", "word": "cottage", "stimulus": "/static/audio/wordpool/COTTAGE.wav", "conditions": [12, 1600, "a", 24000], "internal_node_id": "0.0-154.0", "trial": 6, "time_elapsed": 1075898, "serialpos": 4, "key_press": -1, "wordID": 383, "type": "PRES_AUD", "trial_index": 217}, "uniqueid": "MTK2383:3C2NJ6JBKBOEXAGXPR5GQV9XCKB2NM", "dateTime": 1517005885596}, {"current_trial": 218, "trialdata": {"rt": -1000, "trial_type": "single-audio", "word": "powder", "stimulus": "/static/audio/wordpool/POWDER.wav", "conditions": [12, 1600, "a", 24000], "internal_node_id": "0.0-155.0", "trial": 6, "time_elapsed": 1078329, "serialpos": 5, "key_press": -1, "wordID": 1116, "type": "PRES_AUD", "trial_index": 218}, "uniqueid": "MTK2383:3C2NJ6JBKBOEXAGXPR5GQV9XCKB2NM", "dateTime": 1517005888027}, {"current_trial": 219, "trialdata": {"rt": -1000, "trial_type": "single-audio", "word": "bacon", "stimulus": "/static/audio/wordpool/BACON.wav", "conditions": [12, 1600, "a", 24000], "internal_node_id": "0.0-156.0", "trial": 6, "time_elapsed": 1080866, "serialpos": 6, "key_press": -1, "wordID": 66, "type": "PRES_AUD", "trial_index": 219}, "uniqueid": "MTK2383:3C2NJ6JBKBOEXAGXPR5GQV9XCKB2NM", "dateTime": 1517005890564}, {"current_trial": 220, "trialdata": {"rt": -1000, "trial_type": "single-audio", "word": "cobra", "stimulus": "/static/audio/wordpool/COBRA.wav", "conditions": [12, 1600, "a", 24000], "internal_node_id": "0.0-157.0", "trial": 6, "time_elapsed": 1083533, "serialpos": 7, "key_press": -1, "wordID": 335, "type": "PRES_AUD", "trial_index": 220}, "uniqueid": "MTK2383:3C2NJ6JBKBOEXAGXPR5GQV9XCKB2NM", "dateTime": 1517005893232}, {"current_trial": 221, "trialdata": {"rt": -1000, "trial_type": "single-audio", "word": "lizard", "stimulus": "/static/audio/wordpool/LIZARD.wav", "conditions": [12, 1600, "a", 24000], "internal_node_id": "0.0-158.0", "trial": 6, "time_elapsed": 1086155, "serialpos": 8, "key_press": -1, "wordID": 833, "type": "PRES_AUD", "trial_index": 221}, "uniqueid": "MTK2383:3C2NJ6JBKBOEXAGXPR5GQV9XCKB2NM", "dateTime": 1517005895853}, {"current_trial": 222, "trialdata": {"rt": -1000, "trial_type": "single-audio", "word": "cookbook", "stimulus": "/static/audio/wordpool/COOKBOOK.wav", "conditions": [12, 1600, "a", 24000], "internal_node_id": "0.0-159.0", "trial": 6, "time_elapsed": 1088732, "serialpos": 9, "key_press": -1, "wordID": 372, "type": "PRES_AUD", "trial_index": 222}, "uniqueid": "MTK2383:3C2NJ6JBKBOEXAGXPR5GQV9XCKB2NM", "dateTime": 1517005898431}, {"current_trial": 223, "trialdata": {"rt": -1000, "trial_type": "single-audio", "word": "jury", "stimulus": "/static/audio/wordpool/JURY.wav", "conditions": [12, 1600, "a", 24000], "internal_node_id": "0.0-160.0", "trial": 6, "time_elapsed": 1091423, "serialpos": 10, "key_press": -1, "wordID": 765, "type": "PRES_AUD", "trial_index": 223}, "uniqueid": "MTK2383:3C2NJ6JBKBOEXAGXPR5GQV9XCKB2NM", "dateTime": 1517005901121}, {"current_trial": 224, "trialdata": {"rt": -1000, "trial_type": "single-audio", "word": "plaster", "stimulus": "/static/audio/wordpool/PLASTER.wav", "conditions": [12, 1600, "a", 24000], "internal_node_id": "0.0-161.0", "trial": 6, "time_elapsed": 1094182, "serialpos": 11, "key_press": -1, "wordID": 1084, "type": "PRES_AUD", "trial_index": 224}, "uniqueid": "MTK2383:3C2NJ6JBKBOEXAGXPR5GQV9XCKB2NM", "dateTime": 1517005903880}, {"current_trial": 225, "trialdata": {"rt": -1, "trial_type": "single-stim", "stimulus": "", "internal_node_id": "0.0-162.0-0.0", "time_elapsed": 1095587, "key_press": -1, "type": "PRE_RECALL_DELAY", "trial_index": 225}, "uniqueid": "MTK2383:3C2NJ6JBKBOEXAGXPR5GQV9XCKB2NM", "dateTime": 1517005905286}, {"current_trial": 226, "trialdata": {"rt": -1000, "trial_type": "single-audio", "stimulus": "/static/audio/400Hz.wav", "internal_node_id": "0.0-163.0", "time_elapsed": 1096093, "key_press": -1, "type": "PRE_RECALL_ALERT", "trial_index": 226}, "uniqueid": "MTK2383:3C2NJ6JBKBOEXAGXPR5GQV9XCKB2NM", "dateTime": 1517005905791}, {"current_trial": 227, "trialdata": {"rt": [2237, 7595, 10769, 12860, 13937, 21571, 24596, 29137, 48978], "recwords": ["jury", "cookbook", "plaster", "catcher", "u", "umpire", "cobra", "lizard", "wrench"], "key_times": [1589, 1769, 1846, 2027, 2237, 4526, 4646, 4831, 5297, 5721, 5981, 6166, 6523, 7595, 8512, 8723, 8922, 9331, 9550, 9726, 9794, 10769, 11599, 11726, 11877, 12155, 12282, 12518, 12611, 12860, 13211, 13937, 15372, 15636, 16066, 16798, 16873, 16977, 17411, 17581, 17747, 18004, 18124, 18210, 18551, 18725, 18896, 19924, 20081, 20239, 21571, 22865, 23028, 23910, 23970, 24087, 24596, 25160, 26185, 26344, 26631, 26787, 27110, 29137, 45862, 46045, 46697, 46832, 46935, 47432, 48140, 48239, 48978], "trial_type": "free-recall", "conditions": [12, 1600, "a", 24000], "internal_node_id": "0.0-164.0-0.0", "key_presses": [74, 85, 82, 89, 32, 67, 79, 79, 75, 66, 79, 79, 75, 13, 80, 76, 65, 83, 84, 69, 82, 13, 67, 65, 84, 67, 72, 69, 82, 13, 85, 188, 85, 77, 80, 79, 82, 69, 8, 8, 8, 79, 82, 69, 8, 8, 8, 73, 82, 69, 13, 67, 79, 66, 82, 65, 13, 76, 73, 90, 65, 82, 68, 13, 87, 69, 8, 82, 69, 78, 67, 72, 13], "trial": 6, "time_elapsed": 1156099, "type": "FREE_RECALL", "trial_index": 227}, "uniqueid": "MTK2383:3C2NJ6JBKBOEXAGXPR5GQV9XCKB2NM", "dateTime": 1517005965805}, {"current_trial": 228, "trialdata": {"rt": 835, "trial_type": "text", "internal_node_id": "0.0-165.0", "time_elapsed": 1158944, "key_press": 32, "type": "INSTRUCTIONS", "trial_index": 228}, "uniqueid": "MTK2383:3C2NJ6JBKBOEXAGXPR5GQV9XCKB2NM", "dateTime": 1517005968642}, {"current_trial": 229, "trialdata": {"rt": [2064, 4784, 6798, 8927, 11150], "trial_type": "math-distractor", "key_times": [1739, 1843, 2064, 3920, 4387, 4784, 6021, 6404, 6798, 8433, 8773, 8927, 10666, 10866, 11150], "responses": ["21", "16", "19", "13", "11"], "num2": [9, 5, 6, 7, 2, 5], "num3": [3, 9, 4, 1, 6, 9], "conditions": [24, 1600, "a", 12000], "internal_node_id": "0.0-166.0", "key_presses": [50, 49, 13, 49, 54, 13, 49, 57, 13, 49, 51, 13, 49, 49, 13], "trial": 7, "time_elapsed": 1172951, "type": "DISTRACTOR", "trial_index": 229, "num1": [9, 2, 9, 5, 3, 1]}, "uniqueid": "MTK2383:3C2NJ6JBKBOEXAGXPR5GQV9XCKB2NM", "dateTime": 1517005982649}, {"current_trial": 230, "trialdata": {"rt": -1, "trial_type": "single-stim", "stimulus": "<p id=\"stim\">10</p>", "internal_node_id": "0.0-167.0-0.0", "time_elapsed": 1175955, "key_press": -1, "trial_index": 230}, "uniqueid": "MTK2383:3C2NJ6JBKBOEXAGXPR5GQV9XCKB2NM", "dateTime": 1517005985653}, {"current_trial": 231, "trialdata": {"rt": -1, "trial_type": "single-stim", "stimulus": "<p id=\"stim\">9</p>", "internal_node_id": "0.0-167.0-1.0", "time_elapsed": 1176958, "key_press": -1, "trial_index": 231}, "uniqueid": "MTK2383:3C2NJ6JBKBOEXAGXPR5GQV9XCKB2NM", "dateTime": 1517005986656}, {"current_trial": 232, "trialdata": {"rt": -1, "trial_type": "single-stim", "stimulus": "<p id=\"stim\">8</p>", "internal_node_id": "0.0-167.0-2.0", "time_elapsed": 1177960, "key_press": -1, "trial_index": 232}, "uniqueid": "MTK2383:3C2NJ6JBKBOEXAGXPR5GQV9XCKB2NM", "dateTime": 1517005987658}, {"current_trial": 233, "trialdata": {"rt": -1, "trial_type": "single-stim", "stimulus": "<p id=\"stim\">7</p>", "internal_node_id": "0.0-167.0-3.0", "time_elapsed": 1178962, "key_press": -1, "trial_index": 233}, "uniqueid": "MTK2383:3C2NJ6JBKBOEXAGXPR5GQV9XCKB2NM", "dateTime": 1517005988660}, {"current_trial": 234, "trialdata": {"rt": -1, "trial_type": "single-stim", "stimulus": "<p id=\"stim\">6</p>", "internal_node_id": "0.0-167.0-4.0", "time_elapsed": 1179965, "key_press": -1, "trial_index": 234}, "uniqueid": "MTK2383:3C2NJ6JBKBOEXAGXPR5GQV9XCKB2NM", "dateTime": 1517005989663}, {"current_trial": 235, "trialdata": {"rt": -1, "trial_type": "single-stim", "stimulus": "<p id=\"stim\">5</p>", "internal_node_id": "0.0-167.0-5.0", "time_elapsed": 1180968, "key_press": -1, "trial_index": 235}, "uniqueid": "MTK2383:3C2NJ6JBKBOEXAGXPR5GQV9XCKB2NM", "dateTime": 1517005990666}, {"current_trial": 236, "trialdata": {"rt": -1, "trial_type": "single-stim", "stimulus": "<p id=\"stim\">4</p>", "internal_node_id": "0.0-167.0-6.0", "time_elapsed": 1181970, "key_press": -1, "trial_index": 236}, "uniqueid": "MTK2383:3C2NJ6JBKBOEXAGXPR5GQV9XCKB2NM", "dateTime": 1517005991668}, {"current_trial": 237, "trialdata": {"rt": -1, "trial_type": "single-stim", "stimulus": "<p id=\"stim\">3</p>", "internal_node_id": "0.0-167.0-7.0", "time_elapsed": 1182972, "key_press": -1, "trial_index": 237}, "uniqueid": "MTK2383:3C2NJ6JBKBOEXAGXPR5GQV9XCKB2NM", "dateTime": 1517005992670}, {"current_trial": 238, "trialdata": {"rt": -1, "trial_type": "single-stim", "stimulus": "<p id=\"stim\">2</p>", "internal_node_id": "0.0-167.0-8.0", "time_elapsed": 1183974, "key_press": -1, "trial_index": 238}, "uniqueid": "MTK2383:3C2NJ6JBKBOEXAGXPR5GQV9XCKB2NM", "dateTime": 1517005993672}, {"current_trial": 239, "trialdata": {"rt": -1, "trial_type": "single-stim", "stimulus": "<p id=\"stim\">1</p>", "internal_node_id": "0.0-167.0-9.0", "time_elapsed": 1184976, "key_press": -1, "trial_index": 239}, "uniqueid": "MTK2383:3C2NJ6JBKBOEXAGXPR5GQV9XCKB2NM", "dateTime": 1517005994675}, {"current_trial": 240, "trialdata": {"rt": -1, "trial_type": "single-stim", "stimulus": "<p id=\"stim\">+</p>", "internal_node_id": "0.0-168.0-0.0", "time_elapsed": 1186478, "key_press": -1, "type": "FIXATION", "trial_index": 240}, "uniqueid": "MTK2383:3C2NJ6JBKBOEXAGXPR5GQV9XCKB2NM", "dateTime": 1517005996177}, {"current_trial": 241, "trialdata": {"rt": -1000, "trial_type": "single-audio", "word": "foot", "stimulus": "/static/audio/wordpool/FOOT.wav", "conditions": [24, 1600, "a", 12000], "internal_node_id": "0.0-169.0", "trial": 7, "time_elapsed": 1188972, "serialpos": 0, "key_press": -1, "wordID": 589, "type": "PRES_AUD", "trial_index": 241}, "uniqueid": "MTK2383:3C2NJ6JBKBOEXAGXPR5GQV9XCKB2NM", "dateTime": 1517005998670}, {"current_trial": 242, "trialdata": {"rt": -1000, "trial_type": "single-audio", "word": "stomach", "stimulus": "/static/audio/wordpool/STOMACH.wav", "conditions": [24, 1600, "a", 12000], "internal_node_id": "0.0-170.0", "trial": 7, "time_elapsed": 1191571, "serialpos": 1, "key_press": -1, "wordID": 1383, "type": "PRES_AUD", "trial_index": 242}, "uniqueid": "MTK2383:3C2NJ6JBKBOEXAGXPR5GQV9XCKB2NM", "dateTime": 1517006001270}, {"current_trial": 243, "trialdata": {"rt": -1000, "trial_type": "single-audio", "word": "robber", "stimulus": "/static/audio/wordpool/ROBBER.wav", "conditions": [24, 1600, "a", 12000], "internal_node_id": "0.0-171.0", "trial": 7, "time_elapsed": 1194065, "serialpos": 2, "key_press": -1, "wordID": 1196, "type": "PRES_AUD", "trial_index": 243}, "uniqueid": "MTK2383:3C2NJ6JBKBOEXAGXPR5GQV9XCKB2NM", "dateTime": 1517006003764}, {"current_trial": 244, "trialdata": {"rt": -1000, "trial_type": "single-audio", "word": "neutron", "stimulus": "/static/audio/wordpool/NEUTRON.wav", "conditions": [24, 1600, "a", 12000], "internal_node_id": "0.0-172.0", "trial": 7, "time_elapsed": 1196480, "serialpos": 3, "key_press": -1, "wordID": 946, "type": "PRES_AUD", "trial_index": 244}, "uniqueid": "MTK2383:3C2NJ6JBKBOEXAGXPR5GQV9XCKB2NM", "dateTime": 1517006006178}, {"current_trial": 245, "trialdata": {"rt": -1000, "trial_type": "single-audio", "word": "headband", "stimulus": "/static/audio/wordpool/HEADBAND.wav", "conditions": [24, 1600, "a", 12000], "internal_node_id": "0.0-173.0", "trial": 7, "time_elapsed": 1199238, "serialpos": 4, "key_press": -1, "wordID": 695, "type": "PRES_AUD", "trial_index": 245}, "uniqueid": "MTK2383:3C2NJ6JBKBOEXAGXPR5GQV9XCKB2NM", "dateTime": 1517006008936}, {"current_trial": 246, "trialdata": {"rt": -1000, "trial_type": "single-audio", "word": "beaker", "stimulus": "/static/audio/wordpool/BEAKER.wav", "conditions": [24, 1600, "a", 12000], "internal_node_id": "0.0-174.0", "trial": 7, "time_elapsed": 1201748, "serialpos": 5, "key_press": -1, "wordID": 103, "type": "PRES_AUD", "trial_index": 246}, "uniqueid": "MTK2383:3C2NJ6JBKBOEXAGXPR5GQV9XCKB2NM", "dateTime": 1517006011446}, {"current_trial": 247, "trialdata": {"rt": -1000, "trial_type": "single-audio", "word": "flask", "stimulus": "/static/audio/wordpool/FLASK.wav", "conditions": [24, 1600, "a", 12000], "internal_node_id": "0.0-175.0", "trial": 7, "time_elapsed": 1204390, "serialpos": 6, "key_press": -1, "wordID": 575, "type": "PRES_AUD", "trial_index": 247}, "uniqueid": "MTK2383:3C2NJ6JBKBOEXAGXPR5GQV9XCKB2NM", "dateTime": 1517006014088}, {"current_trial": 248, "trialdata": {"rt": -1000, "trial_type": "single-audio", "word": "rust", "stimulus": "/static/audio/wordpool/RUST.wav", "conditions": [24, 1600, "a", 12000], "internal_node_id": "0.0-176.0", "trial": 7, "time_elapsed": 1207102, "serialpos": 7, "key_press": -1, "wordID": 1218, "type": "PRES_AUD", "trial_index": 248}, "uniqueid": "MTK2383:3C2NJ6JBKBOEXAGXPR5GQV9XCKB2NM", "dateTime": 1517006016800}, {"current_trial": 249, "trialdata": {"rt": -1000, "trial_type": "single-audio", "word": "burglar", "stimulus": "/static/audio/wordpool/BURGLAR.wav", "conditions": [24, 1600, "a", 12000], "internal_node_id": "0.0-177.0", "trial": 7, "time_elapsed": 1209636, "seria