{"assignmentId": "3BXQMRHWK05HZ44ZWA0MJZFPQECMU2", "workerId": "MTK2229", "questiondata": {"origin": "United States", "strat-rehearsal": "70", "marital": "Married/Domestic Partnership", "education": "Associate degree", "ethnicity": "Not Hispanic", "color_depth": 24, "distracted": "No", "wrote-notes": "Yes", "strat-other": "", "screen_width": 1366, "avail_screen_width": 1366, "avail_screen_height": 728, "strat-image": "2", "language": "ENGLISH", "gender": "Female", "age": "57", "gender_other": "", "race": ["Black"], "strat-categorize": "80", "pixel_depth": 24, "strat-spatial": "2", "strat-story": "2", "race_other": "", "screen_height": 768}, "bonus": 0, "hitId": "3XU80RHWHZN0RWNKLY46VH4BMIS44D", "counterbalance": 2132, "useragent": "Mozilla/5.0 (Windows NT 10.0; Win64; x64) AppleWebKit/537.36 (KHTML, like Gecko) Chrome/63.0.3239.132 Safari/537.36", "eventdata": [{"eventtype": "initialized", "interval": 0, "value": null, "timestamp": 1516896719675}, {"eventtype": "window_resize", "interval": 0, "value": [1366, 677], "timestamp": 1516896719675}, {"eventtype": "focus", "interval": 62091, "value": "off", "timestamp": 1516896781766}, {"eventtype": "focus", "interval": 6618, "value": "on", "timestamp": 1516896788384}], "data": [{"current_trial": 0, "trialdata": {"rt": 68, "trial_type": "text", "internal_node_id": "0.0-0.0", "time_elapsed": 74, "key_press": 32, "type": "INSTRUCTIONS", "trial_index": 0}, "uniqueid": "MTK2229:3BXQMRHWK05HZ44ZWA0MJZFPQECMU2", "dateTime": 1516896730098}, {"current_trial": 1, "trialdata": {"rt": 35192, "trial_type": "text", "internal_node_id": "0.0-1.0", "time_elapsed": 35270, "key_press": 32, "type": "INSTRUCTIONS", "trial_index": 1}, "uniqueid": "MTK2229:3BXQMRHWK05HZ44ZWA0MJZFPQECMU2", "dateTime": 1516896765293}, {"current_trial": 2, "trialdata": {"rt": [36652], "trial_type": "audio-test", "responses": ["ocean"], "internal_node_id": "0.0-2.0", "time_elapsed": 71991, "type": "AUDIO_TEST", "trial_index": 2}, "uniqueid": "MTK2229:3BXQMRHWK05HZ44ZWA0MJZFPQECMU2", "dateTime": 1516896802013}, {"current_trial": 3, "trialdata": {"rt": [6417], "trial_type": "audio-test", "responses": ["crystal"], "internal_node_id": "0.0-3.0", "time_elapsed": 78422, "type": "AUDIO_TEST", "trial_index": 3}, "uniqueid": "MTK2229:3BXQMRHWK05HZ44ZWA0MJZFPQECMU2", "dateTime": 1516896808444}, {"current_trial": 4, "trialdata": {"rt": [6018], "trial_type": "audio-test", "responses": ["spice"], "internal_node_id": "0.0-4.0", "time_elapsed": 84455, "type": "AUDIO_TEST", "trial_index": 4}, "uniqueid": "MTK2229:3BXQMRHWK05HZ44ZWA0MJZFPQECMU2", "dateTime": 1516896814477}, {"current_trial": 5, "trialdata": {"rt": 30323, "trial_type": "survey-text", "responses": "{\"Q0\":\"10:30\",\"Q1\":\"7:15\",\"Q2\":\"5\"}", "internal_node_id": "0.0-5.0", "time_elapsed": 115534, "type": "SLEEP_SURVEY", "trial_index": 5}, "uniqueid": "MTK2229:3BXQMRHWK05HZ44ZWA0MJZFPQECMU2", "dateTime": 1516896845556}, {"current_trial": 6, "trialdata": {"rt": 72098, "trial_type": "text", "internal_node_id": "0.0-6.0", "time_elapsed": 188643, "key_press": 32, "type": "INSTRUCTIONS", "trial_index": 6}, "uniqueid": "MTK2229:3BXQMRHWK05HZ44ZWA0MJZFPQECMU2", "dateTime": 1516896918665}, {"current_trial": 7, "trialdata": {"rt": 102513, "trial_type": "text", "internal_node_id": "0.0-7.0", "time_elapsed": 291660, "key_press": 32, "type": "INSTRUCTIONS", "trial_index": 7}, "uniqueid": "MTK2229:3BXQMRHWK05HZ44ZWA0MJZFPQECMU2", "dateTime": 1516897021682}, {"current_trial": 8, "trialdata": {"rt": 20374, "trial_type": "text", "internal_node_id": "0.0-8.0", "time_elapsed": 312536, "key_press": 32, "type": "INSTRUCTIONS", "trial_index": 8}, "uniqueid": "MTK2229:3BXQMRHWK05HZ44ZWA0MJZFPQECMU2", "dateTime": 1516897042558}, {"current_trial": 9, "trialdata": {"rt": [4400, 8065, 10706, 15064], "trial_type": "math-distractor", "key_times": [3303, 4400, 6785, 8065, 9604, 9999, 10706, 14237, 14423, 15064, 17343, 17541], "responses": ["5", "7", "13", "11"], "num2": [3, 1, 6, 1, 1], "num3": [1, 3, 3, 7, 6], "conditions": [18, 1200, "a", 18000], "internal_node_id": "0.0-9.0", "key_presses": [101, 13, 103, 13, 97, 99, 13, 97, 97, 13, 97, 98], "trial": 0, "time_elapsed": 331548, "type": "DISTRACTOR", "trial_index": 9, "num1": [1, 3, 4, 3, 5]}, "uniqueid": "MTK2229:3BXQMRHWK05HZ44ZWA0MJZFPQECMU2", "dateTime": 1516897061570}, {"current_trial": 10, "trialdata": {"rt": -1, "trial_type": "single-stim", "stimulus": "<p id=\"stim\">10</p>", "internal_node_id": "0.0-10.0-0.0", "time_elapsed": 334553, "key_press": -1, "trial_index": 10}, "uniqueid": "MTK2229:3BXQMRHWK05HZ44ZWA0MJZFPQECMU2", "dateTime": 1516897064575}, {"current_trial": 11, "trialdata": {"rt": -1, "trial_type": "single-stim", "stimulus": "<p id=\"stim\">9</p>", "internal_node_id": "0.0-10.0-1.0", "time_elapsed": 335557, "key_press": -1, "trial_index": 11}, "uniqueid": "MTK2229:3BXQMRHWK05HZ44ZWA0MJZFPQECMU2", "dateTime": 1516897065579}, {"current_trial": 12, "trialdata": {"rt": -1, "trial_type": "single-stim", "stimulus": "<p id=\"stim\">8</p>", "internal_node_id": "0.0-10.0-2.0", "time_elapsed": 336559, "key_press": -1, "trial_index": 12}, "uniqueid": "MTK2229:3BXQMRHWK05HZ44ZWA0MJZFPQECMU2", "dateTime": 1516897066581}, {"current_trial": 13, "trialdata": {"rt": -1, "trial_type": "single-stim", "stimulus": "<p id=\"stim\">7</p>", "internal_node_id": "0.0-10.0-3.0", "time_elapsed": 337561, "key_press": -1, "trial_index": 13}, "uniqueid": "MTK2229:3BXQMRHWK05HZ44ZWA0MJZFPQECMU2", "dateTime": 1516897067583}, {"current_trial": 14, "trialdata": {"rt": -1, "trial_type": "single-stim", "stimulus": "<p id=\"stim\">6</p>", "internal_node_id": "0.0-10.0-4.0", "time_elapsed": 338563, "key_press": -1, "trial_index": 14}, "uniqueid": "MTK2229:3BXQMRHWK05HZ44ZWA0MJZFPQECMU2", "dateTime": 1516897068585}, {"current_trial": 15, "trialdata": {"rt": -1, "trial_type": "single-stim", "stimulus": "<p id=\"stim\">5</p>", "internal_node_id": "0.0-10.0-5.0", "time_elapsed": 339567, "key_press": -1, "trial_index": 15}, "uniqueid": "MTK2229:3BXQMRHWK05HZ44ZWA0MJZFPQECMU2", "dateTime": 1516897069589}, {"current_trial": 16, "trialdata": {"rt": -1, "trial_type": "single-stim", "stimulus": "<p id=\"stim\">4</p>", "internal_node_id": "0.0-10.0-6.0", "time_elapsed": 340570, "key_press": -1, "trial_index": 16}, "uniqueid": "MTK2229:3BXQMRHWK05HZ44ZWA0MJZFPQECMU2", "dateTime": 1516897070592}, {"current_trial": 17, "trialdata": {"rt": -1, "trial_type": "single-stim", "stimulus": "<p id=\"stim\">3</p>", "internal_node_id": "0.0-10.0-7.0", "time_elapsed": 341579, "key_press": -1, "trial_index": 17}, "uniqueid": "MTK2229:3BXQMRHWK05HZ44ZWA0MJZFPQECMU2", "dateTime": 1516897071601}, {"current_trial": 18, "trialdata": {"rt": -1, "trial_type": "single-stim", "stimulus": "<p id=\"stim\">2</p>", "internal_node_id": "0.0-10.0-8.0", "time_elapsed": 342581, "key_press": -1, "trial_index": 18}, "uniqueid": "MTK2229:3BXQMRHWK05HZ44ZWA0MJZFPQECMU2", "dateTime": 1516897072603}, {"current_trial": 19, "trialdata": {"rt": -1, "trial_type": "single-stim", "stimulus": "<p id=\"stim\">1</p>", "internal_node_id": "0.0-10.0-9.0", "time_elapsed": 343583, "key_press": -1, "trial_index": 19}, "uniqueid": "MTK2229:3BXQMRHWK05HZ44ZWA0MJZFPQECMU2", "dateTime": 1516897073606}, {"current_trial": 20, "trialdata": {"rt": -1, "trial_type": "single-stim", "stimulus": "<p id=\"stim\">+</p>", "internal_node_id": "0.0-11.0-0.0", "time_elapsed": 345086, "key_press": -1, "type": "FIXATION", "trial_index": 20}, "uniqueid": "MTK2229:3BXQMRHWK05HZ44ZWA0MJZFPQECMU2", "dateTime": 1516897075108}, {"current_trial": 21, "trialdata": {"rt": -1000, "trial_type": "single-audio", "word": "venus", "stimulus": "/static/audio/wordpool/VENUS.wav", "conditions": [18, 1200, "a", 18000], "internal_node_id": "0.0-12.0", "trial": 0, "time_elapsed": 347176, "serialpos": 0, "key_press": -1, "wordID": 1556, "type": "PRES_AUD", "trial_index": 21}, "uniqueid": "MTK2229:3BXQMRHWK05HZ44ZWA0MJZFPQECMU2", "dateTime": 1516897077198}, {"current_trial": 22, "trialdata": {"rt": -1000, "trial_type": "single-audio", "word": "scallop", "stimulus": "/static/audio/wordpool/SCALLOP.wav", "conditions": [18, 1200, "a", 18000], "internal_node_id": "0.0-13.0", "trial": 0, "time_elapsed": 349469, "serialpos": 1, "key_press": -1, "wordID": 1241, "type": "PRES_AUD", "trial_index": 22}, "uniqueid": "MTK2229:3BXQMRHWK05HZ44ZWA0MJZFPQECMU2", "dateTime": 1516897079491}, {"current_trial": 23, "trialdata": {"rt": -1000, "trial_type": "single-audio", "word": "stamp", "stimulus": "/static/audio/wordpool/STAMP.wav", "conditions": [18, 1200, "a", 18000], "internal_node_id": "0.0-14.0", "trial": 0, "time_elapsed": 351624, "serialpos": 2, "key_press": -1, "wordID": 1369, "type": "PRES_AUD", "trial_index": 23}, "uniqueid": "MTK2229:3BXQMRHWK05HZ44ZWA0MJZFPQECMU2", "dateTime": 1516897081646}, {"current_trial": 24, "trialdata": {"rt": -1000, "trial_type": "single-audio", "word": "keeper", "stimulus": "/static/audio/wordpool/KEEPER.wav", "conditions": [18, 1200, "a", 18000], "internal_node_id": "0.0-15.0", "trial": 0, "time_elapsed": 353774, "serialpos": 3, "key_press": -1, "wordID": 768, "type": "PRES_AUD", "trial_index": 24}, "uniqueid": "MTK2229:3BXQMRHWK05HZ44ZWA0MJZFPQECMU2", "dateTime": 1516897083796}, {"current_trial": 25, "trialdata": {"rt": -1000, "trial_type": "single-audio", "word": "turnip", "stimulus": "/static/audio/wordpool/TURNIP.wav", "conditions": [18, 1200, "a", 18000], "internal_node_id": "0.0-16.0", "trial": 0, "time_elapsed": 355910, "serialpos": 4, "key_press": -1, "wordID": 1520, "type": "PRES_AUD", "trial_index": 25}, "uniqueid": "MTK2229:3BXQMRHWK05HZ44ZWA0MJZFPQECMU2", "dateTime": 1516897085933}, {"current_trial": 26, "trialdata": {"rt": -1000, "trial_type": "single-audio", "word": "primate", "stimulus": "/static/audio/wordpool/PRIMATE.wav", "conditions": [18, 1200, "a", 18000], "internal_node_id": "0.0-17.0", "trial": 0, "time_elapsed": 358302, "serialpos": 5, "key_press": -1, "wordID": 1122, "type": "PRES_AUD", "trial_index": 26}, "uniqueid": "MTK2229:3BXQMRHWK05HZ44ZWA0MJZFPQECMU2", "dateTime": 1516897088324}, {"current_trial": 27, "trialdata": {"rt": -1000, "trial_type": "single-audio", "word": "arm", "stimulus": "/static/audio/wordpool/ARM.wav", "conditions": [18, 1200, "a", 18000], "internal_node_id": "0.0-18.0", "trial": 0, "time_elapsed": 360406, "serialpos": 6, "key_press": -1, "wordID": 37, "type": "PRES_AUD", "trial_index": 27}, "uniqueid": "MTK2229:3BXQMRHWK05HZ44ZWA0MJZFPQECMU2", "dateTime": 1516897090428}, {"current_trial": 28, "trialdata": {"rt": -1000, "trial_type": "single-audio", "word": "harp", "stimulus": "/static/audio/wordpool/HARP.wav", "conditions": [18, 1200, "a", 18000], "internal_node_id": "0.0-19.0", "trial": 0, "time_elapsed": 362652, "serialpos": 7, "key_press": -1, "wordID": 688, "type": "PRES_AUD", "trial_index": 28}, "uniqueid": "MTK2229:3BXQMRHWK05HZ44ZWA0MJZFPQECMU2", "dateTime": 1516897092674}, {"current_trial": 29, "trialdata": {"rt": -1000, "trial_type": "single-audio", "word": "frame", "stimulus": "/static/audio/wordpool/FRAME.wav", "conditions": [18, 1200, "a", 18000], "internal_node_id": "0.0-20.0", "trial": 0, "time_elapsed": 364671, "serialpos": 8, "key_press": -1, "wordID": 599, "type": "PRES_AUD", "trial_index": 29}, "uniqueid": "MTK2229:3BXQMRHWK05HZ44ZWA0MJZFPQECMU2", "dateTime": 1516897094694}, {"current_trial": 30, "trialdata": {"rt": -1000, "trial_type": "single-audio", "word": "london", "stimulus": "/static/audio/wordpool/LONDON.wav", "conditions": [18, 1200, "a", 18000], "internal_node_id": "0.0-21.0", "trial": 0, "time_elapsed": 366983, "serialpos": 9, "key_press": -1, "wordID": 842, "type": "PRES_AUD", "trial_index": 30}, "uniqueid": "MTK2229:3BXQMRHWK05HZ44ZWA0MJZFPQECMU2", "dateTime": 1516897097005}, {"current_trial": 31, "trialdata": {"rt": -1000, "trial_type": "single-audio", "word": "match", "stimulus": "/static/audio/wordpool/MATCH.wav", "conditions": [18, 1200, "a", 18000], "internal_node_id": "0.0-22.0", "trial": 0, "time_elapsed": 369169, "serialpos": 10, "key_press": -1, "wordID": 877, "type": "PRES_AUD", "trial_index": 31}, "uniqueid": "MTK2229:3BXQMRHWK05HZ44ZWA0MJZFPQECMU2", "dateTime": 1516897099191}, {"current_trial": 32, "trialdata": {"rt": -1000, "trial_type": "single-audio", "word": "princess", "stimulus": "/static/audio/wordpool/PRINCESS.wav", "conditions": [18, 1200, "a", 18000], "internal_node_id": "0.0-23.0", "trial": 0, "time_elapsed": 371446, "serialpos": 11, "key_press": -1, "wordID": 1124, "type": "PRES_AUD", "trial_index": 32}, "uniqueid": "MTK2229:3BXQMRHWK05HZ44ZWA0MJZFPQECMU2", "dateTime": 1516897101468}, {"current_trial": 33, "trialdata": {"rt": -1000, "trial_type": "single-audio", "word": "window", "stimulus": "/static/audio/wordpool/WINDOW.wav", "conditions": [18, 1200, "a", 18000], "internal_node_id": "0.0-24.0", "trial": 0, "time_elapsed": 373683, "serialpos": 12, "key_press": -1, "wordID": 1610, "type": "PRES_AUD", "trial_index": 33}, "uniqueid": "MTK2229:3BXQMRHWK05HZ44ZWA0MJZFPQECMU2", "dateTime": 1516897103706}, {"current_trial": 34, "trialdata": {"rt": -1000, "trial_type": "single-audio", "word": "taxi", "stimulus": "/static/audio/wordpool/TAXI.wav", "conditions": [18, 1200, "a", 18000], "internal_node_id": "0.0-25.0", "trial": 0, "time_elapsed": 376053, "serialpos": 13, "key_press": -1, "wordID": 1437, "type": "PRES_AUD", "trial_index": 34}, "uniqueid": "MTK2229:3BXQMRHWK05HZ44ZWA0MJZFPQECMU2", "dateTime": 1516897106076}, {"current_trial": 35, "trialdata": {"rt": -1000, "trial_type": "single-audio", "word": "typist", "stimulus": "/static/audio/wordpool/TYPIST.wav", "conditions": [18, 1200, "a", 18000], "internal_node_id": "0.0-26.0", "trial": 0, "time_elapsed": 378349, "serialpos": 14, "key_press": -1, "wordID": 1531, "type": "PRES_AUD", "trial_index": 35}, "uniqueid": "MTK2229:3BXQMRHWK05HZ44ZWA0MJZFPQECMU2", "dateTime": 1516897108371}, {"current_trial": 36, "trialdata": {"rt": -1000, "trial_type": "single-audio", "word": "notebook", "stimulus": "/static/audio/wordpool/NOTEBOOK.wav", "conditions": [18, 1200, "a", 18000], "internal_node_id": "0.0-27.0", "trial": 0, "time_elapsed": 380492, "serialpos": 15, "key_press": -1, "wordID": 958, "type": "PRES_AUD", "trial_index": 36}, "uniqueid": "MTK2229:3BXQMRHWK05HZ44ZWA0MJZFPQECMU2", "dateTime": 1516897110516}, {"current_trial": 37, "trialdata": {"rt": -1000, "trial_type": "single-audio", "word": "supper", "stimulus": "/static/audio/wordpool/SUPPER.wav", "conditions": [18, 1200, "a", 18000], "internal_node_id": "0.0-28.0", "trial": 0, "time_elapsed": 382845, "serialpos": 16, "key_press": -1, "wordID": 1410, "type": "PRES_AUD", "trial_index": 37}, "uniqueid": "MTK2229:3BXQMRHWK05HZ44ZWA0MJZFPQECMU2", "dateTime": 1516897112868}, {"current_trial": 38, "trialdata": {"rt": -1000, "trial_type": "single-audio", "word": "mailman", "stimulus": "/static/audio/wordpool/MAILMAN.wav", "conditions": [18, 1200, "a", 18000], "internal_node_id": "0.0-29.0", "trial": 0, "time_elapsed": 385035, "serialpos": 17, "key_press": -1, "wordID": 857, "type": "PRES_AUD", "trial_index": 38}, "uniqueid": "MTK2229:3BXQMRHWK05HZ44ZWA0MJZFPQECMU2", "dateTime": 1516897115058}, {"current_trial": 39, "trialdata": {"rt": -1, "trial_type": "single-stim", "stimulus": "", "internal_node_id": "0.0-30.0-0.0", "time_elapsed": 386354, "key_press": -1, "type": "PRE_RECALL_DELAY", "trial_index": 39}, "uniqueid": "MTK2229:3BXQMRHWK05HZ44ZWA0MJZFPQECMU2", "dateTime": 1516897116376}, {"current_trial": 40, "trialdata": {"rt": -1000, "trial_type": "single-audio", "stimulus": "/static/audio/400Hz.wav", "internal_node_id": "0.0-31.0", "time_elapsed": 386857, "key_press": -1, "type": "PRE_RECALL_ALERT", "trial_index": 40}, "uniqueid": "MTK2229:3BXQMRHWK05HZ44ZWA0MJZFPQECMU2", "dateTime": 1516897116879}, {"current_trial": 41, "trialdata": {"rt": [7653, 10989, 14132, 16549, 18928, 22183, 24898, 27141, 30697, 35481, 41979, 48695, 52196, 55735], "recwords": ["mailman", "super", "venice", "window", "taxi", "stem", "frame", "london", "match", "princess", "match", "super", "turnip", "frame"], "key_times": [5037, 5791, 5931, 6223, 7083, 7215, 7354, 7653, 9940, 10058, 10285, 10575, 10803, 10989, 13025, 13234, 13356, 13544, 13664, 13940, 14132, 15613, 15686, 15894, 15990, 16138, 16268, 16549, 17323, 17528, 17855, 18012, 18928, 21146, 21378, 21678, 21899, 22183, 23967, 24194, 24381, 24506, 24689, 24898, 25675, 25875, 26082, 26591, 26725, 26916, 27141, 29684, 29830, 30036, 30320, 30492, 30697, 31188, 31329, 31435, 31594, 31742, 31968, 32210, 32422, 35481, 40951, 41073, 41224, 41506, 41673, 41979, 47740, 47899, 48095, 48267, 48450, 48695, 51082, 51272, 51415, 51571, 51748, 51915, 52196, 54907, 55097, 55285, 55401, 55580, 55735], "trial_type": "free-recall", "conditions": [18, 1200, "a", 18000], "internal_node_id": "0.0-32.0-0.0", "key_presses": [77, 65, 73, 76, 77, 65, 78, 13, 83, 85, 80, 69, 82, 13, 86, 69, 78, 73, 67, 69, 13, 87, 73, 78, 68, 79, 87, 13, 84, 65, 88, 73, 13, 83, 84, 69, 77, 13, 70, 82, 65, 77, 69, 13, 76, 79, 78, 68, 79, 78, 13, 77, 65, 84, 67, 72, 13, 80, 82, 73, 78, 67, 69, 83, 83, 13, 77, 65, 84, 67, 72, 13, 83, 85, 80, 69, 82, 13, 84, 85, 82, 78, 73, 80, 13, 70, 82, 65, 77, 69, 13], "trial": 0, "time_elapsed": 446863, "type": "FREE_RECALL", "trial_index": 41}, "uniqueid": "MTK2229:3BXQMRHWK05HZ44ZWA0MJZFPQECMU2", "dateTime": 1516897176891}, {"current_trial": 42, "trialdata": {"rt": 8441, "trial_type": "text", "internal_node_id": "0.0-33.0", "time_elapsed": 457312, "key_press": 13, "type": "INSTRUCTIONS", "trial_index": 42}, "uniqueid": "MTK2229:3BXQMRHWK05HZ44ZWA0MJZFPQECMU2", "dateTime": 1516897187334}, {"current_trial": 43, "trialdata": {"rt": [3295], "trial_type": "math-distractor", "key_times": [3010, 3295, 9414], "responses": ["5"], "num2": [3, 9], "num3": [1, 7], "conditions": [18, 1200, "a", 18000], "internal_node_id": "0.0-34.0", "key_presses": [101, 13, 98], "trial": 1, "time_elapsed": 477321, "type": "DISTRACTOR", "trial_index": 43, "num1": [1, 7]}, "uniqueid": "MTK2229:3BXQMRHWK05HZ44ZWA0MJZFPQECMU2", "dateTime": 1516897207344}, {"current_trial": 44, "trialdata": {"rt": -1, "trial_type": "single-stim", "stimulus": "<p id=\"stim\">10</p>", "internal_node_id": "0.0-35.0-0.0", "time_elapsed": 480323, "key_press": -1, "trial_index": 44}, "uniqueid": "MTK2229:3BXQMRHWK05HZ44ZWA0MJZFPQECMU2", "dateTime": 1516897210346}, {"current_trial": 45, "trialdata": {"rt": -1, "trial_type": "single-stim", "stimulus": "<p id=\"stim\">9</p>", "internal_node_id": "0.0-35.0-1.0", "time_elapsed": 481325, "key_press": -1, "trial_index": 45}, "uniqueid": "MTK2229:3BXQMRHWK05HZ44ZWA0MJZFPQECMU2", "dateTime": 1516897211348}, {"current_trial": 46, "trialdata": {"rt": -1, "trial_type": "single-stim", "stimulus": "<p id=\"stim\">8</p>", "internal_node_id": "0.0-35.0-2.0", "time_elapsed": 482328, "key_press": -1, "trial_index": 46}, "uniqueid": "MTK2229:3BXQMRHWK05HZ44ZWA0MJZFPQECMU2", "dateTime": 1516897212350}, {"current_trial": 47, "trialdata": {"rt": -1, "trial_type": "single-stim", "stimulus": "<p id=\"stim\">7</p>", "internal_node_id": "0.0-35.0-3.0", "time_elapsed": 483331, "key_press": -1, "trial_index": 47}, "uniqueid": "MTK2229:3BXQMRHWK05HZ44ZWA0MJZFPQECMU2", "dateTime": 1516897213353}, {"current_trial": 48, "trialdata": {"rt": -1, "trial_type": "single-stim", "stimulus": "<p id=\"stim\">6</p>", "internal_node_id": "0.0-35.0-4.0", "time_elapsed": 484335, "key_press": -1, "trial_index": 48}, "uniqueid": "MTK2229:3BXQMRHWK05HZ44ZWA0MJZFPQECMU2", "dateTime": 1516897214358}, {"current_trial": 49, "trialdata": {"rt": -1, "trial_type": "single-stim", "stimulus": "<p id=\"stim\">5</p>", "internal_node_id": "0.0-35.0-5.0", "time_elapsed": 485337, "key_press": -1, "trial_index": 49}, "uniqueid": "MTK2229:3BXQMRHWK05HZ44ZWA0MJZFPQECMU2", "dateTime": 1516897215359}, {"current_trial": 50, "trialdata": {"rt": -1, "trial_type": "single-stim", "stimulus": "<p id=\"stim\">4</p>", "internal_node_id": "0.0-35.0-6.0", "time_elapsed": 486340, "key_press": -1, "trial_index": 50}, "uniqueid": "MTK2229:3BXQMRHWK05HZ44ZWA0MJZFPQECMU2", "dateTime": 1516897216362}, {"current_trial": 51, "trialdata": {"rt": -1, "trial_type": "single-stim", "stimulus": "<p id=\"stim\">3</p>", "internal_node_id": "0.0-35.0-7.0", "time_elapsed": 487341, "key_press": -1, "trial_index": 51}, "uniqueid": "MTK2229:3BXQMRHWK05HZ44ZWA0MJZFPQECMU2", "dateTime": 1516897217363}, {"current_trial": 52, "trialdata": {"rt": -1, "trial_type": "single-stim", "stimulus": "<p id=\"stim\">2</p>", "internal_node_id": "0.0-35.0-8.0", "time_elapsed": 488344, "key_press": -1, "trial_index": 52}, "uniqueid": "MTK2229:3BXQMRHWK05HZ44ZWA0MJZFPQECMU2", "dateTime": 1516897218366}, {"current_trial": 53, "trialdata": {"rt": -1, "trial_type": "single-stim", "stimulus": "<p id=\"stim\">1</p>", "internal_node_id": "0.0-35.0-9.0", "time_elapsed": 489347, "key_press": -1, "trial_index": 53}, "uniqueid": "MTK2229:3BXQMRHWK05HZ44ZWA0MJZFPQECMU2", "dateTime": 1516897219370}, {"current_trial": 54, "trialdata": {"rt": -1, "trial_type": "single-stim", "stimulus": "<p id=\"stim\">+</p>", "internal_node_id": "0.0-36.0-0.0", "time_elapsed": 490849, "key_press": -1, "type": "FIXATION", "trial_index": 54}, "uniqueid": "MTK2229:3BXQMRHWK05HZ44ZWA0MJZFPQECMU2", "dateTime": 1516897220871}, {"current_trial": 55, "trialdata": {"rt": -1000, "trial_type": "single-audio", "word": "space", "stimulus": "/static/audio/wordpool/SPACE.wav", "conditions": [18, 1200, "a", 18000], "internal_node_id": "0.0-37.0", "trial": 1, "time_elapsed": 493027, "serialpos": 0, "key_press": -1, "wordID": 1344, "type": "PRES_AUD", "trial_index": 55}, "uniqueid": "MTK2229:3BXQMRHWK05HZ44ZWA0MJZFPQECMU2", "dateTime": 1516897223049}, {"current_trial": 56, "trialdata": {"rt": -1000, "trial_type": "single-audio", "word": "dragon", "stimulus": "/static/audio/wordpool/DRAGON.wav", "conditions": [18, 1200, "a", 18000], "internal_node_id": "0.0-38.0", "trial": 1, "time_elapsed": 495040, "serialpos": 1, "key_press": -1, "wordID": 491, "type": "PRES_AUD", "trial_index": 56}, "uniqueid": "MTK2229:3BXQMRHWK05HZ44ZWA0MJZFPQECMU2", "dateTime": 1516897225062}, {"current_trial": 57, "trialdata": {"rt": -1000, "trial_type": "single-audio", "word": "whiskers", "stimulus": "/static/audio/wordpool/WHISKERS.wav", "conditions": [18, 1200, "a", 18000], "internal_node_id": "0.0-39.0", "trial": 1, "time_elapsed": 497203, "serialpos": 2, "key_press": -1, "wordID": 1604, "type": "PRES_AUD", "trial_index": 57}, "uniqueid": "MTK2229:3BXQMRHWK05HZ44ZWA0MJZFPQECMU2", "dateTime": 1516897227225}, {"current_trial": 58, "trialdata": {"rt": -1000, "trial_type": "single-audio", "word": "grill", "stimulus": "/static/audio/wordpool/GRILL.wav", "conditions": [18, 1200, "a", 18000], "internal_node_id": "0.0-40.0", "trial": 1, "time_elapsed": 499562, "serialpos": 3, "key_press": -1, "wordID": 660, "type": "PRES_AUD", "trial_index": 58}, "uniqueid": "MTK2229:3BXQMRHWK05HZ44ZWA0MJZFPQECMU2", "dateTime": 1516897229584}, {"current_trial": 59, "trialdata": {"rt": -1000, "trial_type": "single-audio", "word": "cross", "stimulus": "/static/audio/wordpool/CROSS.wav", "conditions": [18, 1200, "a", 18000], "internal_node_id": "0.0-41.0", "trial": 1, "time_elapsed": 501678, "serialpos": 4, "key_press": -1, "wordID": 412, "type": "PRES_AUD", "trial_index": 59}, "uniqueid": "MTK2229:3BXQMRHWK05HZ44ZWA0MJZFPQECMU2", "dateTime": 1516897231700}, {"current_trial": 60, "trialdata": {"rt": -1000, "trial_type": "single-audio", "word": "crevice", "stimulus": "/static/audio/wordpool/CREVICE.wav", "conditions": [18, 1200, "a", 18000], "internal_node_id": "0.0-42.0", "trial": 1, "time_elapsed": 503689, "serialpos": 5, "key_press": -1, "wordID": 404, "type": "PRES_AUD", "trial_index": 60}, "uniqueid": "MTK2229:3BXQMRHWK05HZ44ZWA0MJZFPQECMU2", "dateTime": 1516897233712}, {"current_trial": 61, "trialdata": {"rt": -1000, "trial_type": "single-audio", "word": "juggler", "stimulus": "/static/audio/wordpool/JUGGLER.wav", "conditions": [18, 1200, "a", 18000], "internal_node_id": "0.0-43.0", "trial": 1, "time_elapsed": 505943, "serialpos": 6, "key_press": -1, "wordID": 762, "type": "PRES_AUD", "trial_index": 61}, "uniqueid": "MTK2229:3BXQMRHWK05HZ44ZWA0MJZFPQECMU2", "dateTime": 1516897235965}, {"current_trial": 62, "trialdata": {"rt": -1000, "trial_type": "single-audio", "word": "cafe", "stimulus": "/static/audio/wordpool/CAFE.wav", "conditions": [18, 1200, "a", 18000], "internal_node_id": "0.0-44.0", "trial": 1, "time_elapsed": 508144, "serialpos": 7, "key_press": -1, "wordID": 215, "type": "PRES_AUD", "trial_index": 62}, "uniqueid": "MTK2229:3BXQMRHWK05HZ44ZWA0MJZFPQECMU2", "dateTime": 1516897238166}, {"current_trial": 63, "trialdata": {"rt": -1000, "trial_type": "single-audio", "word": "igloo", "stimulus": "/static/audio/wordpool/IGLOO.wav", "conditions": [18, 1200, "a", 18000], "internal_node_id": "0.0-45.0", "trial": 1, "time_elapsed": 510149, "serialpos": 8, "key_press": -1, "wordID": 733, "type": "PRES_AUD", "trial_index": 63}, "uniqueid": "MTK2229:3BXQMRHWK05HZ44ZWA0MJZFPQECMU2", "dateTime": 1516897240172}, {"current_trial": 64, "trialdata": {"rt": -1000, "trial_type": "single-audio", "word": "box", "stimulus": "/static/audio/wordpool/BOX.wav", "conditions": [18, 1200, "a", 18000], "internal_node_id": "0.0-46.0", "trial": 1, "time_elapsed": 512553, "serialpos": 9, "key_press": -1, "wordID": 158, "type": "PRES_AUD", "trial_index": 64}, "uniqueid": "MTK2229:3BXQMRHWK05HZ44ZWA0MJZFPQECMU2", "dateTime": 1516897242575}, {"current_trial": 65, "trialdata": {"rt": -1000, "trial_type": "single-audio", "word": "cloud", "stimulus": "/static/audio/wordpool/CLOUD.wav", "conditions": [18, 1200, "a", 18000], "internal_node_id": "0.0-47.0", "trial": 1, "time_elapsed": 514635, "serialpos": 10, "key_press": -1, "wordID": 327, "type": "PRES_AUD", "trial_index": 65}, "uniqueid": "MTK2229:3BXQMRHWK05HZ44ZWA0MJZFPQECMU2", "dateTime": 1516897244657}, {"current_trial": 66, "trialdata": {"rt": -1000, "trial_type": "single-audio", "word": "possum", "stimulus": "/static/audio/wordpool/POSSUM.wav", "conditions": [18, 1200, "a", 18000], "internal_node_id": "0.0-48.0", "trial": 1, "time_elapsed": 516726, "serialpos": 11, "key_press": -1, "wordID": 1111, "type": "PRES_AUD", "trial_index": 66}, "uniqueid": "MTK2229:3BXQMRHWK05HZ44ZWA0MJZFPQECMU2", "dateTime": 1516897246748}, {"current_trial": 67, "trialdata": {"rt": -1000, "trial_type": "single-audio", "word": "paper", "stimulus": "/static/audio/wordpool/PAPER.wav", "conditions": [18, 1200, "a", 18000], "internal_node_id": "0.0-49.0", "trial": 1, "time_elapsed": 518944, "serialpos": 12, "key_press": -1, "wordID": 1010, "type": "PRES_AUD", "trial_index": 67}, "uniqueid": "MTK2229:3BXQMRHWK05HZ44ZWA0MJZFPQECMU2", "dateTime": 1516897248966}, {"current_trial": 68, "trialdata": {"rt": -1000, "trial_type": "single-audio", "word": "turkey", "stimulus": "/static/audio/wordpool/TURKEY.wav", "conditions": [18, 1200, "a", 18000], "internal_node_id": "0.0-50.0", "trial": 1, "time_elapsed": 521269, "serialpos": 13, "key_press": -1, "wordID": 1519, "type": "PRES_AUD", "trial_index": 68}, "uniqueid": "MTK2229:3BXQMRHWK05HZ44ZWA0MJZFPQECMU2", "dateTime": 1516897251295}, {"current_trial": 69, "trialdata": {"rt": -1000, "trial_type": "single-audio", "word": "belly", "stimulus": "/static/audio/wordpool/BELLY.wav", "conditions": [18, 1200, "a", 18000], "internal_node_id": "0.0-51.0", "trial": 1, "time_elapsed": 523625, "serialpos": 14, "key_press": -1, "wordID": 118, "type": "PRES_AUD", "trial_index": 69}, "uniqueid": "MTK2229:3BXQMRHWK05HZ44ZWA0MJZFPQECMU2", "dateTime": 1516897253648}, {"current_trial": 70, "trialdata": {"rt": -1000, "trial_type": "single-audio", "word": "swamp", "stimulus": "/static/audio/wordpool/SWAMP.wav", "conditions": [18, 1200, "a", 18000], "internal_node_id": "0.0-52.0", "trial": 1, "time_elapsed": 525774, "serialpos": 15, "key_press": -1, "wordID": 1415, "type": "PRES_AUD", "trial_index": 70}, "uniqueid": "MTK2229:3BXQMRHWK05HZ44ZWA0MJZFPQECMU2", "dateTime": 1516897255797}, {"current_trial": 71, "trialdata": {"rt": -1000, "trial_type": "single-audio", "word": "beaver", "stimulus": "/static/audio/wordpool/BEAVER.wav", "conditions": [18, 1200, "a", 18000], "internal_node_id": "0.0-53.0", "trial": 1, "time_elapsed": 527839, "serialpos": 16, "key_press": -1, "wordID": 108, "type": "PRES_AUD", "trial_index": 71}, "uniqueid": "MTK2229:3BXQMRHWK05HZ44ZWA0MJZFPQECMU2", "dateTime": 1516897257861}, {"current_trial": 72, "trialdata": {"rt": -1000, "trial_type": "single-audio", "word": "permit", "stimulus": "/static/audio/wordpool/PERMIT.wav", "conditions": [18, 1200, "a", 18000], "internal_node_id": "0.0-54.0", "trial": 1, "time_elapsed": 529846, "serialpos": 17, "key_press": -1, "wordID": 1050, "type": "PRES_AUD", "trial_index": 72}, "uniqueid": "MTK2229:3BXQMRHWK05HZ44ZWA0MJZFPQECMU2", "dateTime": 1516897259868}, {"current_trial": 73, "trialdata": {"rt": -1, "trial_type": "single-stim", "stimulus": "", "internal_node_id": "0.0-55.0-0.0", "time_elapsed": 531196, "key_press": -1, "type": "PRE_RECALL_DELAY", "trial_index": 73}, "uniqueid": "MTK2229:3BXQMRHWK05HZ44ZWA0MJZFPQECMU2", "dateTime": 1516897261219}, {"current_trial": 74, "trialdata": {"rt": -1000, "trial_type": "single-audio", "stimulus": "/static/audio/400Hz.wav", "internal_node_id": "0.0-56.0", "time_elapsed": 531702, "key_press": -1, "type": "PRE_RECALL_ALERT", "trial_index": 74}, "uniqueid": "MTK2229:3BXQMRHWK05HZ44ZWA0MJZFPQECMU2", "dateTime": 1516897261724}, {"current_trial": 75, "trialdata": {"rt": [5823, 11905, 13412, 15357, 21826, 24803, 29794, 31513, 38619, 40610, 49626], "recwords": ["permit", "turkey", "spce", "grill", "igloo", "paper", "cost", "grill", "cloud", "valley", "fox"], "key_times": [3180, 3310, 3514, 3673, 3891, 4005, 5823, 9894, 10064, 10249, 11176, 11354, 11549, 11905, 12374, 12519, 12911, 13161, 13412, 14261, 14525, 14662, 14920, 15107, 15357, 18043, 18238, 19559, 19937, 20135, 21826, 23203, 23554, 23948, 24117, 24361, 24803, 29012, 29124, 29240, 29520, 29794, 30560, 30794, 30894, 31110, 31304, 31513, 37707, 37834, 38027, 38218, 38401, 38619, 39523, 39703, 39836, 40021, 40140, 40319, 40610, 49161, 49301, 49447, 49626], "trial_type": "free-recall", "conditions": [18, 1200, "a", 18000], "internal_node_id": "0.0-57.0-0.0", "key_presses": [80, 69, 82, 77, 73, 84, 13, 84, 85, 82, 75, 69, 89, 13, 83, 80, 67, 69, 13, 71, 82, 73, 76, 76, 13, 73, 71, 76, 79, 79, 13, 80, 65, 80, 69, 82, 13, 67, 79, 83, 84, 13, 71, 82, 73, 76, 76, 13, 67, 76, 79, 85, 68, 13, 86, 65, 76, 76, 69, 89, 13, 70, 79, 88, 13], "trial": 1, "time_elapsed": 591707, "type": "FREE_RECALL", "trial_index": 75}, "uniqueid": "MTK2229:3BXQMRHWK05HZ44ZWA0MJZFPQECMU2", "dateTime": 1516897321732}, {"current_trial": 76, "trialdata": {"rt": 4364, "trial_type": "text", "internal_node_id": "0.0-58.0", "time_elapsed": 598078, "key_press": 32, "type": "INSTRUCTIONS", "trial_index": 76}, "uniqueid": "MTK2229:3BXQMRHWK05HZ44ZWA0MJZFPQECMU2", "dateTime": 1516897328100}, {"current_trial": 77, "trialdata": {"rt": [3898, 11086], "trial_type": "math-distractor", "key_times": [3563, 3723, 3898, 7277, 7504, 11086], "responses": ["15", "21"], "num2": [5, 6, 7], "num3": [5, 6, 6], "conditions": [24, 800, "a", 12000], "internal_node_id": "0.0-59.0", "key_presses": [97, 101, 13, 98, 97, 13], "trial": 2, "time_elapsed": 611091, "type": "DISTRACTOR", "trial_index": 77, "num1": [5, 9, 2]}, "uniqueid": "MTK2229:3BXQMRHWK05HZ44ZWA0MJZFPQECMU2", "dateTime": 1516897341114}, {"current_trial": 78, "trialdata": {"rt": -1, "trial_type": "single-stim", "stimulus": "<p id=\"stim\">10</p>", "internal_node_id": "0.0-60.0-0.0", "time_elapsed": 614096, "key_press": -1, "trial_index": 78}, "uniqueid": "MTK2229:3BXQMRHWK05HZ44ZWA0MJZFPQECMU2", "dateTime": 1516897344118}, {"current_trial": 79, "trialdata": {"rt": -1, "trial_type": "single-stim", "stimulus": "<p id=\"stim\">9</p>", "internal_node_id": "0.0-60.0-1.0", "time_elapsed": 615098, "key_press": -1, "trial_index": 79}, "uniqueid": "MTK2229:3BXQMRHWK05HZ44ZWA0MJZFPQECMU2", "dateTime": 1516897345120}, {"current_trial": 80, "trialdata": {"rt": -1, "trial_type": "single-stim", "stimulus": "<p id=\"stim\">8</p>", "internal_node_id": "0.0-60.0-2.0", "time_elapsed": 616100, "key_press": -1, "trial_index": 80}, "uniqueid": "MTK2229:3BXQMRHWK05HZ44ZWA0MJZFPQECMU2", "dateTime": 1516897346122}, {"current_trial": 81, "trialdata": {"rt": -1, "trial_type": "single-stim", "stimulus": "<p id=\"stim\">7</p>", "internal_node_id": "0.0-60.0-3.0", "time_elapsed": 617102, "key_press": -1, "trial_index": 81}, "uniqueid": "MTK2229:3BXQMRHWK05HZ44ZWA0MJZFPQECMU2", "dateTime": 1516897347124}, {"current_trial": 82, "trialdata": {"rt": -1, "trial_type": "single-stim", "stimulus": "<p id=\"stim\">6</p>", "internal_node_id": "0.0-60.0-4.0", "time_elapsed": 618105, "key_press": -1, "trial_index": 82}, "uniqueid": "MTK2229:3BXQMRHWK05HZ44ZWA0MJZFPQECMU2", "dateTime": 1516897348127}, {"current_trial": 83, "trialdata": {"rt": -1, "trial_type": "single-stim", "stimulus": "<p id=\"stim\">5</p>", "internal_node_id": "0.0-60.0-5.0", "time_elapsed": 619107, "key_press": -1, "trial_index": 83}, "uniqueid": "MTK2229:3BXQMRHWK05HZ44ZWA0MJZFPQECMU2", "dateTime": 1516897349129}, {"current_trial": 84, "trialdata": {"rt": -1, "trial_type": "single-stim", "stimulus": "<p id=\"stim\">4</p>", "internal_node_id": "0.0-60.0-6.0", "time_elapsed": 620108, "key_press": -1, "trial_index": 84}, "uniqueid": "MTK2229:3BXQMRHWK05HZ44ZWA0MJZFPQECMU2", "dateTime": 1516897350131}, {"current_trial": 85, "trialdata": {"rt": -1, "trial_type": "single-stim", "stimulus": "<p id=\"stim\">3</p>", "internal_node_id": "0.0-60.0-7.0", "time_elapsed": 621111, "key_press": -1, "trial_index": 85}, "uniqueid": "MTK2229:3BXQMRHWK05HZ44ZWA0MJZFPQECMU2", "dateTime": 1516897351133}, {"current_trial": 86, "trialdata": {"rt": -1, "trial_type": "single-stim", "stimulus": "<p id=\"stim\">2</p>", "internal_node_id": "0.0-60.0-8.0", "time_elapsed": 622114, "key_press": -1, "trial_index": 86}, "uniqueid": "MTK2229:3BXQMRHWK05HZ44ZWA0MJZFPQECMU2", "dateTime": 1516897352136}, {"current_trial": 87, "trialdata": {"rt": -1, "trial_type": "single-stim", "stimulus": "<p id=\"stim\">1</p>", "internal_node_id": "0.0-60.0-9.0", "time_elapsed": 623116, "key_press": -1, "trial_index": 87}, "uniqueid": "MTK2229:3BXQMRHWK05HZ44ZWA0MJZFPQECMU2", "dateTime": 1516897353138}, {"current_trial": 88, "trialdata": {"rt": -1, "trial_type": "single-stim", "stimulus": "<p id=\"stim\">+</p>", "internal_node_id": "0.0-61.0-0.0", "time_elapsed": 624618, "key_press": -1, "type": "FIXATION", "trial_index": 88}, "uniqueid": "MTK2229:3BXQMRHWK05HZ44ZWA0MJZFPQECMU2", "dateTime": 1516897354640}, {"current_trial": 89, "trialdata": {"rt": -1000, "trial_type": "single-audio", "word": "chapel", "stimulus": "/static/audio/wordpool/CHAPEL.wav", "conditions": [24, 800, "a", 12000], "internal_node_id": "0.0-62.0", "trial": 2, "time_elapsed": 626406, "serialpos": 0, "key_press": -1, "wordID": 279, "type": "PRES_AUD", "trial_index": 89}, "uniqueid": "MTK2229:3BXQMRHWK05HZ44ZWA0MJZFPQECMU2", "dateTime": 1516897356429}, {"current_trial": 90, "trialdata": {"rt": -1000, "trial_type": "single-audio", "word": "briefcase", "stimulus": "/static/audio/wordpool/BRIEFCASE.wav", "conditions": [24, 800, "a", 12000], "internal_node_id": "0.0-63.0", "trial": 2, "time_elapsed": 628072, "serialpos": 1, "key_press": -1, "wordID": 174, "type": "PRES_AUD", "trial_index": 90}, "uniqueid": "MTK2229:3BXQMRHWK05HZ44ZWA0MJZFPQECMU2", "dateTime": 1516897358094}, {"current_trial": 91, "trialdata": {"rt": -1000, "trial_type": "single-audio", "word": "vagrant", "stimulus": "/static/audio/wordpool/VAGRANT.wav", "conditions": [24, 800, "a", 12000], "internal_node_id": "0.0-64.0", "trial": 2, "time_elapsed": 629832, "serialpos": 2, "key_press": -1, "wordID": 1543, "type": "PRES_AUD", "trial_index": 91}, "uniqueid": "MTK2229:3BXQMRHWK05HZ44ZWA0MJZFPQECMU2", "dateTime": 1516897359854}, {"current_trial": 92, "trialdata": {"rt": -1000, "trial_type": "single-audio", "word": "pilot", "stimulus": "/static/audio/wordpool/PILOT.wav", "conditions": [24, 800, "a", 12000], "internal_node_id": "0.0-65.0", "trial": 2, "time_elapsed": 631629, "serialpos": 3, "key_press": -1, "wordID": 1069, "type": "PRES_AUD", "trial_index": 92}, "uniqueid": "MTK2229:3BXQMRHWK05HZ44ZWA0MJZFPQECMU2", "dateTime": 1516897361651}, {"current_trial": 93, "trialdata": {"rt": -1000, "trial_type": "single-audio", "word": "subway", "stimulus": "/static/audio/wordpool/SUBWAY.wav", "conditions": [24, 800, "a", 12000], "internal_node_id": "0.0-66.0", "trial": 2, "time_elapsed": 633391, "serialpos": 4, "key_press": -1, "wordID": 1399, "type": "PRES_AUD", "trial_index": 93}, "uniqueid": "MTK2229:3BXQMRHWK05HZ44ZWA0MJZFPQECMU2", "dateTime": 1516897363414}, {"current_trial": 94, "trialdata": {"rt": -1000, "trial_type": "single-audio", "word": "salmon", "stimulus": "/static/audio/wordpool/SALMON.wav", "conditions": [24, 800, "a", 12000], "internal_node_id": "0.0-67.0", "trial": 2, "time_elapsed": 635107, "serialpos": 5, "key_press": -1, "wordID": 1226, "type": "PRES_AUD", "trial_index": 94}, "uniqueid": "MTK2229:3BXQMRHWK05HZ44ZWA0MJZFPQECMU2", "dateTime": 1516897365129}, {"current_trial": 95, "trialdata": {"rt": -1000, "trial_type": "single-audio", "word": "kitchen", "stimulus": "/static/audio/wordpool/KITCHEN.wav", "conditions": [24, 800, "a", 12000], "internal_node_id": "0.0-68.0", "trial": 2, "time_elapsed": 636863, "serialpos": 6, "key_press": -1, "wordID": 777, "type": "PRES_AUD", "trial_index": 95}, "uniqueid": "MTK2229:3BXQMRHWK05HZ44ZWA0MJZFPQECMU2", "dateTime": 1516897366885}, {"current_trial": 96, "trialdata": {"rt": -1000, "trial_type": "single-audio", "word": "smog", "stimulus": "/static/audio/wordpool/SMOG.wav", "conditions": [24, 800, "a", 12000], "internal_node_id": "0.0-69.0", "trial": 2, "time_elapsed": 638682, "serialpos": 7, "key_press": -1, "wordID": 1329, "type": "PRES_AUD", "trial_index": 96}, "uniqueid": "MTK2229:3BXQMRHWK05HZ44ZWA0MJZFPQECMU2", "dateTime": 1516897368705}, {"current_trial": 97, "trialdata": {"rt": -1000, "trial_type": "single-audio", "word": "sheriff", "stimulus": "/static/audio/wordpool/SHERIFF.wav", "conditions": [24, 800, "a", 12000], "internal_node_id": "0.0-70.0", "trial": 2, "time_elapsed": 640420, "serialpos": 8, "key_press": -1, "wordID": 1283, "type": "PRES_AUD", "trial_index": 97}, "uniqueid": "MTK2229:3BXQMRHWK05HZ44ZWA0MJZFPQECMU2", "dateTime": 1516897370442}, {"current_trial": 98, "trialdata": {"rt": -1000, "trial_type": "single-audio", "word": "county", "stimulus": "/static/audio/wordpool/COUNTY.wav", "conditions": [24, 800, "a", 12000], "internal_node_id": "0.0-71.0", "trial": 2, "time_elapsed": 642355, "serialpos": 9, "key_press": -1, "wordID": 388, "type": "PRES_AUD", "trial_index": 98}, "uniqueid": "MTK2229:3BXQMRHWK05HZ44ZWA0MJZFPQECMU2", "dateTime": 1516897372377}, {"current_trial": 99, "trialdata": {"rt": -1000, "trial_type": "single-audio", "word": "hook", "stimulus": "/static/audio/wordpool/HOOK.wav", "conditions": [24, 800, "a", 12000], "internal_node_id": "0.0-72.0", "trial": 2, "time_elapsed": 644326, "serialpos": 10, "key_press": -1, "wordID": 714, "type": "PRES_AUD", "trial_index": 99}, "uniqueid": "MTK2229:3BXQMRHWK05HZ44ZWA0MJZFPQECMU2", "dateTime": 1516897374348}, {"current_trial": 100, "trialdata": {"rt": -1000, "trial_type": "single-audio", "word": "church", "stimulus": "/static/audio/wordpool/CHURCH.wav", "conditions": [24, 800, "a", 12000], "internal_node_id": "0.0-73.0", "trial": 2, "time_elapsed": 645995, "serialpos": 11, "key_press": -1, "wordID": 306, "type": "PRES_AUD", "trial_index": 100}, "uniqueid": "MTK2229:3BXQMRHWK05HZ44ZWA0MJZFPQECMU2", "dateTime": 1516897376017}, {"current_trial": 101, "trialdata": {"rt": -1000, "trial_type": "single-audio", "word": "rust", "stimulus": "/static/audio/wordpool/RUST.wav", "conditions": [24, 800, "a", 12000], "internal_node_id": "0.0-74.0", "trial": 2, "time_elapsed": 647726, "serialpos": 12, "key_press": -1, "wordID": 1218, "type": "PRES_AUD", "trial_index": 101}, "uniqueid": "MTK2229:3BXQMRHWK05HZ44ZWA0MJZFPQECMU2", "dateTime": 1516897377748}, {"current_trial": 102, "trialdata": {"rt": -1000, "trial_type": "single-audio", "word": "costume", "stimulus": "/static/audio/wordpool/COSTUME.wav", "conditions": [24, 800, "a", 12000], "internal_node_id": "0.0-75.0", "trial": 2, "time_elapsed": 649646, "serialpos": 13, "key_press": -1, "wordID": 382, "type": "PRES_AUD", "trial_index": 102}, "uniqueid": "MTK2229:3BXQMRHWK05HZ44ZWA0MJZFPQECMU2", "dateTime": 1516897379668}, {"current_trial": 103, "trialdata": {"rt": -1000, "trial_type": "single-audio", "word": "tutu", "stimulus": "/static/audio/wordpool/TUTU.wav", "conditions": [24, 800, "a", 12000], "internal_node_id": "0.0-76.0", "trial": 2, "time_elapsed": 651288, "serialpos": 14, "key_press": -1, "wordID": 1523, "type": "PRES_AUD", "trial_index": 103}, "uniqueid": "MTK2229:3BXQMRHWK05HZ44ZWA0MJZFPQECMU2", "dateTime": 1516897381312}, {"current_trial": 104, "trialdata": {"rt": -1000, "trial_type": "single-audio", "word": "rod", "stimulus": "/static/audio/wordpool/ROD.wav", "conditions": [24, 800, "a", 12000], "internal_node_id": "0.0-77.0", "trial": 2, "time_elapsed": 652905, "serialpos": 15, "key_press": -1, "wordID": 1202, "type": "PRES_AUD", "trial_index": 104}, "uniqueid": "MTK2229:3BXQMRHWK05HZ44ZWA0MJZFPQECMU2", "dateTime": 1516897382927}, {"current_trial": 105, "trialdata": {"rt": -1000, "trial_type": "single-audio", "word": "clam", "stimulus": "/static/audio/wordpool/CLAM.wav", "conditions": [24, 800, "a", 12000], "internal_node_id": "0.0-78.0", "trial": 2, "time_elapsed": 654791, "serialpos": 16, "key_press": -1, "wordID": 314, "type": "PRES_AUD", "trial_index": 105}, "uniqueid": "MTK2229:3BXQMRHWK05HZ44ZWA0MJZFPQECMU2", "dateTime": 1516897384814}, {"current_trial": 106, "trialdata": {"rt": -1000, "trial_type": "single-audio", "word": "pimple", "stimulus": "/static/audio/wordpool/PIMPLE.wav", "conditions": [24, 800, "a", 12000], "internal_node_id": "0.0-79.0", "trial": 2, "time_elapsed": 656757, "serialpos": 17, "key_press": -1, "wordID": 1070, "type": "PRES_AUD", "trial_index": 106}, "uniqueid": "MTK2229:3BXQMRHWK05HZ44ZWA0MJZFPQECMU2", "dateTime": 1516897386779}, {"current_trial": 107, "trialdata": {"rt": -1000, "trial_type": "single-audio", "word": "proton", "stimulus": "/static/audio/wordpool/PROTON.wav", "conditions": [24, 800, "a", 12000], "internal_node_id": "0.0-80.0", "trial": 2, "time_elapsed": 658667, "serialpos": 18, "key_press": -1, "wordID": 1131, "type": "PRES_AUD", "trial_index": 107}, "uniqueid": "MTK2229:3BXQMRHWK05HZ44ZWA0MJZFPQECMU2", "dateTime": 1516897388689}, {"current_trial": 108, "trialdata": {"rt": -1000, "trial_type": "single-audio", "word": "body", "stimulus": "/static/audio/wordpool/BODY.wav", "conditions": [24, 800, "a", 12000], "internal_node_id": "0.0-81.0", "trial": 2, "time_elapsed": 660361, "serialpos": 19, "key_press": -1, "wordID": 144, "type": "PRES_AUD", "trial_index": 108}, "uniqueid": "MTK2229:3BXQMRHWK05HZ44ZWA0MJZFPQECMU2", "dateTime": 1516897390384}, {"current_trial": 109, "trialdata": {"rt": -1000, "trial_type": "single-audio", "word": "brother", "stimulus": "/static/audio/wordpool/BROTHER.wav", "conditions": [24, 800, "a", 12000], "internal_node_id": "0.0-82.0", "trial": 2, "time_elapsed": 661996, "serialpos": 20, "key_press": -1, "wordID": 178, "type": "PRES_AUD", "trial_index": 109}, "uniqueid": "MTK2229:3BXQMRHWK05HZ44ZWA0MJZFPQECMU2", "dateTime": 1516897392018}, {"current_trial": 110, "trialdata": {"rt": -1000, "trial_type": "single-audio", "word": "luggage", "stimulus": "/static/audio/wordpool/LUGGAGE.wav", "conditions": [24, 800, "a", 12000], "internal_node_id": "0.0-83.0", "trial": 2, "time_elapsed": 663871, "serialpos": 21, "key_press": -1, "wordID": 846, "type": "PRES_AUD", "trial_index": 110}, "uniqueid": "MTK2229:3BXQMRHWK05HZ44ZWA0MJZFPQECMU2", "dateTime": 1516897393893}, {"current_trial": 111, "trialdata": {"rt": -1000, "trial_type": "single-audio", "word": "blueprint", "stimulus": "/static/audio/wordpool/BLUEPRINT.wav", "conditions": [24, 800, "a", 12000], "internal_node_id": "0.0-84.0", "trial": 2, "time_elapsed": 665622, "serialpos": 22, "key_press": -1, "wordID": 141, "type": "PRES_AUD", "trial_index": 111}, "uniqueid": "MTK2229:3BXQMRHWK05HZ44ZWA0MJZFPQECMU2", "dateTime": 1516897395644}, {"current_trial": 112, "trialdata": {"rt": -1000, "trial_type": "single-audio", "word": "sister", "stimulus": "/static/audio/wordpool/SISTER.wav", "conditions": [24, 800, "a", 12000], "internal_node_id": "0.0-85.0", "trial": 2, "time_elapsed": 667324, "serialpos": 23, "key_press": -1, "wordID": 1311, "type": "PRES_AUD", "trial_index": 112}, "uniqueid": "MTK2229:3BXQMRHWK05HZ44ZWA0MJZFPQECMU2", "dateTime": 1516897397346}, {"current_trial": 113, "trialdata": {"rt": -1, "trial_type": "single-stim", "stimulus": "", "internal_node_id": "0.0-86.0-0.0", "time_elapsed": 668536, "key_press": -1, "type": "PRE_RECALL_DELAY", "trial_index": 113}, "uniqueid": "MTK2229:3BXQMRHWK05HZ44ZWA0MJZFPQECMU2", "dateTime": 1516897398558}, {"current_trial": 114, "trialdata": {"rt": -1000, "trial_type": "single-audio", "stimulus": "/static/audio/400Hz.wav", "internal_node_id": "0.0-87.0", "time_elapsed": 669038, "key_press": -1, "type": "PRE_RECALL_ALERT", "trial_index": 114}, "uniqueid": "MTK2229:3BXQMRHWK05HZ44ZWA0MJZFPQECMU2", "dateTime": 1516897399060}, {"current_trial": 115, "trialdata": {"rt": [5407, 9680, 13313, 16105, 22128, 27849, 34580, 42778, 49939, 59142], "recwords": ["sister", "brother", "body", "church", "kitchen", "chapel", "auto", "luggage", "pilot", "briefcase"], "key_times": [4231, 4371, 4529, 4784, 5000, 5210, 5407, 5658, 5913, 6046, 6213, 6362, 6776, 7023, 9680, 12062, 12235, 12419, 12724, 13313, 14862, 14966, 15182, 15351, 15639, 15817, 16105, 20804, 20980, 21054, 21332, 21438, 21645, 21769, 22128, 26588, 26771, 26858, 26945, 27106, 27272, 27849, 33924, 34044, 34197, 34299, 34580, 41448, 41632, 41804, 41992, 42196, 42346, 42587, 42778, 48996, 49181, 49396, 49587, 49737, 49939, 57411, 57650, 57752, 57889, 58089, 58395, 58587, 58760, 58990, 59142], "trial_type": "free-recall", "conditions": [24, 800, "a", 12000], "internal_node_id": "0.0-88.0-0.0", "key_presses": [83, 73, 83, 84, 69, 82, 13, 66, 82, 79, 84, 72, 69, 82, 13, 66, 79, 68, 89, 13, 67, 72, 85, 82, 67, 72, 13, 75, 73, 84, 67, 72, 69, 78, 13, 67, 72, 65, 80, 69, 76, 13, 65, 85, 84, 79, 13, 76, 85, 71, 71, 65, 71, 69, 13, 80, 73, 76, 79, 84, 13, 66, 82, 73, 69, 70, 67, 65, 83, 69, 13], "trial": 2, "time_elapsed": 729043, "type": "FREE_RECALL", "trial_index": 115}, "uniqueid": "MTK2229:3BXQMRHWK05HZ44ZWA0MJZFPQECMU2", "dateTime": 1516897459069}, {"current_trial": 116, "trialdata": {"rt": 8768, "trial_type": "text", "internal_node_id": "0.0-89.0", "time_elapsed": 739817, "key_press": 32, "type": "INSTRUCTIONS", "trial_index": 116}, "uniqueid": "MTK2229:3BXQMRHWK05HZ44ZWA0MJZFPQECMU2", "dateTime": 1516897469839}, {"current_trial": 117, "trialdata": {"rt": [4223, 10545, 12706, 15072, 17702, 19658, 21467], "trial_type": "math-distractor", "key_times": [3273, 3451, 4223, 9657, 9846, 10545, 12479, 12706, 14736, 14927, 15072, 17343, 17539, 17702, 19291, 19454, 19658, 21219, 21467], "responses": ["14", "15", "5", "11", "11", "15", "6"], "num2": [7, 4, 2, 3, 3, 1, 3, 6], "num3": [6, 7, 2, 2, 6, 6, 2, 2], "conditions": [12, 800, "a", 24000], "internal_node_id": "0.0-90.0", "key_presses": [97, 100, 13, 97, 101, 13, 101, 13, 97, 97, 13, 97, 97, 13, 97, 101, 13, 102, 13], "trial": 3, "time_elapsed": 765824, "type": "DISTRACTOR", "trial_index": 117, "num1": [1, 4, 1, 6, 2, 8, 1, 7]}, "uniqueid": "MTK2229:3BXQMRHWK05HZ44ZWA0MJZFPQECMU2", "dateTime": 1516897495846}, {"current_trial": 118, "trialdata": {"rt": -1, "trial_type": "single-stim", "stimulus": "<p id=\"stim\">10</p>", "internal_node_id": "0.0-91.0-0.0", "time_elapsed": 768847, "key_press": -1, "trial_index": 118}, "uniqueid": "MTK2229:3BXQMRHWK05HZ44ZWA0MJZFPQECMU2", "dateTime": 1516897498870}, {"current_trial": 119, "trialdata": {"rt": -1, "trial_type": "single-stim", "stimulus": "<p id=\"stim\">9</p>", "internal_node_id": "0.0-91.0-1.0", "time_elapsed": 769850, "key_press": -1, "trial_index": 119}, "uniqueid": "MTK2229:3BXQMRHWK05HZ44ZWA0MJZFPQECMU2", "dateTime": 1516897499872}, {"current_trial": 120, "trialdata": {"rt": -1, "trial_type": "single-stim", "stimulus": "<p id=\"stim\">8</p>", "internal_node_id": "0.0-91.0-2.0", "time_elapsed": 770853, "key_press": -1, "trial_index": 120}, "uniqueid": "MTK2229:3BXQMRHWK05HZ44ZWA0MJZFPQECMU2", "dateTime": 1516897500875}, {"current_trial": 121, "trialdata": {"rt": -1, "trial_type": "single-stim", "stimulus": "<p id=\"stim\">7</p>", "internal_node_id": "0.0-91.0-3.0", "time_elapsed": 771856, "key_press": -1, "trial_index": 121}, "uniqueid": "MTK2229:3BXQMRHWK05HZ44ZWA0MJZFPQECMU2", "dateTime": 1516897501878}, {"current_trial": 122, "trialdata": {"rt": -1, "trial_type": "single-stim", "stimulus": "<p id=\"stim\">6</p>", "internal_node_id": "0.0-91.0-4.0", "time_elapsed": 772859, "key_press": -1, "trial_index": 122}, "uniqueid": "MTK2229:3BXQMRHWK05HZ44ZWA0MJZFPQECMU2", "dateTime": 1516897502882}, {"current_trial": 123, "trialdata": {"rt": -1, "trial_type": "single-stim", "stimulus": "<p id=\"stim\">5</p>", "internal_node_id": "0.0-91.0-5.0", "time_elapsed": 773865, "key_press": -1, "trial_index": 123}, "uniqueid": "MTK2229:3BXQMRHWK05HZ44ZWA0MJZFPQECMU2", "dateTime": 1516897503888}, {"current_trial": 124, "trialdata": {"rt": -1, "trial_type": "single-stim", "stimulus": "<p id=\"stim\">4</p>", "internal_node_id": "0.0-91.0-6.0", "time_elapsed": 774868, "key_press": -1, "trial_index": 124}, "uniqueid": "MTK2229:3BXQMRHWK05HZ44ZWA0MJZFPQECMU2", "dateTime": 1516897504890}, {"current_trial": 125, "trialdata": {"rt": -1, "trial_type": "single-stim", "stimulus": "<p id=\"stim\">3</p>", "internal_node_id": "0.0-91.0-7.0", "time_elapsed": 775871, "key_press": -1, "trial_index": 125}, "uniqueid": "MTK2229:3BXQMRHWK05HZ44ZWA0MJZFPQECMU2", "dateTime": 1516897505893}, {"current_trial": 126, "trialdata": {"rt": -1, "trial_type": "single-stim", "stimulus": "<p id=\"stim\">2</p>", "internal_node_id": "0.0-91.0-8.0", "time_elapsed": 776874, "key_press": -1, "trial_index": 126}, "uniqueid": "MTK2229:3BXQMRHWK05HZ44ZWA0MJZFPQECMU2", "dateTime": 1516897506896}, {"current_trial": 127, "trialdata": {"rt": -1, "trial_type": "single-stim", "stimulus": "<p id=\"stim\">1</p>", "internal_node_id": "0.0-91.0-9.0", "time_elapsed": 777877, "key_press": -1, "trial_index": 127}, "uniqueid": "MTK2229:3BXQMRHWK05HZ44ZWA0MJZFPQECMU2", "dateTime": 1516897507899}, {"current_trial": 128, "trialdata": {"rt": -1, "trial_type": "single-stim", "stimulus": "<p id=\"stim\">+</p>", "internal_node_id": "0.0-92.0-0.0", "time_elapsed": 779380, "key_press": -1, "type": "FIXATION", "trial_index": 128}, "uniqueid": "MTK2229:3BXQMRHWK05HZ44ZWA0MJZFPQECMU2", "dateTime": 1516897509402}, {"current_trial": 129, "trialdata": {"rt": -1000, "trial_type": "single-audio", "word": "perfume", "stimulus": "/static/audio/wordpool/PERFUME.wav", "conditions": [12, 800, "a", 24000], "internal_node_id": "0.0-93.0", "trial": 3, "time_elapsed": 781225, "serialpos": 0, "key_press": -1, "wordID": 1048, "type": "PRES_AUD", "trial_index": 129}, "uniqueid": "MTK2229:3BXQMRHWK05HZ44ZWA0MJZFPQECMU2", "dateTime": 1516897511248}, {"current_trial": 130, "trialdata": {"rt": -1000, "trial_type": "single-audio", "word": "fragrance", "stimulus": "/static/audio/wordpool/FRAGRANCE.wav", "conditions": [12, 800, "a", 24000], "internal_node_id": "0.0-94.0", "trial": 3, "time_elapsed": 783066, "serialpos": 1, "key_press": -1, "wordID": 598, "type": "PRES_AUD", "trial_index": 130}, "uniqueid": "MTK2229:3BXQMRHWK05HZ44ZWA0MJZFPQECMU2", "dateTime": 1516897513088}, {"current_trial": 131, "trialdata": {"rt": -1000, "trial_type": "single-audio", "word": "cocoon", "stimulus": "/static/audio/wordpool/COCOON.wav", "conditions": [12, 800, "a", 24000], "internal_node_id": "0.0-95.0", "trial": 3, "time_elapsed": 785047, "serialpos": 2, "key_press": -1, "wordID": 338, "type": "PRES_AUD", "trial_index": 131}, "uniqueid": "MTK2229:3BXQMRHWK05HZ44ZWA0MJZFPQECMU2", "dateTime": 1516897515070}, {"current_trial": 132, "trialdata": {"rt": -1000, "trial_type": "single-audio", "word": "lizard", "stimulus": "/static/audio/wordpool/LIZARD.wav", "conditions": [12, 800, "a", 24000], "internal_node_id": "0.0-96.0", "trial": 3, "time_elapsed": 786764, "serialpos": 3, "key_press": -1, "wordID": 833, "type": "PRES_AUD", "trial_index": 132}, "uniqueid": "MTK2229:3BXQMRHWK05HZ44ZWA0MJZFPQECMU2", "dateTime": 1516897516786}, {"current_trial": 133, "trialdata": {"rt": -1000, "trial_type": "single-audio", "word": "skirt", "stimulus": "/static/audio/wordpool/SKIRT.wav", "conditions": [12, 800, "a", 24000], "internal_node_id": "0.0-97.0", "trial": 3, "time_elapsed": 788709, "serialpos": 4, "key_press": -1, "wordID": 1318, "type": "PRES_AUD", "trial_index": 133}, "uniqueid": "MTK2229:3BXQMRHWK05HZ44ZWA0MJZFPQECMU2", "dateTime": 1516897518732}, {"current_trial": 134, "trialdata": {"rt": -1000, "trial_type": "single-audio", "word": "silk", "stimulus": "/static/audio/wordpool/SILK.wav", "conditions": [12, 800, "a", 24000], "internal_node_id": "0.0-98.0", "trial": 3, "time_elapsed": 790372, "serialpos": 5, "key_press": -1, "wordID": 1306, "type": "PRES_AUD", "trial_index": 134}, "uniqueid": "MTK2229:3BXQMRHWK05HZ44ZWA0MJZFPQECMU2", "dateTime": 1516897520394}, {"current_trial": 135, "trialdata": {"rt": -1000, "trial_type": "single-audio", "word": "asia", "stimulus": "/static/audio/wordpool/ASIA.wav", "conditions": [12, 800, "a", 24000], "internal_node_id": "0.0-99.0", "trial": 3, "time_elapsed": 792158, "serialpos": 6, "key_press": -1, "wordID": 45, "type": "PRES_AUD", "trial_index": 135}, "uniqueid": "MTK2229:3BXQMRHWK05HZ44ZWA0MJZFPQECMU2", "dateTime": 1516897522180}, {"current_trial": 136, "trialdata": {"rt": -1000, "trial_type": "single-audio", "word": "ketchup", "stimulus": "/static/audio/wordpool/KETCHUP.wav", "conditions": [12, 800, "a", 24000], "internal_node_id": "0.0-100.0", "trial": 3, "time_elapsed": 794097, "serialpos": 7, "key_press": -1, "wordID": 770, "type": "PRES_AUD", "trial_index": 136}, "uniqueid": "MTK2229:3BXQMRHWK05HZ44ZWA0MJZFPQECMU2", "dateTime": 1516897524119}, {"current_trial": 137, "trialdata": {"rt": -1000, "trial_type": "single-audio", "word": "empire", "stimulus": "/static/audio/wordpool/EMPIRE.wav", "conditions": [12, 800, "a", 24000], "internal_node_id": "0.0-101.0", "trial": 3, "time_elapsed": 795924, "serialpos": 8, "key_press": -1, "wordID": 529, "type": "PRES_AUD", "trial_index": 137}, "uniqueid": "MTK2229:3BXQMRHWK05HZ44ZWA0MJZFPQECMU2", "dateTime": 1516897525946}, {"current_trial": 138, "trialdata": {"rt": -1000, "trial_type": "single-audio", "word": "candy", "stimulus": "/static/audio/wordpool/CANDY.wav", "conditions": [12, 800, "a", 24000], "internal_node_id": "0.0-102.0", "trial": 3, "time_elapsed": 797729, "serialpos": 9, "key_press": -1, "wordID": 229, "type": "PRES_AUD", "trial_index": 138}, "uniqueid": "MTK2229:3BXQMRHWK05HZ44ZWA0MJZFPQECMU2", "dateTime": 1516897527751}, {"current_trial": 139, "trialdata": {"rt": -1000, "trial_type": "single-audio", "word": "puppy", "stimulus": "/static/audio/wordpool/PUPPY.wav", "conditions": [12, 800, "a", 24000], "internal_node_id": "0.0-103.0", "trial": 3, "time_elapsed": 799391, "serialpos": 10, "key_press": -1, "wordID": 1143, "type": "PRES_AUD", "trial_index": 139}, "uniqueid": "MTK2229:3BXQMRHWK05HZ44ZWA0MJZFPQECMU2", "dateTime": 1516897529413}, {"current_trial": 140, "trialdata": {"rt": -1000, "trial_type": "single-audio", "word": "snail", "stimulus": "/static/audio/wordpool/SNAIL.wav", "conditions": [12, 800, "a", 24000], "internal_node_id": "0.0-104.0", "trial": 3, "time_elapsed": 801311, "serialpos": 11, "key_press": -1, "wordID": 1331, "type": "PRES_AUD", "trial_index": 140}, "uniqueid": "MTK2229:3BXQMRHWK05HZ44ZWA0MJZFPQECMU2", "dateTime": 1516897531334}, {"current_trial": 141, "trialdata": {"rt": -1, "trial_type": "single-stim", "stimulus": "", "internal_node_id": "0.0-105.0-0.0", "time_elapsed": 802589, "key_press": -1, "type": "PRE_RECALL_DELAY", "trial_index": 141}, "uniqueid": "MTK2229:3BXQMRHWK05HZ44ZWA0MJZFPQECMU2", "dateTime": 1516897532611}, {"current_trial": 142, "trialdata": {"rt": -1000, "trial_type": "single-audio", "stimulus": "/static/audio/400Hz.wav", "internal_node_id": "0.0-106.0", "time_elapsed": 803095, "key_press": -1, "type": "PRE_RECALL_ALERT", "trial_index": 142}, "uniqueid": "MTK2229:3BXQMRHWK05HZ44ZWA0MJZFPQECMU2", "dateTime": 1516897533118}, {"current_trial": 143, "trialdata": {"rt": [5817, 7917, 9531, 14182, 19616, 24614, 25897, 28102, 29735, 42983, 50695], "recwords": ["snail", "candy", "puppy", "perfu", "perfume", "fragrance", "silk", "asia", "candy", "lizzard", "empire"], "key_times": [4909, 5043, 5171, 5297, 5507, 5817, 6772, 6990, 7144, 7314, 7545, 7917, 8405, 8605, 8838, 8995, 9235, 9531, 13331, 13463, 13675, 13929, 14025, 14182, 14333, 15077, 15898, 15993, 16171, 16378, 16511, 16799, 17083, 19616, 20399, 20623, 20830, 20997, 21507, 21745, 21901, 22106, 22315, 24614, 25134, 25259, 25460, 25673, 25897, 27360, 27569, 27695, 27872, 28102, 28734, 28952, 29064, 29240, 29398, 29735, 41368, 41567, 41801, 42040, 42285, 42509, 42783, 42983, 48306, 48504, 48756, 49329, 49516, 49716, 50695], "trial_type": "free-recall", "conditions": [12, 800, "a", 24000], "internal_node_id": "0.0-107.0-0.0", "key_presses": [83, 78, 65, 73, 76, 13, 67, 65, 78, 68, 89, 13, 80, 85, 80, 80, 89, 13, 80, 69, 82, 70, 85, 186, 77, 8, 80, 69, 82, 70, 85, 77, 69, 13, 70, 82, 65, 71, 82, 65, 78, 67, 69, 13, 83, 73, 76, 75, 13, 65, 83, 73, 65, 13, 67, 65, 78, 68, 89, 13, 76, 73, 90, 90, 65, 82, 68, 13, 69, 77, 80, 73, 82, 69, 13], "trial": 3, "time_elapsed": 863104, "type": "FREE_RECALL", "trial_index": 143}, "uniqueid": "MTK2229:3BXQMRHWK05HZ44ZWA0MJZFPQECMU2", "dateTime": 1516897593130}, {"current_trial": 144, "trialdata": {"rt": 4256, "trial_type": "text", "internal_node_id": "0.0-108.0", "time_elapsed": 869366, "key_press": 32, "type": "INSTRUCTIONS", "trial_index": 144}, "uniqueid": "MTK2229:3BXQMRHWK05HZ44ZWA0MJZFPQECMU2", "dateTime": 1516897599388}, {"current_trial": 145, "trialdata": {"rt": [2998, 10390, 13320, 15478, 21066, 23021], "trial_type": "math-distractor", "key_times": [2268, 2998, 9542, 9722, 10390, 12330, 12618, 13320, 15085, 15301, 15478, 19995, 20141, 21066, 22450, 22723, 23021], "responses": ["4", "23", "17", "11", "23", "17"], "num2": [1, 9, 9, 4, 8, 8, 6], "num3": [2, 6, 2, 3, 6, 8, 2], "conditions": [24, 1600, "a", 24000], "internal_node_id": "0.0-109.0", "key_presses": [100, 13, 98, 99, 13, 97, 103, 13, 97, 97, 13, 98, 99, 13, 97, 103, 13], "trial": 4, "time_elapsed": 895373, "type": "DISTRACTOR", "trial_index": 145, "num1": [1, 8, 6, 4, 9, 1, 8]}, "uniqueid": "MTK2229:3BXQMRHWK05HZ44ZWA0MJZFPQECMU2", "dateTime": 1516897625395}, {"current_trial": 146, "trialdata": {"rt": -1, "trial_type": "single-stim", "stimulus": "<p id=\"stim\">10</p>", "internal_node_id": "0.0-110.0-0.0", "time_elapsed": 898378, "key_press": -1, "trial_index": 146}, "uniqueid": "MTK2229:3BXQMRHWK05HZ44ZWA0MJZFPQECMU2", "dateTime": 1516897628400}, {"current_trial": 147, "trialdata": {"rt": -1, "trial_type": "single-stim", "stimulus": "<p id=\"stim\">9</p>", "internal_node_id": "0.0-110.0-1.0", "time_elapsed": 899380, "key_press": -1, "trial_index": 147}, "uniqueid": "MTK2229:3BXQMRHWK05HZ44ZWA0MJZFPQECMU2", "dateTime": 1516897629402}, {"current_trial": 148, "trialdata": {"rt": -1, "trial_type": "single-stim", "stimulus": "<p id=\"stim\">8</p>", "internal_node_id": "0.0-110.0-2.0", "time_elapsed": 900383, "key_press": -1, "trial_index": 148}, "uniqueid": "MTK2229:3BXQMRHWK05HZ44ZWA0MJZFPQECMU2", "dateTime": 1516897630405}, {"current_trial": 149, "trialdata": {"rt": -1, "trial_type": "single-stim", "stimulus": "<p id=\"stim\">7</p>", "internal_node_id": "0.0-110.0-3.0", "time_elapsed": 901386, "key_press": -1, "trial_index": 149}, "uniqueid": "MTK2229:3BXQMRHWK05HZ44ZWA0MJZFPQECMU2", "dateTime": 1516897631409}, {"current_trial": 150, "trialdata": {"rt": -1, "trial_type": "single-stim", "stimulus": "<p id=\"stim\">6</p>", "internal_node_id": "0.0-110.0-4.0", "time_elapsed": 902389, "key_press": -1, "trial_index": 150}, "uniqueid": "MTK2229:3BXQMRHWK05HZ44ZWA0MJZFPQECMU2", "dateTime": 1516897632411}, {"current_trial": 151, "trialdata": {"rt": -1, "trial_type": "single-stim", "stimulus": "<p id=\"stim\">5</p>", "internal_node_id": "0.0-110.0-5.0", "time_elapsed": 903392, "key_press": -1, "trial_index": 151}, "uniqueid": "MTK2229:3BXQMRHWK05HZ44ZWA0MJZFPQECMU2", "dateTime": 1516897633414}, {"current_trial": 152, "trialdata": {"rt": -1, "trial_type": "single-stim", "stimulus": "<p id=\"stim\">4</p>", "internal_node_id": "0.0-110.0-6.0", "time_elapsed": 904396, "key_press": -1, "trial_index": 152}, "uniqueid": "MTK2229:3BXQMRHWK05HZ44ZWA0MJZFPQECMU2", "dateTime": 1516897634418}, {"current_trial": 153, "trialdata": {"rt": -1, "trial_type": "single-stim", "stimulus": "<p id=\"stim\">3</p>", "internal_node_id": "0.0-110.0-7.0", "time_elapsed": 905398, "key_press": -1, "trial_index": 153}, "uniqueid": "MTK2229:3BXQMRHWK05HZ44ZWA0MJZFPQECMU2", "dateTime": 1516897635420}, {"current_trial": 154, "trialdata": {"rt": -1, "trial_type": "single-stim", "stimulus": "<p id=\"stim\">2</p>", "internal_node_id": "0.0-110.0-8.0", "time_elapsed": 906413, "key_press": -1, "trial_index": 154}, "uniqueid": "MTK2229:3BXQMRHWK05HZ44ZWA0MJZFPQECMU2", "dateTime": 1516897636435}, {"current_trial": 155, "trialdata": {"rt": -1, "trial_type": "single-stim", "stimulus": "<p id=\"stim\">1</p>", "internal_node_id": "0.0-110.0-9.0", "time_elapsed": 907418, "key_press": -1, "trial_index": 155}, "uniqueid": "MTK2229:3BXQMRHWK05HZ44ZWA0MJZFPQECMU2", "dateTime": 1516897637441}, {"current_trial": 156, "trialdata": {"rt": -1, "trial_type": "single-stim", "stimulus": "<p id=\"stim\">+</p>", "internal_node_id": "0.0-111.0-0.0", "time_elapsed": 908921, "key_press": -1, "type": "FIXATION", "trial_index": 156}, "uniqueid": "MTK2229:3BXQMRHWK05HZ44ZWA0MJZFPQECMU2", "dateTime": 1516897638943}, {"current_trial": 157, "trialdata": {"rt": -1000, "trial_type": "single-audio", "word": "parrot", "stimulus": "/static/audio/wordpool/PARROT.wav", "conditions": [24, 1600, "a", 24000], "internal_node_id": "0.0-112.0", "trial": 4, "time_elapsed": 911702, "serialpos": 0, "key_press": -1, "wordID": 1014, "type": "PRES_AUD", "trial_index": 157}, "uniqueid": "MTK2229:3BXQMRHWK05HZ44ZWA0MJZFPQECMU2", "dateTime": 1516897641724}, {"current_trial": 158, "trialdata": {"rt": -1000, "trial_type": "single-audio", "word": "rooster", "stimulus": "/static/audio/wordpool/ROOSTER.wav", "conditions": [24, 1600, "a", 24000], "internal_node_id": "0.0-113.0", "trial": 4, "time_elapsed": 914269, "serialpos": 1, "key_press": -1, "wordID": 1208, "type": "PRES_AUD", "trial_index": 158}, "uniqueid": "MTK2229:3BXQMRHWK05HZ44ZWA0MJZFPQECMU2", "dateTime": 1516897644291}, {"current_trial": 159, "trialdata": {"rt": -1000, "trial_type": "single-audio", "word": "dolphin", "stimulus": "/static/audio/wordpool/DOLPHIN.wav", "conditions": [24, 1600, "a", 24000], "internal_node_id": "0.0-114.0", "trial": 4, "time_elapsed": 916771, "serialpos": 2, "key_press": -1, "wordID": 482, "type": "PRES_AUD", "trial_index": 159}, "uniqueid": "MTK2229:3BXQMRHWK05HZ44ZWA0MJZFPQECMU2", "dateTime": 1516897646794}, {"current_trial": 160, "trialdata": {"rt": -1000, "trial_type": "single-audio", "word": "widow", "stimulus": "/static/audio/wordpool/WIDOW.wav", "conditions": [24, 1600, "a", 24000], "internal_node_id": "0.0-115.0", "trial": 4, "time_elapsed": 919371, "serialpos": 3, "key_press": -1, "wordID": 1607, "type": "PRES_AUD", "trial_index": 160}, "uniqueid": "MTK2229:3BXQMRHWK05HZ44ZWA0MJZFPQECMU2", "dateTime": 1516897649393}, {"current_trial": 161, "trialdata": {"rt": -1000, "trial_type": "single-audio", "word": "critic", "stimulus": "/static/audio/wordpool/CRITIC.wav", "conditions": [24, 1600, "a", 24000], "internal_node_id": "0.0-116.0", "trial": 4, "time_elapsed": 922090, "serialpos": 4, "key_press": -1, "wordID": 409, "type": "PRES_AUD", "trial_index": 161}, "uniqueid": "MTK2229:3BXQMRHWK05HZ44ZWA0MJZFPQECMU2", "dateTime": 1516897652112}, {"current_trial": 162, "trialdata": {"rt": -1000, "trial_type": "single-audio", "word": "shark", "stimulus": "/static/audio/wordpool/SHARK.wav", "conditions": [24, 1600, "a", 24000], "internal_node_id": "0.0-117.0", "trial": 4, "time_elapsed": 924535, "serialpos": 5, "key_press": -1, "wordID": 1274, "type": "PRES_AUD", "trial_index": 162}, "uniqueid": "MTK2229:3BXQMRHWK05HZ44ZWA0MJZFPQECMU2", "dateTime": 1516897654557}, {"current_trial": 163, "trialdata": {"rt": -1000, "trial_type": "single-audio", "word": "sandwich", "stimulus": "/static/audio/wordpool/SANDWICH.wav", "conditions": [24, 1600, "a", 24000], "internal_node_id": "0.0-118.0", "trial": 4, "time_elapsed": 927246, "serialpos": 6, "key_press": -1, "wordID": 1231, "type": "PRES_AUD", "trial_index": 163}, "uniqueid": "MTK2229:3BXQMRHWK05HZ44ZWA0MJZFPQECMU2", "dateTime": 1516897657268}, {"current_trial": 164, "trialdata": {"rt": -1000, "trial_type": "single-audio", "word": "sculpture", "stimulus": "/static/audio/wordpool/SCULPTURE.wav", "conditions": [24, 1600, "a", 24000], "internal_node_id": "0.0-119.0", "trial": 4, "time_elapsed": 929692, "serialpos": 7, "key_press": -1, "wordID": 1257, "type": "PRES_AUD", "trial_index": 164}, "uniqueid": "MTK2229:3BXQMRHWK05HZ44ZWA0MJZFPQECMU2", "dateTime": 1516897659715}, {"current_trial": 165, "trialdata": {"rt": -1000, "trial_type": "single-audio", "word": "blender", "stimulus": "/static/audio/wordpool/BLENDER.wav", "conditions": [24, 1600, "a", 24000], "internal_node_id": "0.0-120.0", "trial": 4, "time_elapsed": 932427, "serialpos": 8, "key_press": -1, "wordID": 135, "type": "PRES_AUD", "trial_index": 165}, "uniqueid": "MTK2229:3BXQMRHWK05HZ44ZWA0MJZFPQECMU2", "dateTime": 1516897662449}, {"current_trial": 166, "trialdata": {"rt": -1000, "trial_type": "single-audio", "word": "hawk", "stimulus": "/static/audio/wordpool/HAWK.wav", "conditions": [24, 1600, "a", 24000], "internal_node_id": "0.0-121.0", "trial": 4, "time_elapsed": 935156, "serialpos": 9, "key_press": -1, "wordID": 691, "type": "PRES_AUD", "trial_index": 166}, "uniqueid": "MTK2229:3BXQMRHWK05HZ44ZWA0MJZFPQECMU2", "dateTime": 1516897665178}, {"current_trial": 167, "trialdata": {"rt": -1000, "trial_type": "single-audio", "word": "blade", "stimulus": "/static/audio/wordpool/BLADE.wav", "conditions": [24, 1600, "a", 24000], "internal_node_id": "0.0-122.0", "trial": 4, "time_elapsed": 937867, "serialpos": 10, "key_press": -1, "wordID": 133, "type": "PRES_AUD", "trial_index": 167}, "uniqueid": "MTK2229:3BXQMRHWK05HZ44ZWA0MJZFPQECMU2", "dateTime": 1516897667889}, {"current_trial": 168, "trialdata": {"rt": -1000, "trial_type": "single-audio", "word": "dime", "stimulus": "/static/audio/wordpool/DIME.wav", "conditions": [24, 1600, "a", 24000], "internal_node_id": "0.0-123.0", "trial": 4, "time_elapsed": 940574, "serialpos": 11, "key_press": -1, "wordID": 465, "type": "PRES_AUD", "trial_index": 168}, "uniqueid": "MTK2229:3BXQMRHWK05HZ44ZWA0MJZFPQECMU2", "dateTime": 1516897670596}, {"current_trial": 169, "trialdata": {"rt": -1000, "trial_type": "single-audio", "word": "dresser", "stimulus": "/static/audio/wordpool/DRESSER.wav", "conditions": [24, 1600, "a", 24000], "internal_node_id": "0.0-124.0", "trial": 4, "time_elapsed": 943195, "serialpos": 12, "key_press": -1, "wordID": 495, "type": "PRES_AUD", "trial_index": 169}, "uniqueid": "MTK2229:3BXQMRHWK05HZ44ZWA0MJZFPQECMU2", "dateTime": 1516897673218}, {"current_trial": 170, "trialdata": {"rt": -1000, "trial_type": "single-audio", "word": "beaker", "stimulus": "/static/audio/wordpool/BEAKER.wav", "conditions": [24, 1600, "a", 24000], "internal_node_id": "0.0-125.0", "trial": 4, "time_elapsed": 945869, "serialpos": 13, "key_press": -1, "wordID": 103, "type": "PRES_AUD", "trial_index": 170}, "uniqueid": "MTK2229:3BXQMRHWK05HZ44ZWA0MJZFPQECMU2", "dateTime": 1516897675891}, {"current_trial": 171, "trialdata": {"rt": -1000, "trial_type": "single-audio", "word": "bunny", "stimulus": "/static/audio/wordpool/BUNNY.wav", "conditions": [24, 1600, "a", 24000], "internal_node_id": "0.0-126.0", "trial": 4, "time_elapsed": 948560, "serialpos": 14, "key_press": -1, "wordID": 197, "type": "PRES_AUD", "trial_index": 171}, "uniqueid": "MTK2229:3BXQMRHWK05HZ44ZWA0MJZFPQECMU2", "dateTime": 1516897678582}, {"current_trial": 172, "trialdata": {"rt": -1000, "trial_type": "single-audio", "word": "goblin", "stimulus": "/static/audio/wordpool/GOBLIN.wav", "conditions": [24, 1600, "a", 24000], "internal_node_id": "0.0-127.0", "trial": 4, "time_elapsed": 951252, "serialpos": 15, "key_press": -1, "wordID": 644, "type": "PRES_AUD", "trial_index": 172}, "uniqueid": "MTK2229:3BXQMRHWK05HZ44ZWA0MJZFPQECMU2", "dateTime": 1516897681274}, {"current_trial": 173, "trialdata": {"rt": -1000, "trial_type": "single-audio", "word": "shovel", "stimulus": "/static/audio/wordpool/SHOVEL.wav", "conditions": [24, 1600, "a", 24000], "internal_node_id": "0.0-128.0", "trial": 4, "time_elapsed": 953991, "serialpos": 16, "key_press": -1, "wordID": 1294, "type": "PRES_AUD", "trial_index": 173}, "uniqueid": "MTK2229:3BXQMRHWK05HZ44ZWA0MJZFPQECMU2", "dateTime": 1516897684013}, {"current_trial": 174, "trialdata": {"rt": -1000, "trial_type": "single-audio", "word": "penguin", "stimulus": "/static/audio/wordpool/PENGUIN.wav", "conditions": [24, 1600, "a", 24000], "internal_node_id": "0.0-129.0", "trial": 4, "time_elapsed": 956777, "serialpos": 17, "key_press": -1, "wordID": 1043, "type": "PRES_AUD", "trial_index": 174}, "uniqueid": "MTK2229:3BXQMRHWK05HZ44ZWA0MJZFPQECMU2", "dateTime": 1516897686799}, {"current_trial": 175, "trialdata": {"rt": -1000, "trial_type": "single-audio", "word": "padding", "stimulus": "/static/audio/wordpool/PADDING.wav", "conditions": [24, 1600, "a", 24000], "internal_node_id": "0.0-130.0", "trial": 4, "time_elapsed": 959273, "serialpos": 18, "key_press": -1, "wordID": 998, "type": "PRES_AUD", "trial_index": 175}, "uniqueid": "MTK2229:3BXQMRHWK05HZ44ZWA0MJZFPQECMU2", "dateTime": 1516897689295}, {"current_trial": 176, "trialdata": {"rt": -1000, "trial_type": "single-audio", "word": "truck", "stimulus": "/static/audio/wordpool/TRUCK.wav", "conditions": [24, 1600, "a", 24000], "internal_node_id": "0.0-131.0", "trial": 4, "time_elapsed": 962060, "serialpos": 19, "key_press": -1, "wordID": 1511, "type": "PRES_AUD", "trial_index": 176}, "uniqueid": "MTK2229:3BXQMRHWK05HZ44ZWA0MJZFPQECMU2", "dateTime": 1516897692082}, {"current_trial": 177, "trialdata": {"rt": -1000, "trial_type": "single-audio", "word": "wagon", "stimulus": "/static/audio/wordpool/WAGON.wav", "conditions": [24, 1600, "a", 24000], "internal_node_id": "0.0-132.0", "trial": 4, "time_elapsed": 964767, "serialpos": 20, "key_press": -1, "wordID": 1577, "type": "PRES_AUD", "trial_index": 177}, "uniqueid": "MTK2229:3BXQMRHWK05HZ44ZWA0MJZFPQECMU2", "dateTime": 1516897694790}, {"current_trial": 178, "trialdata": {"rt": -1000, "trial_type": "single-audio", "word": "machine", "stimulus": "/static/audio/wordpool/MACHINE.wav", "conditions": [24, 1600, "a", 24000], "internal_node_id": "0.0-133.0", "trial": 4, "time_elapsed": 967272, "serialpos": 21, "key_press": -1, "wordID": 851, "type": "PRES_AUD", "trial_index": 178}, "uniqueid": "MTK2229:3BXQMRHWK05HZ44ZWA0MJZFPQECMU2", "dateTime": 1516897697294}, {"current_trial": 179, "trialdata": {"rt": -1000, "trial_type": "single-audio", "word": "rifle", "stimulus": "/static/audio/wordpool/RIFLE.wav", "conditions": [24, 1600, "a", 24000], "internal_node_id": "0.0-134.0", "trial": 4, "time_elapsed": 970006, "serialpos": 22, "key_press": -1, "wordID": 1191, "type": "PRES_AUD", "trial_index": 179}, "uniqueid": "MTK2229:3BXQMRHWK05HZ44ZWA0MJZFPQECMU2", "dateTime": 1516897700028}, {"current_trial": 180, "trialdata": {"rt": -1000, "trial_type": "single-audio", "word": "grave", "stimulus": "/static/audio/wordpool/GRAVE.wav", "conditions": [24, 1600, "a", 24000], "internal_node_id": "0.0-135.0", "trial": 4, "time_elapsed": 972760, "serialpos": 23, "key_press": -1, "wordID": 657, "type": "PRES_AUD", "trial_index": 180}, "uniqueid": "MTK2229:3BXQMRHWK05HZ44ZWA0MJZFPQECMU2", "dateTime": 1516897702784}, {"current_trial": 181, "trialdata": {"rt": -1, "trial_type": "single-stim", "stimulus": "", "internal_node_id": "0.0-136.0-0.0", "time_elapsed": 974106, "key_press": -1, "type": "PRE_RECALL_DELAY", "trial_index": 181}, "uniqueid": "MTK2229:3BXQMRHWK05HZ44ZWA0MJZFPQECMU2", "dateTime": 1516897704128}, {"current_trial": 182, "trialdata": {"rt": -1000, "trial_type": "single-audio", "stimulus": "/static/audio/400Hz.wav", "internal_node_id": "0.0-137.0", "time_elapsed": 974608, "key_press": -1, "type": "PRE_RECALL_ALERT", "trial_index": 182}, "uniqueid": "MTK2229:3BXQMRHWK05HZ44ZWA0MJZFPQECMU2", "dateTime": 1516897704630}, {"current_trial": 183, "trialdata": {"rt": [3820, 8297, 14439, 19788, 26102, 34647, 40624, 46527, 58676], "recwords": ["grave", "dime", "truck", "blade", "parrot", "dresser", "shovel", "truck", "dolphin"], "key_times": [2649, 2952, 3179, 3399, 3591, 3820, 7474, 7569, 7812, 7992, 8297, 13533, 13774, 13858, 14045, 14166, 14439, 18737, 18829, 18947, 19231, 19508, 19788, 24825, 24989, 25262, 25461, 25595, 25795, 26102, 33173, 33426, 33597, 33804, 34014, 34140, 34340, 34647, 39695, 39768, 39876, 40003, 40200, 40339, 40624, 45589, 45833, 45976, 46165, 46286, 46527, 57370, 57445, 57691, 57915, 58122, 58307, 58478, 58676], "trial_type": "free-recall", "conditions": [24, 1600, "a", 24000], "internal_node_id": "0.0-138.0-0.0", "key_presses": [71, 82, 65, 86, 69, 13, 68, 73, 77, 69, 13, 84, 82, 85, 67, 75, 13, 66, 76, 65, 68, 69, 13, 80, 65, 82, 82, 79, 84, 13, 68, 82, 69, 83, 83, 69, 82, 13, 83, 72, 79, 86, 69, 76, 13, 84, 82, 85, 67, 75, 13, 68, 79, 76, 80, 72, 73, 78, 13], "trial": 4, "time_elapsed": 1034615, "type": "FREE_RECALL", "trial_index": 183}, "uniqueid": "MTK2229:3BXQMRHWK05HZ44ZWA0MJZFPQECMU2", "dateTime": 1516897764644}, {"current_trial": 184, "trialdata": {"rt": 8824, "trial_type": "text", "internal_node_id": "0.0-139.0", "time_elapsed": 1045450, "key_press": 32, "type": "INSTRUCTIONS", "trial_index": 184}, "uniqueid": "MTK2229:3BXQMRHWK05HZ44ZWA0MJZFPQECMU2", "dateTime": 1516897775472}, {"current_trial": 185, "trialdata": {"rt": [5248, 7636, 9637, 11693], "trial_type": "math-distractor", "key_times": [4530, 4737, 5248, 7209, 7428, 7636, 9245, 9479, 9637, 11420, 11693], "responses": ["17", "14", "10", "8"], "num2": [7, 7, 1, 4, 6], "num3": [4, 3, 5, 1, 8], "conditions": [12, 800, "a", 12000], "internal_node_id": "0.0-140.0", "key_presses": [97, 103, 13, 97, 100, 13, 97, 96, 13, 104, 13], "trial": 5, "time_elapsed": 1059456, "type": "DISTRACTOR", "trial_index": 185, "num1": [6, 4, 4, 3, 8]}, "uniqueid": "MTK2229:3BXQMRHWK05HZ44ZWA0MJZFPQECMU2", "dateTime": 1516897789478}, {"current_trial": 186, "trialdata": {"rt": -1, "trial_type": "single-stim", "stimulus": "<p id=\"stim\">10</p>", "internal_node_id": "0.0-141.0-0.0", "time_elapsed": 1062459, "key_press": -1, "trial_index": 186}, "uniqueid": "MTK2229:3BXQMRHWK05HZ44ZWA0MJZFPQECMU2", "dateTime": 1516897792481}, {"current_trial": 187, "trialdata": {"rt": -1, "trial_type": "single-stim", "stimulus": "<p id=\"stim\">9</p>", "internal_node_id": "0.0-141.0-1.0", "time_elapsed": 1063471, "key_press": -1, "trial_index": 187}, "uniqueid": "MTK2229:3BXQMRHWK05HZ44ZWA0MJZFPQECMU2", "dateTime": 1516897793493}, {"current_trial": 188, "trialdata": {"rt": -1, "trial_type": "single-stim", "stimulus": "<p id=\"stim\">8</p>", "internal_node_id": "0.0-141.0-2.0", "time_elapsed": 1064473, "key_press": -1, "trial_index": 188}, "uniqueid": "MTK2229:3BXQMRHWK05HZ44ZWA0MJZFPQECMU2", "dateTime": 1516897794496}, {"current_trial": 189, "trialdata": {"rt": -1, "trial_type": "single-stim", "stimulus": "<p id=\"stim\">7</p>", "internal_node_id": "0.0-141.0-3.0", "time_elapsed": 1065483, "key_press": -1, "trial_index": 189}, "uniqueid": "MTK2229:3BXQMRHWK05HZ44ZWA0MJZFPQECMU2", "dateTime": 1516897795505}, {"current_trial": 190, "trialdata": {"rt": -1, "trial_type": "single-stim", "stimulus": "<p id=\"stim\">6</p>", "internal_node_id": "0.0-141.0-4.0", "time_elapsed": 1066485, "key_press": -1, "trial_index": 190}, "uniqueid": "MTK2229:3BXQMRHWK05HZ44ZWA0MJZFPQECMU2", "dateTime": 1516897796508}, {"current_trial": 191, "trialdata": {"rt": -1, "trial_type": "single-stim", "stimulus": "<p id=\"stim\">5</p>", "internal_node_id": "0.0-141.0-5.0", "time_elapsed": 1067488, "key_press": -1, "trial_index": 191}, "uniqueid": "MTK2229:3BXQMRHWK05HZ44ZWA0MJZFPQECMU2", "dateTime": 1516897797510}, {"current_trial": 192, "trialdata": {"rt": -1, "trial_type": "single-stim", "stimulus": "<p id=\"stim\">4</p>", "internal_node_id": "0.0-141.0-6.0", "time_elapsed": 1068491, "key_press": -1, "trial_index": 192}, "uniqueid": "MTK2229:3BXQMRHWK05HZ44ZWA0MJZFPQECMU2", "dateTime": 1516897798513}, {"current_trial": 193, "trialdata": {"rt": -1, "trial_type": "single-stim", "stimulus": "<p id=\"stim\">3</p>", "internal_node_id": "0.0-141.0-7.0", "time_elapsed": 1069500, "key_press": -1, "trial_index": 193}, "uniqueid": "MTK2229:3BXQMRHWK05HZ44ZWA0MJZFPQECMU2", "dateTime": 1516897799522}, {"current_trial": 194, "trialdata": {"rt": -1, "trial_type": "single-stim", "stimulus": "<p id=\"stim\">2</p>", "internal_node_id": "0.0-141.0-8.0", "time_elapsed": 1070506, "key_press": -1, "trial_index": 194}, "uniqueid": "MTK2229:3BXQMRHWK05HZ44ZWA0MJZFPQECMU2", "dateTime": 1516897800528}, {"current_trial": 195, "trialdata": {"rt": -1, "trial_type": "single-stim", "stimulus": "<p id=\"stim\">1</p>", "internal_node_id": "0.0-141.0-9.0", "time_elapsed": 1071510, "key_press": -1, "trial_index": 195}, "uniqueid": "MTK2229:3BXQMRHWK05HZ44ZWA0MJZFPQECMU2", "dateTime": 1516897801532}, {"current_trial": 196, "trialdata": {"rt": -1, "trial_type": "single-stim", "stimulus": "<p id=\"stim\">+</p>", "internal_node_id": "0.0-142.0-0.0", "time_elapsed": 1073012, "key_press": -1, "type": "FIXATION", "trial_index": 196}, "uniqueid": "MTK2229:3BXQMRHWK05HZ44ZWA0MJZFPQECMU2", "dateTime": 1516897803034}, {"current_trial": 197, "trialdata": {"rt": -1000, "trial_type": "single-audio", "word": "picnic", "stimulus": "/static/audio/wordpool/PICNIC.wav", "conditions": [12, 800, "a", 12000], "internal_node_id": "0.0-143.0", "trial": 5, "time_elapsed": 1074855, "serialpos": 0, "key_press": -1, "wordID": 1059, "type": "PRES_AUD", "trial_index": 197}, "uniqueid": "MTK2229:3BXQMRHWK05HZ44ZWA0MJZFPQECMU2", "dateTime": 1516897804877}, {"current_trial": 198, "trialdata": {"rt": -1000, "trial_type": "single-audio", "word": "custard", "stimulus": "/static/audio/wordpool/CUSTARD.wav", "conditions": [12, 800, "a", 12000], "internal_node_id": "0.0-144.0", "trial": 5, "time_elapsed": 1076854, "serialpos": 1, "key_press": -1, "wordID": 428, "type": "PRES_AUD", "trial_index": 198}, "uniqueid": "MTK2229:3BXQMRHWK05HZ44ZWA0MJZFPQECMU2", "dateTime": 1516897806876}, {"current_trial": 199, "trialdata": {"rt": -1000, "trial_type": "single-audio", "word": "climber", "stimulus": "/static/audio/wordpool/CLIMBER.wav", "conditions": [12, 800, "a", 12000], "internal_node_id": "0.0-145.0", "trial": 5, "time_elapsed": 1078845, "serialpos": 2, "key_press": -1, "wordID": 322, "type": "PRES_AUD", "trial_index": 199}, "uniqueid": "MTK2229:3BXQMRHWK05HZ44ZWA0MJZFPQECMU2", "dateTime": 1516897808867}, {"current_trial": 200, "trialdata": {"rt": -1000, "trial_type": "single-audio", "word": "missile", "stimulus": "/static/audio/wordpool/MISSILE.wav", "conditions": [12, 800, "a", 12000], "internal_node_id": "0.0-146.0", "trial": 5, "time_elapsed": 1080449, "serialpos": 3, "key_press": -1, "wordID": 899, "type": "PRES_AUD", "trial_index": 200}, "uniqueid": "MTK2229:3BXQMRHWK05HZ44ZWA0MJZFPQECMU2", "dateTime": 1516897810472}, {"current_trial": 201, "trialdata": {"rt": -1000, "trial_type": "single-audio", "word": "rocket", "stimulus": "/static/audio/wordpool/ROCKET.wav", "conditions": [12, 800, "a", 12000], "internal_node_id": "0.0-147.0", "trial": 5, "time_elapsed": 1082367, "serialpos": 4, "key_press": -1, "wordID": 1201, "type": "PRES_AUD", "trial_index": 201}, "uniqueid": "MTK2229:3BXQMRHWK05HZ44ZWA0MJZFPQECMU2", "dateTime": 1516897812389}, {"current_trial": 202, "trialdata": {"rt": -1000, "trial_type": "single-audio", "word": "egypt", "stimulus": "/static/audio/wordpool/EGYPT.wav", "conditions": [12, 800, "a", 12000], "internal_node_id": "0.0-148.0", "trial": 5, "time_elapsed": 1084336, "serialpos": 5, "key_press": -1, "wordID": 518, "type": "PRES_AUD", "trial_index": 202}, "uniqueid": "MTK2229:3BXQMRHWK05HZ44ZWA0MJZFPQECMU2", "dateTime": 1516897814358}, {"current_trial": 203, "trialdata": {"rt": -1000, "trial_type": "single-audio", "word": "waiter", "stimulus": "/static/audio/wordpool/WAITER.wav", "conditions": [12, 800, "a", 12000], "internal_node_id": "0.0-149.0", "trial": 5, "time_elapsed": 1086162, "serialpos": 6, "key_press": -1, "wordID": 1579, "type": "PRES_AUD", "trial_index": 203}, "uniqueid": "MTK2229:3BXQMRHWK05HZ44ZWA0MJZFPQECMU2", "dateTime": 1516897816184}, {"current_trial": 204, "trialdata": {"rt": -1000, "trial_type": "single-audio", "word": "beast", "stimulus": "/static/audio/wordpool/BEAST.wav", "conditions": [12, 800, "a", 12000], "internal_node_id": "0.0-150.0", "trial": 5, "time_elapsed": 1087985, "serialpos": 7, "key_press": -1, "wordID": 107, "type": "PRES_AUD", "trial_index": 204}, "uniqueid": "MTK2229:3BXQMRHWK05HZ44ZWA0MJZFPQECMU2", "dateTime": 1516897818007}, {"current_trial": 205, "trialdata": {"rt": -1000, "trial_type": "single-audio", "word": "foot", "stimulus": "/static/audio/wordpool/FOOT.wav", "conditions": [12, 800, "a", 12000], "internal_node_id": "0.0-151.0", "trial": 5, "time_elapsed": 1089839, "serialpos": 8, "key_press": -1, "wordID": 589, "type": "PRES_AUD", "trial_index": 205}, "uniqueid": "MTK2229:3BXQMRHWK05HZ44ZWA0MJZFPQECMU2", "dateTime": 1516897819861}, {"current_trial": 206, "trialdata": {"rt": -1000, "trial_type": "single-audio", "word": "child", "stimulus": "/static/audio/wordpool/CHILD.wav", "conditions": [12, 800, "a", 12000], "internal_node_id": "0.0-152.0", "trial": 5, "time_elapsed": 1091472, "serialpos": 9, "key_press": -1, "wordID": 298, "type": "PRES_AUD", "trial_index": 206}, "uniqueid": "MTK2229:3BXQMRHWK05HZ44ZWA0MJZFPQECMU2", "dateTime": 1516897821495}, {"current_trial": 207, "trialdata": {"rt": -1000, "trial_type": "single-audio", "word": "monster", "stimulus": "/static/audio/wordpool/MONSTER.wav", "conditions": [12, 800, "a", 12000], "internal_node_id": "0.0-153.0", "trial": 5, "time_elapsed": 1093379, "serialpos": 10, "key_press": -1, "wordID": 911, "type": "PRES_AUD", "trial_index": 207}, "uniqueid": "MTK2229:3BXQMRHWK05HZ44ZWA0MJZFPQECMU2", "dateTime": 1516897823401}, {"current_trial": 208, "trialdata": {"rt": -1000, "trial_type": "single-audio", "word": "tart", "stimulus": "/static/audio/wordpool/TART.wav", "conditions": [12, 800, "a", 12000], "internal_node_id": "0.0-154.0", "trial": 5, "time_elapsed": 1095017, "serialpos": 11, "key_press": -1, "wordID": 1435, "type": "PRES_AUD", "trial_index": 208}, "uniqueid": "MTK2229:3BXQMRHWK05HZ44ZWA0MJZFPQECMU2", "dateTime": 1516897825039}, {"current_trial": 209, "trialdata": {"rt": -1, "trial_type": "single-stim", "stimulus": "", "internal_node_id": "0.0-155.0-0.0", "time_elapsed": 1096367, "key_press": -1, "type": "PRE_RECALL_DELAY", "trial_index": 209}, "uniqueid": "MTK2229:3BXQMRHWK05HZ44ZWA0MJZFPQECMU2", "dateTime": 1516897826389}, {"current_trial": 210, "trialdata": {"rt": -1000, "trial_type": "single-audio", "stimulus": "/static/audio/400Hz.wav", "internal_node_id": "0.0-156.0", "time_elapsed": 1096869, "key_press": -1, "type": "PRE_RECALL_ALERT", "trial_index": 210}, "uniqueid": "MTK2229:3BXQMRHWK05HZ44ZWA0MJZFPQECMU2", "dateTime": 1516897826891}, {"current_trial": 211, "trialdata": {"rt": [6642, 8378, 11365, 15548, 19609, 20916, 28261, 33356, 37244, 55324], "recwords": ["tart", "child", "egypt", "picnic", "missle", "egypt", "mustard", "rocket", "picnic", "foot"], "key_times": [5688, 5935, 6193, 6433, 6642, 7153, 7244, 7389, 7594, 7753, 8378, 9799, 10044, 10232, 10421, 11063, 11365, 14483, 14684, 14839, 14967, 15158, 15320, 15548, 18628, 18813, 18984, 19172, 19323, 19434, 19609, 19794, 20035, 20203, 20413, 20621, 20916, 24873, 25130, 25324, 25526, 25760, 25977, 26584, 28261, 32061, 32194, 32404, 32664, 32810, 33029, 33356, 35336, 35531, 35913, 36240, 36418, 36847, 37244, 54675, 54785, 54993, 55105, 55324], "trial_type": "free-recall", "conditions": [12, 800, "a", 12000], "internal_node_id": "0.0-157.0-0.0", "key_presses": [84, 65, 82, 84, 13, 67, 72, 73, 76, 68, 13, 69, 71, 89, 80, 84, 13, 80, 73, 67, 78, 73, 67, 13, 77, 73, 83, 83, 76, 69, 13, 69, 71, 89, 80, 84, 13, 77, 85, 83, 84, 65, 82, 68, 13, 82, 79, 67, 75, 69, 84, 13, 80, 73, 67, 78, 73, 67, 13, 70, 79, 79, 84, 13], "trial": 5, "time_elapsed": 1156874, "type": "FREE_RECALL", "trial_index": 211}, "uniqueid": "MTK2229:3BXQMRHWK05HZ44ZWA0MJZFPQECMU2", "dateTime": 1516897886902}, {"current_trial": 212, "trialdata": {"rt": 2730, "trial_type": "text", "internal_node_id": "0.0-158.0", "time_elapsed": 1161613, "key_press": 32, "type": "INSTRUCTIONS", "trial_index": 212}, "uniqueid": "MTK2229:3BXQMRHWK05HZ44ZWA0MJZFPQECMU2", "dateTime": 1516897891635}, {"current_trial": 213, "trialdata": {"rt": [3893, 5869, 8361, 12721, 14424, 16871, 18677, 21106], "trial_type": "math-distractor", "key_times": [2828, 2990, 3893, 5601, 5869, 7982, 8177, 8361, 12348, 12521, 12721, 14012, 14187, 14424, 16459, 16696, 16871, 18302, 18479, 18677, 20711, 20940, 21106], "responses": ["12", "9", "14", "12", "16", "10", "12", "21"], "num2": [4, 2, 1, 3, 4, 2, 2, 3, 5], "num3": [1, 1, 6, 5, 6, 3, 4, 9, 8], "conditions": [12, 1600, "a", 24000], "internal_node_id": "0.0-159.0", "key_presses": [97, 98, 13, 105, 13, 97, 100, 13, 97, 98, 13, 97, 102, 13, 97, 96, 13, 97, 98, 13, 98, 97, 13], "trial": 6, "time_elapsed": 1187617, "type": "DISTRACTOR", "trial_index": 213, "num1": [7, 6, 7, 4, 6, 5, 6, 9, 8]}, "uniqueid": "MTK2229:3BXQMRHWK05HZ44ZWA0MJZFPQECMU2", "dateTime": 1516897917641}, {"current_trial": 214, "trialdata": {"rt": -1, "trial_type": "single-stim", "stimulus": "<p id=\"stim\">10</p>", "internal_node_id": "0.0-160.0-0.0", "time_elapsed": 1190621, "key_press": -1, "trial_index": 214}, "uniqueid": "MTK2229:3BXQMRHWK05HZ44ZWA0MJZFPQECMU2", "dateTime": 1516897920644}, {"current_trial": 215, "trialdata": {"rt": -1, "trial_type": "single-stim", "stimulus": "<p id=\"stim\">9</p>", "internal_node_id": "0.0-160.0-1.0", "time_elapsed": 1191623, "key_press": -1, "trial_index": 215}, "uniqueid": "MTK2229:3BXQMRHWK05HZ44ZWA0MJZFPQECMU2", "dateTime": 1516897921646}, {"current_trial": 216, "trialdata": {"rt": -1, "trial_type": "single-stim", "stimulus": "<p id=\"stim\">8</p>", "internal_node_id": "0.0-160.0-2.0", "time_elapsed": 1192627, "key_press": -1, "trial_index": 216}, "uniqueid": "MTK2229:3BXQMRHWK05HZ44ZWA0MJZFPQECMU2", "dateTime": 1516897922649}, {"current_trial": 217, "trialdata": {"rt": -1, "trial_type": "single-stim", "stimulus": "<p id=\"stim\">7</p>", "internal_node_id": "0.0-160.0-3.0", "time_elapsed": 1193644, "key_press": -1, "trial_index": 217}, "uniqueid": "MTK2229:3BXQMRHWK05HZ44ZWA0MJZFPQECMU2", "dateTime": 1516897923666}, {"current_trial": 218, "trialdata": {"rt": -1, "trial_type": "single-stim", "stimulus": "<p id=\"stim\">6</p>", "internal_node_id": "0.0-160.0-4.0", "time_elapsed": 1194646, "key_press": -1, "trial_index": 218}, "uniqueid": "MTK2229:3BXQMRHWK05HZ44ZWA0MJZFPQECMU2", "dateTime": 1516897924669}, {"current_trial": 219, "trialdata": {"rt": -1, "trial_type": "single-stim", "stimulus": "<p id=\"stim\">5</p>", "internal_node_id": "0.0-160.0-5.0", "time_elapsed": 1195649, "key_press": -1, "trial_index": 219}, "uniqueid": "MTK2229:3BXQMRHWK05HZ44ZWA0MJZFPQECMU2", "dateTime": 1516897925671}, {"current_trial": 220, "trialdata": {"rt": -1, "trial_type": "single-stim", "stimulus": "<p id=\"stim\">4</p>", "internal_node_id": "0.0-160.0-6.0", "time_elapsed": 1196652, "key_press": -1, "trial_index": 220}, "uniqueid": "MTK2229:3BXQMRHWK05HZ44ZWA0MJZFPQECMU2", "dateTime": 1516897926674}, {"current_trial": 221, "trialdata": {"rt": -1, "trial_type": "single-stim", "stimulus": "<p id=\"stim\">3</p>", "internal_node_id": "0.0-160.0-7.0", "time_elapsed": 1197656, "key_press": -1, "trial_index": 221}, "uniqueid": "MTK2229:3BXQMRHWK05HZ44ZWA0MJZFPQECMU2", "dateTime": 1516897927678}, {"current_trial": 222, "trialdata": {"rt": -1, "trial_type": "single-stim", "stimulus": "<p id=\"stim\">2</p>", "internal_node_id": "0.0-160.0-8.0", "time_elapsed": 1198660, "key_press": -1, "trial_index": 222}, "uniqueid": "MTK2229:3BXQMRHWK05HZ44ZWA0MJZFPQECMU2", "dateTime": 1516897928682}, {"current_trial": 223, "trialdata": {"rt": -1, "trial_type": "single-stim", "stimulus": "<p id=\"stim\">1</p>", "internal_node_id": "0.0-160.0-9.0", "time_elapsed": 1199663, "key_press": -1, "trial_index": 223}, "uniqueid": "MTK2229:3BXQMRHWK05HZ44ZWA0MJZFPQECMU2", "dateTime": 1516897929685}, {"current_trial": 224, "trialdata": {"rt": -1, "trial_type": "single-stim", "stimulus": "<p id=\"stim\">+</p>", "internal_node_id": "0.0-161.0-0.0", "time_elapsed": 1201166, "key_press": -1, "type": "FIXATION", "trial_index": 224}, "uniqueid": "MTK2229:3BXQMRHWK05HZ44ZWA0MJZFPQECMU2", "dateTime": 1516897931188}, {"current_trial": 225, "trialdata": {"rt": -1000, "trial_type": "single-audio", "word": "fiddle", "stimulus": "/static/audio/wordpool/FIDDLE.wav", "conditions": [12, 1600, "a", 24000], "internal_node_id": "0.0-162.0", "trial": 6, "time_elapsed": 1203731, "serialpos": 0, "key_press": -1, "wordID": 560, "type": "PRES_AUD", "trial_index": 225}, "uniqueid": "MTK2229:3BXQMRHWK05HZ44ZWA0MJZFPQECMU2", "dateTime": 1516897933754}, {"current_trial": 226, "trialdata": {"rt": -1000, "trial_type": "single-audio", "word": "slide", "stimulus": "/static/audio/wordpool/SLIDE.wav", "conditions": [12, 1600, "a", 24000], "internal_node_id": "0.0-163.0", "trial": 6, "time_elapsed": 1206373, "serialpos": 1, "key_press": -1, "wordID": 1325, "type": "PRES_AUD", "trial_index": 226}, "uniqueid": "MTK2229:3BXQMRHWK05HZ44ZWA0MJZFPQECMU2", "dateTime": 1516897936395}, {"current_trial": 227, "trialdata": {"rt": -1000, "trial_type": "single-audio", "word": "guard", "stimulus": "/static/audio/wordpool/GUARD.wav", "conditions": [12, 1600, "a", 24000], "internal_node_id": "0.0-164.0", "trial": 6, "time_elapsed": 1209037, "serialpos": 2, "key_press": -1, "wordID": 666, "type": "PRES_AUD", "trial_index": 227}, "uniqueid": "MTK2229:3BXQMRHWK05HZ44ZWA0MJZFPQECMU2", "dateTime": 1516897939059}, {"current_trial": 228, "trialdata": {"rt": -1000, "trial_type": "single-audio", "word": "grape", "stimulus": "/static/audio/wordpool/GRAPE.wav", "conditions": [12, 1600, "a", 24000], "internal_node_id": "0.0-165.0", "trial": 6, "time_elapsed": 1211527, "serialpos": 3, "key_press": -1, "wordID": 653, "type": "PRES_AUD", "trial_index": 228}, "uniqueid": "MTK2229:3BXQMRHWK05HZ44ZWA0MJZFPQECMU2", "dateTime": 1516897941549}, {"current_trial": 229, "trialdata": {"rt": -1000, "trial_type": "single-audio", "word": "maple", "stimulus": "/static/audio/wordpool/MAPLE.wav", "conditions": [12, 1600, "a", 24000], "internal_node_id": "0.0-166.0", "trial": 6, "time_elapsed": 1214153, "serialpos": 4, "key_press": -1, "wordID": 865, "type": "PRES_AUD", "trial_index": 229}, "uniqueid": "MTK2229:3BXQMRHWK05HZ44ZWA0MJZFPQECMU2", "dateTime": 1516897944175}, {"current_trial": 230, "trialdata": {"rt": -1000, "trial_type": "single-audio", "word": "rattle", "stimulus": "/static/audio/wordpool/RATTLE.wav", "conditions": [12, 1600, "a", 24000], "internal_node_id": "0.0-167.0", "trial": 6, "time_elapsed": 1216954, "serialpos": 5, "key_press": -1, "wordID": 1169, "type": "PRES_AUD", "trial_index": 230}, "uniqueid": "MTK2229:3BXQMRHWK05HZ44ZWA0MJZFPQECMU2", "dateTime": 1516897946976}, {"current_trial": 231, "trialdata": {"rt": -1000, "trial_type": "single-audio", "word": "butcher", "stimulus": "/static/audio/wordpool/BUTCHER.wav", "conditions": [12, 1600, "a", 24000], "internal_node_id": "0.0-168.0", "trial": 6, "time_elapsed": 1219581, "serialpos": 6, "key_press": -1, "wordID": 202, "type": "PRES_AUD", "trial_index": 231}, "uniqueid": "MTK2229:3BXQMRHWK05HZ44ZWA0MJZFPQECMU2", "dateTime": 1516897949603}, {"current_trial": 232, "trialdata": {"rt": -1000, "trial_type": "single-audio", "word": "handbag", "stimulus": "/static/audio/wordpool/HANDBAG.wav", "conditions": [12, 1600, "a", 24000], "internal_node_id": "0.0-169.0", "trial": 6, "time_elapsed": 1222084, "serialpos": 7, "key_press": -1, "wordID": 683, "type": "PRES_AUD", "trial_index": 232}, "uniqueid": "MTK2229:3BXQMRHWK05HZ44ZWA0MJZFPQECMU2", "dateTime": 1516897952106}, {"current_trial": 233, "trialdata": {"rt": -1000, "trial_type": "single-audio", "word": "clock", "stimulus": "/static/audio/wordpool/CLOCK.wav", "conditions": [12, 1600, "a", 24000], "internal_node_id": "0.0-170.0", "trial": 6, "time_elapsed": 1224527, "serialpos": 8, "key_press": -1, "wordID": 324, "type": "PRES_AUD", "trial_index": 233}, "uniqueid": "MTK2229:3BXQMRHWK05HZ44ZWA0MJZFPQECMU2", "dateTime": 1516897954550}, {"current_trial": 234, "trialdata": {"rt": -1000, "trial_type": "single-audio", "word": "banjo", "stimulus": "/static/audio/wordpool/BANJO.wav", "conditions": [12, 1600, "a", 24000], "internal_node_id": "0.0-171.0", "trial": 6, "time_elapsed": 1227185, "serialpos": 9, "key_press": -1, "wordID": 81, "type": "PRES_AUD", "trial_index": 234}, "uniqueid": "MTK2229:3BXQMRHWK05HZ44ZWA0MJZFPQECMU2", "dateTime": 1516897957217}, {"current_trial": 235, "trialdata": {"rt": -1000, "trial_type": "single-audio", "word": "shoulder", "stimulus": "/static/audio/wordpool/SHOULDER.wav", "conditions": [12, 1600, "a", 24000], "internal_node_id": "0.0-172.0", "trial": 6, "time_elapsed": 1229743, "serialpos": 10, "key_press": -1, "wordID": 1293, "type": "PRES_AUD", "trial_index": 235}, "uniqueid": "MTK2229:3BXQMRHWK05HZ44ZWA0MJZFPQECMU2", "dateTime": 1516897959765}, {"current_trial": 236, "trialdata": {"rt": -1000, "trial_type": "single-audio", "word": "elbow", "stimulus": "/static/audio/wordpool/ELBOW.wav", "conditions": [12, 1600, "a", 24000], "internal_node_id": "0.0-173.0", "trial": 6, "time_elapsed": 1232395, "serialpos": 11, "key_press": -1, "wordID": 519, "type": "PRES_AUD", "trial_index": 236}, "uniqueid": "MTK2229:3BXQMRHWK05HZ44ZWA0MJZFPQECMU2", "dateTime": 1516897962417}, {"current_trial": 237, "trialdata": {"rt": -1, "trial_type": "single-stim", "stimulus": "", "internal_node_id": "0.0-174.0-0.0", "time_elapsed": 1233729, "key_press": -1, "type": "PRE_RECALL_DELAY", "trial_index": 237}, "uniqueid": "MTK2229:3BXQMRHWK05HZ44ZWA0MJZFPQECMU2", "dateTime": 1516897963751}, {"current_trial": 238, "trialdata": {"rt": -1000, "trial_type": "single-audio", "stimulus": "/static/audio/400Hz.wav", "internal_node_id": "0.0-175.0", "time_elapsed": 1234231, "key_press": -1, "type": "PRE_RECALL_ALERT", "trial_index": 238}, "uniqueid": "MTK2229:3BXQMRHWK05HZ44ZWA0MJZFPQECMU2", "dateTime": 1516897964254}, {"current_trial": 239, "trialdata": {"rt": [3691, 6660, 8859, 11621, 12853, 18777, 26184, 30655, 31728, 34768], "recwords": ["elbow", "slide", "grape", "handbag", "clock", "slide", "clock", "guard", "fiddle", "maple"], "key_times": [2210, 2348, 2605, 2694, 2916, 3691, 5662, 5761, 5907, 6006, 6224, 6660, 7848, 8094, 8315, 8415, 8599, 8859, 10321, 10423, 10552, 10692, 10944, 11180, 11422, 11621, 11881, 12000, 12213, 12424, 12603, 12853, 17981, 18124, 18278, 18368, 18603, 18777, 25278, 25395, 25599, 25781, 25909, 26184, 29728, 29908, 30065, 30246, 30514, 30655, 30868, 30988, 31124, 31314, 31463, 31559, 31728, 33982, 34149, 34245, 34459, 34576, 34768], "trial_type": "free-recall", "conditions": [12, 1600, "a", 24000], "internal_node_id": "0.0-176.0-0.0", "key_presses": [69, 76, 66, 79, 87, 13, 83, 76, 73, 68, 69, 13, 71, 82, 65, 80, 69, 13, 72, 65, 78, 68, 66, 65, 71, 13, 67, 76, 79, 67, 75, 13, 83, 76, 73, 68, 69, 13, 67, 76, 79, 67, 75, 13, 71, 85, 65, 82, 68, 13, 70, 73, 68, 68, 76, 69, 13, 77, 65, 80, 76, 69, 13], "trial": 6, "time_elapsed": 1294241, "type": "FREE_RECALL", "trial_index": 239}, "uniqueid": "MTK2229:3BXQMRHWK05HZ44ZWA0MJZFPQECMU2", "dateTime": 1516898024280}, {"current_trial": 240, "trialdata": {"rt": 15371, "trial_type": "text", "internal_node_id": "0.0-177.0", "time_elapsed": 1311635, "key_press": 32, "type": "INSTRUCTIONS", "trial_index": 240}, "uniqueid": "MTK2229:3BXQMRHWK05HZ44ZWA0MJZFPQECMU2", "dateTime": 1516898041660}, {"current_trial": 241, "trialdata": {"rt": [3245, 7530, 12662, 14716, 21647], "trial_type": "math-distractor", "key_times": [1738, 1939, 3245, 7153, 7335, 7530, 9055, 9300, 10545, 12141, 12662, 14355, 14553, 14716, 21223, 21432, 21647], "responses": ["12", "22", "12", "11", "15"], "num2": [1, 7, 1, 3, 5, 8], "num3": [2, 7, 6, 7, 7, 8], "conditions": [24, 1600, "a", 24000], "internal_node_id": "0.0-178.0", "key_presses": [97, 98, 13, 98, 98, 13, 97, 102, 8, 98, 13, 97, 97, 13, 97, 101, 13], "trial": 7, "time_elapsed": 1337642, "type": "DISTRACTOR", "trial_index": 241, "num1": [9, 8, 5, 1, 3, 8]}, "uniqueid": "MTK2229:3BXQMRHWK05HZ44ZWA0MJZFPQECMU2", "dateTime": 1516898067665}, {"current_trial": 242, "trialdata": {"rt": -1, "trial_type": "single-stim", "stimulus": "<p id=\"stim\">10</p>", "internal_node_id": "0.0-179.0-0.0", "time_elapsed": 1340646, "key_press": -1, "trial_index": 242}, "uniqueid": "MTK2229:3BXQMRHWK05HZ44ZWA0MJZFPQECMU2", "dateTime": 1516898070669}, {"current_trial": 243, "trialdata": {"rt": -1, "trial_type": "single-stim", "stimulus": "<p id=\"stim\">9</p>", "internal_node_id": "0.0-179.0-1.0", "time_elapsed": 1341650, "key_press": -1, "trial_index": 243}, "uniqueid": "MTK2229:3BXQMRHWK05HZ44ZWA0MJZFPQECMU2", "dateTime": 1516898071673}, {"current_trial": 244, "trialdata": {"rt": -1, "trial_type": "single-stim", "stimulus": "<p id=\"stim\">8</p>", "internal_node_id": "0.0-179.0-2.0", "time_elapsed": 1342655, "key_press": -1, "trial_index": 244}, "uniqueid": "MTK2229:3BXQMRHWK05HZ44ZWA0MJZFPQECMU2", "dateTime": 1516898072677}, {"current_trial": 245, "trialdata": {"rt": -1, "trial_type": "single-stim", "stimulus": "<p id=\"stim\">7</p>", "internal_node_id": "0.0-179.0-3.0", "time_elapsed": 1343660, "key_press": -1, "trial_index": 245}, "uniqueid": "MTK2229:3BXQMRHWK05HZ44ZWA0MJZFPQECMU2", "dateTime": 1516898073683}, {"current_trial": 246, "trialdata": {"rt": -1, "trial_type": "single-stim", "stimulus": "<p id=\"stim\">6</p>", "internal_node_id": "0.0-179.0-4.0", "time_elapsed": 1344668, "key_press": -1, "trial_index": 246}, "uniqueid": "MTK2229:3BXQMRHWK05HZ44ZWA0MJZFPQECMU2", "dateTime": 1516898074692}, {"current_trial": 247, "trialdata": {"rt": -1, "trial_type": "single-stim", "stimulus": "<p id=\"stim\">5</p>", "internal_node_id": "0.0-179.0-5.0", "time_elapsed": 1345671, "key_press": -1, "trial_index": 247}, "uniqueid": "MTK2229:3BXQMRHWK05HZ44ZWA0MJZFPQECMU2", "dateTime": 1516898075694}, {"current_trial": 248, "trialdata": {"rt": -1, "trial_type": "single-stim", "stimulus": "<p id=\"stim\">4</p>", "internal_node_id": "0.0-179.0-6.0", "time_elapsed": 1346674, "key_press": -1, "trial_index": 248}, "uniqueid": "MTK2229:3BXQMRHWK05HZ44ZWA0MJZFPQECMU2", "dateTime": 1516898076700}, {"current_trial": 249, "trialdata": {"rt": -1, "trial_type": "single-stim", "stimulus": "<p id=\"stim\">3</p>", "internal_node_id": "0.0-179.0-7.0", "time_elapsed": 1347680, "key_press": -1, "trial_index": 249}, "uniqueid": "MTK2229:3BXQMRHWK05HZ44ZWA0MJZFPQECMU2", "dateTime": 1516898077702}, {"current_trial": 250, "trialdata": {"rt": -1, "trial_type": "single-stim",