{"assignmentId": "3QEMNNSB2Y6CXZMQ6988QHEB9PMD78", "workerId": "MTK2234", "questiondata": {"origin": "United States", "strat-rehearsal": "35", "marital": "Married/Domestic Partnership", "education": "Bachelor's degree", "ethnicity": "Not Hispanic", "color_depth": 24, "distracted": "No", "wrote-notes": "No", "strat-other": "repeated words 3 times", "screen_width": 1536, "avail_screen_width": 1536, "avail_screen_height": 824, "strat-image": "99", "language": "english", "gender": "Female", "age": "29", "gender_other": "", "race": ["White"], "strat-categorize": "100", "pixel_depth": 24, "strat-spatial": "1", "strat-story": "22", "race_other": "", "screen_height": 864}, "bonus": 0, "hitId": "3KI0JD2ZU1PBP69H6KVSVR8Z9BO76L", "counterbalance": 113, "useragent": "Mozilla/5.0 (Windows NT 10.0; Win64; x64) AppleWebKit/537.36 (KHTML, like Gecko) Chrome/63.0.3239.132 Safari/537.36", "eventdata": [{"eventtype": "initialized", "interval": 0, "value": null, "timestamp": 1516896650055}, {"eventtype": "window_resize", "interval": 0, "value": [1536, 774], "timestamp": 1516896650055}, {"eventtype": "focus", "interval": 71252, "value": "off", "timestamp": 1516896721307}, {"eventtype": "focus", "interval": 20980, "value": "on", "timestamp": 1516896742287}, {"eventtype": "focus", "interval": 19501, "value": "off", "timestamp": 1516896761788}, {"eventtype": "focus", "interval": 9881, "value": "on", "timestamp": 1516896771669}, {"eventtype": "focus", "interval": 1456, "value": "off", "timestamp": 1516896773125}, {"eventtype": "focus", "interval": 36778, "value": "on", "timestamp": 1516896809903}, {"eventtype": "focus", "interval": 121167, "value": "off", "timestamp": 1516896931070}, {"eventtype": "focus", "interval": 13666, "value": "on", "timestamp": 1516896944736}, {"eventtype": "focus", "interval": 302147, "value": "off", "timestamp": 1516897246883}, {"eventtype": "focus", "interval": 5490, "value": "on", "timestamp": 1516897252373}, {"eventtype": "focus", "interval": 352838, "value": "off", "timestamp": 1516897605211}, {"eventtype": "focus", "interval": 10404, "value": "on", "timestamp": 1516897615615}, {"eventtype": "focus", "interval": 2017, "value": "off", "timestamp": 1516897617632}, {"eventtype": "focus", "interval": 3532, "value": "on", "timestamp": 1516897621164}, {"eventtype": "focus", "interval": 359998, "value": "off", "timestamp": 1516897981162}, {"eventtype": "focus", "interval": 417846, "value": "on", "timestamp": 1516898399008}, {"eventtype": "focus", "interval": 764880, "value": "off", "timestamp": 1516899163888}, {"eventtype": "focus", "interval": 373838, "value": "on", "timestamp": 1516899537726}, {"eventtype": "focus", "interval": 742689, "value": "off", "timestamp": 1516900280415}, {"eventtype": "focus", "interval": 20533, "value": "on", "timestamp": 1516900300948}], "data": [{"current_trial": 0, "trialdata": {"rt": 2302, "trial_type": "text", "internal_node_id": "0.0-0.0", "time_elapsed": 2307, "key_press": 13, "type": "INSTRUCTIONS", "trial_index": 0}, "uniqueid": "MTK2234:3QEMNNSB2Y6CXZMQ6988QHEB9PMD78", "dateTime": 1516896652952}, {"current_trial": 1, "trialdata": {"rt": 24649, "trial_type": "text", "internal_node_id": "0.0-1.0", "time_elapsed": 26959, "key_press": 13, "type": "INSTRUCTIONS", "trial_index": 1}, "uniqueid": "MTK2234:3QEMNNSB2Y6CXZMQ6988QHEB9PMD78", "dateTime": 1516896677604}, {"current_trial": 2, "trialdata": {"rt": [6608], "trial_type": "audio-test", "responses": ["ocean"], "internal_node_id": "0.0-2.0", "time_elapsed": 33587, "type": "AUDIO_TEST", "trial_index": 2}, "uniqueid": "MTK2234:3QEMNNSB2Y6CXZMQ6988QHEB9PMD78", "dateTime": 1516896684232}, {"current_trial": 3, "trialdata": {"rt": [7129], "trial_type": "audio-test", "responses": ["crystal"], "internal_node_id": "0.0-3.0", "time_elapsed": 40726, "type": "AUDIO_TEST", "trial_index": 3}, "uniqueid": "MTK2234:3QEMNNSB2Y6CXZMQ6988QHEB9PMD78", "dateTime": 1516896691371}, {"current_trial": 4, "trialdata": {"rt": [8374], "trial_type": "audio-test", "responses": ["spice"], "internal_node_id": "0.0-4.0", "time_elapsed": 49112, "type": "AUDIO_TEST", "trial_index": 4}, "uniqueid": "MTK2234:3QEMNNSB2Y6CXZMQ6988QHEB9PMD78", "dateTime": 1516896699757}, {"current_trial": 5, "trialdata": {"rt": 154026, "trial_type": "survey-text", "responses": "{\"Q0\":\"1AM\",\"Q1\":\"9AM\",\"Q2\":\"1114\"}", "internal_node_id": "0.0-5.0", "time_elapsed": 203892, "type": "SLEEP_SURVEY", "trial_index": 5}, "uniqueid": "MTK2234:3QEMNNSB2Y6CXZMQ6988QHEB9PMD78", "dateTime": 1516896854537}, {"current_trial": 6, "trialdata": {"rt": 72347, "trial_type": "text", "internal_node_id": "0.0-6.0", "time_elapsed": 277241, "key_press": 13, "type": "INSTRUCTIONS", "trial_index": 6}, "uniqueid": "MTK2234:3QEMNNSB2Y6CXZMQ6988QHEB9PMD78", "dateTime": 1516896927886}, {"current_trial": 7, "trialdata": {"rt": 35531, "trial_type": "text", "internal_node_id": "0.0-7.0", "time_elapsed": 313275, "key_press": 13, "type": "INSTRUCTIONS", "trial_index": 7}, "uniqueid": "MTK2234:3QEMNNSB2Y6CXZMQ6988QHEB9PMD78", "dateTime": 1516896963920}, {"current_trial": 8, "trialdata": {"rt": 12944, "trial_type": "text", "internal_node_id": "0.0-8.0", "time_elapsed": 326721, "key_press": 13, "type": "INSTRUCTIONS", "trial_index": 8}, "uniqueid": "MTK2234:3QEMNNSB2Y6CXZMQ6988QHEB9PMD78", "dateTime": 1516896977366}, {"current_trial": 9, "trialdata": {"rt": [9452, 13176], "trial_type": "math-distractor", "key_times": [8908, 9178, 9452, 12218, 12370, 13176], "responses": ["23", "14"], "num2": [7, 2, 7], "num3": [7, 7, 9], "conditions": [18, 1200, "v", 18000], "internal_node_id": "0.0-9.0", "key_presses": [50, 51, 13, 49, 52, 13], "trial": 0, "time_elapsed": 345730, "type": "DISTRACTOR", "trial_index": 9, "num1": [9, 5, 9]}, "uniqueid": "MTK2234:3QEMNNSB2Y6CXZMQ6988QHEB9PMD78", "dateTime": 1516896996375}, {"current_trial": 10, "trialdata": {"rt": -1, "trial_type": "single-stim", "stimulus": "<p id=\"stim\">10</p>", "internal_node_id": "0.0-10.0-0.0", "time_elapsed": 348735, "key_press": -1, "trial_index": 10}, "uniqueid": "MTK2234:3QEMNNSB2Y6CXZMQ6988QHEB9PMD78", "dateTime": 1516896999380}, {"current_trial": 11, "trialdata": {"rt": -1, "trial_type": "single-stim", "stimulus": "<p id=\"stim\">9</p>", "internal_node_id": "0.0-10.0-1.0", "time_elapsed": 349738, "key_press": -1, "trial_index": 11}, "uniqueid": "MTK2234:3QEMNNSB2Y6CXZMQ6988QHEB9PMD78", "dateTime": 1516897000383}, {"current_trial": 12, "trialdata": {"rt": -1, "trial_type": "single-stim", "stimulus": "<p id=\"stim\">8</p>", "internal_node_id": "0.0-10.0-2.0", "time_elapsed": 350740, "key_press": -1, "trial_index": 12}, "uniqueid": "MTK2234:3QEMNNSB2Y6CXZMQ6988QHEB9PMD78", "dateTime": 1516897001385}, {"current_trial": 13, "trialdata": {"rt": -1, "trial_type": "single-stim", "stimulus": "<p id=\"stim\">7</p>", "internal_node_id": "0.0-10.0-3.0", "time_elapsed": 351741, "key_press": -1, "trial_index": 13}, "uniqueid": "MTK2234:3QEMNNSB2Y6CXZMQ6988QHEB9PMD78", "dateTime": 1516897002386}, {"current_trial": 14, "trialdata": {"rt": -1, "trial_type": "single-stim", "stimulus": "<p id=\"stim\">6</p>", "internal_node_id": "0.0-10.0-4.0", "time_elapsed": 352744, "key_press": -1, "trial_index": 14}, "uniqueid": "MTK2234:3QEMNNSB2Y6CXZMQ6988QHEB9PMD78", "dateTime": 1516897003389}, {"current_trial": 15, "trialdata": {"rt": -1, "trial_type": "single-stim", "stimulus": "<p id=\"stim\">5</p>", "internal_node_id": "0.0-10.0-5.0", "time_elapsed": 353745, "key_press": -1, "trial_index": 15}, "uniqueid": "MTK2234:3QEMNNSB2Y6CXZMQ6988QHEB9PMD78", "dateTime": 1516897004391}, {"current_trial": 16, "trialdata": {"rt": -1, "trial_type": "single-stim", "stimulus": "<p id=\"stim\">4</p>", "internal_node_id": "0.0-10.0-6.0", "time_elapsed": 354749, "key_press": -1, "trial_index": 16}, "uniqueid": "MTK2234:3QEMNNSB2Y6CXZMQ6988QHEB9PMD78", "dateTime": 1516897005394}, {"current_trial": 17, "trialdata": {"rt": -1, "trial_type": "single-stim", "stimulus": "<p id=\"stim\">3</p>", "internal_node_id": "0.0-10.0-7.0", "time_elapsed": 355751, "key_press": -1, "trial_index": 17}, "uniqueid": "MTK2234:3QEMNNSB2Y6CXZMQ6988QHEB9PMD78", "dateTime": 1516897006396}, {"current_trial": 18, "trialdata": {"rt": -1, "trial_type": "single-stim", "stimulus": "<p id=\"stim\">2</p>", "internal_node_id": "0.0-10.0-8.0", "time_elapsed": 356753, "key_press": -1, "trial_index": 18}, "uniqueid": "MTK2234:3QEMNNSB2Y6CXZMQ6988QHEB9PMD78", "dateTime": 1516897007398}, {"current_trial": 19, "trialdata": {"rt": -1, "trial_type": "single-stim", "stimulus": "<p id=\"stim\">1</p>", "internal_node_id": "0.0-10.0-9.0", "time_elapsed": 357756, "key_press": -1, "trial_index": 19}, "uniqueid": "MTK2234:3QEMNNSB2Y6CXZMQ6988QHEB9PMD78", "dateTime": 1516897008401}, {"current_trial": 20, "trialdata": {"rt": -1, "trial_type": "single-stim", "stimulus": "<p id=\"stim\">+</p>", "internal_node_id": "0.0-11.0-0.0", "time_elapsed": 359257, "key_press": -1, "type": "FIXATION", "trial_index": 20}, "uniqueid": "MTK2234:3QEMNNSB2Y6CXZMQ6988QHEB9PMD78", "dateTime": 1516897009902}, {"current_trial": 21, "trialdata": {"rt": -1, "trial_type": "single-stim", "word": "bathtub", "stimulus": "<p id=\"stim\">BATHTUB</p>", "conditions": [18, 1200, "v", 18000], "internal_node_id": "0.0-12.0", "trial": 0, "time_elapsed": 360459, "serialpos": 0, "key_press": -1, "wordID": 99, "type": "PRES_VIS", "trial_index": 21}, "uniqueid": "MTK2234:3QEMNNSB2Y6CXZMQ6988QHEB9PMD78", "dateTime": 1516897011105}, {"current_trial": 22, "trialdata": {"rt": -1, "trial_type": "single-stim", "word": "crayon", "stimulus": "<p id=\"stim\">CRAYON</p>", "conditions": [18, 1200, "v", 18000], "internal_node_id": "0.0-13.0", "trial": 0, "time_elapsed": 362744, "serialpos": 1, "key_press": -1, "wordID": 400, "type": "PRES_VIS", "trial_index": 22}, "uniqueid": "MTK2234:3QEMNNSB2Y6CXZMQ6988QHEB9PMD78", "dateTime": 1516897013389}, {"current_trial": 23, "trialdata": {"rt": -1, "trial_type": "single-stim", "word": "stone", "stimulus": "<p id=\"stim\">STONE</p>", "conditions": [18, 1200, "v", 18000], "internal_node_id": "0.0-14.0", "trial": 0, "time_elapsed": 364998, "serialpos": 2, "key_press": -1, "wordID": 1384, "type": "PRES_VIS", "trial_index": 23}, "uniqueid": "MTK2234:3QEMNNSB2Y6CXZMQ6988QHEB9PMD78", "dateTime": 1516897015643}, {"current_trial": 24, "trialdata": {"rt": -1, "trial_type": "single-stim", "word": "pepper", "stimulus": "<p id=\"stim\">PEPPER</p>", "conditions": [18, 1200, "v", 18000], "internal_node_id": "0.0-15.0", "trial": 0, "time_elapsed": 367290, "serialpos": 3, "key_press": -1, "wordID": 1046, "type": "PRES_VIS", "trial_index": 24}, "uniqueid": "MTK2234:3QEMNNSB2Y6CXZMQ6988QHEB9PMD78", "dateTime": 1516897017936}, {"current_trial": 25, "trialdata": {"rt": -1, "trial_type": "single-stim", "word": "catcher", "stimulus": "<p id=\"stim\">CATCHER</p>", "conditions": [18, 1200, "v", 18000], "internal_node_id": "0.0-16.0", "trial": 0, "time_elapsed": 369590, "serialpos": 4, "key_press": -1, "wordID": 257, "type": "PRES_VIS", "trial_index": 25}, "uniqueid": "MTK2234:3QEMNNSB2Y6CXZMQ6988QHEB9PMD78", "dateTime": 1516897020235}, {"current_trial": 26, "trialdata": {"rt": -1, "trial_type": "single-stim", "word": "belly", "stimulus": "<p id=\"stim\">BELLY</p>", "conditions": [18, 1200, "v", 18000], "internal_node_id": "0.0-17.0", "trial": 0, "time_elapsed": 371760, "serialpos": 5, "key_press": -1, "wordID": 118, "type": "PRES_VIS", "trial_index": 26}, "uniqueid": "MTK2234:3QEMNNSB2Y6CXZMQ6988QHEB9PMD78", "dateTime": 1516897022406}, {"current_trial": 27, "trialdata": {"rt": -1, "trial_type": "single-stim", "word": "baby", "stimulus": "<p id=\"stim\">BABY</p>", "conditions": [18, 1200, "v", 18000], "internal_node_id": "0.0-18.0", "trial": 0, "time_elapsed": 374103, "serialpos": 6, "key_press": -1, "wordID": 63, "type": "PRES_VIS", "trial_index": 27}, "uniqueid": "MTK2234:3QEMNNSB2Y6CXZMQ6988QHEB9PMD78", "dateTime": 1516897024748}, {"current_trial": 28, "trialdata": {"rt": -1, "trial_type": "single-stim", "word": "preacher", "stimulus": "<p id=\"stim\">PREACHER</p>", "conditions": [18, 1200, "v", 18000], "internal_node_id": "0.0-19.0", "trial": 0, "time_elapsed": 376430, "serialpos": 7, "key_press": -1, "wordID": 1118, "type": "PRES_VIS", "trial_index": 28}, "uniqueid": "MTK2234:3QEMNNSB2Y6CXZMQ6988QHEB9PMD78", "dateTime": 1516897027075}, {"current_trial": 29, "trialdata": {"rt": -1, "trial_type": "single-stim", "word": "blueprint", "stimulus": "<p id=\"stim\">BLUEPRINT</p>", "conditions": [18, 1200, "v", 18000], "internal_node_id": "0.0-20.0", "trial": 0, "time_elapsed": 378561, "serialpos": 8, "key_press": -1, "wordID": 141, "type": "PRES_VIS", "trial_index": 29}, "uniqueid": "MTK2234:3QEMNNSB2Y6CXZMQ6988QHEB9PMD78", "dateTime": 1516897029207}, {"current_trial": 30, "trialdata": {"rt": -1, "trial_type": "single-stim", "word": "banquet", "stimulus": "<p id=\"stim\">BANQUET</p>", "conditions": [18, 1200, "v", 18000], "internal_node_id": "0.0-21.0", "trial": 0, "time_elapsed": 380861, "serialpos": 9, "key_press": -1, "wordID": 85, "type": "PRES_VIS", "trial_index": 30}, "uniqueid": "MTK2234:3QEMNNSB2Y6CXZMQ6988QHEB9PMD78", "dateTime": 1516897031507}, {"current_trial": 31, "trialdata": {"rt": -1, "trial_type": "single-stim", "word": "blender", "stimulus": "<p id=\"stim\">BLENDER</p>", "conditions": [18, 1200, "v", 18000], "internal_node_id": "0.0-22.0", "trial": 0, "time_elapsed": 383123, "serialpos": 10, "key_press": -1, "wordID": 135, "type": "PRES_VIS", "trial_index": 31}, "uniqueid": "MTK2234:3QEMNNSB2Y6CXZMQ6988QHEB9PMD78", "dateTime": 1516897033768}, {"current_trial": 32, "trialdata": {"rt": -1, "trial_type": "single-stim", "word": "frame", "stimulus": "<p id=\"stim\">FRAME</p>", "conditions": [18, 1200, "v", 18000], "internal_node_id": "0.0-23.0", "trial": 0, "time_elapsed": 385284, "serialpos": 11, "key_press": -1, "wordID": 599, "type": "PRES_VIS", "trial_index": 32}, "uniqueid": "MTK2234:3QEMNNSB2Y6CXZMQ6988QHEB9PMD78", "dateTime": 1516897035930}, {"current_trial": 33, "trialdata": {"rt": -1, "trial_type": "single-stim", "word": "carrot", "stimulus": "<p id=\"stim\">CARROT</p>", "conditions": [18, 1200, "v", 18000], "internal_node_id": "0.0-24.0", "trial": 0, "time_elapsed": 387550, "serialpos": 12, "key_press": -1, "wordID": 248, "type": "PRES_VIS", "trial_index": 33}, "uniqueid": "MTK2234:3QEMNNSB2Y6CXZMQ6988QHEB9PMD78", "dateTime": 1516897038195}, {"current_trial": 34, "trialdata": {"rt": -1, "trial_type": "single-stim", "word": "table", "stimulus": "<p id=\"stim\">TABLE</p>", "conditions": [18, 1200, "v", 18000], "internal_node_id": "0.0-25.0", "trial": 0, "time_elapsed": 389929, "serialpos": 13, "key_press": -1, "wordID": 1425, "type": "PRES_VIS", "trial_index": 34}, "uniqueid": "MTK2234:3QEMNNSB2Y6CXZMQ6988QHEB9PMD78", "dateTime": 1516897040574}, {"current_trial": 35, "trialdata": {"rt": -1, "trial_type": "single-stim", "word": "mattress", "stimulus": "<p id=\"stim\">MATTRESS</p>", "conditions": [18, 1200, "v", 18000], "internal_node_id": "0.0-26.0", "trial": 0, "time_elapsed": 392008, "serialpos": 14, "key_press": -1, "wordID": 878, "type": "PRES_VIS", "trial_index": 35}, "uniqueid": "MTK2234:3QEMNNSB2Y6CXZMQ6988QHEB9PMD78", "dateTime": 1516897042654}, {"current_trial": 36, "trialdata": {"rt": -1, "trial_type": "single-stim", "word": "jungle", "stimulus": "<p id=\"stim\">JUNGLE</p>", "conditions": [18, 1200, "v", 18000], "internal_node_id": "0.0-27.0", "trial": 0, "time_elapsed": 394068, "serialpos": 15, "key_press": -1, "wordID": 763, "type": "PRES_VIS", "trial_index": 36}, "uniqueid": "MTK2234:3QEMNNSB2Y6CXZMQ6988QHEB9PMD78", "dateTime": 1516897044713}, {"current_trial": 37, "trialdata": {"rt": -1, "trial_type": "single-stim", "word": "orange", "stimulus": "<p id=\"stim\">ORANGE</p>", "conditions": [18, 1200, "v", 18000], "internal_node_id": "0.0-28.0", "trial": 0, "time_elapsed": 396393, "serialpos": 16, "key_press": -1, "wordID": 979, "type": "PRES_VIS", "trial_index": 37}, "uniqueid": "MTK2234:3QEMNNSB2Y6CXZMQ6988QHEB9PMD78", "dateTime": 1516897047038}, {"current_trial": 38, "trialdata": {"rt": -1, "trial_type": "single-stim", "word": "primate", "stimulus": "<p id=\"stim\">PRIMATE</p>", "conditions": [18, 1200, "v", 18000], "internal_node_id": "0.0-29.0", "trial": 0, "time_elapsed": 398688, "serialpos": 17, "key_press": -1, "wordID": 1122, "type": "PRES_VIS", "trial_index": 38}, "uniqueid": "MTK2234:3QEMNNSB2Y6CXZMQ6988QHEB9PMD78", "dateTime": 1516897049334}, {"current_trial": 39, "trialdata": {"rt": -1, "trial_type": "single-stim", "stimulus": "", "internal_node_id": "0.0-30.0-0.0", "time_elapsed": 401168, "key_press": -1, "type": "PRE_RECALL_DELAY", "trial_index": 39}, "uniqueid": "MTK2234:3QEMNNSB2Y6CXZMQ6988QHEB9PMD78", "dateTime": 1516897051813}, {"current_trial": 40, "trialdata": {"rt": -1000, "trial_type": "single-audio", "stimulus": "/static/audio/400Hz.wav", "internal_node_id": "0.0-31.0", "time_elapsed": 401671, "key_press": -1, "type": "PRE_RECALL_ALERT", "trial_index": 40}, "uniqueid": "MTK2234:3QEMNNSB2Y6CXZMQ6988QHEB9PMD78", "dateTime": 1516897052316}, {"current_trial": 41, "trialdata": {"rt": [4170, 6917, 8676, 10311, 12067, 14810, 18410, 21579, 28156, 46293, 48162, 50438], "recwords": ["bathtub", "orange", "table", "belly", "baby", "primate", "frame", "tub", "carrot", "", "", ""], "key_times": [2001, 2238, 2423, 2675, 3304, 3627, 3947, 4170, 5088, 5257, 5876, 6098, 6382, 6582, 6917, 7520, 7791, 7952, 8257, 8442, 8676, 9093, 9272, 9705, 9899, 10136, 10311, 10951, 11145, 11322, 11603, 12067, 13104, 13360, 13586, 13825, 13997, 14243, 14427, 14810, 16643, 16891, 17713, 17979, 18195, 18410, 19670, 20717, 21139, 21579, 26463, 26700, 26887, 27057, 27581, 27922, 28156, 46293, 48162, 50438], "trial_type": "free-recall", "conditions": [18, 1200, "v", 18000], "internal_node_id": "0.0-32.0-0.0", "key_presses": [66, 65, 84, 72, 84, 85, 66, 13, 79, 82, 65, 78, 71, 69, 13, 84, 65, 66, 76, 69, 13, 66, 69, 76, 76, 89, 13, 66, 65, 66, 89, 13, 80, 82, 73, 77, 65, 84, 69, 13, 70, 82, 65, 77, 69, 13, 84, 85, 66, 13, 67, 65, 82, 82, 79, 84, 13, 13, 13, 32], "trial": 0, "time_elapsed": 461679, "type": "FREE_RECALL", "trial_index": 41}, "uniqueid": "MTK2234:3QEMNNSB2Y6CXZMQ6988QHEB9PMD78", "dateTime": 1516897112327}, {"current_trial": 42, "trialdata": {"rt": 2192, "trial_type": "text", "internal_node_id": "0.0-33.0", "time_elapsed": 465875, "key_press": 13, "type": "INSTRUCTIONS", "trial_index": 42}, "uniqueid": "MTK2234:3QEMNNSB2Y6CXZMQ6988QHEB9PMD78", "dateTime": 1516897116520}, {"current_trial": 43, "trialdata": {"rt": [4927, 8213, 10932, 13410], "trial_type": "math-distractor", "key_times": [3957, 4202, 4927, 7750, 8012, 8213, 10280, 10692, 10932, 12864, 13181, 13410, 17794], "responses": ["24", "12", "15", "13"], "num2": [9, 4, 6, 5, 3], "num3": [9, 2, 3, 7, 8], "conditions": [18, 1200, "v", 18000], "internal_node_id": "0.0-34.0", "key_presses": [50, 52, 13, 49, 50, 13, 49, 53, 13, 49, 51, 13, 49], "trial": 1, "time_elapsed": 485878, "type": "DISTRACTOR", "trial_index": 43, "num1": [6, 6, 6, 1, 3]}, "uniqueid": "MTK2234:3QEMNNSB2Y6CXZMQ6988QHEB9PMD78", "dateTime": 1516897136524}, {"current_trial": 44, "trialdata": {"rt": -1, "trial_type": "single-stim", "stimulus": "<p id=\"stim\">10</p>", "internal_node_id": "0.0-35.0-0.0", "time_elapsed": 488881, "key_press": -1, "trial_index": 44}, "uniqueid": "MTK2234:3QEMNNSB2Y6CXZMQ6988QHEB9PMD78", "dateTime": 1516897139526}, {"current_trial": 45, "trialdata": {"rt": -1, "trial_type": "single-stim", "stimulus": "<p id=\"stim\">9</p>", "internal_node_id": "0.0-35.0-1.0", "time_elapsed": 489882, "key_press": -1, "trial_index": 45}, "uniqueid": "MTK2234:3QEMNNSB2Y6CXZMQ6988QHEB9PMD78", "dateTime": 1516897140528}, {"current_trial": 46, "trialdata": {"rt": -1, "trial_type": "single-stim", "stimulus": "<p id=\"stim\">8</p>", "internal_node_id": "0.0-35.0-2.0", "time_elapsed": 490884, "key_press": -1, "trial_index": 46}, "uniqueid": "MTK2234:3QEMNNSB2Y6CXZMQ6988QHEB9PMD78", "dateTime": 1516897141530}, {"current_trial": 47, "trialdata": {"rt": -1, "trial_type": "single-stim", "stimulus": "<p id=\"stim\">7</p>", "internal_node_id": "0.0-35.0-3.0", "time_elapsed": 491886, "key_press": -1, "trial_index": 47}, "uniqueid": "MTK2234:3QEMNNSB2Y6CXZMQ6988QHEB9PMD78", "dateTime": 1516897142531}, {"current_trial": 48, "trialdata": {"rt": -1, "trial_type": "single-stim", "stimulus": "<p id=\"stim\">6</p>", "internal_node_id": "0.0-35.0-4.0", "time_elapsed": 492887, "key_press": -1, "trial_index": 48}, "uniqueid": "MTK2234:3QEMNNSB2Y6CXZMQ6988QHEB9PMD78", "dateTime": 1516897143532}, {"current_trial": 49, "trialdata": {"rt": -1, "trial_type": "single-stim", "stimulus": "<p id=\"stim\">5</p>", "internal_node_id": "0.0-35.0-5.0", "time_elapsed": 493889, "key_press": -1, "trial_index": 49}, "uniqueid": "MTK2234:3QEMNNSB2Y6CXZMQ6988QHEB9PMD78", "dateTime": 1516897144534}, {"current_trial": 50, "trialdata": {"rt": -1, "trial_type": "single-stim", "stimulus": "<p id=\"stim\">4</p>", "internal_node_id": "0.0-35.0-6.0", "time_elapsed": 494891, "key_press": -1, "trial_index": 50}, "uniqueid": "MTK2234:3QEMNNSB2Y6CXZMQ6988QHEB9PMD78", "dateTime": 1516897145536}, {"current_trial": 51, "trialdata": {"rt": -1, "trial_type": "single-stim", "stimulus": "<p id=\"stim\">3</p>", "internal_node_id": "0.0-35.0-7.0", "time_elapsed": 495892, "key_press": -1, "trial_index": 51}, "uniqueid": "MTK2234:3QEMNNSB2Y6CXZMQ6988QHEB9PMD78", "dateTime": 1516897146539}, {"current_trial": 52, "trialdata": {"rt": -1, "trial_type": "single-stim", "stimulus": "<p id=\"stim\">2</p>", "internal_node_id": "0.0-35.0-8.0", "time_elapsed": 496895, "key_press": -1, "trial_index": 52}, "uniqueid": "MTK2234:3QEMNNSB2Y6CXZMQ6988QHEB9PMD78", "dateTime": 1516897147540}, {"current_trial": 53, "trialdata": {"rt": -1, "trial_type": "single-stim", "stimulus": "<p id=\"stim\">1</p>", "internal_node_id": "0.0-35.0-9.0", "time_elapsed": 497897, "key_press": -1, "trial_index": 53}, "uniqueid": "MTK2234:3QEMNNSB2Y6CXZMQ6988QHEB9PMD78", "dateTime": 1516897148542}, {"current_trial": 54, "trialdata": {"rt": -1, "trial_type": "single-stim", "stimulus": "<p id=\"stim\">+</p>", "internal_node_id": "0.0-36.0-0.0", "time_elapsed": 499399, "key_press": -1, "type": "FIXATION", "trial_index": 54}, "uniqueid": "MTK2234:3QEMNNSB2Y6CXZMQ6988QHEB9PMD78", "dateTime": 1516897150044}, {"current_trial": 55, "trialdata": {"rt": -1, "trial_type": "single-stim", "word": "salmon", "stimulus": "<p id=\"stim\">SALMON</p>", "conditions": [18, 1200, "v", 18000], "internal_node_id": "0.0-37.0", "trial": 1, "time_elapsed": 500600, "serialpos": 0, "key_press": -1, "wordID": 1226, "type": "PRES_VIS", "trial_index": 55}, "uniqueid": "MTK2234:3QEMNNSB2Y6CXZMQ6988QHEB9PMD78", "dateTime": 1516897151246}, {"current_trial": 56, "trialdata": {"rt": -1, "trial_type": "single-stim", "word": "slime", "stimulus": "<p id=\"stim\">SLIME</p>", "conditions": [18, 1200, "v", 18000], "internal_node_id": "0.0-38.0", "trial": 1, "time_elapsed": 502919, "serialpos": 1, "key_press": -1, "wordID": 1326, "type": "PRES_VIS", "trial_index": 56}, "uniqueid": "MTK2234:3QEMNNSB2Y6CXZMQ6988QHEB9PMD78", "dateTime": 1516897153564}, {"current_trial": 57, "trialdata": {"rt": -1, "trial_type": "single-stim", "word": "bank", "stimulus": "<p id=\"stim\">BANK</p>", "conditions": [18, 1200, "v", 18000], "internal_node_id": "0.0-39.0", "trial": 1, "time_elapsed": 505218, "serialpos": 2, "key_press": -1, "wordID": 82, "type": "PRES_VIS", "trial_index": 57}, "uniqueid": "MTK2234:3QEMNNSB2Y6CXZMQ6988QHEB9PMD78", "dateTime": 1516897155863}, {"current_trial": 58, "trialdata": {"rt": -1, "trial_type": "single-stim", "word": "pigeon", "stimulus": "<p id=\"stim\">PIGEON</p>", "conditions": [18, 1200, "v", 18000], "internal_node_id": "0.0-40.0", "trial": 1, "time_elapsed": 507292, "serialpos": 3, "key_press": -1, "wordID": 1064, "type": "PRES_VIS", "trial_index": 58}, "uniqueid": "MTK2234:3QEMNNSB2Y6CXZMQ6988QHEB9PMD78", "dateTime": 1516897157937}, {"current_trial": 59, "trialdata": {"rt": -1, "trial_type": "single-stim", "word": "rattle", "stimulus": "<p id=\"stim\">RATTLE</p>", "conditions": [18, 1200, "v", 18000], "internal_node_id": "0.0-41.0", "trial": 1, "time_elapsed": 509330, "serialpos": 4, "key_press": -1, "wordID": 1169, "type": "PRES_VIS", "trial_index": 59}, "uniqueid": "MTK2234:3QEMNNSB2Y6CXZMQ6988QHEB9PMD78", "dateTime": 1516897159975}, {"current_trial": 60, "trialdata": {"rt": -1, "trial_type": "single-stim", "word": "gymnast", "stimulus": "<p id=\"stim\">GYMNAST</p>", "conditions": [18, 1200, "v", 18000], "internal_node_id": "0.0-42.0", "trial": 1, "time_elapsed": 511661, "serialpos": 5, "key_press": -1, "wordID": 674, "type": "PRES_VIS", "trial_index": 60}, "uniqueid": "MTK2234:3QEMNNSB2Y6CXZMQ6988QHEB9PMD78", "dateTime": 1516897162306}, {"current_trial": 61, "trialdata": {"rt": -1, "trial_type": "single-stim", "word": "tart", "stimulus": "<p id=\"stim\">TART</p>", "conditions": [18, 1200, "v", 18000], "internal_node_id": "0.0-43.0", "trial": 1, "time_elapsed": 513811, "serialpos": 6, "key_press": -1, "wordID": 1435, "type": "PRES_VIS", "trial_index": 61}, "uniqueid": "MTK2234:3QEMNNSB2Y6CXZMQ6988QHEB9PMD78", "dateTime": 1516897164456}, {"current_trial": 62, "trialdata": {"rt": -1, "trial_type": "single-stim", "word": "girl", "stimulus": "<p id=\"stim\">GIRL</p>", "conditions": [18, 1200, "v", 18000], "internal_node_id": "0.0-44.0", "trial": 1, "time_elapsed": 515855, "serialpos": 7, "key_press": -1, "wordID": 636, "type": "PRES_VIS", "trial_index": 62}, "uniqueid": "MTK2234:3QEMNNSB2Y6CXZMQ6988QHEB9PMD78", "dateTime": 1516897166500}, {"current_trial": 63, "trialdata": {"rt": -1, "trial_type": "single-stim", "word": "cook", "stimulus": "<p id=\"stim\">COOK</p>", "conditions": [18, 1200, "v", 18000], "internal_node_id": "0.0-45.0", "trial": 1, "time_elapsed": 517960, "serialpos": 8, "key_press": -1, "wordID": 371, "type": "PRES_VIS", "trial_index": 63}, "uniqueid": "MTK2234:3QEMNNSB2Y6CXZMQ6988QHEB9PMD78", "dateTime": 1516897168605}, {"current_trial": 64, "trialdata": {"rt": -1, "trial_type": "single-stim", "word": "swamp", "stimulus": "<p id=\"stim\">SWAMP</p>", "conditions": [18, 1200, "v", 18000], "internal_node_id": "0.0-46.0", "trial": 1, "time_elapsed": 520148, "serialpos": 9, "key_press": -1, "wordID": 1415, "type": "PRES_VIS", "trial_index": 64}, "uniqueid": "MTK2234:3QEMNNSB2Y6CXZMQ6988QHEB9PMD78", "dateTime": 1516897170793}, {"current_trial": 65, "trialdata": {"rt": -1, "trial_type": "single-stim", "word": "dashboard", "stimulus": "<p id=\"stim\">DASHBOARD</p>", "conditions": [18, 1200, "v", 18000], "internal_node_id": "0.0-47.0", "trial": 1, "time_elapsed": 522212, "serialpos": 10, "key_press": -1, "wordID": 440, "type": "PRES_VIS", "trial_index": 65}, "uniqueid": "MTK2234:3QEMNNSB2Y6CXZMQ6988QHEB9PMD78", "dateTime": 1516897172857}, {"current_trial": 66, "trialdata": {"rt": -1, "trial_type": "single-stim", "word": "pork", "stimulus": "<p id=\"stim\">PORK</p>", "conditions": [18, 1200, "v", 18000], "internal_node_id": "0.0-48.0", "trial": 1, "time_elapsed": 524369, "serialpos": 11, "key_press": -1, "wordID": 1107, "type": "PRES_VIS", "trial_index": 66}, "uniqueid": "MTK2234:3QEMNNSB2Y6CXZMQ6988QHEB9PMD78", "dateTime": 1516897175014}, {"current_trial": 67, "trialdata": {"rt": -1, "trial_type": "single-stim", "word": "scarf", "stimulus": "<p id=\"stim\">SCARF</p>", "conditions": [18, 1200, "v", 18000], "internal_node_id": "0.0-49.0", "trial": 1, "time_elapsed": 526670, "serialpos": 12, "key_press": -1, "wordID": 1245, "type": "PRES_VIS", "trial_index": 67}, "uniqueid": "MTK2234:3QEMNNSB2Y6CXZMQ6988QHEB9PMD78", "dateTime": 1516897177315}, {"current_trial": 68, "trialdata": {"rt": -1, "trial_type": "single-stim", "word": "freckle", "stimulus": "<p id=\"stim\">FRECKLE</p>", "conditions": [18, 1200, "v", 18000], "internal_node_id": "0.0-50.0", "trial": 1, "time_elapsed": 528692, "serialpos": 13, "key_press": -1, "wordID": 601, "type": "PRES_VIS", "trial_index": 68}, "uniqueid": "MTK2234:3QEMNNSB2Y6CXZMQ6988QHEB9PMD78", "dateTime": 1516897179340}, {"current_trial": 69, "trialdata": {"rt": -1, "trial_type": "single-stim", "word": "scalpel", "stimulus": "<p id=\"stim\">SCALPEL</p>", "conditions": [18, 1200, "v", 18000], "internal_node_id": "0.0-51.0", "trial": 1, "time_elapsed": 531018, "serialpos": 14, "key_press": -1, "wordID": 1242, "type": "PRES_VIS", "trial_index": 69}, "uniqueid": "MTK2234:3QEMNNSB2Y6CXZMQ6988QHEB9PMD78", "dateTime": 1516897181663}, {"current_trial": 70, "trialdata": {"rt": -1, "trial_type": "single-stim", "word": "temple", "stimulus": "<p id=\"stim\">TEMPLE</p>", "conditions": [18, 1200, "v", 18000], "internal_node_id": "0.0-52.0", "trial": 1, "time_elapsed": 533056, "serialpos": 15, "key_press": -1, "wordID": 1447, "type": "PRES_VIS", "trial_index": 70}, "uniqueid": "MTK2234:3QEMNNSB2Y6CXZMQ6988QHEB9PMD78", "dateTime": 1516897183702}, {"current_trial": 71, "trialdata": {"rt": -1, "trial_type": "single-stim", "word": "label", "stimulus": "<p id=\"stim\">LABEL</p>", "conditions": [18, 1200, "v", 18000], "internal_node_id": "0.0-53.0", "trial": 1, "time_elapsed": 535373, "serialpos": 16, "key_press": -1, "wordID": 789, "type": "PRES_VIS", "trial_index": 71}, "uniqueid": "MTK2234:3QEMNNSB2Y6CXZMQ6988QHEB9PMD78", "dateTime": 1516897186018}, {"current_trial": 72, "trialdata": {"rt": -1, "trial_type": "single-stim", "word": "igloo", "stimulus": "<p id=\"stim\">IGLOO</p>", "conditions": [18, 1200, "v", 18000], "internal_node_id": "0.0-54.0", "trial": 1, "time_elapsed": 537626, "serialpos": 17, "key_press": -1, "wordID": 733, "type": "PRES_VIS", "trial_index": 72}, "uniqueid": "MTK2234:3QEMNNSB2Y6CXZMQ6988QHEB9PMD78", "dateTime": 1516897188271}, {"current_trial": 73, "trialdata": {"rt": -1, "trial_type": "single-stim", "stimulus": "", "internal_node_id": "0.0-55.0-0.0", "time_elapsed": 539968, "key_press": -1, "type": "PRE_RECALL_DELAY", "trial_index": 73}, "uniqueid": "MTK2234:3QEMNNSB2Y6CXZMQ6988QHEB9PMD78", "dateTime": 1516897190613}, {"current_trial": 74, "trialdata": {"rt": -1000, "trial_type": "single-audio", "stimulus": "/static/audio/400Hz.wav", "internal_node_id": "0.0-56.0", "time_elapsed": 540474, "key_press": -1, "type": "PRE_RECALL_ALERT", "trial_index": 74}, "uniqueid": "MTK2234:3QEMNNSB2Y6CXZMQ6988QHEB9PMD78", "dateTime": 1516897191119}, {"current_trial": 75, "trialdata": {"rt": [4208, 6919, 9129, 11250, 18005, 25548, 45447, 53877], "recwords": ["igloo", "girl", "rattle", "salmon", "label", "swamp", "rattle", ""], "key_times": [1519, 1897, 2222, 3533, 3711, 4208, 5736, 5915, 6258, 6654, 6919, 7506, 7705, 7857, 8021, 8529, 8846, 9129, 9697, 9957, 10079, 10375, 10580, 10884, 11250, 16671, 17085, 17241, 17459, 17697, 18005, 24266, 24529, 24820, 24979, 25221, 25548, 43915, 44200, 44367, 44531, 45090, 45322, 45447, 53877], "trial_type": "free-recall", "conditions": [18, 1200, "v", 18000], "internal_node_id": "0.0-57.0-0.0", "key_presses": [73, 71, 76, 79, 79, 13, 71, 73, 82, 76, 13, 82, 65, 84, 84, 76, 69, 13, 83, 65, 76, 77, 79, 78, 13, 76, 65, 66, 69, 76, 13, 83, 87, 65, 77, 80, 13, 82, 65, 84, 84, 76, 69, 13, 32], "trial": 1, "time_elapsed": 600478, "type": "FREE_RECALL", "trial_index": 75}, "uniqueid": "MTK2234:3QEMNNSB2Y6CXZMQ6988QHEB9PMD78", "dateTime": 1516897251125}, {"current_trial": 76, "trialdata": {"rt": 3336, "trial_type": "text", "internal_node_id": "0.0-58.0", "time_elapsed": 605819, "key_press": 32, "type": "INSTRUCTIONS", "trial_index": 76}, "uniqueid": "MTK2234:3QEMNNSB2Y6CXZMQ6988QHEB9PMD78", "dateTime": 1516897256464}, {"current_trial": 77, "trialdata": {"rt": [3515, 7118, 10600], "trial_type": "math-distractor", "key_times": [2653, 3086, 3515, 6263, 6716, 7118, 9620, 9840, 10600], "responses": ["17", "17", "12"], "num2": [4, 3, 6, 7], "num3": [9, 6, 4, 3], "conditions": [12, 1600, "v", 12000], "internal_node_id": "0.0-59.0", "key_presses": [49, 55, 13, 49, 55, 13, 49, 50, 13], "trial": 2, "time_elapsed": 618822, "type": "DISTRACTOR", "trial_index": 77, "num1": [4, 8, 2, 5]}, "uniqueid": "MTK2234:3QEMNNSB2Y6CXZMQ6988QHEB9PMD78", "dateTime": 1516897269467}, {"current_trial": 78, "trialdata": {"rt": -1, "trial_type": "single-stim", "stimulus": "<p id=\"stim\">10</p>", "internal_node_id": "0.0-60.0-0.0", "time_elapsed": 621826, "key_press": -1, "trial_index": 78}, "uniqueid": "MTK2234:3QEMNNSB2Y6CXZMQ6988QHEB9PMD78", "dateTime": 1516897272471}, {"current_trial": 79, "trialdata": {"rt": -1, "trial_type": "single-stim", "stimulus": "<p id=\"stim\">9</p>", "internal_node_id": "0.0-60.0-1.0", "time_elapsed": 622829, "key_press": -1, "trial_index": 79}, "uniqueid": "MTK2234:3QEMNNSB2Y6CXZMQ6988QHEB9PMD78", "dateTime": 1516897273474}, {"current_trial": 80, "trialdata": {"rt": -1, "trial_type": "single-stim", "stimulus": "<p id=\"stim\">8</p>", "internal_node_id": "0.0-60.0-2.0", "time_elapsed": 623830, "key_press": -1, "trial_index": 80}, "uniqueid": "MTK2234:3QEMNNSB2Y6CXZMQ6988QHEB9PMD78", "dateTime": 1516897274475}, {"current_trial": 81, "trialdata": {"rt": -1, "trial_type": "single-stim", "stimulus": "<p id=\"stim\">7</p>", "internal_node_id": "0.0-60.0-3.0", "time_elapsed": 624832, "key_press": -1, "trial_index": 81}, "uniqueid": "MTK2234:3QEMNNSB2Y6CXZMQ6988QHEB9PMD78", "dateTime": 1516897275477}, {"current_trial": 82, "trialdata": {"rt": -1, "trial_type": "single-stim", "stimulus": "<p id=\"stim\">6</p>", "internal_node_id": "0.0-60.0-4.0", "time_elapsed": 625835, "key_press": -1, "trial_index": 82}, "uniqueid": "MTK2234:3QEMNNSB2Y6CXZMQ6988QHEB9PMD78", "dateTime": 1516897276480}, {"current_trial": 83, "trialdata": {"rt": -1, "trial_type": "single-stim", "stimulus": "<p id=\"stim\">5</p>", "internal_node_id": "0.0-60.0-5.0", "time_elapsed": 626836, "key_press": -1, "trial_index": 83}, "uniqueid": "MTK2234:3QEMNNSB2Y6CXZMQ6988QHEB9PMD78", "dateTime": 1516897277482}, {"current_trial": 84, "trialdata": {"rt": -1, "trial_type": "single-stim", "stimulus": "<p id=\"stim\">4</p>", "internal_node_id": "0.0-60.0-6.0", "time_elapsed": 627838, "key_press": -1, "trial_index": 84}, "uniqueid": "MTK2234:3QEMNNSB2Y6CXZMQ6988QHEB9PMD78", "dateTime": 1516897278483}, {"current_trial": 85, "trialdata": {"rt": -1, "trial_type": "single-stim", "stimulus": "<p id=\"stim\">3</p>", "internal_node_id": "0.0-60.0-7.0", "time_elapsed": 628840, "key_press": -1, "trial_index": 85}, "uniqueid": "MTK2234:3QEMNNSB2Y6CXZMQ6988QHEB9PMD78", "dateTime": 1516897279485}, {"current_trial": 86, "trialdata": {"rt": -1, "trial_type": "single-stim", "stimulus": "<p id=\"stim\">2</p>", "internal_node_id": "0.0-60.0-8.0", "time_elapsed": 629842, "key_press": -1, "trial_index": 86}, "uniqueid": "MTK2234:3QEMNNSB2Y6CXZMQ6988QHEB9PMD78", "dateTime": 1516897280487}, {"current_trial": 87, "trialdata": {"rt": -1, "trial_type": "single-stim", "stimulus": "<p id=\"stim\">1</p>", "internal_node_id": "0.0-60.0-9.0", "time_elapsed": 630844, "key_press": -1, "trial_index": 87}, "uniqueid": "MTK2234:3QEMNNSB2Y6CXZMQ6988QHEB9PMD78", "dateTime": 1516897281489}, {"current_trial": 88, "trialdata": {"rt": -1, "trial_type": "single-stim", "stimulus": "<p id=\"stim\">+</p>", "internal_node_id": "0.0-61.0-0.0", "time_elapsed": 632345, "key_press": -1, "type": "FIXATION", "trial_index": 88}, "uniqueid": "MTK2234:3QEMNNSB2Y6CXZMQ6988QHEB9PMD78", "dateTime": 1516897282990}, {"current_trial": 89, "trialdata": {"rt": -1, "trial_type": "single-stim", "word": "hero", "stimulus": "<p id=\"stim\">HERO</p>", "conditions": [12, 1600, "v", 12000], "internal_node_id": "0.0-62.0", "trial": 2, "time_elapsed": 633947, "serialpos": 0, "key_press": -1, "wordID": 705, "type": "PRES_VIS", "trial_index": 89}, "uniqueid": "MTK2234:3QEMNNSB2Y6CXZMQ6988QHEB9PMD78", "dateTime": 1516897284592}, {"current_trial": 90, "trialdata": {"rt": -1, "trial_type": "single-stim", "word": "fox", "stimulus": "<p id=\"stim\">FOX</p>", "conditions": [12, 1600, "v", 12000], "internal_node_id": "0.0-63.0", "trial": 2, "time_elapsed": 636473, "serialpos": 1, "key_press": -1, "wordID": 597, "type": "PRES_VIS", "trial_index": 90}, "uniqueid": "MTK2234:3QEMNNSB2Y6CXZMQ6988QHEB9PMD78", "dateTime": 1516897287118}, {"current_trial": 91, "trialdata": {"rt": -1, "trial_type": "single-stim", "word": "atom", "stimulus": "<p id=\"stim\">ATOM</p>", "conditions": [12, 1600, "v", 12000], "internal_node_id": "0.0-64.0", "trial": 2, "time_elapsed": 639058, "serialpos": 2, "key_press": -1, "wordID": 54, "type": "PRES_VIS", "trial_index": 91}, "uniqueid": "MTK2234:3QEMNNSB2Y6CXZMQ6988QHEB9PMD78", "dateTime": 1516897289703}, {"current_trial": 92, "trialdata": {"rt": -1, "trial_type": "single-stim", "word": "gift", "stimulus": "<p id=\"stim\">GIFT</p>", "conditions": [12, 1600, "v", 12000], "internal_node_id": "0.0-65.0", "trial": 2, "time_elapsed": 641801, "serialpos": 3, "key_press": -1, "wordID": 634, "type": "PRES_VIS", "trial_index": 92}, "uniqueid": "MTK2234:3QEMNNSB2Y6CXZMQ6988QHEB9PMD78", "dateTime": 1516897292446}, {"current_trial": 93, "trialdata": {"rt": -1, "trial_type": "single-stim", "word": "mop", "stimulus": "<p id=\"stim\">MOP</p>", "conditions": [12, 1600, "v", 12000], "internal_node_id": "0.0-66.0", "trial": 2, "time_elapsed": 644234, "serialpos": 4, "key_press": -1, "wordID": 915, "type": "PRES_VIS", "trial_index": 93}, "uniqueid": "MTK2234:3QEMNNSB2Y6CXZMQ6988QHEB9PMD78", "dateTime": 1516897294879}, {"current_trial": 94, "trialdata": {"rt": -1, "trial_type": "single-stim", "word": "ketchup", "stimulus": "<p id=\"stim\">KETCHUP</p>", "conditions": [12, 1600, "v", 12000], "internal_node_id": "0.0-67.0", "trial": 2, "time_elapsed": 646807, "serialpos": 5, "key_press": -1, "wordID": 770, "type": "PRES_VIS", "trial_index": 94}, "uniqueid": "MTK2234:3QEMNNSB2Y6CXZMQ6988QHEB9PMD78", "dateTime": 1516897297453}, {"current_trial": 95, "trialdata": {"rt": -1, "trial_type": "single-stim", "word": "parrot", "stimulus": "<p id=\"stim\">PARROT</p>", "conditions": [12, 1600, "v", 12000], "internal_node_id": "0.0-68.0", "trial": 2, "time_elapsed": 649427, "serialpos": 6, "key_press": -1, "wordID": 1014, "type": "PRES_VIS", "trial_index": 95}, "uniqueid": "MTK2234:3QEMNNSB2Y6CXZMQ6988QHEB9PMD78", "dateTime": 1516897300072}, {"current_trial": 96, "trialdata": {"rt": -1, "trial_type": "single-stim", "word": "forest", "stimulus": "<p id=\"stim\">FOREST</p>", "conditions": [12, 1600, "v", 12000], "internal_node_id": "0.0-69.0", "trial": 2, "time_elapsed": 652028, "serialpos": 7, "key_press": -1, "wordID": 592, "type": "PRES_VIS", "trial_index": 96}, "uniqueid": "MTK2234:3QEMNNSB2Y6CXZMQ6988QHEB9PMD78", "dateTime": 1516897302674}, {"current_trial": 97, "trialdata": {"rt": -1, "trial_type": "single-stim", "word": "queen", "stimulus": "<p id=\"stim\">QUEEN</p>", "conditions": [12, 1600, "v", 12000], "internal_node_id": "0.0-70.0", "trial": 2, "time_elapsed": 654751, "serialpos": 8, "key_press": -1, "wordID": 1148, "type": "PRES_VIS", "trial_index": 97}, "uniqueid": "MTK2234:3QEMNNSB2Y6CXZMQ6988QHEB9PMD78", "dateTime": 1516897305396}, {"current_trial": 98, "trialdata": {"rt": -1, "trial_type": "single-stim", "word": "princess", "stimulus": "<p id=\"stim\">PRINCESS</p>", "conditions": [12, 1600, "v", 12000], "internal_node_id": "0.0-71.0", "trial": 2, "time_elapsed": 657230, "serialpos": 9, "key_press": -1, "wordID": 1124, "type": "PRES_VIS", "trial_index": 98}, "uniqueid": "MTK2234:3QEMNNSB2Y6CXZMQ6988QHEB9PMD78", "dateTime": 1516897307875}, {"current_trial": 99, "trialdata": {"rt": -1, "trial_type": "single-stim", "word": "pebble", "stimulus": "<p id=\"stim\">PEBBLE</p>", "conditions": [12, 1600, "v", 12000], "internal_node_id": "0.0-72.0", "trial": 2, "time_elapsed": 659980, "serialpos": 10, "key_press": -1, "wordID": 1034, "type": "PRES_VIS", "trial_index": 99}, "uniqueid": "MTK2234:3QEMNNSB2Y6CXZMQ6988QHEB9PMD78", "dateTime": 1516897310625}, {"current_trial": 100, "trialdata": {"rt": -1, "trial_type": "single-stim", "word": "helmet", "stimulus": "<p id=\"stim\">HELMET</p>", "conditions": [12, 1600, "v", 12000], "internal_node_id": "0.0-73.0", "trial": 2, "time_elapsed": 662661, "serialpos": 11, "key_press": -1, "wordID": 701, "type": "PRES_VIS", "trial_index": 100}, "uniqueid": "MTK2234:3QEMNNSB2Y6CXZMQ6988QHEB9PMD78", "dateTime": 1516897313306}, {"current_trial": 101, "trialdata": {"rt": -1, "trial_type": "single-stim", "stimulus": "", "internal_node_id": "0.0-74.0-0.0", "time_elapsed": 664765, "key_press": -1, "type": "PRE_RECALL_DELAY", "trial_index": 101}, "uniqueid": "MTK2234:3QEMNNSB2Y6CXZMQ6988QHEB9PMD78", "dateTime": 1516897315410}, {"current_trial": 102, "trialdata": {"rt": -1000, "trial_type": "single-audio", "stimulus": "/static/audio/400Hz.wav", "internal_node_id": "0.0-75.0", "time_elapsed": 665267, "key_press": -1, "type": "PRE_RECALL_ALERT", "trial_index": 102}, "uniqueid": "MTK2234:3QEMNNSB2Y6CXZMQ6988QHEB9PMD78", "dateTime": 1516897315912}, {"current_trial": 103, "trialdata": {"rt": [2964, 5940, 7993, 10382, 13028, 24305, 30537, 52810], "recwords": ["fox", "forest", "pebble", "queen", "princes", "atom", "table", "parrot"], "key_times": [1869, 2165, 2512, 2964, 3896, 4069, 4278, 4554, 4964, 5119, 5524, 5940, 6541, 6771, 7006, 7176, 7622, 7836, 7993, 8955, 9142, 9360, 9777, 10028, 10382, 10963, 11194, 11428, 11791, 11991, 12311, 12709, 13028, 23232, 23651, 23793, 24039, 24305, 28937, 29284, 29429, 30002, 30208, 30537, 49811, 50204, 50510, 50936, 51354, 51536, 51681, 51841, 52810], "trial_type": "free-recall", "conditions": [12, 1600, "v", 12000], "internal_node_id": "0.0-76.0-0.0", "key_presses": [70, 79, 88, 13, 70, 79, 82, 69, 83, 84, 16, 13, 80, 69, 66, 66, 76, 69, 13, 81, 85, 69, 69, 78, 13, 80, 82, 73, 78, 67, 69, 83, 13, 65, 84, 79, 77, 13, 84, 65, 66, 76, 69, 13, 80, 65, 65, 8, 82, 82, 79, 84, 13], "trial": 2, "time_elapsed": 725272, "type": "FREE_RECALL", "trial_index": 103}, "uniqueid": "MTK2234:3QEMNNSB2Y6CXZMQ6988QHEB9PMD78", "dateTime": 1516897375919}, {"current_trial": 104, "trialdata": {"rt": 3049, "trial_type": "text", "internal_node_id": "0.0-77.0", "time_elapsed": 730324, "key_press": 13, "type": "INSTRUCTIONS", "trial_index": 104}, "uniqueid": "MTK2234:3QEMNNSB2Y6CXZMQ6988QHEB9PMD78", "dateTime": 1516897380969}, {"current_trial": 105, "trialdata": {"rt": [5076, 7655, 11685], "trial_type": "math-distractor", "key_times": [4659, 4888, 5076, 6941, 7389, 7655, 11165, 11364, 11685], "responses": ["21", "17", "20"], "num2": [8, 7, 5, 7], "num3": [7, 3, 6, 4], "conditions": [12, 800, "v", 12000], "internal_node_id": "0.0-78.0", "key_presses": [50, 49, 13, 49, 55, 13, 50, 48, 13], "trial": 3, "time_elapsed": 744329, "type": "DISTRACTOR", "trial_index": 105, "num1": [6, 5, 9, 4]}, "uniqueid": "MTK2234:3QEMNNSB2Y6CXZMQ6988QHEB9PMD78", "dateTime": 1516897394974}, {"current_trial": 106, "trialdata": {"rt": -1, "trial_type": "single-stim", "stimulus": "<p id=\"stim\">10</p>", "internal_node_id": "0.0-79.0-0.0", "time_elapsed": 747331, "key_press": -1, "trial_index": 106}, "uniqueid": "MTK2234:3QEMNNSB2Y6CXZMQ6988QHEB9PMD78", "dateTime": 1516897397976}, {"current_trial": 107, "trialdata": {"rt": -1, "trial_type": "single-stim", "stimulus": "<p id=\"stim\">9</p>", "internal_node_id": "0.0-79.0-1.0", "time_elapsed": 748333, "key_press": -1, "trial_index": 107}, "uniqueid": "MTK2234:3QEMNNSB2Y6CXZMQ6988QHEB9PMD78", "dateTime": 1516897398978}, {"current_trial": 108, "trialdata": {"rt": -1, "trial_type": "single-stim", "stimulus": "<p id=\"stim\">8</p>", "internal_node_id": "0.0-79.0-2.0", "time_elapsed": 749335, "key_press": -1, "trial_index": 108}, "uniqueid": "MTK2234:3QEMNNSB2Y6CXZMQ6988QHEB9PMD78", "dateTime": 1516897399980}, {"current_trial": 109, "trialdata": {"rt": -1, "trial_type": "single-stim", "stimulus": "<p id=\"stim\">7</p>", "internal_node_id": "0.0-79.0-3.0", "time_elapsed": 750336, "key_press": -1, "trial_index": 109}, "uniqueid": "MTK2234:3QEMNNSB2Y6CXZMQ6988QHEB9PMD78", "dateTime": 1516897400981}, {"current_trial": 110, "trialdata": {"rt": -1, "trial_type": "single-stim", "stimulus": "<p id=\"stim\">6</p>", "internal_node_id": "0.0-79.0-4.0", "time_elapsed": 751338, "key_press": -1, "trial_index": 110}, "uniqueid": "MTK2234:3QEMNNSB2Y6CXZMQ6988QHEB9PMD78", "dateTime": 1516897401983}, {"current_trial": 111, "trialdata": {"rt": -1, "trial_type": "single-stim", "stimulus": "<p id=\"stim\">5</p>", "internal_node_id": "0.0-79.0-5.0", "time_elapsed": 752340, "key_press": -1, "trial_index": 111}, "uniqueid": "MTK2234:3QEMNNSB2Y6CXZMQ6988QHEB9PMD78", "dateTime": 1516897402985}, {"current_trial": 112, "trialdata": {"rt": -1, "trial_type": "single-stim", "stimulus": "<p id=\"stim\">4</p>", "internal_node_id": "0.0-79.0-6.0", "time_elapsed": 753342, "key_press": -1, "trial_index": 112}, "uniqueid": "MTK2234:3QEMNNSB2Y6CXZMQ6988QHEB9PMD78", "dateTime": 1516897403987}, {"current_trial": 113, "trialdata": {"rt": -1, "trial_type": "single-stim", "stimulus": "<p id=\"stim\">3</p>", "internal_node_id": "0.0-79.0-7.0", "time_elapsed": 754343, "key_press": -1, "trial_index": 113}, "uniqueid": "MTK2234:3QEMNNSB2Y6CXZMQ6988QHEB9PMD78", "dateTime": 1516897404988}, {"current_trial": 114, "trialdata": {"rt": -1, "trial_type": "single-stim", "stimulus": "<p id=\"stim\">2</p>", "internal_node_id": "0.0-79.0-8.0", "time_elapsed": 755345, "key_press": -1, "trial_index": 114}, "uniqueid": "MTK2234:3QEMNNSB2Y6CXZMQ6988QHEB9PMD78", "dateTime": 1516897405990}, {"current_trial": 115, "trialdata": {"rt": -1, "trial_type": "single-stim", "stimulus": "<p id=\"stim\">1</p>", "internal_node_id": "0.0-79.0-9.0", "time_elapsed": 756348, "key_press": -1, "trial_index": 115}, "uniqueid": "MTK2234:3QEMNNSB2Y6CXZMQ6988QHEB9PMD78", "dateTime": 1516897406993}, {"current_trial": 116, "trialdata": {"rt": -1, "trial_type": "single-stim", "stimulus": "<p id=\"stim\">+</p>", "internal_node_id": "0.0-80.0-0.0", "time_elapsed": 757850, "key_press": -1, "type": "FIXATION", "trial_index": 116}, "uniqueid": "MTK2234:3QEMNNSB2Y6CXZMQ6988QHEB9PMD78", "dateTime": 1516897408495}, {"current_trial": 117, "trialdata": {"rt": -1, "trial_type": "single-stim", "word": "salad", "stimulus": "<p id=\"stim\">SALAD</p>", "conditions": [12, 800, "v", 12000], "internal_node_id": "0.0-81.0", "trial": 3, "time_elapsed": 758652, "serialpos": 0, "key_press": -1, "wordID": 1223, "type": "PRES_VIS", "trial_index": 117}, "uniqueid": "MTK2234:3QEMNNSB2Y6CXZMQ6988QHEB9PMD78", "dateTime": 1516897409297}, {"current_trial": 118, "trialdata": {"rt": -1, "trial_type": "single-stim", "word": "cyclone", "stimulus": "<p id=\"stim\">CYCLONE</p>", "conditions": [12, 800, "v", 12000], "internal_node_id": "0.0-82.0", "trial": 3, "time_elapsed": 760595, "serialpos": 1, "key_press": -1, "wordID": 430, "type": "PRES_VIS", "trial_index": 118}, "uniqueid": "MTK2234:3QEMNNSB2Y6CXZMQ6988QHEB9PMD78", "dateTime": 1516897411240}, {"current_trial": 119, "trialdata": {"rt": -1, "trial_type": "single-stim", "word": "banjo", "stimulus": "<p id=\"stim\">BANJO</p>", "conditions": [12, 800, "v", 12000], "internal_node_id": "0.0-83.0", "trial": 3, "time_elapsed": 762551, "serialpos": 2, "key_press": -1, "wordID": 81, "type": "PRES_VIS", "trial_index": 119}, "uniqueid": "MTK2234:3QEMNNSB2Y6CXZMQ6988QHEB9PMD78", "dateTime": 1516897413196}, {"current_trial": 120, "trialdata": {"rt": -1, "trial_type": "single-stim", "word": "sibling", "stimulus": "<p id=\"stim\">SIBLING</p>", "conditions": [12, 800, "v", 12000], "internal_node_id": "0.0-84.0", "trial": 3, "time_elapsed": 764352, "serialpos": 3, "key_press": -1, "wordID": 1300, "type": "PRES_VIS", "trial_index": 120}, "uniqueid": "MTK2234:3QEMNNSB2Y6CXZMQ6988QHEB9PMD78", "dateTime": 1516897414997}, {"current_trial": 121, "trialdata": {"rt": -1, "trial_type": "single-stim", "word": "hound", "stimulus": "<p id=\"stim\">HOUND</p>", "conditions": [12, 800, "v", 12000], "internal_node_id": "0.0-85.0", "trial": 3, "time_elapsed": 766076, "serialpos": 4, "key_press": -1, "wordID": 723, "type": "PRES_VIS", "trial_index": 121}, "uniqueid": "MTK2234:3QEMNNSB2Y6CXZMQ6988QHEB9PMD78", "dateTime": 1516897416721}, {"current_trial": 122, "trialdata": {"rt": -1, "trial_type": "single-stim", "word": "infant", "stimulus": "<p id=\"stim\">INFANT</p>", "conditions": [12, 800, "v", 12000], "internal_node_id": "0.0-86.0", "trial": 3, "time_elapsed": 767776, "serialpos": 5, "key_press": -1, "wordID": 736, "type": "PRES_VIS", "trial_index": 122}, "uniqueid": "MTK2234:3QEMNNSB2Y6CXZMQ6988QHEB9PMD78", "dateTime": 1516897418421}, {"current_trial": 123, "trialdata": {"rt": -1, "trial_type": "single-stim", "word": "child", "stimulus": "<p id=\"stim\">CHILD</p>", "conditions": [12, 800, "v", 12000], "internal_node_id": "0.0-87.0", "trial": 3, "time_elapsed": 769630, "serialpos": 6, "key_press": -1, "wordID": 298, "type": "PRES_VIS", "trial_index": 123}, "uniqueid": "MTK2234:3QEMNNSB2Y6CXZMQ6988QHEB9PMD78", "dateTime": 1516897420275}, {"current_trial": 124, "trialdata": {"rt": -1, "trial_type": "single-stim", "word": "wagon", "stimulus": "<p id=\"stim\">WAGON</p>", "conditions": [12, 800, "v", 12000], "internal_node_id": "0.0-88.0", "trial": 3, "time_elapsed": 771473, "serialpos": 7, "key_press": -1, "wordID": 1577, "type": "PRES_VIS", "trial_index": 124}, "uniqueid": "MTK2234:3QEMNNSB2Y6CXZMQ6988QHEB9PMD78", "dateTime": 1516897422118}, {"current_trial": 125, "trialdata": {"rt": -1, "trial_type": "single-stim", "word": "zipper", "stimulus": "<p id=\"stim\">ZIPPER</p>", "conditions": [12, 800, "v", 12000], "internal_node_id": "0.0-89.0", "trial": 3, "time_elapsed": 773400, "serialpos": 8, "key_press": -1, "wordID": 1635, "type": "PRES_VIS", "trial_index": 125}, "uniqueid": "MTK2234:3QEMNNSB2Y6CXZMQ6988QHEB9PMD78", "dateTime": 1516897424045}, {"current_trial": 126, "trialdata": {"rt": -1, "trial_type": "single-stim", "word": "sidewalk", "stimulus": "<p id=\"stim\">SIDEWALK</p>", "conditions": [12, 800, "v", 12000], "internal_node_id": "0.0-90.0", "trial": 3, "time_elapsed": 775330, "serialpos": 9, "key_press": -1, "wordID": 1302, "type": "PRES_VIS", "trial_index": 126}, "uniqueid": "MTK2234:3QEMNNSB2Y6CXZMQ6988QHEB9PMD78", "dateTime": 1516897425975}, {"current_trial": 127, "trialdata": {"rt": -1, "trial_type": "single-stim", "word": "omelet", "stimulus": "<p id=\"stim\">OMELET</p>", "conditions": [12, 800, "v", 12000], "internal_node_id": "0.0-91.0", "trial": 3, "time_elapsed": 777009, "serialpos": 10, "key_press": -1, "wordID": 975, "type": "PRES_VIS", "trial_index": 127}, "uniqueid": "MTK2234:3QEMNNSB2Y6CXZMQ6988QHEB9PMD78", "dateTime": 1516897427654}, {"current_trial": 128, "trialdata": {"rt": -1, "trial_type": "single-stim", "word": "cabbage", "stimulus": "<p id=\"stim\">CABBAGE</p>", "conditions": [12, 800, "v", 12000], "internal_node_id": "0.0-92.0", "trial": 3, "time_elapsed": 778791, "serialpos": 11, "key_press": -1, "wordID": 209, "type": "PRES_VIS", "trial_index": 128}, "uniqueid": "MTK2234:3QEMNNSB2Y6CXZMQ6988QHEB9PMD78", "dateTime": 1516897429436}, {"current_trial": 129, "trialdata": {"rt": -1, "trial_type": "single-stim", "stimulus": "", "internal_node_id": "0.0-93.0-0.0", "time_elapsed": 780976, "key_press": -1, "type": "PRE_RECALL_DELAY", "trial_index": 129}, "uniqueid": "MTK2234:3QEMNNSB2Y6CXZMQ6988QHEB9PMD78", "dateTime": 1516897431621}, {"current_trial": 130, "trialdata": {"rt": -1000, "trial_type": "single-audio", "stimulus": "/static/audio/400Hz.wav", "internal_node_id": "0.0-94.0", "time_elapsed": 781477, "key_press": -1, "type": "PRE_RECALL_ALERT", "trial_index": 130}, "uniqueid": "MTK2234:3QEMNNSB2Y6CXZMQ6988QHEB9PMD78", "dateTime": 1516897432123}, {"current_trial": 131, "trialdata": {"rt": [7871, 16107, 19080, 22903, 30072], "recwords": ["olomet", "infiant", "wagon", "cabbage", "sidewalk"], "key_times": [3826, 4036, 4361, 4728, 5549, 6478, 6682, 6865, 7566, 7871, 13543, 13861, 14248, 14512, 14972, 15474, 15767, 16107, 16925, 17192, 17808, 18313, 18633, 19080, 19975, 20298, 20810, 20989, 21349, 21875, 22200, 22903, 27358, 27738, 28200, 28404, 28695, 28970, 29554, 29763, 30072], "trial_type": "free-recall", "conditions": [12, 800, "v", 12000], "internal_node_id": "0.0-95.0-0.0", "key_presses": [79, 76, 77, 69, 84, 37, 37, 37, 79, 13, 73, 78, 70, 73, 65, 78, 84, 13, 87, 65, 71, 79, 78, 13, 67, 65, 66, 66, 65, 71, 69, 13, 83, 73, 68, 69, 87, 65, 76, 75, 13], "trial": 3, "time_elapsed": 841480, "type": "FREE_RECALL", "trial_index": 131}, "uniqueid": "MTK2234:3QEMNNSB2Y6CXZMQ6988QHEB9PMD78", "dateTime": 1516897492129}, {"current_trial": 132, "trialdata": {"rt": 3385, "trial_type": "text", "internal_node_id": "0.0-96.0", "time_elapsed": 846870, "key_press": 13, "type": "INSTRUCTIONS", "trial_index": 132}, "uniqueid": "MTK2234:3QEMNNSB2Y6CXZMQ6988QHEB9PMD78", "dateTime": 1516897497515}, {"current_trial": 133, "trialdata": {"rt": [4429, 7700, 11380, 15256, 18121, 21773], "trial_type": "math-distractor", "key_times": [3444, 3923, 4429, 6477, 7017, 7700, 10114, 10704, 11380, 14133, 14754, 15256, 16993, 17483, 18121, 20713, 21130, 21773], "responses": ["18", "13", "15", "13", "16", "15"], "num2": [9, 2, 4, 7, 7, 2, 7], "num3": [7, 4, 5, 5, 2, 4, 3], "conditions": [12, 1600, "v", 24000], "internal_node_id": "0.0-97.0", "key_presses": [49, 56, 13, 49, 51, 13, 49, 53, 13, 49, 51, 13, 49, 54, 13, 49, 53, 13], "trial": 4, "time_elapsed": 872873, "type": "DISTRACTOR", "trial_index": 133, "num1": [2, 7, 6, 1, 7, 9, 8]}, "uniqueid": "MTK2234:3QEMNNSB2Y6CXZMQ6988QHEB9PMD78", "dateTime": 1516897523518}, {"current_trial": 134, "trialdata": {"rt": -1, "trial_type": "single-stim", "stimulus": "<p id=\"stim\">10</p>", "internal_node_id": "0.0-98.0-0.0", "time_elapsed": 875875, "key_press": -1, "trial_index": 134}, "uniqueid": "MTK2234:3QEMNNSB2Y6CXZMQ6988QHEB9PMD78", "dateTime": 1516897526520}, {"current_trial": 135, "trialdata": {"rt": -1, "trial_type": "single-stim", "stimulus": "<p id=\"stim\">9</p>", "internal_node_id": "0.0-98.0-1.0", "time_elapsed": 876877, "key_press": -1, "trial_index": 135}, "uniqueid": "MTK2234:3QEMNNSB2Y6CXZMQ6988QHEB9PMD78", "dateTime": 1516897527522}, {"current_trial": 136, "trialdata": {"rt": -1, "trial_type": "single-stim", "stimulus": "<p id=\"stim\">8</p>", "internal_node_id": "0.0-98.0-2.0", "time_elapsed": 877878, "key_press": -1, "trial_index": 136}, "uniqueid": "MTK2234:3QEMNNSB2Y6CXZMQ6988QHEB9PMD78", "dateTime": 1516897528523}, {"current_trial": 137, "trialdata": {"rt": -1, "trial_type": "single-stim", "stimulus": "<p id=\"stim\">7</p>", "internal_node_id": "0.0-98.0-3.0", "time_elapsed": 878880, "key_press": -1, "trial_index": 137}, "uniqueid": "MTK2234:3QEMNNSB2Y6CXZMQ6988QHEB9PMD78", "dateTime": 1516897529525}, {"current_trial": 138, "trialdata": {"rt": -1, "trial_type": "single-stim", "stimulus": "<p id=\"stim\">6</p>", "internal_node_id": "0.0-98.0-4.0", "time_elapsed": 879881, "key_press": -1, "trial_index": 138}, "uniqueid": "MTK2234:3QEMNNSB2Y6CXZMQ6988QHEB9PMD78", "dateTime": 1516897530526}, {"current_trial": 139, "trialdata": {"rt": -1, "trial_type": "single-stim", "stimulus": "<p id=\"stim\">5</p>", "internal_node_id": "0.0-98.0-5.0", "time_elapsed": 880883, "key_press": -1, "trial_index": 139}, "uniqueid": "MTK2234:3QEMNNSB2Y6CXZMQ6988QHEB9PMD78", "dateTime": 1516897531528}, {"current_trial": 140, "trialdata": {"rt": -1, "trial_type": "single-stim", "stimulus": "<p id=\"stim\">4</p>", "internal_node_id": "0.0-98.0-6.0", "time_elapsed": 881885, "key_press": -1, "trial_index": 140}, "uniqueid": "MTK2234:3QEMNNSB2Y6CXZMQ6988QHEB9PMD78", "dateTime": 1516897532530}, {"current_trial": 141, "trialdata": {"rt": -1, "trial_type": "single-stim", "stimulus": "<p id=\"stim\">3</p>", "internal_node_id": "0.0-98.0-7.0", "time_elapsed": 882886, "key_press": -1, "trial_index": 141}, "uniqueid": "MTK2234:3QEMNNSB2Y6CXZMQ6988QHEB9PMD78", "dateTime": 1516897533531}, {"current_trial": 142, "trialdata": {"rt": -1, "trial_type": "single-stim", "stimulus": "<p id=\"stim\">2</p>", "internal_node_id": "0.0-98.0-8.0", "time_elapsed": 883888, "key_press": -1, "trial_index": 142}, "uniqueid": "MTK2234:3QEMNNSB2Y6CXZMQ6988QHEB9PMD78", "dateTime": 1516897534533}, {"current_trial": 143, "trialdata": {"rt": -1, "trial_type": "single-stim", "stimulus": "<p id=\"stim\">1</p>", "internal_node_id": "0.0-98.0-9.0", "time_elapsed": 884890, "key_press": -1, "trial_index": 143}, "uniqueid": "MTK2234:3QEMNNSB2Y6CXZMQ6988QHEB9PMD78", "dateTime": 1516897535535}, {"current_trial": 144, "trialdata": {"rt": -1, "trial_type": "single-stim", "stimulus": "<p id=\"stim\">+</p>", "internal_node_id": "0.0-99.0-0.0", "time_elapsed": 886391, "key_press": -1, "type": "FIXATION", "trial_index": 144}, "uniqueid": "MTK2234:3QEMNNSB2Y6CXZMQ6988QHEB9PMD78", "dateTime": 1516897537036}, {"current_trial": 145, "trialdata": {"rt": -1, "trial_type": "single-stim", "word": "elbow", "stimulus": "<p id=\"stim\">ELBOW</p>", "conditions": [12, 1600, "v", 24000], "internal_node_id": "0.0-100.0", "trial": 4, "time_elapsed": 887992, "serialpos": 0, "key_press": -1, "wordID": 519, "type": "PRES_VIS", "trial_index": 145}, "uniqueid": "MTK2234:3QEMNNSB2Y6CXZMQ6988QHEB9PMD78", "dateTime": 1516897538637}, {"current_trial": 146, "trialdata": {"rt": -1, "trial_type": "single-stim", "word": "crab", "stimulus": "<p id=\"stim\">CRAB</p>", "conditions": [12, 1600, "v", 24000], "internal_node_id": "0.0-101.0", "trial": 4, "time_elapsed": 890727, "serialpos": 1, "key_press": -1, "wordID": 396, "type": "PRES_VIS", "trial_index": 146}, "uniqueid": "MTK2234:3QEMNNSB2Y6CXZMQ6988QHEB9PMD78", "dateTime": 1516897541372}, {"current_trial": 147, "trialdata": {"rt": -1, "trial_type": "single-stim", "word": "clam", "stimulus": "<p id=\"stim\">CLAM</p>", "conditions": [12, 1600, "v", 24000], "internal_node_id": "0.0-102.0", "trial": 4, "time_elapsed": 893368, "serialpos": 2, "key_press": -1, "wordID": 314, "type": "PRES_VIS", "trial_index": 147}, "uniqueid": "MTK2234:3QEMNNSB2Y6CXZMQ6988QHEB9PMD78", "dateTime": 1516897544013}, {"current_trial": 148, "trialdata": {"rt": -1, "trial_type": "single-stim", "word": "monster", "stimulus": "<p id=\"stim\">MONSTER</p>", "conditions": [12, 1600, "v", 24000], "internal_node_id": "0.0-103.0", "trial": 4, "time_elapsed": 895859, "serialpos": 3, "key_press": -1, "wordID": 911, "type": "PRES_VIS", "trial_index": 148}, "uniqueid": "MTK2234:3QEMNNSB2Y6CXZMQ6988QHEB9PMD78", "dateTime": 1516897546504}, {"current_trial": 149, "trialdata": {"rt": -1, "trial_type": "single-stim", "word": "twig", "stimulus": "<p id=\"stim\">TWIG</p>", "conditions": [12, 1600, "v", 24000], "internal_node_id": "0.0-104.0", "trial": 4, "time_elapsed": 898440, "serialpos": 4, "key_press": -1, "wordID": 1526, "type": "PRES_VIS", "trial_index": 149}, "uniqueid": "MTK2234:3QEMNNSB2Y6CXZMQ6988QHEB9PMD78", "dateTime": 1516897549085}, {"current_trial": 150, "trialdata": {"rt": -1, "trial_type": "single-stim", "word": "glove", "stimulus": "<p id=\"stim\">GLOVE</p>", "conditions": [12, 1600, "v", 24000], "internal_node_id": "0.0-105.0", "trial": 4, "time_elapsed": 900927, "serialpos": 5, "key_press": -1, "wordID": 641, "type": "PRES_VIS", "trial_index": 150}, "uniqueid": "MTK2234:3QEMNNSB2Y6CXZMQ6988QHEB9PMD78", "dateTime": 1516897551572}, {"current_trial": 151, "trialdata": {"rt": -1, "trial_type": "single-stim", "word": "razor", "stimulus": "<p id=\"stim\">RAZOR</p>", "conditions": [12, 1600, "v", 24000], "internal_node_id": "0.0-106.0", "trial": 4, "time_elapsed": 903698, "serialpos": 6, "key_press": -1, "wordID": 1170, "type": "PRES_VIS", "trial_index": 151}, "uniqueid": "MTK2234:3QEMNNSB2Y6CXZMQ6988QHEB9PMD78", "dateTime": 1516897554343}, {"current_trial": 152, "trialdata": {"rt": -1, "trial_type": "single-stim", "word": "shoulder", "stimulus": "<p id=\"stim\">SHOULDER</p>", "conditions": [12, 1600, "v", 24000], "internal_node_id": "0.0-107.0", "trial": 4, "time_elapsed": 906318, "serialpos": 7, "key_press": -1, "wordID": 1293, "type": "PRES_VIS", "trial_index": 152}, "uniqueid": "MTK2234:3QEMNNSB2Y6CXZMQ6988QHEB9PMD78", "dateTime": 1516897556963}, {"current_trial": 153, "trialdata": {"rt": -1, "trial_type": "single-stim", "word": "onion", "stimulus": "<p id=\"stim\">ONION</p>", "conditions": [12, 1600, "v", 24000], "internal_node_id": "0.0-108.0", "trial": 4, "time_elapsed": 908992, "serialpos": 8, "key_press": -1, "wordID": 976, "type": "PRES_VIS", "trial_index": 153}, "uniqueid": "MTK2234:3QEMNNSB2Y6CXZMQ6988QHEB9PMD78", "dateTime": 1516897559637}, {"current_trial": 154, "trialdata": {"rt": -1, "trial_type": "single-stim", "word": "marker", "stimulus": "<p id=\"stim\">MARKER</p>", "conditions": [12, 1600, "v", 24000], "internal_node_id": "0.0-109.0", "trial": 4, "time_elapsed": 911605, "serialpos": 9, "key_press": -1, "wordID": 869, "type": "PRES_VIS", "trial_index": 154}, "uniqueid": "MTK2234:3QEMNNSB2Y6CXZMQ6988QHEB9PMD78", "dateTime": 1516897562250}, {"current_trial": 155, "trialdata": {"rt": -1, "trial_type": "single-stim", "word": "denim", "stimulus": "<p id=\"stim\">DENIM</p>", "conditions": [12, 1600, "v", 24000], "internal_node_id": "0.0-110.0", "trial": 4, "time_elapsed": 914028, "serialpos": 10, "key_press": -1, "wordID": 445, "type": "PRES_VIS", "trial_index": 155}, "uniqueid": "MTK2234:3QEMNNSB2Y6CXZMQ6988QHEB9PMD78", "dateTime": 1516897564673}, {"current_trial": 156, "trialdata": {"rt": -1, "trial_type": "single-stim", "word": "lettuce", "stimulus": "<p id=\"stim\">LETTUCE</p>", "conditions": [12, 1600, "v", 24000], "internal_node_id": "0.0-111.0", "trial": 4, "time_elapsed": 916769, "serialpos": 11, "key_press": -1, "wordID": 813, "type": "PRES_VIS", "trial_index": 156}, "uniqueid": "MTK2234:3QEMNNSB2Y6CXZMQ6988QHEB9PMD78", "dateTime": 1516897567415}, {"current_trial": 157, "trialdata": {"rt": -1, "trial_type": "single-stim", "stimulus": "", "internal_node_id": "0.0-112.0-0.0", "time_elapsed": 918929, "key_press": -1, "type": "PRE_RECALL_DELAY", "trial_index": 157}, "uniqueid": "MTK2234:3QEMNNSB2Y6CXZMQ6988QHEB9PMD78", "dateTime": 1516897569574}, {"current_trial": 158, "trialdata": {"rt": -1000, "trial_type": "single-audio", "stimulus": "/static/audio/400Hz.wav", "internal_node_id": "0.0-113.0", "time_elapsed": 919431, "key_press": -1, "type": "PRE_RECALL_ALERT", "trial_index": 158}, "uniqueid": "MTK2234:3QEMNNSB2Y6CXZMQ6988QHEB9PMD78", "dateTime": 1516897570077}, {"current_trial": 159, "trialdata": {"rt": [3680, 5893, 9561, 12458, 14490, 17113, 20108], "recwords": ["lettuce", "onion", "shoulder", "elbow", "crab", "clam", "marker"], "key_times": [1088, 1508, 1907, 2078, 2427, 2774, 3008, 3680, 4158, 4745, 5003, 5223, 5519, 5893, 7005, 7512, 7737, 7940, 8204, 8595, 8795, 8989, 9561, 10091, 10752, 11133, 11413, 11827, 12458, 13041, 13285, 13594, 14117, 14490, 15178, 15713, 16170, 16707, 17113, 17583, 18033, 18360, 18911, 19322, 19546, 20108], "trial_type": "free-recall", "conditions": [12, 1600, "v", 24000], "internal_node_id": "0.0-114.0-0.0", "key_presses": [76, 69, 84, 84, 85, 67, 69, 13, 79, 78, 73, 79, 78, 13, 83, 72, 79, 85, 76, 68, 69, 82, 13, 69, 76, 66, 79, 87, 13, 67, 82, 65, 66, 13, 67, 76, 65, 77, 13, 77, 65, 82, 75, 69, 82, 13], "trial": 4, "time_elapsed": 979435, "type": "FREE_RECALL", "trial_index": 159}, "uniqueid": "MTK2234:3QEMNNSB2Y6CXZMQ6988QHEB9PMD78", "dateTime": 1516897630084}, {"current_trial": 160, "trialdata": {"rt": 1680, "trial_type": "text", "internal_node_id": "0.0-115.0", "time_elapsed": 983121, "key_press": 13, "type": "INSTRUCTIONS", "trial_index": 160}, "uniqueid": "MTK2234:3QEMNNSB2Y6CXZMQ6988QHEB9PMD78", "dateTime": 1516897633766}, {"current_trial": 161, "trialdata": {"rt": [3123, 8069, 11736, 14698, 18584, 21733], "trial_type": "math-distractor", "key_times": [1970, 2628, 3123, 7263, 7449, 8069, 10449, 10974, 11736, 13676, 14165, 14698, 17395, 17954, 18584, 20756, 21244, 21733], "responses": ["16", "22", "17", "13", "10", "17"], "num2": [3, 9, 6, 6, 3, 5, 6], "num3": [6, 4, 5, 5, 3, 4, 4], "conditions": [24, 800, "v", 24000], "internal_node_id": "0.0-116.0", "key_presses": [49, 54, 13, 50, 50, 13, 49, 55, 13, 49, 51, 13, 49, 48, 13, 49, 55, 13], "trial": 5, "time_elapsed": 1009124, "type": "DISTRACTOR", "trial_index": 161, "num1": [7, 9, 6, 2, 4, 8, 4]}, "uniqueid": "MTK2234:3QEMNNSB2Y6CXZMQ6988QHEB9PMD78", "dateTime": 1516897659769}, {"current_trial": 162, "trialdata": {"rt": -1, "trial_type": "single-stim", "stimulus": "<p id=\"stim\">10</p>", "internal_node_id": "0.0-117.0-0.0", "time_elapsed": 1012126, "key_press": -1, "trial_index": 162}, "uniqueid": "MTK2234:3QEMNNSB2Y6CXZMQ6988QHEB9PMD78", "dateTime": 1516897662771}, {"current_trial": 163, "trialdata": {"rt": -1, "trial_type": "single-stim", "stimulus": "<p id=\"stim\">9</p>", "internal_node_id": "0.0-117.0-1.0", "time_elapsed": 1013128, "key_press": -1, "trial_index": 163}, "uniqueid": "MTK2234:3QEMNNSB2Y6CXZMQ6988QHEB9PMD78", "dateTime": 1516897663773}, {"current_trial": 164, "trialdata": {"rt": -1, "trial_type": "single-stim", "stimulus": "<p id=\"stim\">8</p>", "internal_node_id": "0.0-117.0-2.0", "time_elapsed": 1014129, "key_press": -1, "trial_index": 164}, "uniqueid": "MTK2234:3QEMNNSB2Y6CXZMQ6988QHEB9PMD78", "dateTime": 1516897664774}, {"current_trial": 165, "trialdata": {"rt": -1, "trial_type": "single-stim", "stimulus": "<p id=\"stim\">7</p>", "internal_node_id": "0.0-117.0-3.0", "time_elapsed": 1015131, "key_press": -1, "trial_index": 165}, "uniqueid": "MTK2234:3QEMNNSB2Y6CXZMQ6988QHEB9PMD78", "dateTime": 1516897665776}, {"current_trial": 166, "trialdata": {"rt": -1, "trial_type": "single-stim", "stimulus": "<p id=\"stim\">6</p>", "internal_node_id": "0.0-117.0-4.0", "time_elapsed": 1016132, "key_press": -1, "trial_index": 166}, "uniqueid": "MTK2234:3QEMNNSB2Y6CXZMQ6988QHEB9PMD78", "dateTime": 1516897666778}, {"current_trial": 167, "trialdata": {"rt": -1, "trial_type": "single-stim", "stimulus": "<p id=\"stim\">5</p>", "internal_node_id": "0.0-117.0-5.0", "time_elapsed": 1017134, "key_press": -1, "trial_index": 167}, "uniqueid": "MTK2234:3QEMNNSB2Y6CXZMQ6988QHEB9PMD78", "dateTime": 1516897667779}, {"current_trial": 168, "trialdata": {"rt": -1, "trial_type": "single-stim", "stimulus": "<p id=\"stim\">4</p>", "internal_node_id": "0.0-117.0-6.0", "time_elapsed": 1018136, "key_press": -1, "trial_index": 168}, "uniqueid": "MTK2234:3QEMNNSB2Y6CXZMQ6988QHEB9PMD78", "dateTime": 1516897668781}, {"current_trial": 169, "trialdata": {"rt": -1, "trial_type": "single-stim", "stimulus": "<p id=\"stim\">3</p>", "internal_node_id": "0.0-117.0-7.0", "time_elapsed": 1019137, "key_press": -1, "trial_index": 169}, "uniqueid": "MTK2234:3QEMNNSB2Y6CXZMQ6988QHEB9PMD78", "dateTime": 1516897669782}, {"current_trial": 170, "trialdata": {"rt": -1, "trial_type": "single-stim", "stimulus": "<p id=\"stim\">2</p>", "internal_node_id": "0.0-117.0-8.0", "time_elapsed": 1020139, "key_press": -1, "trial_index": 170}, "uniqueid": "MTK2234:3QEMNNSB2Y6CXZMQ6988QHEB9PMD78", "dateTime": 1516897670784}, {"current_trial": 171, "trialdata": {"rt": -1, "trial_type": "single-stim", "stimulus": "<p id=\"stim\">1</p>", "internal_node_id": "0.0-117.0-9.0", "time_elapsed": 1021141, "key_press": -1, "trial_index": 171}, "uniqueid": "MTK2234:3QEMNNSB2Y6CXZMQ6988QHEB9PMD78", "dateTime": 1516897671786}, {"current_trial": 172, "trialdata": {"rt": -1, "trial_type": "single-stim", "stimulus": "<p id=\"stim\">+</p>", "internal_node_id": "0.0-118.0-0.0", "time_elapsed": 1022642, "key_press": -1, "type": "FIXATION", "trial_index": 172}, "uniqueid": "MTK2234:3QEMNNSB2Y6CXZMQ6988QHEB9PMD78", "dateTime": 1516897673287}, {"current_trial": 173, "trialdata": {"rt": -1, "trial_type": "single-stim", "word": "pastry", "stimulus": "<p id=\"stim\">PASTRY</p>", "conditions": [24, 800, "v", 24000], "internal_node_id": "0.0-119.0", "trial": 5, "time_elapsed": 1023443, "serialpos": 0, "key_press": -1, "wordID": 1021, "type": "PRES_VIS", "trial_index": 173}, "uniqueid": "MTK2234:3QEMNNSB2Y6CXZMQ6988QHEB9PMD78", "dateTime": 1516897674088}, {"current_trial": 174, "trialdata": {"rt": -1, "trial_type": "single-stim", "word": "mustard", "stimulus": "<p id=\"stim\">MUSTARD</p>", "conditions": [24, 800, "v", 24000], "internal_node_id": "0.0-120.0", "trial": 5, "time_elapsed": 1025418, "serialpos": 1, "key_press": -1, "wordID": 934, "type": "PRES_VIS", "trial_index": 174}, "uniqueid": "MTK2234:3QEMNNSB2Y6CXZMQ6988QHEB9PMD78", "dateTime": 1516897676063}, {"current_trial": 175, "trialdata": {"rt": -1, "trial_type": "single-stim", "word": "pudding", "stimulus": "<p id=\"stim\">PUDDING</p>", "conditions": [24, 800, "v", 24000], "internal_node_id": "0.0-121.0", "trial": 5, "time_elapsed": 1027106, "serialpos": 2, "key_press": -1, "wordID": 1138, "type": "PRES_VIS", "trial_index": 175}, "uniqueid": "MTK2234:3QEMNNSB2Y6CXZMQ6988QHEB9PMD78", "dateTime": 1516897677751}, {"current_trial": 176, "trialdata": {"rt": -1, "trial_type": "single-stim", "word": "bullet", "stimulus": "<p id=\"stim\">BULLET</p>", "conditions": [24, 800, "v", 24000], "internal_node_id": "0.0-122.0", "trial": 5, "time_elapsed": 1028840, "serialpos": 3, "key_press": -1, "wordID": 193, "type": "PRES_VIS", "trial_index": 176}, "uniqueid": "MTK2234:3QEMNNSB2Y6CXZMQ6988QHEB9PMD78", "dateTime": 1516897679485}, {"current_trial": 177, "trialdata": {"rt": -1, "trial_type": "single-stim", "word": "chest", "stimulus": "<p id=\"stim\">CHEST</p>", "conditions": [24, 800, "v", 24000], "internal_node_id": "0.0-123.0", "trial": 5, "time_elapsed": 1030625, "serialpos": 4, "key_press": -1, "wordID": 294, "type": "PRES_VIS", "trial_index": 177}, "uniqueid": "MTK2234:3QEMNNSB2Y6CXZMQ6988QHEB9PMD78", "dateTime": 1516897681270}, {"current_trial": 178, "trialdata": {"rt": -1, "trial_type": "single-stim", "word": "pigment", "stimulus": "<p id=\"stim\">PIGMENT</p>", "conditions": [24, 800, "v", 24000], "internal_node_id": "0.0-124.0", "trial": 5, "time_elapsed": 1032529, "serialpos": 5, "key_press": -1, "wordID": 1065, "type": "PRES_VIS", "trial_index": 178}, "uniqueid": "MTK2234:3QEMNNSB2Y6CXZMQ6988QHEB9PMD78", "dateTime": 1516897683174}, {"current_trial": 179, "trialdata": {"rt": -1, "trial_type": "single-stim", "word": "item", "stimulus": "<p id=\"stim\">ITEM</p>", "conditions": [24, 800, "v", 24000], "internal_node_id": "0.0-125.0", "trial": 5, "time_elapsed": 1034363, "serialpos": 6, "key_press": -1, "wordID": 745, "type": "PRES_VIS", "trial_index": 179}, "uniqueid": "MTK2234:3QEMNNSB2Y6CXZMQ6988QHEB9PMD78", "dateTime": 1516897685008}, {"current_trial": 180, "trialdata": {"rt": -1, "trial_type": "single-stim", "word": "mailbox", "stimulus": "<p id=\"stim\">MAILBOX</p>", "conditions": [24, 800, "v", 24000], "internal_node_id": "0.0-126.0", "trial": 5, "time_elapsed": 1036144, "serialpos": 7, "key_press": -1, "wordID": 856, "type": "PRES_VIS", "trial_index": 180}, "uniqueid": "MTK2234:3QEMNNSB2Y6CXZMQ6988QHEB9PMD78", "dateTime": 1516897686789}, {"current_trial": 181, "trialdata": {"rt": -1, "trial_type": "single-stim", "word": "nightgown", "stimulus": "<p id=\"stim\">NIGHTGOWN</p>", "conditions": [24, 800, "v", 24000], "internal_node_id": "0.0-127.0", "trial": 5, "time_elapsed": 1037747, "serialpos": 8, "key_press": -1, "wordID": 952, "type": "PRES_VIS", "trial_index": 181}, "uniqueid": "MTK2234:3QEMNNSB2Y6CXZMQ6988QHEB9PMD78", "dateTime": 1516897688392}, {"current_trial": 182, "trialdata": {"rt": -1, "trial_type": "single-stim", "word": "church", "stimulus": "<p id=\"stim\">CHURCH</p>", "conditions": [24, 800, "v", 24000], "internal_node_id": "0.0-128.0", "trial": 5, "time_elapsed": 1039502, "serialpos": 9, "key_press": -1, "wordID": 306, "type": "PRES_VIS", "trial_index": 182}, "uniqueid": "MTK2234:3QEMNNSB2Y6CXZMQ6988QHEB9PMD78", "dateTime": 1516897690147}, {"current_trial": 183, "trialdata": {"rt": -1, "trial_type": "single-stim", "word": "chapel", "stimulus": "<p id=\"stim\">CHAPEL</p>", "conditions": [24, 800, "v", 24000], "internal_node_id": "0.0-129.0", "trial": 5, "time_elapsed": 1041132, "serialpos": 10, "key_press": -1, "wordID": 279, "type": "PRES_VIS", "trial_index": 183}, "uniqueid": "MTK2234:3QEMNNSB2Y6CXZMQ6988QHEB9PMD78", "dateTime": 1516897691777}, {"current_trial": 184, "trialdata": {"rt": -1, "trial_type": "single-stim", "word": "forehead", "stimulus": "<p id=\"stim\">FOREHEAD</p>", "conditions": [24, 800, "v", 24000], "internal_node_id": "0.0-130.0", "trial": 5, "time_elapsed": 1042789, "serialpos": 11, "key_press": -1, "wordID": 591, "type": "PRES_VIS", "trial_index": 184}, "uniqueid": "MTK2234:3QEMNNSB2Y6CXZMQ6988QHEB9PMD78", "dateTime": 1516897693435}, {"current_trial": 185, "trialdata": {"rt": -1, "trial_type": "single-stim", "word": "police", "stimulus": "<p id=\"stim\">POLICE</p>", "conditions": [24, 800, "v", 24000], "internal_node_id": "0.0-131.0", "trial": 5, "time_elapsed": 1044465, "serialpos": 12, "key_press": -1, "wordID": 1097, "type": "PRES_VIS", "trial_index": 185}, "uniqueid": "MTK2234:3QEMNNSB2Y6CXZMQ6988QHEB9PMD78", "dateTime": 1516897695110}, {"current_trial": 186, "trialdata": {"rt": -1, "trial_type": "single-stim", "word": "venus", "stimulus": "<p id=\"stim\">VENUS</p>", "conditions": [24, 800, "v", 24000], "internal_node_id": "0.0-132.0", "trial": 5, "time_elapsed": 1046140, "serialpos": 13, "key_press": -1, "wordID": 1556, "type": "PRES_VIS", "trial_index": 186}, "uniqueid": "MTK2234:3QEMNNSB2Y6CXZMQ6988QHEB9PMD78", "dateTime": 1516897696785}, {"current_trial": 187, "trialdata": {"rt": -1, "trial_type": "single-stim", "word": "rebel", "stimulus": "<p id=\"stim\">REBEL</p>", "conditions": [24, 800, "v", 24000], "internal_node_id": "0.0-133.0", "trial": 5, "time_elapsed": 1047771, "serialpos": 14, "key_press": -1, "wordID": 1171, "type": "PRES_VIS", "trial_index": 187}, "uniqueid": "MTK2234:3QEMNNSB2Y6CXZMQ6988QHEB9PMD78", "dateTime": 1516897698416}, {"current_trial": 188, "trialdata": {"rt": -1, "trial_type": "single-stim", "word": "hook", "stimulus": "<p id=\"stim\">HOOK</p>", "conditions": [24, 800, "v", 24000], "internal_node_id": "0.0-134.0", "trial": 5, "time_elapsed": 1049710, "serialpos": 15, "key_press": -1, "wordID": 714, "type": "PRES_VIS", "trial_index": 188}, "uniqueid": "MTK2234:3QEMNNSB2Y6CXZMQ6988QHEB9PMD78", "dateTime": 1516897700355}, {"current_trial": 189, "trialdata": {"rt": -1, "trial_type": "single-stim", "word": "switch", "stimulus": "<p id=\"stim\">SWITCH</p>", "conditions": [24, 800, "v", 24000], "internal_node_id": "0.0-135.0", "trial": 5, "time_elapsed": 1051315, "serialpos": 16, "key_press": -1, "wordID": 1421, "type": "PRES_VIS", "trial_index": 189}, "uniqueid": "MTK2234:3QEMNNSB2Y6CXZMQ6988QHEB9PMD78", "dateTime": 1516897701960}, {"current_trial": 190, "trialdata": {"rt": -1, "trial_type": "single-stim", "word": "shirt", "stimulus": "<p id=\"stim\">SHIRT</p>", "conditions": [24, 800, "v", 24000], "internal_node_id": "0.0-136.0", "trial": 5, "time_elapsed": 1053236, "serialpos": 17, "key_press": -1, "wordID": 1286, "type": "PRES_VIS", "trial_index": 190}, "uniqueid": "MTK2234:3QEMNNSB2Y6CXZMQ6988QHEB9PMD78", "dateTime": 1516897703881}, {"current_trial": 191, "trialdata": {"rt": -1, "trial_type": "single-stim", "word": "plaza", "stimulus": "<p id=\"stim\">PLAZA</p>", "conditions": [24, 800, "v", 24000], "internal_node_id": "0.0-137.0", "trial": 5, "time_elapsed": 1055044, "serialpos": 18, "key_press": -1, "wordID": 1087, "type": "PRES_VIS", "trial_index": 191}, "uniqueid": "MTK2234:3QEMNNSB2Y6CXZMQ6988QHEB9PMD78", "dateTime": 1516897705689}, {"current_trial": 192, "trialdata": {"rt": -1, "trial_type": "single-stim", "word": "guitar", "stimulus": "<p id=\"stim\">GUITAR</p>", "conditions": [24, 800, "v", 24000], "internal_node_id": "0.0-138.0", "trial": 5, "time_elapsed": 1056679, "serialpos": 19, "key_press": -1, "wordID": 669, "type": "PRES_VIS", "trial_index": 192}, "uniqueid": "MTK2234:3QEMNNSB2Y6CXZMQ6988QHEB9PMD78", "dateTime": 1516897707325}, {"current_trial": 193, "trialdata": {"rt": -1, "trial_type": "single-stim", "word": "harp", "stimulus": "<p id=\"stim\">HARP</p>", "conditions": [24, 800, "v", 24000], "internal_node_id": "0.0-139.0", "trial": 5, "time_elapsed": 1058512, "serialpos": 20, "key_press": -1, "wordID": 688, "type": "PRES_VIS", "trial_index": 193}, "uniqueid": "MTK2234:3QEMNNSB2Y6CXZMQ6988QHEB9PMD78", "dateTime": 1516897709157}, {"current_trial": 194, "trialdata": {"rt": -1, "trial_type": "single-stim", "word": "crib", "stimulus": "<p id=\"stim\">CRIB</p>", "conditions": [24, 800, "v", 24000], "internal_node_id": "0.0-140.0", "trial": 5, "time_elapsed": 1060488, "serialpos": 21, "key_press": -1, "wordID": 406, "type": "PRES_VIS", "trial_index": 194}, "uniqueid": "MTK2234:3QEMNNSB2Y6CXZMQ6988QHEB9PMD78", "dateTime": 1516897711133}, {"current_trial": 195, "trialdata": {"rt": -1, "trial_type": "single-stim", "word": "blouse", "stimulus": "<p id=\"stim\">BLOUSE</p>", "conditions": [24, 800, "v", 24000], "internal_node_id": "0.0-141.0", "trial": 5, "time_elapsed": 1062426, "serialpos": 22, "key_press": -1, "wordID": 138, "type": "PRES_VIS", "trial_index": 195}, "uniqueid": "MTK2234:3QEMNNSB2Y6CXZMQ6988QHEB9PMD78", "dateTime": 1516897713071}, {"current_trial": 196, "trialdata": {"rt": -1, "trial_type": "single-stim", "word": "space", "stimulus": "<p id=\"stim\">SPACE</p>", "conditions": [24, 800, "v", 24000], "internal_node_id": "0.0-142.0", "trial": 5, "time_elapsed": 1064125, "serialpos": 23, "key_press": -1, "wordID": 1344, "type": "PRES_VIS", "trial_index": 196}, "uniqueid": "MTK2234:3QEMNNSB2Y6CXZMQ6988QHEB9PMD78", "dateTime": 1516897714770}, {"current_trial": 197, "trialdata": {"rt": -1, "trial_type": "single-stim", "stimulus": "", "internal_node_id": "0.0-143.0-0.0", "time_elapsed": 1066493, "key_press": -1, "type": "PRE_RECALL_DELAY", "trial_index": 197}, "uniqueid": "MTK2234:3QEMNNSB2Y6CXZMQ6988QHEB9PMD78", "dateTime": 1516897717138}, {"current_trial": 198, "trialdata": {"rt": -1000, "trial_type": "single-audio", "stimulus": "/static/audio/400Hz.wav", "internal_node_id": "0.0-144.0", "time_elapsed": 1066994, "key_press": -1, "type": "PRE_RECALL_ALERT", "trial_index": 198}, "uniqueid": "MTK2234:3QEMNNSB2Y6CXZMQ6988QHEB9PMD78", "dateTime": 1516897717639}, {"current_trial": 199, "trialdata": {"rt": [3727, 6197, 8284, 10752, 14234, 17487, 21462, 24776, 27668, 30350, 33606, 36042], "recwords": ["space", "blouse", "crib", "shirt", "rebel", "police", "mustard", "pastory", "chapel", "church", "bullet", "chest"], "key_times": [1540, 1991, 2428, 2798, 3074, 3727, 4450, 4743, 4981, 5197, 5539, 5742, 6197, 6807, 7064, 7574, 7869, 8284, 9093, 9629, 9848, 10147, 10347, 10752, 11251, 11469, 11844, 12472, 12977, 13299, 13870, 14234, 15555, 15757, 15987, 16214, 16575, 16860, 17487, 19054, 19298, 19618, 19923, 20268, 20570, 20885, 21462, 21975, 22419, 22624, 23152, 23687, 24070, 24323, 24776, 25315, 25703, 26063, 26470, 26866, 27319, 27668, 28173, 28514, 28818, 29122, 29393, 29910, 30350, 31219, 31493, 31780, 31956, 32391, 32773, 33606, 34112, 34374, 34715, 34934, 35519, 36042], "trial_type": "free-recall", "conditions": [24, 800, "v", 24000], "internal_node_id": "0.0-145.0-0.0", "key_presses": [83, 80, 65, 67, 69, 13, 66, 76, 79, 85, 83, 69, 13, 67, 82, 73, 66, 13, 83, 72, 73, 82, 84, 13, 82, 69, 86, 8, 66, 69, 76, 13, 80, 79, 76, 73, 67, 69, 13, 77, 85, 83, 84, 65, 82, 68, 13, 80, 65, 83, 84, 79, 82, 89, 13, 67, 72, 65, 80, 69, 76, 13, 67, 72, 85, 82, 67, 72, 13, 66, 85, 76, 76, 69, 84, 13, 67, 72, 69, 83, 84, 13], "trial": 5, "time_elapsed": 1126998, "type": "FREE_RECALL", "trial_index": 199}, "uniqueid": "MTK2234:3QEMNNSB2Y6CXZMQ6988QHEB9PMD78", "dateTime": 1516897777646}, {"current_trial": 200, "trialdata": {"rt": 1452, "trial_type": "text", "internal_node_id": "0.0-146.0", "time_elapsed": 1130455, "key_press": 13, "type": "INSTRUCTIONS", "trial_index": 200}, "uniqueid": "MTK2234:3QEMNNSB2Y6CXZMQ6988QHEB9PMD78", "dateTime": 1516897781100}, {"current_trial": 201, "trialdata": {"rt": [8371], "trial_type": "math-distractor", "key_times": [7425, 7634, 8371, 11630], "responses": ["23"], "num2": [7, 3], "num3": [9, 9], "conditions": [24, 800, "v", 12000], "internal_node_id": "0.0-147.0", "key_presses": [50, 51, 13, 49], "trial": 6, "time_elapsed": 1144461, "type": "DISTRACTOR", "trial_index": 201, "num1": [7, 7]}, "uniqueid": "MTK2234:3QEMNNSB2Y6CXZMQ6988QHEB9PMD78", "dateTime": 1516897795107}, {"current_trial": 202, "trialdata": {"rt": -1, "trial_type": "single-stim", "stimulus": "<p id=\"stim\">10</p>", "internal_node_id": "0.0-148.0-0.0", "time_elapsed": 1147464, "key_press": -1, "trial_index": 202}, "uniqueid": "MTK2234:3QEMNNSB2Y6CXZMQ6988QHEB9PMD78", "dateTime": 1516897798109}, {"current_trial": 203, "trialdata": {"rt": -1, "trial_type": "single-stim", "stimulus": "<p id=\"stim\">9</p>", "internal_node_id": "0.0-148.0-1.0", "time_elapsed": 1148465, "key_press": -1, "trial_index": 203}, "uniqueid": "MTK2234:3QEMNNSB2Y6CXZMQ6988QHEB9PMD78", "dateTime": 1516897799111}, {"current_trial": 204, "trialdata": {"rt": -1, "trial_type": "single-stim", "stimulus": "<p id=\"stim\">8</p>", "internal_node_id": "0.0-148.0-2.0", "time_elapsed": 1149468, "key_press": -1, "trial_index": 204}, "uniqueid": "MTK2234:3QEMNNSB2Y6CXZMQ6988QHEB9PMD78", "dateTime": 1516897800113}, {"current_trial": 205, "trialdata": {"rt": -1, "trial_type": "single-stim", "stimulus": "<p id=\"stim\">7</p>", "internal_node_id": "0.0-148.0-3.0", "time_elapsed": 1150475, "key_press": -1, "trial_index": 205}, "uniqueid": "MTK2234:3QEMNNSB2Y6CXZMQ6988QHEB9PMD78", "dateTime": 1516897801120}, {"current_trial": 206, "trialdata": {"rt": -1, "trial_type": "single-stim", "stimulus": "<p id=\"stim\">6</p>", "internal_node_id": "0.0-148.0-4.0", "time_elapsed": 1151476, "key_press": -1, "trial_index": 206}, "uniqueid": "MTK2234:3QEMNNSB2Y6CXZMQ6988QHEB9PMD78", "dateTime": 1516897802122}, {"current_trial": 207, "trialdata": {"rt": -1, "trial_type": "single-stim", "stimulus": "<p id=\"stim\">5</p>", "internal_node_id": "0.0-148.0-5.0", "time_elapsed": 1152478, "key_press": -1, "trial_index": 207}, "uniqueid": "MTK2234:3QEMNNSB2Y6CXZMQ6988QHEB9PMD78", "dateTime": 1516897803123}, {"current_trial": 208, "trialdata": {"rt": -1, "trial_type": "single-stim", "stimulus": "<p id=\"stim\">4</p>", "internal_node_id": "0.0-148.0-6.0", "time_elapsed": 1153480, "key_press": -1, "trial_index": 208}, "uniqueid": "MTK2234:3QEMNNSB2Y6CXZMQ6988QHEB9PMD78", "dateTime": 1516897804125}, {"current_trial": 209, "trialdata": {"rt": -1, "trial_type": "single-stim", "stimulus": "<p id=\"stim\">3</p>", "internal_node_id": "0.0-148.0-7.0", "time_elapsed": 1154482, "key_press": -1, "trial_index": 209}, "uniqueid": "MTK2234:3QEMNNSB2Y6CXZMQ6988QHEB9PMD78", "dateTime": 1516897805127}, {"current_trial": 210, "trialdata": {"rt": -1, "trial_type": "single-stim", "stimulus": "<p id=\"stim\">2</p>", "internal_node_id": "0.0-148.0-8.0", "time_elapsed": 1155483, "key_press": -1, "trial_index": 210}, "uniqueid": "MTK2234:3QEMNNSB2Y6CXZMQ6988QHEB9PMD78", "dateTime": 1516897806128}, {"current_trial": 211, "trialdata": {"rt": -1, "trial_type": "single-stim", "stimulus": "<p id=\"stim\">1</p>", "internal_node_id": "0.0-148.0-9.0", "time_elapsed": 1156485, "key_press": -1, "trial_index": 211}, "uniqueid": "MTK2234:3QEMNNSB2Y6CXZMQ6988QHEB9PMD78", "dateTime": 1516897807130}, {"current_trial": 212, "trialdata": {"rt": -1, "trial_type": "single-stim", "stimulus": "<p id=\"stim\">+</p>", "internal_node_id": "0.0-149.0-0.0", "time_elapsed": 1157987, "key_press": -1, "type": "FIXATION", "trial_index": 212}, "uniqueid": "MTK2234:3QEMNNSB2Y6CXZMQ6988QHEB9PMD78", "dateTime": 1516897808632}, {"current_trial": 213, "trialdata": {"rt": -1, "trial_type": "single-stim", "word": "bison", "stimulus": "<p id=\"stim\">BISON</p>", "conditions": [24, 800, "v", 12000], "internal_node_id": "0.0-150.0", "trial": 6, "time_elapsed": 1158788, "serialpos": 0, "key_press": -1, "wordID": 130, "type": "PRES_VIS", "trial_index": 213}, "uniqueid": "MTK2234:3QEMNNSB2Y6CXZMQ6988QHEB9PMD78", "dateTime": 1516897809433}, {"current_trial": 214, "trialdata": {"rt": -1, "trial_type": "single-stim", "word": "hostess", "stimulus": "<p id=\"stim\">HOSTESS</p>", "conditions": [24, 800, "v", 12000], "internal_node_id": "0.0-151.0", "trial": 6, "time_elapsed": 1160423, "serialpos": 1, "key_press": -1, "wordID": 722, "type": "PRES_VIS", "trial_index": 214}, "uniqueid": "MTK2234:3QEMNNSB2Y6CXZMQ6988QHEB9PMD78", "dateTime": 1516897811069}, {"current_trial": 215, "trialdata": {"rt": -1, "trial_type": "single-stim", "word": "slope", "stimulus": "<p id=\"stim\">SLOPE</p>", "conditions": [24, 800, "v", 12000], "internal_node_id": "0.0-152.0", "trial": 6, "time_elapsed": 1162088, "serialpos": 2, "key_press": -1, "wordID": 1327, "type": "PRES_VIS", "trial_index": 215}, "uniqueid": "MTK2234:3QEMNNSB2Y6CXZMQ6988QHEB9PMD78", "dateTime": 1516897812733}, {"current_trial": 216, "trialdata": {"rt": -1, "trial_type": "single-stim", "word": "blockade", "stimulus": "<p id=\"stim\">BLOCKADE</p>", "conditions": [24, 800, "v", 12000], "internal_node_id": "0.0-153.0", "trial": 6, "time_elapsed": 1163981, "serialpos": 3, "key_press": -1, "wordID": 136, "type": "PRES_VIS", "trial_index": 216}, "uniqueid": "MTK2234:3QEMNNSB2Y6CXZMQ6988QHEB9PMD78", "dateTime": 1516897814626}, {"current_trial": 217, "trialdata": {"rt": -1, "trial_type": "single-stim", "word": "server", "stimulus": "<p id=\"stim\">SERVER</p>", "conditions": [24, 800, "v", 12000], "internal_node_id": "0.0-154.0", "trial": 6, "time_elapsed": 1165965, "serialpos": 4, "key_press": -1, "wordID": 1271, "type": "PRES_VIS", "trial_index": 217}, "uniqueid": "MTK2234:3QEMNNSB2Y6CXZMQ6988QHEB9PMD78", "dateTime": 1516897816610}, {"current_trial": 218, "trialdata": {"rt": -1, "trial_type": "single-stim", "word": "leader", "stimulus": "<p id=\"stim\">LEADER</p>", "conditions": [24, 800, "v", 12000], "internal_node_id": "0.0-155.0", "trial": 6, "time_elapsed": 1167669, "serialpos": 5, "key_press": -1, "wordID": 806, "type": "PRES_VIS", "trial_index": 218}, "uniqueid": "MTK2234:3QEMNNSB2Y6CXZMQ6988QHEB9PMD78", "dateTime": 1516897818315}, {"current_trial": 219, "trialdata": {"rt": -1, "trial_type": "single-stim", "word": "radish", "stimulus": "<p id=\"stim\">RADISH</p>", "conditions": [24, 800, "v", 12000], "internal_node_id": "0.0-156.0", "trial": 6, "time_elapsed": 1169362, "serialpos": 6, "key_press": -1, "wordID": 1157, "type": "PRES_VIS", "trial_index": 219}, "uniqueid": "MTK2234:3QEMNNSB2Y6CXZMQ6988QHEB9PMD78", "dateTime": 1516897820007}, {"current_trial": 220, "trialdata": {"rt": -1, "trial_type": "single-stim", "word": "turnip", "stimulus": "<p id=\"stim\">TURNIP</p>", "conditions": [24, 800, "v", 12000], "internal_node_id": "0.0-157.0", "trial": 6, "time_elapsed": 1171237, "serialpos": 7, "key_press": -1, "wordID": 1520, "type": "PRES_VIS", "trial_index": 220}, "uniqueid": "MTK2234:3QEMNNSB2Y6CXZMQ6988QHEB9PMD78", "dateTime": 1516897821882}, {"current_trial": 221, "trialdata": {"rt": -1, "trial_type": "single-stim", "word": "jury", "stimulus": "<p id=\"stim\">JURY</p>", "conditions": [24, 800, "v", 12000], "internal_node_id": "0.0-158.0", "trial": 6, "time_elapsed": 1173062, "serialpos": 8, "key_press": -1, "wordID": 765, "type": "PRES_VIS", "trial_index": 221}, "uniqueid": "MTK2234:3QEMNNSB2Y6CXZMQ6988QHEB9PMD78", "dateTime": 1516897823707}, {"current_trial": 222, "trialdata": {"rt": -1, "trial_type": "single-stim", "word": "cattle", "stimulus": "<p id=\"stim\">CATTLE</p>", "conditions": [24, 800, "v", 12000], "internal_node_id": "0.0-159.0", "trial": 6, "time_elapsed": 1174700, "serialpos": 9, "key_press": -1, "wordID": 260, "type": "PRES_VIS", "trial_index": 222}, "uniqueid": "MTK2234:3QEMNNSB2Y6CXZMQ6988QHEB9PMD78", "dateTime": 1516897825346}, {"current_trial": 223, "trialdata": {"rt": -1, "trial_type": "single-stim", "word": "barrel", "stimulus": "<p id=\"stim\">BARREL</p>", "conditions": [24, 800, "v", 12000], "internal_node_id": "0.0-160.0", "trial": 6, "time_elapsed": 1176461, "serialpos": 10, "key_press": -1, "wordID": 90, "type": "PRES_VIS", "trial_index": 223}, "uniqueid": "MTK2234:3QEMNNSB2Y6CXZMQ6988QHEB9PMD78", "dateTime": 1516897827106}, {"current_trial": 224, "trialdata": {"rt": -1, "trial_type": "single-stim", "word": "brandy", "stimulus": "<p id=\"stim\">BRANDY</p>", "conditions": [24, 800, "v", 12000], "internal_node_id": "0.0-161.0", "trial": 6, "time_elapsed": 1178248, "serialpos": 11, "key_press": -1, "wordID": 168, "type": "PRES_VIS", "trial_index": 224}, "uniqueid": "MTK2234:3QEMNNSB2Y6CXZMQ6988QHEB9PMD78", "dateTime": 1516897828893}, {"current_trial": 225, "trialdata": {"rt": -1, "trial_type": "single-stim", "word": "canal", "stimulus": "<p id=\"stim\">CANAL</p>", "conditions": [24, 800, "v", 12000], "internal_node_id": "0.0-162.0", "trial": 6, "time_elapsed": 1180005, "serialpos": 12, "key_press": -1, "wordID": 225, "type": "PRES_VIS", "trial_index": 225}, "uniqueid": "MTK2234:3QEMNNSB2Y6CXZMQ6988QHEB9PMD78", "dateTime": 1516897830650}, {"current_trial": 226, "trialdata": {"rt": -1, "trial_type": "single-stim", "word": "lake", "stimulus": "<p id=\"stim\">LAKE</p>", "conditions": [24, 800, "v", 12000], "internal_node_id": "0.0-163.0", "trial": 6, "time_elapsed": 1181664, "serialpos": 13, "key_press": -1, "wordID": 795, "type": "PRES_VIS", "trial_index": 226}, "uniqueid": "MTK2234:3QEMNNSB2Y6CXZMQ6988QHEB9PMD78", "dateTime": 1516897832309}, {"current_trial": 227, "trialdata": {"rt": -1, "trial_type": "single-stim", "word": "lamp", "stimulus": "<p id=\"stim\">LAMP</p>", "conditions": [24, 800, "v", 12000], "internal_node_id": "0.0-164.0", "trial": 6, "time_elapsed": 1183422, "serialpos": 14, "key_press": -1, "wordID": 797, "type": "PRES_VIS", "trial_index": 227}, "uniqueid": "MTK2234:3QEMNNSB2Y6CXZMQ6988QHEB9PMD78", "dateTime": 1516897834067}, {"current_trial": 228, "trialdata": {"rt": 437, "trial_type": "single-stim", "word": "velvet", "stimulus": "<p id=\"stim\">VELVET</p>", "conditions": [24, 800, "v", 12000], "internal_node_id": "0.0-165.0", "trial": 6, "time_elapsed": 1185204, "serialpos": 15, "key_press": 175, "wordID": 1554, "type": "PRES_VIS", "trial_index": 228}, "uniqueid": "MTK2234:3QEMNNSB2Y6CXZMQ6988QHEB9PMD78", "dateTime": 1516897835850}, {"current_trial": 229, "trialdata": {"rt": -1, "trial_type": "single-stim", "word": "dorm", "stimulus": "<p id=\"stim\">DORM</p>", "conditions": [24, 800, "v", 12000], "internal_node_id": "0.0-166.0", "trial": 6, "time_elapsed": 1186825, "serialpos": 16, "key_press": -1, "wordID": 487, "type": "PRES_VIS", "trial_index": 229}, "uniqueid": "MTK2234:3QEMNNSB2Y6CXZMQ6988QHEB9PMD78", "dateTime": 1516897837470}, {"current_trial": 230, "trialdata": {"rt": -1, "trial_type": "single-stim", "word": "ghetto", "stimulus": "<p id=\"stim\">GHETTO</p>", "conditions": [24, 800, "v", 12000], "internal_node_id": "0.0-167.0", "trial": 6, "time_elapsed": 1188443, "serialpos": 17, "key_press": -1, "wordID": 632, "type": "PRES_VIS", "trial_index": 230}, "uniqueid": "MTK2234:3QEMNNSB2Y6CXZMQ6988QHEB9PMD78", "dateTime": 1516897839088}, {"current_trial": 231, "trialdata": {"rt": -1, "trial_type": "single-stim", "word": "sandwich", "stimulus": "<p id=\"stim\">SANDWICH</p>", "conditions": [24, 800, "v", 12000], "internal_node_id": "0.0-168.0", "trial": 6, "time_elapsed": 1190082, "serialpos": 18, "key_press": -1, "wordID": 1231, "type": "PRES_VIS", "trial_index": 231}, "uniqueid": "MTK2234:3QEMNNSB2Y6CXZMQ6988QHEB9PMD78", "dateTime": 1516897840727}, {"current_trial": 232, "trialdata": {"rt": -1, "trial_type": "single-stim", "word": "spool", "stimulus": "<p id=\"stim\">SPOOL</p>", "conditions": [24, 800, "v", 12000], "internal_node_id": "0.0-169.0", "trial": 6, "time_elapsed": 1191693, "serialpos": 19, "key_press": -1, "wordID": 1355, "type": "PRES_VIS", "trial_index": 232}, "uniqueid": "MTK2234:3QEMNNSB2Y6CXZMQ6988QHEB9PMD78", "dateTime": 1516897842338}, {"current_trial": 233, "trialdata": {"rt": -1, "trial_type": "single-stim", "word": "missile", "stimulus": "<p id=\"stim\">MISSILE</p>", "conditions": [24, 800, "v", 12000], "internal_node_id": "0.0-170.0", "trial": 6, "time_elapsed": 1193447, "serialpos": 20, "key_press": -1, "wordID": 899, "type": "PRES_VIS", "trial_index": 233}, "uniqueid": "MTK2234:3QEMNNSB2Y6CXZMQ6988QHEB9PMD78", "dateTime": 1516897844092}, {"current_trial": 234, "trialdata": {"rt": -1, "trial_type": "single-stim", "word": "sausage", "stimulus": "<p id=\"stim\">SAUSAGE</p>", "conditions": [24, 800, "v", 12000], "internal_node_id": "0.0-171.0", "trial": 6, "time_elapsed": 1195165, "serialpos": 21, "key_press": -1, "wordID": 1237, "type": "PRES_VIS", "trial_index": 234}, "uniqueid": "MTK2234:3QEMNNSB2Y6CXZMQ6988QHEB9PMD78", "dateTime": 1516897845810}, {"current_trial": 235, "trialdata": {"rt": -1, "trial_type": "single-stim", "word": "coin", "stimulus": "<p id=\"stim\">COIN</p>", "conditions": [24, 800, "v", 12000], "internal_node_id": "0.0-172.0", "trial": 6, "time_elapsed": 1196899, "serialpos": 22, "key_press": -1, "wordID": 342, "type": "PRES_VIS", "trial_index": 235}, "uniqueid": "MTK2234:3QEMNNSB2Y6CXZMQ6988QHEB9PMD78", "dateTime": 1516897847544}, {"current_trial": 236, "trialdata": {"rt": -1, "trial_type": "single-stim", "word": "highway", "stimulus": "<p id=\"stim\">HIGHWAY</p>", "conditions": [24, 800, "v", 12000], "internal_node_id": "0.0-173.0", "trial": 6, "time_elapsed": 1198845, "serialpos": 23, "key_press": -1, "wordID": 706, "type": "PRES_VIS", "trial_index": 236}, "uniqueid": "MTK2234:3QEMNNSB2Y6CXZMQ6988QHEB9PMD78", "dateTime": 1516897849490}, {"current_trial": 237, "trialdata": {"rt": -1, "trial_type": "single-stim", "stimulus": "", "internal_node_id": "0.0-174.0-0.0", "time_elapsed": 1201323, "key_press": -1, "type": "PRE_RECALL_DELAY", "trial_index": 237}, "uniqueid": "MTK2234:3QEMNNSB2Y6CXZMQ6988QHEB9PMD78", "dateTime": 1516897851968}, {"current_trial": 238, "trialdata": {"rt": -1000, "trial_type": "single-audio", "stimulus": "/static/audio/400Hz.wav", "internal_node_id": "0.0-175.0", "time_elapsed": 1201825, "key_press": -1, "type": "PRE_RECALL_ALERT", "trial_index": 238}, "uniqueid": "MTK2234:3QEMNNSB2Y6CXZMQ6988QHEB9PMD78", "dateTime": 1516897852470}, {"current_trial": 239, "trialdata": {"rt": [3423, 5289, 9764, 13357, 18075, 20382, 26984, 50851], "recwords": ["highway", "coin", "rasdish", "turnip", "cattle", "bison", "highway", "spool"], "key_times": [1052, 1258, 1525, 1743, 2067, 2288, 2753, 3423, 3941, 4292, 4494, 4782, 5289, 6172, 6523, 6863, 8036, 8382, 8848, 9383, 9764, 10229, 10470, 10791, 11299, 12178, 12605, 13357, 15703, 16035, 16517, 16675, 17186, 17555, 18075, 18543, 18839, 19229, 19600, 19943, 20382, 23227, 23442, 23688, 24036, 24803, 25295, 25654, 25885, 26347, 26984, 49086, 49594, 49930, 50101, 50283, 50851, 53118, 53376, 53767, 55423, 55968, 56671, 56859, 59339, 59539, 59715, 59869], "trial_type": "free-recall", "conditions": [24, 800, "v", 12000], "internal_node_id": "0.0-176.0-0.0", "key_presses": [72, 73, 71, 72, 87, 65, 89, 13, 67, 79, 73, 78, 13, 82, 65, 83, 68, 73, 83, 72, 13, 84, 85, 82, 78, 73, 80, 13, 67, 65, 84, 84, 76, 69, 13, 66, 73, 83, 79, 78, 13, 72, 73, 71, 87, 8, 72, 87, 65, 89, 13, 83, 80, 79, 79, 76, 13, 77, 73, 83, 86, 73, 8, 8, 8, 8, 8, 8], "trial": 6, "time_elapsed": 1261828, "type": "FREE_RECALL", "trial_index": 239}, "uniqueid": "MTK2234:3QEMNNSB2Y6CXZMQ6988QHEB9PMD78", "dateTime": 1516897912478}, {"current_trial": 240, "trialdata": {"rt": 486012, "trial_type": "text", "internal_node_id": "0.0-177.0", "time_elapsed": 1749847, "key_press": 13, "type": "INSTRUCTIONS", "trial_index": 240}, "uniqueid": "MTK2234:3QEMNNSB2Y6CXZMQ6988QHEB9PMD78", "dateTime": 1516898400492}, {"current_trial": 241, "trialdata": {"rt": [3652, 10648], "trial_type": "math-distractor", "key_times": [2230, 2765, 3652, 9788, 10179, 10648], "responses": ["17", "24"], "num2": [7, 8, 9], "num3": [5, 9, 8], "conditions": [12, 1600, "v", 12000], "internal_node_id": "0.0-178.0", "key_presses": [49, 55, 13, 50, 52, 13], "trial": 7, "time_elapsed": 1763852, "type": "DISTRACTOR", "trial_index": 241, "num1": [5, 7, 2]}, "uniqueid": "MTK2234:3QEMNNSB2Y6CXZMQ6988QHEB9PMD78", "dateTime": 1516898414497}, {"current_trial": 242, "trialdata": {"rt": -1, "trial_type": "single-stim", "stimulus": "<p id=\"stim\">10</p>", "internal_node_id": "0.0-179.0-0.0", "time_elapsed": 1766854, "key_press": -1, "trial_index": 242}, "uniqueid": "MTK2234:3QEMNNSB2Y6CXZMQ6988QHEB9PMD78", "dateTime": 1516898417499}, {"current_trial": 243, "trialdata": {"rt": -1, "trial_type": "single-stim", "stimulus": "<p id=\"stim\">9</p>", "internal_node_id": "0.0-179.0-1.0", "time_elapsed": 1767855, "key_press": -1, "trial_index": 243}, "uniqueid": "MTK2234:3QEMNNSB2Y6CXZMQ6988QHEB9PMD78", "dateTime": 1516898418501}, {"current_trial": 244, "trialdata": {"rt": -1, "trial_type": "single-stim", "stimulus": "<p id=\"stim\">8</p>", "internal_node_id": "0.0-179.0-2.0", "time_elapsed": 1768857, "key_press": -1, "trial_index": 244}, "uniqueid": "MTK2234:3QEMNNSB2Y6CXZMQ6988QHEB9PMD78", "dateTime": 1516898419502}, {"current_trial": 245, "trialdata": {"rt": -1, "trial_type": "single-stim", "stimulus": "<p id=\"stim\">7</p>", "internal_node_id": "0.0-179.0-3.0", "time_elapsed": 1769859, "key_press": -1, "trial_index": 245}, "uniqueid": "MTK2234:3QEMNNSB2Y6CXZMQ6988QHEB9PMD78", "dateTime": 1516898420505}, {"current_trial": 246, "trialdata": {"rt": -1, "trial_type": "single-stim", "stimulus": "<p id=\"stim\">6</p>", "internal_node_id": "0.0-179.0-4.0", "time_elapsed": 1770861, "key_press": -1, "trial_index": 246}, "uniqueid": "MTK2234:3QEMNNSB2Y6CXZMQ6988QHEB9PMD78", "dateTime": 1516898421506}, {"current_trial": 247, "trialdata": {"rt": -1, "trial_type": "single-stim", "stimulus": "<p id=\"stim\">5</p>", "internal_node_id": "0.0-179.0-5.0", "time_elapsed": 1771863, "key_press": -1, "trial_index": 247}, "uniqueid": "MTK2234:3QEMNNSB2Y6CXZMQ6988QHEB9PMD78", "dateTime": 1516898422508}, {"current_trial": 248, "trialdata": {"rt": -1, "trial_type": "single-stim", "stimulus": "<p id=\"stim\">4</p>", "internal_node_id": "0.0-179.0-6.0", "time_elapsed": 1772865, "key_press": -1, "trial_index": 248}, "uniqueid": "MTK2234:3QEMNNSB2Y6CXZMQ6988QHEB9PMD78", "dateTime": 1516898423510}, {"current_trial": 249, "trialdata": {"rt": -1, "trial_type": "single-stim", "stimulus": "<p id=\"stim\">3</p>", "internal_node_id": "0.0-179.0-7.0", "time_elapsed": 1773866, "key_press": -1, "trial_index": 249}, "uniqueid": "MTK2234:3QEMNNSB2Y6CXZMQ6988QHEB9PMD78", "dateTime": 1516898424514}, {"current_trial": 250, "trialdata": {"rt": -1, "trial_type": "single-stim", "stimulus": "<p id=\"stim\">2</p>", "internal_node_id": "0.0-179.0-8.0", "time_elapsed": 1774870, "key_press": -1, "trial_index": 250}, "uniqueid": "MTK2234:3QEMNNSB2Y6CXZMQ6988QHEB9PMD78", "dateTime": 1516898425515}, {"current_trial": 251, "trialdata": {"rt": -1, "trial_type": "single-stim", "stimulus": "<p id=\"stim\">1</p>", "internal_node_id": "0.0-179.0-9.0", "time_elapsed": 1775872, "key_press": -1, "trial_index": 251}, "uniqueid": "MTK2234:3QEMNNSB2Y6CXZMQ6988QHEB9PMD78", "dateTime": 1516898426517}, {"current_trial": 252, "trialdata": {"rt": -1, "trial_type": "single-stim", "stimulus": "<p id=\"stim\">+</p>", "internal_node_id": "0.0-180.0-0.0", "time_elapsed": 1777374, "key_press": -1, "type": "FIXATION", "trial_index": 252}, "uniqueid": "MTK2234:3QEMNNSB2Y6CXZMQ6988QHEB9PMD78", "dateTime": 1516898428019}, {"current_trial": 253, "trialdata": {"rt": -1, "trial_type": "single-stim", "word": "patient", "stimulus": "<p id=\"stim\">PATIENT</p>", "conditions": [12, 1600, "v", 12000], "internal_node_id": "0.0-181.0", "trial": 7, "time_elapsed": 1778976, "serialpos": 0, "key_press": -1, "wordID": 1023, "type": "PRES_VIS", "trial_index": 253}, "uniqueid": "MTK2234:3QEMNNSB2Y6CXZMQ6988QHEB9PMD78", "dateTime": 1516898429621}, {"current_trial": 254, "trialdata": {"rt": -1, "trial_type": "single-stim", "word": "fragrance", "stimulus": "<p id=\"stim\">FRAGRANCE</p>", "conditions": [12, 1600, "v", 12000], "internal_node_id": "0.0-182.0", "trial": 7, "time_elapsed": 1781687, "serialpos": 1, "key_press": -1, "wordID": 598, "type": "PRES_VIS", "trial_index": 254}, "uniqueid": "MTK2234:3QEMNNSB2Y6CXZMQ6988QHEB9PMD78", "dateTime": 1516898432332}, {"current_trial": 255, "trialdata": {"rt": -1, "trial_t