{"assignmentId": "3OB0CAO74IWCOZNTFEHYUFD65VVHYN", "workerId": "MTK2474", "questiondata": {"origin": "United States", "strat-rehearsal": "50", "marital": "Single", "education": "Some college", "ethnicity": "Not Hispanic", "color_depth": 24, "distracted": "No", "wrote-notes": "Yes", "strat-other": "", "screen_width": 1280, "avail_screen_width": 1280, "avail_screen_height": 984, "strat-image": "10", "language": "English", "gender": "Female", "age": "31", "gender_other": "", "race": ["White"], "strat-categorize": "75", "pixel_depth": 24, "strat-spatial": "12", "strat-story": "25", "race_other": "", "screen_height": 1024}, "bonus": 0, "hitId": "31SIZS5W59MEH7CGU77W6DGQAS4RQJ", "counterbalance": 163, "useragent": "Mozilla/5.0 (Windows NT 6.1; Win64; x64) AppleWebKit/537.36 (KHTML, like Gecko) Chrome/63.0.3239.132 Safari/537.36", "eventdata": [{"eventtype": "initialized", "interval": 0, "value": null, "timestamp": 1517271309946}, {"eventtype": "window_resize", "interval": 0, "value": [1280, 978], "timestamp": 1517271309946}, {"eventtype": "focus", "interval": 70445, "value": "off", "timestamp": 1517271380391}, {"eventtype": "focus", "interval": 16206, "value": "on", "timestamp": 1517271396597}, {"eventtype": "focus", "interval": 57486, "value": "off", "timestamp": 1517271454083}, {"eventtype": "focus", "interval": 6914, "value": "on", "timestamp": 1517271460997}, {"eventtype": "focus", "interval": 1215888, "value": "off", "timestamp": 1517272676885}, {"eventtype": "focus", "interval": 5969, "value": "on", "timestamp": 1517272682854}, {"eventtype": "focus", "interval": 668040, "value": "off", "timestamp": 1517273350894}, {"eventtype": "focus", "interval": 2616, "value": "on", "timestamp": 1517273353510}, {"eventtype": "focus", "interval": 150191, "value": "off", "timestamp": 1517273503701}, {"eventtype": "focus", "interval": 2398, "value": "on", "timestamp": 1517273506099}, {"eventtype": "focus", "interval": 2780, "value": "off", "timestamp": 1517273508879}, {"eventtype": "focus", "interval": 2584, "value": "on", "timestamp": 1517273511463}, {"eventtype": "focus", "interval": 67897, "value": "off", "timestamp": 1517273579360}, {"eventtype": "focus", "interval": 4140, "value": "on", "timestamp": 1517273583500}, {"eventtype": "focus", "interval": 12307, "value": "off", "timestamp": 1517273595807}, {"eventtype": "focus", "interval": 730, "value": "on", "timestamp": 1517273596537}, {"eventtype": "focus", "interval": 141125, "value": "off", "timestamp": 1517273737662}, {"eventtype": "focus", "interval": 2481, "value": "on", "timestamp": 1517273740143}, {"eventtype": "window_resize", "interval": 151700, "value": [1280, 934], "timestamp": 1517273891843}, {"eventtype": "window_resize", "interval": 824, "value": [1280, 978], "timestamp": 1517273892667}, {"eventtype": "focus", "interval": 39753, "value": "off", "timestamp": 1517273932420}, {"eventtype": "focus", "interval": 7478, "value": "on", "timestamp": 1517273939898}, {"eventtype": "focus", "interval": 312831, "value": "off", "timestamp": 1517274252729}, {"eventtype": "focus", "interval": 2827, "value": "on", "timestamp": 1517274255556}], "data": [{"current_trial": 0, "trialdata": {"rt": 2694, "trial_type": "text", "internal_node_id": "0.0-0.0", "time_elapsed": 2696, "key_press": 13, "type": "INSTRUCTIONS", "trial_index": 0}, "uniqueid": "MTK2474:3OB0CAO74IWCOZNTFEHYUFD65VVHYN", "dateTime": 1517271335730}, {"current_trial": 1, "trialdata": {"rt": 62393, "trial_type": "text", "internal_node_id": "0.0-1.0", "time_elapsed": 65095, "key_press": 13, "type": "INSTRUCTIONS", "trial_index": 1}, "uniqueid": "MTK2474:3OB0CAO74IWCOZNTFEHYUFD65VVHYN", "dateTime": 1517271398127}, {"current_trial": 2, "trialdata": {"rt": [4344], "trial_type": "audio-test", "responses": ["ocean"], "internal_node_id": "0.0-2.0", "time_elapsed": 69462, "type": "AUDIO_TEST", "trial_index": 2}, "uniqueid": "MTK2474:3OB0CAO74IWCOZNTFEHYUFD65VVHYN", "dateTime": 1517271402494}, {"current_trial": 3, "trialdata": {"rt": [6446], "trial_type": "audio-test", "responses": ["crystal"], "internal_node_id": "0.0-3.0", "time_elapsed": 75917, "type": "AUDIO_TEST", "trial_index": 3}, "uniqueid": "MTK2474:3OB0CAO74IWCOZNTFEHYUFD65VVHYN", "dateTime": 1517271408949}, {"current_trial": 4, "trialdata": {"rt": [6968], "trial_type": "audio-test", "responses": ["spice"], "internal_node_id": "0.0-4.0", "time_elapsed": 82892, "type": "AUDIO_TEST", "trial_index": 4}, "uniqueid": "MTK2474:3OB0CAO74IWCOZNTFEHYUFD65VVHYN", "dateTime": 1517271415925}, {"current_trial": 5, "trialdata": {"rt": 25998, "trial_type": "survey-text", "responses": "{\"Q0\":\"11:30\",\"Q1\":\"6:45\",\"Q2\":\"5\"}", "internal_node_id": "0.0-5.0", "time_elapsed": 109645, "type": "SLEEP_SURVEY", "trial_index": 5}, "uniqueid": "MTK2474:3OB0CAO74IWCOZNTFEHYUFD65VVHYN", "dateTime": 1517271442677}, {"current_trial": 6, "trialdata": {"rt": 61235, "trial_type": "text", "internal_node_id": "0.0-6.0", "time_elapsed": 171882, "key_press": 13, "type": "INSTRUCTIONS", "trial_index": 6}, "uniqueid": "MTK2474:3OB0CAO74IWCOZNTFEHYUFD65VVHYN", "dateTime": 1517271504914}, {"current_trial": 7, "trialdata": {"rt": 24462, "trial_type": "text", "internal_node_id": "0.0-7.0", "time_elapsed": 196845, "key_press": 13, "type": "INSTRUCTIONS", "trial_index": 7}, "uniqueid": "MTK2474:3OB0CAO74IWCOZNTFEHYUFD65VVHYN", "dateTime": 1517271529877}, {"current_trial": 8, "trialdata": {"rt": 7688, "trial_type": "text", "internal_node_id": "0.0-8.0", "time_elapsed": 205035, "key_press": 13, "type": "INSTRUCTIONS", "trial_index": 8}, "uniqueid": "MTK2474:3OB0CAO74IWCOZNTFEHYUFD65VVHYN", "dateTime": 1517271538067}, {"current_trial": 9, "trialdata": {"rt": [6090, 8562, 11202, 13850, 16666], "trial_type": "math-distractor", "key_times": [4890, 4938, 6090, 8139, 8227, 8562, 10778, 10938, 11202, 13402, 13586, 13850, 16234, 16418, 16666], "responses": ["10", "15", "18", "24", "17"], "num2": [1, 8, 8, 7, 4, 1], "num3": [7, 5, 7, 9, 9, 5], "conditions": [18, 1200, "a", 18000], "internal_node_id": "0.0-9.0", "key_presses": [97, 96, 13, 97, 101, 13, 97, 104, 13, 98, 100, 13, 97, 103, 13], "trial": 0, "time_elapsed": 224042, "type": "DISTRACTOR", "trial_index": 9, "num1": [9, 2, 3, 8, 4, 1]}, "uniqueid": "MTK2474:3OB0CAO74IWCOZNTFEHYUFD65VVHYN", "dateTime": 1517271557074}, {"current_trial": 10, "trialdata": {"rt": -1, "trial_type": "single-stim", "stimulus": "<p id=\"stim\">10</p>", "internal_node_id": "0.0-10.0-0.0", "time_elapsed": 227047, "key_press": -1, "trial_index": 10}, "uniqueid": "MTK2474:3OB0CAO74IWCOZNTFEHYUFD65VVHYN", "dateTime": 1517271560079}, {"current_trial": 11, "trialdata": {"rt": -1, "trial_type": "single-stim", "stimulus": "<p id=\"stim\">9</p>", "internal_node_id": "0.0-10.0-1.0", "time_elapsed": 228049, "key_press": -1, "trial_index": 11}, "uniqueid": "MTK2474:3OB0CAO74IWCOZNTFEHYUFD65VVHYN", "dateTime": 1517271561081}, {"current_trial": 12, "trialdata": {"rt": -1, "trial_type": "single-stim", "stimulus": "<p id=\"stim\">8</p>", "internal_node_id": "0.0-10.0-2.0", "time_elapsed": 229050, "key_press": -1, "trial_index": 12}, "uniqueid": "MTK2474:3OB0CAO74IWCOZNTFEHYUFD65VVHYN", "dateTime": 1517271562083}, {"current_trial": 13, "trialdata": {"rt": -1, "trial_type": "single-stim", "stimulus": "<p id=\"stim\">7</p>", "internal_node_id": "0.0-10.0-3.0", "time_elapsed": 230054, "key_press": -1, "trial_index": 13}, "uniqueid": "MTK2474:3OB0CAO74IWCOZNTFEHYUFD65VVHYN", "dateTime": 1517271563086}, {"current_trial": 14, "trialdata": {"rt": -1, "trial_type": "single-stim", "stimulus": "<p id=\"stim\">6</p>", "internal_node_id": "0.0-10.0-4.0", "time_elapsed": 231055, "key_press": -1, "trial_index": 14}, "uniqueid": "MTK2474:3OB0CAO74IWCOZNTFEHYUFD65VVHYN", "dateTime": 1517271564087}, {"current_trial": 15, "trialdata": {"rt": -1, "trial_type": "single-stim", "stimulus": "<p id=\"stim\">5</p>", "internal_node_id": "0.0-10.0-5.0", "time_elapsed": 232056, "key_press": -1, "trial_index": 15}, "uniqueid": "MTK2474:3OB0CAO74IWCOZNTFEHYUFD65VVHYN", "dateTime": 1517271565088}, {"current_trial": 16, "trialdata": {"rt": -1, "trial_type": "single-stim", "stimulus": "<p id=\"stim\">4</p>", "internal_node_id": "0.0-10.0-6.0", "time_elapsed": 233058, "key_press": -1, "trial_index": 16}, "uniqueid": "MTK2474:3OB0CAO74IWCOZNTFEHYUFD65VVHYN", "dateTime": 1517271566090}, {"current_trial": 17, "trialdata": {"rt": -1, "trial_type": "single-stim", "stimulus": "<p id=\"stim\">3</p>", "internal_node_id": "0.0-10.0-7.0", "time_elapsed": 234060, "key_press": -1, "trial_index": 17}, "uniqueid": "MTK2474:3OB0CAO74IWCOZNTFEHYUFD65VVHYN", "dateTime": 1517271567092}, {"current_trial": 18, "trialdata": {"rt": -1, "trial_type": "single-stim", "stimulus": "<p id=\"stim\">2</p>", "internal_node_id": "0.0-10.0-8.0", "time_elapsed": 235062, "key_press": -1, "trial_index": 18}, "uniqueid": "MTK2474:3OB0CAO74IWCOZNTFEHYUFD65VVHYN", "dateTime": 1517271568094}, {"current_trial": 19, "trialdata": {"rt": -1, "trial_type": "single-stim", "stimulus": "<p id=\"stim\">1</p>", "internal_node_id": "0.0-10.0-9.0", "time_elapsed": 236064, "key_press": -1, "trial_index": 19}, "uniqueid": "MTK2474:3OB0CAO74IWCOZNTFEHYUFD65VVHYN", "dateTime": 1517271569097}, {"current_trial": 20, "trialdata": {"rt": -1, "trial_type": "single-stim", "stimulus": "<p id=\"stim\">+</p>", "internal_node_id": "0.0-11.0-0.0", "time_elapsed": 237566, "key_press": -1, "type": "FIXATION", "trial_index": 20}, "uniqueid": "MTK2474:3OB0CAO74IWCOZNTFEHYUFD65VVHYN", "dateTime": 1517271570599}, {"current_trial": 21, "trialdata": {"rt": -1000, "trial_type": "single-audio", "word": "robin", "stimulus": "/static/audio/wordpool/ROBIN.wav", "conditions": [18, 1200, "a", 18000], "internal_node_id": "0.0-12.0", "trial": 0, "time_elapsed": 239630, "serialpos": 0, "key_press": -1, "wordID": 1198, "type": "PRES_AUD", "trial_index": 21}, "uniqueid": "MTK2474:3OB0CAO74IWCOZNTFEHYUFD65VVHYN", "dateTime": 1517271572662}, {"current_trial": 22, "trialdata": {"rt": -1000, "trial_type": "single-audio", "word": "ground", "stimulus": "/static/audio/wordpool/GROUND.wav", "conditions": [18, 1200, "a", 18000], "internal_node_id": "0.0-13.0", "trial": 0, "time_elapsed": 241656, "serialpos": 1, "key_press": -1, "wordID": 665, "type": "PRES_AUD", "trial_index": 22}, "uniqueid": "MTK2474:3OB0CAO74IWCOZNTFEHYUFD65VVHYN", "dateTime": 1517271574689}, {"current_trial": 23, "trialdata": {"rt": -1000, "trial_type": "single-audio", "word": "contract", "stimulus": "/static/audio/wordpool/CONTRACT.wav", "conditions": [18, 1200, "a", 18000], "internal_node_id": "0.0-14.0", "trial": 0, "time_elapsed": 243679, "serialpos": 2, "key_press": -1, "wordID": 367, "type": "PRES_AUD", "trial_index": 23}, "uniqueid": "MTK2474:3OB0CAO74IWCOZNTFEHYUFD65VVHYN", "dateTime": 1517271576711}, {"current_trial": 24, "trialdata": {"rt": -1000, "trial_type": "single-audio", "word": "banquet", "stimulus": "/static/audio/wordpool/BANQUET.wav", "conditions": [18, 1200, "a", 18000], "internal_node_id": "0.0-15.0", "trial": 0, "time_elapsed": 246034, "serialpos": 3, "key_press": -1, "wordID": 85, "type": "PRES_AUD", "trial_index": 24}, "uniqueid": "MTK2474:3OB0CAO74IWCOZNTFEHYUFD65VVHYN", "dateTime": 1517271579066}, {"current_trial": 25, "trialdata": {"rt": -1000, "trial_type": "single-audio", "word": "mustard", "stimulus": "/static/audio/wordpool/MUSTARD.wav", "conditions": [18, 1200, "a", 18000], "internal_node_id": "0.0-16.0", "trial": 0, "time_elapsed": 248426, "serialpos": 4, "key_press": -1, "wordID": 934, "type": "PRES_AUD", "trial_index": 25}, "uniqueid": "MTK2474:3OB0CAO74IWCOZNTFEHYUFD65VVHYN", "dateTime": 1517271581458}, {"current_trial": 26, "trialdata": {"rt": -1000, "trial_type": "single-audio", "word": "creature", "stimulus": "/static/audio/wordpool/CREATURE.wav", "conditions": [18, 1200, "a", 18000], "internal_node_id": "0.0-17.0", "trial": 0, "time_elapsed": 250761, "serialpos": 5, "key_press": -1, "wordID": 402, "type": "PRES_AUD", "trial_index": 26}, "uniqueid": "MTK2474:3OB0CAO74IWCOZNTFEHYUFD65VVHYN", "dateTime": 1517271583793}, {"current_trial": 27, "trialdata": {"rt": -1000, "trial_type": "single-audio", "word": "fox", "stimulus": "/static/audio/wordpool/FOX.wav", "conditions": [18, 1200, "a", 18000], "internal_node_id": "0.0-18.0", "trial": 0, "time_elapsed": 252845, "serialpos": 6, "key_press": -1, "wordID": 597, "type": "PRES_AUD", "trial_index": 27}, "uniqueid": "MTK2474:3OB0CAO74IWCOZNTFEHYUFD65VVHYN", "dateTime": 1517271585877}, {"current_trial": 28, "trialdata": {"rt": -1000, "trial_type": "single-audio", "word": "shorts", "stimulus": "/static/audio/wordpool/SHORTS.wav", "conditions": [18, 1200, "a", 18000], "internal_node_id": "0.0-19.0", "trial": 0, "time_elapsed": 255021, "serialpos": 7, "key_press": -1, "wordID": 1292, "type": "PRES_AUD", "trial_index": 28}, "uniqueid": "MTK2474:3OB0CAO74IWCOZNTFEHYUFD65VVHYN", "dateTime": 1517271588054}, {"current_trial": 29, "trialdata": {"rt": -1000, "trial_type": "single-audio", "word": "pocket", "stimulus": "/static/audio/wordpool/POCKET.wav", "conditions": [18, 1200, "a", 18000], "internal_node_id": "0.0-20.0", "trial": 0, "time_elapsed": 257058, "serialpos": 8, "key_press": -1, "wordID": 1092, "type": "PRES_AUD", "trial_index": 29}, "uniqueid": "MTK2474:3OB0CAO74IWCOZNTFEHYUFD65VVHYN", "dateTime": 1517271590090}, {"current_trial": 30, "trialdata": {"rt": -1000, "trial_type": "single-audio", "word": "husband", "stimulus": "/static/audio/wordpool/HUSBAND.wav", "conditions": [18, 1200, "a", 18000], "internal_node_id": "0.0-21.0", "trial": 0, "time_elapsed": 259170, "serialpos": 9, "key_press": -1, "wordID": 727, "type": "PRES_AUD", "trial_index": 30}, "uniqueid": "MTK2474:3OB0CAO74IWCOZNTFEHYUFD65VVHYN", "dateTime": 1517271592203}, {"current_trial": 31, "trialdata": {"rt": -1000, "trial_type": "single-audio", "word": "convict", "stimulus": "/static/audio/wordpool/CONVICT.wav", "conditions": [18, 1200, "a", 18000], "internal_node_id": "0.0-22.0", "trial": 0, "time_elapsed": 261489, "serialpos": 10, "key_press": -1, "wordID": 370, "type": "PRES_AUD", "trial_index": 31}, "uniqueid": "MTK2474:3OB0CAO74IWCOZNTFEHYUFD65VVHYN", "dateTime": 1517271594521}, {"current_trial": 32, "trialdata": {"rt": -1000, "trial_type": "single-audio", "word": "agent", "stimulus": "/static/audio/wordpool/AGENT.wav", "conditions": [18, 1200, "a", 18000], "internal_node_id": "0.0-23.0", "trial": 0, "time_elapsed": 263727, "serialpos": 11, "key_press": -1, "wordID": 9, "type": "PRES_AUD", "trial_index": 32}, "uniqueid": "MTK2474:3OB0CAO74IWCOZNTFEHYUFD65VVHYN", "dateTime": 1517271596759}, {"current_trial": 33, "trialdata": {"rt": -1000, "trial_type": "single-audio", "word": "grape", "stimulus": "/static/audio/wordpool/GRAPE.wav", "conditions": [18, 1200, "a", 18000], "internal_node_id": "0.0-24.0", "trial": 0, "time_elapsed": 265761, "serialpos": 12, "key_press": -1, "wordID": 653, "type": "PRES_AUD", "trial_index": 33}, "uniqueid": "MTK2474:3OB0CAO74IWCOZNTFEHYUFD65VVHYN", "dateTime": 1517271598793}, {"current_trial": 34, "trialdata": {"rt": -1000, "trial_type": "single-audio", "word": "flute", "stimulus": "/static/audio/wordpool/FLUTE.wav", "conditions": [18, 1200, "a", 18000], "internal_node_id": "0.0-25.0", "trial": 0, "time_elapsed": 268156, "serialpos": 13, "key_press": -1, "wordID": 584, "type": "PRES_AUD", "trial_index": 34}, "uniqueid": "MTK2474:3OB0CAO74IWCOZNTFEHYUFD65VVHYN", "dateTime": 1517271601188}, {"current_trial": 35, "trialdata": {"rt": -1000, "trial_type": "single-audio", "word": "bunny", "stimulus": "/static/audio/wordpool/BUNNY.wav", "conditions": [18, 1200, "a", 18000], "internal_node_id": "0.0-26.0", "trial": 0, "time_elapsed": 270201, "serialpos": 14, "key_press": -1, "wordID": 197, "type": "PRES_AUD", "trial_index": 35}, "uniqueid": "MTK2474:3OB0CAO74IWCOZNTFEHYUFD65VVHYN", "dateTime": 1517271603233}, {"current_trial": 36, "trialdata": {"rt": -1000, "trial_type": "single-audio", "word": "leader", "stimulus": "/static/audio/wordpool/LEADER.wav", "conditions": [18, 1200, "a", 18000], "internal_node_id": "0.0-27.0", "trial": 0, "time_elapsed": 272488, "serialpos": 15, "key_press": -1, "wordID": 806, "type": "PRES_AUD", "trial_index": 36}, "uniqueid": "MTK2474:3OB0CAO74IWCOZNTFEHYUFD65VVHYN", "dateTime": 1517271605520}, {"current_trial": 37, "trialdata": {"rt": -1000, "trial_type": "single-audio", "word": "spool", "stimulus": "/static/audio/wordpool/SPOOL.wav", "conditions": [18, 1200, "a", 18000], "internal_node_id": "0.0-28.0", "trial": 0, "time_elapsed": 274766, "serialpos": 16, "key_press": -1, "wordID": 1355, "type": "PRES_AUD", "trial_index": 37}, "uniqueid": "MTK2474:3OB0CAO74IWCOZNTFEHYUFD65VVHYN", "dateTime": 1517271607798}, {"current_trial": 38, "trialdata": {"rt": -1000, "trial_type": "single-audio", "word": "velvet", "stimulus": "/static/audio/wordpool/VELVET.wav", "conditions": [18, 1200, "a", 18000], "internal_node_id": "0.0-29.0", "trial": 0, "time_elapsed": 277130, "serialpos": 17, "key_press": -1, "wordID": 1554, "type": "PRES_AUD", "trial_index": 38}, "uniqueid": "MTK2474:3OB0CAO74IWCOZNTFEHYUFD65VVHYN", "dateTime": 1517271610163}, {"current_trial": 39, "trialdata": {"rt": -1, "trial_type": "single-stim", "stimulus": "", "internal_node_id": "0.0-30.0-0.0", "time_elapsed": 278412, "key_press": -1, "type": "PRE_RECALL_DELAY", "trial_index": 39}, "uniqueid": "MTK2474:3OB0CAO74IWCOZNTFEHYUFD65VVHYN", "dateTime": 1517271611444}, {"current_trial": 40, "trialdata": {"rt": -1000, "trial_type": "single-audio", "stimulus": "/static/audio/400Hz.wav", "internal_node_id": "0.0-31.0", "time_elapsed": 278914, "key_press": -1, "type": "PRE_RECALL_ALERT", "trial_index": 40}, "uniqueid": "MTK2474:3OB0CAO74IWCOZNTFEHYUFD65VVHYN", "dateTime": 1517271611946}, {"current_trial": 41, "trialdata": {"rt": [4437, 6501, 8461, 9181, 11093, 12485, 14045, 15317, 16829, 22892, 35159, 44126, 46279, 46566, 46774, 46910], "recwords": ["robin", "ground", "contract", "agent", "husband", "mustard", "spool", "velvet", "bunny", "agent", "husband", "", "", "", "", ""], "key_times": [3086, 3189, 3341, 3429, 3533, 4437, 5517, 5669, 5709, 5781, 5949, 6077, 6501, 7501, 7605, 7685, 7765, 7933, 8013, 8213, 8365, 8461, 8645, 8789, 8941, 9021, 9117, 9181, 9613, 9765, 9781, 9869, 10269, 10405, 10509, 10693, 10829, 10917, 11029, 11093, 11581, 11749, 11813, 11909, 12077, 12181, 12397, 12485, 12917, 13013, 13261, 13629, 13861, 14045, 14477, 14621, 14733, 14941, 15101, 15197, 15317, 16085, 16189, 16373, 16509, 16653, 16829, 22364, 22508, 22652, 22748, 22804, 22892, 34407, 34567, 34647, 34823, 34935, 35023, 35079, 35159, 44126, 46279, 46566, 46774, 46910], "trial_type": "free-recall", "conditions": [18, 1200, "a", 18000], "internal_node_id": "0.0-32.0-0.0", "key_presses": [82, 79, 66, 73, 78, 32, 71, 82, 79, 85, 78, 68, 13, 67, 79, 78, 84, 82, 65, 67, 84, 13, 65, 71, 69, 78, 84, 13, 72, 85, 89, 83, 8, 8, 83, 66, 65, 78, 68, 13, 77, 85, 83, 84, 65, 82, 68, 13, 83, 80, 79, 79, 76, 13, 86, 69, 76, 86, 69, 84, 13, 66, 85, 78, 78, 89, 13, 65, 71, 69, 78, 84, 13, 72, 85, 83, 66, 65, 78, 68, 13, 13, 13, 13, 13, 13], "trial": 0, "time_elapsed": 338922, "type": "FREE_RECALL", "trial_index": 41}, "uniqueid": "MTK2474:3OB0CAO74IWCOZNTFEHYUFD65VVHYN", "dateTime": 1517271671958}, {"current_trial": 42, "trialdata": {"rt": 2059, "trial_type": "text", "internal_node_id": "0.0-33.0", "time_elapsed": 342987, "key_press": 13, "type": "INSTRUCTIONS", "trial_index": 42}, "uniqueid": "MTK2474:3OB0CAO74IWCOZNTFEHYUFD65VVHYN", "dateTime": 1517271676019}, {"current_trial": 43, "trialdata": {"rt": [6316, 13195, 15059, 17435], "trial_type": "math-distractor", "key_times": [6020, 6148, 6316, 12892, 12987, 13195, 14723, 14819, 15059, 17139, 17267, 17435], "responses": ["22", "23", "12", "11"], "num2": [5, 8, 1, 4, 2], "num3": [9, 9, 9, 5, 7], "conditions": [18, 1200, "a", 18000], "internal_node_id": "0.0-34.0", "key_presses": [98, 98, 13, 98, 99, 13, 97, 98, 13, 97, 97, 13], "trial": 1, "time_elapsed": 362991, "type": "DISTRACTOR", "trial_index": 43, "num1": [8, 6, 2, 2, 7]}, "uniqueid": "MTK2474:3OB0CAO74IWCOZNTFEHYUFD65VVHYN", "dateTime": 1517271696023}, {"current_trial": 44, "trialdata": {"rt": -1, "trial_type": "single-stim", "stimulus": "<p id=\"stim\">10</p>", "internal_node_id": "0.0-35.0-0.0", "time_elapsed": 365997, "key_press": -1, "trial_index": 44}, "uniqueid": "MTK2474:3OB0CAO74IWCOZNTFEHYUFD65VVHYN", "dateTime": 1517271699029}, {"current_trial": 45, "trialdata": {"rt": -1, "trial_type": "single-stim", "stimulus": "<p id=\"stim\">9</p>", "internal_node_id": "0.0-35.0-1.0", "time_elapsed": 366999, "key_press": -1, "trial_index": 45}, "uniqueid": "MTK2474:3OB0CAO74IWCOZNTFEHYUFD65VVHYN", "dateTime": 1517271700031}, {"current_trial": 46, "trialdata": {"rt": -1, "trial_type": "single-stim", "stimulus": "<p id=\"stim\">8</p>", "internal_node_id": "0.0-35.0-2.0", "time_elapsed": 368001, "key_press": -1, "trial_index": 46}, "uniqueid": "MTK2474:3OB0CAO74IWCOZNTFEHYUFD65VVHYN", "dateTime": 1517271701033}, {"current_trial": 47, "trialdata": {"rt": -1, "trial_type": "single-stim", "stimulus": "<p id=\"stim\">7</p>", "internal_node_id": "0.0-35.0-3.0", "time_elapsed": 369003, "key_press": -1, "trial_index": 47}, "uniqueid": "MTK2474:3OB0CAO74IWCOZNTFEHYUFD65VVHYN", "dateTime": 1517271702035}, {"current_trial": 48, "trialdata": {"rt": -1, "trial_type": "single-stim", "stimulus": "<p id=\"stim\">6</p>", "internal_node_id": "0.0-35.0-4.0", "time_elapsed": 370005, "key_press": -1, "trial_index": 48}, "uniqueid": "MTK2474:3OB0CAO74IWCOZNTFEHYUFD65VVHYN", "dateTime": 1517271703037}, {"current_trial": 49, "trialdata": {"rt": -1, "trial_type": "single-stim", "stimulus": "<p id=\"stim\">5</p>", "internal_node_id": "0.0-35.0-5.0", "time_elapsed": 371007, "key_press": -1, "trial_index": 49}, "uniqueid": "MTK2474:3OB0CAO74IWCOZNTFEHYUFD65VVHYN", "dateTime": 1517271704039}, {"current_trial": 50, "trialdata": {"rt": -1, "trial_type": "single-stim", "stimulus": "<p id=\"stim\">4</p>", "internal_node_id": "0.0-35.0-6.0", "time_elapsed": 372009, "key_press": -1, "trial_index": 50}, "uniqueid": "MTK2474:3OB0CAO74IWCOZNTFEHYUFD65VVHYN", "dateTime": 1517271705041}, {"current_trial": 51, "trialdata": {"rt": -1, "trial_type": "single-stim", "stimulus": "<p id=\"stim\">3</p>", "internal_node_id": "0.0-35.0-7.0", "time_elapsed": 373011, "key_press": -1, "trial_index": 51}, "uniqueid": "MTK2474:3OB0CAO74IWCOZNTFEHYUFD65VVHYN", "dateTime": 1517271706043}, {"current_trial": 52, "trialdata": {"rt": -1, "trial_type": "single-stim", "stimulus": "<p id=\"stim\">2</p>", "internal_node_id": "0.0-35.0-8.0", "time_elapsed": 374013, "key_press": -1, "trial_index": 52}, "uniqueid": "MTK2474:3OB0CAO74IWCOZNTFEHYUFD65VVHYN", "dateTime": 1517271707045}, {"current_trial": 53, "trialdata": {"rt": -1, "trial_type": "single-stim", "stimulus": "<p id=\"stim\">1</p>", "internal_node_id": "0.0-35.0-9.0", "time_elapsed": 375015, "key_press": -1, "trial_index": 53}, "uniqueid": "MTK2474:3OB0CAO74IWCOZNTFEHYUFD65VVHYN", "dateTime": 1517271708047}, {"current_trial": 54, "trialdata": {"rt": -1, "trial_type": "single-stim", "stimulus": "<p id=\"stim\">+</p>", "internal_node_id": "0.0-36.0-0.0", "time_elapsed": 376517, "key_press": -1, "type": "FIXATION", "trial_index": 54}, "uniqueid": "MTK2474:3OB0CAO74IWCOZNTFEHYUFD65VVHYN", "dateTime": 1517271709549}, {"current_trial": 55, "trialdata": {"rt": -1000, "trial_type": "single-audio", "word": "backbone", "stimulus": "/static/audio/wordpool/BACKBONE.wav", "conditions": [18, 1200, "a", 18000], "internal_node_id": "0.0-37.0", "trial": 1, "time_elapsed": 378818, "serialpos": 0, "key_press": -1, "wordID": 65, "type": "PRES_AUD", "trial_index": 55}, "uniqueid": "MTK2474:3OB0CAO74IWCOZNTFEHYUFD65VVHYN", "dateTime": 1517271711850}, {"current_trial": 56, "trialdata": {"rt": -1000, "trial_type": "single-audio", "word": "brandy", "stimulus": "/static/audio/wordpool/BRANDY.wav", "conditions": [18, 1200, "a", 18000], "internal_node_id": "0.0-38.0", "trial": 1, "time_elapsed": 381056, "serialpos": 1, "key_press": -1, "wordID": 168, "type": "PRES_AUD", "trial_index": 56}, "uniqueid": "MTK2474:3OB0CAO74IWCOZNTFEHYUFD65VVHYN", "dateTime": 1517271714088}, {"current_trial": 57, "trialdata": {"rt": -1000, "trial_type": "single-audio", "word": "turtle", "stimulus": "/static/audio/wordpool/TURTLE.wav", "conditions": [18, 1200, "a", 18000], "internal_node_id": "0.0-39.0", "trial": 1, "time_elapsed": 383368, "serialpos": 2, "key_press": -1, "wordID": 1521, "type": "PRES_AUD", "trial_index": 57}, "uniqueid": "MTK2474:3OB0CAO74IWCOZNTFEHYUFD65VVHYN", "dateTime": 1517271716400}, {"current_trial": 58, "trialdata": {"rt": -1000, "trial_type": "single-audio", "word": "denim", "stimulus": "/static/audio/wordpool/DENIM.wav", "conditions": [18, 1200, "a", 18000], "internal_node_id": "0.0-40.0", "trial": 1, "time_elapsed": 385417, "serialpos": 3, "key_press": -1, "wordID": 445, "type": "PRES_AUD", "trial_index": 58}, "uniqueid": "MTK2474:3OB0CAO74IWCOZNTFEHYUFD65VVHYN", "dateTime": 1517271718450}, {"current_trial": 59, "trialdata": {"rt": -1000, "trial_type": "single-audio", "word": "lapel", "stimulus": "/static/audio/wordpool/LAPEL.wav", "conditions": [18, 1200, "a", 18000], "internal_node_id": "0.0-41.0", "trial": 1, "time_elapsed": 387447, "serialpos": 4, "key_press": -1, "wordID": 799, "type": "PRES_AUD", "trial_index": 59}, "uniqueid": "MTK2474:3OB0CAO74IWCOZNTFEHYUFD65VVHYN", "dateTime": 1517271720480}, {"current_trial": 60, "trialdata": {"rt": -1000, "trial_type": "single-audio", "word": "swimmer", "stimulus": "/static/audio/wordpool/SWIMMER.wav", "conditions": [18, 1200, "a", 18000], "internal_node_id": "0.0-42.0", "trial": 1, "time_elapsed": 389768, "serialpos": 5, "key_press": -1, "wordID": 1419, "type": "PRES_AUD", "trial_index": 60}, "uniqueid": "MTK2474:3OB0CAO74IWCOZNTFEHYUFD65VVHYN", "dateTime": 1517271722800}, {"current_trial": 61, "trialdata": {"rt": -1000, "trial_type": "single-audio", "word": "uncle", "stimulus": "/static/audio/wordpool/UNCLE.wav", "conditions": [18, 1200, "a", 18000], "internal_node_id": "0.0-43.0", "trial": 1, "time_elapsed": 392051, "serialpos": 6, "key_press": -1, "wordID": 1535, "type": "PRES_AUD", "trial_index": 61}, "uniqueid": "MTK2474:3OB0CAO74IWCOZNTFEHYUFD65VVHYN", "dateTime": 1517271725083}, {"current_trial": 62, "trialdata": {"rt": -1000, "trial_type": "single-audio", "word": "turkey", "stimulus": "/static/audio/wordpool/TURKEY.wav", "conditions": [18, 1200, "a", 18000], "internal_node_id": "0.0-44.0", "trial": 1, "time_elapsed": 394348, "serialpos": 7, "key_press": -1, "wordID": 1519, "type": "PRES_AUD", "trial_index": 62}, "uniqueid": "MTK2474:3OB0CAO74IWCOZNTFEHYUFD65VVHYN", "dateTime": 1517271727380}, {"current_trial": 63, "trialdata": {"rt": -1000, "trial_type": "single-audio", "word": "garlic", "stimulus": "/static/audio/wordpool/GARLIC.wav", "conditions": [18, 1200, "a", 18000], "internal_node_id": "0.0-45.0", "trial": 1, "time_elapsed": 396442, "serialpos": 8, "key_press": -1, "wordID": 623, "type": "PRES_AUD", "trial_index": 63}, "uniqueid": "MTK2474:3OB0CAO74IWCOZNTFEHYUFD65VVHYN", "dateTime": 1517271729474}, {"current_trial": 64, "trialdata": {"rt": -1000, "trial_type": "single-audio", "word": "chipmunk", "stimulus": "/static/audio/wordpool/CHIPMUNK.wav", "conditions": [18, 1200, "a", 18000], "internal_node_id": "0.0-46.0", "trial": 1, "time_elapsed": 398466, "serialpos": 9, "key_press": -1, "wordID": 303, "type": "PRES_AUD", "trial_index": 64}, "uniqueid": "MTK2474:3OB0CAO74IWCOZNTFEHYUFD65VVHYN", "dateTime": 1517271731498}, {"current_trial": 65, "trialdata": {"rt": -1000, "trial_type": "single-audio", "word": "puddle", "stimulus": "/static/audio/wordpool/PUDDLE.wav", "conditions": [18, 1200, "a", 18000], "internal_node_id": "0.0-47.0", "trial": 1, "time_elapsed": 400722, "serialpos": 10, "key_press": -1, "wordID": 1139, "type": "PRES_AUD", "trial_index": 65}, "uniqueid": "MTK2474:3OB0CAO74IWCOZNTFEHYUFD65VVHYN", "dateTime": 1517271733754}, {"current_trial": 66, "trialdata": {"rt": -1000, "trial_type": "single-audio", "word": "nurse", "stimulus": "/static/audio/wordpool/NURSE.wav", "conditions": [18, 1200, "a", 18000], "internal_node_id": "0.0-48.0", "trial": 1, "time_elapsed": 402968, "serialpos": 11, "key_press": -1, "wordID": 962, "type": "PRES_AUD", "trial_index": 66}, "uniqueid": "MTK2474:3OB0CAO74IWCOZNTFEHYUFD65VVHYN", "dateTime": 1517271736000}, {"current_trial": 67, "trialdata": {"rt": -1000, "trial_type": "single-audio", "word": "skirt", "stimulus": "/static/audio/wordpool/SKIRT.wav", "conditions": [18, 1200, "a", 18000], "internal_node_id": "0.0-49.0", "trial": 1, "time_elapsed": 405248, "serialpos": 12, "key_press": -1, "wordID": 1318, "type": "PRES_AUD", "trial_index": 67}, "uniqueid": "MTK2474:3OB0CAO74IWCOZNTFEHYUFD65VVHYN", "dateTime": 1517271738281}, {"current_trial": 68, "trialdata": {"rt": -1000, "trial_type": "single-audio", "word": "diner", "stimulus": "/static/audio/wordpool/DINER.wav", "conditions": [18, 1200, "a", 18000], "internal_node_id": "0.0-50.0", "trial": 1, "time_elapsed": 407617, "serialpos": 13, "key_press": -1, "wordID": 466, "type": "PRES_AUD", "trial_index": 68}, "uniqueid": "MTK2474:3OB0CAO74IWCOZNTFEHYUFD65VVHYN", "dateTime": 1517271740653}, {"current_trial": 69, "trialdata": {"rt": -1000, "trial_type": "single-audio", "word": "bike", "stimulus": "/static/audio/wordpool/BIKE.wav", "conditions": [18, 1200, "a", 18000], "internal_node_id": "0.0-51.0", "trial": 1, "time_elapsed": 409809, "serialpos": 14, "key_press": -1, "wordID": 124, "type": "PRES_AUD", "trial_index": 69}, "uniqueid": "MTK2474:3OB0CAO74IWCOZNTFEHYUFD65VVHYN", "dateTime": 1517271742841}, {"current_trial": 70, "trialdata": {"rt": -1000, "trial_type": "single-audio", "word": "poison", "stimulus": "/static/audio/wordpool/POISON.wav", "conditions": [18, 1200, "a", 18000], "internal_node_id": "0.0-52.0", "trial": 1, "time_elapsed": 412206, "serialpos": 15, "key_press": -1, "wordID": 1095, "type": "PRES_AUD", "trial_index": 70}, "uniqueid": "MTK2474:3OB0CAO74IWCOZNTFEHYUFD65VVHYN", "dateTime": 1517271745238}, {"current_trial": 71, "trialdata": {"rt": -1000, "trial_type": "single-audio", "word": "blueprint", "stimulus": "/static/audio/wordpool/BLUEPRINT.wav", "conditions": [18, 1200, "a", 18000], "internal_node_id": "0.0-53.0", "trial": 1, "time_elapsed": 414261, "serialpos": 16, "key_press": -1, "wordID": 141, "type": "PRES_AUD", "trial_index": 71}, "uniqueid": "MTK2474:3OB0CAO74IWCOZNTFEHYUFD65VVHYN", "dateTime": 1517271747293}, {"current_trial": 72, "trialdata": {"rt": -1000, "trial_type": "single-audio", "word": "icing", "stimulus": "/static/audio/wordpool/ICING.wav", "conditions": [18, 1200, "a", 18000], "internal_node_id": "0.0-54.0", "trial": 1, "time_elapsed": 416339, "serialpos": 17, "key_press": -1, "wordID": 731, "type": "PRES_AUD", "trial_index": 72}, "uniqueid": "MTK2474:3OB0CAO74IWCOZNTFEHYUFD65VVHYN", "dateTime": 1517271749371}, {"current_trial": 73, "trialdata": {"rt": -1, "trial_type": "single-stim", "stimulus": "", "internal_node_id": "0.0-55.0-0.0", "time_elapsed": 417603, "key_press": -1, "type": "PRE_RECALL_DELAY", "trial_index": 73}, "uniqueid": "MTK2474:3OB0CAO74IWCOZNTFEHYUFD65VVHYN", "dateTime": 1517271750635}, {"current_trial": 74, "trialdata": {"rt": -1000, "trial_type": "single-audio", "stimulus": "/static/audio/400Hz.wav", "internal_node_id": "0.0-56.0", "time_elapsed": 418111, "key_press": -1, "type": "PRE_RECALL_ALERT", "trial_index": 74}, "uniqueid": "MTK2474:3OB0CAO74IWCOZNTFEHYUFD65VVHYN", "dateTime": 1517271751143}, {"current_trial": 75, "trialdata": {"rt": [2345, 3945, 5033, 7937, 15800, 19320, 20312, 30288, 43871], "recwords": ["denim", "turtle", "icing", "blueprint", "leppel", "skirt", "nurse", "puddle", "swimwear"], "key_times": [1235, 1706, 1865, 1954, 2114, 2345, 2658, 2841, 3233, 3417, 3521, 3673, 3753, 3849, 3945, 4537, 4681, 4761, 4841, 4937, 5033, 5945, 6033, 6105, 6225, 6369, 6753, 6873, 6953, 7497, 7689, 7777, 7937, 14049, 14176, 14345, 14497, 14888, 15024, 15241, 15392, 15504, 15624, 15800, 18776, 18880, 19000, 19072, 19240, 19320, 19792, 19936, 20024, 20144, 20224, 20312, 29633, 29728, 29856, 30016, 30120, 30192, 30288, 41976, 42151, 42319, 42471, 43503, 43583, 43727, 43783, 43871], "trial_type": "free-recall", "conditions": [18, 1200, "a", 18000], "internal_node_id": "0.0-57.0-0.0", "key_presses": [68, 69, 78, 73, 77, 13, 84, 82, 8, 85, 82, 84, 76, 69, 13, 73, 67, 73, 78, 71, 13, 66, 76, 85, 69, 80, 82, 73, 84, 8, 78, 84, 13, 76, 69, 69, 80, 8, 8, 80, 80, 69, 76, 13, 83, 75, 73, 82, 84, 13, 78, 85, 82, 83, 69, 13, 80, 85, 68, 68, 76, 69, 13, 83, 87, 73, 77, 87, 69, 65, 82, 13], "trial": 1, "time_elapsed": 478114, "type": "FREE_RECALL", "trial_index": 75}, "uniqueid": "MTK2474:3OB0CAO74IWCOZNTFEHYUFD65VVHYN", "dateTime": 1517271811151}, {"current_trial": 76, "trialdata": {"rt": 4246, "trial_type": "text", "internal_node_id": "0.0-58.0", "time_elapsed": 484367, "key_press": 13, "type": "INSTRUCTIONS", "trial_index": 76}, "uniqueid": "MTK2474:3OB0CAO74IWCOZNTFEHYUFD65VVHYN", "dateTime": 1517271817399}, {"current_trial": 77, "trialdata": {"rt": [2660, 4540, 7676, 11379, 13691, 16283, 18100, 20603, 23003], "trial_type": "math-distractor", "key_times": [2396, 2660, 4108, 4284, 4540, 7300, 7476, 7516, 7676, 10932, 11092, 11379, 13260, 13428, 13691, 15947, 16051, 16283, 17763, 17907, 18100, 20203, 20363, 20603, 22628, 22771, 23003], "responses": ["8", "15", "123", "18", "17", "21", "11", "17", "16"], "num2": [3, 8, 4, 9, 5, 8, 2, 9, 7, 3], "num3": [3, 5, 7, 7, 8, 4, 6, 5, 4, 4], "conditions": [24, 1600, "a", 24000], "internal_node_id": "0.0-59.0", "key_presses": [104, 13, 97, 101, 13, 97, 98, 99, 13, 97, 104, 13, 97, 103, 13, 98, 97, 13, 97, 97, 13, 97, 103, 13, 97, 102, 13], "trial": 2, "time_elapsed": 509378, "type": "DISTRACTOR", "trial_index": 77, "num1": [2, 2, 1, 2, 4, 9, 3, 3, 5, 5]}, "uniqueid": "MTK2474:3OB0CAO74IWCOZNTFEHYUFD65VVHYN", "dateTime": 1517271842411}, {"current_trial": 78, "trialdata": {"rt": -1, "trial_type": "single-stim", "stimulus": "<p id=\"stim\">10</p>", "internal_node_id": "0.0-60.0-0.0", "time_elapsed": 512381, "key_press": -1, "trial_index": 78}, "uniqueid": "MTK2474:3OB0CAO74IWCOZNTFEHYUFD65VVHYN", "dateTime": 1517271845413}, {"current_trial": 79, "trialdata": {"rt": -1, "trial_type": "single-stim", "stimulus": "<p id=\"stim\">9</p>", "internal_node_id": "0.0-60.0-1.0", "time_elapsed": 513383, "key_press": -1, "trial_index": 79}, "uniqueid": "MTK2474:3OB0CAO74IWCOZNTFEHYUFD65VVHYN", "dateTime": 1517271846415}, {"current_trial": 80, "trialdata": {"rt": -1, "trial_type": "single-stim", "stimulus": "<p id=\"stim\">8</p>", "internal_node_id": "0.0-60.0-2.0", "time_elapsed": 514385, "key_press": -1, "trial_index": 80}, "uniqueid": "MTK2474:3OB0CAO74IWCOZNTFEHYUFD65VVHYN", "dateTime": 1517271847417}, {"current_trial": 81, "trialdata": {"rt": -1, "trial_type": "single-stim", "stimulus": "<p id=\"stim\">7</p>", "internal_node_id": "0.0-60.0-3.0", "time_elapsed": 515387, "key_press": -1, "trial_index": 81}, "uniqueid": "MTK2474:3OB0CAO74IWCOZNTFEHYUFD65VVHYN", "dateTime": 1517271848419}, {"current_trial": 82, "trialdata": {"rt": -1, "trial_type": "single-stim", "stimulus": "<p id=\"stim\">6</p>", "internal_node_id": "0.0-60.0-4.0", "time_elapsed": 516389, "key_press": -1, "trial_index": 82}, "uniqueid": "MTK2474:3OB0CAO74IWCOZNTFEHYUFD65VVHYN", "dateTime": 1517271849421}, {"current_trial": 83, "trialdata": {"rt": -1, "trial_type": "single-stim", "stimulus": "<p id=\"stim\">5</p>", "internal_node_id": "0.0-60.0-5.0", "time_elapsed": 517392, "key_press": -1, "trial_index": 83}, "uniqueid": "MTK2474:3OB0CAO74IWCOZNTFEHYUFD65VVHYN", "dateTime": 1517271850424}, {"current_trial": 84, "trialdata": {"rt": -1, "trial_type": "single-stim", "stimulus": "<p id=\"stim\">4</p>", "internal_node_id": "0.0-60.0-6.0", "time_elapsed": 518394, "key_press": -1, "trial_index": 84}, "uniqueid": "MTK2474:3OB0CAO74IWCOZNTFEHYUFD65VVHYN", "dateTime": 1517271851426}, {"current_trial": 85, "trialdata": {"rt": -1, "trial_type": "single-stim", "stimulus": "<p id=\"stim\">3</p>", "internal_node_id": "0.0-60.0-7.0", "time_elapsed": 519396, "key_press": -1, "trial_index": 85}, "uniqueid": "MTK2474:3OB0CAO74IWCOZNTFEHYUFD65VVHYN", "dateTime": 1517271852428}, {"current_trial": 86, "trialdata": {"rt": -1, "trial_type": "single-stim", "stimulus": "<p id=\"stim\">2</p>", "internal_node_id": "0.0-60.0-8.0", "time_elapsed": 520398, "key_press": -1, "trial_index": 86}, "uniqueid": "MTK2474:3OB0CAO74IWCOZNTFEHYUFD65VVHYN", "dateTime": 1517271853430}, {"current_trial": 87, "trialdata": {"rt": -1, "trial_type": "single-stim", "stimulus": "<p id=\"stim\">1</p>", "internal_node_id": "0.0-60.0-9.0", "time_elapsed": 521400, "key_press": -1, "trial_index": 87}, "uniqueid": "MTK2474:3OB0CAO74IWCOZNTFEHYUFD65VVHYN", "dateTime": 1517271854432}, {"current_trial": 88, "trialdata": {"rt": -1, "trial_type": "single-stim", "stimulus": "<p id=\"stim\">+</p>", "internal_node_id": "0.0-61.0-0.0", "time_elapsed": 522902, "key_press": -1, "type": "FIXATION", "trial_index": 88}, "uniqueid": "MTK2474:3OB0CAO74IWCOZNTFEHYUFD65VVHYN", "dateTime": 1517271855934}, {"current_trial": 89, "trialdata": {"rt": -1000, "trial_type": "single-audio", "word": "stove", "stimulus": "/static/audio/wordpool/STOVE.wav", "conditions": [24, 1600, "a", 24000], "internal_node_id": "0.0-62.0", "trial": 2, "time_elapsed": 525335, "serialpos": 0, "key_press": -1, "wordID": 1387, "type": "PRES_AUD", "trial_index": 89}, "uniqueid": "MTK2474:3OB0CAO74IWCOZNTFEHYUFD65VVHYN", "dateTime": 1517271858367}, {"current_trial": 90, "trialdata": {"rt": -1000, "trial_type": "single-audio", "word": "suspect", "stimulus": "/static/audio/wordpool/SUSPECT.wav", "conditions": [24, 1600, "a", 24000], "internal_node_id": "0.0-63.0", "trial": 2, "time_elapsed": 527828, "serialpos": 1, "key_press": -1, "wordID": 1414, "type": "PRES_AUD", "trial_index": 90}, "uniqueid": "MTK2474:3OB0CAO74IWCOZNTFEHYUFD65VVHYN", "dateTime": 1517271860861}, {"current_trial": 91, "trialdata": {"rt": -1000, "trial_type": "single-audio", "word": "ulcer", "stimulus": "/static/audio/wordpool/ULCER.wav", "conditions": [24, 1600, "a", 24000], "internal_node_id": "0.0-64.0", "trial": 2, "time_elapsed": 530584, "serialpos": 2, "key_press": -1, "wordID": 1532, "type": "PRES_AUD", "trial_index": 91}, "uniqueid": "MTK2474:3OB0CAO74IWCOZNTFEHYUFD65VVHYN", "dateTime": 1517271863617}, {"current_trial": 92, "trialdata": {"rt": -1000, "trial_type": "single-audio", "word": "journal", "stimulus": "/static/audio/wordpool/JOURNAL.wav", "conditions": [24, 1600, "a", 24000], "internal_node_id": "0.0-65.0", "trial": 2, "time_elapsed": 533307, "serialpos": 3, "key_press": -1, "wordID": 759, "type": "PRES_AUD", "trial_index": 92}, "uniqueid": "MTK2474:3OB0CAO74IWCOZNTFEHYUFD65VVHYN", "dateTime": 1517271866339}, {"current_trial": 93, "trialdata": {"rt": -1000, "trial_type": "single-audio", "word": "balloon", "stimulus": "/static/audio/wordpool/BALLOON.wav", "conditions": [24, 1600, "a", 24000], "internal_node_id": "0.0-66.0", "trial": 2, "time_elapsed": 535914, "serialpos": 4, "key_press": -1, "wordID": 74, "type": "PRES_AUD", "trial_index": 93}, "uniqueid": "MTK2474:3OB0CAO74IWCOZNTFEHYUFD65VVHYN", "dateTime": 1517271868946}, {"current_trial": 94, "trialdata": {"rt": -1000, "trial_type": "single-audio", "word": "police", "stimulus": "/static/audio/wordpool/POLICE.wav", "conditions": [24, 1600, "a", 24000], "internal_node_id": "0.0-67.0", "trial": 2, "time_elapsed": 538698, "serialpos": 5, "key_press": -1, "wordID": 1097, "type": "PRES_AUD", "trial_index": 94}, "uniqueid": "MTK2474:3OB0CAO74IWCOZNTFEHYUFD65VVHYN", "dateTime": 1517271871730}, {"current_trial": 95, "trialdata": {"rt": -1000, "trial_type": "single-audio", "word": "patrol", "stimulus": "/static/audio/wordpool/PATROL.wav", "conditions": [24, 1600, "a", 24000], "internal_node_id": "0.0-68.0", "trial": 2, "time_elapsed": 541148, "serialpos": 6, "key_press": -1, "wordID": 1026, "type": "PRES_AUD", "trial_index": 95}, "uniqueid": "MTK2474:3OB0CAO74IWCOZNTFEHYUFD65VVHYN", "dateTime": 1517271874180}, {"current_trial": 96, "trialdata": {"rt": -1000, "trial_type": "single-audio", "word": "fireplace", "stimulus": "/static/audio/wordpool/FIREPLACE.wav", "conditions": [24, 1600, "a", 24000], "internal_node_id": "0.0-69.0", "trial": 2, "time_elapsed": 543649, "serialpos": 7, "key_press": -1, "wordID": 569, "type": "PRES_AUD", "trial_index": 96}, "uniqueid": "MTK2474:3OB0CAO74IWCOZNTFEHYUFD65VVHYN", "dateTime": 1517271876681}, {"current_trial": 97, "trialdata": {"rt": -1000, "trial_type": "single-audio", "word": "coin", "stimulus": "/static/audio/wordpool/COIN.wav", "conditions": [24, 1600, "a", 24000], "internal_node_id": "0.0-70.0", "trial": 2, "time_elapsed": 546287, "serialpos": 8, "key_press": -1, "wordID": 342, "type": "PRES_AUD", "trial_index": 97}, "uniqueid": "MTK2474:3OB0CAO74IWCOZNTFEHYUFD65VVHYN", "dateTime": 1517271879319}, {"current_trial": 98, "trialdata": {"rt": -1000, "trial_type": "single-audio", "word": "atlas", "stimulus": "/static/audio/wordpool/ATLAS.wav", "conditions": [24, 1600, "a", 24000], "internal_node_id": "0.0-71.0", "trial": 2, "time_elapsed": 548811, "serialpos": 9, "key_press": -1, "wordID": 52, "type": "PRES_AUD", "trial_index": 98}, "uniqueid": "MTK2474:3OB0CAO74IWCOZNTFEHYUFD65VVHYN", "dateTime": 1517271881843}, {"current_trial": 99, "trialdata": {"rt": -1000, "trial_type": "single-audio", "word": "bouquet", "stimulus": "/static/audio/wordpool/BOUQUET.wav", "conditions": [24, 1600, "a", 24000], "internal_node_id": "0.0-72.0", "trial": 2, "time_elapsed": 551247, "serialpos": 10, "key_press": -1, "wordID": 156, "type": "PRES_AUD", "trial_index": 99}, "uniqueid": "MTK2474:3OB0CAO74IWCOZNTFEHYUFD65VVHYN", "dateTime": 1517271884280}, {"current_trial": 100, "trialdata": {"rt": -1000, "trial_type": "single-audio", "word": "piston", "stimulus": "/static/audio/wordpool/PISTON.wav", "conditions": [24, 1600, "a", 24000], "internal_node_id": "0.0-73.0", "trial": 2, "time_elapsed": 553851, "serialpos": 11, "key_press": -1, "wordID": 1075, "type": "PRES_AUD", "trial_index": 100}, "uniqueid": "MTK2474:3OB0CAO74IWCOZNTFEHYUFD65VVHYN", "dateTime": 1517271886883}, {"current_trial": 101, "trialdata": {"rt": -1000, "trial_type": "single-audio", "word": "lizard", "stimulus": "/static/audio/wordpool/LIZARD.wav", "conditions": [24, 1600, "a", 24000], "internal_node_id": "0.0-74.0", "trial": 2, "time_elapsed": 556363, "serialpos": 12, "key_press": -1, "wordID": 833, "type": "PRES_AUD", "trial_index": 101}, "uniqueid": "MTK2474:3OB0CAO74IWCOZNTFEHYUFD65VVHYN", "dateTime": 1517271889395}, {"current_trial": 102, "trialdata": {"rt": -1000, "trial_type": "single-audio", "word": "salad", "stimulus": "/static/audio/wordpool/SALAD.wav", "conditions": [24, 1600, "a", 24000], "internal_node_id": "0.0-75.0", "trial": 2, "time_elapsed": 558999, "serialpos": 13, "key_press": -1, "wordID": 1223, "type": "PRES_AUD", "trial_index": 102}, "uniqueid": "MTK2474:3OB0CAO74IWCOZNTFEHYUFD65VVHYN", "dateTime": 1517271892031}, {"current_trial": 103, "trialdata": {"rt": -1000, "trial_type": "single-audio", "word": "sandwich", "stimulus": "/static/audio/wordpool/SANDWICH.wav", "conditions": [24, 1600, "a", 24000], "internal_node_id": "0.0-76.0", "trial": 2, "time_elapsed": 561666, "serialpos": 14, "key_press": -1, "wordID": 1231, "type": "PRES_AUD", "trial_index": 103}, "uniqueid": "MTK2474:3OB0CAO74IWCOZNTFEHYUFD65VVHYN", "dateTime": 1517271894698}, {"current_trial": 104, "trialdata": {"rt": -1000, "trial_type": "single-audio", "word": "paper", "stimulus": "/static/audio/wordpool/PAPER.wav", "conditions": [24, 1600, "a", 24000], "internal_node_id": "0.0-77.0", "trial": 2, "time_elapsed": 564170, "serialpos": 15, "key_press": -1, "wordID": 1010, "type": "PRES_AUD", "trial_index": 104}, "uniqueid": "MTK2474:3OB0CAO74IWCOZNTFEHYUFD65VVHYN", "dateTime": 1517271897202}, {"current_trial": 105, "trialdata": {"rt": -1000, "trial_type": "single-audio", "word": "forehead", "stimulus": "/static/audio/wordpool/FOREHEAD.wav", "conditions": [24, 1600, "a", 24000], "internal_node_id": "0.0-78.0", "trial": 2, "time_elapsed": 566937, "serialpos": 16, "key_press": -1, "wordID": 591, "type": "PRES_AUD", "trial_index": 105}, "uniqueid": "MTK2474:3OB0CAO74IWCOZNTFEHYUFD65VVHYN", "dateTime": 1517271899969}, {"current_trial": 106, "trialdata": {"rt": -1000, "trial_type": "single-audio", "word": "suitcase", "stimulus": "/static/audio/wordpool/SUITCASE.wav", "conditions": [24, 1600, "a", 24000], "internal_node_id": "0.0-79.0", "trial": 2, "time_elapsed": 569338, "serialpos": 17, "key_press": -1, "wordID": 1402, "type": "PRES_AUD", "trial_index": 106}, "uniqueid": "MTK2474:3OB0CAO74IWCOZNTFEHYUFD65VVHYN", "dateTime": 1517271902370}, {"current_trial": 107, "trialdata": {"rt": -1000, "trial_type": "single-audio", "word": "climber", "stimulus": "/static/audio/wordpool/CLIMBER.wav", "conditions": [24, 1600, "a", 24000], "internal_node_id": "0.0-80.0", "trial": 2, "time_elapsed": 572145, "serialpos": 18, "key_press": -1, "wordID": 322, "type": "PRES_AUD", "trial_index": 107}, "uniqueid": "MTK2474:3OB0CAO74IWCOZNTFEHYUFD65VVHYN", "dateTime": 1517271905177}, {"current_trial": 108, "trialdata": {"rt": -1000, "trial_type": "single-audio", "word": "sphinx", "stimulus": "/static/audio/wordpool/SPHINX.wav", "conditions": [24, 1600, "a", 24000], "internal_node_id": "0.0-81.0", "trial": 2, "time_elapsed": 574729, "serialpos": 19, "key_press": -1, "wordID": 1348, "type": "PRES_AUD", "trial_index": 108}, "uniqueid": "MTK2474:3OB0CAO74IWCOZNTFEHYUFD65VVHYN", "dateTime": 1517271907761}, {"current_trial": 109, "trialdata": {"rt": -1000, "trial_type": "single-audio", "word": "hand", "stimulus": "/static/audio/wordpool/HAND.wav", "conditions": [24, 1600, "a", 24000], "internal_node_id": "0.0-82.0", "trial": 2, "time_elapsed": 577430, "serialpos": 20, "key_press": -1, "wordID": 682, "type": "PRES_AUD", "trial_index": 109}, "uniqueid": "MTK2474:3OB0CAO74IWCOZNTFEHYUFD65VVHYN", "dateTime": 1517271910462}, {"current_trial": 110, "trialdata": {"rt": -1000, "trial_type": "single-audio", "word": "crutch", "stimulus": "/static/audio/wordpool/CRUTCH.wav", "conditions": [24, 1600, "a", 24000], "internal_node_id": "0.0-83.0", "trial": 2, "time_elapsed": 580087, "serialpos": 21, "key_press": -1, "wordID": 416, "type": "PRES_AUD", "trial_index": 110}, "uniqueid": "MTK2474:3OB0CAO74IWCOZNTFEHYUFD65VVHYN", "dateTime": 1517271913119}, {"current_trial": 111, "trialdata": {"rt": -1000, "trial_type": "single-audio", "word": "cookbook", "stimulus": "/static/audio/wordpool/COOKBOOK.wav", "conditions": [24, 1600, "a", 24000], "internal_node_id": "0.0-84.0", "trial": 2, "time_elapsed": 582616, "serialpos": 22, "key_press": -1, "wordID": 372, "type": "PRES_AUD", "trial_index": 111}, "uniqueid": "MTK2474:3OB0CAO74IWCOZNTFEHYUFD65VVHYN", "dateTime": 1517271915648}, {"current_trial": 112, "trialdata": {"rt": -1000, "trial_type": "single-audio", "word": "hiker", "stimulus": "/static/audio/wordpool/HIKER.wav", "conditions": [24, 1600, "a", 24000], "internal_node_id": "0.0-85.0", "trial": 2, "time_elapsed": 585345, "serialpos": 23, "key_press": -1, "wordID": 707, "type": "PRES_AUD", "trial_index": 112}, "uniqueid": "MTK2474:3OB0CAO74IWCOZNTFEHYUFD65VVHYN", "dateTime": 1517271918377}, {"current_trial": 113, "trialdata": {"rt": -1, "trial_type": "single-stim", "stimulus": "", "internal_node_id": "0.0-86.0-0.0", "time_elapsed": 586672, "key_press": -1, "type": "PRE_RECALL_DELAY", "trial_index": 113}, "uniqueid": "MTK2474:3OB0CAO74IWCOZNTFEHYUFD65VVHYN", "dateTime": 1517271919704}, {"current_trial": 114, "trialdata": {"rt": -1000, "trial_type": "single-audio", "stimulus": "/static/audio/400Hz.wav", "internal_node_id": "0.0-87.0", "time_elapsed": 587174, "key_press": -1, "type": "PRE_RECALL_ALERT", "trial_index": 114}, "uniqueid": "MTK2474:3OB0CAO74IWCOZNTFEHYUFD65VVHYN", "dateTime": 1517271920206}, {"current_trial": 115, "trialdata": {"rt": [1698, 3418, 5225, 6746, 9482, 11066, 12361, 17577, 19260, 27252, 32396], "recwords": ["hiker", "cookbook", "backbone", "suspect", "patrol", "suspect", "police", "balloon", "ulcer", "spinx", "cookbook"], "key_times": [1002, 1098, 1306, 1362, 1434, 1698, 2090, 2194, 2330, 2394, 2706, 2978, 3114, 3194, 3418, 4018, 4186, 4338, 4426, 4810, 4946, 5025, 5105, 5225, 5401, 5530, 5698, 5882, 6298, 6490, 6642, 6746, 7153, 7233, 7313, 7466, 7561, 7858, 7993, 8162, 8530, 8649, 8753, 8953, 9121, 9281, 9482, 9769, 10089, 10266, 10402, 10625, 10834, 11001, 11066, 11593, 11722, 11970, 12042, 12137, 12290, 12361, 16313, 16457, 16593, 16737, 16969, 17185, 17377, 17577, 18725, 18909, 18997, 19157, 19212, 19260, 26116, 26228, 26324, 26444, 26445, 27084, 27204, 27252, 31268, 31380, 31524, 31620, 31836, 31964, 32108, 32180, 32396], "trial_type": "free-recall", "conditions": [24, 1600, "a", 24000], "internal_node_id": "0.0-88.0-0.0", "key_presses": [72, 73, 75, 69, 82, 13, 67, 79, 79, 75, 66, 79, 79, 75, 13, 66, 65, 67, 75, 66, 79, 78, 69, 13, 83, 85, 83, 80, 69, 67, 84, 13, 80, 65, 82, 84, 79, 8, 8, 84, 8, 8, 84, 82, 79, 76, 13, 83, 85, 83, 80, 69, 67, 84, 13, 80, 79, 76, 73, 67, 69, 13, 66, 65, 76, 76, 79, 79, 78, 13, 85, 76, 67, 69, 82, 13, 83, 80, 73, 78, 74, 8, 88, 13, 67, 79, 79, 75, 66, 79, 79, 75, 13], "trial": 2, "time_elapsed": 647181, "type": "FREE_RECALL", "trial_index": 115}, "uniqueid": "MTK2474:3OB0CAO74IWCOZNTFEHYUFD65VVHYN", "dateTime": 1517271980215}, {"current_trial": 116, "trialdata": {"rt": 1449, "trial_type": "text", "internal_node_id": "0.0-89.0", "time_elapsed": 650635, "key_press": 13, "type": "INSTRUCTIONS", "trial_index": 116}, "uniqueid": "MTK2474:3OB0CAO74IWCOZNTFEHYUFD65VVHYN", "dateTime": 1517271983667}, {"current_trial": 117, "trialdata": {"rt": [4133, 5701, 8285, 11572], "trial_type": "math-distractor", "key_times": [3741, 3909, 4133, 5446, 5701, 7909, 8061, 8285, 11252, 11332, 11572], "responses": ["18", "7", "14", "21"], "num2": [7, 3, 2, 8, 4], "num3": [5, 1, 3, 9, 9], "conditions": [24, 800, "a", 12000], "internal_node_id": "0.0-90.0", "key_presses": [97, 104, 13, 103, 13, 97, 100, 13, 98, 97, 13], "trial": 3, "time_elapsed": 664638, "type": "DISTRACTOR", "trial_index": 117, "num1": [6, 3, 9, 4, 1]}, "uniqueid": "MTK2474:3OB0CAO74IWCOZNTFEHYUFD65VVHYN", "dateTime": 1517271997670}, {"current_trial": 118, "trialdata": {"rt": -1, "trial_type": "single-stim", "stimulus": "<p id=\"stim\">10</p>", "internal_node_id": "0.0-91.0-0.0", "time_elapsed": 667644, "key_press": -1, "trial_index": 118}, "uniqueid": "MTK2474:3OB0CAO74IWCOZNTFEHYUFD65VVHYN", "dateTime": 1517272000676}, {"current_trial": 119, "trialdata": {"rt": -1, "trial_type": "single-stim", "stimulus": "<p id=\"stim\">9</p>", "internal_node_id": "0.0-91.0-1.0", "time_elapsed": 668646, "key_press": -1, "trial_index": 119}, "uniqueid": "MTK2474:3OB0CAO74IWCOZNTFEHYUFD65VVHYN", "dateTime": 1517272001678}, {"current_trial": 120, "trialdata": {"rt": -1, "trial_type": "single-stim", "stimulus": "<p id=\"stim\">8</p>", "internal_node_id": "0.0-91.0-2.0", "time_elapsed": 669648, "key_press": -1, "trial_index": 120}, "uniqueid": "MTK2474:3OB0CAO74IWCOZNTFEHYUFD65VVHYN", "dateTime": 1517272002680}, {"current_trial": 121, "trialdata": {"rt": -1, "trial_type": "single-stim", "stimulus": "<p id=\"stim\">7</p>", "internal_node_id": "0.0-91.0-3.0", "time_elapsed": 670649, "key_press": -1, "trial_index": 121}, "uniqueid": "MTK2474:3OB0CAO74IWCOZNTFEHYUFD65VVHYN", "dateTime": 1517272003681}, {"current_trial": 122, "trialdata": {"rt": -1, "trial_type": "single-stim", "stimulus": "<p id=\"stim\">6</p>", "internal_node_id": "0.0-91.0-4.0", "time_elapsed": 671650, "key_press": -1, "trial_index": 122}, "uniqueid": "MTK2474:3OB0CAO74IWCOZNTFEHYUFD65VVHYN", "dateTime": 1517272004682}, {"current_trial": 123, "trialdata": {"rt": -1, "trial_type": "single-stim", "stimulus": "<p id=\"stim\">5</p>", "internal_node_id": "0.0-91.0-5.0", "time_elapsed": 672652, "key_press": -1, "trial_index": 123}, "uniqueid": "MTK2474:3OB0CAO74IWCOZNTFEHYUFD65VVHYN", "dateTime": 1517272005684}, {"current_trial": 124, "trialdata": {"rt": -1, "trial_type": "single-stim", "stimulus": "<p id=\"stim\">4</p>", "internal_node_id": "0.0-91.0-6.0", "time_elapsed": 673654, "key_press": -1, "trial_index": 124}, "uniqueid": "MTK2474:3OB0CAO74IWCOZNTFEHYUFD65VVHYN", "dateTime": 1517272006686}, {"current_trial": 125, "trialdata": {"rt": -1, "trial_type": "single-stim", "stimulus": "<p id=\"stim\">3</p>", "internal_node_id": "0.0-91.0-7.0", "time_elapsed": 674656, "key_press": -1, "trial_index": 125}, "uniqueid": "MTK2474:3OB0CAO74IWCOZNTFEHYUFD65VVHYN", "dateTime": 1517272007688}, {"current_trial": 126, "trialdata": {"rt": -1, "trial_type": "single-stim", "stimulus": "<p id=\"stim\">2</p>", "internal_node_id": "0.0-91.0-8.0", "time_elapsed": 675657, "key_press": -1, "trial_index": 126}, "uniqueid": "MTK2474:3OB0CAO74IWCOZNTFEHYUFD65VVHYN", "dateTime": 1517272008689}, {"current_trial": 127, "trialdata": {"rt": -1, "trial_type": "single-stim", "stimulus": "<p id=\"stim\">1</p>", "internal_node_id": "0.0-91.0-9.0", "time_elapsed": 676658, "key_press": -1, "trial_index": 127}, "uniqueid": "MTK2474:3OB0CAO74IWCOZNTFEHYUFD65VVHYN", "dateTime": 1517272009692}, {"current_trial": 128, "trialdata": {"rt": -1, "trial_type": "single-stim", "stimulus": "<p id=\"stim\">+</p>", "internal_node_id": "0.0-92.0-0.0", "time_elapsed": 678161, "key_press": -1, "type": "FIXATION", "trial_index": 128}, "uniqueid": "MTK2474:3OB0CAO74IWCOZNTFEHYUFD65VVHYN", "dateTime": 1517272011193}, {"current_trial": 129, "trialdata": {"rt": -1000, "trial_type": "single-audio", "word": "mask", "stimulus": "/static/audio/wordpool/MASK.wav", "conditions": [24, 800, "a", 12000], "internal_node_id": "0.0-93.0", "trial": 3, "time_elapsed": 679891, "serialpos": 0, "key_press": -1, "wordID": 875, "type": "PRES_AUD", "trial_index": 129}, "uniqueid": "MTK2474:3OB0CAO74IWCOZNTFEHYUFD65VVHYN", "dateTime": 1517272012923}, {"current_trial": 130, "trialdata": {"rt": -1000, "trial_type": "single-audio", "word": "inmate", "stimulus": "/static/audio/wordpool/INMATE.wav", "conditions": [24, 800, "a", 12000], "internal_node_id": "0.0-94.0", "trial": 3, "time_elapsed": 681585, "serialpos": 1, "key_press": -1, "wordID": 737, "type": "PRES_AUD", "trial_index": 130}, "uniqueid": "MTK2474:3OB0CAO74IWCOZNTFEHYUFD65VVHYN", "dateTime": 1517272014617}, {"current_trial": 131, "trialdata": {"rt": -1000, "trial_type": "single-audio", "word": "beef", "stimulus": "/static/audio/wordpool/BEEF.wav", "conditions": [24, 800, "a", 12000], "internal_node_id": "0.0-95.0", "trial": 3, "time_elapsed": 683425, "serialpos": 2, "key_press": -1, "wordID": 112, "type": "PRES_AUD", "trial_index": 131}, "uniqueid": "MTK2474:3OB0CAO74IWCOZNTFEHYUFD65VVHYN", "dateTime": 1517272016457}, {"current_trial": 132, "trialdata": {"rt": -1000, "trial_type": "single-audio", "word": "mummy", "stimulus": "/static/audio/wordpool/MUMMY.wav", "conditions": [24, 800, "a", 12000], "internal_node_id": "0.0-96.0", "trial": 3, "time_elapsed": 685181, "serialpos": 3, "key_press": -1, "wordID": 931, "type": "PRES_AUD", "trial_index": 132}, "uniqueid": "MTK2474:3OB0CAO74IWCOZNTFEHYUFD65VVHYN", "dateTime": 1517272018213}, {"current_trial": 133, "trialdata": {"rt": -1000, "trial_type": "single-audio", "word": "judge", "stimulus": "/static/audio/wordpool/JUDGE.wav", "conditions": [24, 800, "a", 12000], "internal_node_id": "0.0-97.0", "trial": 3, "time_elapsed": 686875, "serialpos": 4, "key_press": -1, "wordID": 760, "type": "PRES_AUD", "trial_index": 133}, "uniqueid": "MTK2474:3OB0CAO74IWCOZNTFEHYUFD65VVHYN", "dateTime": 1517272019907}, {"current_trial": 134, "trialdata": {"rt": -1000, "trial_type": "single-audio", "word": "stream", "stimulus": "/static/audio/wordpool/STREAM.wav", "conditions": [24, 800, "a", 12000], "internal_node_id": "0.0-98.0", "trial": 3, "time_elapsed": 688541, "serialpos": 5, "key_press": -1, "wordID": 1391, "type": "PRES_AUD", "trial_index": 134}, "uniqueid": "MTK2474:3OB0CAO74IWCOZNTFEHYUFD65VVHYN", "dateTime": 1517272021573}, {"current_trial": 135, "trialdata": {"rt": -1000, "trial_type": "single-audio", "word": "badge", "stimulus": "/static/audio/wordpool/BADGE.wav", "conditions": [24, 800, "a", 12000], "internal_node_id": "0.0-99.0", "trial": 3, "time_elapsed": 690272, "serialpos": 6, "key_press": -1, "wordID": 67, "type": "PRES_AUD", "trial_index": 135}, "uniqueid": "MTK2474:3OB0CAO74IWCOZNTFEHYUFD65VVHYN", "dateTime": 1517272023304}, {"current_trial": 136, "trialdata": {"rt": -1000, "trial_type": "single-audio", "word": "sticker", "stimulus": "/static/audio/wordpool/STICKER.wav", "conditions": [24, 800, "a", 12000], "internal_node_id": "0.0-100.0", "trial": 3, "time_elapsed": 692066, "serialpos": 7, "key_press": -1, "wordID": 1381, "type": "PRES_AUD", "trial_index": 136}, "uniqueid": "MTK2474:3OB0CAO74IWCOZNTFEHYUFD65VVHYN", "dateTime": 1517272025098}, {"current_trial": 137, "trialdata": {"rt": -1000, "trial_type": "single-audio", "word": "banker", "stimulus": "/static/audio/wordpool/BANKER.wav", "conditions": [24, 800, "a", 12000], "internal_node_id": "0.0-101.0", "trial": 3, "time_elapsed": 694055, "serialpos": 8, "key_press": -1, "wordID": 83, "type": "PRES_AUD", "trial_index": 137}, "uniqueid": "MTK2474:3OB0CAO74IWCOZNTFEHYUFD65VVHYN", "dateTime": 1517272027087}, {"current_trial": 138, "trialdata": {"rt": -1000, "trial_type": "single-audio", "word": "widow", "stimulus": "/static/audio/wordpool/WIDOW.wav", "conditions": [24, 800, "a", 12000], "internal_node_id": "0.0-102.0", "trial": 3, "time_elapsed": 695868, "serialpos": 9, "key_press": -1, "wordID": 1607, "type": "PRES_AUD", "trial_index": 138}, "uniqueid": "MTK2474:3OB0CAO74IWCOZNTFEHYUFD65VVHYN", "dateTime": 1517272028900}, {"current_trial": 139, "trialdata": {"rt": -1000, "trial_type": "single-audio", "word": "jury", "stimulus": "/static/audio/wordpool/JURY.wav", "conditions": [24, 800, "a", 12000], "internal_node_id": "0.0-103.0", "trial": 3, "time_elapsed": 697653, "serialpos": 10, "key_press": -1, "wordID": 765, "type": "PRES_AUD", "trial_index": 139}, "uniqueid": "MTK2474:3OB0CAO74IWCOZNTFEHYUFD65VVHYN", "dateTime": 1517272030686}, {"current_trial": 140, "trialdata": {"rt": -1000, "trial_type": "single-audio", "word": "boyfriend", "stimulus": "/static/audio/wordpool/BOYFRIEND.wav", "conditions": [24, 800, "a", 12000], "internal_node_id": "0.0-104.0", "trial": 3, "time_elapsed": 699365, "serialpos": 11, "key_press": -1, "wordID": 161, "type": "PRES_AUD", "trial_index": 140}, "uniqueid": "MTK2474:3OB0CAO74IWCOZNTFEHYUFD65VVHYN", "dateTime": 1517272032397}, {"current_trial": 141, "trialdata": {"rt": -1000, "trial_type": "single-audio", "word": "sunrise", "stimulus": "/static/audio/wordpool/SUNRISE.wav", "conditions": [24, 800, "a", 12000], "internal_node_id": "0.0-105.0", "trial": 3, "time_elapsed": 701191, "serialpos": 12, "key_press": -1, "wordID": 1406, "type": "PRES_AUD", "trial_index": 141}, "uniqueid": "MTK2474:3OB0CAO74IWCOZNTFEHYUFD65VVHYN", "dateTime": 1517272034223}, {"current_trial": 142, "trialdata": {"rt": -1000, "trial_type": "single-audio", "word": "tortoise", "stimulus": "/static/audio/wordpool/TORTOISE.wav", "conditions": [24, 800, "a", 12000], "internal_node_id": "0.0-106.0", "trial": 3, "time_elapsed": 703105, "serialpos": 13, "key_press": -1, "wordID": 1485, "type": "PRES_AUD", "trial_index": 142}, "uniqueid": "MTK2474:3OB0CAO74IWCOZNTFEHYUFD65VVHYN", "dateTime": 1517272036137}, {"current_trial": 143, "trialdata": {"rt": -1000, "trial_type": "single-audio", "word": "snail", "stimulus": "/static/audio/wordpool/SNAIL.wav", "conditions": [24, 800, "a", 12000], "internal_node_id": "0.0-107.0", "trial": 3, "time_elapsed": 705011, "serialpos": 14, "key_press": -1, "wordID": 1331, "type": "PRES_AUD", "trial_index": 143}, "uniqueid": "MTK2474:3OB0CAO74IWCOZNTFEHYUFD65VVHYN", "dateTime": 1517272038043}, {"current_trial": 144, "trialdata": {"rt": -1000, "trial_type": "single-audio", "word": "blender", "stimulus": "/static/audio/wordpool/BLENDER.wav", "conditions": [24, 800, "a", 12000], "internal_node_id": "0.0-108.0", "trial": 3, "time_elapsed": 706763, "serialpos": 15, "key_press": -1, "wordID": 135, "type": "PRES_AUD", "trial_index": 144}, "uniqueid": "MTK2474:3OB0CAO74IWCOZNTFEHYUFD65VVHYN", "dateTime": 1517272039795}, {"current_trial": 145, "trialdata": {"rt": -1000, "trial_type": "single-audio", "word": "keeper", "stimulus": "/static/audio/wordpool/KEEPER.wav", "conditions": [24, 800, "a", 12000], "internal_node_id": "0.0-109.0", "trial": 3, "time_elapsed": 708375, "serialpos": 16, "key_press": -1, "wordID": 768, "type": "PRES_AUD", "trial_index": 145}, "uniqueid": "MTK2474:3OB0CAO74IWCOZNTFEHYUFD65VVHYN", "dateTime": 1517272041407}, {"current_trial": 146, "trialdata": {"rt": -1000, "trial_type": "single-audio", "word": "blockade", "stimulus": "/static/audio/wordpool/BLOCKADE.wav", "conditions": [24, 800, "a", 12000], "internal_node_id": "0.0-110.0", "trial": 3, "time_elapsed": 710261, "serialpos": 17, "key_press": -1, "wordID": 136, "type": "PRES_AUD", "trial_index": 146}, "uniqueid": "MTK2474:3OB0CAO74IWCOZNTFEHYUFD65VVHYN", "dateTime": 1517272043293}, {"current_trial": 147, "trialdata": {"rt": -1000, "trial_type": "single-audio", "word": "gallon", "stimulus": "/static/audio/wordpool/GALLON.wav", "conditions": [24, 800, "a", 12000], "internal_node_id": "0.0-111.0", "trial": 3, "time_elapsed": 712035, "serialpos": 18, "key_press": -1, "wordID": 617, "type": "PRES_AUD", "trial_index": 147}, "uniqueid": "MTK2474:3OB0CAO74IWCOZNTFEHYUFD65VVHYN", "dateTime": 1517272045067}, {"current_trial": 148, "trialdata": {"rt": -1000, "trial_type": "single-audio", "word": "sunset", "stimulus": "/static/audio/wordpool/SUNSET.wav", "conditions": [24, 800, "a", 12000], "internal_node_id": "0.0-112.0", "trial": 3, "time_elapsed": 714038, "serialpos": 19, "key_press": -1, "wordID": 1407, "type": "PRES_AUD", "trial_index": 148}, "uniqueid": "MTK2474:3OB0CAO74IWCOZNTFEHYUFD65VVHYN", "dateTime": 1517272047070}, {"current_trial": 149, "trialdata": {"rt": -1000, "trial_type": "single-audio", "word": "gymnast", "stimulus": "/static/audio/wordpool/GYMNAST.wav", "conditions": [24, 800, "a", 12000], "internal_node_id": "0.0-113.0", "trial": 3, "time_elapsed": 715992, "serialpos": 20, "key_press": -1, "wordID": 674, "type": "PRES_AUD", "trial_index": 149}, "uniqueid": "MTK2474:3OB0CAO74IWCOZNTFEHYUFD65VVHYN", "dateTime": 1517272049025}, {"current_trial": 150, "trialdata": {"rt": -1000, "trial_type": "single-audio", "word": "vagrant", "stimulus": "/static/audio/wordpool/VAGRANT.wav", "conditions": [24, 800, "a", 12000], "internal_node_id": "0.0-114.0", "trial": 3, "time_elapsed": 717821, "serialpos": 21, "key_press": -1, "wordID": 1543, "type": "PRES_AUD", "trial_index": 150}, "uniqueid": "MTK2474:3OB0CAO74IWCOZNTFEHYUFD65VVHYN", "dateTime": 1517272050853}, {"current_trial": 151, "trialdata": {"rt": -1000, "trial_type": "single-audio", "word": "ghetto", "stimulus": "/static/audio/wordpool/GHETTO.wav", "conditions": [24, 800, "a", 12000], "internal_node_id": "0.0-115.0", "trial": 3, "time_elapsed": 719465, "serialpos": 22, "key_press": -1, "wordID": 632, "type": "PRES_AUD", "trial_index": 151}, "uniqueid": "MTK2474:3OB0CAO74IWCOZNTFEHYUFD65VVHYN", "dateTime": 1517272052497}, {"current_trial": 152, "trialdata": {"rt": -1000, "trial_type": "single-audio", "word": "catcher", "stimulus": "/static/audio/wordpool/CATCHER.wav", "conditions": [24, 800, "a", 12000], "internal_node_id": "0.0-116.0", "trial": 3, "time_elapsed": 721357, "serialpos": 23, "key_press": -1, "wordID": 257, "type": "PRES_AUD", "trial_index": 152}, "uniqueid": "MTK2474:3OB0CAO74IWCOZNTFEHYUFD65VVHYN", "dateTime": 1517272054389}, {"current_trial": 153, "trialdata": {"rt": -1, "trial_type": "single-stim", "stimulus": "", "internal_node_id": "0.0-117.0-0.0", "time_elapsed": 722692, "key_press": -1, "type": "PRE_RECALL_DELAY", "trial_index": 153}, "uniqueid": "MTK2474:3OB0CAO74IWCOZNTFEHYUFD65VVHYN", "dateTime": 1517272055724}, {"current_trial": 154, "trialdata": {"rt": -1000, "trial_type": "single-audio", "stimulus": "/static/audio/400Hz.wav", "internal_node_id": "0.0-118.0", "time_elapsed": 723200, "key_press": -1, "type": "PRE_RECALL_ALERT", "trial_index": 154}, "uniqueid": "MTK2474:3OB0CAO74IWCOZNTFEHYUFD65VVHYN", "dateTime": 1517272056232}, {"current_trial": 155, "trialdata": {"rt": [2607, 2727, 4642, 6978, 8506, 9458, 10994, 12410, 21825, 29529, 36617, 50224], "recwords": ["ghetto", "", "catcher", "badge", "banker", "judge", "jury", "inmate", "bookkeeper", "beef", "piston", "tortoiuse"], "key_times": [400, 519, 623, 744, 1063, 1191, 1335, 1439, 1551, 1615, 1863, 1975, 2183, 2351, 2463, 2607, 2727, 3306, 3410, 3850, 3930, 4018, 4250, 4362, 4474, 4538, 4642, 6370, 6506, 6610, 6778, 6898, 6978, 7930, 8042, 8162, 8242, 8338, 8402, 8506, 8946, 9114, 9154, 9250, 9386, 9458, 9818, 9970, 10042, 10234, 10587, 10786, 10994, 11618, 11722, 11946, 12090, 12210, 12339, 12410, 19586, 19818, 19961, 20033, 20554, 20802, 21298, 21505, 21609, 21697, 21825, 28617, 28889, 29065, 29385, 29529, 35914, 36073, 36241, 36337, 36385, 36465, 36617, 43609, 43736, 43856, 44040, 44512, 44752, 44936, 45048, 45096, 45520, 45664, 45784, 45912, 46240, 46416, 46464, 47104, 47224, 47360, 47472, 47720, 48088, 48480, 48616, 49200, 49296, 49936, 50048, 50080, 50224], "trial_type": "free-recall", "conditions": [24, 800, "a", 12000], "internal_node_id": "0.0-119.0-0.0", "key_presses": [83, 72, 69, 84, 8, 8, 8, 8, 8, 71, 72, 69, 84, 84, 79, 32, 13, 67, 67, 8, 65, 84, 67, 72, 69, 82, 13, 66, 65, 68, 71, 69, 13, 66, 65, 78, 75, 69, 82, 13, 74, 85, 68, 71, 69, 13, 74, 85, 82, 82, 8, 89, 13, 73, 78, 77, 65, 84, 69, 13, 66, 79, 79, 75, 75, 69, 69, 80, 69, 82, 13, 66, 69, 69, 70, 13, 80, 73, 83, 84, 79, 78, 13, 84, 79, 82, 84, 79, 85, 73, 83, 69, 8, 8, 8, 8, 73, 83, 69, 8, 8, 8, 8, 85, 73, 8, 8, 79, 73, 85, 83, 69, 13], "trial": 3, "time_elapsed": 783207, "type": "FREE_RECALL", "trial_index": 155}, "uniqueid": "MTK2474:3OB0CAO74IWCOZNTFEHYUFD65VVHYN", "dateTime": 1517272116244}, {"current_trial": 156, "trialdata": {"rt": 1832, "trial_type": "text", "internal_node_id": "0.0-120.0", "time_elapsed": 787046, "key_press": 13, "type": "INSTRUCTIONS", "trial_index": 156}, "uniqueid": "MTK2474:3OB0CAO74IWCOZNTFEHYUFD65VVHYN", "dateTime": 1517272120078}, {"current_trial": 157, "trialdata": {"rt": [3165, 5101, 6965, 8781, 10349, 13077, 16605, 18677, 21444], "trial_type": "math-distractor", "key_times": [2853, 2965, 3165, 4765, 4925, 5101, 6629, 6773, 6965, 8446, 8613, 8781, 10093, 10349, 12789, 12861, 13077, 16301, 16421, 16605, 18325, 18501, 18677, 21124, 21292, 21444], "responses": ["13", "13", "14", "10", "7", "12", "22", "10", "20"], "num2": [2, 6, 1, 5, 3, 9, 9, 2, 3, 4], "num3": [9, 2, 8, 3, 3, 1, 8, 1, 9, 8], "conditions": [24, 1600, "a", 24000], "internal_node_id": "0.0-121.0", "key_presses": [97, 99, 13, 97, 99, 13, 97, 100, 13, 97, 96, 13, 103, 13, 97, 98, 13, 98, 98, 13, 97, 96, 13, 98, 96, 13], "trial": 4, "time_elapsed": 813049, "type": "DISTRACTOR", "trial_index": 157, "num1": [2, 5, 5, 2, 1, 2, 5, 7, 8, 9]}, "uniqueid": "MTK2474:3OB0CAO74IWCOZNTFEHYUFD65VVHYN", "dateTime": 1517272146081}, {"current_trial": 158, "trialdata": {"rt": -1, "trial_type": "single-stim", "stimulus": "<p id=\"stim\">10</p>", "internal_node_id": "0.0-122.0-0.0", "time_elapsed": 816052, "key_press": -1, "trial_index": 158}, "uniqueid": "MTK2474:3OB0CAO74IWCOZNTFEHYUFD65VVHYN", "dateTime": 1517272149084}, {"current_trial": 159, "trialdata": {"rt": -1, "trial_type": "single-stim", "stimulus": "<p id=\"stim\">9</p>", "internal_node_id": "0.0-122.0-1.0", "time_elapsed": 817054, "key_press": -1, "trial_index": 159}, "uniqueid": "MTK2474:3OB0CAO74IWCOZNTFEHYUFD65VVHYN", "dateTime": 1517272150086}, {"current_trial": 160, "trialdata": {"rt": -1, "trial_type": "single-stim", "stimulus": "<p id=\"stim\">8</p>", "internal_node_id": "0.0-122.0-2.0", "time_elapsed": 818056, "key_press": -1, "trial_index": 160}, "uniqueid": "MTK2474:3OB0CAO74IWCOZNTFEHYUFD65VVHYN", "dateTime": 1517272151088}, {"current_trial": 161, "trialdata": {"rt": -1, "trial_type": "single-stim", "stimulus": "<p id=\"stim\">7</p>", "internal_node_id": "0.0-122.0-3.0", "time_elapsed": 819057, "key_press": -1, "trial_index": 161}, "uniqueid": "MTK2474:3OB0CAO74IWCOZNTFEHYUFD65VVHYN", "dateTime": 1517272152089}, {"current_trial": 162, "trialdata": {"rt": -1, "trial_type": "single-stim", "stimulus": "<p id=\"stim\">6</p>", "internal_node_id": "0.0-122.0-4.0", "time_elapsed": 820059, "key_press": -1, "trial_index": 162}, "uniqueid": "MTK2474:3OB0CAO74IWCOZNTFEHYUFD65VVHYN", "dateTime": 1517272153091}, {"current_trial": 163, "trialdata": {"rt": -1, "trial_type": "single-stim", "stimulus": "<p id=\"stim\">5</p>", "internal_node_id": "0.0-122.0-5.0", "time_elapsed": 821061, "key_press": -1, "trial_index": 163}, "uniqueid": "MTK2474:3OB0CAO74IWCOZNTFEHYUFD65VVHYN", "dateTime": 1517272154093}, {"current_trial": 164, "trialdata": {"rt": -1, "trial_type": "single-stim", "stimulus": "<p id=\"stim\">4</p>", "internal_node_id": "0.0-122.0-6.0", "time_elapsed": 822063, "key_press": -1, "trial_index": 164}, "uniqueid": "MTK2474:3OB0CAO74IWCOZNTFEHYUFD65VVHYN", "dateTime": 1517272155095}, {"current_trial": 165, "trialdata": {"rt": -1, "trial_type": "single-stim", "stimulus": "<p id=\"stim\">3</p>", "internal_node_id": "0.0-122.0-7.0", "time_elapsed": 823065, "key_press": -1, "trial_index": 165}, "uniqueid": "MTK2474:3OB0CAO74IWCOZNTFEHYUFD65VVHYN", "dateTime": 1517272156097}, {"current_trial": 166, "trialdata": {"rt": -1, "trial_type": "single-stim", "stimulus": "<p id=\"stim\">2</p>", "internal_node_id": "0.0-122.0-8.0", "time_elapsed": 824067, "key_press": -1, "trial_index": 166}, "uniqueid": "MTK2474:3OB0CAO74IWCOZNTFEHYUFD65VVHYN", "dateTime": 1517272157099}, {"current_trial": 167, "trialdata": {"rt": -1, "trial_type": "single-stim", "stimulus": "<p id=\"stim\">1</p>", "internal_node_id": "0.0-122.0-9.0", "time_elapsed": 825068, "key_press": -1, "trial_index": 167}, "uniqueid": "MTK2474:3OB0CAO74IWCOZNTFEHYUFD65VVHYN", "dateTime": 1517272158100}, {"current_trial": 168, "trialdata": {"rt": -1, "trial_type": "single-stim", "stimulus": "<p id=\"stim\">+</p>", "internal_node_id": "0.0-123.0-0.0", "time_elapsed": 826570, "key_press": -1, "type": "FIXATION", "trial_index": 168}, "uniqueid": "MTK2474:3OB0CAO74IWCOZNTFEHYUFD65VVHYN", "dateTime": 1517272159602}, {"current_trial": 169, "trialdata": {"rt": -1000, "trial_type": "single-audio", "word": "tutu", "stimulus": "/static/audio/wordpool/TUTU.wav", "conditions": [24, 1600, "a", 24000], "internal_node_id": "0.0-124.0", "trial": 4, "time_elapsed": 829343, "serialpos": 0, "key_press": -1, "wordID": 1523, "type": "PRES_AUD", "trial_index": 169}, "uniqueid": "MTK2474:3OB0CAO74IWCOZNTFEHYUFD65VVHYN", "dateTime": 1517272162375}, {"current_trial": 170, "trialdata": {"rt": -1000, "trial_type": "single-audio", "word": "bug", "stimulus": "/static/audio/wordpool/BUG.wav", "conditions": [24, 1600, "a", 24000], "internal_node_id": "0.0-125.0", "trial": 4, "time_elapsed": 832097, "serialpos": 1, "key_press": -1, "wordID": 186, "type": "PRES_AUD", "trial_index": 170}, "uniqueid": "MTK2474:3OB0CAO74IWCOZNTFEHYUFD65VVHYN", "dateTime": 1517272165129}, {"current_trial": 171, "trialdata": {"rt": -1000, "trial_type": "single-audio", "word": "virus", "stimulus": "/static/audio/wordpool/VIRUS.wav", "conditions": [24, 1600, "a", 24000], "internal_node_id": "0.0-126.0", "trial": 4, "time_elapsed": 834840, "serialpos": 2, "key_press": -1, "wordID": 1571, "type": "PRES_AUD", "trial_index": 171}, "uniqueid": "MTK2474:3OB0CAO74IWCOZNTFEHYUFD65VVHYN", "dateTime": 1517272167872}, {"current_trial": 172, "trialdata": {"rt": -1000, "trial_type": "single-audio", "word": "fiddle", "stimulus": "/static/audio/wordpool/FIDDLE.wav", "conditions": [24, 1600, "a", 24000], "internal_node_id": "0.0-127.0", "trial": 4, "time_elapsed": 837257, "serialpos": 3, "key_press": -1, "wordID": 560, "type": "PRES_AUD", "trial_index": 172}, "uniqueid": "MTK2474:3OB0CAO74IWCOZNTFEHYUFD65VVHYN", "dateTime": 1517272170289}, {"current_trial": 173, "trialdata": {"rt": -1000, "trial_type": "single-audio", "word": "japan", "stimulus": "/static/audio/wordpool/JAPAN.wav", "conditions": [24, 1600, "a", 24000], "internal_node_id": "0.0-128.0", "trial": 4, "time_elapsed": 840002, "serialpos": 4, "key_press": -1, "wordID": 748, "type": "PRES_AUD", "trial_index": 173}, "uniqueid": "MTK2474:3OB0CAO74IWCOZNTFEHYUFD65VVHYN", "dateTime": 1517272173034}, {"current_trial": 174, "trialdata": {"rt": -1000, "trial_type": "single-audio", "word": "termite", "stimulus": "/static/audio/wordpool/TERMITE.wav", "conditions": [24, 1600, "a", 24000], "internal_node_id": "0.0-129.0", "trial": 4, "time_elapsed": 842698, "serialpos": 5, "key_press": -1, "wordID": 1450, "type": "PRES_AUD", "trial_index": 174}, "uniqueid": "MTK2474:3OB0CAO74IWCOZNTFEHYUFD65VVHYN", "dateTime": 1517272175730}, {"current_trial": 175, "trialdata": {"rt": -1000, "trial_type": "single-audio", "word": "rabbit", "stimulus": "/static/audio/wordpool/RABBIT.wav", "conditions": [24, 1600, "a", 24000], "internal_node_id": "0.0-130.0", "trial": 4, "time_elapsed": 845358, "serialpos": 6, "key_press": -1, "wordID": 1151, "type": "PRES_AUD", "trial_index": 175}, "uniqueid": "MTK2474:3OB0CAO74IWCOZNTFEHYUFD65VVHYN", "dateTime": 1517272178390}, {"current_trial": 176, "trialdata": {"rt": -1000, "trial_type": "single-audio", "word": "cousin", "stimulus": "/static/audio/wordpool/COUSIN.wav", "conditions": [24, 1600, "a", 24000], "internal_node_id": "0.0-131.0", "trial": 4, "time_elapsed": 848011, "serialpos": 7, "key_press": -1, "wordID": 391, "type": "PRES_AUD", "trial_index": 176}, "uniqueid": "MTK2474:3OB0CAO74IWCOZNTFEHYUFD65VVHYN", "dateTime": 1517272181043}, {"current_trial": 177, "trialdata": {"rt": -1000, "trial_type": "single-audio", "word": "pepper", "stimulus": "/static/audio/wordpool/PEPPER.wav", "conditions": [24, 1600, "a", 24000], "internal_node_id": "0.0-132.0", "trial": 4, "time_elapsed": 850756, "serialpos": 8, "key_press": -1, "wordID": 1046, "type": "PRES_AUD", "trial_index": 177}, "uniqueid": "MTK2474:3OB0CAO74IWCOZNTFEHYUFD65VVHYN", "dateTime": 1517272183788}, {"current_trial": 178, "trialdata": {"rt": -1000, "trial_type": "single-audio", "word": "guitar", "stimulus": "/static/audio/wordpool/GUITAR.wav", "conditions": [24, 1600, "a", 24000], "internal_node_id": "0.0-133.0", "trial": 4, "time_elapsed": 853272, "serialpos": 9, "key_press": -1, "wordID": 669, "type": "PRES_AUD", "trial_index": 178}, "uniqueid": "MTK2474:3OB0CAO74IWCOZNTFEHYUFD65VVHYN", "dateTime": 1517272186304}, {"current_trial": 179, "trialdata": {"rt": -1000, "trial_type": "single-audio", "word": "baby", "stimulus": "/static/audio/wordpool/BABY.wav", "conditions": [24, 1600, "a", 24000], "internal_node_id": "0.0-134.0", "trial": 4, "time_elapsed": 856009, "serialpos": 10, "key_press": -1, "wordID": 63, "type": "PRES_AUD", "trial_index": 179}, "uniqueid": "MTK2474:3OB0CAO74IWCOZNTFEHYUFD65VVHYN", "dateTime": 1517272189041}, {"current_trial": 180, "trialdata": {"rt": -1000, "trial_type": "single-audio", "word": "france", "stimulus": "/static/audio/wordpool/FRANCE.wav", "conditions": [24, 1600, "a", 24000], "internal_node_id": "0.0-135.0", "trial": 4, "time_elapsed": 858462, "serialpos": 11, "key_press": -1, "wordID": 600, "type": "PRES_AUD", "trial_index": 180}, "uniqueid": "MTK2474:3OB0CAO74IWCOZNTFEHYUFD65VVHYN", "dateTime": 1517272191494}, {"current_trial": 181, "trialdata": {"rt": -1000, "trial_type": "single-audio", "word": "flask", "stimulus": "/static/audio/wordpool/FLASK.wav", "conditions": [24, 1600, "a", 24000], "internal_node_id": "0.0-136.0", "trial": 4, "time_elapsed": 861175, "serialpos": 12, "key_press": -1, "wordID": 575, "type": "PRES_AUD", "trial_index": 181}, "uniqueid": "MTK2474:3OB0CAO74IWCOZNTFEHYUFD65VVHYN", "dateTime": 1517272194207}, {"current_trial": 182, "trialdata": {"rt": -1000, "trial_type": "single-audio", "word": "lunch", "stimulus": "/static/audio/wordpool/LUNCH.wav", "conditions": [24, 1600, "a", 24000], "internal_node_id": "0.0-137.0", "trial": 4, "time_elapsed": 863673, "serialpos": 13, "key_press": -1, "wordID": 848, "type": "PRES_AUD", "trial_index": 182}, "uniqueid": "MTK2474:3OB0CAO74IWCOZNTFEHYUFD65VVHYN", "dateTime": 1517272196705}, {"current_trial": 183, "trialdata": {"rt": -1000, "trial_type": "single-audio", "word": "pudding", "stimulus": "/static/audio/wordpool/PUDDING.wav", "conditions": [24, 1600, "a", 24000], "internal_node_id": "0.0-138.0", "trial": 4, "time_elapsed": 866431, "serialpos": 14, "key_press": -1, "wordID": 1138, "type": "PRES_AUD", "trial_index": 183}, "uniqueid": "MTK2474:3OB0CAO74IWCOZNTFEHYUFD65VVHYN", "dateTime": 1517272199463}, {"current_trial": 184, "trialdata": {"rt": -1000, "trial_type": "single-audio", "word": "bank", "stimulus": "/static/audio/wordpool/BANK.wav", "conditions": [24, 1600, "a", 24000], "internal_node_id": "0.0-139.0", "trial": 4, "time_elapsed": 869231, "serialpos": 15, "key_press": -1, "wordID": 82, "type": "PRES_AUD", "trial_index": 184}, "uniqueid": "MTK2474:3OB0CAO74IWCOZNTFEHYUFD65VVHYN", "dateTime": 1517272202263}, {"current_trial": 185, "trialdata": {"rt": -1000, "trial_type": "single-audio", "word": "transplant", "stimulus": "/static/audio/wordpool/TRANSPLANT.wav", "conditions": [24, 1600, "a", 24000], "internal_node_id": "0.0-140.0", "trial": 4, "time_elapsed": 871766, "serialpos": 16, "key_press": -1, "wordID": 1495, "type": "PRES_AUD", "trial_index": 185}, "uniqueid": "MTK2474:3OB0CAO74IWCOZNTFEHYUFD65VVHYN", "dateTime": 1517272204798}, {"current_trial": 186, "trialdata": {"rt": -1000, "trial_type": "single-audio", "word": "salmon", "stimulus": "/static/audio/wordpool/SALMON.wav", "conditions": [24, 1600, "a", 24000], "internal_node_id": "0.0-141.0", "trial": 4, "time_elapsed": 874252, "serialpos": 17, "key_press": -1, "wordID": 1226, "type": "PRES_AUD", "trial_index": 186}, "uniqueid": "MTK2474:3OB0CAO74IWCOZNTFEHYUFD65VVHYN", "dateTime": 1517272207284}, {"current_trial": 187, "trialdata": {"rt": -1000, "trial_type": "single-audio", "word": "dime", "stimulus": "/static/audio/wordpool/DIME.wav", "conditions": [24, 1600, "a", 24000], "internal_node_id": "0.0-142.0", "trial": 4, "time_elapsed": 876757, "serialpos": 18, "key_press": -1, "wordID": 465, "type": "PRES_AUD", "trial_index": 187}, "uniqueid": "MTK2474:3OB0CAO74IWCOZNTFEHYUFD65VVHYN", "dateTime": 1517272209789}, {"current_trial": 188, "trialdata": {"rt": -1000, "trial_type": "single-audio", "word": "couch", "stimulus": "/static/audio/wordpool/COUCH.wav", "conditions": [24, 1600, "a", 24000], "internal_node_id": "0.0-143.0", "trial": 4, "time_elapsed": 879210, "serialpos": 19, "key_press": -1, "wordID": 385, "type": "PRES_AUD", "trial_index": 188}, "uniqueid": "MTK2474:3OB0CAO74IWCOZNTFEHYUFD65VVHYN", "dateTime": 1517272212242}, {"current_trial": 189, "trialdata": {"rt": -1000, "trial_type": "single-audio", "word": "branch", "stimulus": "/static/audio/wordpool/BRANCH.wav", "conditions": [24, 1600, "a", 24000], "internal_node_id": "0.0-144.0", "trial": 4, "time_elapsed": 881984, "serialpos": 20, "key_press": -1, "wordID": 167, "type": "PRES_AUD", "trial_index": 189}, "uniqueid": "MTK2474:3OB0CAO74IWCOZNTFEHYUFD65VVHYN", "dateTime": 1517272215017}, {"current_trial": 190, "trialdata": {"rt": -1000, "trial_type": "single-audio", "word": "zebra", "stimulus": "/static/audio/wordpool/ZEBRA.wav", "conditions": [24, 1600, "a", 24000], "internal_node_id": "0.0-145.0", "trial": 4, "time_elapsed": 884575, "serialpos": 21, "key_press": -1, "wordID": 1634, "type": "PRES_AUD", "trial_index": 190}, "uniqueid": "MTK2474:3OB0CAO74IWCOZNTFEHYUFD65VVHYN", "dateTime": 1517272217607}, {"current_trial": 191, "trialdata": {"rt": -1000, "trial_type": "single-audio", "word": "panther", "stimulus": "/static/audio/wordpool/PANTHER.wav", "conditions": [24, 1600, "a", 24000], "internal_node_id": "0.0-146.0", "trial": 4, "time_elapsed": 886984, "serialpos": 22, "key_press": -1, "wordID": 1008, "type": "PRES_AUD", "trial_index": 191}, "uniqueid": "MTK2474:3OB0CAO74IWCOZNTFEHYUFD65VVHYN", "dateTime": 1517272220016}, {"current_trial": 192, "trialdata": {"rt": -1000, "trial_type": "single-audio", "word": "omelet", "stimulus": "/static/audio/wordpool/OMELET.wav", "conditions": [24, 1600, "a", 24000], "internal_node_id": "0.0-147.0", "trial": 4, "time_elapsed": 889617, "serialpos": 23, "key_press": -1, "wordID": 975, "type": "PRES_AUD", "trial_index": 192}, "uniqueid": "MTK2474:3OB0CAO74IWCOZNTFEHYUFD65VVHYN", "dateTime": 1517272222649}, {"current_trial": 193, "trialdata": {"rt": -1, "trial_type": "single-stim", "stimulus": "", "internal_node_id": "0.0-148.0-0.0", "time_elapsed": 890873, "key_press": -1, "type": "PRE_RECALL_DELAY", "trial_index": 193}, "uniqueid": "MTK2474:3OB0CAO74IWCOZNTFEHYUFD65VVHYN", "dateTime": 1517272223905}, {"current_trial": 194, "trialdata": {"rt": -1000, "trial_type": "single-audio", "stimulus": "/static/audio/400Hz.wav", "internal_node_id": "0.0-149.0", "time_elapsed": 891378, "key_press": -1, "type": "PRE_RECALL_ALERT", "trial_index": 194}, "uniqueid": "MTK2474:3OB0CAO74IWCOZNTFEHYUFD65VVHYN", "dateTime": 1517272224410}, {"current_trial": 195, "trialdata": {"rt": [1437, 3149, 4397, 5773, 6613, 9556, 11004, 11692, 13829, 15997, 20213, 21501, 28573], "recwords": ["om", "omlet", "zebra", "panther", "couch", "fiddle", "tutu", "bug", "fiddle", "bank", "japan", "france", "salmon"], "key_times": [406, 526, 533, 1085, 1205, 1429, 1437, 1557, 2157, 2381, 2501, 2813, 2965, 3029, 3149, 3605, 3789, 4013, 4205, 4293, 4397, 5036, 5157, 5277, 5357, 5485, 5589, 5653, 5773, 6053, 6141, 6213, 6349, 6421, 6613, 8877, 8965, 9133, 9277, 9373, 9468, 9556, 10060, 10180, 10268, 10789, 11004, 11300, 11404, 11549, 11692, 12908, 13004, 13132, 13284, 13572, 13692, 13829, 15509, 15653, 15733, 15805, 15997, 18461, 18525, 18605, 18789, 18893, 19485, 19845, 19933, 20053, 20213, 20293, 20404, 20501, 20597, 20717, 20789, 20885, 21221, 21317, 21485, 21501, 27693, 27789, 27909, 28013, 28285, 28365, 28573], "trial_type": "free-recall", "conditions": [24, 1600, "a", 24000], "internal_node_id": "0.0-150.0-0.0", "key_presses": [79, 74, 77, 8, 8, 77, 32, 76, 8, 79, 77, 76, 69, 84, 13, 90, 69, 66, 82, 65, 13, 80, 65, 78, 84, 72, 69, 82, 13, 67, 79, 85, 67, 72, 13, 70, 73, 68, 68, 76, 69, 13, 84, 85, 84, 85, 13, 66, 85, 71, 13, 70, 73, 68, 68, 76, 69, 13, 66, 65, 78, 75, 13, 20, 74, 20, 65, 80, 78, 8, 65, 78, 13, 20, 70, 20, 82, 65, 78, 75, 8, 67, 69, 13, 83, 65, 76, 77, 79, 78, 13], "trial": 4, "time_elapsed": 951383, "type": "FREE_RECALL", "trial_index": 195}, "uniqueid": "MTK2474:3OB0CAO74IWCOZNTFEHYUFD65VVHYN", "dateTime": 1517272284421}, {"current_trial": 196, "trialdata": {"rt": 2610, "trial_type": "text", "internal_node_id": "0.0-151.0", "time_elapsed": 956000, "key_press": 13, "type": "INSTRUCTIONS", "trial_index": 196}, "uniqueid": "MTK2474:3OB0CAO74IWCOZNTFEHYUFD65VVHYN", "dateTime": 1517272289033}, {"current_trial": 197, "trialdata": {"rt": [2637, 6332, 7884, 9986, 11481, 14257, 17409, 19569, 22345], "trial_type": "math-distractor", "key_times": [2285, 2421, 2637, 5956, 6116, 6332, 7548, 7636, 7884, 9682, 9738, 9986, 11225, 11481, 13921, 14049, 14257, 17009, 17161, 17409, 19233, 19385, 19569, 21985, 22129, 22345], "responses": ["16", "17", "15", "20", "6", "11", "17", "21", "21"], "num2": [3, 7, 2, 4, 2, 4, 8, 8, 5, 7], "num3": [7, 1, 5, 8, 2, 7, 2, 8, 8, 9], "conditions": [12, 1600, "a", 24000], "internal_node_id": "0.0-152.0", "key_presses": [97, 102, 13, 97, 103, 13, 97, 101, 13, 98, 96, 13, 102, 13, 97, 97, 13, 97, 103, 13, 98, 97, 13, 98, 97, 13], "trial": 5, "time_elapsed": 982011, "type": "DISTRACTOR", "trial_index": 197, "num1": [6, 9, 8, 8, 2, 1, 7, 5, 8, 7]}, "uniqueid": "MTK2474:3OB0CAO74IWCOZNTFEHYUFD65VVHYN", "dateTime": 1517272315043}, {"current_trial": 198, "trialdata": {"rt": -1, "trial_type": "single-stim", "stimulus": "<p id=\"stim\">10</p>", "internal_node_id": "0.0-153.0-0.0", "time_elapsed": 985013, "key_press": -1, "trial_index": 198}, "uniqueid": "MTK2474:3OB0CAO74IWCOZNTFEHYUFD65VVHYN", "dateTime": 1517272318045}, {"current_trial": 199, "trialdata": {"rt": -1, "trial_type": "single-stim", "stimulus": "<p id=\"stim\">9</p>", "internal_node_id": "0.0-153.0-1.0", "time_elapsed": 986014, "key_press": -1, "trial_index": 199}, "uniqueid": "MTK2474:3OB0CAO74IWCOZNTFEHYUFD65VVHYN", "dateTime": 1517272319046}, {"current_trial": 200, "trialdata": {"rt": -1, "trial_type": "single-stim", "stimulus": "<p id=\"stim\">8</p>", "internal_node_id": "0.0-153.0-2.0", "time_elapsed": 987016, "key_press": -1, "trial_index": 200}, "uniqueid": "MTK2474:3OB0CAO74IWCOZNTFEHYUFD65VVHYN", "dateTime": 1517272320048}, {"current_trial": 201, "trialdata": {"rt": -1, "trial_type": "single-stim", "stimulus": "<p id=\"stim\">7</p>", "internal_node_id": "0.0-153.0-3.0", "time_elapsed": 988018, "key_press": -1, "trial_index": 201}, "uniqueid": "MTK2474:3OB0CAO74IWCOZNTFEHYUFD65VVHYN", "dateTime": 1517272321050}, {"current_trial": 202, "trialdata": {"rt": -1, "trial_type": "single-stim", "stimulus": "<p id=\"stim\">6</p>", "internal_node_id": "0.0-153.0-4.0", "time_elapsed": 989019, "key_press": -1, "trial_index": 202}, "uniqueid": "MTK2474:3OB0CAO74IWCOZNTFEHYUFD65VVHYN", "dateTime": 1517272322051}, {"current_trial": 203, "trialdata": {"rt": -1, "trial_type": "single-stim", "stimulus": "<p id=\"stim\">5</p>", "internal_node_id": "0.0-153.0-5.0", "time_elapsed": 990020, "key_press": -1, "trial_index": 203}, "uniqueid": "MTK2474:3OB0CAO74IWCOZNTFEHYUFD65VVHYN", "dateTime": 1517272323052}, {"current_trial": 204, "trialdata": {"rt": -1, "trial_type": "single-stim", "stimulus": "<p id=\"stim\">4</p>", "internal_node_id": "0.0-153.0-6.0", "time_elapsed": 991021, "key_press": -1, "trial_index": 204}, "uniqueid": "MTK2474:3OB0CAO74IWCOZNTFEHYUFD65VVHYN", "dateTime": 1517272324053}, {"current_trial": 205, "trialdata": {"rt": -1, "trial_type": "single-stim", "stimulus": "<p id=\"stim\">3</p>", "internal_node_id": "0.0-153.0-7.0", "time_elapsed": 992022, "key_press": -1, "trial_index": 205}, "uniqueid": "MTK2474:3OB0CAO74IWCOZNTFEHYUFD65VVHYN", "dateTime": 1517272325054}, {"current_trial": 206, "trialdata": {"rt": -1, "trial_type": "single-stim", "stimulus": "<p id=\"stim\">2</p>", "internal_node_id": "0.0-153.0-8.0", "time_elapsed": 993023, "key_press": -1, "trial_index": 206}, "uniqueid": "MTK2474:3OB0CAO74IWCOZNTFEHYUFD65VVHYN", "dateTime": 1517272326055}, {"current_trial": 207, "trialdata": {"rt": -1, "trial_type": "single-stim", "stimulus": "<p id=\"stim\">1</p>", "internal_node_id": "0.0-153.0-9.0", "time_elapsed": 994024, "key_press": -1, "trial_index": 207}, "uniqueid": "MTK2474:3OB0CAO74IWCOZNTFEHYUFD65VVHYN", "dateTime": 1517272327056}, {"current_trial": 208, "trialdata": {"rt": -1, "trial_type": "single-stim", "stimulus": "<p id=\"stim\">+</p>", "internal_node_id": "0.0-154.0-0.0", "time_elapsed": 995525, "key_press": -1, "type": "FIXATION", "trial_index": 208}, "uniqueid": "MTK2474:3OB0CAO74IWCOZNTFEHYUFD65VVHYN", "dateTime": 1517272328557}, {"current_trial": 209, "trialdata": {"rt": -1000, "trial_type": "single-audio", "word": "salt", "stimulus": "/static/audio/wordpool/SALT.wav", "conditions": [12, 1600, "a", 24000], "internal_node_id": "0.0-155.0", "trial": 5, "time_elapsed": 998151, "serialpos": 0, "key_press": -1, "wordID": 1228, "type": "PRES_AUD", "trial_index": 209}, "uniqueid": "MTK2474:3OB0CAO74IWCOZNTFEHYUFD65VVHYN", "dateTime": 1517272331183}, {"current_trial": 210, "trialdata": {"rt": -1000, "trial_type": "single-audio", "word": "orange", "stimulus": "/static/audio/wordpool/ORANGE.wav", "conditions": [12, 1600, "a", 24000], "internal_node_id": "0.0-156.0", "trial": 5, "time_elapsed": 1000659, "serialpos": 1, "key_press": -1, "wordID": 979, "type": "PRES_AUD", "trial_index": 210}, "uniqueid": "MTK2474:3OB0CAO74IWCOZNTFEHYUFD65VVHYN", "dateTime": 1517272333691}, {"current_trial": 211, "trialdata": {"rt": -1000, "trial_type": "single-audio", "word": "receipt", "stimulus": "/static/audio/wordpool/RECEIPT.wav", "conditions": [12, 1600, "a", 24000], "internal_node_id": "0.0-157.0", "trial": 5, "time_elapsed": 1003157, "serialpos": 2, "key_press": -1, "wordID": 1172, "type": "PRES_AUD", "trial_index": 211}, "uniqueid": "MTK2474:3OB0CAO74IWCOZNTFEHYUFD65VVHYN", "dateTime": 1517272336189}, {"current_trial": 212, "trialdata": {"rt": -1000, "trial_type": "single-audio", "word": "pizza", "stimulus": "/static/audio/wordpool/PIZZA.wav", "conditions": [12, 1600, "a", 24000], "internal_node_id": "0.0-158.0", "trial": 5, "time_elapsed": 1005672, "serialpos": 3, "key_press": -1, "wordID": 1078, "type": "PRES_AUD", "trial_index": 212}, "uniqueid": "MTK2474:3OB0CAO74IWCOZNTFEHYUFD65VVHYN", "dateTime": 1517272338704}, {"current_trial": 213, "trialdata": {"rt": -1000, "trial_type": "single-audio", "word": "apple", "stimulus": "/static/audio/wordpool/APPLE.wav", "conditions": [12, 1600, "a", 24000], "internal_node_id": "0.0-159.0", "trial": 5, "time_elapsed": 1008349, "serialpos": 4, "key_press": -1, "wordID": 32, "type": "PRES_AUD", "trial_index": 213}, "uniqueid": "MTK2474:3OB0CAO74IWCOZNTFEHYUFD65VVHYN", "dateTime": 1517272341381}, {"current_trial": 214, "trialdata": {"rt": -1000, "trial_type": "single-audio", "word": "dragon", "stimulus": "/static/audio/wordpool/DRAGON.wav", "conditions": [12, 1600, "a", 24000], "internal_node_id": "0.0-160.0", "trial": 5, "time_elapsed": 1011057, "serialpos": 5, "key_press": -1, "wordID": 491, "type": "PRES_AUD", "trial_index": 214}, "uniqueid": "MTK2474:3OB0CAO74IWCOZNTFEHYUFD65VVHYN", "dateTime": 1517272344089}, {"current_trial": 215, "trialdata": {"rt": -1000, "trial_type": "single-audio", "word": "twig", "stimulus": "/static/audio/wordpool/TWIG.wav", "conditions": [12, 1600, "a", 24000], "internal_node_id": "0.0-161.0", "trial": 5, "time_elapsed": 1013612, "serialpos": 6, "key_press": -1, "wordID": 1526, "type": "PRES_AUD", "trial_index": 215}, "uniqueid": "MTK2474:3OB0CAO74IWCOZNTFEHYUFD65VVHYN", "dateTime": 1517272346645}, {"current_trial": 216, "trialdata": {"rt": -1000, "trial_type": "single-audio", "word": "pasta", "stimulus": "/static/audio/wordpool/PASTA.wav", "conditions": [12, 1600, "a", 24000], "internal_node_id": "0.0-162.0", "trial": 5, "time_elapsed": 1016118, "serialpos": 7, "key_press": -1, "wordID": 1020, "type": "PRES_AUD", "trial_index": 216}, "uniqueid": "MTK2474:3OB0CAO74IWCOZNTFEHYUFD65VVHYN", "dateTime": 1517272349150}, {"current_trial": 217, "trialdata": {"rt": -1000, "trial_type": "single-audio", "word": "napkin", "stimulus": "/static/audio/wordpool/NAPKIN.wav", "conditions": [12, 1600, "a", 24000], "internal_node_id": "0.0-163.0", "trial": 5, "time_elapsed": 1018918, "serialpos": 8, "key_press": -1, "wordID": 936, "type": "PRES_AUD", "trial_index": 217}, "uniqueid": "MTK2474:3OB0CAO74IWCOZNTFEHYUFD65VVHYN", "dateTime": 1517272351952}, {"current_trial": 218, "trialdata": {"rt": -1000, "trial_type": "single-audio", "word": "parsley", "stimulus": "/static/audio/wordpool/PARSLEY.wav", "conditions": [12, 1600, "a", 24000], "internal_node_id": "0.0-164.0", "trial": 5, "time_elapsed": 1021550, "serialpos": 9, "key_press": -1, "wordID": 1015, "type": "PRES_AUD", "trial_index": 218}, "uniqueid": "MTK2474:3OB0CAO74IWCOZNTFEHYUFD65VVHYN", "dateTime": 1517272354582}, {"current_trial": 219, "trialdata": {"rt": -1000, "trial_type": "single-audio", "word": "cabbage", "stimulus": "/static/audio/wordpool/CABBAGE.wav", "conditions": [12, 1600, "a", 24000], "internal_node_id": "0.0-165.0", "trial": 5, "time_elapsed": 1023967, "serialpos": 10, "key_press": -1, "wordID": 209, "type": "PRES_AUD", "trial_index": 219}, "uniqueid": "MTK2474:3OB0CAO74IWCOZNTFEHYUFD65VVHYN", "dateTime": 1517272357000}, {"current_trial": 220, "trialdata": {"rt": -1000, "trial_type": "single-audio", "word": "pistol", "stimulus": "/static/audio/wordpool/PISTOL.wav", "conditions": [12, 1600, "a", 24000], "internal_node_id": "0.0-166.0", "trial": 5, "time_elapsed": 1026743, "serialpos": 11, "key_press": -1, "wordID": 1074, "type": "PRES_AUD", "trial_index": 220}, "uniqueid": "MTK2474:3OB0CAO74IWCOZNTFEHYUFD65VVHYN", "dateTime": 1517272359775}, {"current_trial": 221, "trialdata": {"rt": -1, "trial_type": "single-stim", "stimulus": "", "internal_node_id": "0.0-167.0-0.0", "time_elapsed": 1027989, "key_press": -1, "type": "PRE_RECALL_DELAY", "trial_index": 221}, "uniqueid": "MTK2474:3OB0CAO74IWCOZNTFEHYUFD65VVHYN", "dateTime": 1517272361021}, {"current_trial": 222, "trialdata": {"rt": -1000, "trial_type": "single-audio", "stimulus": "/static/audio/400Hz.wav", "internal_node_id": "0.0-168.0", "time_elapsed": 1028497, "key_press": -1, "type": "PRE_RECALL_ALERT", "trial_index": 222}, "uniqueid": "MTK2474:3OB0CAO74IWCOZNTFEHYUFD65VVHYN", "dateTime": 1517272361529}, {"current_trial": 223, "trialdata": {"rt": [3697, 4809, 7514, 9905, 11033, 13161, 15169, 16497, 23985, 56712], "recwords": ["pistol", "orange", "napkin", "apple", "pasta", "cab", "cabbage", "pistol", "twig", ""], "key_times": [1939, 2074, 2202, 2362, 2706, 2873, 3697, 4121, 4225, 4402, 4530, 4594, 4738, 4809, 5857, 5961, 6065, 6241, 6745, 6994, 7177, 7266, 7514, 8969, 9097, 9233, 9457, 9785, 9905, 10457, 10537, 10633, 10745, 10897, 11033, 12410, 12769, 12865, 13001, 13153, 13161, 13313, 13497, 13832, 13969, 14089, 14169, 14305, 14545, 14689, 14849, 14945, 15081, 15169, 15712, 15864, 15977, 16089, 16161, 16329, 16497, 23466, 23673, 23737, 23905, 23985, 56712], "trial_type": "free-recall", "conditions": [12, 1600, "a", 24000], "internal_node_id": "0.0-169.0-0.0", "key_presses": [80, 73, 83, 84, 79, 76, 13, 79, 82, 65, 78, 71, 69, 13, 78, 65, 80, 84, 8, 75, 73, 78, 13, 65, 80, 80, 76, 69, 13, 80, 65, 83, 84, 65, 13, 66, 8, 67, 65, 66, 32, 66, 65, 8, 8, 8, 67, 65, 66, 66, 65, 71, 69, 13, 80, 73, 83, 84, 79, 76, 13, 84, 87, 73, 71, 13, 32], "trial": 5, "time_elapsed": 1088504, "type": "FREE_RECALL", "trial_index": 223}, "uniqueid": "MTK2474:3OB0CAO74IWCOZNTFEHYUFD65VVHYN", "dateTime": 1517272421543}, {"current_trial": 224, "trialdata": {"rt": 2836, "trial_type": "text", "internal_node_id": "0.0-170.0", "time_elapsed": 1093349, "key_press": 13, "type": "INSTRUCTIONS", "trial_index": 224}, "uniqueid": "MTK2474:3OB0CAO74IWCOZNTFEHYUFD65VVHYN", "dateTime": 1517272426381}, {"current_trial": 225, "trialdata": {"rt": [2917, 5765, 7669, 10917], "trial_type": "math-distractor", "key_times": [2510, 2669, 2917, 5429, 5525, 5765, 7317, 7477, 7669, 10653, 10917], "responses": ["17", "15", "10", "8"], "num2": [5, 6, 5, 2, 2], "num3": [8, 8, 2, 4, 7], "conditions": [24, 800, "a", 12000], "internal_node_id": "0.0-171.0", "key_presses": [97, 103, 13, 97, 101, 13, 97, 96, 13, 104, 13], "trial": 6, "time_elapsed": 1107353, "type": "DISTRACTOR", "trial_index": 225, "num1": [4, 1, 3, 2, 6]}, "uniqueid": "MTK2474:3OB0CAO74IWCOZNTFEHYUFD65VVHYN", "dateTime": 1517272440385}, {"current_trial": 226, "trialdata": {"rt": -1, "trial_type": "single-stim", "stimulus": "<p id=\"stim\">10</p>", "internal_node_id": "0.0-172.0-0.0", "time_elapsed": 1110355, "key_press": -1, "trial_index": 226}, "uniqueid": "MTK2474:3OB0CAO74IWCOZNTFEHYUFD65VVHYN", "dateTime": 1517272443387}, {"current_trial": 227, "trialdata": {"rt": -1, "trial_type": "single-stim", "stimulus": "<p id=\"stim\">9</p>", "internal_node_id": "0.0-172.0-1.0", "time_elapsed": 1111357, "key_press": -1, "trial_index": 227}, "uniqueid": "MTK2474:3OB0CAO74IWCOZNTFEHYUFD65VVHYN", "dateTime": 1517272444389}, {"current_trial": 228, "trialdata": {"rt": -1, "trial_type": "single-stim", "stimulus": "<p id=\"stim\">8</p>", "internal_node_id": "0.0-172.0-2.0", "time_elapsed": 1112359, "key_press": -1, "trial_index": 228}, "uniqueid": "MTK2474:3OB0CAO74IWCOZNTFEHYUFD65VVHYN", "dateTime": 1517272445391}, {"current_trial": 229, "trialdata": {"rt": -1, "trial_type": "single-stim", "stimulus": "<p id=\"stim\">7</p>", "internal_node_id": "0.0-172.0-3.0", "time_elapsed": 1113361, "key_press": -1, "trial_index": 229}, "uniqueid": "MTK2474:3OB0CAO74IWCOZNTFEHYUFD65VVHYN", "dateTime": 1517272446393}, {"current_trial": 230, "trialdata": {"rt": -1, "trial_type": "single-stim", "stimulus": "<p id=\"stim\">6</p>", "internal_node_id": "0.0-172.0-4.0", "time_elapsed": 1114363, "key_press": -1, "trial_index": 230}, "uniqueid": "MTK2474:3OB0CAO74IWCOZNTFEHYUFD65VVHYN", "dateTime": 1517272447395}, {"current_trial": 231, "trialdata": {"rt": -1, "trial_type": "single-stim", "stimulus": "<p id=\"stim\">5</p>", "internal_node_id": "0.0-172.0-5.0", "time_elapsed": 1115364, "key_press": -1, "trial_index": 231}, "uniqueid": "MTK2474:3OB0CAO74IWCOZNTFEHYUFD65VVHYN", "dateTime": 1517272448396}, {"current_trial": 232, "trialdata": {"rt": -1, "trial_type": "single-stim", "stimulus": "<p id=\"stim\">4</p>", "internal_node_id": "0.0-172.0-6.0", "time_elapsed": 1116365, "key_press": -1, "trial_index": 232}, "uniqueid": "MTK2474:3OB0CAO74IWCOZNTFEHYUFD65VVHYN", "dateTime": 1517272449397}, {"current_trial": 233, "trialdata": {"rt": -1, "trial_type": "single-stim", "stimulus": "<p id=\"stim\">3</p>", "internal_node_id": "0.0-172.0-7.0", "time_elapsed": 1117367, "key_press": -1, "trial_index": 233}, "uniqueid": "MTK2474:3OB0CAO74IWCOZNTFEHYUFD65VVHYN", "dateTime": 1517272450399}, {"current_trial": 234, "trialdata": {"rt": -1, "trial_type": "single-stim", "stimulus": "<p id=\"stim\">2</p>", "internal_node_id": "0.0-172.0-8.0", "time_elapsed": 1118369, "key_press": -1, "trial_index": 234}, "uniqueid": "MTK2474:3OB0CAO74IWCOZNTFEHYUFD65VVHYN", "dateTime": 1517272451401}, {"current_trial": 235, "trialdata": {"rt": -1, "trial_type": "single-stim", "stimulus": "<p id=\"stim\">1</p>", "internal_node_id": "0.0-172.0-9.0", "time_elapsed": 1119371, "key_press": -1, "trial_index": 235}, "uniqueid": "MTK2474:3OB0CAO74IWCOZNTFEHYUFD65VVHYN", "dateTime": 1517272452404}, {"current_trial": 236, "trialdata": {"rt": -1, "trial_type": "single-stim", "stimulus": "<p id=\"stim\">+</p>", "internal_node_id": "0.0-173.0-0.0", "time_elapsed": 1120873, "key_press": -1, "type": "FIXATION", "trial_index": 236}, "uniqueid": "MTK2474:3OB0CAO74IWCOZNTFEHYUFD65VVHYN", "dateTime": 1517272453905}, {"current_trial": 237, "trialdata": {"rt": -1000, "trial_type": "single-audio", "word": "doughnut", "stimulus": "/static/audio/wordpool/DOUGHNUT.wav", "conditions": [24, 800, "a", 12000], "internal_node_id": "0.0-174.0", "trial": 6, "time_elapsed": 1122836, "serialpos": 0, "key_press": -1, "wordID": 489, "type": "PRES_AUD", "trial_index": 237}, "uniqueid": "MTK2474:3OB0CAO74IWCOZNTFEHYUFD65VVHYN", "dateTime": 1517272455868}, {"current_trial": 238, "trialdata": {"rt": -1000, "trial_type": "single-audio", "word": "possum", "stimulus": "/static/audio/wordpool/POSSUM.wav", "conditions": [24, 800, "a", 12000], "internal_node_id": "0.0-175.0", "trial": 6, "time_elapsed": 1124459, "serialpos": 1, "key_press": -1, "wordID": 1111, "type": "PRES_AUD", "trial_index": 238}, "uniqueid": "MTK2474:3OB0CAO74IWCOZNTFEHYUFD65VVHYN", "dateTime": 1517272457491}, {"current_trial": 239, "trialdata": {"rt": -1000, "trial_type": "single-audio", "word": "pimple", "stimulus": "/static/audio/wordpool/PIMPLE.wav", "conditions": [24, 800, "a", 12000], "internal_node_id": "0.0-176.0", "trial": 6, "time_elapsed": 1126224, "serialpos": 2, "key_press": -1, "wordID": 1070, "type": "PRES_AUD", "trial_index": 239}, "uniqueid": "MTK2474:3OB0CAO74IWCOZNTFEHYUFD65VVHYN", "dateTime": 1517272459256}, {"current_trial": 240, "trialdata": {"rt": -1000, "trial_type": "single-audio", "word": "shovel", "stimulus": "/static/audio/wordpool/SHOVEL.wav", "conditions": [24, 800, "a", 12000], "internal_node_id": "0.0-177.0", "trial": 6, "time_elapsed": 1127934, "serialpos": 3, "key_press": -1, "wordID": 1294, "type": "PRES_AUD", "trial_index": 240}, "uniqueid": "MTK2474:3OB0CAO74IWCOZNTFEHYUFD65VVHYN", "dateTime": 