{"assignmentId": "33IZTU6J828CE3BZLC7VFFDZB9LXS2", "workerId": "MTK2104", "questiondata": {"origin": "United States", "strat-rehearsal": "100", "marital": "Married/Domestic Partnership", "education": "Some college", "ethnicity": "Not Hispanic", "color_depth": 24, "distracted": "No", "wrote-notes": "No", "strat-other": "i used rhyming to help me recall words, some words a sang in a certain tone and then later when i hummed the tone i could remember the word i associated to it because i remembered how in school when taking a test i would hum the song i listened to while i studied and it would help me remember the information i studied.", "screen_width": 1920, "avail_screen_width": 1920, "avail_screen_height": 1040, "strat-image": "0", "language": "english", "gender": "Female", "age": "35", "gender_other": "", "race": ["Black"], "strat-categorize": "100", "pixel_depth": 24, "strat-spatial": "0", "strat-story": "47", "race_other": "", "screen_height": 1080}, "bonus": 0, "hitId": "3VQTAXTYN3SJTT28FJ5BGZ8BVJWUBN", "counterbalance": 1166, "useragent": "Mozilla/5.0 (Windows NT 6.1; Win64; x64) AppleWebKit/537.36 (KHTML, like Gecko) Chrome/63.0.3239.132 Safari/537.36", "eventdata": [{"eventtype": "initialized", "interval": 0, "value": null, "timestamp": 1516732772011}, {"eventtype": "window_resize", "interval": 0, "value": [1920, 1040], "timestamp": 1516732772011}], "data": [{"current_trial": 0, "trialdata": {"rt": 40996, "trial_type": "text", "internal_node_id": "0.0-0.0", "time_elapsed": 40997, "key_press": 32, "type": "INSTRUCTIONS", "trial_index": 0}, "uniqueid": "MTK2104:33IZTU6J828CE3BZLC7VFFDZB9LXS2", "dateTime": 1516732825453}, {"current_trial": 1, "trialdata": {"rt": 46749, "trial_type": "text", "internal_node_id": "0.0-1.0", "time_elapsed": 87748, "key_press": 32, "type": "INSTRUCTIONS", "trial_index": 1}, "uniqueid": "MTK2104:33IZTU6J828CE3BZLC7VFFDZB9LXS2", "dateTime": 1516732872203}, {"current_trial": 2, "trialdata": {"rt": [14500], "trial_type": "audio-test", "responses": ["ocean"], "internal_node_id": "0.0-2.0", "time_elapsed": 102261, "type": "AUDIO_TEST", "trial_index": 2}, "uniqueid": "MTK2104:33IZTU6J828CE3BZLC7VFFDZB9LXS2", "dateTime": 1516732886716}, {"current_trial": 3, "trialdata": {"rt": [11476], "trial_type": "audio-test", "responses": ["crystal"], "internal_node_id": "0.0-3.0", "time_elapsed": 113741, "type": "AUDIO_TEST", "trial_index": 3}, "uniqueid": "MTK2104:33IZTU6J828CE3BZLC7VFFDZB9LXS2", "dateTime": 1516732898196}, {"current_trial": 4, "trialdata": {"rt": [5979], "trial_type": "audio-test", "responses": ["spice"], "internal_node_id": "0.0-4.0", "time_elapsed": 119724, "type": "AUDIO_TEST", "trial_index": 4}, "uniqueid": "MTK2104:33IZTU6J828CE3BZLC7VFFDZB9LXS2", "dateTime": 1516732904179}, {"current_trial": 5, "trialdata": {"rt": 71264, "trial_type": "survey-text", "responses": "{\"Q0\":\"7am\",\"Q1\":\"11am\",\"Q2\":\"4\"}", "internal_node_id": "0.0-5.0", "time_elapsed": 191741, "type": "SLEEP_SURVEY", "trial_index": 5}, "uniqueid": "MTK2104:33IZTU6J828CE3BZLC7VFFDZB9LXS2", "dateTime": 1516732976196}, {"current_trial": 6, "trialdata": {"rt": 92198, "trial_type": "text", "internal_node_id": "0.0-6.0", "time_elapsed": 284940, "key_press": 32, "type": "INSTRUCTIONS", "trial_index": 6}, "uniqueid": "MTK2104:33IZTU6J828CE3BZLC7VFFDZB9LXS2", "dateTime": 1516733069395}, {"current_trial": 7, "trialdata": {"rt": 93186, "trial_type": "text", "internal_node_id": "0.0-7.0", "time_elapsed": 378628, "key_press": 13, "type": "INSTRUCTIONS", "trial_index": 7}, "uniqueid": "MTK2104:33IZTU6J828CE3BZLC7VFFDZB9LXS2", "dateTime": 1516733163083}, {"current_trial": 8, "trialdata": {"rt": 23363, "trial_type": "text", "internal_node_id": "0.0-8.0", "time_elapsed": 402492, "key_press": 13, "type": "INSTRUCTIONS", "trial_index": 8}, "uniqueid": "MTK2104:33IZTU6J828CE3BZLC7VFFDZB9LXS2", "dateTime": 1516733186947}, {"current_trial": 9, "trialdata": {"rt": [7612, 9876, 17836], "trial_type": "math-distractor", "key_times": [6492, 7188, 7612, 9220, 9508, 9876, 17308, 17556, 17836], "responses": ["16", "12", "20"], "num2": [7, 5, 8, 7], "num3": [5, 2, 7, 4], "conditions": [18, 1200, "a", 18000], "internal_node_id": "0.0-9.0", "key_presses": [97, 102, 13, 97, 98, 13, 98, 96, 13], "trial": 0, "time_elapsed": 421496, "type": "DISTRACTOR", "trial_index": 9, "num1": [4, 5, 6, 7]}, "uniqueid": "MTK2104:33IZTU6J828CE3BZLC7VFFDZB9LXS2", "dateTime": 1516733205951}, {"current_trial": 10, "trialdata": {"rt": -1, "trial_type": "single-stim", "stimulus": "<p id=\"stim\">10</p>", "internal_node_id": "0.0-10.0-0.0", "time_elapsed": 424498, "key_press": -1, "trial_index": 10}, "uniqueid": "MTK2104:33IZTU6J828CE3BZLC7VFFDZB9LXS2", "dateTime": 1516733208953}, {"current_trial": 11, "trialdata": {"rt": -1, "trial_type": "single-stim", "stimulus": "<p id=\"stim\">9</p>", "internal_node_id": "0.0-10.0-1.0", "time_elapsed": 425499, "key_press": -1, "trial_index": 11}, "uniqueid": "MTK2104:33IZTU6J828CE3BZLC7VFFDZB9LXS2", "dateTime": 1516733209954}, {"current_trial": 12, "trialdata": {"rt": -1, "trial_type": "single-stim", "stimulus": "<p id=\"stim\">8</p>", "internal_node_id": "0.0-10.0-2.0", "time_elapsed": 426500, "key_press": -1, "trial_index": 12}, "uniqueid": "MTK2104:33IZTU6J828CE3BZLC7VFFDZB9LXS2", "dateTime": 1516733210955}, {"current_trial": 13, "trialdata": {"rt": -1, "trial_type": "single-stim", "stimulus": "<p id=\"stim\">7</p>", "internal_node_id": "0.0-10.0-3.0", "time_elapsed": 427501, "key_press": -1, "trial_index": 13}, "uniqueid": "MTK2104:33IZTU6J828CE3BZLC7VFFDZB9LXS2", "dateTime": 1516733211956}, {"current_trial": 14, "trialdata": {"rt": -1, "trial_type": "single-stim", "stimulus": "<p id=\"stim\">6</p>", "internal_node_id": "0.0-10.0-4.0", "time_elapsed": 428502, "key_press": -1, "trial_index": 14}, "uniqueid": "MTK2104:33IZTU6J828CE3BZLC7VFFDZB9LXS2", "dateTime": 1516733212957}, {"current_trial": 15, "trialdata": {"rt": -1, "trial_type": "single-stim", "stimulus": "<p id=\"stim\">5</p>", "internal_node_id": "0.0-10.0-5.0", "time_elapsed": 429503, "key_press": -1, "trial_index": 15}, "uniqueid": "MTK2104:33IZTU6J828CE3BZLC7VFFDZB9LXS2", "dateTime": 1516733213958}, {"current_trial": 16, "trialdata": {"rt": -1, "trial_type": "single-stim", "stimulus": "<p id=\"stim\">4</p>", "internal_node_id": "0.0-10.0-6.0", "time_elapsed": 430504, "key_press": -1, "trial_index": 16}, "uniqueid": "MTK2104:33IZTU6J828CE3BZLC7VFFDZB9LXS2", "dateTime": 1516733214959}, {"current_trial": 17, "trialdata": {"rt": -1, "trial_type": "single-stim", "stimulus": "<p id=\"stim\">3</p>", "internal_node_id": "0.0-10.0-7.0", "time_elapsed": 431505, "key_press": -1, "trial_index": 17}, "uniqueid": "MTK2104:33IZTU6J828CE3BZLC7VFFDZB9LXS2", "dateTime": 1516733215961}, {"current_trial": 18, "trialdata": {"rt": -1, "trial_type": "single-stim", "stimulus": "<p id=\"stim\">2</p>", "internal_node_id": "0.0-10.0-8.0", "time_elapsed": 432507, "key_press": -1, "trial_index": 18}, "uniqueid": "MTK2104:33IZTU6J828CE3BZLC7VFFDZB9LXS2", "dateTime": 1516733216962}, {"current_trial": 19, "trialdata": {"rt": -1, "trial_type": "single-stim", "stimulus": "<p id=\"stim\">1</p>", "internal_node_id": "0.0-10.0-9.0", "time_elapsed": 433508, "key_press": -1, "trial_index": 19}, "uniqueid": "MTK2104:33IZTU6J828CE3BZLC7VFFDZB9LXS2", "dateTime": 1516733217963}, {"current_trial": 20, "trialdata": {"rt": -1, "trial_type": "single-stim", "stimulus": "<p id=\"stim\">+</p>", "internal_node_id": "0.0-11.0-0.0", "time_elapsed": 435009, "key_press": -1, "type": "FIXATION", "trial_index": 20}, "uniqueid": "MTK2104:33IZTU6J828CE3BZLC7VFFDZB9LXS2", "dateTime": 1516733219464}, {"current_trial": 21, "trialdata": {"rt": -1000, "trial_type": "single-audio", "word": "asia", "stimulus": "/static/audio/wordpool/ASIA.wav", "conditions": [18, 1200, "a", 18000], "internal_node_id": "0.0-12.0", "trial": 0, "time_elapsed": 437284, "serialpos": 0, "key_press": -1, "wordID": 45, "type": "PRES_AUD", "trial_index": 21}, "uniqueid": "MTK2104:33IZTU6J828CE3BZLC7VFFDZB9LXS2", "dateTime": 1516733221739}, {"current_trial": 22, "trialdata": {"rt": -1000, "trial_type": "single-audio", "word": "ankle", "stimulus": "/static/audio/wordpool/ANKLE.wav", "conditions": [18, 1200, "a", 18000], "internal_node_id": "0.0-13.0", "trial": 0, "time_elapsed": 439579, "serialpos": 1, "key_press": -1, "wordID": 23, "type": "PRES_AUD", "trial_index": 22}, "uniqueid": "MTK2104:33IZTU6J828CE3BZLC7VFFDZB9LXS2", "dateTime": 1516733224034}, {"current_trial": 23, "trialdata": {"rt": -1000, "trial_type": "single-audio", "word": "garlic", "stimulus": "/static/audio/wordpool/GARLIC.wav", "conditions": [18, 1200, "a", 18000], "internal_node_id": "0.0-14.0", "trial": 0, "time_elapsed": 441889, "serialpos": 2, "key_press": -1, "wordID": 623, "type": "PRES_AUD", "trial_index": 23}, "uniqueid": "MTK2104:33IZTU6J828CE3BZLC7VFFDZB9LXS2", "dateTime": 1516733226344}, {"current_trial": 24, "trialdata": {"rt": -1000, "trial_type": "single-audio", "word": "temple", "stimulus": "/static/audio/wordpool/TEMPLE.wav", "conditions": [18, 1200, "a", 18000], "internal_node_id": "0.0-15.0", "trial": 0, "time_elapsed": 444051, "serialpos": 3, "key_press": -1, "wordID": 1447, "type": "PRES_AUD", "trial_index": 24}, "uniqueid": "MTK2104:33IZTU6J828CE3BZLC7VFFDZB9LXS2", "dateTime": 1516733228506}, {"current_trial": 25, "trialdata": {"rt": -1000, "trial_type": "single-audio", "word": "wrench", "stimulus": "/static/audio/wordpool/WRENCH.wav", "conditions": [18, 1200, "a", 18000], "internal_node_id": "0.0-16.0", "trial": 0, "time_elapsed": 446335, "serialpos": 4, "key_press": -1, "wordID": 1624, "type": "PRES_AUD", "trial_index": 25}, "uniqueid": "MTK2104:33IZTU6J828CE3BZLC7VFFDZB9LXS2", "dateTime": 1516733230790}, {"current_trial": 26, "trialdata": {"rt": -1000, "trial_type": "single-audio", "word": "nightgown", "stimulus": "/static/audio/wordpool/NIGHTGOWN.wav", "conditions": [18, 1200, "a", 18000], "internal_node_id": "0.0-17.0", "trial": 0, "time_elapsed": 448357, "serialpos": 5, "key_press": -1, "wordID": 952, "type": "PRES_AUD", "trial_index": 26}, "uniqueid": "MTK2104:33IZTU6J828CE3BZLC7VFFDZB9LXS2", "dateTime": 1516733232812}, {"current_trial": 27, "trialdata": {"rt": -1000, "trial_type": "single-audio", "word": "clamp", "stimulus": "/static/audio/wordpool/CLAMP.wav", "conditions": [18, 1200, "a", 18000], "internal_node_id": "0.0-18.0", "trial": 0, "time_elapsed": 450686, "serialpos": 6, "key_press": -1, "wordID": 315, "type": "PRES_AUD", "trial_index": 27}, "uniqueid": "MTK2104:33IZTU6J828CE3BZLC7VFFDZB9LXS2", "dateTime": 1516733235141}, {"current_trial": 28, "trialdata": {"rt": -1000, "trial_type": "single-audio", "word": "sketch", "stimulus": "/static/audio/wordpool/SKETCH.wav", "conditions": [18, 1200, "a", 18000], "internal_node_id": "0.0-19.0", "trial": 0, "time_elapsed": 452779, "serialpos": 7, "key_press": -1, "wordID": 1314, "type": "PRES_AUD", "trial_index": 28}, "uniqueid": "MTK2104:33IZTU6J828CE3BZLC7VFFDZB9LXS2", "dateTime": 1516733237234}, {"current_trial": 29, "trialdata": {"rt": -1000, "trial_type": "single-audio", "word": "loft", "stimulus": "/static/audio/wordpool/LOFT.wav", "conditions": [18, 1200, "a", 18000], "internal_node_id": "0.0-20.0", "trial": 0, "time_elapsed": 454986, "serialpos": 8, "key_press": -1, "wordID": 839, "type": "PRES_AUD", "trial_index": 29}, "uniqueid": "MTK2104:33IZTU6J828CE3BZLC7VFFDZB9LXS2", "dateTime": 1516733239441}, {"current_trial": 30, "trialdata": {"rt": -1000, "trial_type": "single-audio", "word": "pebble", "stimulus": "/static/audio/wordpool/PEBBLE.wav", "conditions": [18, 1200, "a", 18000], "internal_node_id": "0.0-21.0", "trial": 0, "time_elapsed": 457105, "serialpos": 9, "key_press": -1, "wordID": 1034, "type": "PRES_AUD", "trial_index": 30}, "uniqueid": "MTK2104:33IZTU6J828CE3BZLC7VFFDZB9LXS2", "dateTime": 1516733241560}, {"current_trial": 31, "trialdata": {"rt": -1000, "trial_type": "single-audio", "word": "piano", "stimulus": "/static/audio/wordpool/PIANO.wav", "conditions": [18, 1200, "a", 18000], "internal_node_id": "0.0-22.0", "trial": 0, "time_elapsed": 459193, "serialpos": 10, "key_press": -1, "wordID": 1056, "type": "PRES_AUD", "trial_index": 31}, "uniqueid": "MTK2104:33IZTU6J828CE3BZLC7VFFDZB9LXS2", "dateTime": 1516733243649}, {"current_trial": 32, "trialdata": {"rt": -1000, "trial_type": "single-audio", "word": "marsh", "stimulus": "/static/audio/wordpool/MARSH.wav", "conditions": [18, 1200, "a", 18000], "internal_node_id": "0.0-23.0", "trial": 0, "time_elapsed": 461239, "serialpos": 11, "key_press": -1, "wordID": 873, "type": "PRES_AUD", "trial_index": 32}, "uniqueid": "MTK2104:33IZTU6J828CE3BZLC7VFFDZB9LXS2", "dateTime": 1516733245695}, {"current_trial": 33, "trialdata": {"rt": -1000, "trial_type": "single-audio", "word": "raft", "stimulus": "/static/audio/wordpool/RAFT.wav", "conditions": [18, 1200, "a", 18000], "internal_node_id": "0.0-24.0", "trial": 0, "time_elapsed": 463305, "serialpos": 12, "key_press": -1, "wordID": 1158, "type": "PRES_AUD", "trial_index": 33}, "uniqueid": "MTK2104:33IZTU6J828CE3BZLC7VFFDZB9LXS2", "dateTime": 1516733247760}, {"current_trial": 34, "trialdata": {"rt": -1000, "trial_type": "single-audio", "word": "flipper", "stimulus": "/static/audio/wordpool/FLIPPER.wav", "conditions": [18, 1200, "a", 18000], "internal_node_id": "0.0-25.0", "trial": 0, "time_elapsed": 465363, "serialpos": 13, "key_press": -1, "wordID": 579, "type": "PRES_AUD", "trial_index": 34}, "uniqueid": "MTK2104:33IZTU6J828CE3BZLC7VFFDZB9LXS2", "dateTime": 1516733249818}, {"current_trial": 35, "trialdata": {"rt": -1000, "trial_type": "single-audio", "word": "cashier", "stimulus": "/static/audio/wordpool/CASHIER.wav", "conditions": [18, 1200, "a", 18000], "internal_node_id": "0.0-26.0", "trial": 0, "time_elapsed": 467489, "serialpos": 14, "key_press": -1, "wordID": 253, "type": "PRES_AUD", "trial_index": 35}, "uniqueid": "MTK2104:33IZTU6J828CE3BZLC7VFFDZB9LXS2", "dateTime": 1516733251945}, {"current_trial": 36, "trialdata": {"rt": -1000, "trial_type": "single-audio", "word": "shortcake", "stimulus": "/static/audio/wordpool/SHORTCAKE.wav", "conditions": [18, 1200, "a", 18000], "internal_node_id": "0.0-27.0", "trial": 0, "time_elapsed": 469546, "serialpos": 15, "key_press": -1, "wordID": 1291, "type": "PRES_AUD", "trial_index": 36}, "uniqueid": "MTK2104:33IZTU6J828CE3BZLC7VFFDZB9LXS2", "dateTime": 1516733254001}, {"current_trial": 37, "trialdata": {"rt": -1000, "trial_type": "single-audio", "word": "soda", "stimulus": "/static/audio/wordpool/SODA.wav", "conditions": [18, 1200, "a", 18000], "internal_node_id": "0.0-28.0", "trial": 0, "time_elapsed": 471946, "serialpos": 16, "key_press": -1, "wordID": 1340, "type": "PRES_AUD", "trial_index": 37}, "uniqueid": "MTK2104:33IZTU6J828CE3BZLC7VFFDZB9LXS2", "dateTime": 1516733256401}, {"current_trial": 38, "trialdata": {"rt": -1000, "trial_type": "single-audio", "word": "cabbage", "stimulus": "/static/audio/wordpool/CABBAGE.wav", "conditions": [18, 1200, "a", 18000], "internal_node_id": "0.0-29.0", "trial": 0, "time_elapsed": 474143, "serialpos": 17, "key_press": -1, "wordID": 209, "type": "PRES_AUD", "trial_index": 38}, "uniqueid": "MTK2104:33IZTU6J828CE3BZLC7VFFDZB9LXS2", "dateTime": 1516733258598}, {"current_trial": 39, "trialdata": {"rt": -1, "trial_type": "single-stim", "stimulus": "", "internal_node_id": "0.0-30.0-0.0", "time_elapsed": 475500, "key_press": -1, "type": "PRE_RECALL_DELAY", "trial_index": 39}, "uniqueid": "MTK2104:33IZTU6J828CE3BZLC7VFFDZB9LXS2", "dateTime": 1516733259955}, {"current_trial": 40, "trialdata": {"rt": -1000, "trial_type": "single-audio", "stimulus": "/static/audio/400Hz.wav", "internal_node_id": "0.0-31.0", "time_elapsed": 476005, "key_press": -1, "type": "PRE_RECALL_ALERT", "trial_index": 40}, "uniqueid": "MTK2104:33IZTU6J828CE3BZLC7VFFDZB9LXS2", "dateTime": 1516733260460}, {"current_trial": 41, "trialdata": {"rt": [4869, 10277, 11797, 15045, 19437, 21237, 30101, 32437, 40405], "recwords": ["asia", "nightgown", "vast", "shortcake", "cabbage", "soda", "pebble", "loft", "ankle"], "key_times": [2293, 3221, 3325, 3581, 4869, 6685, 6757, 6869, 7053, 7165, 7589, 7717, 8293, 9053, 9445, 9629, 9869, 10005, 10277, 10789, 10925, 11165, 11325, 11797, 12373, 12421, 12621, 12893, 13085, 13389, 13549, 13973, 14173, 15045, 16813, 17093, 18469, 18621, 18717, 18901, 19149, 19437, 20445, 20597, 20789, 21045, 21237, 28333, 28485, 28837, 28973, 29605, 29861, 30101, 30957, 31197, 32157, 32221, 32437, 39414, 39613, 39901, 40117, 40277, 40405], "trial_type": "free-recall", "conditions": [18, 1200, "a", 18000], "internal_node_id": "0.0-32.0-0.0", "key_presses": [65, 83, 73, 65, 32, 78, 73, 71, 72, 84, 70, 79, 8, 8, 71, 79, 87, 78, 32, 86, 65, 83, 84, 13, 83, 72, 79, 82, 84, 67, 65, 75, 69, 32, 67, 65, 66, 66, 65, 71, 69, 32, 83, 79, 68, 65, 32, 80, 69, 66, 66, 76, 69, 32, 76, 79, 70, 84, 32, 65, 78, 75, 76, 69, 32], "trial": 0, "time_elapsed": 536008, "type": "FREE_RECALL", "trial_index": 41}, "uniqueid": "MTK2104:33IZTU6J828CE3BZLC7VFFDZB9LXS2", "dateTime": 1516733320464}, {"current_trial": 42, "trialdata": {"rt": 3090, "trial_type": "text", "internal_node_id": "0.0-33.0", "time_elapsed": 541100, "key_press": 32, "type": "INSTRUCTIONS", "trial_index": 42}, "uniqueid": "MTK2104:33IZTU6J828CE3BZLC7VFFDZB9LXS2", "dateTime": 1516733325555}, {"current_trial": 43, "trialdata": {"rt": [5886, 8990, 12150, 15430], "trial_type": "math-distractor", "key_times": [5206, 5430, 5886, 8246, 8454, 8990, 11574, 11862, 12150, 15014, 15182, 15430], "responses": ["14", "10", "19", "11"], "num2": [3, 3, 7, 3, 6], "num3": [4, 3, 5, 1, 3], "conditions": [18, 1200, "a", 18000], "internal_node_id": "0.0-34.0", "key_presses": [97, 100, 13, 97, 96, 13, 97, 105, 13, 97, 97, 13], "trial": 1, "time_elapsed": 561103, "type": "DISTRACTOR", "trial_index": 43, "num1": [7, 4, 7, 7, 5]}, "uniqueid": "MTK2104:33IZTU6J828CE3BZLC7VFFDZB9LXS2", "dateTime": 1516733345558}, {"current_trial": 44, "trialdata": {"rt": -1, "trial_type": "single-stim", "stimulus": "<p id=\"stim\">10</p>", "internal_node_id": "0.0-35.0-0.0", "time_elapsed": 564105, "key_press": -1, "trial_index": 44}, "uniqueid": "MTK2104:33IZTU6J828CE3BZLC7VFFDZB9LXS2", "dateTime": 1516733348560}, {"current_trial": 45, "trialdata": {"rt": -1, "trial_type": "single-stim", "stimulus": "<p id=\"stim\">9</p>", "internal_node_id": "0.0-35.0-1.0", "time_elapsed": 565106, "key_press": -1, "trial_index": 45}, "uniqueid": "MTK2104:33IZTU6J828CE3BZLC7VFFDZB9LXS2", "dateTime": 1516733349561}, {"current_trial": 46, "trialdata": {"rt": -1, "trial_type": "single-stim", "stimulus": "<p id=\"stim\">8</p>", "internal_node_id": "0.0-35.0-2.0", "time_elapsed": 566107, "key_press": -1, "trial_index": 46}, "uniqueid": "MTK2104:33IZTU6J828CE3BZLC7VFFDZB9LXS2", "dateTime": 1516733350562}, {"current_trial": 47, "trialdata": {"rt": -1, "trial_type": "single-stim", "stimulus": "<p id=\"stim\">7</p>", "internal_node_id": "0.0-35.0-3.0", "time_elapsed": 567108, "key_press": -1, "trial_index": 47}, "uniqueid": "MTK2104:33IZTU6J828CE3BZLC7VFFDZB9LXS2", "dateTime": 1516733351563}, {"current_trial": 48, "trialdata": {"rt": -1, "trial_type": "single-stim", "stimulus": "<p id=\"stim\">6</p>", "internal_node_id": "0.0-35.0-4.0", "time_elapsed": 568109, "key_press": -1, "trial_index": 48}, "uniqueid": "MTK2104:33IZTU6J828CE3BZLC7VFFDZB9LXS2", "dateTime": 1516733352564}, {"current_trial": 49, "trialdata": {"rt": -1, "trial_type": "single-stim", "stimulus": "<p id=\"stim\">5</p>", "internal_node_id": "0.0-35.0-5.0", "time_elapsed": 569110, "key_press": -1, "trial_index": 49}, "uniqueid": "MTK2104:33IZTU6J828CE3BZLC7VFFDZB9LXS2", "dateTime": 1516733353565}, {"current_trial": 50, "trialdata": {"rt": -1, "trial_type": "single-stim", "stimulus": "<p id=\"stim\">4</p>", "internal_node_id": "0.0-35.0-6.0", "time_elapsed": 570111, "key_press": -1, "trial_index": 50}, "uniqueid": "MTK2104:33IZTU6J828CE3BZLC7VFFDZB9LXS2", "dateTime": 1516733354566}, {"current_trial": 51, "trialdata": {"rt": -1, "trial_type": "single-stim", "stimulus": "<p id=\"stim\">3</p>", "internal_node_id": "0.0-35.0-7.0", "time_elapsed": 571112, "key_press": -1, "trial_index": 51}, "uniqueid": "MTK2104:33IZTU6J828CE3BZLC7VFFDZB9LXS2", "dateTime": 1516733355567}, {"current_trial": 52, "trialdata": {"rt": -1, "trial_type": "single-stim", "stimulus": "<p id=\"stim\">2</p>", "internal_node_id": "0.0-35.0-8.0", "time_elapsed": 572114, "key_press": -1, "trial_index": 52}, "uniqueid": "MTK2104:33IZTU6J828CE3BZLC7VFFDZB9LXS2", "dateTime": 1516733356569}, {"current_trial": 53, "trialdata": {"rt": -1, "trial_type": "single-stim", "stimulus": "<p id=\"stim\">1</p>", "internal_node_id": "0.0-35.0-9.0", "time_elapsed": 573115, "key_press": -1, "trial_index": 53}, "uniqueid": "MTK2104:33IZTU6J828CE3BZLC7VFFDZB9LXS2", "dateTime": 1516733357570}, {"current_trial": 54, "trialdata": {"rt": -1, "trial_type": "single-stim", "stimulus": "<p id=\"stim\">+</p>", "internal_node_id": "0.0-36.0-0.0", "time_elapsed": 574616, "key_press": -1, "type": "FIXATION", "trial_index": 54}, "uniqueid": "MTK2104:33IZTU6J828CE3BZLC7VFFDZB9LXS2", "dateTime": 1516733359071}, {"current_trial": 55, "trialdata": {"rt": -1000, "trial_type": "single-audio", "word": "popcorn", "stimulus": "/static/audio/wordpool/POPCORN.wav", "conditions": [18, 1200, "a", 18000], "internal_node_id": "0.0-37.0", "trial": 1, "time_elapsed": 576882, "serialpos": 0, "key_press": -1, "wordID": 1103, "type": "PRES_AUD", "trial_index": 55}, "uniqueid": "MTK2104:33IZTU6J828CE3BZLC7VFFDZB9LXS2", "dateTime": 1516733361337}, {"current_trial": 56, "trialdata": {"rt": -1000, "trial_type": "single-audio", "word": "virus", "stimulus": "/static/audio/wordpool/VIRUS.wav", "conditions": [18, 1200, "a", 18000], "internal_node_id": "0.0-38.0", "trial": 1, "time_elapsed": 579276, "serialpos": 1, "key_press": -1, "wordID": 1571, "type": "PRES_AUD", "trial_index": 56}, "uniqueid": "MTK2104:33IZTU6J828CE3BZLC7VFFDZB9LXS2", "dateTime": 1516733363731}, {"current_trial": 57, "trialdata": {"rt": -1000, "trial_type": "single-audio", "word": "globe", "stimulus": "/static/audio/wordpool/GLOBE.wav", "conditions": [18, 1200, "a", 18000], "internal_node_id": "0.0-39.0", "trial": 1, "time_elapsed": 581338, "serialpos": 2, "key_press": -1, "wordID": 640, "type": "PRES_AUD", "trial_index": 57}, "uniqueid": "MTK2104:33IZTU6J828CE3BZLC7VFFDZB9LXS2", "dateTime": 1516733365793}, {"current_trial": 58, "trialdata": {"rt": -1000, "trial_type": "single-audio", "word": "drink", "stimulus": "/static/audio/wordpool/DRINK.wav", "conditions": [18, 1200, "a", 18000], "internal_node_id": "0.0-40.0", "trial": 1, "time_elapsed": 583427, "serialpos": 3, "key_press": -1, "wordID": 497, "type": "PRES_AUD", "trial_index": 58}, "uniqueid": "MTK2104:33IZTU6J828CE3BZLC7VFFDZB9LXS2", "dateTime": 1516733367882}, {"current_trial": 59, "trialdata": {"rt": -1000, "trial_type": "single-audio", "word": "helmet", "stimulus": "/static/audio/wordpool/HELMET.wav", "conditions": [18, 1200, "a", 18000], "internal_node_id": "0.0-41.0", "trial": 1, "time_elapsed": 585569, "serialpos": 4, "key_press": -1, "wordID": 701, "type": "PRES_AUD", "trial_index": 59}, "uniqueid": "MTK2104:33IZTU6J828CE3BZLC7VFFDZB9LXS2", "dateTime": 1516733370024}, {"current_trial": 60, "trialdata": {"rt": -1000, "trial_type": "single-audio", "word": "cod", "stimulus": "/static/audio/wordpool/COD.wav", "conditions": [18, 1200, "a", 18000], "internal_node_id": "0.0-42.0", "trial": 1, "time_elapsed": 587792, "serialpos": 5, "key_press": -1, "wordID": 339, "type": "PRES_AUD", "trial_index": 60}, "uniqueid": "MTK2104:33IZTU6J828CE3BZLC7VFFDZB9LXS2", "dateTime": 1516733372247}, {"current_trial": 61, "trialdata": {"rt": -1000, "trial_type": "single-audio", "word": "catcher", "stimulus": "/static/audio/wordpool/CATCHER.wav", "conditions": [18, 1200, "a", 18000], "internal_node_id": "0.0-43.0", "trial": 1, "time_elapsed": 590125, "serialpos": 6, "key_press": -1, "wordID": 257, "type": "PRES_AUD", "trial_index": 61}, "uniqueid": "MTK2104:33IZTU6J828CE3BZLC7VFFDZB9LXS2", "dateTime": 1516733374580}, {"current_trial": 62, "trialdata": {"rt": -1000, "trial_type": "single-audio", "word": "lagoon", "stimulus": "/static/audio/wordpool/LAGOON.wav", "conditions": [18, 1200, "a", 18000], "internal_node_id": "0.0-44.0", "trial": 1, "time_elapsed": 592469, "serialpos": 7, "key_press": -1, "wordID": 794, "type": "PRES_AUD", "trial_index": 62}, "uniqueid": "MTK2104:33IZTU6J828CE3BZLC7VFFDZB9LXS2", "dateTime": 1516733376924}, {"current_trial": 63, "trialdata": {"rt": -1000, "trial_type": "single-audio", "word": "cellar", "stimulus": "/static/audio/wordpool/CELLAR.wav", "conditions": [18, 1200, "a", 18000], "internal_node_id": "0.0-45.0", "trial": 1, "time_elapsed": 594531, "serialpos": 8, "key_press": -1, "wordID": 266, "type": "PRES_AUD", "trial_index": 63}, "uniqueid": "MTK2104:33IZTU6J828CE3BZLC7VFFDZB9LXS2", "dateTime": 1516733378986}, {"current_trial": 64, "trialdata": {"rt": -1000, "trial_type": "single-audio", "word": "icing", "stimulus": "/static/audio/wordpool/ICING.wav", "conditions": [18, 1200, "a", 18000], "internal_node_id": "0.0-46.0", "trial": 1, "time_elapsed": 596797, "serialpos": 9, "key_press": -1, "wordID": 731, "type": "PRES_AUD", "trial_index": 64}, "uniqueid": "MTK2104:33IZTU6J828CE3BZLC7VFFDZB9LXS2", "dateTime": 1516733381252}, {"current_trial": 65, "trialdata": {"rt": -1000, "trial_type": "single-audio", "word": "foot", "stimulus": "/static/audio/wordpool/FOOT.wav", "conditions": [18, 1200, "a", 18000], "internal_node_id": "0.0-47.0", "trial": 1, "time_elapsed": 599190, "serialpos": 10, "key_press": -1, "wordID": 589, "type": "PRES_AUD", "trial_index": 65}, "uniqueid": "MTK2104:33IZTU6J828CE3BZLC7VFFDZB9LXS2", "dateTime": 1516733383645}, {"current_trial": 66, "trialdata": {"rt": -1000, "trial_type": "single-audio", "word": "pigment", "stimulus": "/static/audio/wordpool/PIGMENT.wav", "conditions": [18, 1200, "a", 18000], "internal_node_id": "0.0-48.0", "trial": 1, "time_elapsed": 601232, "serialpos": 11, "key_press": -1, "wordID": 1065, "type": "PRES_AUD", "trial_index": 66}, "uniqueid": "MTK2104:33IZTU6J828CE3BZLC7VFFDZB9LXS2", "dateTime": 1516733385687}, {"current_trial": 67, "trialdata": {"rt": -1000, "trial_type": "single-audio", "word": "slug", "stimulus": "/static/audio/wordpool/SLUG.wav", "conditions": [18, 1200, "a", 18000], "internal_node_id": "0.0-49.0", "trial": 1, "time_elapsed": 603257, "serialpos": 12, "key_press": -1, "wordID": 1328, "type": "PRES_AUD", "trial_index": 67}, "uniqueid": "MTK2104:33IZTU6J828CE3BZLC7VFFDZB9LXS2", "dateTime": 1516733387712}, {"current_trial": 68, "trialdata": {"rt": -1000, "trial_type": "single-audio", "word": "sunset", "stimulus": "/static/audio/wordpool/SUNSET.wav", "conditions": [18, 1200, "a", 18000], "internal_node_id": "0.0-50.0", "trial": 1, "time_elapsed": 605433, "serialpos": 13, "key_press": -1, "wordID": 1407, "type": "PRES_AUD", "trial_index": 68}, "uniqueid": "MTK2104:33IZTU6J828CE3BZLC7VFFDZB9LXS2", "dateTime": 1516733389890}, {"current_trial": 69, "trialdata": {"rt": -1000, "trial_type": "single-audio", "word": "receipt", "stimulus": "/static/audio/wordpool/RECEIPT.wav", "conditions": [18, 1200, "a", 18000], "internal_node_id": "0.0-51.0", "trial": 1, "time_elapsed": 607583, "serialpos": 14, "key_press": -1, "wordID": 1172, "type": "PRES_AUD", "trial_index": 69}, "uniqueid": "MTK2104:33IZTU6J828CE3BZLC7VFFDZB9LXS2", "dateTime": 1516733392038}, {"current_trial": 70, "trialdata": {"rt": -1000, "trial_type": "single-audio", "word": "police", "stimulus": "/static/audio/wordpool/POLICE.wav", "conditions": [18, 1200, "a", 18000], "internal_node_id": "0.0-52.0", "trial": 1, "time_elapsed": 609770, "serialpos": 15, "key_press": -1, "wordID": 1097, "type": "PRES_AUD", "trial_index": 70}, "uniqueid": "MTK2104:33IZTU6J828CE3BZLC7VFFDZB9LXS2", "dateTime": 1516733394226}, {"current_trial": 71, "trialdata": {"rt": -1000, "trial_type": "single-audio", "word": "softball", "stimulus": "/static/audio/wordpool/SOFTBALL.wav", "conditions": [18, 1200, "a", 18000], "internal_node_id": "0.0-53.0", "trial": 1, "time_elapsed": 611895, "serialpos": 16, "key_press": -1, "wordID": 1342, "type": "PRES_AUD", "trial_index": 71}, "uniqueid": "MTK2104:33IZTU6J828CE3BZLC7VFFDZB9LXS2", "dateTime": 1516733396351}, {"current_trial": 72, "trialdata": {"rt": -1000, "trial_type": "single-audio", "word": "swamp", "stimulus": "/static/audio/wordpool/SWAMP.wav", "conditions": [18, 1200, "a", 18000], "internal_node_id": "0.0-54.0", "trial": 1, "time_elapsed": 614002, "serialpos": 17, "key_press": -1, "wordID": 1415, "type": "PRES_AUD", "trial_index": 72}, "uniqueid": "MTK2104:33IZTU6J828CE3BZLC7VFFDZB9LXS2", "dateTime": 1516733398458}, {"current_trial": 73, "trialdata": {"rt": -1, "trial_type": "single-stim", "stimulus": "", "internal_node_id": "0.0-55.0-0.0", "time_elapsed": 615250, "key_press": -1, "type": "PRE_RECALL_DELAY", "trial_index": 73}, "uniqueid": "MTK2104:33IZTU6J828CE3BZLC7VFFDZB9LXS2", "dateTime": 1516733399705}, {"current_trial": 74, "trialdata": {"rt": -1000, "trial_type": "single-audio", "stimulus": "/static/audio/400Hz.wav", "internal_node_id": "0.0-56.0", "time_elapsed": 615751, "key_press": -1, "type": "PRE_RECALL_ALERT", "trial_index": 74}, "uniqueid": "MTK2104:33IZTU6J828CE3BZLC7VFFDZB9LXS2", "dateTime": 1516733400207}, {"current_trial": 75, "trialdata": {"rt": [3682, 6834, 10314, 13210, 14922, 18546, 27626, 32802], "recwords": ["swamp", "popcorn", "celler", "police", "softball", "recipt", "slug", "foot"], "key_times": [2210, 2426, 2690, 2818, 3242, 3682, 4338, 4578, 4842, 5146, 5330, 6394, 6514, 6834, 8186, 8810, 8938, 9122, 10002, 10202, 10314, 11810, 12106, 12298, 12506, 12794, 13066, 13210, 13506, 13650, 13858, 13978, 14226, 14322, 14554, 14698, 14922, 16746, 16962, 17298, 17546, 17986, 18106, 18546, 26867, 26962, 27330, 27522, 27626, 32090, 32322, 32490, 32578, 32802], "trial_type": "free-recall", "conditions": [18, 1200, "a", 18000], "internal_node_id": "0.0-57.0-0.0", "key_presses": [83, 87, 65, 77, 80, 32, 80, 79, 80, 67, 79, 82, 78, 32, 67, 69, 76, 76, 69, 82, 32, 80, 79, 76, 73, 67, 69, 32, 83, 79, 70, 84, 66, 65, 76, 76, 32, 82, 69, 67, 73, 80, 84, 32, 83, 76, 85, 71, 32, 70, 79, 79, 84, 32], "trial": 1, "time_elapsed": 675755, "type": "FREE_RECALL", "trial_index": 75}, "uniqueid": "MTK2104:33IZTU6J828CE3BZLC7VFFDZB9LXS2", "dateTime": 1516733460211}, {"current_trial": 76, "trialdata": {"rt": 6310, "trial_type": "text", "internal_node_id": "0.0-58.0", "time_elapsed": 684068, "key_press": 32, "type": "INSTRUCTIONS", "trial_index": 76}, "uniqueid": "MTK2104:33IZTU6J828CE3BZLC7VFFDZB9LXS2", "dateTime": 1516733468523}, {"current_trial": 77, "trialdata": {"rt": [4310, 6566, 8942, 13790, 15566, 20662], "trial_type": "math-distractor", "key_times": [3558, 3694, 4310, 5830, 5934, 6566, 8350, 8462, 8942, 13286, 13493, 13790, 15158, 15341, 15566, 20006, 20310, 20662], "responses": ["15", "14", "19", "25", "13", "18"], "num2": [1, 1, 4, 8, 5, 8, 4], "num3": [9, 4, 6, 8, 3, 3, 4], "conditions": [24, 800, "a", 24000], "internal_node_id": "0.0-59.0", "key_presses": [97, 101, 13, 97, 100, 13, 97, 105, 13, 98, 101, 13, 97, 99, 13, 97, 104, 13], "trial": 2, "time_elapsed": 709070, "type": "DISTRACTOR", "trial_index": 77, "num1": [5, 9, 9, 9, 6, 7, 7]}, "uniqueid": "MTK2104:33IZTU6J828CE3BZLC7VFFDZB9LXS2", "dateTime": 1516733493525}, {"current_trial": 78, "trialdata": {"rt": -1, "trial_type": "single-stim", "stimulus": "<p id=\"stim\">10</p>", "internal_node_id": "0.0-60.0-0.0", "time_elapsed": 712072, "key_press": -1, "trial_index": 78}, "uniqueid": "MTK2104:33IZTU6J828CE3BZLC7VFFDZB9LXS2", "dateTime": 1516733496527}, {"current_trial": 79, "trialdata": {"rt": -1, "trial_type": "single-stim", "stimulus": "<p id=\"stim\">9</p>", "internal_node_id": "0.0-60.0-1.0", "time_elapsed": 713073, "key_press": -1, "trial_index": 79}, "uniqueid": "MTK2104:33IZTU6J828CE3BZLC7VFFDZB9LXS2", "dateTime": 1516733497528}, {"current_trial": 80, "trialdata": {"rt": -1, "trial_type": "single-stim", "stimulus": "<p id=\"stim\">8</p>", "internal_node_id": "0.0-60.0-2.0", "time_elapsed": 714074, "key_press": -1, "trial_index": 80}, "uniqueid": "MTK2104:33IZTU6J828CE3BZLC7VFFDZB9LXS2", "dateTime": 1516733498529}, {"current_trial": 81, "trialdata": {"rt": -1, "trial_type": "single-stim", "stimulus": "<p id=\"stim\">7</p>", "internal_node_id": "0.0-60.0-3.0", "time_elapsed": 715075, "key_press": -1, "trial_index": 81}, "uniqueid": "MTK2104:33IZTU6J828CE3BZLC7VFFDZB9LXS2", "dateTime": 1516733499530}, {"current_trial": 82, "trialdata": {"rt": -1, "trial_type": "single-stim", "stimulus": "<p id=\"stim\">6</p>", "internal_node_id": "0.0-60.0-4.0", "time_elapsed": 716076, "key_press": -1, "trial_index": 82}, "uniqueid": "MTK2104:33IZTU6J828CE3BZLC7VFFDZB9LXS2", "dateTime": 1516733500531}, {"current_trial": 83, "trialdata": {"rt": -1, "trial_type": "single-stim", "stimulus": "<p id=\"stim\">5</p>", "internal_node_id": "0.0-60.0-5.0", "time_elapsed": 717077, "key_press": -1, "trial_index": 83}, "uniqueid": "MTK2104:33IZTU6J828CE3BZLC7VFFDZB9LXS2", "dateTime": 1516733501532}, {"current_trial": 84, "trialdata": {"rt": -1, "trial_type": "single-stim", "stimulus": "<p id=\"stim\">4</p>", "internal_node_id": "0.0-60.0-6.0", "time_elapsed": 718078, "key_press": -1, "trial_index": 84}, "uniqueid": "MTK2104:33IZTU6J828CE3BZLC7VFFDZB9LXS2", "dateTime": 1516733502533}, {"current_trial": 85, "trialdata": {"rt": -1, "trial_type": "single-stim", "stimulus": "<p id=\"stim\">3</p>", "internal_node_id": "0.0-60.0-7.0", "time_elapsed": 719079, "key_press": -1, "trial_index": 85}, "uniqueid": "MTK2104:33IZTU6J828CE3BZLC7VFFDZB9LXS2", "dateTime": 1516733503534}, {"current_trial": 86, "trialdata": {"rt": -1, "trial_type": "single-stim", "stimulus": "<p id=\"stim\">2</p>", "internal_node_id": "0.0-60.0-8.0", "time_elapsed": 720080, "key_press": -1, "trial_index": 86}, "uniqueid": "MTK2104:33IZTU6J828CE3BZLC7VFFDZB9LXS2", "dateTime": 1516733504535}, {"current_trial": 87, "trialdata": {"rt": -1, "trial_type": "single-stim", "stimulus": "<p id=\"stim\">1</p>", "internal_node_id": "0.0-60.0-9.0", "time_elapsed": 721082, "key_press": -1, "trial_index": 87}, "uniqueid": "MTK2104:33IZTU6J828CE3BZLC7VFFDZB9LXS2", "dateTime": 1516733505537}, {"current_trial": 88, "trialdata": {"rt": -1, "trial_type": "single-stim", "stimulus": "<p id=\"stim\">+</p>", "internal_node_id": "0.0-61.0-0.0", "time_elapsed": 722583, "key_press": -1, "type": "FIXATION", "trial_index": 88}, "uniqueid": "MTK2104:33IZTU6J828CE3BZLC7VFFDZB9LXS2", "dateTime": 1516733507038}, {"current_trial": 89, "trialdata": {"rt": -1000, "trial_type": "single-audio", "word": "knapsack", "stimulus": "/static/audio/wordpool/KNAPSACK.wav", "conditions": [24, 800, "a", 24000], "internal_node_id": "0.0-62.0", "trial": 2, "time_elapsed": 724349, "serialpos": 0, "key_press": -1, "wordID": 782, "type": "PRES_AUD", "trial_index": 89}, "uniqueid": "MTK2104:33IZTU6J828CE3BZLC7VFFDZB9LXS2", "dateTime": 1516733508805}, {"current_trial": 90, "trialdata": {"rt": -1000, "trial_type": "single-audio", "word": "laser", "stimulus": "/static/audio/wordpool/LASER.wav", "conditions": [24, 800, "a", 24000], "internal_node_id": "0.0-63.0", "trial": 2, "time_elapsed": 726016, "serialpos": 1, "key_press": -1, "wordID": 800, "type": "PRES_AUD", "trial_index": 90}, "uniqueid": "MTK2104:33IZTU6J828CE3BZLC7VFFDZB9LXS2", "dateTime": 1516733510472}, {"current_trial": 91, "trialdata": {"rt": -1000, "trial_type": "single-audio", "word": "snail", "stimulus": "/static/audio/wordpool/SNAIL.wav", "conditions": [24, 800, "a", 24000], "internal_node_id": "0.0-64.0", "trial": 2, "time_elapsed": 727776, "serialpos": 2, "key_press": -1, "wordID": 1331, "type": "PRES_AUD", "trial_index": 91}, "uniqueid": "MTK2104:33IZTU6J828CE3BZLC7VFFDZB9LXS2", "dateTime": 1516733512231}, {"current_trial": 92, "trialdata": {"rt": -1000, "trial_type": "single-audio", "word": "piston", "stimulus": "/static/audio/wordpool/PISTON.wav", "conditions": [24, 800, "a", 24000], "internal_node_id": "0.0-65.0", "trial": 2, "time_elapsed": 729717, "serialpos": 3, "key_press": -1, "wordID": 1075, "type": "PRES_AUD", "trial_index": 92}, "uniqueid": "MTK2104:33IZTU6J828CE3BZLC7VFFDZB9LXS2", "dateTime": 1516733514173}, {"current_trial": 93, "trialdata": {"rt": -1000, "trial_type": "single-audio", "word": "valve", "stimulus": "/static/audio/wordpool/VALVE.wav", "conditions": [24, 800, "a", 24000], "internal_node_id": "0.0-66.0", "trial": 2, "time_elapsed": 731490, "serialpos": 4, "key_press": -1, "wordID": 1545, "type": "PRES_AUD", "trial_index": 93}, "uniqueid": "MTK2104:33IZTU6J828CE3BZLC7VFFDZB9LXS2", "dateTime": 1516733515945}, {"current_trial": 94, "trialdata": {"rt": -1000, "trial_type": "single-audio", "word": "office", "stimulus": "/static/audio/wordpool/OFFICE.wav", "conditions": [24, 800, "a", 24000], "internal_node_id": "0.0-67.0", "trial": 2, "time_elapsed": 733233, "serialpos": 5, "key_press": -1, "wordID": 971, "type": "PRES_AUD", "trial_index": 94}, "uniqueid": "MTK2104:33IZTU6J828CE3BZLC7VFFDZB9LXS2", "dateTime": 1516733517689}, {"current_trial": 95, "trialdata": {"rt": -1000, "trial_type": "single-audio", "word": "custard", "stimulus": "/static/audio/wordpool/CUSTARD.wav", "conditions": [24, 800, "a", 24000], "internal_node_id": "0.0-68.0", "trial": 2, "time_elapsed": 735027, "serialpos": 6, "key_press": -1, "wordID": 428, "type": "PRES_AUD", "trial_index": 95}, "uniqueid": "MTK2104:33IZTU6J828CE3BZLC7VFFDZB9LXS2", "dateTime": 1516733519482}, {"current_trial": 96, "trialdata": {"rt": -1000, "trial_type": "single-audio", "word": "casket", "stimulus": "/static/audio/wordpool/CASKET.wav", "conditions": [24, 800, "a", 24000], "internal_node_id": "0.0-69.0", "trial": 2, "time_elapsed": 737016, "serialpos": 7, "key_press": -1, "wordID": 254, "type": "PRES_AUD", "trial_index": 96}, "uniqueid": "MTK2104:33IZTU6J828CE3BZLC7VFFDZB9LXS2", "dateTime": 1516733521472}, {"current_trial": 97, "trialdata": {"rt": -1000, "trial_type": "single-audio", "word": "lipstick", "stimulus": "/static/audio/wordpool/LIPSTICK.wav", "conditions": [24, 800, "a", 24000], "internal_node_id": "0.0-70.0", "trial": 2, "time_elapsed": 738794, "serialpos": 8, "key_press": -1, "wordID": 828, "type": "PRES_AUD", "trial_index": 97}, "uniqueid": "MTK2104:33IZTU6J828CE3BZLC7VFFDZB9LXS2", "dateTime": 1516733523249}, {"current_trial": 98, "trialdata": {"rt": -1000, "trial_type": "single-audio", "word": "couch", "stimulus": "/static/audio/wordpool/COUCH.wav", "conditions": [24, 800, "a", 24000], "internal_node_id": "0.0-71.0", "trial": 2, "time_elapsed": 740537, "serialpos": 9, "key_press": -1, "wordID": 385, "type": "PRES_AUD", "trial_index": 98}, "uniqueid": "MTK2104:33IZTU6J828CE3BZLC7VFFDZB9LXS2", "dateTime": 1516733524992}, {"current_trial": 99, "trialdata": {"rt": -1000, "trial_type": "single-audio", "word": "dashboard", "stimulus": "/static/audio/wordpool/DASHBOARD.wav", "conditions": [24, 800, "a", 24000], "internal_node_id": "0.0-72.0", "trial": 2, "time_elapsed": 742397, "serialpos": 10, "key_press": -1, "wordID": 440, "type": "PRES_AUD", "trial_index": 99}, "uniqueid": "MTK2104:33IZTU6J828CE3BZLC7VFFDZB9LXS2", "dateTime": 1516733526853}, {"current_trial": 100, "trialdata": {"rt": -1000, "trial_type": "single-audio", "word": "tombstone", "stimulus": "/static/audio/wordpool/TOMBSTONE.wav", "conditions": [24, 800, "a", 24000], "internal_node_id": "0.0-73.0", "trial": 2, "time_elapsed": 744239, "serialpos": 11, "key_press": -1, "wordID": 1477, "type": "PRES_AUD", "trial_index": 100}, "uniqueid": "MTK2104:33IZTU6J828CE3BZLC7VFFDZB9LXS2", "dateTime": 1516733528694}, {"current_trial": 101, "trialdata": {"rt": -1000, "trial_type": "single-audio", "word": "ulcer", "stimulus": "/static/audio/wordpool/ULCER.wav", "conditions": [24, 800, "a", 24000], "internal_node_id": "0.0-74.0", "trial": 2, "time_elapsed": 746025, "serialpos": 12, "key_press": -1, "wordID": 1532, "type": "PRES_AUD", "trial_index": 101}, "uniqueid": "MTK2104:33IZTU6J828CE3BZLC7VFFDZB9LXS2", "dateTime": 1516733530480}, {"current_trial": 102, "trialdata": {"rt": -1000, "trial_type": "single-audio", "word": "marrow", "stimulus": "/static/audio/wordpool/MARROW.wav", "conditions": [24, 800, "a", 24000], "internal_node_id": "0.0-75.0", "trial": 2, "time_elapsed": 747705, "serialpos": 13, "key_press": -1, "wordID": 871, "type": "PRES_AUD", "trial_index": 102}, "uniqueid": "MTK2104:33IZTU6J828CE3BZLC7VFFDZB9LXS2", "dateTime": 1516733532160}, {"current_trial": 103, "trialdata": {"rt": -1000, "trial_type": "single-audio", "word": "rug", "stimulus": "/static/audio/wordpool/RUG.wav", "conditions": [24, 800, "a", 24000], "internal_node_id": "0.0-76.0", "trial": 2, "time_elapsed": 749564, "serialpos": 14, "key_press": -1, "wordID": 1214, "type": "PRES_AUD", "trial_index": 103}, "uniqueid": "MTK2104:33IZTU6J828CE3BZLC7VFFDZB9LXS2", "dateTime": 1516733534019}, {"current_trial": 104, "trialdata": {"rt": -1000, "trial_type": "single-audio", "word": "spoon", "stimulus": "/static/audio/wordpool/SPOON.wav", "conditions": [24, 800, "a", 24000], "internal_node_id": "0.0-77.0", "trial": 2, "time_elapsed": 751247, "serialpos": 15, "key_press": -1, "wordID": 1356, "type": "PRES_AUD", "trial_index": 104}, "uniqueid": "MTK2104:33IZTU6J828CE3BZLC7VFFDZB9LXS2", "dateTime": 1516733535702}, {"current_trial": 105, "trialdata": {"rt": -1000, "trial_type": "single-audio", "word": "clam", "stimulus": "/static/audio/wordpool/CLAM.wav", "conditions": [24, 800, "a", 24000], "internal_node_id": "0.0-78.0", "trial": 2, "time_elapsed": 752963, "serialpos": 16, "key_press": -1, "wordID": 314, "type": "PRES_AUD", "trial_index": 105}, "uniqueid": "MTK2104:33IZTU6J828CE3BZLC7VFFDZB9LXS2", "dateTime": 1516733537418}, {"current_trial": 106, "trialdata": {"rt": -1000, "trial_type": "single-audio", "word": "crab", "stimulus": "/static/audio/wordpool/CRAB.wav", "conditions": [24, 800, "a", 24000], "internal_node_id": "0.0-79.0", "trial": 2, "time_elapsed": 754944, "serialpos": 17, "key_press": -1, "wordID": 396, "type": "PRES_AUD", "trial_index": 106}, "uniqueid": "MTK2104:33IZTU6J828CE3BZLC7VFFDZB9LXS2", "dateTime": 1516733539399}, {"current_trial": 107, "trialdata": {"rt": -1000, "trial_type": "single-audio", "word": "tortoise", "stimulus": "/static/audio/wordpool/TORTOISE.wav", "conditions": [24, 800, "a", 24000], "internal_node_id": "0.0-80.0", "trial": 2, "time_elapsed": 756644, "serialpos": 18, "key_press": -1, "wordID": 1485, "type": "PRES_AUD", "trial_index": 107}, "uniqueid": "MTK2104:33IZTU6J828CE3BZLC7VFFDZB9LXS2", "dateTime": 1516733541099}, {"current_trial": 108, "trialdata": {"rt": -1000, "trial_type": "single-audio", "word": "valley", "stimulus": "/static/audio/wordpool/VALLEY.wav", "conditions": [24, 800, "a", 24000], "internal_node_id": "0.0-81.0", "trial": 2, "time_elapsed": 758548, "serialpos": 19, "key_press": -1, "wordID": 1544, "type": "PRES_AUD", "trial_index": 108}, "uniqueid": "MTK2104:33IZTU6J828CE3BZLC7VFFDZB9LXS2", "dateTime": 1516733543003}, {"current_trial": 109, "trialdata": {"rt": -1000, "trial_type": "single-audio", "word": "tutu", "stimulus": "/static/audio/wordpool/TUTU.wav", "conditions": [24, 800, "a", 24000], "internal_node_id": "0.0-82.0", "trial": 2, "time_elapsed": 760492, "serialpos": 20, "key_press": -1, "wordID": 1523, "type": "PRES_AUD", "trial_index": 109}, "uniqueid": "MTK2104:33IZTU6J828CE3BZLC7VFFDZB9LXS2", "dateTime": 1516733544947}, {"current_trial": 110, "trialdata": {"rt": -1000, "trial_type": "single-audio", "word": "necklace", "stimulus": "/static/audio/wordpool/NECKLACE.wav", "conditions": [24, 800, "a", 24000], "internal_node_id": "0.0-83.0", "trial": 2, "time_elapsed": 762313, "serialpos": 21, "key_press": -1, "wordID": 939, "type": "PRES_AUD", "trial_index": 110}, "uniqueid": "MTK2104:33IZTU6J828CE3BZLC7VFFDZB9LXS2", "dateTime": 1516733546768}, {"current_trial": 111, "trialdata": {"rt": -1000, "trial_type": "single-audio", "word": "smog", "stimulus": "/static/audio/wordpool/SMOG.wav", "conditions": [24, 800, "a", 24000], "internal_node_id": "0.0-84.0", "trial": 2, "time_elapsed": 764098, "serialpos": 22, "key_press": -1, "wordID": 1329, "type": "PRES_AUD", "trial_index": 111}, "uniqueid": "MTK2104:33IZTU6J828CE3BZLC7VFFDZB9LXS2", "dateTime": 1516733548553}, {"current_trial": 112, "trialdata": {"rt": -1000, "trial_type": "single-audio", "word": "canyon", "stimulus": "/static/audio/wordpool/CANYON.wav", "conditions": [24, 800, "a", 24000], "internal_node_id": "0.0-85.0", "trial": 2, "time_elapsed": 766033, "serialpos": 23, "key_press": -1, "wordID": 234, "type": "PRES_AUD", "trial_index": 112}, "uniqueid": "MTK2104:33IZTU6J828CE3BZLC7VFFDZB9LXS2", "dateTime": 1516733550488}, {"current_trial": 113, "trialdata": {"rt": -1, "trial_type": "single-stim", "stimulus": "", "internal_node_id": "0.0-86.0-0.0", "time_elapsed": 767336, "key_press": -1, "type": "PRE_RECALL_DELAY", "trial_index": 113}, "uniqueid": "MTK2104:33IZTU6J828CE3BZLC7VFFDZB9LXS2", "dateTime": 1516733551791}, {"current_trial": 114, "trialdata": {"rt": -1000, "trial_type": "single-audio", "stimulus": "/static/audio/400Hz.wav", "internal_node_id": "0.0-87.0", "time_elapsed": 767844, "key_press": -1, "type": "PRE_RECALL_ALERT", "trial_index": 114}, "uniqueid": "MTK2104:33IZTU6J828CE3BZLC7VFFDZB9LXS2", "dateTime": 1516733552299}, {"current_trial": 115, "trialdata": {"rt": [5654, 8630, 9502, 11598, 16118, 19702, 28278], "recwords": ["canyon", "smog", "tutu", "vally", "necklace", "tortise", "napsack"], "key_times": [2535, 3238, 3422, 4406, 4798, 5086, 5654, 7742, 7870, 8294, 8446, 8630, 8894, 8998, 9094, 9214, 9502, 10278, 10454, 10686, 10830, 11326, 11598, 12926, 13030, 13446, 13558, 13774, 13934, 15774, 16006, 16118, 17278, 17422, 17934, 18150, 18318, 18598, 18862, 19702, 26118, 26254, 26702, 27294, 27518, 27902, 28030, 28278], "trial_type": "free-recall", "conditions": [24, 800, "a", 24000], "internal_node_id": "0.0-88.0-0.0", "key_presses": [67, 65, 78, 89, 79, 78, 32, 83, 77, 79, 71, 32, 84, 85, 84, 85, 32, 86, 65, 76, 76, 89, 32, 78, 69, 67, 75, 76, 65, 67, 69, 32, 84, 79, 82, 84, 73, 83, 69, 32, 78, 65, 80, 83, 65, 67, 75, 32], "trial": 2, "time_elapsed": 827847, "type": "FREE_RECALL", "trial_index": 115}, "uniqueid": "MTK2104:33IZTU6J828CE3BZLC7VFFDZB9LXS2", "dateTime": 1516733612303}, {"current_trial": 116, "trialdata": {"rt": 3522, "trial_type": "text", "internal_node_id": "0.0-89.0", "time_elapsed": 833371, "key_press": 32, "type": "INSTRUCTIONS", "trial_index": 116}, "uniqueid": "MTK2104:33IZTU6J828CE3BZLC7VFFDZB9LXS2", "dateTime": 1516733617827}, {"current_trial": 117, "trialdata": {"rt": [3814, 7382, 11670, 15030, 17238, 18990, 21446], "trial_type": "math-distractor", "key_times": [3014, 3246, 3814, 6718, 6822, 7382, 10942, 11166, 11670, 14542, 14734, 15030, 16502, 16806, 17238, 18478, 18734, 18990, 21166, 21446, 23278, 23790], "responses": ["14", "12", "14", "14", "18", "13", "7"], "num2": [6, 4, 9, 8, 4, 5, 2, 4], "num3": [6, 4, 3, 1, 6, 5, 2, 8], "conditions": [24, 1600, "a", 24000], "internal_node_id": "0.0-90.0", "key_presses": [97, 100, 13, 97, 98, 13, 97, 100, 13, 97, 100, 13, 97, 104, 13, 97, 99, 13, 103, 13, 97, 104], "trial": 3, "time_elapsed": 859374, "type": "DISTRACTOR", "trial_index": 117, "num1": [2, 4, 2, 5, 8, 3, 3, 6]}, "uniqueid": "MTK2104:33IZTU6J828CE3BZLC7VFFDZB9LXS2", "dateTime": 1516733643829}, {"current_trial": 118, "trialdata": {"rt": -1, "trial_type": "single-stim", "stimulus": "<p id=\"stim\">10</p>", "internal_node_id": "0.0-91.0-0.0", "time_elapsed": 862376, "key_press": -1, "trial_index": 118}, "uniqueid": "MTK2104:33IZTU6J828CE3BZLC7VFFDZB9LXS2", "dateTime": 1516733646831}, {"current_trial": 119, "trialdata": {"rt": -1, "trial_type": "single-stim", "stimulus": "<p id=\"stim\">9</p>", "internal_node_id": "0.0-91.0-1.0", "time_elapsed": 863377, "key_press": -1, "trial_index": 119}, "uniqueid": "MTK2104:33IZTU6J828CE3BZLC7VFFDZB9LXS2", "dateTime": 1516733647832}, {"current_trial": 120, "trialdata": {"rt": -1, "trial_type": "single-stim", "stimulus": "<p id=\"stim\">8</p>", "internal_node_id": "0.0-91.0-2.0", "time_elapsed": 864378, "key_press": -1, "trial_index": 120}, "uniqueid": "MTK2104:33IZTU6J828CE3BZLC7VFFDZB9LXS2", "dateTime": 1516733648833}, {"current_trial": 121, "trialdata": {"rt": -1, "trial_type": "single-stim", "stimulus": "<p id=\"stim\">7</p>", "internal_node_id": "0.0-91.0-3.0", "time_elapsed": 865379, "key_press": -1, "trial_index": 121}, "uniqueid": "MTK2104:33IZTU6J828CE3BZLC7VFFDZB9LXS2", "dateTime": 1516733649834}, {"current_trial": 122, "trialdata": {"rt": -1, "trial_type": "single-stim", "stimulus": "<p id=\"stim\">6</p>", "internal_node_id": "0.0-91.0-4.0", "time_elapsed": 866380, "key_press": -1, "trial_index": 122}, "uniqueid": "MTK2104:33IZTU6J828CE3BZLC7VFFDZB9LXS2", "dateTime": 1516733650835}, {"current_trial": 123, "trialdata": {"rt": -1, "trial_type": "single-stim", "stimulus": "<p id=\"stim\">5</p>", "internal_node_id": "0.0-91.0-5.0", "time_elapsed": 867381, "key_press": -1, "trial_index": 123}, "uniqueid": "MTK2104:33IZTU6J828CE3BZLC7VFFDZB9LXS2", "dateTime": 1516733651837}, {"current_trial": 124, "trialdata": {"rt": -1, "trial_type": "single-stim", "stimulus": "<p id=\"stim\">4</p>", "internal_node_id": "0.0-91.0-6.0", "time_elapsed": 868382, "key_press": -1, "trial_index": 124}, "uniqueid": "MTK2104:33IZTU6J828CE3BZLC7VFFDZB9LXS2", "dateTime": 1516733652838}, {"current_trial": 125, "trialdata": {"rt": -1, "trial_type": "single-stim", "stimulus": "<p id=\"stim\">3</p>", "internal_node_id": "0.0-91.0-7.0", "time_elapsed": 869384, "key_press": -1, "trial_index": 125}, "uniqueid": "MTK2104:33IZTU6J828CE3BZLC7VFFDZB9LXS2", "dateTime": 1516733653839}, {"current_trial": 126, "trialdata": {"rt": -1, "trial_type": "single-stim", "stimulus": "<p id=\"stim\">2</p>", "internal_node_id": "0.0-91.0-8.0", "time_elapsed": 870385, "key_press": -1, "trial_index": 126}, "uniqueid": "MTK2104:33IZTU6J828CE3BZLC7VFFDZB9LXS2", "dateTime": 1516733654840}, {"current_trial": 127, "trialdata": {"rt": -1, "trial_type": "single-stim", "stimulus": "<p id=\"stim\">1</p>", "internal_node_id": "0.0-91.0-9.0", "time_elapsed": 871386, "key_press": -1, "trial_index": 127}, "uniqueid": "MTK2104:33IZTU6J828CE3BZLC7VFFDZB9LXS2", "dateTime": 1516733655841}, {"current_trial": 128, "trialdata": {"rt": -1, "trial_type": "single-stim", "stimulus": "<p id=\"stim\">+</p>", "internal_node_id": "0.0-92.0-0.0", "time_elapsed": 872887, "key_press": -1, "type": "FIXATION", "trial_index": 128}, "uniqueid": "MTK2104:33IZTU6J828CE3BZLC7VFFDZB9LXS2", "dateTime": 1516733657342}, {"current_trial": 129, "trialdata": {"rt": -1000, "trial_type": "single-audio", "word": "supper", "stimulus": "/static/audio/wordpool/SUPPER.wav", "conditions": [24, 1600, "a", 24000], "internal_node_id": "0.0-93.0", "trial": 3, "time_elapsed": 875654, "serialpos": 0, "key_press": -1, "wordID": 1410, "type": "PRES_AUD", "trial_index": 129}, "uniqueid": "MTK2104:33IZTU6J828CE3BZLC7VFFDZB9LXS2", "dateTime": 1516733660109}, {"current_trial": 130, "trialdata": {"rt": -1000, "trial_type": "single-audio", "word": "airport", "stimulus": "/static/audio/wordpool/AIRPORT.wav", "conditions": [24, 1600, "a", 24000], "internal_node_id": "0.0-94.0", "trial": 3, "time_elapsed": 878171, "serialpos": 1, "key_press": -1, "wordID": 12, "type": "PRES_AUD", "trial_index": 130}, "uniqueid": "MTK2104:33IZTU6J828CE3BZLC7VFFDZB9LXS2", "dateTime": 1516733662627}, {"current_trial": 131, "trialdata": {"rt": -1000, "trial_type": "single-audio", "word": "outfit", "stimulus": "/static/audio/wordpool/OUTFIT.wav", "conditions": [24, 1600, "a", 24000], "internal_node_id": "0.0-95.0", "trial": 3, "time_elapsed": 880840, "serialpos": 2, "key_press": -1, "wordID": 987, "type": "PRES_AUD", "trial_index": 131}, "uniqueid": "MTK2104:33IZTU6J828CE3BZLC7VFFDZB9LXS2", "dateTime": 1516733665295}, {"current_trial": 132, "trialdata": {"rt": -1000, "trial_type": "single-audio", "word": "crown", "stimulus": "/static/audio/wordpool/CROWN.wav", "conditions": [24, 1600, "a", 24000], "internal_node_id": "0.0-96.0", "trial": 3, "time_elapsed": 883411, "serialpos": 3, "key_press": -1, "wordID": 414, "type": "PRES_AUD", "trial_index": 132}, "uniqueid": "MTK2104:33IZTU6J828CE3BZLC7VFFDZB9LXS2", "dateTime": 1516733667866}, {"current_trial": 133, "trialdata": {"rt": -1000, "trial_type": "single-audio", "word": "paper", "stimulus": "/static/audio/wordpool/PAPER.wav", "conditions": [24, 1600, "a", 24000], "internal_node_id": "0.0-97.0", "trial": 3, "time_elapsed": 886036, "serialpos": 4, "key_press": -1, "wordID": 1010, "type": "PRES_AUD", "trial_index": 133}, "uniqueid": "MTK2104:33IZTU6J828CE3BZLC7VFFDZB9LXS2", "dateTime": 1516733670491}, {"current_trial": 134, "trialdata": {"rt": -1000, "trial_type": "single-audio", "word": "handbag", "stimulus": "/static/audio/wordpool/HANDBAG.wav", "conditions": [24, 1600, "a", 24000], "internal_node_id": "0.0-98.0", "trial": 3, "time_elapsed": 888813, "serialpos": 5, "key_press": -1, "wordID": 683, "type": "PRES_AUD", "trial_index": 134}, "uniqueid": "MTK2104:33IZTU6J828CE3BZLC7VFFDZB9LXS2", "dateTime": 1516733673268}, {"current_trial": 135, "trialdata": {"rt": -1000, "trial_type": "single-audio", "word": "banquet", "stimulus": "/static/audio/wordpool/BANQUET.wav", "conditions": [24, 1600, "a", 24000], "internal_node_id": "0.0-99.0", "trial": 3, "time_elapsed": 891491, "serialpos": 6, "key_press": -1, "wordID": 85, "type": "PRES_AUD", "trial_index": 135}, "uniqueid": "MTK2104:33IZTU6J828CE3BZLC7VFFDZB9LXS2", "dateTime": 1516733675946}, {"current_trial": 136, "trialdata": {"rt": -1000, "trial_type": "single-audio", "word": "garden", "stimulus": "/static/audio/wordpool/GARDEN.wav", "conditions": [24, 1600, "a", 24000], "internal_node_id": "0.0-100.0", "trial": 3, "time_elapsed": 894003, "serialpos": 7, "key_press": -1, "wordID": 622, "type": "PRES_AUD", "trial_index": 136}, "uniqueid": "MTK2104:33IZTU6J828CE3BZLC7VFFDZB9LXS2", "dateTime": 1516733678458}, {"current_trial": 137, "trialdata": {"rt": -1000, "trial_type": "single-audio", "word": "shrub", "stimulus": "/static/audio/wordpool/SHRUB.wav", "conditions": [24, 1600, "a", 24000], "internal_node_id": "0.0-101.0", "trial": 3, "time_elapsed": 896792, "serialpos": 8, "key_press": -1, "wordID": 1298, "type": "PRES_AUD", "trial_index": 137}, "uniqueid": "MTK2104:33IZTU6J828CE3BZLC7VFFDZB9LXS2", "dateTime": 1516733681247}, {"current_trial": 138, "trialdata": {"rt": -1000, "trial_type": "single-audio", "word": "chauffeur", "stimulus": "/static/audio/wordpool/CHAUFFEUR.wav", "conditions": [24, 1600, "a", 24000], "internal_node_id": "0.0-102.0", "trial": 3, "time_elapsed": 899223, "serialpos": 9, "key_press": -1, "wordID": 282, "type": "PRES_AUD", "trial_index": 138}, "uniqueid": "MTK2104:33IZTU6J828CE3BZLC7VFFDZB9LXS2", "dateTime": 1516733683678}, {"current_trial": 139, "trialdata": {"rt": -1000, "trial_type": "single-audio", "word": "female", "stimulus": "/static/audio/wordpool/FEMALE.wav", "conditions": [24, 1600, "a", 24000], "internal_node_id": "0.0-103.0", "trial": 3, "time_elapsed": 901690, "serialpos": 10, "key_press": -1, "wordID": 558, "type": "PRES_AUD", "trial_index": 139}, "uniqueid": "MTK2104:33IZTU6J828CE3BZLC7VFFDZB9LXS2", "dateTime": 1516733686145}, {"current_trial": 140, "trialdata": {"rt": -1000, "trial_type": "single-audio", "word": "padding", "stimulus": "/static/audio/wordpool/PADDING.wav", "conditions": [24, 1600, "a", 24000], "internal_node_id": "0.0-104.0", "trial": 3, "time_elapsed": 904119, "serialpos": 11, "key_press": -1, "wordID": 998, "type": "PRES_AUD", "trial_index": 140}, "uniqueid": "MTK2104:33IZTU6J828CE3BZLC7VFFDZB9LXS2", "dateTime": 1516733688574}, {"current_trial": 141, "trialdata": {"rt": -1000, "trial_type": "single-audio", "word": "country", "stimulus": "/static/audio/wordpool/COUNTRY.wav", "conditions": [24, 1600, "a", 24000], "internal_node_id": "0.0-105.0", "trial": 3, "time_elapsed": 906522, "serialpos": 12, "key_press": -1, "wordID": 387, "type": "PRES_AUD", "trial_index": 141}, "uniqueid": "MTK2104:33IZTU6J828CE3BZLC7VFFDZB9LXS2", "dateTime": 1516733690977}, {"current_trial": 142, "trialdata": {"rt": -1000, "trial_type": "single-audio", "word": "coffee", "stimulus": "/static/audio/wordpool/COFFEE.wav", "conditions": [24, 1600, "a", 24000], "internal_node_id": "0.0-106.0", "trial": 3, "time_elapsed": 908961, "serialpos": 13, "key_press": -1, "wordID": 340, "type": "PRES_AUD", "trial_index": 142}, "uniqueid": "MTK2104:33IZTU6J828CE3BZLC7VFFDZB9LXS2", "dateTime": 1516733693416}, {"current_trial": 143, "trialdata": {"rt": -1000, "trial_type": "single-audio", "word": "lettuce", "stimulus": "/static/audio/wordpool/LETTUCE.wav", "conditions": [24, 1600, "a", 24000], "internal_node_id": "0.0-107.0", "trial": 3, "time_elapsed": 911382, "serialpos": 14, "key_press": -1, "wordID": 813, "type": "PRES_AUD", "trial_index": 143}, "uniqueid": "MTK2104:33IZTU6J828CE3BZLC7VFFDZB9LXS2", "dateTime": 1516733695837}, {"current_trial": 144, "trialdata": {"rt": -1000, "trial_type": "single-audio", "word": "bug", "stimulus": "/static/audio/wordpool/BUG.wav", "conditions": [24, 1600, "a", 24000], "internal_node_id": "0.0-108.0", "trial": 3, "time_elapsed": 913979, "serialpos": 15, "key_press": -1, "wordID": 186, "type": "PRES_AUD", "trial_index": 144}, "uniqueid": "MTK2104:33IZTU6J828CE3BZLC7VFFDZB9LXS2", "dateTime": 1516733698434}, {"current_trial": 145, "trialdata": {"rt": -1000, "trial_type": "single-audio", "word": "france", "stimulus": "/static/audio/wordpool/FRANCE.wav", "conditions": [24, 1600, "a", 24000], "internal_node_id": "0.0-109.0", "trial": 3, "time_elapsed": 916392, "serialpos": 16, "key_press": -1, "wordID": 600, "type": "PRES_AUD", "trial_index": 145}, "uniqueid": "MTK2104:33IZTU6J828CE3BZLC7VFFDZB9LXS2", "dateTime": 1516733700847}, {"current_trial": 146, "trialdata": {"rt": -1000, "trial_type": "single-audio", "word": "hamper", "stimulus": "/static/audio/wordpool/HAMPER.wav", "conditions": [24, 1600, "a", 24000], "internal_node_id": "0.0-110.0", "trial": 3, "time_elapsed": 918843, "serialpos": 17, "key_press": -1, "wordID": 681, "type": "PRES_AUD", "trial_index": 146}, "uniqueid": "MTK2104:33IZTU6J828CE3BZLC7VFFDZB9LXS2", "dateTime": 1516733703298}, {"current_trial": 147, "trialdata": {"rt": -1000, "trial_type": "single-audio", "word": "trench", "stimulus": "/static/audio/wordpool/TRENCH.wav", "conditions": [24, 1600, "a", 24000], "internal_node_id": "0.0-111.0", "trial": 3, "time_elapsed": 921463, "serialpos": 18, "key_press": -1, "wordID": 1502, "type": "PRES_AUD", "trial_index": 147}, "uniqueid": "MTK2104:33IZTU6J828CE3BZLC7VFFDZB9LXS2", "dateTime": 1516733705918}, {"current_trial": 148, "trialdata": {"rt": -1000, "trial_type": "single-audio", "word": "world", "stimulus": "/static/audio/wordpool/WORLD.wav", "conditions": [24, 1600, "a", 24000], "internal_node_id": "0.0-112.0", "trial": 3, "time_elapsed": 924262, "serialpos": 19, "key_press": -1, "wordID": 1621, "type": "PRES_AUD", "trial_index": 148}, "uniqueid": "MTK2104:33IZTU6J828CE3BZLC7VFFDZB9LXS2", "dateTime": 1516733708717}, {"current_trial": 149, "trialdata": {"rt": -1000, "trial_type": "single-audio", "word": "thief", "stimulus": "/static/audio/wordpool/THIEF.wav", "conditions": [24, 1600, "a", 24000], "internal_node_id": "0.0-113.0", "trial": 3, "time_elapsed": 926918, "serialpos": 20, "key_press": -1, "wordID": 1455, "type": "PRES_AUD", "trial_index": 149}, "uniqueid": "MTK2104:33IZTU6J828CE3BZLC7VFFDZB9LXS2", "dateTime": 1516733711373}, {"current_trial": 150, "trialdata": {"rt": -1000, "trial_type": "single-audio", "word": "briefcase", "stimulus": "/static/audio/wordpool/BRIEFCASE.wav", "conditions": [24, 1600, "a", 24000], "internal_node_id": "0.0-114.0", "trial": 3, "time_elapsed": 929355, "serialpos": 21, "key_press": -1, "wordID": 174, "type": "PRES_AUD", "trial_index": 150}, "uniqueid": "MTK2104:33IZTU6J828CE3BZLC7VFFDZB9LXS2", "dateTime": 1516733713810}, {"current_trial": 151, "trialdata": {"rt": -1000, "trial_type": "single-audio", "word": "suitcase", "stimulus": "/static/audio/wordpool/SUITCASE.wav", "conditions": [24, 1600, "a", 24000], "internal_node_id": "0.0-115.0", "trial": 3, "time_elapsed": 932129, "serialpos": 22, "key_press": -1, "wordID": 1402, "type": "PRES_AUD", "trial_index": 151}, "uniqueid": "MTK2104:33IZTU6J828CE3BZLC7VFFDZB9LXS2", "dateTime": 1516733716584}, {"current_trial": 152, "trialdata": {"rt": -1000, "trial_type": "single-audio", "word": "freckle", "stimulus": "/static/audio/wordpool/FRECKLE.wav", "conditions": [24, 1600, "a", 24000], "internal_node_id": "0.0-116.0", "trial": 3, "time_elapsed": 934789, "serialpos": 23, "key_press": -1, "wordID": 601, "type": "PRES_AUD", "trial_index": 152}, "uniqueid": "MTK2104:33IZTU6J828CE3BZLC7VFFDZB9LXS2", "dateTime": 1516733719245}, {"current_trial": 153, "trialdata": {"rt": -1, "trial_type": "single-stim", "stimulus": "", "internal_node_id": "0.0-117.0-0.0", "time_elapsed": 936049, "key_press": -1, "type": "PRE_RECALL_DELAY", "trial_index": 153}, "uniqueid": "MTK2104:33IZTU6J828CE3BZLC7VFFDZB9LXS2", "dateTime": 1516733720504}, {"current_trial": 154, "trialdata": {"rt": -1000, "trial_type": "single-audio", "stimulus": "/static/audio/400Hz.wav", "internal_node_id": "0.0-118.0", "time_elapsed": 936550, "key_press": -1, "type": "PRE_RECALL_ALERT", "trial_index": 154}, "uniqueid": "MTK2104:33IZTU6J828CE3BZLC7VFFDZB9LXS2", "dateTime": 1516733721005}, {"current_trial": 155, "trialdata": {"rt": [3698, 6162, 8578, 11394, 12906, 14538, 19186, 38570], "recwords": ["paper", "breifcase", "suitcase", "freckle", "world", "hamper", "crown", "reporter"], "key_times": [2707, 2826, 2962, 3290, 3522, 3698, 4170, 4290, 4490, 4642, 4874, 5266, 5594, 5762, 5962, 6162, 6866, 7018, 7114, 7322, 7786, 8066, 8234, 8442, 8578, 8730, 8922, 9114, 10434, 10546, 10858, 11042, 11394, 11850, 12034, 12202, 12394, 12722, 12906, 13338, 13442, 13618, 13930, 14194, 14402, 14538, 18178, 18522, 18634, 18810, 18970, 19186, 36914, 37266, 37546, 37786, 37946, 38146, 38258, 38426, 38570], "trial_type": "free-recall", "conditions": [24, 1600, "a", 24000], "internal_node_id": "0.0-119.0-0.0", "key_presses": [80, 65, 80, 69, 82, 32, 66, 82, 69, 73, 70, 67, 65, 83, 69, 32, 83, 85, 73, 84, 67, 65, 83, 69, 32, 70, 82, 69, 67, 75, 76, 69, 32, 87, 79, 82, 76, 68, 32, 72, 65, 77, 80, 69, 82, 32, 67, 82, 79, 87, 78, 32, 82, 69, 80, 79, 82, 84, 69, 82, 32], "trial": 3, "time_elapsed": 996555, "type": "FREE_RECALL", "trial_index": 155}, "uniqueid": "MTK2104:33IZTU6J828CE3BZLC7VFFDZB9LXS2", "dateTime": 1516733781012}, {"current_trial": 156, "trialdata": {"rt": 2070, "trial_type": "text", "internal_node_id": "0.0-120.0", "time_elapsed": 1000628, "key_press": 32, "type": "INSTRUCTIONS", "trial_index": 156}, "uniqueid": "MTK2104:33IZTU6J828CE3BZLC7VFFDZB9LXS2", "dateTime": 1516733785083}, {"current_trial": 157, "trialdata": {"rt": [8167, 10359], "trial_type": "math-distractor", "key_times": [1678, 1910, 6742, 7622, 8167, 9614, 9942, 10359], "responses": ["16", "18"], "num2": [5, 5, 2], "num3": [4, 8, 4], "conditions": [12, 800, "a", 12000], "internal_node_id": "0.0-121.0", "key_presses": [97, 103, 8, 102, 13, 97, 104, 13], "trial": 4, "time_elapsed": 1014631, "type": "DISTRACTOR", "trial_index": 157, "num1": [7, 5, 6]}, "uniqueid": "MTK2104:33IZTU6J828CE3BZLC7VFFDZB9LXS2", "dateTime": 1516733799086}, {"current_trial": 158, "trialdata": {"rt": -1, "trial_type": "single-stim", "stimulus": "<p id=\"stim\">10</p>", "internal_node_id": "0.0-122.0-0.0", "time_elapsed": 1017633, "key_press": -1, "trial_index": 158}, "uniqueid": "MTK2104:33IZTU6J828CE3BZLC7VFFDZB9LXS2", "dateTime": 1516733802088}, {"current_trial": 159, "trialdata": {"rt": -1, "trial_type": "single-stim", "stimulus": "<p id=\"stim\">9</p>", "internal_node_id": "0.0-122.0-1.0", "time_elapsed": 1018634, "key_press": -1, "trial_index": 159}, "uniqueid": "MTK2104:33IZTU6J828CE3BZLC7VFFDZB9LXS2", "dateTime": 1516733803089}, {"current_trial": 160, "trialdata": {"rt": -1, "trial_type": "single-stim", "stimulus": "<p id=\"stim\">8</p>", "internal_node_id": "0.0-122.0-2.0", "time_elapsed": 1019635, "key_press": -1, "trial_index": 160}, "uniqueid": "MTK2104:33IZTU6J828CE3BZLC7VFFDZB9LXS2", "dateTime": 1516733804090}, {"current_trial": 161, "trialdata": {"rt": -1, "trial_type": "single-stim", "stimulus": "<p id=\"stim\">7</p>", "internal_node_id": "0.0-122.0-3.0", "time_elapsed": 1020636, "key_press": -1, "trial_index": 161}, "uniqueid": "MTK2104:33IZTU6J828CE3BZLC7VFFDZB9LXS2", "dateTime": 1516733805091}, {"current_trial": 162, "trialdata": {"rt": -1, "trial_type": "single-stim", "stimulus": "<p id=\"stim\">6</p>", "internal_node_id": "0.0-122.0-4.0", "time_elapsed": 1021637, "key_press": -1, "trial_index": 162}, "uniqueid": "MTK2104:33IZTU6J828CE3BZLC7VFFDZB9LXS2", "dateTime": 1516733806092}, {"current_trial": 163, "trialdata": {"rt": -1, "trial_type": "single-stim", "stimulus": "<p id=\"stim\">5</p>", "internal_node_id": "0.0-122.0-5.0", "time_elapsed": 1022638, "key_press": -1, "trial_index": 163}, "uniqueid": "MTK2104:33IZTU6J828CE3BZLC7VFFDZB9LXS2", "dateTime": 1516733807093}, {"current_trial": 164, "trialdata": {"rt": -1, "trial_type": "single-stim", "stimulus": "<p id=\"stim\">4</p>", "internal_node_id": "0.0-122.0-6.0", "time_elapsed": 1023639, "key_press": -1, "trial_index": 164}, "uniqueid": "MTK2104:33IZTU6J828CE3BZLC7VFFDZB9LXS2", "dateTime": 1516733808094}, {"current_trial": 165, "trialdata": {"rt": -1, "trial_type": "single-stim", "stimulus": "<p id=\"stim\">3</p>", "internal_node_id": "0.0-122.0-7.0", "time_elapsed": 1024640, "key_press": -1, "trial_index": 165}, "uniqueid": "MTK2104:33IZTU6J828CE3BZLC7VFFDZB9LXS2", "dateTime": 1516733809095}, {"current_trial": 166, "trialdata": {"rt": -1, "trial_type": "single-stim", "stimulus": "<p id=\"stim\">2</p>", "internal_node_id": "0.0-122.0-8.0", "time_elapsed": 1025641, "key_press": -1, "trial_index": 166}, "uniqueid": "MTK2104:33IZTU6J828CE3BZLC7VFFDZB9LXS2", "dateTime": 1516733810096}, {"current_trial": 167, "trialdata": {"rt": -1, "trial_type": "single-stim", "stimulus": "<p id=\"stim\">1</p>", "internal_node_id": "0.0-122.0-9.0", "time_elapsed": 1026642, "key_press": -1, "trial_index": 167}, "uniqueid": "MTK2104:33IZTU6J828CE3BZLC7VFFDZB9LXS2", "dateTime": 1516733811097}, {"current_trial": 168, "trialdata": {"rt": -1, "trial_type": "single-stim", "stimulus": "<p id=\"stim\">+</p>", "internal_node_id": "0.0-123.0-0.0", "time_elapsed": 1028143, "key_press": -1, "type": "FIXATION", "trial_index": 168}, "uniqueid": "MTK2104:33IZTU6J828CE3BZLC7VFFDZB9LXS2", "dateTime": 1516733812598}, {"current_trial": 169, "trialdata": {"rt": -1000, "trial_type": "single-audio", "word": "brandy", "stimulus": "/static/audio/wordpool/BRANDY.wav", "conditions": [12, 800, "a", 12000], "internal_node_id": "0.0-124.0", "trial": 4, "time_elapsed": 1030122, "serialpos": 0, "key_press": -1, "wordID": 168, "type": "PRES_AUD", "trial_index": 169}, "uniqueid": "MTK2104:33IZTU6J828CE3BZLC7VFFDZB9LXS2", "dateTime": 1516733814577}, {"current_trial": 170, "trialdata": {"rt": -1000, "trial_type": "single-audio", "word": "marker", "stimulus": "/static/audio/wordpool/MARKER.wav", "conditions": [12, 800, "a", 12000], "internal_node_id": "0.0-125.0", "trial": 4, "time_elapsed": 1031927, "serialpos": 1, "key_press": -1, "wordID": 869, "type": "PRES_AUD", "trial_index": 170}, "uniqueid": "MTK2104:33IZTU6J828CE3BZLC7VFFDZB9LXS2", "dateTime": 1516733816382}, {"current_trial": 171, "trialdata": {"rt": -1000, "trial_type": "single-audio", "word": "fireplace", "stimulus": "/static/audio/wordpool/FIREPLACE.wav", "conditions": [12, 800, "a", 12000], "internal_node_id": "0.0-126.0", "trial": 4, "time_elapsed": 1033759, "serialpos": 2, "key_press": -1, "wordID": 569, "type": "PRES_AUD", "trial_index": 171}, "uniqueid": "MTK2104:33IZTU6J828CE3BZLC7VFFDZB9LXS2", "dateTime": 1516733818214}, {"current_trial": 172, "trialdata": {"rt": -1000, "trial_type": "single-audio", "word": "plaid", "stimulus": "/static/audio/wordpool/PLAID.wav", "conditions": [12, 800, "a", 12000], "internal_node_id": "0.0-127.0", "trial": 4, "time_elapsed": 1035616, "serialpos": 3, "key_press": -1, "wordID": 1079, "type": "PRES_AUD", "trial_index": 172}, "uniqueid": "MTK2104:33IZTU6J828CE3BZLC7VFFDZB9LXS2", "dateTime": 1516733820072}, {"current_trial": 173, "trialdata": {"rt": -1000, "trial_type": "single-audio", "word": "banjo", "stimulus": "/static/audio/wordpool/BANJO.wav", "conditions": [12, 800, "a", 12000], "internal_node_id": "0.0-128.0", "trial": 4, "time_elapsed": 1037362, "serialpos": 4, "key_press": -1, "wordID": 81, "type": "PRES_AUD", "trial_index": 173}, "uniqueid": "MTK2104:33IZTU6J828CE3BZLC7VFFDZB9LXS2", "dateTime": 1516733821818}, {"current_trial": 174, "trialdata": {"rt": -1000, "trial_type": "single-audio", "word": "bank", "stimulus": "/static/audio/wordpool/BANK.wav", "conditions": [12, 800, "a", 12000], "internal_node_id": "0.0-129.0", "trial": 4, "time_elapsed": 1039262, "serialpos": 5, "key_press": -1, "wordID": 82, "type": "PRES_AUD", "trial_index": 174}, "uniqueid": "MTK2104:33IZTU6J828CE3BZLC7VFFDZB9LXS2", "dateTime": 1516733823717}, {"current_trial": 175, "trialdata": {"rt": -1000, "trial_type": "single-audio", "word": "banker", "stimulus": "/static/audio/wordpool/BANKER.wav", "conditions": [12, 800, "a", 12000], "internal_node_id": "0.0-130.0", "trial": 4, "time_elapsed": 1040885, "serialpos": 6, "key_press": -1, "wordID": 83, "type": "PRES_AUD", "trial_index": 175}, "uniqueid": "MTK2104:33IZTU6J828CE3BZLC7VFFDZB9LXS2", "dateTime": 1516733825340}, {"current_trial": 176, "trialdata": {"rt": -1000, "trial_type": "single-audio", "word": "guitar", "stimulus": "/static/audio/wordpool/GUITAR.wav", "conditions": [12, 800, "a", 12000], "internal_node_id": "0.0-131.0", "trial": 4, "time_elapsed": 1042785, "serialpos": 7, "key_press": -1, "wordID": 669, "type": "PRES_AUD", "trial_index": 176}, "uniqueid": "MTK2104:33IZTU6J828CE3BZLC7VFFDZB9LXS2", "dateTime": 1516733827240}, {"current_trial": 177, "trialdata": {"rt": -1000, "trial_type": "single-audio", "word": "beef", "stimulus": "/static/audio/wordpool/BEEF.wav", "conditions": [12, 800, "a", 12000], "internal_node_id": "0.0-132.0", "trial": 4, "time_elapsed": 1044393, "serialpos": 8, "key_press": -1, "wordID": 112, "type": "PRES_AUD", "trial_index": 177}, "uniqueid": "MTK2104:33IZTU6J828CE3BZLC7VFFDZB9LXS2", "dateTime": 1516733828848}, {"current_trial": 178, "trialdata": {"rt": -1000, "trial_type": "single-audio", "word": "stamp", "stimulus": "/static/audio/wordpool/STAMP.wav", "conditions": [12, 800, "a", 12000], "internal_node_id": "0.0-133.0", "trial": 4, "time_elapsed": 1046111, "serialpos": 9, "key_press": -1, "wordID": 1369, "type": "PRES_AUD", "trial_index": 178}, "uniqueid": "MTK2104:33IZTU6J828CE3BZLC7VFFDZB9LXS2", "dateTime": 1516733830566}, {"current_trial": 179, "trialdata": {"rt": -1000, "trial_type": "single-audio", "word": "wardrobe", "stimulus": "/static/audio/wordpool/WARDROBE.wav", "conditions": [12, 800, "a", 12000], "internal_node_id": "0.0-134.0", "trial": 4, "time_elapsed": 1048036, "serialpos": 10, "key_press": -1, "wordID": 1586, "type": "PRES_AUD", "trial_index": 179}, "uniqueid": "MTK2104:33IZTU6J828CE3BZLC7VFFDZB9LXS2", "dateTime": 1516733832491}, {"current_trial": 180, "trialdata": {"rt": -1000, "trial_type": "single-audio", "word": "snack", "stimulus": "/static/audio/wordpool/SNACK.wav", "conditions": [12, 800, "a", 12000], "internal_node_id": "0.0-135.0", "trial": 4, "time_elapsed": 1049835, "serialpos": 11, "key_press": -1, "wordID": 1330, "type": "PRES_AUD", "trial_index": 180}, "uniqueid": "MTK2104:33IZTU6J828CE3BZLC7VFFDZB9LXS2", "dateTime": 1516733834290}, {"current_trial": 181, "trialdata": {"rt": -1, "trial_type": "single-stim", "stimulus": "", "internal_node_id": "0.0-136.0-0.0", "time_elapsed": 1051175, "key_press": -1, "type": "PRE_RECALL_DELAY", "trial_index": 181}, "uniqueid": "MTK2104:33IZTU6J828CE3BZLC7VFFDZB9LXS2", "dateTime": 1516733835630}, {"current_trial": 182, "trialdata": {"rt": -1000, "trial_type": "single-audio", "stimulus": "/static/audio/400Hz.wav", "internal_node_id": "0.0-137.0", "time_elapsed": 1051677, "key_press": -1, "type": "PRE_RECALL_ALERT", "trial_index": 182}, "uniqueid": "MTK2104:33IZTU6J828CE3BZLC7VFFDZB9LXS2", "dateTime": 1516733836132}, {"current_trial": 183, "trialdata": {"rt": [3582, 8933, 11229, 17325, 19573, 20933], "recwords": ["snack", "wardrobe", "beef", "guitar", "bee", "stem"], "key_times": [2342, 2493, 2621, 2926, 3117, 3582, 4638, 4853, 5125, 6437, 8157, 8317, 8597, 8709, 8933, 10542, 10685, 10837, 11061, 11229, 12470, 12853, 13829, 14637, 15806, 16677, 16821, 17141, 17325, 19165, 19245, 19429, 19573, 19909, 20005, 20349, 20662, 20933], "trial_type": "free-recall", "conditions": [12, 800, "a", 12000], "internal_node_id": "0.0-138.0-0.0", "key_presses": [83, 78, 65, 67, 75, 32, 87, 65, 82, 68, 82, 79, 66, 69, 32, 66, 69, 69, 70, 32, 71, 85, 82, 8, 73, 84, 65, 82, 32, 66, 69, 69, 32, 83, 84, 69, 77, 32], "trial": 4, "time_elapsed": 1111679, "type": "FREE_RECALL", "trial_index": 183}, "uniqueid": "MTK2104:33IZTU6J828CE3BZLC7VFFDZB9LXS2", "dateTime": 1516733896136}, {"current_trial": 184, "trialdata": {"rt": 1729, "trial_type": "text", "internal_node_id": "0.0-139.0", "time_elapsed": 1115412, "key_press": 32, "type": "INSTRUCTIONS", "trial_index": 184}, "uniqueid": "MTK2104:33IZTU6J828CE3BZLC7VFFDZB9LXS2", "dateTime": 1516733899867}, {"current_trial": 185, "trialdata": {"rt": [2621, 5917, 10541, 13965, 22493], "trial_type": "math-distractor", "key_times": [2061, 2253, 2621, 5229, 5533, 5917, 9950, 10181, 10541, 13301, 13549, 13965, 21790, 22053, 22493], "responses": ["15", "17", "14", "12", "25"], "num2": [9, 6, 2, 3, 8, 6], "num3": [5, 5, 9, 5, 8, 4], "conditions": [12, 1600, "a", 24000], "internal_node_id": "0.0-140.0", "key_presses": [97, 101, 13, 97, 103, 13, 97, 100, 13, 97, 98, 13, 98, 101, 13], "trial": 5, "time_elapsed": 1141415, "type": "DISTRACTOR", "trial_index": 185, "num1": [1, 6, 3, 4, 9, 9]}, "uniqueid": "MTK2104:33IZTU6J828CE3BZLC7VFFDZB9LXS2", "dateTime": 1516733925870}, {"current_trial": 186, "trialdata": {"rt": -1, "trial_type": "single-stim", "stimulus": "<p id=\"stim\">10</p>", "internal_node_id": "0.0-141.0-0.0", "time_elapsed": 1144416, "key_press": -1, "trial_index": 186}, "uniqueid": "MTK2104:33IZTU6J828CE3BZLC7VFFDZB9LXS2", "dateTime": 1516733928871}, {"current_trial": 187, "trialdata": {"rt": -1, "trial_type": "single-stim", "stimulus": "<p id=\"stim\">9</p>", "internal_node_id": "0.0-141.0-1.0", "time_elapsed": 1145418, "key_press": -1, "trial_index": 187}, "uniqueid": "MTK2104:33IZTU6J828CE3BZLC7VFFDZB9LXS2", "dateTime": 1516733929873}, {"current_trial": 188, "trialdata": {"rt": -1, "trial_type": "single-stim", "stimulus": "<p id=\"stim\">8</p>", "internal_node_id": "0.0-141.0-2.0", "time_elapsed": 1146419, "key_press": -1, "trial_index": 188}, "uniqueid": "MTK2104:33IZTU6J828CE3BZLC7VFFDZB9LXS2", "dateTime": 1516733930874}, {"current_trial": 189, "trialdata": {"rt": -1, "trial_type": "single-stim", "stimulus": "<p id=\"stim\">7</p>", "internal_node_id": "0.0-141.0-3.0", "time_elapsed": 1147420, "key_press": -1, "trial_index": 189}, "uniqueid": "MTK2104:33IZTU6J828CE3BZLC7VFFDZB9LXS2", "dateTime": 1516733931875}, {"current_trial": 190, "trialdata": {"rt": -1, "trial_type": "single-stim", "stimulus": "<p id=\"stim\">6</p>", "internal_node_id": "0.0-141.0-4.0", "time_elapsed": 1148421, "key_press": -1, "trial_index": 190}, "uniqueid": "MTK2104:33IZTU6J828CE3BZLC7VFFDZB9LXS2", "dateTime": 1516733932876}, {"current_trial": 191, "trialdata": {"rt": -1, "trial_type": "single-stim", "stimulus": "<p id=\"stim\">5</p>", "internal_node_id": "0.0-141.0-5.0", "time_elapsed": 1149422, "key_press": -1, "trial_index": 191}, "uniqueid": "MTK2104:33IZTU6J828CE3BZLC7VFFDZB9LXS2", "dateTime": 1516733933877}, {"current_trial": 192, "trialdata": {"rt": -1, "trial_type": "single-stim", "stimulus": "<p id=\"stim\">4</p>", "internal_node_id": "0.0-141.0-6.0", "time_elapsed": 1150423, "key_press": -1, "trial_index": 192}, "uniqueid": "MTK2104:33IZTU6J828CE3BZLC7VFFDZB9LXS2", "dateTime": 1516733934878}, {"current_trial": 193, "trialdata": {"rt": -1, "trial_type": "single-stim", "stimulus": "<p id=\"stim\">3</p>", "internal_node_id": "0.0-141.0-7.0", "time_elapsed": 1151424, "key_press": -1, "trial_index": 193}, "uniqueid": "MTK2104:33IZTU6J828CE3BZLC7VFFDZB9LXS2", "dateTime": 1516733935879}, {"current_trial": 194, "trialdata": {"rt": -1, "trial_type": "single-stim", "stimulus": "<p id=\"stim\">2</p>", "internal_node_id": "0.0-141.0-8.0", "time_elapsed": 1152425, "key_press": -1, "trial_index": 194}, "uniqueid": "MTK2104:33IZTU6J828CE3BZLC7VFFDZB9LXS2", "dateTime": 1516733936880}, {"current_trial": 195, "trialdata": {"rt": -1, "trial_type": "single-stim", "stimulus": "<p id=\"stim\">1</p>", "internal_node_id": "0.0-141.0-9.0", "time_elapsed": 1153426, "key_press": -1, "trial_index": 195}, "uniqueid": "MTK2104:33IZTU6J828CE3BZLC7VFFDZB9LXS2", "dateTime": 1516733937881}, {"current_trial": 196, "trialdata": {"rt": -1, "trial_type": "single-stim", "stimulus": "<p id=\"stim\">+</p>", "internal_node_id": "0.0-142.0-0.0", "time_elapsed": 1154927, "key_press": -1, "type": "FIXATION", "trial_index": 196}, "uniqueid": "MTK2104:33IZTU6J828CE3BZLC7VFFDZB9LXS2", "dateTime": 1516733939382}, {"current_trial": 197, "trialdata": {"rt": -1000, "trial_type": "single-audio", "word": "heart", "stimulus": "/static/audio/wordpool/HEART.wav", "conditions": [12, 1600, "a", 24000], "internal_node_id": "0.0-143.0", "trial": 5, "time_elapsed": 1157532, "serialpos": 0, "key_press": -1, "wordID": 696, "type": "PRES_AUD", "trial_index": 197}, "uniqueid": "MTK2104:33IZTU6J828CE3BZLC7VFFDZB9LXS2", "dateTime": 1516733941987}, {"current_trial": 198, "trialdata": {"rt": -1000, "trial_type": "single-audio", "word": "venus", "stimulus": "/static/audio/wordpool/VENUS.wav", "conditions": [12, 1600, "a", 24000], "internal_node_id": "0.0-144.0", "trial": 5, "time_elapsed": 1160082, "serialpos": 1, "key_press": -1, "wordID": 1556, "type": "PRES_AUD", "trial_index": 198}, "uniqueid": "MTK2104:33IZTU6J828CE3BZLC7VFFDZB9LXS2", "dateTime": 1516733944537}, {"current_trial": 199, "trialdata": {"rt": -1000, "trial_type": "single-audio", "word": "pluto", "stimulus": "/static/audio/wordpool/PLUTO.wav", "conditions": [12, 1600, "a", 24000], "internal_node_id": "0.0-145.0", "trial": 5, "time_elapsed": 1162762, "serialpos": 2, "key_press": -1, "wordID": 1091, "type": "PRES_AUD", "trial_index": 199}, "uniqueid": "MTK2104:33IZTU6J828CE3BZLC7VFFDZB9LXS2", "dateTime": 1516733947217}, {"current_trial": 200, "trialdata": {"rt": -1000, "trial_type": "single-audio", "word": "sidewalk", "stimulus": "/static/audio/wordpool/SIDEWALK.wav", "conditions": [12, 1600, "a", 24000], "internal_node_id": "0.0-146.0", "trial": 5, "time_elapsed": 1165253, "serialpos": 3, "key_press": -1, "wordID": 1302, "type": "PRES_AUD", "trial_index": 200}, "uniqueid": "MTK2104:33IZTU6J828CE3BZLC7VFFDZB9LXS2", "dateTime": 1516733949708}, {"current_trial": 201, "trialdata": {"rt": -1000, "trial_type": "single-audio", "word": "tile", "stimulus": "/static/audio/wordpool/TILE.wav", "conditions": [12, 1600, "a", 24000], "internal_node_id": "0.0-147.0", "trial": 5, "time_elapsed": 1167762, "serialpos": 4, "key_press": -1, "wordID": 1467, "type": "PRES_AUD", "trial_index": 201}, "uniqueid": "MTK2104:33IZTU6J828CE3BZLC7VFFDZB9LXS2", "dateTime": 1516733952217}, {"current_trial": 202, "trialdata": {"rt": -1000, "trial_type": "single-audio", "word": "bunny", "stimulus": "/static/audio/wordpool/BUNNY.wav", "conditions": [12, 1600, "a", 24000], "internal_node_id": "0.0-148.0", "trial": 5, "time_elapsed": 1170355, "serialpos": 5, "key_press": -1, "wordID": 197, "type": "PRES_AUD", "trial_index": 202}, "uniqueid": "MTK2104:33IZTU6J828CE3BZLC7VFFDZB9LXS2", "dateTime": 1516733954810}, {"current_trial": 203, "trialdata": {"rt": -1000, "trial_type": "single-audio", "word": "chipmunk", "stimulus": "/static/audio/wordpool/CHIPMUNK.wav", "conditions": [12, 1600, "a", 24000], "internal_node_id": "0.0-149.0", "trial": 5, "time_elapsed": 1172945, "serialpos": 6, "key_press": -1, "wordID": 303, "type": "PRES_AUD", "trial_index": 203}, "uniqueid": "MTK2104:33IZTU6J828CE3BZLC7VFFDZB9LXS2", "dateTime": 1516733957400}, {"current_trial": 204, "trialdata": {"rt": -1000, "trial_type": "single-audio", "word": "bike", "stimulus": "/static/audio/wordpool/BIKE.wav", "conditions": [12, 1600, "a", 24000], "internal_node_id": "0.0-150.0", "trial": 5, "time_elapsed": 1175527, "serialpos": 7, "key_press": -1, "wordID": 124, "type": "PRES_AUD", "trial_index": 204}, "uniqueid": "MTK2104:33IZTU6J828CE3BZLC7VFFDZB9LXS2", "dateTime": 1516733959982}, {"current_trial": 205, "trialdata": {"rt": -1000, "trial_type": "single-audio", "word": "friend", "stimulus": "/static/audio/wordpool/FRIEND.wav", "conditions": [12, 1600, "a", 24000], "internal_node_id": "0.0-151.0", "trial": 5, "time_elapsed": 1178098, "serialpos": 8, "key_press": -1, "wordID": 605, "type": "PRES_AUD", "trial_index": 205}, "uniqueid": "MTK2104:33IZTU6J828CE3BZLC7VFFDZB9LXS2", "dateTime": 1516733962554}, {"current_trial": 206, "trialdata": {"rt": -1000, "trial_type": "single-audio", "word": "scribble", "stimulus": "/static/audio/wordpool/SCRIBBLE.wav", "conditions": [12, 1600, "a", 24000], "internal_node_id": "0.0-152.0", "trial": 5, "time_elapsed": 1180767, "serialpos": 9, "key_press": -1, "wordID": 1255, "type": "PRES_AUD", "trial_index": 206}, "uniqueid": "MTK2104:33IZTU6J828CE3BZLC7VFFDZB9LXS2", "dateTime": 1516733965222}, {"current_trial": 207, "trialdata": {"rt": -1000, "trial_type": "single-audio", "word": "diver", "stimulus": "/static/audio/wordpool/DIVER.wav", "conditions": [12, 1600, "a", 24000], "internal_node_id": "0.0-153.0", "trial": 5, "time_elapsed": 1183486, "serialpos": 10, "key_press": -1, "wordID": 475, "type": "PRES_AUD", "trial_index": 207}, "uniqueid": "MTK2104:33IZTU6J828CE3BZLC7VFFDZB9LXS2", "dateTime": 1516733967942}, {"current_trial": 208, "trialdata": {"rt": -1000, "trial_type": "single-audio", "word": "brick", "stimulus": "/static/audio/wordpool/BRICK.wav", "conditions": [12, 1600, "a", 24000], "internal_node_id": "0.0-154.0", "trial": 5, "time_elapsed": 1186041, "serialpos": 11, "key_press": -1, "wordID": 171, "type": "PRES_AUD", "trial_index": 208}, "uniqueid": "MTK2104:33IZTU6J828CE3BZLC7VFFDZB9LXS2", "dateTime": 1516733970496}, {"current_trial": 209, "trialdata": {"rt": -1, "trial_type": "single-stim", "stimulus": "", "internal_node_id": "0.0-155.0-0.0", "time_elapsed": 1187395, "key_press": -1, "type": "PRE_RECALL_DELAY", "trial_index": 209}, "uniqueid": "MTK2104:33IZTU6J828CE3BZLC7VFFDZB9LXS2", "dateTime": 1516733971851}, {"current_trial": 210, "trialdata": {"rt": -1000, "trial_type": "single-audio", "stimulus": "/static/audio/400Hz.wav", "internal_node_id": "0.0-156.0", "time_elapsed": 1187904, "key_press": -1, "type": "PRE_RECALL_ALERT", "trial_index": 210}, "uniqueid": "MTK2104:33IZTU6J828CE3BZLC7VFFDZB9LXS2", "dateTime": 1516733972359}, {"current_trial": 211, "trialdata": {"rt": [2836, 4330, 6746, 8194, 10250, 12066, 13530, 14762, 15866, 16794, 22458, 26674], "recwords": ["brick", "tile", "sidewalk", "bunny", "chipmunk", "pluto", "venus", "heart", "friend", "bike", "diver", "scribble"], "key_times": [1539, 1698, 1898, 2090, 2338, 2836, 3562, 3650, 3946, 4098, 4330, 4810, 4906, 5058, 5490, 5722, 5954, 6258, 6530, 6746, 7114, 7338, 7602, 7770, 8018, 8194, 8378, 8506, 8650, 8938, 9210, 9442, 9706, 9866, 10250, 10746, 10978, 11290, 11506, 11658, 12066, 12474, 12658, 13002, 13234, 13362, 13530, 13714, 13826, 14082, 14194, 14450, 14762, 15066, 15234, 15330, 15442, 15602, 15714, 15866, 16050, 16186, 16434, 16610, 16794, 21609, 21690, 21970, 22082, 22314, 22458, 24674, 24834, 25162, 25330, 25562, 26026, 26330, 26458, 26674], "trial_type": "free-recall", "conditions": [12, 1600, "a", 24000], "internal_node_id": "0.0-157.0-0.0", "key_presses": [66, 82, 73, 67, 75, 32, 84, 73, 76, 69, 32, 83, 73, 68, 69, 87, 65, 76, 75, 32, 66, 85, 78, 78, 89, 32, 67, 72, 73, 80, 77, 85, 78, 75, 32, 80, 76, 85, 84, 79, 32, 86, 69, 78, 85, 83, 32, 72, 69, 65, 82, 84, 32, 70, 82, 73, 69, 78, 68, 32, 66, 73, 75, 69, 32, 68, 73, 86, 69, 82, 32, 83, 67, 82, 73, 66, 66, 76, 69, 32], "trial": 5, "time_elapsed": 1247908, "type": "FREE_RECALL", "trial_index": 211}, "uniqueid": "MTK2104:33IZTU6J828CE3BZLC7VFFDZB9LXS2", "dateTime": 1516734032365}, {"current_trial": 212, "trialdata": {"rt": 4686, "trial_type": "text", "internal_node_id": "0.0-158.0", "time_elapsed": 1254596, "key_press": 32, "type": "INSTRUCTIONS", "trial_index": 212}, "uniqueid": "MTK2104:33IZTU6J828CE3BZLC7VFFDZB9LXS2", "dateTime": 1516734039051}, {"current_trial": 213, "trialdata": {"rt": [5646, 7926, 10910, 16342, 18574, 20686, 23526], "trial_type": "math-distractor", "key_times": [4774, 5062, 5646, 7358, 7558, 7926, 10007, 10422, 10910, 15958, 16342, 18214, 18574, 20102, 20374, 20686, 22950, 23246, 23526], "responses": ["24", "10", "17", "9", "8", "19", "13"], "num2": [9, 3, 5, 7, 1, 6, 3, 3], "num3": [6, 2, 7, 1, 5, 9, 9, 5], "conditions": [24, 1600, "a", 24000], "internal_node_id": "0.0-159.0", "key_presses": [98, 100, 13, 97, 96, 13, 97, 103, 13, 105, 13, 104, 13, 97, 105, 13, 97, 99, 13], "trial": 6, "time_elapsed": 1280598, "type": "DISTRACTOR", "trial_index": 213, "num1": [9, 5, 5, 1, 2, 6, 1, 5]}, "uniqueid": "MTK2104:33IZTU6J828CE3BZLC7VFFDZB9LXS2", "dateTime": 1516734065053}, {"current_trial": 214, "trialdata": {"rt": -1, "trial_type": "single-stim", "stimulus": "<p id=\"stim\">10</p>", "internal_node_id": "0.0-160.0-0.0", "time_elapsed": 1283600, "key_press": -1, "trial_index": 214}, "uniqueid": "MTK2104:33IZTU6J828CE3BZLC7VFFDZB9LXS2", "dateTime": 1516734068055}, {"current_trial": 215, "trialdata": {"rt": -1, "trial_type": "single-stim", "stimulus": "<p id=\"stim\">9</p>", "internal_node_id": "0.0-160.0-1.0", "time_elapsed": 1284601, "key_press": -1, "trial_index": 215}, "uniqueid": "MTK2104:33IZTU6J828CE3BZLC7VFFDZB9LXS2", "dateTime": 1516734069056}, {"current_trial": 216, "trialdata": {"rt": -1, "trial_type": "single-stim", "stimulus": "<p id=\"stim\">8</p>", "internal_node_id": "0.0-160.0-2.0", "time_elapsed": 1285602, "key_press": -1, "trial_index": 216}, "uniqueid": "MTK2104:33IZTU6J828CE3BZLC7VFFDZB9LXS2", "dateTime": 1516734070057}, {"current_trial": 217, "trialdata": {"rt": -1, "trial_type": "single-stim", "stimulus": "<p id=\"stim\">7</p>", "internal_node_id": "0.0-160.0-3.0", "time_elapsed": 1286603, "key_press": -1, "trial_index": 217}, "uniqueid": "MTK2104:33IZTU6J828CE3BZLC7VFFDZB9LXS2", "dateTime": 1516734071058}, {"current_trial": 218, "trialdata": {"rt": -1, "trial_type": "single-stim", "stimulus": "<p id=\"stim\">6</p>", "internal_node_id": "0.0-160.0-4.0", "time_elapsed": 1287604, "key_press": -1, "trial_index": 218}, "uniqueid": "MTK2104:33IZTU6J828CE3BZLC7VFFDZB9LXS2", "dateTime": 1516734072059}, {"current_trial": 219, "trialdata": {"rt": -1, "trial_type": "single-stim", "stimulus": "<p id=\"stim\">5</p>", "internal_node_id": "0.0-160.0-5.0", "time_elapsed": 1288605, "key_press": -1, "trial_index": 219}, "uniqueid": "MTK2104:33IZTU6J828CE3BZLC7VFFDZB9LXS2", "dateTime": 1516734073060}, {"current_trial": 220, "trialdata": {"rt": -1, "trial_type": "single-stim", "stimulus": "<p id=\"stim\">4</p>", "internal_node_id": "0.0-160.0-6.0", "time_elapsed": 1289606, "key_press": -1, "trial_index": 220}, "uniqueid": "MTK2104:33IZTU6J828CE3BZLC7VFFDZB9LXS2", "dateTime": 1516734074061}, {"current_trial": 221, "trialdata": {"rt": -1, "trial_type": "single-stim", "stimulus": "<p id=\"stim\">3</p>", "internal_node_id": "0.0-160.0-7.0", "time_elapsed": 1290607, "key_press": -1, "trial_index": 221}, "uniqueid": "MTK2104:33IZTU6J828CE3BZLC7VFFDZB9LXS2", "dateTime": 1516734075062}, {"current_trial": 222, "trialdata": {"rt": -1, "trial_type": "single-stim", "stimulus": "<p id=\"stim\">2</p>", "internal_node_id": "0.0-160.0-8.0", "time_elapsed": 1291608, "key_press": -1, "trial_index": 222}, "uniqueid": "MTK2104:33IZTU6J828CE3BZLC7VFFDZB9LXS2", "dateTime": 1516734076063}, {"current_trial": 223, "trialdata": {"rt": -1, "trial_type": "single-stim", "stimulus": "<p id=\"stim\">1</p>", "internal_node_id": "0.0-160.0-9.0", "time_elapsed": 1292609, "key_press": -1, "trial_index": 223}, "uniqueid": "MTK2104:33IZTU6J828CE3BZLC7VFFDZB9LXS2", "dateTime": 1516734077064}, {"current_trial": 224, "trialdata": {"rt": -1, "trial_type": "single-stim", "stimulus": "<p id=\"stim\">+</p>", "internal_node_id": "0.0-161.0-0.0", "time_elapsed": 1294111, "key_press": -1, "type": "FIXATION", "trial_index": 224}, "uniqueid": "MTK2104:33IZTU6J828CE3BZLC7VFFDZB9LXS2", "dateTime": 1516734078566}, {"current_trial": 225, "trialdata": {"rt": -1000, "trial_type": "single-audio", "word": "carriage", "stimulus": "/static/audio/wordpool/CARRIAGE.wav", "conditions": [24, 1600, "a", 24000], "internal_node_id": "0.0-162.0", "trial": 6, "time_elapsed": 1296594, "serialpos": 0, "key_press": -1, "wordID": 247, "type": "PRES_AUD", "trial_index": 225}, "uniqueid": "MTK2104:33IZTU6J828CE3BZLC7VFFDZB9LXS2", "dateTime": 1516734081050}, {"current_trial": 226, "trialdata": {"rt": -1000, "trial_type": "single-audio", "word": "tuba", "stimulus": "/static/audio/wordpool/TUBA.wav", "conditions": [24, 1600, "a", 24000], "internal_node_id": "0.0-163.0", "trial": 6, "time_elapsed": 1299039, "serialpos": 1, "key_press": -1, "wordID": 1514, "type": "PRES_AUD", "trial_index": 226}, "uniqueid": "MTK2104:33IZTU6J828CE3BZLC7VFFDZB9LXS2", "dateTime": 1516734083494}, {"current_trial": 227, "trialdata": {"rt": -1000, "trial_type": "single-audio", "word": "denim", "stimulus": "/static/audio/wordpool/DENIM.wav", "conditions": [24, 1600, "a", 24000], "internal_node_id": "0.0-164.0", "trial": 6, "time_elapsed": 1301743, "serialpos": 2, "key_press": -1, "wordID": 445, "type": "PRES_AUD", "trial_index": 227}, "uniqueid": "MTK2104:33IZTU6J828CE3BZLC7VFFDZB9LXS2", "dateTime": 1516734086198}, {"current_trial": 228, "trialdata": {"rt": -1000, "trial_type": "single-audio", "word": "rebel", "stimulus": "/static/audio/wordpool/REBEL.wav", "conditions": [24, 1600, "a", 24000], "internal_node_id": "0.0-165.0", "trial": 6, "time_elapsed": 1304456, "serialpos": 3, "key_press": -1, "wordID": 1171, "type": "PRES_AUD", "trial_index": 228}, "uniqueid": "MTK2104:33IZTU6J828CE3BZLC7VFFDZB9LXS2", "dateTime": 1516734088911}, {"current_trial": 229, "trialdata": {"rt": -1000, "trial_type": "single-audio", "word": "gangster", "stimulus": "/static/audio/wordpool/GANGSTER.wav", "conditions": [24, 1600, "a", 24000], "internal_node_id": "0.0-166.0", "trial": 6, "time_elapsed": 1307094, "serialpos": 4, "key_press": -1, "wordID": 619, "type": "PRES_AUD", "trial_index": 229}, "uniqueid": "MTK2104:33IZTU6J828CE3BZLC7VFFDZB9LXS2", "dateTime": 1516734091549}, {"current_trial": 230, "trialdata": {"rt": -1000, "trial_type": "single-audio", "word": "plate", "stimulus": "/static/audio/wordpool/PLATE.wav", "conditions": [24, 1600, "a", 24000], "internal_node_id": "0.0-167.0", "trial": 6, "time_elapsed": 1309764, "serialpos": 5, "key_press": -1, "wordID": 1085, "type": "PRES_AUD", "trial_index": 230}, "uniqueid": "MTK2104:33IZTU6J828CE3BZLC7VFFDZB9LXS2", "dateTime": 1516734094219}, {"current_trial": 231, "trialdata": {"rt": -1000, "trial_type": "single-audio", "word": "cyclone", "stimulus": "/static/audio/wordpool/CYCLONE.wav", "conditions": [24, 1600, "a", 24000], "internal_node_id": "0.0-168.0", "trial": 6, "time_elapsed": 1312234, "serialpos": 6, "key_press": -1, "wordID": 430, "type": "PRES_AUD", "trial_index": 231}, "uniqueid": "MTK2104:33IZTU6J828CE3BZLC7VFFDZB9LXS2", "dateTime": 1516734096689}, {"current_trial": 232, "trialdata": {"rt": -1000, "trial_type": "single-audio", "word": "stomach", "stimulus": "/static/audio/wordpool/STOMACH.wav", "conditions": [24, 1600, "a", 24000], "internal_node_id": "0.0-169.0", "trial": 6, "time_elapsed": 1314920, "serialpos": 7, "key_press": -1, "wordID": 1383, "type": "PRES_AUD", "trial_index": 232}, "uniqueid": "MTK2104:33IZTU6J828CE3BZLC7VFFDZB9LXS2", "dateTime": 1516734099375}, {"current_trial": 233, "trialdata": {"rt": -1000, "trial_type": "single-audio", "word": "chest", "stimulus": "/static/audio/wordpool/CHEST.wav", "conditions": [24, 1600, "a", 24000], "internal_node_id": "0.0-170.0", "trial": 6, "time_elapsed": 1317484, "serialpos": 8, "key_press": -1, "wordID": 294, "type": "PRES_AUD", "trial_index": 233}, "uniqueid": "MTK2104:33IZTU6J828CE3BZLC7VFFDZB9LXS2", "dateTime": 1516734101939}, {"current_trial": 234, "trialdata": {"rt": -1000, "trial_type": "single-audio", "word": "nurse", "stimulus": "/static/audio/wordpool/NURSE.wav", "conditions": [24, 1600, "a", 24000], "internal_node_id": "0.0-171.0", "trial": 6, "time_elapsed": 1319940, "serialpos": 9, "key_press": -1, "wordID": 962, "type": "PRES_AUD", "trial_index": 234}, "uniqueid": "MTK2104:33IZTU6J828CE3BZLC7VFFDZB9LXS2", "dateTime": 1516734104395}, {"current_trial": 235, "trialdata": {"rt": -1000, "trial_type": "single-audio", "word": "flower", "stimulus": "/static/audio/wordpool/FLOWER.wav", "conditions": [24, 1600, "a", 24000], "internal_node_id": "0.0-172.0", "trial": 6, "time_elapsed": 1322546, "serialpos": 10, "key_press": -1, "wordID": 583, "type": "PRES_AUD", "trial_index": 235}, "uniqueid": "MTK2104:33IZTU6J828CE3BZLC7VFFDZB9LXS2", "dateTime": 1516734107001}, {"current_trial": 236, "trialdata": {"rt": -1000, "trial_type": "single-audio", "word": "dress", "stimulus": "/static/audio/wordpool/DRESS.wav", "conditions": [24, 1600, "a", 24000], "internal_node_id": "0.0-173.0", "trial": 6, "time_elapsed": 1325087, "serialpos": 11, "key_press": -1, "wordID": 494, "type": "PRES_AUD", "trial_index": 236}, "uniqueid": "MTK2104:33IZTU6J828CE3BZLC7VFFDZB9LXS2", "dateTime": 1516734109542}, {"current_trial": 237, "trialdata": {"rt": -1000, "trial_type": "single-audio", "word": "subway", "stimulus": "/static/audio/wordpool/SUBWAY.wav", "conditions": [24, 1600, "a", 24000], "internal_node_id": "0.0-174.0", "trial": 6, "time_elapsed": 1327576, "serialpos": 12, "key_press": -1, "wordID": 1399, "type": "PRES_AUD", "trial_index": 237}, "uniqueid": "MTK2104:33IZTU6J828CE3BZLC7VFFDZB9LXS2", "dateTime": 1516734112031}, {"current_trial": 238, "trialdata": {"rt": -1000, "trial_type": "single-audio", "word": "turnip", "stimulus": "/static/audio/wordpool/TURNIP.wav", "conditions": [24, 1600, "a", 24000], "internal_node_id": "0.0-175.0", "trial": 6, "time_elapsed": 1330347, "serialpos": 13, "key_press": -1, "wordID": 1520, "type": "PRES_AUD", "trial_index": 238}, "uniqueid": "MTK2104:33IZTU6J828CE3BZLC7VFFDZB9LXS2", "dateTime": 1516734114802}, {"current_trial": 239, "trialdata": {"rt": -1000, "trial_type": "single-audio", "word": "shirt", "stimulus": "/static/audio/wordpool/SHIRT.wav", "conditions": [24, 1600, "a", 24000], "internal_node_id": "0.0-176.0", "trial": 6, "time_elapsed": 1332945, "serialpos": 14, "key_press": -1, "wordID": 1286, "type": "PRES_AUD", "trial_index": 239}, "uniqueid": "MTK2104:33IZTU6J828CE3BZLC7VFFDZB9LXS2", "dateTime": 1516734117400}, {"current_trial": 240, "trialdata": {"rt": -1000, "trial_type": "single-audio", "word": "student", "stimulus": "/static/audio/wordpool/STUDENT.wav", "conditions": [24, 1600, "a", 24000], "internal_node_id": "0.0-177.0", "trial": 6, "time_elapsed": 1335704, "serialpos": 15, "key_press": -1, "wordID": 1394, "type": "PRES_AUD", "trial_index": 240}, "uniqueid": "MTK2104:33IZTU6J828CE3BZLC7VFFDZB9LXS2", "dateTime": 1516734120159}, {"current_trial": 241, "trialdata": {"rt": -1000, "trial_type": "single-audio", "word": "teacher", "stimulus": "/static/audio/wordpool/TEACHER.wav", "conditions": [24, 1600, "a", 24000], "internal_node_id": "0.0-178.0", "trial": 6, "time_elapsed": 1338266, "serialpos": 16, "key_press": -1, "wordID": 1439, "type": "PRES_AUD", "trial_index": 241}, "uniqueid": "MTK2104:33IZTU6J828CE3BZLC7VFFDZB9LXS2", "dateTime": 1516734122721}, {"current_trial": 242, "trialdata": {"rt": -1000, "trial_type": "single-audio", "word": "camel", "stimulus": "/static/audio/wordpool/CAMEL.wav", "conditions": [24, 1600, "a", 24000], "internal_node_id": "0.0-179.0", "trial": 6, "time_elapsed": 1341033, "serialpos": 17, "key_press": -1, "wordID": 222, "type": "PRES_AUD", "trial_index": 242}, "uniqueid": "MTK2104:33IZTU6J828CE3BZLC7VFFDZB9LXS2", "dateTime": 1516734125488}, {"current_trial": 243, "trialdata": {"rt": -1000, "trial_type": "single-audio", "word": "outlaw", "stimulus": "/static/audio/wordpool/OUTLAW.wav", "conditions": [24, 1600, "a", 24000], "internal_node_id": "0.0-180.0", "trial": 6, "time_elapsed": 1343776, "serialpos": 18, "key_press": -1, "wordID": 988, "type": "PRES_AUD", "trial_index": 243}, "uniqueid": "MTK2104:33IZTU6J828CE3BZLC7VFFDZB9LXS2", "dateTime": 1516734128231}, {"current_trial": 244, "trialdata": {"rt": -1000, "trial_type": "single-audio", "word": "actor", "stimulus": "/static/audio/wordpool/ACTOR.wav", "conditions": [24, 1600, "a", 24000], "internal_node_id": "0.0-181.0", "trial": 6, "time_elapsed": 1346473, "serialpos": 19, "key_press": -1, "wordID": 4, "type": "PRES_AUD", "trial_index": 244}, "uniqueid": "MTK2104:33IZTU6J828CE3BZLC7VFFDZB9LXS2", "dateTime": 1516734130928}, {"current_trial": 245, "trialdata": {"rt": -1000, "trial_type": "single-audio", "word": "victim", "stimulus": "/static/audio/wordpool/VICTIM.wav", "conditions": [24, 1600, "a", 24000], "internal_node_id": "0.0-182.0", "trial": 6, "time_elapsed": 1349093, "serialpos": 20, "key_press": -1, "wordID": 1561, "type": "PRES_AUD", "trial_index": 245}, "uniqueid": "MTK2104:33IZTU6J828CE3BZLC7VFFDZB9LXS2", "dateTime": 1516734133548}, {"current_trial": 246, "trialdata": {"rt": -1000, "trial_type": "single-audio", "word": "kleenex", "stimulus": "/static/audio/wordpool/KLEENEX.wav", "conditions": [24, 1600, "a", 24000], "internal_node_id": "0.0-183.0", "trial": 6, "time_elapsed": 1351902, "serialpos": 21, "key_press": -1, "wordID": 781, "type": "PRES_AUD", "trial_index": 246}, "uniqueid": "MTK2104:33IZTU6J828CE3BZLC7VFFDZB9LXS2", "dateTime": 1516734136357}, {"current_trial": 247, "trialdata": {"rt": -1000, "trial_type": "single-audio", "word": "racket", "stimulus": "/static/audio/wordpool/RACKET.wav", "conditions": [24, 1600, "a", 24000], "internal_node_id": "0.0-184.0", "trial": 6, "time_elapsed": 1354693, "serialpos": 22, "key_press": -1, "wordID": 1154, "type": "PRES_AUD", "trial_index": 247}, "uniqueid": "MTK2104:33IZTU6J828CE3BZLC7VFFDZB9LXS2", "dateTime": 1516734139148}, {"current_trial": 248, "trialdata": {"rt": -1000, "trial_type": "single-audio", "word": "woman", "stimulus": "/static/audio/wordpool/WOMAN.wav", "conditions": [24, 1600, "a", 24000], "internal_node_id": "0.0-185.0", "trial": 6, "time_elapsed": 1357271, "serialpos": 23, "key_press": -1, "wordID": 1619, "type": "PRES_AUD", "trial_index": 248}, "uniqueid": "MTK2104:33IZTU6J828CE3BZLC7VFFDZB9LXS2", "dateTime": 1516734141726}, {"current_trial": 249, "trialdata": {"rt": -1, "trial_type": "single-stim", "stimulus": "", "internal_node_id": "0.0-186.0-0.0", "time_elapsed": 1358619, "key_press": -1, "type": "PRE_RECALL_DELAY", "trial_index": 249}, "uniqueid": "MTK2104:33IZTU6J828CE3BZLC7VFFDZB9LXS2", "dateTime": 1516734143074}, {"current_trial": 250, "trialdata": {"rt": -1000, "trial_type": "single-audio", "stimulus": "/static/audio/400Hz.wav", "internal_node_id": "0.0-187.0", "time_elapsed": 1359122, "key_press": -1, "type": "PRE_RECALL_ALERT", "trial_index": 250}, "uniqueid": "MTK2104:33IZTU6J828CE3BZLC7VFFDZB9LXS2", "dateTime": 1516734143577}, {"current_trial": 251, "trialdata": {"rt": [3248, 5304, 7152, 8968, 10704, 12400, 13968, 15448, 18560, 28928, 44272], "recwords": ["woamn", "rebel", "outlaw", "victim", "nurse", "stomach", "chest", "dress", "denim", "actor",