{"assignmentId": "3LEP4MGT3H7ZZBPGJQKOVJ07TCGBDQ", "workerId": "MTK2619", "questiondata": {"origin": "United States", "strat-rehearsal": "0", "marital": "Married/Domestic Partnership", "education": "Master's degree", "ethnicity": "Not Hispanic", "color_depth": 24, "distracted": "No", "wrote-notes": "No", "strat-other": "", "screen_width": 1600, "avail_screen_width": 1600, "avail_screen_height": 900, "strat-image": "93", "language": "English", "gender": "Female", "age": "38", "gender_other": "", "race": ["White"], "strat-categorize": "19", "pixel_depth": 24, "strat-spatial": "12", "strat-story": "94", "race_other": "", "screen_height": 900}, "bonus": 0, "hitId": "33NOQL7T9O6HDUYBIUK96PXPPIB8ZM", "counterbalance": 1652, "useragent": "Mozilla/5.0 (Windows NT 10.0; Win64; x64) AppleWebKit/537.36 (KHTML, like Gecko) Chrome/64.0.3282.167 Safari/537.36", "eventdata": [{"eventtype": "initialized", "interval": 0, "value": null, "timestamp": 1519157270211}, {"eventtype": "window_resize", "interval": 0, "value": [1600, 853], "timestamp": 1519157270211}, {"eventtype": "window_resize", "interval": 54675, "value": [1600, 849], "timestamp": 1519157324886}, {"eventtype": "focus", "interval": 12907, "value": "off", "timestamp": 1519157337793}, {"eventtype": "focus", "interval": 1809, "value": "on", "timestamp": 1519157339602}, {"eventtype": "focus", "interval": 1886, "value": "off", "timestamp": 1519157341488}, {"eventtype": "focus", "interval": 6002, "value": "on", "timestamp": 1519157347490}, {"eventtype": "focus", "interval": 10125, "value": "off", "timestamp": 1519157357615}, {"eventtype": "focus", "interval": 2891, "value": "on", "timestamp": 1519157360506}, {"eventtype": "focus", "interval": 66004, "value": "off", "timestamp": 1519157426510}, {"eventtype": "focus", "interval": 6663, "value": "on", "timestamp": 1519157433173}, {"eventtype": "focus", "interval": 1896, "value": "off", "timestamp": 1519157435069}, {"eventtype": "focus", "interval": 3359, "value": "on", "timestamp": 1519157438428}, {"eventtype": "focus", "interval": 22193, "value": "off", "timestamp": 1519157460621}, {"eventtype": "focus", "interval": 548, "value": "on", "timestamp": 1519157461169}, {"eventtype": "focus", "interval": 2106003, "value": "off", "timestamp": 1519159567172}, {"eventtype": "focus", "interval": 2431, "value": "on", "timestamp": 1519159569603}], "data": [{"current_trial": 0, "trialdata": {"rt": 10286, "trial_type": "text", "internal_node_id": "0.0-0.0", "time_elapsed": 10290, "key_press": 71, "type": "INSTRUCTIONS", "trial_index": 0}, "uniqueid": "MTK2619:3LEP4MGT3H7ZZBPGJQKOVJ07TCGBDQ", "dateTime": 1519157295841}, {"current_trial": 1, "trialdata": {"rt": 30596, "trial_type": "text", "internal_node_id": "0.0-1.0", "time_elapsed": 40886, "key_press": 72, "type": "INSTRUCTIONS", "trial_index": 1}, "uniqueid": "MTK2619:3LEP4MGT3H7ZZBPGJQKOVJ07TCGBDQ", "dateTime": 1519157326437}, {"current_trial": 2, "trialdata": {"rt": [28073], "trial_type": "audio-test", "responses": ["ocean"], "internal_node_id": "0.0-2.0", "time_elapsed": 69063, "type": "AUDIO_TEST", "trial_index": 2}, "uniqueid": "MTK2619:3LEP4MGT3H7ZZBPGJQKOVJ07TCGBDQ", "dateTime": 1519157354614}, {"current_trial": 3, "trialdata": {"rt": [10059], "trial_type": "audio-test", "responses": ["crystal"], "internal_node_id": "0.0-3.0", "time_elapsed": 79126, "type": "AUDIO_TEST", "trial_index": 3}, "uniqueid": "MTK2619:3LEP4MGT3H7ZZBPGJQKOVJ07TCGBDQ", "dateTime": 1519157364677}, {"current_trial": 4, "trialdata": {"rt": [4716], "trial_type": "audio-test", "responses": ["spice"], "internal_node_id": "0.0-4.0", "time_elapsed": 83845, "type": "AUDIO_TEST", "trial_index": 4}, "uniqueid": "MTK2619:3LEP4MGT3H7ZZBPGJQKOVJ07TCGBDQ", "dateTime": 1519157369396}, {"current_trial": 5, "trialdata": {"rt": 20168, "trial_type": "survey-text", "responses": "{\"Q0\":\"12:00\",\"Q1\":\"8:00\",\"Q2\":\"3\"}", "internal_node_id": "0.0-5.0", "time_elapsed": 104766, "type": "SLEEP_SURVEY", "trial_index": 5}, "uniqueid": "MTK2619:3LEP4MGT3H7ZZBPGJQKOVJ07TCGBDQ", "dateTime": 1519157390317}, {"current_trial": 6, "trialdata": {"rt": 50649, "trial_type": "text", "internal_node_id": "0.0-6.0", "time_elapsed": 156419, "key_press": 74, "type": "INSTRUCTIONS", "trial_index": 6}, "uniqueid": "MTK2619:3LEP4MGT3H7ZZBPGJQKOVJ07TCGBDQ", "dateTime": 1519157441970}, {"current_trial": 7, "trialdata": {"rt": 11995, "trial_type": "text", "internal_node_id": "0.0-7.0", "time_elapsed": 168918, "key_press": 74, "type": "INSTRUCTIONS", "trial_index": 7}, "uniqueid": "MTK2619:3LEP4MGT3H7ZZBPGJQKOVJ07TCGBDQ", "dateTime": 1519157454469}, {"current_trial": 8, "trialdata": {"rt": 10053, "trial_type": "text", "internal_node_id": "0.0-8.0", "time_elapsed": 179474, "key_press": 74, "type": "INSTRUCTIONS", "trial_index": 8}, "uniqueid": "MTK2619:3LEP4MGT3H7ZZBPGJQKOVJ07TCGBDQ", "dateTime": 1519157465025}, {"current_trial": 9, "trialdata": {"rt": [4645, 8293, 11300, 14060, 16476], "trial_type": "math-distractor", "key_times": [3653, 3934, 4645, 7584, 7684, 8293, 10430, 10558, 11300, 13326, 13597, 14060, 15772, 15948, 16476], "responses": ["13", "21", "14", "16", "11"], "num2": [1, 8, 1, 4, 4, 6], "num3": [7, 4, 5, 4, 6, 1], "conditions": [18, 1200, "a", 18000], "internal_node_id": "0.0-9.0", "key_presses": [49, 51, 13, 50, 49, 13, 49, 52, 13, 49, 54, 13, 49, 49, 13], "trial": 0, "time_elapsed": 198480, "type": "DISTRACTOR", "trial_index": 9, "num1": [5, 9, 8, 8, 1, 5]}, "uniqueid": "MTK2619:3LEP4MGT3H7ZZBPGJQKOVJ07TCGBDQ", "dateTime": 1519157484031}, {"current_trial": 10, "trialdata": {"rt": -1, "trial_type": "single-stim", "stimulus": "<p id=\"stim\">10</p>", "internal_node_id": "0.0-10.0-0.0", "time_elapsed": 201485, "key_press": -1, "trial_index": 10}, "uniqueid": "MTK2619:3LEP4MGT3H7ZZBPGJQKOVJ07TCGBDQ", "dateTime": 1519157487036}, {"current_trial": 11, "trialdata": {"rt": -1, "trial_type": "single-stim", "stimulus": "<p id=\"stim\">9</p>", "internal_node_id": "0.0-10.0-1.0", "time_elapsed": 202492, "key_press": -1, "trial_index": 11}, "uniqueid": "MTK2619:3LEP4MGT3H7ZZBPGJQKOVJ07TCGBDQ", "dateTime": 1519157488044}, {"current_trial": 12, "trialdata": {"rt": -1, "trial_type": "single-stim", "stimulus": "<p id=\"stim\">8</p>", "internal_node_id": "0.0-10.0-2.0", "time_elapsed": 203496, "key_press": -1, "trial_index": 12}, "uniqueid": "MTK2619:3LEP4MGT3H7ZZBPGJQKOVJ07TCGBDQ", "dateTime": 1519157489048}, {"current_trial": 13, "trialdata": {"rt": -1, "trial_type": "single-stim", "stimulus": "<p id=\"stim\">7</p>", "internal_node_id": "0.0-10.0-3.0", "time_elapsed": 204499, "key_press": -1, "trial_index": 13}, "uniqueid": "MTK2619:3LEP4MGT3H7ZZBPGJQKOVJ07TCGBDQ", "dateTime": 1519157490050}, {"current_trial": 14, "trialdata": {"rt": -1, "trial_type": "single-stim", "stimulus": "<p id=\"stim\">6</p>", "internal_node_id": "0.0-10.0-4.0", "time_elapsed": 205510, "key_press": -1, "trial_index": 14}, "uniqueid": "MTK2619:3LEP4MGT3H7ZZBPGJQKOVJ07TCGBDQ", "dateTime": 1519157491061}, {"current_trial": 15, "trialdata": {"rt": -1, "trial_type": "single-stim", "stimulus": "<p id=\"stim\">5</p>", "internal_node_id": "0.0-10.0-5.0", "time_elapsed": 206512, "key_press": -1, "trial_index": 15}, "uniqueid": "MTK2619:3LEP4MGT3H7ZZBPGJQKOVJ07TCGBDQ", "dateTime": 1519157492063}, {"current_trial": 16, "trialdata": {"rt": -1, "trial_type": "single-stim", "stimulus": "<p id=\"stim\">4</p>", "internal_node_id": "0.0-10.0-6.0", "time_elapsed": 207515, "key_press": -1, "trial_index": 16}, "uniqueid": "MTK2619:3LEP4MGT3H7ZZBPGJQKOVJ07TCGBDQ", "dateTime": 1519157493066}, {"current_trial": 17, "trialdata": {"rt": -1, "trial_type": "single-stim", "stimulus": "<p id=\"stim\">3</p>", "internal_node_id": "0.0-10.0-7.0", "time_elapsed": 208517, "key_press": -1, "trial_index": 17}, "uniqueid": "MTK2619:3LEP4MGT3H7ZZBPGJQKOVJ07TCGBDQ", "dateTime": 1519157494068}, {"current_trial": 18, "trialdata": {"rt": -1, "trial_type": "single-stim", "stimulus": "<p id=\"stim\">2</p>", "internal_node_id": "0.0-10.0-8.0", "time_elapsed": 209519, "key_press": -1, "trial_index": 18}, "uniqueid": "MTK2619:3LEP4MGT3H7ZZBPGJQKOVJ07TCGBDQ", "dateTime": 1519157495070}, {"current_trial": 19, "trialdata": {"rt": -1, "trial_type": "single-stim", "stimulus": "<p id=\"stim\">1</p>", "internal_node_id": "0.0-10.0-9.0", "time_elapsed": 210521, "key_press": -1, "trial_index": 19}, "uniqueid": "MTK2619:3LEP4MGT3H7ZZBPGJQKOVJ07TCGBDQ", "dateTime": 1519157496072}, {"current_trial": 20, "trialdata": {"rt": -1, "trial_type": "single-stim", "stimulus": "<p id=\"stim\">+</p>", "internal_node_id": "0.0-11.0-0.0", "time_elapsed": 212024, "key_press": -1, "type": "FIXATION", "trial_index": 20}, "uniqueid": "MTK2619:3LEP4MGT3H7ZZBPGJQKOVJ07TCGBDQ", "dateTime": 1519157497575}, {"current_trial": 21, "trialdata": {"rt": -1000, "trial_type": "single-audio", "word": "dancer", "stimulus": "/static/audio/wordpool/DANCER.wav", "conditions": [18, 1200, "a", 18000], "internal_node_id": "0.0-12.0", "trial": 0, "time_elapsed": 214100, "serialpos": 0, "key_press": -1, "wordID": 436, "type": "PRES_AUD", "trial_index": 21}, "uniqueid": "MTK2619:3LEP4MGT3H7ZZBPGJQKOVJ07TCGBDQ", "dateTime": 1519157499653}, {"current_trial": 22, "trialdata": {"rt": -1000, "trial_type": "single-audio", "word": "swimmer", "stimulus": "/static/audio/wordpool/SWIMMER.wav", "conditions": [18, 1200, "a", 18000], "internal_node_id": "0.0-13.0", "trial": 0, "time_elapsed": 216196, "serialpos": 1, "key_press": -1, "wordID": 1419, "type": "PRES_AUD", "trial_index": 22}, "uniqueid": "MTK2619:3LEP4MGT3H7ZZBPGJQKOVJ07TCGBDQ", "dateTime": 1519157501748}, {"current_trial": 23, "trialdata": {"rt": -1000, "trial_type": "single-audio", "word": "clothes", "stimulus": "/static/audio/wordpool/CLOTHES.wav", "conditions": [18, 1200, "a", 18000], "internal_node_id": "0.0-14.0", "trial": 0, "time_elapsed": 218525, "serialpos": 2, "key_press": -1, "wordID": 326, "type": "PRES_AUD", "trial_index": 23}, "uniqueid": "MTK2619:3LEP4MGT3H7ZZBPGJQKOVJ07TCGBDQ", "dateTime": 1519157504077}, {"current_trial": 24, "trialdata": {"rt": -1000, "trial_type": "single-audio", "word": "cross", "stimulus": "/static/audio/wordpool/CROSS.wav", "conditions": [18, 1200, "a", 18000], "internal_node_id": "0.0-15.0", "trial": 0, "time_elapsed": 220683, "serialpos": 3, "key_press": -1, "wordID": 412, "type": "PRES_AUD", "trial_index": 24}, "uniqueid": "MTK2619:3LEP4MGT3H7ZZBPGJQKOVJ07TCGBDQ", "dateTime": 1519157506235}, {"current_trial": 25, "trialdata": {"rt": -1000, "trial_type": "single-audio", "word": "shelter", "stimulus": "/static/audio/wordpool/SHELTER.wav", "conditions": [18, 1200, "a", 18000], "internal_node_id": "0.0-16.0", "trial": 0, "time_elapsed": 223024, "serialpos": 4, "key_press": -1, "wordID": 1281, "type": "PRES_AUD", "trial_index": 25}, "uniqueid": "MTK2619:3LEP4MGT3H7ZZBPGJQKOVJ07TCGBDQ", "dateTime": 1519157508575}, {"current_trial": 26, "trialdata": {"rt": -1000, "trial_type": "single-audio", "word": "football", "stimulus": "/static/audio/wordpool/FOOTBALL.wav", "conditions": [18, 1200, "a", 18000], "internal_node_id": "0.0-17.0", "trial": 0, "time_elapsed": 225274, "serialpos": 5, "key_press": -1, "wordID": 590, "type": "PRES_AUD", "trial_index": 26}, "uniqueid": "MTK2619:3LEP4MGT3H7ZZBPGJQKOVJ07TCGBDQ", "dateTime": 1519157510825}, {"current_trial": 27, "trialdata": {"rt": -1000, "trial_type": "single-audio", "word": "rabbit", "stimulus": "/static/audio/wordpool/RABBIT.wav", "conditions": [18, 1200, "a", 18000], "internal_node_id": "0.0-18.0", "trial": 0, "time_elapsed": 227566, "serialpos": 6, "key_press": -1, "wordID": 1151, "type": "PRES_AUD", "trial_index": 27}, "uniqueid": "MTK2619:3LEP4MGT3H7ZZBPGJQKOVJ07TCGBDQ", "dateTime": 1519157513117}, {"current_trial": 28, "trialdata": {"rt": -1000, "trial_type": "single-audio", "word": "motor", "stimulus": "/static/audio/wordpool/MOTOR.wav", "conditions": [18, 1200, "a", 18000], "internal_node_id": "0.0-19.0", "trial": 0, "time_elapsed": 229614, "serialpos": 7, "key_press": -1, "wordID": 921, "type": "PRES_AUD", "trial_index": 28}, "uniqueid": "MTK2619:3LEP4MGT3H7ZZBPGJQKOVJ07TCGBDQ", "dateTime": 1519157515165}, {"current_trial": 29, "trialdata": {"rt": -1000, "trial_type": "single-audio", "word": "carriage", "stimulus": "/static/audio/wordpool/CARRIAGE.wav", "conditions": [18, 1200, "a", 18000], "internal_node_id": "0.0-20.0", "trial": 0, "time_elapsed": 231784, "serialpos": 8, "key_press": -1, "wordID": 247, "type": "PRES_AUD", "trial_index": 29}, "uniqueid": "MTK2619:3LEP4MGT3H7ZZBPGJQKOVJ07TCGBDQ", "dateTime": 1519157517335}, {"current_trial": 30, "trialdata": {"rt": -1000, "trial_type": "single-audio", "word": "compass", "stimulus": "/static/audio/wordpool/COMPASS.wav", "conditions": [18, 1200, "a", 18000], "internal_node_id": "0.0-21.0", "trial": 0, "time_elapsed": 233873, "serialpos": 9, "key_press": -1, "wordID": 357, "type": "PRES_AUD", "trial_index": 30}, "uniqueid": "MTK2619:3LEP4MGT3H7ZZBPGJQKOVJ07TCGBDQ", "dateTime": 1519157519425}, {"current_trial": 31, "trialdata": {"rt": -1000, "trial_type": "single-audio", "word": "tortoise", "stimulus": "/static/audio/wordpool/TORTOISE.wav", "conditions": [18, 1200, "a", 18000], "internal_node_id": "0.0-22.0", "trial": 0, "time_elapsed": 235906, "serialpos": 10, "key_press": -1, "wordID": 1485, "type": "PRES_AUD", "trial_index": 31}, "uniqueid": "MTK2619:3LEP4MGT3H7ZZBPGJQKOVJ07TCGBDQ", "dateTime": 1519157521458}, {"current_trial": 32, "trialdata": {"rt": -1000, "trial_type": "single-audio", "word": "shark", "stimulus": "/static/audio/wordpool/SHARK.wav", "conditions": [18, 1200, "a", 18000], "internal_node_id": "0.0-23.0", "trial": 0, "time_elapsed": 238051, "serialpos": 11, "key_press": -1, "wordID": 1274, "type": "PRES_AUD", "trial_index": 32}, "uniqueid": "MTK2619:3LEP4MGT3H7ZZBPGJQKOVJ07TCGBDQ", "dateTime": 1519157523602}, {"current_trial": 33, "trialdata": {"rt": -1000, "trial_type": "single-audio", "word": "iceberg", "stimulus": "/static/audio/wordpool/ICEBERG.wav", "conditions": [18, 1200, "a", 18000], "internal_node_id": "0.0-24.0", "trial": 0, "time_elapsed": 240314, "serialpos": 12, "key_press": -1, "wordID": 730, "type": "PRES_AUD", "trial_index": 33}, "uniqueid": "MTK2619:3LEP4MGT3H7ZZBPGJQKOVJ07TCGBDQ", "dateTime": 1519157525865}, {"current_trial": 34, "trialdata": {"rt": -1000, "trial_type": "single-audio", "word": "penguin", "stimulus": "/static/audio/wordpool/PENGUIN.wav", "conditions": [18, 1200, "a", 18000], "internal_node_id": "0.0-25.0", "trial": 0, "time_elapsed": 242465, "serialpos": 13, "key_press": -1, "wordID": 1043, "type": "PRES_AUD", "trial_index": 34}, "uniqueid": "MTK2619:3LEP4MGT3H7ZZBPGJQKOVJ07TCGBDQ", "dateTime": 1519157528017}, {"current_trial": 35, "trialdata": {"rt": -1000, "trial_type": "single-audio", "word": "flipper", "stimulus": "/static/audio/wordpool/FLIPPER.wav", "conditions": [18, 1200, "a", 18000], "internal_node_id": "0.0-26.0", "trial": 0, "time_elapsed": 244622, "serialpos": 14, "key_press": -1, "wordID": 579, "type": "PRES_AUD", "trial_index": 35}, "uniqueid": "MTK2619:3LEP4MGT3H7ZZBPGJQKOVJ07TCGBDQ", "dateTime": 1519157530173}, {"current_trial": 36, "trialdata": {"rt": -1000, "trial_type": "single-audio", "word": "mailbox", "stimulus": "/static/audio/wordpool/MAILBOX.wav", "conditions": [18, 1200, "a", 18000], "internal_node_id": "0.0-27.0", "trial": 0, "time_elapsed": 246737, "serialpos": 15, "key_press": -1, "wordID": 856, "type": "PRES_AUD", "trial_index": 36}, "uniqueid": "MTK2619:3LEP4MGT3H7ZZBPGJQKOVJ07TCGBDQ", "dateTime": 1519157532289}, {"current_trial": 37, "trialdata": {"rt": -1000, "trial_type": "single-audio", "word": "fox", "stimulus": "/static/audio/wordpool/FOX.wav", "conditions": [18, 1200, "a", 18000], "internal_node_id": "0.0-28.0", "trial": 0, "time_elapsed": 248926, "serialpos": 16, "key_press": -1, "wordID": 597, "type": "PRES_AUD", "trial_index": 37}, "uniqueid": "MTK2619:3LEP4MGT3H7ZZBPGJQKOVJ07TCGBDQ", "dateTime": 1519157534477}, {"current_trial": 38, "trialdata": {"rt": -1000, "trial_type": "single-audio", "word": "puddle", "stimulus": "/static/audio/wordpool/PUDDLE.wav", "conditions": [18, 1200, "a", 18000], "internal_node_id": "0.0-29.0", "trial": 0, "time_elapsed": 251119, "serialpos": 17, "key_press": -1, "wordID": 1139, "type": "PRES_AUD", "trial_index": 38}, "uniqueid": "MTK2619:3LEP4MGT3H7ZZBPGJQKOVJ07TCGBDQ", "dateTime": 1519157536670}, {"current_trial": 39, "trialdata": {"rt": -1, "trial_type": "single-stim", "stimulus": "", "internal_node_id": "0.0-30.0-0.0", "time_elapsed": 252419, "key_press": -1, "type": "PRE_RECALL_DELAY", "trial_index": 39}, "uniqueid": "MTK2619:3LEP4MGT3H7ZZBPGJQKOVJ07TCGBDQ", "dateTime": 1519157537970}, {"current_trial": 40, "trialdata": {"rt": -1000, "trial_type": "single-audio", "stimulus": "/static/audio/400Hz.wav", "internal_node_id": "0.0-31.0", "time_elapsed": 252920, "key_press": -1, "type": "PRE_RECALL_ALERT", "trial_index": 40}, "uniqueid": "MTK2619:3LEP4MGT3H7ZZBPGJQKOVJ07TCGBDQ", "dateTime": 1519157538471}, {"current_trial": 41, "trialdata": {"rt": [2397, 4308, 5884, 6797, 8180, 9813, 11284, 12292, 23228, 28573, 32227], "recwords": ["dancer", "swimmer", "mailbox", "fox", "puddle", "penguin", "flipper", "shark", "carriage", "shelter", "compass"], "key_times": [1424, 1549, 1653, 1790, 2005, 2109, 2397, 3149, 3470, 3596, 3805, 3972, 4068, 4133, 4308, 4797, 4925, 5022, 5094, 5446, 5575, 5748, 5884, 6270, 6469, 6661, 6797, 7237, 7390, 7677, 7852, 7940, 8061, 8180, 8724, 8821, 8957, 9254, 9397, 9461, 9622, 9813, 10197, 10245, 10421, 10766, 10924, 11052, 11108, 11284, 11598, 11701, 11804, 11924, 12092, 12292, 21934, 22092, 22222, 22349, 22460, 22566, 22733, 22831, 23228, 27701, 27844, 27925, 28052, 28204, 28348, 28404, 28573, 31222, 31340, 31469, 31630, 31781, 31925, 32092, 32227], "trial_type": "free-recall", "conditions": [18, 1200, "a", 18000], "internal_node_id": "0.0-32.0-0.0", "key_presses": [68, 65, 78, 67, 69, 82, 13, 83, 87, 73, 77, 77, 69, 82, 13, 77, 65, 73, 76, 66, 79, 88, 13, 70, 79, 88, 13, 80, 85, 68, 68, 76, 69, 13, 80, 69, 78, 71, 85, 73, 78, 13, 70, 76, 73, 80, 80, 69, 82, 13, 83, 72, 65, 82, 75, 13, 67, 65, 82, 82, 73, 65, 71, 69, 13, 83, 72, 69, 76, 84, 69, 82, 13, 67, 79, 77, 80, 65, 83, 83, 13], "trial": 0, "time_elapsed": 312923, "type": "FREE_RECALL", "trial_index": 41}, "uniqueid": "MTK2619:3LEP4MGT3H7ZZBPGJQKOVJ07TCGBDQ", "dateTime": 1519157598479}, {"current_trial": 42, "trialdata": {"rt": 1109, "trial_type": "text", "internal_node_id": "0.0-33.0", "time_elapsed": 316037, "key_press": 75, "type": "INSTRUCTIONS", "trial_index": 42}, "uniqueid": "MTK2619:3LEP4MGT3H7ZZBPGJQKOVJ07TCGBDQ", "dateTime": 1519157601588}, {"current_trial": 43, "trialdata": {"rt": [4195, 6923, 9139, 11252, 14555, 16787], "trial_type": "math-distractor", "key_times": [3827, 3995, 4195, 6595, 6755, 6923, 8917, 9021, 9139, 10955, 11172, 11252, 13850, 14379, 14555, 16330, 16587, 16787], "responses": ["19", "17", "13", "14", "15", "18"], "num2": [5, 7, 2, 2, 3, 4, 8], "num3": [6, 1, 9, 4, 8, 8, 8], "conditions": [18, 1200, "a", 18000], "internal_node_id": "0.0-34.0", "key_presses": [49, 57, 13, 49, 55, 13, 49, 51, 13, 49, 52, 13, 49, 53, 13, 49, 56, 13], "trial": 1, "time_elapsed": 336041, "type": "DISTRACTOR", "trial_index": 43, "num1": [8, 9, 2, 8, 4, 6, 1]}, "uniqueid": "MTK2619:3LEP4MGT3H7ZZBPGJQKOVJ07TCGBDQ", "dateTime": 1519157621593}, {"current_trial": 44, "trialdata": {"rt": -1, "trial_type": "single-stim", "stimulus": "<p id=\"stim\">10</p>", "internal_node_id": "0.0-35.0-0.0", "time_elapsed": 339042, "key_press": -1, "trial_index": 44}, "uniqueid": "MTK2619:3LEP4MGT3H7ZZBPGJQKOVJ07TCGBDQ", "dateTime": 1519157624593}, {"current_trial": 45, "trialdata": {"rt": -1, "trial_type": "single-stim", "stimulus": "<p id=\"stim\">9</p>", "internal_node_id": "0.0-35.0-1.0", "time_elapsed": 340043, "key_press": -1, "trial_index": 45}, "uniqueid": "MTK2619:3LEP4MGT3H7ZZBPGJQKOVJ07TCGBDQ", "dateTime": 1519157625594}, {"current_trial": 46, "trialdata": {"rt": -1, "trial_type": "single-stim", "stimulus": "<p id=\"stim\">8</p>", "internal_node_id": "0.0-35.0-2.0", "time_elapsed": 341045, "key_press": -1, "trial_index": 46}, "uniqueid": "MTK2619:3LEP4MGT3H7ZZBPGJQKOVJ07TCGBDQ", "dateTime": 1519157626596}, {"current_trial": 47, "trialdata": {"rt": -1, "trial_type": "single-stim", "stimulus": "<p id=\"stim\">7</p>", "internal_node_id": "0.0-35.0-3.0", "time_elapsed": 342051, "key_press": -1, "trial_index": 47}, "uniqueid": "MTK2619:3LEP4MGT3H7ZZBPGJQKOVJ07TCGBDQ", "dateTime": 1519157627602}, {"current_trial": 48, "trialdata": {"rt": -1, "trial_type": "single-stim", "stimulus": "<p id=\"stim\">6</p>", "internal_node_id": "0.0-35.0-4.0", "time_elapsed": 343052, "key_press": -1, "trial_index": 48}, "uniqueid": "MTK2619:3LEP4MGT3H7ZZBPGJQKOVJ07TCGBDQ", "dateTime": 1519157628603}, {"current_trial": 49, "trialdata": {"rt": -1, "trial_type": "single-stim", "stimulus": "<p id=\"stim\">5</p>", "internal_node_id": "0.0-35.0-5.0", "time_elapsed": 344055, "key_press": -1, "trial_index": 49}, "uniqueid": "MTK2619:3LEP4MGT3H7ZZBPGJQKOVJ07TCGBDQ", "dateTime": 1519157629607}, {"current_trial": 50, "trialdata": {"rt": -1, "trial_type": "single-stim", "stimulus": "<p id=\"stim\">4</p>", "internal_node_id": "0.0-35.0-6.0", "time_elapsed": 345059, "key_press": -1, "trial_index": 50}, "uniqueid": "MTK2619:3LEP4MGT3H7ZZBPGJQKOVJ07TCGBDQ", "dateTime": 1519157630610}, {"current_trial": 51, "trialdata": {"rt": -1, "trial_type": "single-stim", "stimulus": "<p id=\"stim\">3</p>", "internal_node_id": "0.0-35.0-7.0", "time_elapsed": 346061, "key_press": -1, "trial_index": 51}, "uniqueid": "MTK2619:3LEP4MGT3H7ZZBPGJQKOVJ07TCGBDQ", "dateTime": 1519157631612}, {"current_trial": 52, "trialdata": {"rt": -1, "trial_type": "single-stim", "stimulus": "<p id=\"stim\">2</p>", "internal_node_id": "0.0-35.0-8.0", "time_elapsed": 347062, "key_press": -1, "trial_index": 52}, "uniqueid": "MTK2619:3LEP4MGT3H7ZZBPGJQKOVJ07TCGBDQ", "dateTime": 1519157632614}, {"current_trial": 53, "trialdata": {"rt": -1, "trial_type": "single-stim", "stimulus": "<p id=\"stim\">1</p>", "internal_node_id": "0.0-35.0-9.0", "time_elapsed": 348064, "key_press": -1, "trial_index": 53}, "uniqueid": "MTK2619:3LEP4MGT3H7ZZBPGJQKOVJ07TCGBDQ", "dateTime": 1519157633615}, {"current_trial": 54, "trialdata": {"rt": -1, "trial_type": "single-stim", "stimulus": "<p id=\"stim\">+</p>", "internal_node_id": "0.0-36.0-0.0", "time_elapsed": 349566, "key_press": -1, "type": "FIXATION", "trial_index": 54}, "uniqueid": "MTK2619:3LEP4MGT3H7ZZBPGJQKOVJ07TCGBDQ", "dateTime": 1519157635117}, {"current_trial": 55, "trialdata": {"rt": -1000, "trial_type": "single-audio", "word": "contract", "stimulus": "/static/audio/wordpool/CONTRACT.wav", "conditions": [18, 1200, "a", 18000], "internal_node_id": "0.0-37.0", "trial": 1, "time_elapsed": 351947, "serialpos": 0, "key_press": -1, "wordID": 367, "type": "PRES_AUD", "trial_index": 55}, "uniqueid": "MTK2619:3LEP4MGT3H7ZZBPGJQKOVJ07TCGBDQ", "dateTime": 1519157637499}, {"current_trial": 56, "trialdata": {"rt": -1000, "trial_type": "single-audio", "word": "twig", "stimulus": "/static/audio/wordpool/TWIG.wav", "conditions": [18, 1200, "a", 18000], "internal_node_id": "0.0-38.0", "trial": 1, "time_elapsed": 354268, "serialpos": 1, "key_press": -1, "wordID": 1526, "type": "PRES_AUD", "trial_index": 56}, "uniqueid": "MTK2619:3LEP4MGT3H7ZZBPGJQKOVJ07TCGBDQ", "dateTime": 1519157639819}, {"current_trial": 57, "trialdata": {"rt": -1000, "trial_type": "single-audio", "word": "friend", "stimulus": "/static/audio/wordpool/FRIEND.wav", "conditions": [18, 1200, "a", 18000], "internal_node_id": "0.0-39.0", "trial": 1, "time_elapsed": 356452, "serialpos": 2, "key_press": -1, "wordID": 605, "type": "PRES_AUD", "trial_index": 57}, "uniqueid": "MTK2619:3LEP4MGT3H7ZZBPGJQKOVJ07TCGBDQ", "dateTime": 1519157642005}, {"current_trial": 58, "trialdata": {"rt": -1000, "trial_type": "single-audio", "word": "rifle", "stimulus": "/static/audio/wordpool/RIFLE.wav", "conditions": [18, 1200, "a", 18000], "internal_node_id": "0.0-40.0", "trial": 1, "time_elapsed": 358708, "serialpos": 3, "key_press": -1, "wordID": 1191, "type": "PRES_AUD", "trial_index": 58}, "uniqueid": "MTK2619:3LEP4MGT3H7ZZBPGJQKOVJ07TCGBDQ", "dateTime": 1519157644259}, {"current_trial": 59, "trialdata": {"rt": -1000, "trial_type": "single-audio", "word": "waitress", "stimulus": "/static/audio/wordpool/WAITRESS.wav", "conditions": [18, 1200, "a", 18000], "internal_node_id": "0.0-41.0", "trial": 1, "time_elapsed": 360751, "serialpos": 4, "key_press": -1, "wordID": 1580, "type": "PRES_AUD", "trial_index": 59}, "uniqueid": "MTK2619:3LEP4MGT3H7ZZBPGJQKOVJ07TCGBDQ", "dateTime": 1519157646302}, {"current_trial": 60, "trialdata": {"rt": -1000, "trial_type": "single-audio", "word": "sheriff", "stimulus": "/static/audio/wordpool/SHERIFF.wav", "conditions": [18, 1200, "a", 18000], "internal_node_id": "0.0-42.0", "trial": 1, "time_elapsed": 362795, "serialpos": 5, "key_press": -1, "wordID": 1283, "type": "PRES_AUD", "trial_index": 60}, "uniqueid": "MTK2619:3LEP4MGT3H7ZZBPGJQKOVJ07TCGBDQ", "dateTime": 1519157648346}, {"current_trial": 61, "trialdata": {"rt": -1000, "trial_type": "single-audio", "word": "hawk", "stimulus": "/static/audio/wordpool/HAWK.wav", "conditions": [18, 1200, "a", 18000], "internal_node_id": "0.0-43.0", "trial": 1, "time_elapsed": 365075, "serialpos": 6, "key_press": -1, "wordID": 691, "type": "PRES_AUD", "trial_index": 61}, "uniqueid": "MTK2619:3LEP4MGT3H7ZZBPGJQKOVJ07TCGBDQ", "dateTime": 1519157650626}, {"current_trial": 62, "trialdata": {"rt": -1000, "trial_type": "single-audio", "word": "knife", "stimulus": "/static/audio/wordpool/KNIFE.wav", "conditions": [18, 1200, "a", 18000], "internal_node_id": "0.0-44.0", "trial": 1, "time_elapsed": 367223, "serialpos": 7, "key_press": -1, "wordID": 784, "type": "PRES_AUD", "trial_index": 62}, "uniqueid": "MTK2619:3LEP4MGT3H7ZZBPGJQKOVJ07TCGBDQ", "dateTime": 1519157652774}, {"current_trial": 63, "trialdata": {"rt": -1000, "trial_type": "single-audio", "word": "fruit", "stimulus": "/static/audio/wordpool/FRUIT.wav", "conditions": [18, 1200, "a", 18000], "internal_node_id": "0.0-45.0", "trial": 1, "time_elapsed": 369521, "serialpos": 8, "key_press": -1, "wordID": 609, "type": "PRES_AUD", "trial_index": 63}, "uniqueid": "MTK2619:3LEP4MGT3H7ZZBPGJQKOVJ07TCGBDQ", "dateTime": 1519157655073}, {"current_trial": 64, "trialdata": {"rt": -1000, "trial_type": "single-audio", "word": "bug", "stimulus": "/static/audio/wordpool/BUG.wav", "conditions": [18, 1200, "a", 18000], "internal_node_id": "0.0-46.0", "trial": 1, "time_elapsed": 371868, "serialpos": 9, "key_press": -1, "wordID": 186, "type": "PRES_AUD", "trial_index": 64}, "uniqueid": "MTK2619:3LEP4MGT3H7ZZBPGJQKOVJ07TCGBDQ", "dateTime": 1519157657419}, {"current_trial": 65, "trialdata": {"rt": -1000, "trial_type": "single-audio", "word": "backbone", "stimulus": "/static/audio/wordpool/BACKBONE.wav", "conditions": [18, 1200, "a", 18000], "internal_node_id": "0.0-47.0", "trial": 1, "time_elapsed": 374123, "serialpos": 10, "key_press": -1, "wordID": 65, "type": "PRES_AUD", "trial_index": 65}, "uniqueid": "MTK2619:3LEP4MGT3H7ZZBPGJQKOVJ07TCGBDQ", "dateTime": 1519157659674}, {"current_trial": 66, "trialdata": {"rt": -1000, "trial_type": "single-audio", "word": "bank", "stimulus": "/static/audio/wordpool/BANK.wav", "conditions": [18, 1200, "a", 18000], "internal_node_id": "0.0-48.0", "trial": 1, "time_elapsed": 376242, "serialpos": 11, "key_press": -1, "wordID": 82, "type": "PRES_AUD", "trial_index": 66}, "uniqueid": "MTK2619:3LEP4MGT3H7ZZBPGJQKOVJ07TCGBDQ", "dateTime": 1519157661793}, {"current_trial": 67, "trialdata": {"rt": -1000, "trial_type": "single-audio", "word": "whiskers", "stimulus": "/static/audio/wordpool/WHISKERS.wav", "conditions": [18, 1200, "a", 18000], "internal_node_id": "0.0-49.0", "trial": 1, "time_elapsed": 378480, "serialpos": 12, "key_press": -1, "wordID": 1604, "type": "PRES_AUD", "trial_index": 67}, "uniqueid": "MTK2619:3LEP4MGT3H7ZZBPGJQKOVJ07TCGBDQ", "dateTime": 1519157664032}, {"current_trial": 68, "trialdata": {"rt": -1000, "trial_type": "single-audio", "word": "donor", "stimulus": "/static/audio/wordpool/DONOR.wav", "conditions": [18, 1200, "a", 18000], "internal_node_id": "0.0-50.0", "trial": 1, "time_elapsed": 380496, "serialpos": 13, "key_press": -1, "wordID": 484, "type": "PRES_AUD", "trial_index": 68}, "uniqueid": "MTK2619:3LEP4MGT3H7ZZBPGJQKOVJ07TCGBDQ", "dateTime": 1519157666048}, {"current_trial": 69, "trialdata": {"rt": -1000, "trial_type": "single-audio", "word": "concert", "stimulus": "/static/audio/wordpool/CONCERT.wav", "conditions": [18, 1200, "a", 18000], "internal_node_id": "0.0-51.0", "trial": 1, "time_elapsed": 382663, "serialpos": 14, "key_press": -1, "wordID": 359, "type": "PRES_AUD", "trial_index": 69}, "uniqueid": "MTK2619:3LEP4MGT3H7ZZBPGJQKOVJ07TCGBDQ", "dateTime": 1519157668217}, {"current_trial": 70, "trialdata": {"rt": -1000, "trial_type": "single-audio", "word": "spouse", "stimulus": "/static/audio/wordpool/SPOUSE.wav", "conditions": [18, 1200, "a", 18000], "internal_node_id": "0.0-52.0", "trial": 1, "time_elapsed": 384675, "serialpos": 15, "key_press": -1, "wordID": 1357, "type": "PRES_AUD", "trial_index": 70}, "uniqueid": "MTK2619:3LEP4MGT3H7ZZBPGJQKOVJ07TCGBDQ", "dateTime": 1519157670227}, {"current_trial": 71, "trialdata": {"rt": -1000, "trial_type": "single-audio", "word": "lunch", "stimulus": "/static/audio/wordpool/LUNCH.wav", "conditions": [18, 1200, "a", 18000], "internal_node_id": "0.0-53.0", "trial": 1, "time_elapsed": 386973, "serialpos": 16, "key_press": -1, "wordID": 848, "type": "PRES_AUD", "trial_index": 71}, "uniqueid": "MTK2619:3LEP4MGT3H7ZZBPGJQKOVJ07TCGBDQ", "dateTime": 1519157672524}, {"current_trial": 72, "trialdata": {"rt": -1000, "trial_type": "single-audio", "word": "puppy", "stimulus": "/static/audio/wordpool/PUPPY.wav", "conditions": [18, 1200, "a", 18000], "internal_node_id": "0.0-54.0", "trial": 1, "time_elapsed": 389029, "serialpos": 17, "key_press": -1, "wordID": 1143, "type": "PRES_AUD", "trial_index": 72}, "uniqueid": "MTK2619:3LEP4MGT3H7ZZBPGJQKOVJ07TCGBDQ", "dateTime": 1519157674580}, {"current_trial": 73, "trialdata": {"rt": -1, "trial_type": "single-stim", "stimulus": "", "internal_node_id": "0.0-55.0-0.0", "time_elapsed": 390330, "key_press": -1, "type": "PRE_RECALL_DELAY", "trial_index": 73}, "uniqueid": "MTK2619:3LEP4MGT3H7ZZBPGJQKOVJ07TCGBDQ", "dateTime": 1519157675881}, {"current_trial": 74, "trialdata": {"rt": -1000, "trial_type": "single-audio", "stimulus": "/static/audio/400Hz.wav", "internal_node_id": "0.0-56.0", "time_elapsed": 390830, "key_press": -1, "type": "PRE_RECALL_ALERT", "trial_index": 74}, "uniqueid": "MTK2619:3LEP4MGT3H7ZZBPGJQKOVJ07TCGBDQ", "dateTime": 1519157676381}, {"current_trial": 75, "trialdata": {"rt": [2482, 3586, 4969, 6370, 8266, 10690, 13555, 14578, 16539, 19082, 20546, 22682, 33377, 35169, 37522], "recwords": ["contract", "twig", "friend", "rifle", "waitress", "sheriff", "bank", "donor", "whiskers", "puppy", "spouse", "lunch", "hawk", "fruit", "bug"], "key_times": [1307, 1387, 1467, 1643, 1810, 1914, 2106, 2290, 2482, 2858, 2978, 3107, 3468, 3586, 3930, 4154, 4218, 4346, 4474, 4571, 4969, 5595, 5676, 6034, 6114, 6218, 6370, 6779, 7028, 7202, 7409, 7763, 7859, 7954, 8131, 8266, 8555, 8692, 8778, 8865, 9066, 9218, 9802, 9954, 10226, 10314, 10466, 10690, 13034, 13163, 13251, 13363, 13555, 13860, 13915, 14074, 14187, 14339, 14578, 15316, 15427, 15515, 15602, 16114, 16242, 16306, 16394, 16539, 17387, 17514, 17883, 18083, 18236, 18651, 18851, 19082, 19426, 19482, 19906, 20002, 20314, 20418, 20546, 20891, 21027, 21233, 21324, 21450, 22682, 32514, 32699, 32891, 33242, 33377, 34514, 34714, 34770, 34834, 35019, 35169, 37140, 37218, 37466, 37522], "trial_type": "free-recall", "conditions": [18, 1200, "a", 18000], "internal_node_id": "0.0-57.0-0.0", "key_presses": [67, 79, 78, 84, 82, 65, 67, 84, 13, 84, 87, 73, 71, 13, 70, 82, 73, 69, 78, 68, 13, 82, 73, 70, 76, 69, 13, 87, 65, 73, 84, 82, 69, 83, 83, 13, 83, 72, 69, 82, 82, 73, 8, 8, 73, 70, 70, 13, 66, 65, 78, 75, 13, 68, 79, 78, 79, 82, 13, 87, 72, 73, 83, 75, 69, 82, 83, 13, 80, 85, 80, 80, 76, 8, 89, 13, 83, 80, 79, 85, 83, 69, 13, 76, 85, 78, 67, 72, 13, 72, 65, 87, 75, 13, 70, 82, 85, 73, 84, 13, 66, 85, 71, 13], "trial": 1, "time_elapsed": 450833, "type": "FREE_RECALL", "trial_index": 75}, "uniqueid": "MTK2619:3LEP4MGT3H7ZZBPGJQKOVJ07TCGBDQ", "dateTime": 1519157736386}, {"current_trial": 76, "trialdata": {"rt": 2669, "trial_type": "text", "internal_node_id": "0.0-58.0", "time_elapsed": 455505, "key_press": 72, "type": "INSTRUCTIONS", "trial_index": 76}, "uniqueid": "MTK2619:3LEP4MGT3H7ZZBPGJQKOVJ07TCGBDQ", "dateTime": 1519157741056}, {"current_trial": 77, "trialdata": {"rt": [3226, 5579, 9723, 13259, 15786, 17841, 22210], "trial_type": "math-distractor", "key_times": [2861, 3036, 3226, 5315, 5483, 5579, 9483, 9661, 9723, 12923, 13122, 13259, 15521, 15730, 15786, 17747, 17841, 21114, 21466, 21618, 21713, 22210], "responses": ["11", "11", "22", "18", "15", "5", "24"], "num2": [7, 4, 9, 6, 5, 2, 7, 5], "num3": [1, 2, 5, 5, 7, 1, 6, 2], "conditions": [24, 800, "a", 24000], "internal_node_id": "0.0-59.0", "key_presses": [49, 49, 13, 49, 49, 13, 50, 50, 13, 49, 56, 13, 49, 53, 13, 53, 13, 51, 8, 50, 52, 13], "trial": 2, "time_elapsed": 480511, "type": "DISTRACTOR", "trial_index": 77, "num1": [3, 5, 8, 7, 3, 2, 9, 4]}, "uniqueid": "MTK2619:3LEP4MGT3H7ZZBPGJQKOVJ07TCGBDQ", "dateTime": 1519157766062}, {"current_trial": 78, "trialdata": {"rt": -1, "trial_type": "single-stim", "stimulus": "<p id=\"stim\">10</p>", "internal_node_id": "0.0-60.0-0.0", "time_elapsed": 483515, "key_press": -1, "trial_index": 78}, "uniqueid": "MTK2619:3LEP4MGT3H7ZZBPGJQKOVJ07TCGBDQ", "dateTime": 1519157769066}, {"current_trial": 79, "trialdata": {"rt": -1, "trial_type": "single-stim", "stimulus": "<p id=\"stim\">9</p>", "internal_node_id": "0.0-60.0-1.0", "time_elapsed": 484516, "key_press": -1, "trial_index": 79}, "uniqueid": "MTK2619:3LEP4MGT3H7ZZBPGJQKOVJ07TCGBDQ", "dateTime": 1519157770067}, {"current_trial": 80, "trialdata": {"rt": -1, "trial_type": "single-stim", "stimulus": "<p id=\"stim\">8</p>", "internal_node_id": "0.0-60.0-2.0", "time_elapsed": 485517, "key_press": -1, "trial_index": 80}, "uniqueid": "MTK2619:3LEP4MGT3H7ZZBPGJQKOVJ07TCGBDQ", "dateTime": 1519157771068}, {"current_trial": 81, "trialdata": {"rt": -1, "trial_type": "single-stim", "stimulus": "<p id=\"stim\">7</p>", "internal_node_id": "0.0-60.0-3.0", "time_elapsed": 486519, "key_press": -1, "trial_index": 81}, "uniqueid": "MTK2619:3LEP4MGT3H7ZZBPGJQKOVJ07TCGBDQ", "dateTime": 1519157772071}, {"current_trial": 82, "trialdata": {"rt": -1, "trial_type": "single-stim", "stimulus": "<p id=\"stim\">6</p>", "internal_node_id": "0.0-60.0-4.0", "time_elapsed": 487520, "key_press": -1, "trial_index": 82}, "uniqueid": "MTK2619:3LEP4MGT3H7ZZBPGJQKOVJ07TCGBDQ", "dateTime": 1519157773071}, {"current_trial": 83, "trialdata": {"rt": -1, "trial_type": "single-stim", "stimulus": "<p id=\"stim\">5</p>", "internal_node_id": "0.0-60.0-5.0", "time_elapsed": 488524, "key_press": -1, "trial_index": 83}, "uniqueid": "MTK2619:3LEP4MGT3H7ZZBPGJQKOVJ07TCGBDQ", "dateTime": 1519157774075}, {"current_trial": 84, "trialdata": {"rt": -1, "trial_type": "single-stim", "stimulus": "<p id=\"stim\">4</p>", "internal_node_id": "0.0-60.0-6.0", "time_elapsed": 489528, "key_press": -1, "trial_index": 84}, "uniqueid": "MTK2619:3LEP4MGT3H7ZZBPGJQKOVJ07TCGBDQ", "dateTime": 1519157775079}, {"current_trial": 85, "trialdata": {"rt": -1, "trial_type": "single-stim", "stimulus": "<p id=\"stim\">3</p>", "internal_node_id": "0.0-60.0-7.0", "time_elapsed": 490530, "key_press": -1, "trial_index": 85}, "uniqueid": "MTK2619:3LEP4MGT3H7ZZBPGJQKOVJ07TCGBDQ", "dateTime": 1519157776081}, {"current_trial": 86, "trialdata": {"rt": -1, "trial_type": "single-stim", "stimulus": "<p id=\"stim\">2</p>", "internal_node_id": "0.0-60.0-8.0", "time_elapsed": 491530, "key_press": -1, "trial_index": 86}, "uniqueid": "MTK2619:3LEP4MGT3H7ZZBPGJQKOVJ07TCGBDQ", "dateTime": 1519157777083}, {"current_trial": 87, "trialdata": {"rt": -1, "trial_type": "single-stim", "stimulus": "<p id=\"stim\">1</p>", "internal_node_id": "0.0-60.0-9.0", "time_elapsed": 492532, "key_press": -1, "trial_index": 87}, "uniqueid": "MTK2619:3LEP4MGT3H7ZZBPGJQKOVJ07TCGBDQ", "dateTime": 1519157778083}, {"current_trial": 88, "trialdata": {"rt": -1, "trial_type": "single-stim", "stimulus": "<p id=\"stim\">+</p>", "internal_node_id": "0.0-61.0-0.0", "time_elapsed": 494035, "key_press": -1, "type": "FIXATION", "trial_index": 88}, "uniqueid": "MTK2619:3LEP4MGT3H7ZZBPGJQKOVJ07TCGBDQ", "dateTime": 1519157779586}, {"current_trial": 89, "trialdata": {"rt": -1000, "trial_type": "single-audio", "word": "suitcase", "stimulus": "/static/audio/wordpool/SUITCASE.wav", "conditions": [24, 800, "a", 24000], "internal_node_id": "0.0-62.0", "trial": 2, "time_elapsed": 495664, "serialpos": 0, "key_press": -1, "wordID": 1402, "type": "PRES_AUD", "trial_index": 89}, "uniqueid": "MTK2619:3LEP4MGT3H7ZZBPGJQKOVJ07TCGBDQ", "dateTime": 1519157781215}, {"current_trial": 90, "trialdata": {"rt": -1000, "trial_type": "single-audio", "word": "handbag", "stimulus": "/static/audio/wordpool/HANDBAG.wav", "conditions": [24, 800, "a", 24000], "internal_node_id": "0.0-63.0", "trial": 2, "time_elapsed": 497445, "serialpos": 1, "key_press": -1, "wordID": 683, "type": "PRES_AUD", "trial_index": 90}, "uniqueid": "MTK2619:3LEP4MGT3H7ZZBPGJQKOVJ07TCGBDQ", "dateTime": 1519157782996}, {"current_trial": 91, "trialdata": {"rt": -1000, "trial_type": "single-audio", "word": "office", "stimulus": "/static/audio/wordpool/OFFICE.wav", "conditions": [24, 800, "a", 24000], "internal_node_id": "0.0-64.0", "trial": 2, "time_elapsed": 499304, "serialpos": 2, "key_press": -1, "wordID": 971, "type": "PRES_AUD", "trial_index": 91}, "uniqueid": "MTK2619:3LEP4MGT3H7ZZBPGJQKOVJ07TCGBDQ", "dateTime": 1519157784855}, {"current_trial": 92, "trialdata": {"rt": -1000, "trial_type": "single-audio", "word": "blade", "stimulus": "/static/audio/wordpool/BLADE.wav", "conditions": [24, 800, "a", 24000], "internal_node_id": "0.0-65.0", "trial": 2, "time_elapsed": 500929, "serialpos": 3, "key_press": -1, "wordID": 133, "type": "PRES_AUD", "trial_index": 92}, "uniqueid": "MTK2619:3LEP4MGT3H7ZZBPGJQKOVJ07TCGBDQ", "dateTime": 1519157786481}, {"current_trial": 93, "trialdata": {"rt": -1000, "trial_type": "single-audio", "word": "daughter", "stimulus": "/static/audio/wordpool/DAUGHTER.wav", "conditions": [24, 800, "a", 24000], "internal_node_id": "0.0-66.0", "trial": 2, "time_elapsed": 502792, "serialpos": 4, "key_press": -1, "wordID": 441, "type": "PRES_AUD", "trial_index": 93}, "uniqueid": "MTK2619:3LEP4MGT3H7ZZBPGJQKOVJ07TCGBDQ", "dateTime": 1519157788343}, {"current_trial": 94, "trialdata": {"rt": -1000, "trial_type": "single-audio", "word": "marsh", "stimulus": "/static/audio/wordpool/MARSH.wav", "conditions": [24, 800, "a", 24000], "internal_node_id": "0.0-67.0", "trial": 2, "time_elapsed": 504657, "serialpos": 5, "key_press": -1, "wordID": 873, "type": "PRES_AUD", "trial_index": 94}, "uniqueid": "MTK2619:3LEP4MGT3H7ZZBPGJQKOVJ07TCGBDQ", "dateTime": 1519157790209}, {"current_trial": 95, "trialdata": {"rt": -1000, "trial_type": "single-audio", "word": "valve", "stimulus": "/static/audio/wordpool/VALVE.wav", "conditions": [24, 800, "a", 24000], "internal_node_id": "0.0-68.0", "trial": 2, "time_elapsed": 506515, "serialpos": 6, "key_press": -1, "wordID": 1545, "type": "PRES_AUD", "trial_index": 95}, "uniqueid": "MTK2619:3LEP4MGT3H7ZZBPGJQKOVJ07TCGBDQ", "dateTime": 1519157792066}, {"current_trial": 96, "trialdata": {"rt": -1000, "trial_type": "single-audio", "word": "tweezers", "stimulus": "/static/audio/wordpool/TWEEZERS.wav", "conditions": [24, 800, "a", 24000], "internal_node_id": "0.0-69.0", "trial": 2, "time_elapsed": 508434, "serialpos": 7, "key_press": -1, "wordID": 1525, "type": "PRES_AUD", "trial_index": 96}, "uniqueid": "MTK2619:3LEP4MGT3H7ZZBPGJQKOVJ07TCGBDQ", "dateTime": 1519157793985}, {"current_trial": 97, "trialdata": {"rt": -1000, "trial_type": "single-audio", "word": "world", "stimulus": "/static/audio/wordpool/WORLD.wav", "conditions": [24, 800, "a", 24000], "internal_node_id": "0.0-70.0", "trial": 2, "time_elapsed": 510344, "serialpos": 8, "key_press": -1, "wordID": 1621, "type": "PRES_AUD", "trial_index": 97}, "uniqueid": "MTK2619:3LEP4MGT3H7ZZBPGJQKOVJ07TCGBDQ", "dateTime": 1519157795896}, {"current_trial": 98, "trialdata": {"rt": -1000, "trial_type": "single-audio", "word": "human", "stimulus": "/static/audio/wordpool/HUMAN.wav", "conditions": [24, 800, "a", 24000], "internal_node_id": "0.0-71.0", "trial": 2, "time_elapsed": 512107, "serialpos": 9, "key_press": -1, "wordID": 725, "type": "PRES_AUD", "trial_index": 98}, "uniqueid": "MTK2619:3LEP4MGT3H7ZZBPGJQKOVJ07TCGBDQ", "dateTime": 1519157797659}, {"current_trial": 99, "trialdata": {"rt": -1000, "trial_type": "single-audio", "word": "lagoon", "stimulus": "/static/audio/wordpool/LAGOON.wav", "conditions": [24, 800, "a", 24000], "internal_node_id": "0.0-72.0", "trial": 2, "time_elapsed": 514077, "serialpos": 10, "key_press": -1, "wordID": 794, "type": "PRES_AUD", "trial_index": 99}, "uniqueid": "MTK2619:3LEP4MGT3H7ZZBPGJQKOVJ07TCGBDQ", "dateTime": 1519157799628}, {"current_trial": 100, "trialdata": {"rt": -1000, "trial_type": "single-audio", "word": "necklace", "stimulus": "/static/audio/wordpool/NECKLACE.wav", "conditions": [24, 800, "a", 24000], "internal_node_id": "0.0-73.0", "trial": 2, "time_elapsed": 515692, "serialpos": 11, "key_press": -1, "wordID": 939, "type": "PRES_AUD", "trial_index": 100}, "uniqueid": "MTK2619:3LEP4MGT3H7ZZBPGJQKOVJ07TCGBDQ", "dateTime": 1519157801243}, {"current_trial": 101, "trialdata": {"rt": -1000, "trial_type": "single-audio", "word": "brandy", "stimulus": "/static/audio/wordpool/BRANDY.wav", "conditions": [24, 800, "a", 24000], "internal_node_id": "0.0-74.0", "trial": 2, "time_elapsed": 517304, "serialpos": 12, "key_press": -1, "wordID": 168, "type": "PRES_AUD", "trial_index": 101}, "uniqueid": "MTK2619:3LEP4MGT3H7ZZBPGJQKOVJ07TCGBDQ", "dateTime": 1519157802855}, {"current_trial": 102, "trialdata": {"rt": -1000, "trial_type": "single-audio", "word": "dentist", "stimulus": "/static/audio/wordpool/DENTIST.wav", "conditions": [24, 800, "a", 24000], "internal_node_id": "0.0-75.0", "trial": 2, "time_elapsed": 519182, "serialpos": 13, "key_press": -1, "wordID": 446, "type": "PRES_AUD", "trial_index": 102}, "uniqueid": "MTK2619:3LEP4MGT3H7ZZBPGJQKOVJ07TCGBDQ", "dateTime": 1519157804734}, {"current_trial": 103, "trialdata": {"rt": -1000, "trial_type": "single-audio", "word": "crayon", "stimulus": "/static/audio/wordpool/CRAYON.wav", "conditions": [24, 800, "a", 24000], "internal_node_id": "0.0-76.0", "trial": 2, "time_elapsed": 520911, "serialpos": 14, "key_press": -1, "wordID": 400, "type": "PRES_AUD", "trial_index": 103}, "uniqueid": "MTK2619:3LEP4MGT3H7ZZBPGJQKOVJ07TCGBDQ", "dateTime": 1519157806462}, {"current_trial": 104, "trialdata": {"rt": -1000, "trial_type": "single-audio", "word": "guard", "stimulus": "/static/audio/wordpool/GUARD.wav", "conditions": [24, 800, "a", 24000], "internal_node_id": "0.0-77.0", "trial": 2, "time_elapsed": 522852, "serialpos": 15, "key_press": -1, "wordID": 666, "type": "PRES_AUD", "trial_index": 104}, "uniqueid": "MTK2619:3LEP4MGT3H7ZZBPGJQKOVJ07TCGBDQ", "dateTime": 1519157808403}, {"current_trial": 105, "trialdata": {"rt": -1000, "trial_type": "single-audio", "word": "cabin", "stimulus": "/static/audio/wordpool/CABIN.wav", "conditions": [24, 800, "a", 24000], "internal_node_id": "0.0-78.0", "trial": 2, "time_elapsed": 524462, "serialpos": 16, "key_press": -1, "wordID": 210, "type": "PRES_AUD", "trial_index": 105}, "uniqueid": "MTK2619:3LEP4MGT3H7ZZBPGJQKOVJ07TCGBDQ", "dateTime": 1519157810013}, {"current_trial": 106, "trialdata": {"rt": -1000, "trial_type": "single-audio", "word": "scribble", "stimulus": "/static/audio/wordpool/SCRIBBLE.wav", "conditions": [24, 800, "a", 24000], "internal_node_id": "0.0-79.0", "trial": 2, "time_elapsed": 526257, "serialpos": 17, "key_press": -1, "wordID": 1255, "type": "PRES_AUD", "trial_index": 106}, "uniqueid": "MTK2619:3LEP4MGT3H7ZZBPGJQKOVJ07TCGBDQ", "dateTime": 1519157811809}, {"current_trial": 107, "trialdata": {"rt": -1000, "trial_type": "single-audio", "word": "snack", "stimulus": "/static/audio/wordpool/SNACK.wav", "conditions": [24, 800, "a", 24000], "internal_node_id": "0.0-80.0", "trial": 2, "time_elapsed": 528063, "serialpos": 18, "key_press": -1, "wordID": 1330, "type": "PRES_AUD", "trial_index": 107}, "uniqueid": "MTK2619:3LEP4MGT3H7ZZBPGJQKOVJ07TCGBDQ", "dateTime": 1519157813614}, {"current_trial": 108, "trialdata": {"rt": -1000, "trial_type": "single-audio", "word": "parent", "stimulus": "/static/audio/wordpool/PARENT.wav", "conditions": [24, 800, "a", 24000], "internal_node_id": "0.0-81.0", "trial": 2, "time_elapsed": 529722, "serialpos": 19, "key_press": -1, "wordID": 1012, "type": "PRES_AUD", "trial_index": 108}, "uniqueid": "MTK2619:3LEP4MGT3H7ZZBPGJQKOVJ07TCGBDQ", "dateTime": 1519157815273}, {"current_trial": 109, "trialdata": {"rt": -1000, "trial_type": "single-audio", "word": "beaver", "stimulus": "/static/audio/wordpool/BEAVER.wav", "conditions": [24, 800, "a", 24000], "internal_node_id": "0.0-82.0", "trial": 2, "time_elapsed": 531594, "serialpos": 20, "key_press": -1, "wordID": 108, "type": "PRES_AUD", "trial_index": 109}, "uniqueid": "MTK2619:3LEP4MGT3H7ZZBPGJQKOVJ07TCGBDQ", "dateTime": 1519157817145}, {"current_trial": 110, "trialdata": {"rt": -1000, "trial_type": "single-audio", "word": "suspect", "stimulus": "/static/audio/wordpool/SUSPECT.wav", "conditions": [24, 800, "a", 24000], "internal_node_id": "0.0-83.0", "trial": 2, "time_elapsed": 533470, "serialpos": 21, "key_press": -1, "wordID": 1414, "type": "PRES_AUD", "trial_index": 110}, "uniqueid": "MTK2619:3LEP4MGT3H7ZZBPGJQKOVJ07TCGBDQ", "dateTime": 1519157819021}, {"current_trial": 111, "trialdata": {"rt": -1000, "trial_type": "single-audio", "word": "robber", "stimulus": "/static/audio/wordpool/ROBBER.wav", "conditions": [24, 800, "a", 24000], "internal_node_id": "0.0-84.0", "trial": 2, "time_elapsed": 535131, "serialpos": 22, "key_press": -1, "wordID": 1196, "type": "PRES_AUD", "trial_index": 111}, "uniqueid": "MTK2619:3LEP4MGT3H7ZZBPGJQKOVJ07TCGBDQ", "dateTime": 1519157820682}, {"current_trial": 112, "trialdata": {"rt": -1000, "trial_type": "single-audio", "word": "chipmunk", "stimulus": "/static/audio/wordpool/CHIPMUNK.wav", "conditions": [24, 800, "a", 24000], "internal_node_id": "0.0-85.0", "trial": 2, "time_elapsed": 537126, "serialpos": 23, "key_press": -1, "wordID": 303, "type": "PRES_AUD", "trial_index": 112}, "uniqueid": "MTK2619:3LEP4MGT3H7ZZBPGJQKOVJ07TCGBDQ", "dateTime": 1519157822678}, {"current_trial": 113, "trialdata": {"rt": -1, "trial_type": "single-stim", "stimulus": "", "internal_node_id": "0.0-86.0-0.0", "time_elapsed": 538422, "key_press": -1, "type": "PRE_RECALL_DELAY", "trial_index": 113}, "uniqueid": "MTK2619:3LEP4MGT3H7ZZBPGJQKOVJ07TCGBDQ", "dateTime": 1519157823973}, {"current_trial": 114, "trialdata": {"rt": -1000, "trial_type": "single-audio", "stimulus": "/static/audio/400Hz.wav", "internal_node_id": "0.0-87.0", "time_elapsed": 538924, "key_press": -1, "type": "PRE_RECALL_ALERT", "trial_index": 114}, "uniqueid": "MTK2619:3LEP4MGT3H7ZZBPGJQKOVJ07TCGBDQ", "dateTime": 1519157824475}, {"current_trial": 115, "trialdata": {"rt": [5005, 6420, 9773, 11261, 15325, 17005, 22333, 24764, 25885, 31285, 32572, 37412, 38661, 47003, 49780], "recwords": ["suitcase", "handbag", "blade", "daughter", "marsh", "valve", "necklace", "world", "human", "chipmunk", "beaver", "cabin", "snack", "suspect", "robber"], "key_times": [3806, 3925, 4015, 4165, 4462, 4591, 4734, 4863, 5005, 5292, 5364, 5493, 5590, 5878, 6062, 6293, 6420, 9110, 9173, 9310, 9508, 9686, 9773, 10302, 10494, 10582, 10693, 10814, 10912, 11030, 11134, 11261, 13967, 14055, 14174, 14438, 14796, 14894, 15070, 15325, 16157, 16293, 16373, 16701, 16806, 17005, 19086, 19197, 19597, 19710, 19957, 20038, 20157, 20484, 21030, 21758, 21934, 22125, 22333, 24190, 24309, 24406, 24533, 24637, 24764, 25157, 25365, 25557, 25644, 25717, 25885, 29485, 29604, 29710, 29910, 30462, 30759, 30957, 31070, 31285, 31581, 31749, 31820, 32133, 32268, 32389, 32572, 36706, 36820, 36972, 37132, 37205, 37412, 37854, 37997, 38109, 38381, 38509, 38661, 45789, 45932, 46068, 46301, 46493, 46708, 46860, 47003, 49006, 49100, 49268, 49390, 49581, 49644, 49780], "trial_type": "free-recall", "conditions": [24, 800, "a", 24000], "internal_node_id": "0.0-88.0-0.0", "key_presses": [83, 85, 73, 84, 67, 65, 83, 69, 13, 72, 65, 78, 68, 66, 65, 71, 13, 66, 76, 65, 68, 69, 13, 68, 65, 85, 71, 72, 84, 69, 82, 13, 77, 65, 82, 67, 8, 83, 72, 13, 86, 65, 76, 86, 69, 13, 78, 69, 67, 75, 76, 65, 83, 8, 8, 65, 67, 69, 13, 87, 79, 82, 76, 68, 13, 72, 85, 77, 65, 78, 13, 67, 72, 73, 80, 77, 85, 78, 75, 13, 66, 69, 65, 86, 69, 82, 13, 67, 65, 66, 73, 78, 13, 83, 78, 65, 67, 75, 13, 83, 85, 83, 80, 69, 67, 84, 13, 82, 79, 66, 66, 69, 82, 13], "trial": 2, "time_elapsed": 598927, "type": "FREE_RECALL", "trial_index": 115}, "uniqueid": "MTK2619:3LEP4MGT3H7ZZBPGJQKOVJ07TCGBDQ", "dateTime": 1519157884481}, {"current_trial": 116, "trialdata": {"rt": 1321, "trial_type": "text", "internal_node_id": "0.0-89.0", "time_elapsed": 602251, "key_press": 82, "type": "INSTRUCTIONS", "trial_index": 116}, "uniqueid": "MTK2619:3LEP4MGT3H7ZZBPGJQKOVJ07TCGBDQ", "dateTime": 1519157887802}, {"current_trial": 117, "trialdata": {"rt": [4589, 8860], "trial_type": "math-distractor", "key_times": [3564, 3701, 4589, 7748, 7859, 8860], "responses": ["12", "23"], "num2": [6, 7, 6], "num3": [5, 8, 8], "conditions": [24, 800, "a", 12000], "internal_node_id": "0.0-90.0", "key_presses": [49, 50, 13, 50, 51, 13], "trial": 3, "time_elapsed": 616257, "type": "DISTRACTOR", "trial_index": 117, "num1": [1, 8, 7]}, "uniqueid": "MTK2619:3LEP4MGT3H7ZZBPGJQKOVJ07TCGBDQ", "dateTime": 1519157901808}, {"current_trial": 118, "trialdata": {"rt": -1, "trial_type": "single-stim", "stimulus": "<p id=\"stim\">10</p>", "internal_node_id": "0.0-91.0-0.0", "time_elapsed": 619260, "key_press": -1, "trial_index": 118}, "uniqueid": "MTK2619:3LEP4MGT3H7ZZBPGJQKOVJ07TCGBDQ", "dateTime": 1519157904811}, {"current_trial": 119, "trialdata": {"rt": -1, "trial_type": "single-stim", "stimulus": "<p id=\"stim\">9</p>", "internal_node_id": "0.0-91.0-1.0", "time_elapsed": 620261, "key_press": -1, "trial_index": 119}, "uniqueid": "MTK2619:3LEP4MGT3H7ZZBPGJQKOVJ07TCGBDQ", "dateTime": 1519157905812}, {"current_trial": 120, "trialdata": {"rt": -1, "trial_type": "single-stim", "stimulus": "<p id=\"stim\">8</p>", "internal_node_id": "0.0-91.0-2.0", "time_elapsed": 621262, "key_press": -1, "trial_index": 120}, "uniqueid": "MTK2619:3LEP4MGT3H7ZZBPGJQKOVJ07TCGBDQ", "dateTime": 1519157906814}, {"current_trial": 121, "trialdata": {"rt": -1, "trial_type": "single-stim", "stimulus": "<p id=\"stim\">7</p>", "internal_node_id": "0.0-91.0-3.0", "time_elapsed": 622264, "key_press": -1, "trial_index": 121}, "uniqueid": "MTK2619:3LEP4MGT3H7ZZBPGJQKOVJ07TCGBDQ", "dateTime": 1519157907816}, {"current_trial": 122, "trialdata": {"rt": -1, "trial_type": "single-stim", "stimulus": "<p id=\"stim\">6</p>", "internal_node_id": "0.0-91.0-4.0", "time_elapsed": 623266, "key_press": -1, "trial_index": 122}, "uniqueid": "MTK2619:3LEP4MGT3H7ZZBPGJQKOVJ07TCGBDQ", "dateTime": 1519157908817}, {"current_trial": 123, "trialdata": {"rt": -1, "trial_type": "single-stim", "stimulus": "<p id=\"stim\">5</p>", "internal_node_id": "0.0-91.0-5.0", "time_elapsed": 624266, "key_press": -1, "trial_index": 123}, "uniqueid": "MTK2619:3LEP4MGT3H7ZZBPGJQKOVJ07TCGBDQ", "dateTime": 1519157909817}, {"current_trial": 124, "trialdata": {"rt": -1, "trial_type": "single-stim", "stimulus": "<p id=\"stim\">4</p>", "internal_node_id": "0.0-91.0-6.0", "time_elapsed": 625267, "key_press": -1, "trial_index": 124}, "uniqueid": "MTK2619:3LEP4MGT3H7ZZBPGJQKOVJ07TCGBDQ", "dateTime": 1519157910818}, {"current_trial": 125, "trialdata": {"rt": -1, "trial_type": "single-stim", "stimulus": "<p id=\"stim\">3</p>", "internal_node_id": "0.0-91.0-7.0", "time_elapsed": 626268, "key_press": -1, "trial_index": 125}, "uniqueid": "MTK2619:3LEP4MGT3H7ZZBPGJQKOVJ07TCGBDQ", "dateTime": 1519157911819}, {"current_trial": 126, "trialdata": {"rt": -1, "trial_type": "single-stim", "stimulus": "<p id=\"stim\">2</p>", "internal_node_id": "0.0-91.0-8.0", "time_elapsed": 627270, "key_press": -1, "trial_index": 126}, "uniqueid": "MTK2619:3LEP4MGT3H7ZZBPGJQKOVJ07TCGBDQ", "dateTime": 1519157912821}, {"current_trial": 127, "trialdata": {"rt": -1, "trial_type": "single-stim", "stimulus": "<p id=\"stim\">1</p>", "internal_node_id": "0.0-91.0-9.0", "time_elapsed": 628270, "key_press": -1, "trial_index": 127}, "uniqueid": "MTK2619:3LEP4MGT3H7ZZBPGJQKOVJ07TCGBDQ", "dateTime": 1519157913821}, {"current_trial": 128, "trialdata": {"rt": -1, "trial_type": "single-stim", "stimulus": "<p id=\"stim\">+</p>", "internal_node_id": "0.0-92.0-0.0", "time_elapsed": 629771, "key_press": -1, "type": "FIXATION", "trial_index": 128}, "uniqueid": "MTK2619:3LEP4MGT3H7ZZBPGJQKOVJ07TCGBDQ", "dateTime": 1519157915323}, {"current_trial": 129, "trialdata": {"rt": -1000, "trial_type": "single-audio", "word": "boyfriend", "stimulus": "/static/audio/wordpool/BOYFRIEND.wav", "conditions": [24, 800, "a", 12000], "internal_node_id": "0.0-93.0", "trial": 3, "time_elapsed": 631514, "serialpos": 0, "key_press": -1, "wordID": 161, "type": "PRES_AUD", "trial_index": 129}, "uniqueid": "MTK2619:3LEP4MGT3H7ZZBPGJQKOVJ07TCGBDQ", "dateTime": 1519157917065}, {"current_trial": 130, "trialdata": {"rt": -1000, "trial_type": "single-audio", "word": "snake", "stimulus": "/static/audio/wordpool/SNAKE.wav", "conditions": [24, 800, "a", 12000], "internal_node_id": "0.0-94.0", "trial": 3, "time_elapsed": 633177, "serialpos": 1, "key_press": -1, "wordID": 1332, "type": "PRES_AUD", "trial_index": 130}, "uniqueid": "MTK2619:3LEP4MGT3H7ZZBPGJQKOVJ07TCGBDQ", "dateTime": 1519157918728}, {"current_trial": 131, "trialdata": {"rt": -1000, "trial_type": "single-audio", "word": "forehead", "stimulus": "/static/audio/wordpool/FOREHEAD.wav", "conditions": [24, 800, "a", 12000], "internal_node_id": "0.0-95.0", "trial": 3, "time_elapsed": 635098, "serialpos": 2, "key_press": -1, "wordID": 591, "type": "PRES_AUD", "trial_index": 131}, "uniqueid": "MTK2619:3LEP4MGT3H7ZZBPGJQKOVJ07TCGBDQ", "dateTime": 1519157920649}, {"current_trial": 132, "trialdata": {"rt": -1000, "trial_type": "single-audio", "word": "ketchup", "stimulus": "/static/audio/wordpool/KETCHUP.wav", "conditions": [24, 800, "a", 12000], "internal_node_id": "0.0-96.0", "trial": 3, "time_elapsed": 637088, "serialpos": 3, "key_press": -1, "wordID": 770, "type": "PRES_AUD", "trial_index": 132}, "uniqueid": "MTK2619:3LEP4MGT3H7ZZBPGJQKOVJ07TCGBDQ", "dateTime": 1519157922639}, {"current_trial": 133, "trialdata": {"rt": -1000, "trial_type": "single-audio", "word": "keeper", "stimulus": "/static/audio/wordpool/KEEPER.wav", "conditions": [24, 800, "a", 12000], "internal_node_id": "0.0-97.0", "trial": 3, "time_elapsed": 639089, "serialpos": 4, "key_press": -1, "wordID": 768, "type": "PRES_AUD", "trial_index": 133}, "uniqueid": "MTK2619:3LEP4MGT3H7ZZBPGJQKOVJ07TCGBDQ", "dateTime": 1519157924640}, {"current_trial": 134, "trialdata": {"rt": -1000, "trial_type": "single-audio", "word": "costume", "stimulus": "/static/audio/wordpool/COSTUME.wav", "conditions": [24, 800, "a", 12000], "internal_node_id": "0.0-98.0", "trial": 3, "time_elapsed": 640979, "serialpos": 5, "key_press": -1, "wordID": 382, "type": "PRES_AUD", "trial_index": 134}, "uniqueid": "MTK2619:3LEP4MGT3H7ZZBPGJQKOVJ07TCGBDQ", "dateTime": 1519157926530}, {"current_trial": 135, "trialdata": {"rt": -1000, "trial_type": "single-audio", "word": "tutu", "stimulus": "/static/audio/wordpool/TUTU.wav", "conditions": [24, 800, "a", 12000], "internal_node_id": "0.0-99.0", "trial": 3, "time_elapsed": 642663, "serialpos": 6, "key_press": -1, "wordID": 1523, "type": "PRES_AUD", "trial_index": 135}, "uniqueid": "MTK2619:3LEP4MGT3H7ZZBPGJQKOVJ07TCGBDQ", "dateTime": 1519157928214}, {"current_trial": 136, "trialdata": {"rt": -1000, "trial_type": "single-audio", "word": "blouse", "stimulus": "/static/audio/wordpool/BLOUSE.wav", "conditions": [24, 800, "a", 12000], "internal_node_id": "0.0-100.0", "trial": 3, "time_elapsed": 644358, "serialpos": 7, "key_press": -1, "wordID": 138, "type": "PRES_AUD", "trial_index": 136}, "uniqueid": "MTK2619:3LEP4MGT3H7ZZBPGJQKOVJ07TCGBDQ", "dateTime": 1519157929909}, {"current_trial": 137, "trialdata": {"rt": -1000, "trial_type": "single-audio", "word": "dashboard", "stimulus": "/static/audio/wordpool/DASHBOARD.wav", "conditions": [24, 800, "a", 12000], "internal_node_id": "0.0-101.0", "trial": 3, "time_elapsed": 646185, "serialpos": 8, "key_press": -1, "wordID": 440, "type": "PRES_AUD", "trial_index": 137}, "uniqueid": "MTK2619:3LEP4MGT3H7ZZBPGJQKOVJ07TCGBDQ", "dateTime": 1519157931736}, {"current_trial": 138, "trialdata": {"rt": -1000, "trial_type": "single-audio", "word": "partner", "stimulus": "/static/audio/wordpool/PARTNER.wav", "conditions": [24, 800, "a", 12000], "internal_node_id": "0.0-102.0", "trial": 3, "time_elapsed": 648087, "serialpos": 9, "key_press": -1, "wordID": 1016, "type": "PRES_AUD", "trial_index": 138}, "uniqueid": "MTK2619:3LEP4MGT3H7ZZBPGJQKOVJ07TCGBDQ", "dateTime": 1519157933638}, {"current_trial": 139, "trialdata": {"rt": -1000, "trial_type": "single-audio", "word": "wrist", "stimulus": "/static/audio/wordpool/WRIST.wav", "conditions": [24, 800, "a", 12000], "internal_node_id": "0.0-103.0", "trial": 3, "time_elapsed": 649855, "serialpos": 10, "key_press": -1, "wordID": 1625, "type": "PRES_AUD", "trial_index": 139}, "uniqueid": "MTK2619:3LEP4MGT3H7ZZBPGJQKOVJ07TCGBDQ", "dateTime": 1519157935407}, {"current_trial": 140, "trialdata": {"rt": -1000, "trial_type": "single-audio", "word": "scarf", "stimulus": "/static/audio/wordpool/SCARF.wav", "conditions": [24, 800, "a", 12000], "internal_node_id": "0.0-104.0", "trial": 3, "time_elapsed": 651676, "serialpos": 11, "key_press": -1, "wordID": 1245, "type": "PRES_AUD", "trial_index": 140}, "uniqueid": "MTK2619:3LEP4MGT3H7ZZBPGJQKOVJ07TCGBDQ", "dateTime": 1519157937227}, {"current_trial": 141, "trialdata": {"rt": -1000, "trial_type": "single-audio", "word": "cousin", "stimulus": "/static/audio/wordpool/COUSIN.wav", "conditions": [24, 800, "a", 12000], "internal_node_id": "0.0-105.0", "trial": 3, "time_elapsed": 653499, "serialpos": 12, "key_press": -1, "wordID": 391, "type": "PRES_AUD", "trial_index": 141}, "uniqueid": "MTK2619:3LEP4MGT3H7ZZBPGJQKOVJ07TCGBDQ", "dateTime": 1519157939050}, {"current_trial": 142, "trialdata": {"rt": -1000, "trial_type": "single-audio", "word": "chauffeur", "stimulus": "/static/audio/wordpool/CHAUFFEUR.wav", "conditions": [24, 800, "a", 12000], "internal_node_id": "0.0-106.0", "trial": 3, "time_elapsed": 655383, "serialpos": 13, "key_press": -1, "wordID": 282, "type": "PRES_AUD", "trial_index": 142}, "uniqueid": "MTK2619:3LEP4MGT3H7ZZBPGJQKOVJ07TCGBDQ", "dateTime": 1519157940936}, {"current_trial": 143, "trialdata": {"rt": -1000, "trial_type": "single-audio", "word": "highway", "stimulus": "/static/audio/wordpool/HIGHWAY.wav", "conditions": [24, 800, "a", 12000], "internal_node_id": "0.0-107.0", "trial": 3, "time_elapsed": 657000, "serialpos": 14, "key_press": -1, "wordID": 706, "type": "PRES_AUD", "trial_index": 143}, "uniqueid": "MTK2619:3LEP4MGT3H7ZZBPGJQKOVJ07TCGBDQ", "dateTime": 1519157942551}, {"current_trial": 144, "trialdata": {"rt": -1000, "trial_type": "single-audio", "word": "body", "stimulus": "/static/audio/wordpool/BODY.wav", "conditions": [24, 800, "a", 12000], "internal_node_id": "0.0-108.0", "trial": 3, "time_elapsed": 658731, "serialpos": 15, "key_press": -1, "wordID": 144, "type": "PRES_AUD", "trial_index": 144}, "uniqueid": "MTK2619:3LEP4MGT3H7ZZBPGJQKOVJ07TCGBDQ", "dateTime": 1519157944282}, {"current_trial": 145, "trialdata": {"rt": -1000, "trial_type": "single-audio", "word": "honey", "stimulus": "/static/audio/wordpool/HONEY.wav", "conditions": [24, 800, "a", 12000], "internal_node_id": "0.0-109.0", "trial": 3, "time_elapsed": 660592, "serialpos": 16, "key_press": -1, "wordID": 712, "type": "PRES_AUD", "trial_index": 145}, "uniqueid": "MTK2619:3LEP4MGT3H7ZZBPGJQKOVJ07TCGBDQ", "dateTime": 1519157946143}, {"current_trial": 146, "trialdata": {"rt": -1000, "trial_type": "single-audio", "word": "actor", "stimulus": "/static/audio/wordpool/ACTOR.wav", "conditions": [24, 800, "a", 12000], "internal_node_id": "0.0-110.0", "trial": 3, "time_elapsed": 662589, "serialpos": 17, "key_press": -1, "wordID": 4, "type": "PRES_AUD", "trial_index": 146}, "uniqueid": "MTK2619:3LEP4MGT3H7ZZBPGJQKOVJ07TCGBDQ", "dateTime": 1519157948140}, {"current_trial": 147, "trialdata": {"rt": -1000, "trial_type": "single-audio", "word": "actress", "stimulus": "/static/audio/wordpool/ACTRESS.wav", "conditions": [24, 800, "a", 12000], "internal_node_id": "0.0-111.0", "trial": 3, "time_elapsed": 664475, "serialpos": 18, "key_press": -1, "wordID": 5, "type": "PRES_AUD", "trial_index": 147}, "uniqueid": "MTK2619:3LEP4MGT3H7ZZBPGJQKOVJ07TCGBDQ", "dateTime": 1519157950027}, {"current_trial": 148, "trialdata": {"rt": -1000, "trial_type": "single-audio", "word": "forest", "stimulus": "/static/audio/wordpool/FOREST.wav", "conditions": [24, 800, "a", 12000], "internal_node_id": "0.0-112.0", "trial": 3, "time_elapsed": 666285, "serialpos": 19, "key_press": -1, "wordID": 592, "type": "PRES_AUD", "trial_index": 148}, "uniqueid": "MTK2619:3LEP4MGT3H7ZZBPGJQKOVJ07TCGBDQ", "dateTime": 1519157951837}, {"current_trial": 149, "trialdata": {"rt": -1000, "trial_type": "single-audio", "word": "cottage", "stimulus": "/static/audio/wordpool/COTTAGE.wav", "conditions": [24, 800, "a", 12000], "internal_node_id": "0.0-113.0", "trial": 3, "time_elapsed": 667949, "serialpos": 20, "key_press": -1, "wordID": 383, "type": "PRES_AUD", "trial_index": 149}, "uniqueid": "MTK2619:3LEP4MGT3H7ZZBPGJQKOVJ07TCGBDQ", "dateTime": 1519157953500}, {"current_trial": 150, "trialdata": {"rt": -1000, "trial_type": "single-audio", "word": "orange", "stimulus": "/static/audio/wordpool/ORANGE.wav", "conditions": [24, 800, "a", 12000], "internal_node_id": "0.0-114.0", "trial": 3, "time_elapsed": 669939, "serialpos": 21, "key_press": -1, "wordID": 979, "type": "PRES_AUD", "trial_index": 150}, "uniqueid": "MTK2619:3LEP4MGT3H7ZZBPGJQKOVJ07TCGBDQ", "dateTime": 1519157955490}, {"current_trial": 151, "trialdata": {"rt": -1000, "trial_type": "single-audio", "word": "agent", "stimulus": "/static/audio/wordpool/AGENT.wav", "conditions": [24, 800, "a", 12000], "internal_node_id": "0.0-115.0", "trial": 3, "time_elapsed": 671776, "serialpos": 22, "key_press": -1, "wordID": 9, "type": "PRES_AUD", "trial_index": 151}, "uniqueid": "MTK2619:3LEP4MGT3H7ZZBPGJQKOVJ07TCGBDQ", "dateTime": 1519157957327}, {"current_trial": 152, "trialdata": {"rt": -1000, "trial_type": "single-audio", "word": "grape", "stimulus": "/static/audio/wordpool/GRAPE.wav", "conditions": [24, 800, "a", 12000], "internal_node_id": "0.0-116.0", "trial": 3, "time_elapsed": 673648, "serialpos": 23, "key_press": -1, "wordID": 653, "type": "PRES_AUD", "trial_index": 152}, "uniqueid": "MTK2619:3LEP4MGT3H7ZZBPGJQKOVJ07TCGBDQ", "dateTime": 1519157959199}, {"current_trial": 153, "trialdata": {"rt": -1, "trial_type": "single-stim", "stimulus": "", "internal_node_id": "0.0-117.0-0.0", "time_elapsed": 674879, "key_press": -1, "type": "PRE_RECALL_DELAY", "trial_index": 153}, "uniqueid": "MTK2619:3LEP4MGT3H7ZZBPGJQKOVJ07TCGBDQ", "dateTime": 1519157960430}, {"current_trial": 154, "trialdata": {"rt": -1000, "trial_type": "single-audio", "stimulus": "/static/audio/400Hz.wav", "internal_node_id": "0.0-118.0", "time_elapsed": 675379, "key_press": -1, "type": "PRE_RECALL_ALERT", "trial_index": 154}, "uniqueid": "MTK2619:3LEP4MGT3H7ZZBPGJQKOVJ07TCGBDQ", "dateTime": 1519157960930}, {"current_trial": 155, "trialdata": {"rt": [4187, 6210, 7178, 10130, 11522, 13250, 14354, 15674, 16842, 18194, 19737, 21074, 22474, 28545, 31586], "recwords": ["boyfriend", "snake", "car", "girlfriend", "cousin", "agent", "actor", "actress", "wrist", "orange", "grape", "cottage", "scarf", "honey", "forest"], "key_times": [2587, 2666, 2842, 3187, 3420, 3476, 3651, 3723, 3907, 4187, 4763, 4930, 5059, 5802, 6021, 6210, 6651, 6786, 6947, 7178, 8684, 8761, 8953, 9070, 9363, 9532, 9642, 9747, 9867, 9978, 10130, 10651, 10723, 10802, 10994, 11124, 11244, 11522, 12444, 12747, 12885, 12986, 13098, 13250, 13443, 13643, 13826, 13882, 14027, 14354, 14611, 14795, 14979, 15162, 15266, 15370, 15539, 15674, 15906, 16083, 16193, 16417, 16554, 16842, 17267, 17395, 17562, 17685, 17787, 17900, 18194, 19009, 19173, 19265, 19370, 19580, 19737, 19994, 20107, 20393, 20546, 20683, 20841, 20914, 21074, 21289, 21482, 21668, 21906, 22385, 22474, 27731, 27835, 28033, 28266, 28433, 28545, 30665, 30762, 30906, 31122, 31243, 31450, 31586], "trial_type": "free-recall", "conditions": [24, 800, "a", 12000], "internal_node_id": "0.0-119.0-0.0", "key_presses": [66, 79, 89, 70, 82, 73, 69, 78, 68, 13, 83, 78, 65, 75, 69, 13, 67, 65, 82, 13, 71, 73, 82, 76, 70, 82, 73, 69, 78, 68, 13, 67, 79, 85, 83, 73, 78, 13, 65, 71, 69, 78, 84, 13, 65, 67, 84, 79, 82, 13, 65, 67, 84, 82, 69, 83, 83, 13, 87, 82, 73, 83, 84, 13, 79, 82, 65, 78, 71, 69, 13, 71, 82, 65, 80, 69, 13, 67, 79, 84, 84, 65, 71, 69, 13, 83, 67, 65, 82, 70, 13, 72, 79, 78, 69, 89, 13, 70, 79, 82, 69, 83, 84, 13], "trial": 3, "time_elapsed": 735381, "type": "FREE_RECALL", "trial_index": 155}, "uniqueid": "MTK2619:3LEP4MGT3H7ZZBPGJQKOVJ07TCGBDQ", "dateTime": 1519158020935}, {"current_trial": 156, "trialdata": {"rt": 1575, "trial_type": "text", "internal_node_id": "0.0-120.0", "time_elapsed": 738958, "key_press": 70, "type": "INSTRUCTIONS", "trial_index": 156}, "uniqueid": "MTK2619:3LEP4MGT3H7ZZBPGJQKOVJ07TCGBDQ", "dateTime": 1519158024509}, {"current_trial": 157, "trialdata": {"rt": [2462, 4702, 7085, 8844, 13766, 17684, 20324, 22596], "trial_type": "math-distractor", "key_times": [2094, 2462, 4487, 4614, 4702, 6703, 6885, 7085, 8399, 8750, 8844, 13446, 13581, 13766, 17220, 17605, 17684, 20205, 20324, 22437, 22596], "responses": ["9", "13", "17", "16", "20", "16", "6", "8"], "num2": [3, 5, 4, 5, 8, 7, 3, 5, 4], "num3": [3, 5, 5, 6, 9, 5, 2, 1, 2], "conditions": [12, 800, "a", 24000], "internal_node_id": "0.0-121.0", "key_presses": [57, 13, 49, 51, 13, 49, 55, 13, 49, 54, 13, 50, 48, 13, 49, 54, 13, 54, 13, 56, 13], "trial": 4, "time_elapsed": 764962, "type": "DISTRACTOR", "trial_index": 157, "num1": [3, 3, 8, 5, 3, 4, 1, 2, 5]}, "uniqueid": "MTK2619:3LEP4MGT3H7ZZBPGJQKOVJ07TCGBDQ", "dateTime": 1519158050513}, {"current_trial": 158, "trialdata": {"rt": -1, "trial_type": "single-stim", "stimulus": "<p id=\"stim\">10</p>", "internal_node_id": "0.0-122.0-0.0", "time_elapsed": 767963, "key_press": -1, "trial_index": 158}, "uniqueid": "MTK2619:3LEP4MGT3H7ZZBPGJQKOVJ07TCGBDQ", "dateTime": 1519158053514}, {"current_trial": 159, "trialdata": {"rt": -1, "trial_type": "single-stim", "stimulus": "<p id=\"stim\">9</p>", "internal_node_id": "0.0-122.0-1.0", "time_elapsed": 768965, "key_press": -1, "trial_index": 159}, "uniqueid": "MTK2619:3LEP4MGT3H7ZZBPGJQKOVJ07TCGBDQ", "dateTime": 1519158054518}, {"current_trial": 160, "trialdata": {"rt": -1, "trial_type": "single-stim", "stimulus": "<p id=\"stim\">8</p>", "internal_node_id": "0.0-122.0-2.0", "time_elapsed": 769968, "key_press": -1, "trial_index": 160}, "uniqueid": "MTK2619:3LEP4MGT3H7ZZBPGJQKOVJ07TCGBDQ", "dateTime": 1519158055519}, {"current_trial": 161, "trialdata": {"rt": -1, "trial_type": "single-stim", "stimulus": "<p id=\"stim\">7</p>", "internal_node_id": "0.0-122.0-3.0", "time_elapsed": 770969, "key_press": -1, "trial_index": 161}, "uniqueid": "MTK2619:3LEP4MGT3H7ZZBPGJQKOVJ07TCGBDQ", "dateTime": 1519158056520}, {"current_trial": 162, "trialdata": {"rt": -1, "trial_type": "single-stim", "stimulus": "<p id=\"stim\">6</p>", "internal_node_id": "0.0-122.0-4.0", "time_elapsed": 771971, "key_press": -1, "trial_index": 162}, "uniqueid": "MTK2619:3LEP4MGT3H7ZZBPGJQKOVJ07TCGBDQ", "dateTime": 1519158057522}, {"current_trial": 163, "trialdata": {"rt": -1, "trial_type": "single-stim", "stimulus": "<p id=\"stim\">5</p>", "internal_node_id": "0.0-122.0-5.0", "time_elapsed": 772973, "key_press": -1, "trial_index": 163}, "uniqueid": "MTK2619:3LEP4MGT3H7ZZBPGJQKOVJ07TCGBDQ", "dateTime": 1519158058524}, {"current_trial": 164, "trialdata": {"rt": -1, "trial_type": "single-stim", "stimulus": "<p id=\"stim\">4</p>", "internal_node_id": "0.0-122.0-6.0", "time_elapsed": 773975, "key_press": -1, "trial_index": 164}, "uniqueid": "MTK2619:3LEP4MGT3H7ZZBPGJQKOVJ07TCGBDQ", "dateTime": 1519158059526}, {"current_trial": 165, "trialdata": {"rt": -1, "trial_type": "single-stim", "stimulus": "<p id=\"stim\">3</p>", "internal_node_id": "0.0-122.0-7.0", "time_elapsed": 774976, "key_press": -1, "trial_index": 165}, "uniqueid": "MTK2619:3LEP4MGT3H7ZZBPGJQKOVJ07TCGBDQ", "dateTime": 1519158060527}, {"current_trial": 166, "trialdata": {"rt": -1, "trial_type": "single-stim", "stimulus": "<p id=\"stim\">2</p>", "internal_node_id": "0.0-122.0-8.0", "time_elapsed": 775977, "key_press": -1, "trial_index": 166}, "uniqueid": "MTK2619:3LEP4MGT3H7ZZBPGJQKOVJ07TCGBDQ", "dateTime": 1519158061528}, {"current_trial": 167, "trialdata": {"rt": -1, "trial_type": "single-stim", "stimulus": "<p id=\"stim\">1</p>", "internal_node_id": "0.0-122.0-9.0", "time_elapsed": 776979, "key_press": -1, "trial_index": 167}, "uniqueid": "MTK2619:3LEP4MGT3H7ZZBPGJQKOVJ07TCGBDQ", "dateTime": 1519158062530}, {"current_trial": 168, "trialdata": {"rt": -1, "trial_type": "single-stim", "stimulus": "<p id=\"stim\">+</p>", "internal_node_id": "0.0-123.0-0.0", "time_elapsed": 778479, "key_press": -1, "type": "FIXATION", "trial_index": 168}, "uniqueid": "MTK2619:3LEP4MGT3H7ZZBPGJQKOVJ07TCGBDQ", "dateTime": 1519158064030}, {"current_trial": 169, "trialdata": {"rt": -1000, "trial_type": "single-audio", "word": "robin", "stimulus": "/static/audio/wordpool/ROBIN.wav", "conditions": [12, 800, "a", 24000], "internal_node_id": "0.0-124.0", "trial": 4, "time_elapsed": 780441, "serialpos": 0, "key_press": -1, "wordID": 1198, "type": "PRES_AUD", "trial_index": 169}, "uniqueid": "MTK2619:3LEP4MGT3H7ZZBPGJQKOVJ07TCGBDQ", "dateTime": 1519158065992}, {"current_trial": 170, "trialdata": {"rt": -1000, "trial_type": "single-audio", "word": "padding", "stimulus": "/static/audio/wordpool/PADDING.wav", "conditions": [12, 800, "a", 24000], "internal_node_id": "0.0-125.0", "trial": 4, "time_elapsed": 782187, "serialpos": 1, "key_press": -1, "wordID": 998, "type": "PRES_AUD", "trial_index": 170}, "uniqueid": "MTK2619:3LEP4MGT3H7ZZBPGJQKOVJ07TCGBDQ", "dateTime": 1519158067738}, {"current_trial": 171, "trialdata": {"rt": -1000, "trial_type": "single-audio", "word": "wife", "stimulus": "/static/audio/wordpool/WIFE.wav", "conditions": [12, 800, "a", 24000], "internal_node_id": "0.0-126.0", "trial": 4, "time_elapsed": 784058, "serialpos": 2, "key_press": -1, "wordID": 1608, "type": "PRES_AUD", "trial_index": 171}, "uniqueid": "MTK2619:3LEP4MGT3H7ZZBPGJQKOVJ07TCGBDQ", "dateTime": 1519158069609}, {"current_trial": 172, "trialdata": {"rt": -1000, "trial_type": "single-audio", "word": "shoulder", "stimulus": "/static/audio/wordpool/SHOULDER.wav", "conditions": [12, 800, "a", 24000], "internal_node_id": "0.0-127.0", "trial": 4, "time_elapsed": 785960, "serialpos": 3, "key_press": -1, "wordID": 1293, "type": "PRES_AUD", "trial_index": 172}, "uniqueid": "MTK2619:3LEP4MGT3H7ZZBPGJQKOVJ07TCGBDQ", "dateTime": 1519158071511}, {"current_trial": 173, "trialdata": {"rt": -1000, "trial_type": "single-audio", "word": "shovel", "stimulus": "/static/audio/wordpool/SHOVEL.wav", "conditions": [12, 800, "a", 24000], "internal_node_id": "0.0-128.0", "trial": 4, "time_elapsed": 787686, "serialpos": 4, "key_press": -1, "wordID": 1294, "type": "PRES_AUD", "trial_index": 173}, "uniqueid": "MTK2619:3LEP4MGT3H7ZZBPGJQKOVJ07TCGBDQ", "dateTime": 1519158073237}, {"current_trial": 174, "trialdata": {"rt": -1000, "trial_type": "single-audio", "word": "student", "stimulus": "/static/audio/wordpool/STUDENT.wav", "conditions": [12, 800, "a", 24000], "internal_node_id": "0.0-129.0", "trial": 4, "time_elapsed": 789376, "serialpos": 5, "key_press": -1, "wordID": 1394, "type": "PRES_AUD", "trial_index": 174}, "uniqueid": "MTK2619:3LEP4MGT3H7ZZBPGJQKOVJ07TCGBDQ", "dateTime": 1519158074927}, {"current_trial": 175, "trialdata": {"rt": -1000, "trial_type": "single-audio", "word": "college", "stimulus": "/static/audio/wordpool/COLLEGE.wav", "conditions": [12, 800, "a", 24000], "internal_node_id": "0.0-130.0", "trial": 4, "time_elapsed": 791042, "serialpos": 6, "key_press": -1, "wordID": 345, "type": "PRES_AUD", "trial_index": 175}, "uniqueid": "MTK2619:3LEP4MGT3H7ZZBPGJQKOVJ07TCGBDQ", "dateTime": 1519158076593}, {"current_trial": 176, "trialdata": {"rt": -1000, "trial_type": "single-audio", "word": "harp", "stimulus": "/static/audio/wordpool/HARP.wav", "conditions": [12, 800, "a", 24000], "internal_node_id": "0.0-131.0", "trial": 4, "time_elapsed": 792959, "serialpos": 7, "key_press": -1, "wordID": 688, "type": "PRES_AUD", "trial_index": 176}, "uniqueid": "MTK2619:3LEP4MGT3H7ZZBPGJQKOVJ07TCGBDQ", "dateTime": 1519158078510}, {"current_trial": 177, "trialdata": {"rt": -1000, "trial_type": "single-audio", "word": "sponge", "stimulus": "/static/audio/wordpool/SPONGE.wav", "conditions": [12, 800, "a", 24000], "internal_node_id": "0.0-132.0", "trial": 4, "time_elapsed": 794819, "serialpos": 8, "key_press": -1, "wordID": 1354, "type": "PRES_AUD", "trial_index": 177}, "uniqueid": "MTK2619:3LEP4MGT3H7ZZBPGJQKOVJ07TCGBDQ", "dateTime": 1519158080370}, {"current_trial": 178, "trialdata": {"rt": -1000, "trial_type": "single-audio", "word": "salt", "stimulus": "/static/audio/wordpool/SALT.wav", "conditions": [12, 800, "a", 24000], "internal_node_id": "0.0-133.0", "trial": 4, "time_elapsed": 796567, "serialpos": 9, "key_press": -1, "wordID": 1228, "type": "PRES_AUD", "trial_index": 178}, "uniqueid": "MTK2619:3LEP4MGT3H7ZZBPGJQKOVJ07TCGBDQ", "dateTime": 1519158082118}, {"current_trial": 179, "trialdata": {"rt": -1000, "trial_type": "single-audio", "word": "slug", "stimulus": "/static/audio/wordpool/SLUG.wav", "conditions": [12, 800, "a", 24000], "internal_node_id": "0.0-134.0", "trial": 4, "time_elapsed": 798510, "serialpos": 10, "key_press": -1, "wordID": 1328, "type": "PRES_AUD", "trial_index": 179}, "uniqueid": "MTK2619:3LEP4MGT3H7ZZBPGJQKOVJ07TCGBDQ", "dateTime": 1519158084062}, {"current_trial": 180, "trialdata": {"rt": -1000, "trial_type": "single-audio", "word": "arm", "stimulus": "/static/audio/wordpool/ARM.wav", "conditions": [12, 800, "a", 24000], "internal_node_id": "0.0-135.0", "trial": 4, "time_elapsed": 800288, "serialpos": 11, "key_press": -1, "wordID": 37, "type": "PRES_AUD", "trial_index": 180}, "uniqueid": "MTK2619:3LEP4MGT3H7ZZBPGJQKOVJ07TCGBDQ", "dateTime": 1519158085840}, {"current_trial": 181, "trialdata": {"rt": -1, "trial_type": "single-stim", "stimulus": "", "internal_node_id": "0.0-136.0-0.0", "time_elapsed": 801634, "key_press": -1, "type": "PRE_RECALL_DELAY", "trial_index": 181}, "uniqueid": "MTK2619:3LEP4MGT3H7ZZBPGJQKOVJ07TCGBDQ", "dateTime": 1519158087185}, {"current_trial": 182, "trialdata": {"rt": -1000, "trial_type": "single-audio", "stimulus": "/static/audio/400Hz.wav", "internal_node_id": "0.0-137.0", "time_elapsed": 802136, "key_press": -1, "type": "PRE_RECALL_ALERT", "trial_index": 182}, "uniqueid": "MTK2619:3LEP4MGT3H7ZZBPGJQKOVJ07TCGBDQ", "dateTime": 1519158087687}, {"current_trial": 183, "trialdata": {"rt": [2975, 4327, 6151, 9056, 10511, 11798, 12935, 18366, 19447, 21166, 22663], "recwords": ["wife", "robin", "shovel", "student", "college", "padding", "shoulder", "sponge", "salt", "slug", "arm"], "key_times": [2057, 2185, 2361, 2784, 2975, 3433, 3671, 3868, 3999, 4137, 4327, 4857, 5160, 5248, 5649, 5767, 5968, 6151, 7830, 8031, 8136, 8279, 8480, 8759, 8894, 9056, 9441, 9527, 9728, 9887, 9976, 10112, 10209, 10511, 10976, 11063, 11230, 11409, 11512, 11577, 11640, 11798, 12008, 12095, 12174, 12271, 12375, 12488, 12704, 12751, 12935, 15030, 15207, 15638, 15838, 17128, 17342, 17543, 17664, 18081, 18190, 18366, 18663, 18816, 18919, 19111, 19447, 20416, 20536, 20808, 21062, 21166, 22039, 22192, 22343, 22663], "trial_type": "free-recall", "conditions": [12, 800, "a", 24000], "internal_node_id": "0.0-138.0-0.0", "key_presses": [87, 73, 70, 69, 13, 82, 79, 66, 73, 78, 13, 83, 72, 79, 86, 69, 76, 13, 83, 84, 85, 68, 69, 78, 84, 13, 67, 79, 76, 76, 69, 71, 69, 13, 80, 65, 68, 68, 73, 78, 71, 13, 83, 72, 79, 85, 76, 68, 69, 82, 13, 65, 82, 8, 8, 83, 80, 79, 78, 71, 69, 13, 83, 65, 76, 84, 13, 83, 76, 85, 71, 13, 65, 82, 77, 13], "trial": 4, "time_elapsed": 862141, "type": "FREE_RECALL", "trial_index": 183}, "uniqueid": "MTK2619:3LEP4MGT3H7ZZBPGJQKOVJ07TCGBDQ", "dateTime": 1519158147701}, {"current_trial": 184, "trialdata": {"rt": 2085, "trial_type": "text", "internal_node_id": "0.0-139.0", "time_elapsed": 866236, "key_press": 74, "type": "INSTRUCTIONS", "trial_index": 184}, "uniqueid": "MTK2619:3LEP4MGT3H7ZZBPGJQKOVJ07TCGBDQ", "dateTime": 1519158151787}, {"current_trial": 185, "trialdata": {"rt": [2185, 5176, 9176, 10992], "trial_type": "math-distractor", "key_times": [1769, 2024, 2185, 4977, 5078, 5176, 8921, 9074, 9176, 10744, 10912, 10992], "responses": ["19", "12", "22", "14"], "num2": [5, 8, 6, 6, 5], "num3": [5, 1, 9, 7, 8], "conditions": [12, 1600, "a", 12000], "internal_node_id": "0.0-140.0", "key_presses": [49, 57, 13, 49, 50, 13, 50, 50, 13, 49, 52, 13], "trial": 5, "time_elapsed": 880241, "type": "DISTRACTOR", "trial_index": 185, "num1": [9, 3, 7, 1, 3]}, "uniqueid": "MTK2619:3LEP4MGT3H7ZZBPGJQKOVJ07TCGBDQ", "dateTime": 1519158165792}, {"current_trial": 186, "trialdata": {"rt": -1, "trial_type": "single-stim", "stimulus": "<p id=\"stim\">10</p>", "internal_node_id": "0.0-141.0-0.0", "time_elapsed": 883242, "key_press": -1, "trial_index": 186}, "uniqueid": "MTK2619:3LEP4MGT3H7ZZBPGJQKOVJ07TCGBDQ", "dateTime": 1519158168794}, {"current_trial": 187, "trialdata": {"rt": -1, "trial_type": "single-stim", "stimulus": "<p id=\"stim\">9</p>", "internal_node_id": "0.0-141.0-1.0", "time_elapsed": 884244, "key_press": -1, "trial_index": 187}, "uniqueid": "MTK2619:3LEP4MGT3H7ZZBPGJQKOVJ07TCGBDQ", "dateTime": 1519158169795}, {"current_trial": 188, "trialdata": {"rt": -1, "trial_type": "single-stim", "stimulus": "<p id=\"stim\">8</p>", "internal_node_id": "0.0-141.0-2.0", "time_elapsed": 885244, "key_press": -1, "trial_index": 188}, "uniqueid": "MTK2619:3LEP4MGT3H7ZZBPGJQKOVJ07TCGBDQ", "dateTime": 1519158170795}, {"current_trial": 189, "trialdata": {"rt": -1, "trial_type": "single-stim", "stimulus": "<p id=\"stim\">7</p>", "internal_node_id": "0.0-141.0-3.0", "time_elapsed": 886245, "key_press": -1, "trial_index": 189}, "uniqueid": "MTK2619:3LEP4MGT3H7ZZBPGJQKOVJ07TCGBDQ", "dateTime": 1519158171796}, {"current_trial": 190, "trialdata": {"rt": -1, "trial_type": "single-stim", "stimulus": "<p id=\"stim\">6</p>", "internal_node_id": "0.0-141.0-4.0", "time_elapsed": 887248, "key_press": -1, "trial_index": 190}, "uniqueid": "MTK2619:3LEP4MGT3H7ZZBPGJQKOVJ07TCGBDQ", "dateTime": 1519158172799}, {"current_trial": 191, "trialdata": {"rt": -1, "trial_type": "single-stim", "stimulus": "<p id=\"stim\">5</p>", "internal_node_id": "0.0-141.0-5.0", "time_elapsed": 888250, "key_press": -1, "trial_index": 191}, "uniqueid": "MTK2619:3LEP4MGT3H7ZZBPGJQKOVJ07TCGBDQ", "dateTime": 1519158173801}, {"current_trial": 192, "trialdata": {"rt": -1, "trial_type": "single-stim", "stimulus": "<p id=\"stim\">4</p>", "internal_node_id": "0.0-141.0-6.0", "time_elapsed": 889250, "key_press": -1, "trial_index": 192}, "uniqueid": "MTK2619:3LEP4MGT3H7ZZBPGJQKOVJ07TCGBDQ", "dateTime": 1519158174801}, {"current_trial": 193, "trialdata": {"rt": -1, "trial_type": "single-stim", "stimulus": "<p id=\"stim\">3</p>", "internal_node_id": "0.0-141.0-7.0", "time_elapsed": 890250, "key_press": -1, "trial_index": 193}, "uniqueid": "MTK2619:3LEP4MGT3H7ZZBPGJQKOVJ07TCGBDQ", "dateTime": 1519158175803}, {"current_trial": 194, "trialdata": {"rt": -1, "trial_type": "single-stim", "stimulus": "<p id=\"stim\">2</p>", "internal_node_id": "0.0-141.0-8.0", "time_elapsed": 891251, "key_press": -1, "trial_index": 194}, "uniqueid": "MTK2619:3LEP4MGT3H7ZZBPGJQKOVJ07TCGBDQ", "dateTime": 1519158176802}, {"current_trial": 195, "trialdata": {"rt": -1, "trial_type": "single-stim", "stimulus": "<p id=\"stim\">1</p>", "internal_node_id": "0.0-141.0-9.0", "time_elapsed": 892254, "key_press": -1, "trial_index": 195}, "uniqueid": "MTK2619:3LEP4MGT3H7ZZBPGJQKOVJ07TCGBDQ", "dateTime": 1519158177805}, {"current_trial": 196, "trialdata": {"rt": -1, "trial_type": "single-stim", "stimulus": "<p id=\"stim\">+</p>", "internal_node_id": "0.0-142.0-0.0", "time_elapsed": 893755, "key_press": -1, "type": "FIXATION", "trial_index": 196}, "uniqueid": "MTK2619:3LEP4MGT3H7ZZBPGJQKOVJ07TCGBDQ", "dateTime": 1519158179307}, {"current_trial": 197, "trialdata": {"rt": -1000, "trial_type": "single-audio", "word": "parrot", "stimulus": "/static/audio/wordpool/PARROT.wav", "conditions": [12, 1600, "a", 12000], "internal_node_id": "0.0-143.0", "trial": 5, "time_elapsed": 896173, "serialpos": 0, "key_press": -1, "wordID": 1014, "type": "PRES_AUD", "trial_index": 197}, "uniqueid": "MTK2619:3LEP4MGT3H7ZZBPGJQKOVJ07TCGBDQ", "dateTime": 1519158181724}, {"current_trial": 198, "trialdata": {"rt": -1000, "trial_type": "single-audio", "word": "burglar", "stimulus": "/static/audio/wordpool/BURGLAR.wav", "conditions": [12, 1600, "a", 12000], "internal_node_id": "0.0-144.0", "trial": 5, "time_elapsed": 898726, "serialpos": 1, "key_press": -1, "wordID": 199, "type": "PRES_AUD", "trial_index": 198}, "uniqueid": "MTK2619:3LEP4MGT3H7ZZBPGJQKOVJ07TCGBDQ", "dateTime": 1519158184277}, {"current_trial": 199, "trialdata": {"rt": -1000, "trial_type": "single-audio", "word": "thief", "stimulus": "/static/audio/wordpool/THIEF.wav", "conditions": [12, 1600, "a", 12000], "internal_node_id": "0.0-145.0", "trial": 5, "time_elapsed": 901194, "serialpos": 2, "key_press": -1, "wordID": 1455, "type": "PRES_AUD", "trial_index": 199}, "uniqueid": "MTK2619:3LEP4MGT3H7ZZBPGJQKOVJ07TCGBDQ", "dateTime": 1519158186745}, {"current_trial": 200, "trialdata": {"rt": -1000, "trial_type": "single-audio", "word": "badge", "stimulus": "/static/audio/wordpool/BADGE.wav", "conditions": [12, 1600, "a", 12000], "internal_node_id": "0.0-146.0", "trial": 5, "time_elapsed": 903806, "serialpos": 3, "key_press": -1, "wordID": 67, "type": "PRES_AUD", "trial_index": 200}, "uniqueid": "MTK2619:3LEP4MGT3H7ZZBPGJQKOVJ07TCGBDQ", "dateTime": 1519158189357}, {"current_trial": 201, "trialdata": {"rt": -1000, "trial_type": "single-audio", "word": "lizard", "stimulus": "/static/audio/wordpool/LIZARD.wav", "conditions": [12, 1600, "a", 12000], "internal_node_id": "0.0-147.0", "trial": 5, "time_elapsed": 906331, "serialpos": 4, "key_press": -1, "wordID": 833, "type": "PRES_AUD", "trial_index": 201}, "uniqueid": "MTK2619:3LEP4MGT3H7ZZBPGJQKOVJ07TCGBDQ", "dateTime": 1519158191882}, {"current_trial": 202, "trialdata": {"rt": -1000, "trial_type": "single-audio", "word": "mask", "stimulus": "/static/audio/wordpool/MASK.wav", "conditions": [12, 1600, "a", 12000], "internal_node_id": "0.0-148.0", "trial": 5, "time_elapsed": 908882, "serialpos": 5, "key_press": -1, "wordID": 875, "type": "PRES_AUD", "trial_index": 202}, "uniqueid": "MTK2619:3LEP4MGT3H7ZZBPGJQKOVJ07TCGBDQ", "dateTime": 1519158194433}, {"current_trial": 203, "trialdata": {"rt": -1000, "trial_type": "single-audio", "word": "oyster", "stimulus": "/static/audio/wordpool/OYSTER.wav", "conditions": [12, 1600, "a", 12000], "internal_node_id": "0.0-149.0", "trial": 5, "time_elapsed": 911462, "serialpos": 6, "key_press": -1, "wordID": 994, "type": "PRES_AUD", "trial_index": 203}, "uniqueid": "MTK2619:3LEP4MGT3H7ZZBPGJQKOVJ07TCGBDQ", "dateTime": 1519158197014}, {"current_trial": 204, "trialdata": {"rt": -1000, "trial_type": "single-audio", "word": "hero", "stimulus": "/static/audio/wordpool/HERO.wav", "conditions": [12, 1600, "a", 12000], "internal_node_id": "0.0-150.0", "trial": 5, "time_elapsed": 913996, "serialpos": 7, "key_press": -1, "wordID": 705, "type": "PRES_AUD", "trial_index": 204}, "uniqueid": "MTK2619:3LEP4MGT3H7ZZBPGJQKOVJ07TCGBDQ", "dateTime": 1519158199547}, {"current_trial": 205, "trialdata": {"rt": -1000, "trial_type": "single-audio", "word": "jury", "stimulus": "/static/audio/wordpool/JURY.wav", "conditions": [12, 1600, "a", 12000], "internal_node_id": "0.0-151.0", "trial": 5, "time_elapsed": 916461, "serialpos": 8, "key_press": -1, "wordID": 765, "type": "PRES_AUD", "trial_index": 205}, "uniqueid": "MTK2619:3LEP4MGT3H7ZZBPGJQKOVJ07TCGBDQ", "dateTime": 1519158202012}, {"current_trial": 206, "trialdata": {"rt": -1000, "trial_type": "single-audio", "word": "scallop", "stimulus": "/static/audio/wordpool/SCALLOP.wav", "conditions": [12, 1600, "a", 12000], "internal_node_id": "0.0-152.0", "trial": 5, "time_elapsed": 918872, "serialpos": 9, "key_press": -1, "wordID": 1241, "type": "PRES_AUD", "trial_index": 206}, "uniqueid": "MTK2619:3LEP4MGT3H7ZZBPGJQKOVJ07TCGBDQ", "dateTime": 1519158204424}, {"current_trial": 207, "trialdata": {"rt": -1000, "trial_type": "single-audio", "word": "umpire", "stimulus": "/static/audio/wordpool/UMPIRE.wav", "conditions": [12, 1600, "a", 12000], "internal_node_id": "0.0-153.0", "trial": 5, "time_elapsed": 921411, "serialpos": 10, "key_press": -1, "wordID": 1534, "type": "PRES_AUD", "trial_index": 207}, "uniqueid": "MTK2619:3LEP4MGT3H7ZZBPGJQKOVJ07TCGBDQ", "dateTime": 1519158206962}, {"current_trial": 208, "trialdata": {"rt": -1000, "trial_type": "single-audio", "word": "match", "stimulus": "/static/audio/wordpool/MATCH.wav", "conditions": [12, 1600, "a", 12000], "internal_node_id": "0.0-154.0", "trial": 5, "time_elapsed": 924139, "serialpos": 11, "key_press": -1, "wordID": 877, "type": "PRES_AUD", "trial_index": 208}, "uniqueid": "MTK2619:3LEP4MGT3H7ZZBPGJQKOVJ07TCGBDQ", "dateTime": 1519158209690}, {"current_trial": 209, "trialdata": {"rt": -1, "trial_type": "single-stim", "stimulus": "", "internal_node_id": "0.0-155.0-0.0", "time_elapsed": 925539, "key_press": -1, "type": "PRE_RECALL_DELAY", "trial_index": 209}, "uniqueid": "MTK2619:3LEP4MGT3H7ZZBPGJQKOVJ07TCGBDQ", "dateTime": 1519158211090}, {"current_trial": 210, "trialdata": {"rt": -1000, "trial_type": "single-audio", "stimulus": "/static/audio/400Hz.wav", "internal_node_id": "0.0-156.0", "time_elapsed": 926040, "key_press": -1, "type": "PRE_RECALL_ALERT", "trial_index": 210}, "uniqueid": "MTK2619:3LEP4MGT3H7ZZBPGJQKOVJ07TCGBDQ", "dateTime": 1519158211591}, {"current_trial": 211, "trialdata": {"rt": [2019, 4235, 6082, 7795, 9370, 11907, 13426, 14690, 16795, 18475, 19931], "recwords": ["thief", "parrot", "lizard", "oyster", "scallop", "burgler", "badge", "hero", "jury", "umpire", "match"], "key_times": [1094, 1156, 1284, 1356, 1827, 2019, 3132, 3229, 3355, 3541, 3979, 4099, 4235, 4932, 5029, 5202, 5556, 5771, 5962, 6082, 6396, 6947, 7235, 7460, 7557, 7635, 7795, 8171, 8459, 8619, 8717, 8891, 9051, 9123, 9370, 10914, 11043, 11146, 11380, 11548, 11659, 11730, 11907, 12460, 12628, 12915, 13219, 13316, 13426, 13949, 14050, 14155, 14468, 14690, 16100, 16292, 16364, 16539, 16795, 17226, 17460, 17588, 18099, 18267, 18363, 18475, 18843, 18962, 19484, 19708, 19802, 19931], "trial_type": "free-recall", "conditions": [12, 1600, "a", 12000], "internal_node_id": "0.0-157.0-0.0", "key_presses": [84, 72, 73, 69, 70, 13, 80, 65, 82, 82, 79, 84, 13, 76, 73, 90, 65, 82, 68, 13, 79, 89, 83, 84, 69, 82, 13, 83, 67, 65, 76, 76, 79, 80, 13, 66, 85, 82, 71, 76, 69, 82, 13, 66, 65, 68, 71, 69, 13, 72, 69, 82, 79, 13, 74, 85, 82, 89, 13, 85, 77, 80, 73, 82, 69, 13, 77, 65, 84, 67, 72, 13], "trial": 5, "time_elapsed": 986045, "type": "FREE_RECALL", "trial_index": 211}, "uniqueid": "MTK2619:3LEP4MGT3H7ZZBPGJQKOVJ07TCGBDQ", "dateTime": 1519158271599}, {"current_trial": 212, "trialdata": {"rt": 62241, "trial_type": "text", "internal_node_id": "0.0-158.0", "time_elapsed": 1050293, "key_press": 72, "type": "INSTRUCTIONS", "trial_index": 212}, "uniqueid": "MTK2619:3LEP4MGT3H7ZZBPGJQKOVJ07TCGBDQ", "dateTime": 1519158335844}, {"current_trial": 213, "trialdata": {"rt": [2864, 5888, 9184, 11433], "trial_type": "math-distractor", "key_times": [2491, 2697, 2864, 5617, 5752, 5888, 8896, 9000, 9184, 11136, 11241, 11433], "responses": ["17", "17", "20", "10"], "num2": [3, 4, 6, 6, 7], "num3": [5, 4, 5, 1, 2], "conditions": [12, 800, "a", 12000], "internal_node_id": "0.0-159.0", "key_presses": [49, 55, 13, 49, 55, 13, 50, 48, 13, 49, 48, 13], "trial": 6, "time_elapsed": 1064300, "type": "DISTRACTOR", "trial_index": 213, "num1": [9, 9, 9, 3, 3]}, "uniqueid": "MTK2619:3LEP4MGT3H7ZZBPGJQKOVJ07TCGBDQ", "dateTime": 1519158349851}, {"current_trial": 214, "trialdata": {"rt": -1, "trial_type": "single-stim", "stimulus": "<p id=\"stim\">10</p>", "internal_node_id": "0.0-160.0-0.0", "time_elapsed": 1067303, "key_press": -1, "trial_index": 214}, "uniqueid": "MTK2619:3LEP4MGT3H7ZZBPGJQKOVJ07TCGBDQ", "dateTime": 1519158352854}, {"current_trial": 215, "trialdata": {"rt": -1, "trial_type": "single-stim", "stimulus": "<p id=\"stim\">9</p>", "internal_node_id": "0.0-160.0-1.0", "time_elapsed": 1068307, "key_press": -1, "trial_index": 215}, "uniqueid": "MTK2619:3LEP4MGT3H7ZZBPGJQKOVJ07TCGBDQ", "dateTime": 1519158353858}, {"current_trial": 216, "trialdata": {"rt": -1, "trial_type": "single-stim", "stimulus": "<p id=\"stim\">8</p>", "internal_node_id": "0.0-160.0-2.0", "time_elapsed": 1069308, "key_press": -1, "trial_index": 216}, "uniqueid": "MTK2619:3LEP4MGT3H7ZZBPGJQKOVJ07TCGBDQ", "dateTime": 1519158354859}, {"current_trial": 217, "trialdata": {"rt": -1, "trial_type": "single-stim", "stimulus": "<p id=\"stim\">7</p>", "internal_node_id": "0.0-160.0-3.0", "time_elapsed": 1070311, "key_press": -1, "trial_index": 217}, "uniqueid": "MTK2619:3LEP4MGT3H7ZZBPGJQKOVJ07TCGBDQ", "dateTime": 1519158355862}, {"current_trial": 218, "trialdata": {"rt": -1, "trial_type": "single-stim", "stimulus": "<p id=\"stim\">6</p>", "internal_node_id": "0.0-160.0-4.0", "time_elapsed": 1071313, "key_press": -1, "trial_index": 218}, "uniqueid": "MTK2619:3LEP4MGT3H7ZZBPGJQKOVJ07TCGBDQ", "dateTime": 1519158356864}, {"current_trial": 219, "trialdata": {"rt": -1, "trial_type": "single-stim", "stimulus": "<p id=\"stim\">5</p>", "internal_node_id": "0.0-160.0-5.0", "time_elapsed": 1072314, "key_press": -1, "trial_index": 219}, "uniqueid": "MTK2619:3LEP4MGT3H7ZZBPGJQKOVJ07TCGBDQ", "dateTime": 1519158357866}, {"current_trial": 220, "trialdata": {"rt": -1, "trial_type": "single-stim", "stimulus": "<p id=\"stim\">4</p>", "internal_node_id": "0.0-160.0-6.0", "time_elapsed": 1073317, "key_press": -1, "trial_index": 220}, "uniqueid": "MTK2619:3LEP4MGT3H7ZZBPGJQKOVJ07TCGBDQ", "dateTime": 1519158358868}, {"current_trial": 221, "trialdata": {"rt": -1, "trial_type": "single-stim", "stimulus": "<p id=\"stim\">3</p>", "internal_node_id": "0.0-160.0-7.0", "time_elapsed": 1074318, "key_press": -1, "trial_index": 221}, "uniqueid": "MTK2619:3LEP4MGT3H7ZZBPGJQKOVJ07TCGBDQ", "dateTime": 1519158359870}, {"current_trial": 222, "trialdata": {"rt": -1, "trial_type": "single-stim", "stimulus": "<p id=\"stim\">2</p>", "internal_node_id": "0.0-160.0-8.0", "time_elapsed": 1075321, "key_press": -1, "trial_index": 222}, "uniqueid": "MTK2619:3LEP4MGT3H7ZZBPGJQKOVJ07TCGBDQ", "dateTime": 1519158360872}, {"current_trial": 223, "trialdata": {"rt": -1, "trial_type": "single-stim", "stimulus": "<p id=\"stim\">1</p>", "internal_node_id": "0.0-160.0-9.0", "time_elapsed": 1076322, "key_press": -1, "trial_index": 223}, "uniqueid": "MTK2619:3LEP4MGT3H7ZZBPGJQKOVJ07TCGBDQ", "dateTime": 1519158361873}, {"current_trial": 224, "trialdata": {"rt": -1, "trial_type": "single-stim", "stimulus": "<p id=\"stim\">+</p>", "internal_node_id": "0.0-161.0-0.0", "time_elapsed": 1077823, "key_press": -1, "type": "FIXATION", "trial_index": 224}, "uniqueid": "MTK2619:3LEP4MGT3H7ZZBPGJQKOVJ07TCGBDQ", "dateTime": 1519158363374}, {"current_trial": 225, "trialdata": {"rt": -1000, "trial_type": "single-audio", "word": "sidewalk", "stimulus": "/static/audio/wordpool/SIDEWALK.wav", "conditions": [12, 800, "a", 12000], "internal_node_id": "0.0-162.0", "trial": 6, "time_elapsed": 1079723, "serialpos": 0, "key_press": -1, "wordID": 1302, "type": "PRES_AUD", "trial_index": 225}, "uniqueid": "MTK2619:3LEP4MGT3H7ZZBPGJQKOVJ07TCGBDQ", "dateTime": 1519158365275}, {"current_trial": 226, "trialdata": {"rt": -1000, "trial_type": "single-audio", "word": "foot", "stimulus": "/static/audio/wordpool/FOOT.wav", "conditions": [12, 800, "a", 12000], "internal_node_id": "0.0-163.0", "trial": 6, "time_elapsed": 1081416, "serialpos": 1, "key_press": -1, "wordID": 589, "type": "PRES_AUD", "trial_index": 226}, "uniqueid": "MTK2619:3LEP4MGT3H7ZZBPGJQKOVJ07TCGBDQ", "dateTime": 1519158366968}, {"current_trial": 227, "trialdata": {"rt": -1000, "trial_type": "single-audio", "word": "ankle", "stimulus": "/static/audio/wordpool/ANKLE.wav", "conditions": [12, 800, "a", 12000], "internal_node_id": "0.0-164.0", "trial": 6, "time_elapsed": 1083250, "serialpos": 2, "key_press": -1, "wordID": 23, "type": "PRES_AUD", "trial_index": 227}, "uniqueid": "MTK2619:3LEP4MGT3H7ZZBPGJQKOVJ07TCGBDQ", "dateTime": 1519158368802}, {"current_trial": 228, "trialdata": {"rt": -1000, "trial_type": "single-audio", "word": "saddle", "stimulus": "/static/audio/wordpool/SADDLE.wav", "conditions": [12, 800, "a", 12000], "internal_node_id": "0.0-165.0", "trial": 6, "time_elapsed": 1084943, "serialpos": 3, "key_press": -1, "wordID": 1220, "type": "PRES_AUD", "trial_index": 228}, "uniqueid": "MTK2619:3LEP4MGT3H7ZZBPGJQKOVJ07TCGBDQ", "dateTime": 1519158370494}, {"current_trial": 229, "trialdata": {"rt": -1000, "trial_type": "single-audio", "word": "stove", "stimulus": "/static/audio/wordpool/STOVE.wav", "conditions": [12, 800, "a", 12000], "internal_node_id": "0.0-166.0", "trial": 6, "time_elapsed": 1086676, "serialpos": 4, "key_press": -1, "wordID": 1387, "type": "PRES_AUD", "trial_index": 229}, "uniqueid": "MTK2619:3LEP4MGT3H7ZZBPGJQKOVJ07TCGBDQ", "dateTime": 1519158372227}, {"current_trial": 230, "trialdata": {"rt": -1000, "trial_type": "single-audio", "word": "paper", "stimulus": "/static/audio/wordpool/PAPER.wav", "conditions": [12, 800, "a", 12000], "internal_node_id": "0.0-167.0", "trial": 6, "time_elapsed": 1088533, "serialpos": 5, "key_press": -1, "wordID": 1010, "type": "PRES_AUD", "trial_index": 230}, "uniqueid": "MTK2619:3LEP4MGT3H7ZZBPGJQKOVJ07TCGBDQ", "dateTime": 1519158374084}, {"current_trial": 231, "trialdata": {"rt": -1000, "trial_type": "single-audio", "word": "skirt", "stimulus": "/static/audio/wordpool/SKIRT.wav", "conditions": [12, 800, "a", 12000], "internal_node_id": "0.0-168.0", "trial": 6, "time_elapsed": 1090322, "serialpos": 6, "key_press": -1, "wordID": 1318, "type": "PRES_AUD", "trial_index": 231}, "uniqueid": "MTK2619:3LEP4MGT3H7ZZBPGJQKOVJ07TCGBDQ", "dateTime": 1519158375873}, {"current_trial": 232, "trialdata": {"rt": -1000, "trial_type": "single-audio", "word": "leg", "stimulus": "/static/audio/wordpool/LEG.wav", "conditions": [12, 800, "a", 12000], "internal_node_id": "0.0-169.0", "trial": 6, "time_elapsed": 1092078, "serialpos": 7, "key_press": -1, "wordID": 808, "type": "PRES_AUD", "trial_index": 232}, "uniqueid": "MTK2619:3LEP4MGT3H7ZZBPGJQKOVJ07TCGBDQ", "dateTime": 1519158377629}, {"current_trial": 233, "trialdata": {"rt": -1000, "trial_type": "single-audio", "word": "elbow", "stimulus": "/static/audio/wordpool/ELBOW.wav", "conditions": [12, 800, "a", 12000], "internal_node_id": "0.0-170.0", "trial": 6, "time_elapsed": 1093824, "serialpos": 8, "key_press": -1, "wordID": 519, "type": "PRES_AUD", "trial_index": 233}, "uniqueid": "MTK2619:3LEP4MGT3H7ZZBPGJQKOVJ07TCGBDQ", "dateTime": 1519158379375}, {"current_trial": 234, "trialdata": {"rt": -1000, "trial_type": "single-audio", "word": "toaster", "stimulus": "/static/audio/wordpool/TOASTER.wav", "conditions": [12, 800, "a", 12000], "internal_node_id": "0.0-171.0", "trial": 6, "time_elapsed": 1095614, "serialpos": 9, "key_press": -1, "wordID": 1471, "type": "PRES_AUD", "trial_index": 234}, "uniqueid": "MTK2619:3LEP4MGT3H7ZZBPGJQKOVJ07TCGBDQ", "dateTime": 1519158381165}, {"current_trial": 235, "trialdata": {"rt": -1000, "trial_type": "single-audio", "word": "rattle", "stimulus": "/static/audio/wordpool/RATTLE.wav", "conditions": [12, 800, "a", 12000], "internal_node_id": "0.0-172.0", "trial": 6, "time_elapsed": 1097486, "serialpos": 10, "key_press": -1, "wordID": 1169, "type": "PRES_AUD", "trial_index": 235}, "uniqueid": "MTK2619:3LEP4MGT3H7ZZBPGJQKOVJ07TCGBDQ", "dateTime": 1519158383038}, {"current_trial": 236, "trialdata": {"rt": -1000, "trial_type": "single-audio", "word": "snail", "stimulus": "/static/audio/wordpool/SNAIL.wav", "conditions": [12, 800, "a", 12000], "internal_node_id": "0.0-173.0", "trial": 6, "time_elapsed": 1099132, "serialpos": 11, "key_press": -1, "wordID": 1331, "type": "PRES_AUD", "trial_index": 236}, "uniqueid": "MTK2619:3LEP4MGT3H7ZZBPGJQKOVJ07TCGBDQ", "dateTime": 1519158384683}, {"current_trial": 237, "trialdata": {"rt": -1, "trial_type": "single-stim", "stimulus": "", "internal_node_id": "0.0-174.0-0.0", "time_elapsed": 1100381, "key_press": -1, "type": "PRE_RECALL_DELAY", "trial_index": 237}, "uniqueid": "MTK2619:3LEP4MGT3H7ZZBPGJQKOVJ07TCGBDQ", "dateTime": 1519158385932}, {"current_trial": 238, "trialdata": {"rt": -1000, "trial_type": "single-audio", "stimulus": "/static/audio/400Hz.wav", "internal_node_id": "0.0-175.0", "time_elapsed": 1100885, "key_press": -1, "type": "PRE_RECALL_ALERT", "trial_index": 238}, "uniqueid": "MTK2619:3LEP4MGT3H7ZZBPGJQKOVJ07TCGBDQ", "dateTime": 1519158386436}, {"current_trial": 239, "trialdata": {"rt": [3280, 4658, 5896, 7112, 9000, 10112], "recwords": ["elbow", "toaster", "rattle", "snail", "sidewalk", "skirt"], "key_times": [1994, 2137, 2618, 2993, 3184, 3280, 3738, 3769, 3970, 4106, 4296, 4472, 4536, 4658, 5018, 5153, 5368, 5520, 5664, 5737, 5896, 6224, 6352, 6465, 6841, 6906, 7112, 7664, 7794, 7937, 8129, 8441, 8554, 8776, 8809, 9000, 9289, 9600, 9769, 9873, 10033, 10112], "trial_type": "free-recall", "conditions": [12, 800, "a", 12000], "internal_node_id": "0.0-176.0-0.0", "key_presses": [69, 76, 66, 79, 87, 13, 84, 79, 65, 83, 84, 69, 82, 13, 82, 65, 84, 84, 76, 69, 13, 83, 78, 65, 73, 76, 13, 83, 73, 68, 69, 87, 65, 76, 75, 13, 83, 75, 73, 82, 84, 13], "trial": 6, "time_elapsed": 1160889, "type": "FREE_RECALL", "trial_index": 239}, "uniqueid": "MTK2619:3LEP4MGT3H7ZZBPGJQKOVJ07TCGBDQ", "dateTime": 1519158446444}, {"current_trial": 240, "trialdata": {"rt": 1418, "trial_type": "text", "internal_node_id": "0.0-177.0", "time_elapsed": 1164312, "key_press": 72, "type": "INSTRUCTIONS", "trial_index": 240}, "uniqueid": "MTK2619:3LEP4MGT3H7ZZBPGJQKOVJ07TCGBDQ", "dateTime": 1519158449865}, {"current_trial": 241, "trialdata": {"rt": [3433, 5361, 6985, 10009], "trial_type": "math-distractor", "key_times": [3226, 3306, 3433, 5233, 5313, 5361, 6737, 6985, 9865, 10009, 11745, 11954], "responses": ["21", "12", "1", "9"], "num2": [8, 5, 9, 2, 9], "num3": [9, 1, 4, 3, 5], "conditions": [12, 800, "a", 12000], "internal_node_id": "0.0-178.0", "key_presses": [50, 49, 13, 49, 50, 13, 49, 13, 57, 13, 49, 54], "trial": 7, "time_elapsed": 1178318, "type": "DISTRACTOR", "trial_index": 241, "num1": [3, 6, 1, 4, 2]}, "uniqueid": "MTK2619:3LEP4MGT3H7ZZBPGJQKOVJ07TCGBDQ", "dateTime": 1519158463870}, {"current_trial": 242, "trialdat