{"assignmentId": "3GS6S824SR409QE43BUNE2PMHFWWN1", "workerId": "MTK2577", "questiondata": {"avail_screen_height": 1050, "color_depth": 24, "screen_width": 1920, "pixel_depth": 24, "avail_screen_width": 1920, "screen_height": 1080}, "bonus": 0, "hitId": "3XD2A6FGFN1KQNV7SUWFASVXM88S93", "counterbalance": 2296, "useragent": "Mozilla/5.0 (Windows NT 10.0; Win64; x64) AppleWebKit/537.36 (KHTML, like Gecko) Chrome/58.0.3029.110 Safari/537.36 Edge/16.16299", "eventdata": [{"eventtype": "initialized", "interval": 0, "value": null, "timestamp": 1519074365499}, {"eventtype": "window_resize", "interval": 0, "value": [1920, 973], "timestamp": 1519074365499}, {"eventtype": "focus", "interval": 200, "value": "on", "timestamp": 1519074365699}], "data": [{"current_trial": 0, "trialdata": {"rt": 1990, "trial_type": "text", "internal_node_id": "0.0-0.0", "time_elapsed": 1992, "key_press": 32, "type": "INSTRUCTIONS", "trial_index": 0}, "uniqueid": "MTK2577:3GS6S824SR409QE43BUNE2PMHFWWN1", "dateTime": 1519074367880}, {"current_trial": 1, "trialdata": {"rt": 21236, "trial_type": "text", "internal_node_id": "0.0-1.0", "time_elapsed": 23229, "key_press": 32, "type": "INSTRUCTIONS", "trial_index": 1}, "uniqueid": "MTK2577:3GS6S824SR409QE43BUNE2PMHFWWN1", "dateTime": 1519074389118}, {"current_trial": 2, "trialdata": {"rt": [6875], "trial_type": "audio-test", "responses": ["ocean"], "internal_node_id": "0.0-2.0", "time_elapsed": 30126, "type": "AUDIO_TEST", "trial_index": 2}, "uniqueid": "MTK2577:3GS6S824SR409QE43BUNE2PMHFWWN1", "dateTime": 1519074396014}, {"current_trial": 3, "trialdata": {"rt": [8187], "trial_type": "audio-test", "responses": ["crystal"], "internal_node_id": "0.0-3.0", "time_elapsed": 38326, "type": "AUDIO_TEST", "trial_index": 3}, "uniqueid": "MTK2577:3GS6S824SR409QE43BUNE2PMHFWWN1", "dateTime": 1519074404214}, {"current_trial": 4, "trialdata": {"rt": [3891], "trial_type": "audio-test", "responses": ["spice"], "internal_node_id": "0.0-4.0", "time_elapsed": 42230, "type": "AUDIO_TEST", "trial_index": 4}, "uniqueid": "MTK2577:3GS6S824SR409QE43BUNE2PMHFWWN1", "dateTime": 1519074408118}, {"current_trial": 5, "trialdata": {"rt": 25708, "trial_type": "survey-text", "responses": "{\"Q0\":\"1am\",\"Q1\":\"9:30am\",\"Q2\":\"4\"}", "internal_node_id": "0.0-5.0", "time_elapsed": 68695, "type": "SLEEP_SURVEY", "trial_index": 5}, "uniqueid": "MTK2577:3GS6S824SR409QE43BUNE2PMHFWWN1", "dateTime": 1519074434584}, {"current_trial": 6, "trialdata": {"rt": 58552, "trial_type": "text", "internal_node_id": "0.0-6.0", "time_elapsed": 128253, "key_press": 32, "type": "INSTRUCTIONS", "trial_index": 6}, "uniqueid": "MTK2577:3GS6S824SR409QE43BUNE2PMHFWWN1", "dateTime": 1519074494141}, {"current_trial": 7, "trialdata": {"rt": 15164, "trial_type": "text", "internal_node_id": "0.0-7.0", "time_elapsed": 143925, "key_press": 32, "type": "INSTRUCTIONS", "trial_index": 7}, "uniqueid": "MTK2577:3GS6S824SR409QE43BUNE2PMHFWWN1", "dateTime": 1519074509813}, {"current_trial": 8, "trialdata": {"rt": 9237, "trial_type": "text", "internal_node_id": "0.0-8.0", "time_elapsed": 153677, "key_press": 32, "type": "INSTRUCTIONS", "trial_index": 8}, "uniqueid": "MTK2577:3GS6S824SR409QE43BUNE2PMHFWWN1", "dateTime": 1519074519565}, {"current_trial": 9, "trialdata": {"rt": [4004, 6277, 9716, 11613, 14132, 17972], "trial_type": "math-distractor", "key_times": [2932, 3148, 4004, 5836, 5900, 6277, 9269, 9460, 9716, 11100, 11303, 11613, 13703, 13837, 14132, 17341, 17476, 17972], "responses": ["17", "10", "15", "14", "16", "23"], "num2": [5, 4, 2, 4, 3, 9, 8], "num3": [9, 5, 4, 7, 4, 6, 3], "conditions": [18, 1200, "v", 18000], "internal_node_id": "0.0-9.0", "key_presses": [97, 103, 13, 97, 96, 13, 97, 101, 13, 97, 100, 13, 97, 102, 13, 98, 99, 13], "trial": 0, "time_elapsed": 172688, "type": "DISTRACTOR", "trial_index": 9, "num1": [3, 1, 9, 3, 9, 8, 6]}, "uniqueid": "MTK2577:3GS6S824SR409QE43BUNE2PMHFWWN1", "dateTime": 1519074538576}, {"current_trial": 10, "trialdata": {"rt": -1, "trial_type": "single-stim", "stimulus": "<p id=\"stim\">10</p>", "internal_node_id": "0.0-10.0-0.0", "time_elapsed": 175712, "key_press": -1, "trial_index": 10}, "uniqueid": "MTK2577:3GS6S824SR409QE43BUNE2PMHFWWN1", "dateTime": 1519074541600}, {"current_trial": 11, "trialdata": {"rt": -1, "trial_type": "single-stim", "stimulus": "<p id=\"stim\">9</p>", "internal_node_id": "0.0-10.0-1.0", "time_elapsed": 176700, "key_press": -1, "trial_index": 11}, "uniqueid": "MTK2577:3GS6S824SR409QE43BUNE2PMHFWWN1", "dateTime": 1519074542588}, {"current_trial": 12, "trialdata": {"rt": -1, "trial_type": "single-stim", "stimulus": "<p id=\"stim\">8</p>", "internal_node_id": "0.0-10.0-2.0", "time_elapsed": 177705, "key_press": -1, "trial_index": 12}, "uniqueid": "MTK2577:3GS6S824SR409QE43BUNE2PMHFWWN1", "dateTime": 1519074543593}, {"current_trial": 13, "trialdata": {"rt": -1, "trial_type": "single-stim", "stimulus": "<p id=\"stim\">7</p>", "internal_node_id": "0.0-10.0-3.0", "time_elapsed": 178709, "key_press": -1, "trial_index": 13}, "uniqueid": "MTK2577:3GS6S824SR409QE43BUNE2PMHFWWN1", "dateTime": 1519074544597}, {"current_trial": 14, "trialdata": {"rt": -1, "trial_type": "single-stim", "stimulus": "<p id=\"stim\">6</p>", "internal_node_id": "0.0-10.0-4.0", "time_elapsed": 179706, "key_press": -1, "trial_index": 14}, "uniqueid": "MTK2577:3GS6S824SR409QE43BUNE2PMHFWWN1", "dateTime": 1519074545594}, {"current_trial": 15, "trialdata": {"rt": -1, "trial_type": "single-stim", "stimulus": "<p id=\"stim\">5</p>", "internal_node_id": "0.0-10.0-5.0", "time_elapsed": 180706, "key_press": -1, "trial_index": 15}, "uniqueid": "MTK2577:3GS6S824SR409QE43BUNE2PMHFWWN1", "dateTime": 1519074546594}, {"current_trial": 16, "trialdata": {"rt": -1, "trial_type": "single-stim", "stimulus": "<p id=\"stim\">4</p>", "internal_node_id": "0.0-10.0-6.0", "time_elapsed": 181721, "key_press": -1, "trial_index": 16}, "uniqueid": "MTK2577:3GS6S824SR409QE43BUNE2PMHFWWN1", "dateTime": 1519074547610}, {"current_trial": 17, "trialdata": {"rt": -1, "trial_type": "single-stim", "stimulus": "<p id=\"stim\">3</p>", "internal_node_id": "0.0-10.0-7.0", "time_elapsed": 182706, "key_press": -1, "trial_index": 17}, "uniqueid": "MTK2577:3GS6S824SR409QE43BUNE2PMHFWWN1", "dateTime": 1519074548594}, {"current_trial": 18, "trialdata": {"rt": -1, "trial_type": "single-stim", "stimulus": "<p id=\"stim\">2</p>", "internal_node_id": "0.0-10.0-8.0", "time_elapsed": 183706, "key_press": -1, "trial_index": 18}, "uniqueid": "MTK2577:3GS6S824SR409QE43BUNE2PMHFWWN1", "dateTime": 1519074549594}, {"current_trial": 19, "trialdata": {"rt": -1, "trial_type": "single-stim", "stimulus": "<p id=\"stim\">1</p>", "internal_node_id": "0.0-10.0-9.0", "time_elapsed": 184711, "key_press": -1, "trial_index": 19}, "uniqueid": "MTK2577:3GS6S824SR409QE43BUNE2PMHFWWN1", "dateTime": 1519074550599}, {"current_trial": 20, "trialdata": {"rt": -1, "trial_type": "single-stim", "stimulus": "<p id=\"stim\">+</p>", "internal_node_id": "0.0-11.0-0.0", "time_elapsed": 186215, "key_press": -1, "type": "FIXATION", "trial_index": 20}, "uniqueid": "MTK2577:3GS6S824SR409QE43BUNE2PMHFWWN1", "dateTime": 1519074552103}, {"current_trial": 21, "trialdata": {"rt": -1, "trial_type": "single-stim", "word": "rust", "stimulus": "<p id=\"stim\">RUST</p>", "conditions": [18, 1200, "v", 18000], "internal_node_id": "0.0-12.0", "trial": 0, "time_elapsed": 187427, "serialpos": 0, "key_press": -1, "wordID": 1218, "type": "PRES_VIS", "trial_index": 21}, "uniqueid": "MTK2577:3GS6S824SR409QE43BUNE2PMHFWWN1", "dateTime": 1519074553315}, {"current_trial": 22, "trialdata": {"rt": -1, "trial_type": "single-stim", "word": "cashier", "stimulus": "<p id=\"stim\">CASHIER</p>", "conditions": [18, 1200, "v", 18000], "internal_node_id": "0.0-13.0", "trial": 0, "time_elapsed": 189638, "serialpos": 1, "key_press": -1, "wordID": 253, "type": "PRES_VIS", "trial_index": 22}, "uniqueid": "MTK2577:3GS6S824SR409QE43BUNE2PMHFWWN1", "dateTime": 1519074555526}, {"current_trial": 23, "trialdata": {"rt": -1, "trial_type": "single-stim", "word": "glove", "stimulus": "<p id=\"stim\">GLOVE</p>", "conditions": [18, 1200, "v", 18000], "internal_node_id": "0.0-14.0", "trial": 0, "time_elapsed": 191895, "serialpos": 2, "key_press": -1, "wordID": 641, "type": "PRES_VIS", "trial_index": 23}, "uniqueid": "MTK2577:3GS6S824SR409QE43BUNE2PMHFWWN1", "dateTime": 1519074557783}, {"current_trial": 24, "trialdata": {"rt": -1, "trial_type": "single-stim", "word": "comet", "stimulus": "<p id=\"stim\">COMET</p>", "conditions": [18, 1200, "v", 18000], "internal_node_id": "0.0-15.0", "trial": 0, "time_elapsed": 193949, "serialpos": 3, "key_press": -1, "wordID": 352, "type": "PRES_VIS", "trial_index": 24}, "uniqueid": "MTK2577:3GS6S824SR409QE43BUNE2PMHFWWN1", "dateTime": 1519074559837}, {"current_trial": 25, "trialdata": {"rt": -1, "trial_type": "single-stim", "word": "marine", "stimulus": "<p id=\"stim\">MARINE</p>", "conditions": [18, 1200, "v", 18000], "internal_node_id": "0.0-16.0", "trial": 0, "time_elapsed": 195984, "serialpos": 4, "key_press": -1, "wordID": 868, "type": "PRES_VIS", "trial_index": 25}, "uniqueid": "MTK2577:3GS6S824SR409QE43BUNE2PMHFWWN1", "dateTime": 1519074561872}, {"current_trial": 26, "trialdata": {"rt": -1, "trial_type": "single-stim", "word": "bathtub", "stimulus": "<p id=\"stim\">BATHTUB</p>", "conditions": [18, 1200, "v", 18000], "internal_node_id": "0.0-17.0", "trial": 0, "time_elapsed": 198243, "serialpos": 5, "key_press": -1, "wordID": 99, "type": "PRES_VIS", "trial_index": 26}, "uniqueid": "MTK2577:3GS6S824SR409QE43BUNE2PMHFWWN1", "dateTime": 1519074564131}, {"current_trial": 27, "trialdata": {"rt": -1, "trial_type": "single-stim", "word": "crater", "stimulus": "<p id=\"stim\">CRATER</p>", "conditions": [18, 1200, "v", 18000], "internal_node_id": "0.0-18.0", "trial": 0, "time_elapsed": 200424, "serialpos": 6, "key_press": -1, "wordID": 399, "type": "PRES_VIS", "trial_index": 27}, "uniqueid": "MTK2577:3GS6S824SR409QE43BUNE2PMHFWWN1", "dateTime": 1519074566312}, {"current_trial": 28, "trialdata": {"rt": -1, "trial_type": "single-stim", "word": "slug", "stimulus": "<p id=\"stim\">SLUG</p>", "conditions": [18, 1200, "v", 18000], "internal_node_id": "0.0-19.0", "trial": 0, "time_elapsed": 202725, "serialpos": 7, "key_press": -1, "wordID": 1328, "type": "PRES_VIS", "trial_index": 28}, "uniqueid": "MTK2577:3GS6S824SR409QE43BUNE2PMHFWWN1", "dateTime": 1519074568614}, {"current_trial": 29, "trialdata": {"rt": -1, "trial_type": "single-stim", "word": "patrol", "stimulus": "<p id=\"stim\">PATROL</p>", "conditions": [18, 1200, "v", 18000], "internal_node_id": "0.0-20.0", "trial": 0, "time_elapsed": 204746, "serialpos": 8, "key_press": -1, "wordID": 1026, "type": "PRES_VIS", "trial_index": 29}, "uniqueid": "MTK2577:3GS6S824SR409QE43BUNE2PMHFWWN1", "dateTime": 1519074570634}, {"current_trial": 30, "trialdata": {"rt": -1, "trial_type": "single-stim", "word": "atlas", "stimulus": "<p id=\"stim\">ATLAS</p>", "conditions": [18, 1200, "v", 18000], "internal_node_id": "0.0-21.0", "trial": 0, "time_elapsed": 206776, "serialpos": 9, "key_press": -1, "wordID": 52, "type": "PRES_VIS", "trial_index": 30}, "uniqueid": "MTK2577:3GS6S824SR409QE43BUNE2PMHFWWN1", "dateTime": 1519074572664}, {"current_trial": 31, "trialdata": {"rt": -1, "trial_type": "single-stim", "word": "wasp", "stimulus": "<p id=\"stim\">WASP</p>", "conditions": [18, 1200, "v", 18000], "internal_node_id": "0.0-22.0", "trial": 0, "time_elapsed": 208817, "serialpos": 10, "key_press": -1, "wordID": 1592, "type": "PRES_VIS", "trial_index": 31}, "uniqueid": "MTK2577:3GS6S824SR409QE43BUNE2PMHFWWN1", "dateTime": 1519074574705}, {"current_trial": 32, "trialdata": {"rt": -1, "trial_type": "single-stim", "word": "oyster", "stimulus": "<p id=\"stim\">OYSTER</p>", "conditions": [18, 1200, "v", 18000], "internal_node_id": "0.0-23.0", "trial": 0, "time_elapsed": 210872, "serialpos": 11, "key_press": -1, "wordID": 994, "type": "PRES_VIS", "trial_index": 32}, "uniqueid": "MTK2577:3GS6S824SR409QE43BUNE2PMHFWWN1", "dateTime": 1519074576760}, {"current_trial": 33, "trialdata": {"rt": -1, "trial_type": "single-stim", "word": "cottage", "stimulus": "<p id=\"stim\">COTTAGE</p>", "conditions": [18, 1200, "v", 18000], "internal_node_id": "0.0-24.0", "trial": 0, "time_elapsed": 212920, "serialpos": 12, "key_press": -1, "wordID": 383, "type": "PRES_VIS", "trial_index": 33}, "uniqueid": "MTK2577:3GS6S824SR409QE43BUNE2PMHFWWN1", "dateTime": 1519074578808}, {"current_trial": 34, "trialdata": {"rt": -1, "trial_type": "single-stim", "word": "orchid", "stimulus": "<p id=\"stim\">ORCHID</p>", "conditions": [18, 1200, "v", 18000], "internal_node_id": "0.0-25.0", "trial": 0, "time_elapsed": 215152, "serialpos": 13, "key_press": -1, "wordID": 981, "type": "PRES_VIS", "trial_index": 34}, "uniqueid": "MTK2577:3GS6S824SR409QE43BUNE2PMHFWWN1", "dateTime": 1519074581040}, {"current_trial": 35, "trialdata": {"rt": -1, "trial_type": "single-stim", "word": "pizza", "stimulus": "<p id=\"stim\">PIZZA</p>", "conditions": [18, 1200, "v", 18000], "internal_node_id": "0.0-26.0", "trial": 0, "time_elapsed": 217327, "serialpos": 14, "key_press": -1, "wordID": 1078, "type": "PRES_VIS", "trial_index": 35}, "uniqueid": "MTK2577:3GS6S824SR409QE43BUNE2PMHFWWN1", "dateTime": 1519074583216}, {"current_trial": 36, "trialdata": {"rt": -1, "trial_type": "single-stim", "word": "cross", "stimulus": "<p id=\"stim\">CROSS</p>", "conditions": [18, 1200, "v", 18000], "internal_node_id": "0.0-27.0", "trial": 0, "time_elapsed": 219524, "serialpos": 15, "key_press": -1, "wordID": 412, "type": "PRES_VIS", "trial_index": 36}, "uniqueid": "MTK2577:3GS6S824SR409QE43BUNE2PMHFWWN1", "dateTime": 1519074585412}, {"current_trial": 37, "trialdata": {"rt": -1, "trial_type": "single-stim", "word": "perfume", "stimulus": "<p id=\"stim\">PERFUME</p>", "conditions": [18, 1200, "v", 18000], "internal_node_id": "0.0-28.0", "trial": 0, "time_elapsed": 221893, "serialpos": 16, "key_press": -1, "wordID": 1048, "type": "PRES_VIS", "trial_index": 37}, "uniqueid": "MTK2577:3GS6S824SR409QE43BUNE2PMHFWWN1", "dateTime": 1519074587781}, {"current_trial": 38, "trialdata": {"rt": -1, "trial_type": "single-stim", "word": "blouse", "stimulus": "<p id=\"stim\">BLOUSE</p>", "conditions": [18, 1200, "v", 18000], "internal_node_id": "0.0-29.0", "trial": 0, "time_elapsed": 224054, "serialpos": 17, "key_press": -1, "wordID": 138, "type": "PRES_VIS", "trial_index": 38}, "uniqueid": "MTK2577:3GS6S824SR409QE43BUNE2PMHFWWN1", "dateTime": 1519074589942}, {"current_trial": 39, "trialdata": {"rt": -1, "trial_type": "single-stim", "stimulus": "", "internal_node_id": "0.0-30.0-0.0", "time_elapsed": 226206, "key_press": -1, "type": "PRE_RECALL_DELAY", "trial_index": 39}, "uniqueid": "MTK2577:3GS6S824SR409QE43BUNE2PMHFWWN1", "dateTime": 1519074592094}, {"current_trial": 40, "trialdata": {"rt": -1000, "trial_type": "single-audio", "stimulus": "/static/audio/400Hz.wav", "internal_node_id": "0.0-31.0", "time_elapsed": 226756, "key_press": -1, "type": "PRE_RECALL_ALERT", "trial_index": 40}, "uniqueid": "MTK2577:3GS6S824SR409QE43BUNE2PMHFWWN1", "dateTime": 1519074592645}, {"current_trial": 41, "trialdata": {"rt": [2798, 4174, 5677, 6701, 8357, 10525], "recwords": ["blouse", "comet", "pizza", "rust", "bathtub", "oyster"], "key_times": [1957, 2039, 2197, 2269, 2357, 2421, 2798, 3309, 3453, 3493, 3631, 3725, 4174, 4821, 4901, 4992, 5157, 5325, 5677, 6029, 6190, 6245, 6301, 6701, 7549, 7661, 7749, 7853, 7989, 8125, 8238, 8357, 9869, 9949, 10007, 10101, 10229, 10293, 10525], "trial_type": "free-recall", "conditions": [18, 1200, "v", 18000], "internal_node_id": "0.0-32.0-0.0", "key_presses": [66, 76, 79, 85, 83, 69, 13, 67, 79, 77, 69, 84, 13, 80, 73, 90, 90, 65, 13, 82, 85, 83, 84, 13, 66, 65, 84, 72, 84, 85, 66, 13, 79, 89, 83, 84, 69, 82, 13], "trial": 0, "time_elapsed": 286771, "type": "FREE_RECALL", "trial_index": 41}, "uniqueid": "MTK2577:3GS6S824SR409QE43BUNE2PMHFWWN1", "dateTime": 1519074652662}, {"current_trial": 42, "trialdata": {"rt": 1307, "trial_type": "text", "internal_node_id": "0.0-33.0", "time_elapsed": 290085, "key_press": 32, "type": "INSTRUCTIONS", "trial_index": 42}, "uniqueid": "MTK2577:3GS6S824SR409QE43BUNE2PMHFWWN1", "dateTime": 1519074655973}, {"current_trial": 43, "trialdata": {"rt": [2003, 5660, 8796, 10291, 12539, 14963], "trial_type": "math-distractor", "key_times": [1604, 1691, 2003, 4868, 5020, 5660, 8388, 8579, 8796, 10091, 10291, 12180, 12363, 12539, 14563, 14715, 14963, 17628], "responses": ["19", "22", "14", "4", "14", "15"], "num2": [2, 8, 4, 1, 4, 7, 5], "num3": [9, 9, 8, 1, 8, 7, 9], "conditions": [18, 1200, "v", 18000], "internal_node_id": "0.0-34.0", "key_presses": [97, 105, 13, 98, 98, 13, 97, 100, 13, 100, 13, 97, 100, 13, 97, 101, 13, 97], "trial": 1, "time_elapsed": 310092, "type": "DISTRACTOR", "trial_index": 43, "num1": [8, 5, 2, 2, 2, 1, 4]}, "uniqueid": "MTK2577:3GS6S824SR409QE43BUNE2PMHFWWN1", "dateTime": 1519074675980}, {"current_trial": 44, "trialdata": {"rt": -1, "trial_type": "single-stim", "stimulus": "<p id=\"stim\">10</p>", "internal_node_id": "0.0-35.0-0.0", "time_elapsed": 313111, "key_press": -1, "trial_index": 44}, "uniqueid": "MTK2577:3GS6S824SR409QE43BUNE2PMHFWWN1", "dateTime": 1519074678999}, {"current_trial": 45, "trialdata": {"rt": -1, "trial_type": "single-stim", "stimulus": "<p id=\"stim\">9</p>", "internal_node_id": "0.0-35.0-1.0", "time_elapsed": 314111, "key_press": -1, "trial_index": 45}, "uniqueid": "MTK2577:3GS6S824SR409QE43BUNE2PMHFWWN1", "dateTime": 1519074679999}, {"current_trial": 46, "trialdata": {"rt": -1, "trial_type": "single-stim", "stimulus": "<p id=\"stim\">8</p>", "internal_node_id": "0.0-35.0-2.0", "time_elapsed": 315126, "key_press": -1, "trial_index": 46}, "uniqueid": "MTK2577:3GS6S824SR409QE43BUNE2PMHFWWN1", "dateTime": 1519074681014}, {"current_trial": 47, "trialdata": {"rt": -1, "trial_type": "single-stim", "stimulus": "<p id=\"stim\">7</p>", "internal_node_id": "0.0-35.0-3.0", "time_elapsed": 316126, "key_press": -1, "trial_index": 47}, "uniqueid": "MTK2577:3GS6S824SR409QE43BUNE2PMHFWWN1", "dateTime": 1519074682014}, {"current_trial": 48, "trialdata": {"rt": -1, "trial_type": "single-stim", "stimulus": "<p id=\"stim\">6</p>", "internal_node_id": "0.0-35.0-4.0", "time_elapsed": 317110, "key_press": -1, "trial_index": 48}, "uniqueid": "MTK2577:3GS6S824SR409QE43BUNE2PMHFWWN1", "dateTime": 1519074682998}, {"current_trial": 49, "trialdata": {"rt": -1, "trial_type": "single-stim", "stimulus": "<p id=\"stim\">5</p>", "internal_node_id": "0.0-35.0-5.0", "time_elapsed": 318112, "key_press": -1, "trial_index": 49}, "uniqueid": "MTK2577:3GS6S824SR409QE43BUNE2PMHFWWN1", "dateTime": 1519074684000}, {"current_trial": 50, "trialdata": {"rt": -1, "trial_type": "single-stim", "stimulus": "<p id=\"stim\">4</p>", "internal_node_id": "0.0-35.0-6.0", "time_elapsed": 319118, "key_press": -1, "trial_index": 50}, "uniqueid": "MTK2577:3GS6S824SR409QE43BUNE2PMHFWWN1", "dateTime": 1519074685006}, {"current_trial": 51, "trialdata": {"rt": -1, "trial_type": "single-stim", "stimulus": "<p id=\"stim\">3</p>", "internal_node_id": "0.0-35.0-7.0", "time_elapsed": 320105, "key_press": -1, "trial_index": 51}, "uniqueid": "MTK2577:3GS6S824SR409QE43BUNE2PMHFWWN1", "dateTime": 1519074685993}, {"current_trial": 52, "trialdata": {"rt": -1, "trial_type": "single-stim", "stimulus": "<p id=\"stim\">2</p>", "internal_node_id": "0.0-35.0-8.0", "time_elapsed": 321110, "key_press": -1, "trial_index": 52}, "uniqueid": "MTK2577:3GS6S824SR409QE43BUNE2PMHFWWN1", "dateTime": 1519074686998}, {"current_trial": 53, "trialdata": {"rt": -1, "trial_type": "single-stim", "stimulus": "<p id=\"stim\">1</p>", "internal_node_id": "0.0-35.0-9.0", "time_elapsed": 322111, "key_press": -1, "trial_index": 53}, "uniqueid": "MTK2577:3GS6S824SR409QE43BUNE2PMHFWWN1", "dateTime": 1519074687999}, {"current_trial": 54, "trialdata": {"rt": -1, "trial_type": "single-stim", "stimulus": "<p id=\"stim\">+</p>", "internal_node_id": "0.0-36.0-0.0", "time_elapsed": 323613, "key_press": -1, "type": "FIXATION", "trial_index": 54}, "uniqueid": "MTK2577:3GS6S824SR409QE43BUNE2PMHFWWN1", "dateTime": 1519074689501}, {"current_trial": 55, "trialdata": {"rt": -1, "trial_type": "single-stim", "word": "swimmer", "stimulus": "<p id=\"stim\">SWIMMER</p>", "conditions": [18, 1200, "v", 18000], "internal_node_id": "0.0-37.0", "trial": 1, "time_elapsed": 324814, "serialpos": 0, "key_press": -1, "wordID": 1419, "type": "PRES_VIS", "trial_index": 55}, "uniqueid": "MTK2577:3GS6S824SR409QE43BUNE2PMHFWWN1", "dateTime": 1519074690702}, {"current_trial": 56, "trialdata": {"rt": -1, "trial_type": "single-stim", "word": "crutch", "stimulus": "<p id=\"stim\">CRUTCH</p>", "conditions": [18, 1200, "v", 18000], "internal_node_id": "0.0-38.0", "trial": 1, "time_elapsed": 327046, "serialpos": 1, "key_press": -1, "wordID": 416, "type": "PRES_VIS", "trial_index": 56}, "uniqueid": "MTK2577:3GS6S824SR409QE43BUNE2PMHFWWN1", "dateTime": 1519074692935}, {"current_trial": 57, "trialdata": {"rt": -1, "trial_type": "single-stim", "word": "iceberg", "stimulus": "<p id=\"stim\">ICEBERG</p>", "conditions": [18, 1200, "v", 18000], "internal_node_id": "0.0-39.0", "trial": 1, "time_elapsed": 329393, "serialpos": 2, "key_press": -1, "wordID": 730, "type": "PRES_VIS", "trial_index": 57}, "uniqueid": "MTK2577:3GS6S824SR409QE43BUNE2PMHFWWN1", "dateTime": 1519074695281}, {"current_trial": 58, "trialdata": {"rt": -1, "trial_type": "single-stim", "word": "pimple", "stimulus": "<p id=\"stim\">PIMPLE</p>", "conditions": [18, 1200, "v", 18000], "internal_node_id": "0.0-40.0", "trial": 1, "time_elapsed": 331645, "serialpos": 3, "key_press": -1, "wordID": 1070, "type": "PRES_VIS", "trial_index": 58}, "uniqueid": "MTK2577:3GS6S824SR409QE43BUNE2PMHFWWN1", "dateTime": 1519074697533}, {"current_trial": 59, "trialdata": {"rt": -1, "trial_type": "single-stim", "word": "dust", "stimulus": "<p id=\"stim\">DUST</p>", "conditions": [18, 1200, "v", 18000], "internal_node_id": "0.0-41.0", "trial": 1, "time_elapsed": 333879, "serialpos": 4, "key_press": -1, "wordID": 507, "type": "PRES_VIS", "trial_index": 59}, "uniqueid": "MTK2577:3GS6S824SR409QE43BUNE2PMHFWWN1", "dateTime": 1519074699768}, {"current_trial": 60, "trialdata": {"rt": -1, "trial_type": "single-stim", "word": "primate", "stimulus": "<p id=\"stim\">PRIMATE</p>", "conditions": [18, 1200, "v", 18000], "internal_node_id": "0.0-42.0", "trial": 1, "time_elapsed": 336149, "serialpos": 5, "key_press": -1, "wordID": 1122, "type": "PRES_VIS", "trial_index": 60}, "uniqueid": "MTK2577:3GS6S824SR409QE43BUNE2PMHFWWN1", "dateTime": 1519074702037}, {"current_trial": 61, "trialdata": {"rt": -1, "trial_type": "single-stim", "word": "camel", "stimulus": "<p id=\"stim\">CAMEL</p>", "conditions": [18, 1200, "v", 18000], "internal_node_id": "0.0-43.0", "trial": 1, "time_elapsed": 338264, "serialpos": 6, "key_press": -1, "wordID": 222, "type": "PRES_VIS", "trial_index": 61}, "uniqueid": "MTK2577:3GS6S824SR409QE43BUNE2PMHFWWN1", "dateTime": 1519074704152}, {"current_trial": 62, "trialdata": {"rt": -1, "trial_type": "single-stim", "word": "sunrise", "stimulus": "<p id=\"stim\">SUNRISE</p>", "conditions": [18, 1200, "v", 18000], "internal_node_id": "0.0-44.0", "trial": 1, "time_elapsed": 340329, "serialpos": 7, "key_press": -1, "wordID": 1406, "type": "PRES_VIS", "trial_index": 62}, "uniqueid": "MTK2577:3GS6S824SR409QE43BUNE2PMHFWWN1", "dateTime": 1519074706218}, {"current_trial": 63, "trialdata": {"rt": -1, "trial_type": "single-stim", "word": "blackboard", "stimulus": "<p id=\"stim\">BLACKBOARD</p>", "conditions": [18, 1200, "v", 18000], "internal_node_id": "0.0-45.0", "trial": 1, "time_elapsed": 342497, "serialpos": 8, "key_press": -1, "wordID": 132, "type": "PRES_VIS", "trial_index": 63}, "uniqueid": "MTK2577:3GS6S824SR409QE43BUNE2PMHFWWN1", "dateTime": 1519074708386}, {"current_trial": 64, "trialdata": {"rt": -1, "trial_type": "single-stim", "word": "valley", "stimulus": "<p id=\"stim\">VALLEY</p>", "conditions": [18, 1200, "v", 18000], "internal_node_id": "0.0-46.0", "trial": 1, "time_elapsed": 344830, "serialpos": 9, "key_press": -1, "wordID": 1544, "type": "PRES_VIS", "trial_index": 64}, "uniqueid": "MTK2577:3GS6S824SR409QE43BUNE2PMHFWWN1", "dateTime": 1519074710718}, {"current_trial": 65, "trialdata": {"rt": -1, "trial_type": "single-stim", "word": "female", "stimulus": "<p id=\"stim\">FEMALE</p>", "conditions": [18, 1200, "v", 18000], "internal_node_id": "0.0-47.0", "trial": 1, "time_elapsed": 346948, "serialpos": 10, "key_press": -1, "wordID": 558, "type": "PRES_VIS", "trial_index": 65}, "uniqueid": "MTK2577:3GS6S824SR409QE43BUNE2PMHFWWN1", "dateTime": 1519074712836}, {"current_trial": 66, "trialdata": {"rt": -1, "trial_type": "single-stim", "word": "dress", "stimulus": "<p id=\"stim\">DRESS</p>", "conditions": [18, 1200, "v", 18000], "internal_node_id": "0.0-48.0", "trial": 1, "time_elapsed": 349330, "serialpos": 11, "key_press": -1, "wordID": 494, "type": "PRES_VIS", "trial_index": 66}, "uniqueid": "MTK2577:3GS6S824SR409QE43BUNE2PMHFWWN1", "dateTime": 1519074715218}, {"current_trial": 67, "trialdata": {"rt": -1, "trial_type": "single-stim", "word": "knife", "stimulus": "<p id=\"stim\">KNIFE</p>", "conditions": [18, 1200, "v", 18000], "internal_node_id": "0.0-49.0", "trial": 1, "time_elapsed": 351660, "serialpos": 12, "key_press": -1, "wordID": 784, "type": "PRES_VIS", "trial_index": 67}, "uniqueid": "MTK2577:3GS6S824SR409QE43BUNE2PMHFWWN1", "dateTime": 1519074717549}, {"current_trial": 68, "trialdata": {"rt": -1, "trial_type": "single-stim", "word": "summit", "stimulus": "<p id=\"stim\">SUMMIT</p>", "conditions": [18, 1200, "v", 18000], "internal_node_id": "0.0-50.0", "trial": 1, "time_elapsed": 353760, "serialpos": 13, "key_press": -1, "wordID": 1404, "type": "PRES_VIS", "trial_index": 68}, "uniqueid": "MTK2577:3GS6S824SR409QE43BUNE2PMHFWWN1", "dateTime": 1519074719649}, {"current_trial": 69, "trialdata": {"rt": -1, "trial_type": "single-stim", "word": "fox", "stimulus": "<p id=\"stim\">FOX</p>", "conditions": [18, 1200, "v", 18000], "internal_node_id": "0.0-51.0", "trial": 1, "time_elapsed": 355983, "serialpos": 14, "key_press": -1, "wordID": 597, "type": "PRES_VIS", "trial_index": 69}, "uniqueid": "MTK2577:3GS6S824SR409QE43BUNE2PMHFWWN1", "dateTime": 1519074721871}, {"current_trial": 70, "trialdata": {"rt": -1, "trial_type": "single-stim", "word": "tombstone", "stimulus": "<p id=\"stim\">TOMBSTONE</p>", "conditions": [18, 1200, "v", 18000], "internal_node_id": "0.0-52.0", "trial": 1, "time_elapsed": 358233, "serialpos": 15, "key_press": -1, "wordID": 1477, "type": "PRES_VIS", "trial_index": 70}, "uniqueid": "MTK2577:3GS6S824SR409QE43BUNE2PMHFWWN1", "dateTime": 1519074724121}, {"current_trial": 71, "trialdata": {"rt": -1, "trial_type": "single-stim", "word": "spoon", "stimulus": "<p id=\"stim\">SPOON</p>", "conditions": [18, 1200, "v", 18000], "internal_node_id": "0.0-53.0", "trial": 1, "time_elapsed": 360348, "serialpos": 16, "key_press": -1, "wordID": 1356, "type": "PRES_VIS", "trial_index": 71}, "uniqueid": "MTK2577:3GS6S824SR409QE43BUNE2PMHFWWN1", "dateTime": 1519074726236}, {"current_trial": 72, "trialdata": {"rt": -1, "trial_type": "single-stim", "word": "lightning", "stimulus": "<p id=\"stim\">LIGHTNING</p>", "conditions": [18, 1200, "v", 18000], "internal_node_id": "0.0-54.0", "trial": 1, "time_elapsed": 362381, "serialpos": 17, "key_press": -1, "wordID": 819, "type": "PRES_VIS", "trial_index": 72}, "uniqueid": "MTK2577:3GS6S824SR409QE43BUNE2PMHFWWN1", "dateTime": 1519074728269}, {"current_trial": 73, "trialdata": {"rt": -1, "trial_type": "single-stim", "stimulus": "", "internal_node_id": "0.0-55.0-0.0", "time_elapsed": 364658, "key_press": -1, "type": "PRE_RECALL_DELAY", "trial_index": 73}, "uniqueid": "MTK2577:3GS6S824SR409QE43BUNE2PMHFWWN1", "dateTime": 1519074730546}, {"current_trial": 74, "trialdata": {"rt": -1000, "trial_type": "single-audio", "stimulus": "/static/audio/400Hz.wav", "internal_node_id": "0.0-56.0", "time_elapsed": 365173, "key_press": -1, "type": "PRE_RECALL_ALERT", "trial_index": 74}, "uniqueid": "MTK2577:3GS6S824SR409QE43BUNE2PMHFWWN1", "dateTime": 1519074731061}, {"current_trial": 75, "trialdata": {"rt": [3885, 5326, 6973, 8765, 9821, 11677, 23741, 30149], "recwords": ["spoon", "lightning", "female", "dress", "fox", "tombstone", "swimmer", "dust"], "key_times": [1581, 1725, 1917, 2133, 2239, 2493, 2645, 2797, 3189, 3341, 3381, 3885, 4253, 4309, 4453, 4573, 4685, 4757, 4877, 4957, 5013, 5326, 5805, 5943, 6031, 6136, 6213, 6333, 6973, 7373, 7605, 7661, 7902, 8221, 8765, 9262, 9421, 9541, 9821, 10101, 10237, 10317, 10957, 11133, 11197, 11317, 11373, 11445, 11677, 22957, 23165, 23271, 23325, 23469, 23541, 23589, 23741, 28958, 29197, 29349, 29493, 30149], "trial_type": "free-recall", "conditions": [18, 1200, "v", 18000], "internal_node_id": "0.0-57.0-0.0", "key_presses": [83, 80, 80, 79, 78, 8, 8, 8, 79, 79, 78, 13, 76, 73, 71, 72, 84, 78, 73, 78, 71, 13, 70, 69, 77, 65, 76, 69, 13, 68, 82, 69, 83, 83, 13, 70, 79, 88, 13, 84, 79, 77, 66, 83, 84, 79, 78, 69, 13, 83, 87, 73, 77, 77, 69, 82, 13, 68, 85, 83, 84, 13], "trial": 1, "time_elapsed": 425179, "type": "FREE_RECALL", "trial_index": 75}, "uniqueid": "MTK2577:3GS6S824SR409QE43BUNE2PMHFWWN1", "dateTime": 1519074791069}, {"current_trial": 76, "trialdata": {"rt": 3032, "trial_type": "text", "internal_node_id": "0.0-58.0", "time_elapsed": 430229, "key_press": 32, "type": "INSTRUCTIONS", "trial_index": 76}, "uniqueid": "MTK2577:3GS6S824SR409QE43BUNE2PMHFWWN1", "dateTime": 1519074796117}, {"current_trial": 77, "trialdata": {"rt": [2201, 4609, 6273, 8762, 10257, 11657, 14449, 17289, 21841], "trial_type": "math-distractor", "key_times": [1593, 1809, 2201, 4193, 4361, 4609, 5897, 6074, 6273, 7817, 7977, 8762, 9841, 10025, 10257, 11234, 11393, 11657, 13978, 14169, 14449, 16794, 16994, 17289, 19962, 20129, 20890, 21273, 21841, 24009], "responses": ["17", "16", "14", "15", "14", "16", "17", "19", "15"], "num2": [8, 5, 4, 6, 6, 6, 6, 6, 4, 5], "num3": [7, 4, 3, 6, 4, 2, 4, 5, 8, 3], "conditions": [12, 1600, "v", 24000], "internal_node_id": "0.0-59.0", "key_presses": [97, 103, 13, 97, 102, 13, 97, 100, 13, 97, 101, 13, 97, 100, 13, 97, 102, 13, 97, 103, 13, 97, 105, 13, 97, 98, 8, 101, 13, 97], "trial": 2, "time_elapsed": 455248, "type": "DISTRACTOR", "trial_index": 77, "num1": [2, 7, 7, 3, 4, 8, 7, 8, 3, 8]}, "uniqueid": "MTK2577:3GS6S824SR409QE43BUNE2PMHFWWN1", "dateTime": 1519074821136}, {"current_trial": 78, "trialdata": {"rt": -1, "trial_type": "single-stim", "stimulus": "<p id=\"stim\">10</p>", "internal_node_id": "0.0-60.0-0.0", "time_elapsed": 458258, "key_press": -1, "trial_index": 78}, "uniqueid": "MTK2577:3GS6S824SR409QE43BUNE2PMHFWWN1", "dateTime": 1519074824146}, {"current_trial": 79, "trialdata": {"rt": -1, "trial_type": "single-stim", "stimulus": "<p id=\"stim\">9</p>", "internal_node_id": "0.0-60.0-1.0", "time_elapsed": 459259, "key_press": -1, "trial_index": 79}, "uniqueid": "MTK2577:3GS6S824SR409QE43BUNE2PMHFWWN1", "dateTime": 1519074825148}, {"current_trial": 80, "trialdata": {"rt": -1, "trial_type": "single-stim", "stimulus": "<p id=\"stim\">8</p>", "internal_node_id": "0.0-60.0-2.0", "time_elapsed": 460265, "key_press": -1, "trial_index": 80}, "uniqueid": "MTK2577:3GS6S824SR409QE43BUNE2PMHFWWN1", "dateTime": 1519074826153}, {"current_trial": 81, "trialdata": {"rt": -1, "trial_type": "single-stim", "stimulus": "<p id=\"stim\">7</p>", "internal_node_id": "0.0-60.0-3.0", "time_elapsed": 461267, "key_press": -1, "trial_index": 81}, "uniqueid": "MTK2577:3GS6S824SR409QE43BUNE2PMHFWWN1", "dateTime": 1519074827155}, {"current_trial": 82, "trialdata": {"rt": -1, "trial_type": "single-stim", "stimulus": "<p id=\"stim\">6</p>", "internal_node_id": "0.0-60.0-4.0", "time_elapsed": 462265, "key_press": -1, "trial_index": 82}, "uniqueid": "MTK2577:3GS6S824SR409QE43BUNE2PMHFWWN1", "dateTime": 1519074828153}, {"current_trial": 83, "trialdata": {"rt": -1, "trial_type": "single-stim", "stimulus": "<p id=\"stim\">5</p>", "internal_node_id": "0.0-60.0-5.0", "time_elapsed": 463281, "key_press": -1, "trial_index": 83}, "uniqueid": "MTK2577:3GS6S824SR409QE43BUNE2PMHFWWN1", "dateTime": 1519074829169}, {"current_trial": 84, "trialdata": {"rt": -1, "trial_type": "single-stim", "stimulus": "<p id=\"stim\">4</p>", "internal_node_id": "0.0-60.0-6.0", "time_elapsed": 464263, "key_press": -1, "trial_index": 84}, "uniqueid": "MTK2577:3GS6S824SR409QE43BUNE2PMHFWWN1", "dateTime": 1519074830151}, {"current_trial": 85, "trialdata": {"rt": -1, "trial_type": "single-stim", "stimulus": "<p id=\"stim\">3</p>", "internal_node_id": "0.0-60.0-7.0", "time_elapsed": 465264, "key_press": -1, "trial_index": 85}, "uniqueid": "MTK2577:3GS6S824SR409QE43BUNE2PMHFWWN1", "dateTime": 1519074831152}, {"current_trial": 86, "trialdata": {"rt": -1, "trial_type": "single-stim", "stimulus": "<p id=\"stim\">2</p>", "internal_node_id": "0.0-60.0-8.0", "time_elapsed": 466256, "key_press": -1, "trial_index": 86}, "uniqueid": "MTK2577:3GS6S824SR409QE43BUNE2PMHFWWN1", "dateTime": 1519074832144}, {"current_trial": 87, "trialdata": {"rt": -1, "trial_type": "single-stim", "stimulus": "<p id=\"stim\">1</p>", "internal_node_id": "0.0-60.0-9.0", "time_elapsed": 467256, "key_press": -1, "trial_index": 87}, "uniqueid": "MTK2577:3GS6S824SR409QE43BUNE2PMHFWWN1", "dateTime": 1519074833144}, {"current_trial": 88, "trialdata": {"rt": -1, "trial_type": "single-stim", "stimulus": "<p id=\"stim\">+</p>", "internal_node_id": "0.0-61.0-0.0", "time_elapsed": 468761, "key_press": -1, "type": "FIXATION", "trial_index": 88}, "uniqueid": "MTK2577:3GS6S824SR409QE43BUNE2PMHFWWN1", "dateTime": 1519074834649}, {"current_trial": 89, "trialdata": {"rt": -1, "trial_type": "single-stim", "word": "soda", "stimulus": "<p id=\"stim\">SODA</p>", "conditions": [12, 1600, "v", 24000], "internal_node_id": "0.0-62.0", "trial": 2, "time_elapsed": 470376, "serialpos": 0, "key_press": -1, "wordID": 1340, "type": "PRES_VIS", "trial_index": 89}, "uniqueid": "MTK2577:3GS6S824SR409QE43BUNE2PMHFWWN1", "dateTime": 1519074836264}, {"current_trial": 90, "trialdata": {"rt": -1, "trial_type": "single-stim", "word": "slide", "stimulus": "<p id=\"stim\">SLIDE</p>", "conditions": [12, 1600, "v", 24000], "internal_node_id": "0.0-63.0", "trial": 2, "time_elapsed": 472831, "serialpos": 1, "key_press": -1, "wordID": 1325, "type": "PRES_VIS", "trial_index": 90}, "uniqueid": "MTK2577:3GS6S824SR409QE43BUNE2PMHFWWN1", "dateTime": 1519074838719}, {"current_trial": 91, "trialdata": {"rt": -1, "trial_type": "single-stim", "word": "arm", "stimulus": "<p id=\"stim\">ARM</p>", "conditions": [12, 1600, "v", 24000], "internal_node_id": "0.0-64.0", "trial": 2, "time_elapsed": 475526, "serialpos": 2, "key_press": -1, "wordID": 37, "type": "PRES_VIS", "trial_index": 91}, "uniqueid": "MTK2577:3GS6S824SR409QE43BUNE2PMHFWWN1", "dateTime": 1519074841414}, {"current_trial": 92, "trialdata": {"rt": -1, "trial_type": "single-stim", "word": "cabbage", "stimulus": "<p id=\"stim\">CABBAGE</p>", "conditions": [12, 1600, "v", 24000], "internal_node_id": "0.0-65.0", "trial": 2, "time_elapsed": 478014, "serialpos": 3, "key_press": -1, "wordID": 209, "type": "PRES_VIS", "trial_index": 92}, "uniqueid": "MTK2577:3GS6S824SR409QE43BUNE2PMHFWWN1", "dateTime": 1519074843902}, {"current_trial": 93, "trialdata": {"rt": -1, "trial_type": "single-stim", "word": "turnip", "stimulus": "<p id=\"stim\">TURNIP</p>", "conditions": [12, 1600, "v", 24000], "internal_node_id": "0.0-66.0", "trial": 2, "time_elapsed": 480765, "serialpos": 4, "key_press": -1, "wordID": 1520, "type": "PRES_VIS", "trial_index": 93}, "uniqueid": "MTK2577:3GS6S824SR409QE43BUNE2PMHFWWN1", "dateTime": 1519074846653}, {"current_trial": 94, "trialdata": {"rt": -1, "trial_type": "single-stim", "word": "snack", "stimulus": "<p id=\"stim\">SNACK</p>", "conditions": [12, 1600, "v", 24000], "internal_node_id": "0.0-67.0", "trial": 2, "time_elapsed": 483415, "serialpos": 5, "key_press": -1, "wordID": 1330, "type": "PRES_VIS", "trial_index": 94}, "uniqueid": "MTK2577:3GS6S824SR409QE43BUNE2PMHFWWN1", "dateTime": 1519074849303}, {"current_trial": 95, "trialdata": {"rt": -1, "trial_type": "single-stim", "word": "bacon", "stimulus": "<p id=\"stim\">BACON</p>", "conditions": [12, 1600, "v", 24000], "internal_node_id": "0.0-68.0", "trial": 2, "time_elapsed": 485916, "serialpos": 6, "key_press": -1, "wordID": 66, "type": "PRES_VIS", "trial_index": 95}, "uniqueid": "MTK2577:3GS6S824SR409QE43BUNE2PMHFWWN1", "dateTime": 1519074851804}, {"current_trial": 96, "trialdata": {"rt": -1, "trial_type": "single-stim", "word": "couch", "stimulus": "<p id=\"stim\">COUCH</p>", "conditions": [12, 1600, "v", 24000], "internal_node_id": "0.0-69.0", "trial": 2, "time_elapsed": 488582, "serialpos": 7, "key_press": -1, "wordID": 385, "type": "PRES_VIS", "trial_index": 96}, "uniqueid": "MTK2577:3GS6S824SR409QE43BUNE2PMHFWWN1", "dateTime": 1519074854471}, {"current_trial": 97, "trialdata": {"rt": -1, "trial_type": "single-stim", "word": "monster", "stimulus": "<p id=\"stim\">MONSTER</p>", "conditions": [12, 1600, "v", 24000], "internal_node_id": "0.0-70.0", "trial": 2, "time_elapsed": 491365, "serialpos": 8, "key_press": -1, "wordID": 911, "type": "PRES_VIS", "trial_index": 97}, "uniqueid": "MTK2577:3GS6S824SR409QE43BUNE2PMHFWWN1", "dateTime": 1519074857254}, {"current_trial": 98, "trialdata": {"rt": -1, "trial_type": "single-stim", "word": "panther", "stimulus": "<p id=\"stim\">PANTHER</p>", "conditions": [12, 1600, "v", 24000], "internal_node_id": "0.0-71.0", "trial": 2, "time_elapsed": 493788, "serialpos": 9, "key_press": -1, "wordID": 1008, "type": "PRES_VIS", "trial_index": 98}, "uniqueid": "MTK2577:3GS6S824SR409QE43BUNE2PMHFWWN1", "dateTime": 1519074859676}, {"current_trial": 99, "trialdata": {"rt": -1, "trial_type": "single-stim", "word": "cocktail", "stimulus": "<p id=\"stim\">COCKTAIL</p>", "conditions": [12, 1600, "v", 24000], "internal_node_id": "0.0-72.0", "trial": 2, "time_elapsed": 496483, "serialpos": 10, "key_press": -1, "wordID": 337, "type": "PRES_VIS", "trial_index": 99}, "uniqueid": "MTK2577:3GS6S824SR409QE43BUNE2PMHFWWN1", "dateTime": 1519074862371}, {"current_trial": 100, "trialdata": {"rt": -1, "trial_type": "single-stim", "word": "brandy", "stimulus": "<p id=\"stim\">BRANDY</p>", "conditions": [12, 1600, "v", 24000], "internal_node_id": "0.0-73.0", "trial": 2, "time_elapsed": 498973, "serialpos": 11, "key_press": -1, "wordID": 168, "type": "PRES_VIS", "trial_index": 100}, "uniqueid": "MTK2577:3GS6S824SR409QE43BUNE2PMHFWWN1", "dateTime": 1519074864861}, {"current_trial": 101, "trialdata": {"rt": -1, "trial_type": "single-stim", "stimulus": "", "internal_node_id": "0.0-74.0-0.0", "time_elapsed": 501282, "key_press": -1, "type": "PRE_RECALL_DELAY", "trial_index": 101}, "uniqueid": "MTK2577:3GS6S824SR409QE43BUNE2PMHFWWN1", "dateTime": 1519074867171}, {"current_trial": 102, "trialdata": {"rt": -1000, "trial_type": "single-audio", "stimulus": "/static/audio/400Hz.wav", "internal_node_id": "0.0-75.0", "time_elapsed": 501799, "key_press": -1, "type": "PRE_RECALL_ALERT", "trial_index": 102}, "uniqueid": "MTK2577:3GS6S824SR409QE43BUNE2PMHFWWN1", "dateTime": 1519074867687}, {"current_trial": 103, "trialdata": {"rt": [2675, 4043, 5580, 6739, 9883, 12163], "recwords": ["brandy", "cocktail", "panther", "monster", "soda", "slide"], "key_times": [1451, 1667, 1763, 2035, 2171, 2323, 2675, 2931, 3059, 3203, 3318, 3532, 3603, 3683, 3763, 4043, 4411, 4523, 4669, 4747, 4891, 4941, 5011, 5580, 5899, 6027, 6139, 6189, 6275, 6427, 6515, 6739, 9132, 9211, 9339, 9427, 9883, 11379, 11491, 11547, 11613, 11779, 12163], "trial_type": "free-recall", "conditions": [12, 1600, "v", 24000], "internal_node_id": "0.0-76.0-0.0", "key_presses": [66, 82, 65, 78, 68, 89, 13, 67, 79, 67, 75, 84, 65, 73, 76, 13, 80, 65, 78, 84, 72, 69, 82, 13, 77, 79, 78, 83, 84, 69, 82, 13, 83, 79, 68, 65, 13, 83, 76, 73, 68, 69, 13], "trial": 2, "time_elapsed": 561810, "type": "FREE_RECALL", "trial_index": 103}, "uniqueid": "MTK2577:3GS6S824SR409QE43BUNE2PMHFWWN1", "dateTime": 1519074927701}, {"current_trial": 104, "trialdata": {"rt": 1522, "trial_type": "text", "internal_node_id": "0.0-77.0", "time_elapsed": 565356, "key_press": 32, "type": "INSTRUCTIONS", "trial_index": 104}, "uniqueid": "MTK2577:3GS6S824SR409QE43BUNE2PMHFWWN1", "dateTime": 1519074931245}, {"current_trial": 105, "trialdata": {"rt": [4234, 7922, 9738], "trial_type": "math-distractor", "key_times": [3635, 4010, 4234, 7434, 7594, 7922, 9515, 9738], "responses": ["18", "20", "3"], "num2": [3, 9, 1, 6], "num3": [6, 6, 1, 1], "conditions": [12, 1600, "v", 12000], "internal_node_id": "0.0-78.0", "key_presses": [97, 104, 13, 98, 96, 13, 99, 13], "trial": 3, "time_elapsed": 579376, "type": "DISTRACTOR", "trial_index": 105, "num1": [9, 5, 1, 2]}, "uniqueid": "MTK2577:3GS6S824SR409QE43BUNE2PMHFWWN1", "dateTime": 1519074945264}, {"current_trial": 106, "trialdata": {"rt": -1, "trial_type": "single-stim", "stimulus": "<p id=\"stim\">10</p>", "internal_node_id": "0.0-79.0-0.0", "time_elapsed": 582402, "key_press": -1, "trial_index": 106}, "uniqueid": "MTK2577:3GS6S824SR409QE43BUNE2PMHFWWN1", "dateTime": 1519074948291}, {"current_trial": 107, "trialdata": {"rt": -1, "trial_type": "single-stim", "stimulus": "<p id=\"stim\">9</p>", "internal_node_id": "0.0-79.0-1.0", "time_elapsed": 583404, "key_press": -1, "trial_index": 107}, "uniqueid": "MTK2577:3GS6S824SR409QE43BUNE2PMHFWWN1", "dateTime": 1519074949292}, {"current_trial": 108, "trialdata": {"rt": -1, "trial_type": "single-stim", "stimulus": "<p id=\"stim\">8</p>", "internal_node_id": "0.0-79.0-2.0", "time_elapsed": 584411, "key_press": -1, "trial_index": 108}, "uniqueid": "MTK2577:3GS6S824SR409QE43BUNE2PMHFWWN1", "dateTime": 1519074950299}, {"current_trial": 109, "trialdata": {"rt": -1, "trial_type": "single-stim", "stimulus": "<p id=\"stim\">7</p>", "internal_node_id": "0.0-79.0-3.0", "time_elapsed": 585412, "key_press": -1, "trial_index": 109}, "uniqueid": "MTK2577:3GS6S824SR409QE43BUNE2PMHFWWN1", "dateTime": 1519074951300}, {"current_trial": 110, "trialdata": {"rt": -1, "trial_type": "single-stim", "stimulus": "<p id=\"stim\">6</p>", "internal_node_id": "0.0-79.0-4.0", "time_elapsed": 586415, "key_press": -1, "trial_index": 110}, "uniqueid": "MTK2577:3GS6S824SR409QE43BUNE2PMHFWWN1", "dateTime": 1519074952303}, {"current_trial": 111, "trialdata": {"rt": -1, "trial_type": "single-stim", "stimulus": "<p id=\"stim\">5</p>", "internal_node_id": "0.0-79.0-5.0", "time_elapsed": 587406, "key_press": -1, "trial_index": 111}, "uniqueid": "MTK2577:3GS6S824SR409QE43BUNE2PMHFWWN1", "dateTime": 1519074953294}, {"current_trial": 112, "trialdata": {"rt": -1, "trial_type": "single-stim", "stimulus": "<p id=\"stim\">4</p>", "internal_node_id": "0.0-79.0-6.0", "time_elapsed": 588403, "key_press": -1, "trial_index": 112}, "uniqueid": "MTK2577:3GS6S824SR409QE43BUNE2PMHFWWN1", "dateTime": 1519074954291}, {"current_trial": 113, "trialdata": {"rt": -1, "trial_type": "single-stim", "stimulus": "<p id=\"stim\">3</p>", "internal_node_id": "0.0-79.0-7.0", "time_elapsed": 589404, "key_press": -1, "trial_index": 113}, "uniqueid": "MTK2577:3GS6S824SR409QE43BUNE2PMHFWWN1", "dateTime": 1519074955292}, {"current_trial": 114, "trialdata": {"rt": -1, "trial_type": "single-stim", "stimulus": "<p id=\"stim\">2</p>", "internal_node_id": "0.0-79.0-8.0", "time_elapsed": 590419, "key_press": -1, "trial_index": 114}, "uniqueid": "MTK2577:3GS6S824SR409QE43BUNE2PMHFWWN1", "dateTime": 1519074956307}, {"current_trial": 115, "trialdata": {"rt": -1, "trial_type": "single-stim", "stimulus": "<p id=\"stim\">1</p>", "internal_node_id": "0.0-79.0-9.0", "time_elapsed": 591403, "key_press": -1, "trial_index": 115}, "uniqueid": "MTK2577:3GS6S824SR409QE43BUNE2PMHFWWN1", "dateTime": 1519074957291}, {"current_trial": 116, "trialdata": {"rt": -1, "trial_type": "single-stim", "stimulus": "<p id=\"stim\">+</p>", "internal_node_id": "0.0-80.0-0.0", "time_elapsed": 592904, "key_press": -1, "type": "FIXATION", "trial_index": 116}, "uniqueid": "MTK2577:3GS6S824SR409QE43BUNE2PMHFWWN1", "dateTime": 1519074958793}, {"current_trial": 117, "trialdata": {"rt": -1, "trial_type": "single-stim", "word": "fruit", "stimulus": "<p id=\"stim\">FRUIT</p>", "conditions": [12, 1600, "v", 12000], "internal_node_id": "0.0-81.0", "trial": 3, "time_elapsed": 594519, "serialpos": 0, "key_press": -1, "wordID": 609, "type": "PRES_VIS", "trial_index": 117}, "uniqueid": "MTK2577:3GS6S824SR409QE43BUNE2PMHFWWN1", "dateTime": 1519074960407}, {"current_trial": 118, "trialdata": {"rt": -1, "trial_type": "single-stim", "word": "heart", "stimulus": "<p id=\"stim\">HEART</p>", "conditions": [12, 1600, "v", 12000], "internal_node_id": "0.0-82.0", "trial": 3, "time_elapsed": 596948, "serialpos": 1, "key_press": -1, "wordID": 696, "type": "PRES_VIS", "trial_index": 118}, "uniqueid": "MTK2577:3GS6S824SR409QE43BUNE2PMHFWWN1", "dateTime": 1519074962836}, {"current_trial": 119, "trialdata": {"rt": -1, "trial_type": "single-stim", "word": "kitchen", "stimulus": "<p id=\"stim\">KITCHEN</p>", "conditions": [12, 1600, "v", 12000], "internal_node_id": "0.0-83.0", "trial": 3, "time_elapsed": 599743, "serialpos": 2, "key_press": -1, "wordID": 777, "type": "PRES_VIS", "trial_index": 119}, "uniqueid": "MTK2577:3GS6S824SR409QE43BUNE2PMHFWWN1", "dateTime": 1519074965631}, {"current_trial": 120, "trialdata": {"rt": -1, "trial_type": "single-stim", "word": "infant", "stimulus": "<p id=\"stim\">INFANT</p>", "conditions": [12, 1600, "v", 12000], "internal_node_id": "0.0-84.0", "trial": 3, "time_elapsed": 602392, "serialpos": 3, "key_press": -1, "wordID": 736, "type": "PRES_VIS", "trial_index": 120}, "uniqueid": "MTK2577:3GS6S824SR409QE43BUNE2PMHFWWN1", "dateTime": 1519074968280}, {"current_trial": 121, "trialdata": {"rt": -1, "trial_type": "single-stim", "word": "captive", "stimulus": "<p id=\"stim\">CAPTIVE</p>", "conditions": [12, 1600, "v", 12000], "internal_node_id": "0.0-85.0", "trial": 3, "time_elapsed": 605072, "serialpos": 4, "key_press": -1, "wordID": 239, "type": "PRES_VIS", "trial_index": 121}, "uniqueid": "MTK2577:3GS6S824SR409QE43BUNE2PMHFWWN1", "dateTime": 1519074970960}, {"current_trial": 122, "trialdata": {"rt": -1, "trial_type": "single-stim", "word": "pluto", "stimulus": "<p id=\"stim\">PLUTO</p>", "conditions": [12, 1600, "v", 12000], "internal_node_id": "0.0-86.0", "trial": 3, "time_elapsed": 607647, "serialpos": 5, "key_press": -1, "wordID": 1091, "type": "PRES_VIS", "trial_index": 122}, "uniqueid": "MTK2577:3GS6S824SR409QE43BUNE2PMHFWWN1", "dateTime": 1519074973535}, {"current_trial": 123, "trialdata": {"rt": -1, "trial_type": "single-stim", "word": "pastry", "stimulus": "<p id=\"stim\">PASTRY</p>", "conditions": [12, 1600, "v", 12000], "internal_node_id": "0.0-87.0", "trial": 3, "time_elapsed": 610436, "serialpos": 6, "key_press": -1, "wordID": 1021, "type": "PRES_VIS", "trial_index": 123}, "uniqueid": "MTK2577:3GS6S824SR409QE43BUNE2PMHFWWN1", "dateTime": 1519074976324}, {"current_trial": 124, "trialdata": {"rt": -1, "trial_type": "single-stim", "word": "cupboard", "stimulus": "<p id=\"stim\">CUPBOARD</p>", "conditions": [12, 1600, "v", 12000], "internal_node_id": "0.0-88.0", "trial": 3, "time_elapsed": 612964, "serialpos": 7, "key_press": -1, "wordID": 424, "type": "PRES_VIS", "trial_index": 124}, "uniqueid": "MTK2577:3GS6S824SR409QE43BUNE2PMHFWWN1", "dateTime": 1519074978852}, {"current_trial": 125, "trialdata": {"rt": -1, "trial_type": "single-stim", "word": "world", "stimulus": "<p id=\"stim\">WORLD</p>", "conditions": [12, 1600, "v", 12000], "internal_node_id": "0.0-89.0", "trial": 3, "time_elapsed": 615416, "serialpos": 8, "key_press": -1, "wordID": 1621, "type": "PRES_VIS", "trial_index": 125}, "uniqueid": "MTK2577:3GS6S824SR409QE43BUNE2PMHFWWN1", "dateTime": 1519074981304}, {"current_trial": 126, "trialdata": {"rt": -1, "trial_type": "single-stim", "word": "peach", "stimulus": "<p id=\"stim\">PEACH</p>", "conditions": [12, 1600, "v", 12000], "internal_node_id": "0.0-90.0", "trial": 3, "time_elapsed": 617902, "serialpos": 9, "key_press": -1, "wordID": 1030, "type": "PRES_VIS", "trial_index": 126}, "uniqueid": "MTK2577:3GS6S824SR409QE43BUNE2PMHFWWN1", "dateTime": 1519074983790}, {"current_trial": 127, "trialdata": {"rt": -1, "trial_type": "single-stim", "word": "apple", "stimulus": "<p id=\"stim\">APPLE</p>", "conditions": [12, 1600, "v", 12000], "internal_node_id": "0.0-91.0", "trial": 3, "time_elapsed": 620520, "serialpos": 10, "key_press": -1, "wordID": 32, "type": "PRES_VIS", "trial_index": 127}, "uniqueid": "MTK2577:3GS6S824SR409QE43BUNE2PMHFWWN1", "dateTime": 1519074986408}, {"current_trial": 128, "trialdata": {"rt": -1, "trial_type": "single-stim", "word": "hiker", "stimulus": "<p id=\"stim\">HIKER</p>", "conditions": [12, 1600, "v", 12000], "internal_node_id": "0.0-92.0", "trial": 3, "time_elapsed": 622999, "serialpos": 11, "key_press": -1, "wordID": 707, "type": "PRES_VIS", "trial_index": 128}, "uniqueid": "MTK2577:3GS6S824SR409QE43BUNE2PMHFWWN1", "dateTime": 1519074988887}, {"current_trial": 129, "trialdata": {"rt": -1, "trial_type": "single-stim", "stimulus": "", "internal_node_id": "0.0-93.0-0.0", "time_elapsed": 625105, "key_press": -1, "type": "PRE_RECALL_DELAY", "trial_index": 129}, "uniqueid": "MTK2577:3GS6S824SR409QE43BUNE2PMHFWWN1", "dateTime": 1519074990993}, {"current_trial": 130, "trialdata": {"rt": -1000, "trial_type": "single-audio", "stimulus": "/static/audio/400Hz.wav", "internal_node_id": "0.0-94.0", "time_elapsed": 625620, "key_press": -1, "type": "PRE_RECALL_ALERT", "trial_index": 130}, "uniqueid": "MTK2577:3GS6S824SR409QE43BUNE2PMHFWWN1", "dateTime": 1519074991508}, {"current_trial": 131, "trialdata": {"rt": [2206, 3598, 4782, 6006], "recwords": ["hiker", "apple", "peach", "world"], "key_times": [1223, 1352, 1566, 1656, 1734, 2206, 2470, 2675, 2854, 3247, 3382, 3598, 3958, 4059, 4142, 4342, 4438, 4782, 5038, 5167, 5430, 5550, 5702, 6006], "trial_type": "free-recall", "conditions": [12, 1600, "v", 12000], "internal_node_id": "0.0-95.0-0.0", "key_presses": [72, 73, 75, 69, 82, 13, 65, 80, 80, 76, 69, 13, 80, 69, 65, 67, 72, 13, 87, 79, 82, 76, 68, 13], "trial": 3, "time_elapsed": 685627, "type": "FREE_RECALL", "trial_index": 131}, "uniqueid": "MTK2577:3GS6S824SR409QE43BUNE2PMHFWWN1", "dateTime": 1519075051517}, {"current_trial": 132, "trialdata": {"rt": 2328, "trial_type": "text", "internal_node_id": "0.0-96.0", "time_elapsed": 689972, "key_press": 32, "type": "INSTRUCTIONS", "trial_index": 132}, "uniqueid": "MTK2577:3GS6S824SR409QE43BUNE2PMHFWWN1", "dateTime": 1519075055861}, {"current_trial": 133, "trialdata": {"rt": [2278, 4918, 7374, 10470, 14742, 17310, 21342, 23494], "trial_type": "math-distractor", "key_times": [1822, 2278, 4510, 4694, 4918, 6966, 7110, 7374, 10126, 10238, 10470, 14326, 14502, 14742, 16902, 17070, 17310, 20878, 21062, 21342, 23071, 23230, 23494], "responses": ["9", "25", "21", "15", "23", "22", "21", "14"], "num2": [3, 8, 5, 6, 6, 7, 7, 7, 6], "num3": [5, 8, 8, 2, 9, 7, 6, 2, 9], "conditions": [24, 800, "v", 24000], "internal_node_id": "0.0-97.0", "key_presses": [105, 13, 98, 101, 13, 98, 97, 13, 97, 101, 13, 98, 99, 13, 98, 98, 13, 98, 97, 13, 97, 100, 13], "trial": 4, "time_elapsed": 715982, "type": "DISTRACTOR", "trial_index": 133, "num1": [1, 9, 8, 7, 7, 8, 8, 5, 8]}, "uniqueid": "MTK2577:3GS6S824SR409QE43BUNE2PMHFWWN1", "dateTime": 1519075081870}, {"current_trial": 134, "trialdata": {"rt": -1, "trial_type": "single-stim", "stimulus": "<p id=\"stim\">10</p>", "internal_node_id": "0.0-98.0-0.0", "time_elapsed": 718998, "key_press": -1, "trial_index": 134}, "uniqueid": "MTK2577:3GS6S824SR409QE43BUNE2PMHFWWN1", "dateTime": 1519075084886}, {"current_trial": 135, "trialdata": {"rt": -1, "trial_type": "single-stim", "stimulus": "<p id=\"stim\">9</p>", "internal_node_id": "0.0-98.0-1.0", "time_elapsed": 720003, "key_press": -1, "trial_index": 135}, "uniqueid": "MTK2577:3GS6S824SR409QE43BUNE2PMHFWWN1", "dateTime": 1519075085891}, {"current_trial": 136, "trialdata": {"rt": -1, "trial_type": "single-stim", "stimulus": "<p id=\"stim\">8</p>", "internal_node_id": "0.0-98.0-2.0", "time_elapsed": 721008, "key_press": -1, "trial_index": 136}, "uniqueid": "MTK2577:3GS6S824SR409QE43BUNE2PMHFWWN1", "dateTime": 1519075086896}, {"current_trial": 137, "trialdata": {"rt": -1, "trial_type": "single-stim", "stimulus": "<p id=\"stim\">7</p>", "internal_node_id": "0.0-98.0-3.0", "time_elapsed": 722006, "key_press": -1, "trial_index": 137}, "uniqueid": "MTK2577:3GS6S824SR409QE43BUNE2PMHFWWN1", "dateTime": 1519075087894}, {"current_trial": 138, "trialdata": {"rt": -1, "trial_type": "single-stim", "stimulus": "<p id=\"stim\">6</p>", "internal_node_id": "0.0-98.0-4.0", "time_elapsed": 723006, "key_press": -1, "trial_index": 138}, "uniqueid": "MTK2577:3GS6S824SR409QE43BUNE2PMHFWWN1", "dateTime": 1519075088894}, {"current_trial": 139, "trialdata": {"rt": -1, "trial_type": "single-stim", "stimulus": "<p id=\"stim\">5</p>", "internal_node_id": "0.0-98.0-5.0", "time_elapsed": 724006, "key_press": -1, "trial_index": 139}, "uniqueid": "MTK2577:3GS6S824SR409QE43BUNE2PMHFWWN1", "dateTime": 1519075089895}, {"current_trial": 140, "trialdata": {"rt": -1, "trial_type": "single-stim", "stimulus": "<p id=\"stim\">4</p>", "internal_node_id": "0.0-98.0-6.0", "time_elapsed": 725007, "key_press": -1, "trial_index": 140}, "uniqueid": "MTK2577:3GS6S824SR409QE43BUNE2PMHFWWN1", "dateTime": 1519075090895}, {"current_trial": 141, "trialdata": {"rt": -1, "trial_type": "single-stim", "stimulus": "<p id=\"stim\">3</p>", "internal_node_id": "0.0-98.0-7.0", "time_elapsed": 726010, "key_press": -1, "trial_index": 141}, "uniqueid": "MTK2577:3GS6S824SR409QE43BUNE2PMHFWWN1", "dateTime": 1519075091898}, {"current_trial": 142, "trialdata": {"rt": -1, "trial_type": "single-stim", "stimulus": "<p id=\"stim\">2</p>", "internal_node_id": "0.0-98.0-8.0", "time_elapsed": 726999, "key_press": -1, "trial_index": 142}, "uniqueid": "MTK2577:3GS6S824SR409QE43BUNE2PMHFWWN1", "dateTime": 1519075092887}, {"current_trial": 143, "trialdata": {"rt": -1, "trial_type": "single-stim", "stimulus": "<p id=\"stim\">1</p>", "internal_node_id": "0.0-98.0-9.0", "time_elapsed": 728000, "key_press": -1, "trial_index": 143}, "uniqueid": "MTK2577:3GS6S824SR409QE43BUNE2PMHFWWN1", "dateTime": 1519075093889}, {"current_trial": 144, "trialdata": {"rt": -1, "trial_type": "single-stim", "stimulus": "<p id=\"stim\">+</p>", "internal_node_id": "0.0-99.0-0.0", "time_elapsed": 729504, "key_press": -1, "type": "FIXATION", "trial_index": 144}, "uniqueid": "MTK2577:3GS6S824SR409QE43BUNE2PMHFWWN1", "dateTime": 1519075095392}, {"current_trial": 145, "trialdata": {"rt": -1, "trial_type": "single-stim", "word": "tribe", "stimulus": "<p id=\"stim\">TRIBE</p>", "conditions": [24, 800, "v", 24000], "internal_node_id": "0.0-100.0", "trial": 4, "time_elapsed": 730319, "serialpos": 0, "key_press": -1, "wordID": 1504, "type": "PRES_VIS", "trial_index": 145}, "uniqueid": "MTK2577:3GS6S824SR409QE43BUNE2PMHFWWN1", "dateTime": 1519075096207}, {"current_trial": 146, "trialdata": {"rt": -1, "trial_type": "single-stim", "word": "thief", "stimulus": "<p id=\"stim\">THIEF</p>", "conditions": [24, 800, "v", 24000], "internal_node_id": "0.0-101.0", "trial": 4, "time_elapsed": 732320, "serialpos": 1, "key_press": -1, "wordID": 1455, "type": "PRES_VIS", "trial_index": 146}, "uniqueid": "MTK2577:3GS6S824SR409QE43BUNE2PMHFWWN1", "dateTime": 1519075098209}, {"current_trial": 147, "trialdata": {"rt": -1, "trial_type": "single-stim", "word": "kidney", "stimulus": "<p id=\"stim\">KIDNEY</p>", "conditions": [24, 800, "v", 24000], "internal_node_id": "0.0-102.0", "trial": 4, "time_elapsed": 734287, "serialpos": 2, "key_press": -1, "wordID": 775, "type": "PRES_VIS", "trial_index": 147}, "uniqueid": "MTK2577:3GS6S824SR409QE43BUNE2PMHFWWN1", "dateTime": 1519075100175}, {"current_trial": 148, "trialdata": {"rt": -1, "trial_type": "single-stim", "word": "virus", "stimulus": "<p id=\"stim\">VIRUS</p>", "conditions": [24, 800, "v", 24000], "internal_node_id": "0.0-103.0", "trial": 4, "time_elapsed": 736057, "serialpos": 3, "key_press": -1, "wordID": 1571, "type": "PRES_VIS", "trial_index": 148}, "uniqueid": "MTK2577:3GS6S824SR409QE43BUNE2PMHFWWN1", "dateTime": 1519075101945}, {"current_trial": 149, "trialdata": {"rt": -1, "trial_type": "single-stim", "word": "banjo", "stimulus": "<p id=\"stim\">BANJO</p>", "conditions": [24, 800, "v", 24000], "internal_node_id": "0.0-104.0", "trial": 4, "time_elapsed": 737818, "serialpos": 4, "key_press": -1, "wordID": 81, "type": "PRES_VIS", "trial_index": 149}, "uniqueid": "MTK2577:3GS6S824SR409QE43BUNE2PMHFWWN1", "dateTime": 1519075103706}, {"current_trial": 150, "trialdata": {"rt": -1, "trial_type": "single-stim", "word": "robber", "stimulus": "<p id=\"stim\">ROBBER</p>", "conditions": [24, 800, "v", 24000], "internal_node_id": "0.0-105.0", "trial": 4, "time_elapsed": 739497, "serialpos": 5, "key_press": -1, "wordID": 1196, "type": "PRES_VIS", "trial_index": 150}, "uniqueid": "MTK2577:3GS6S824SR409QE43BUNE2PMHFWWN1", "dateTime": 1519075105385}, {"current_trial": 151, "trialdata": {"rt": -1, "trial_type": "single-stim", "word": "luggage", "stimulus": "<p id=\"stim\">LUGGAGE</p>", "conditions": [24, 800, "v", 24000], "internal_node_id": "0.0-106.0", "trial": 4, "time_elapsed": 741355, "serialpos": 6, "key_press": -1, "wordID": 846, "type": "PRES_VIS", "trial_index": 151}, "uniqueid": "MTK2577:3GS6S824SR409QE43BUNE2PMHFWWN1", "dateTime": 1519075107243}, {"current_trial": 152, "trialdata": {"rt": -1, "trial_type": "single-stim", "word": "suspect", "stimulus": "<p id=\"stim\">SUSPECT</p>", "conditions": [24, 800, "v", 24000], "internal_node_id": "0.0-107.0", "trial": 4, "time_elapsed": 743305, "serialpos": 7, "key_press": -1, "wordID": 1414, "type": "PRES_VIS", "trial_index": 152}, "uniqueid": "MTK2577:3GS6S824SR409QE43BUNE2PMHFWWN1", "dateTime": 1519075109193}, {"current_trial": 153, "trialdata": {"rt": -1, "trial_type": "single-stim", "word": "critic", "stimulus": "<p id=\"stim\">CRITIC</p>", "conditions": [24, 800, "v", 24000], "internal_node_id": "0.0-108.0", "trial": 4, "time_elapsed": 745138, "serialpos": 8, "key_press": -1, "wordID": 409, "type": "PRES_VIS", "trial_index": 153}, "uniqueid": "MTK2577:3GS6S824SR409QE43BUNE2PMHFWWN1", "dateTime": 1519075111026}, {"current_trial": 154, "trialdata": {"rt": -1, "trial_type": "single-stim", "word": "rocket", "stimulus": "<p id=\"stim\">ROCKET</p>", "conditions": [24, 800, "v", 24000], "internal_node_id": "0.0-109.0", "trial": 4, "time_elapsed": 747053, "serialpos": 9, "key_press": -1, "wordID": 1201, "type": "PRES_VIS", "trial_index": 154}, "uniqueid": "MTK2577:3GS6S824SR409QE43BUNE2PMHFWWN1", "dateTime": 1519075112941}, {"current_trial": 155, "trialdata": {"rt": -1, "trial_type": "single-stim", "word": "missile", "stimulus": "<p id=\"stim\">MISSILE</p>", "conditions": [24, 800, "v", 24000], "internal_node_id": "0.0-110.0", "trial": 4, "time_elapsed": 748997, "serialpos": 10, "key_press": -1, "wordID": 899, "type": "PRES_VIS", "trial_index": 155}, "uniqueid": "MTK2577:3GS6S824SR409QE43BUNE2PMHFWWN1", "dateTime": 1519075114885}, {"current_trial": 156, "trialdata": {"rt": -1, "trial_type": "single-stim", "word": "apron", "stimulus": "<p id=\"stim\">APRON</p>", "conditions": [24, 800, "v", 24000], "internal_node_id": "0.0-111.0", "trial": 4, "time_elapsed": 750679, "serialpos": 11, "key_press": -1, "wordID": 34, "type": "PRES_VIS", "trial_index": 156}, "uniqueid": "MTK2577:3GS6S824SR409QE43BUNE2PMHFWWN1", "dateTime": 1519075116567}, {"current_trial": 157, "trialdata": {"rt": -1, "trial_type": "single-stim", "word": "harp", "stimulus": "<p id=\"stim\">HARP</p>", "conditions": [24, 800, "v", 24000], "internal_node_id": "0.0-112.0", "trial": 4, "time_elapsed": 752385, "serialpos": 12, "key_press": -1, "wordID": 688, "type": "PRES_VIS", "trial_index": 157}, "uniqueid": "MTK2577:3GS6S824SR409QE43BUNE2PMHFWWN1", "dateTime": 1519075118274}, {"current_trial": 158, "trialdata": {"rt": -1, "trial_type": "single-stim", "word": "wagon", "stimulus": "<p id=\"stim\">WAGON</p>", "conditions": [24, 800, "v", 24000], "internal_node_id": "0.0-113.0", "trial": 4, "time_elapsed": 754299, "serialpos": 13, "key_press": -1, "wordID": 1577, "type": "PRES_VIS", "trial_index": 158}, "uniqueid": "MTK2577:3GS6S824SR409QE43BUNE2PMHFWWN1", "dateTime": 1519075120187}, {"current_trial": 159, "trialdata": {"rt": -1, "trial_type": "single-stim", "word": "sister", "stimulus": "<p id=\"stim\">SISTER</p>", "conditions": [24, 800, "v", 24000], "internal_node_id": "0.0-114.0", "trial": 4, "time_elapsed": 756021, "serialpos": 14, "key_press": -1, "wordID": 1311, "type": "PRES_VIS", "trial_index": 159}, "uniqueid": "MTK2577:3GS6S824SR409QE43BUNE2PMHFWWN1", "dateTime": 1519075121909}, {"current_trial": 160, "trialdata": {"rt": -1, "trial_type": "single-stim", "word": "wife", "stimulus": "<p id=\"stim\">WIFE</p>", "conditions": [24, 800, "v", 24000], "internal_node_id": "0.0-115.0", "trial": 4, "time_elapsed": 757953, "serialpos": 15, "key_press": -1, "wordID": 1608, "type": "PRES_VIS", "trial_index": 160}, "uniqueid": "MTK2577:3GS6S824SR409QE43BUNE2PMHFWWN1", "dateTime": 1519075123841}, {"current_trial": 161, "trialdata": {"rt": -1, "trial_type": "single-stim", "word": "football", "stimulus": "<p id=\"stim\">FOOTBALL</p>", "conditions": [24, 800, "v", 24000], "internal_node_id": "0.0-116.0", "trial": 4, "time_elapsed": 759938, "serialpos": 16, "key_press": -1, "wordID": 590, "type": "PRES_VIS", "trial_index": 161}, "uniqueid": "MTK2577:3GS6S824SR409QE43BUNE2PMHFWWN1", "dateTime": 1519075125826}, {"current_trial": 162, "trialdata": {"rt": -1, "trial_type": "single-stim", "word": "brick", "stimulus": "<p id=\"stim\">BRICK</p>", "conditions": [24, 800, "v", 24000], "internal_node_id": "0.0-117.0", "trial": 4, "time_elapsed": 761937, "serialpos": 17, "key_press": -1, "wordID": 171, "type": "PRES_VIS", "trial_index": 162}, "uniqueid": "MTK2577:3GS6S824SR409QE43BUNE2PMHFWWN1", "dateTime": 1519075127825}, {"current_trial": 163, "trialdata": {"rt": -1, "trial_type": "single-stim", "word": "creature", "stimulus": "<p id=\"stim\">CREATURE</p>", "conditions": [24, 800, "v", 24000], "internal_node_id": "0.0-118.0", "trial": 4, "time_elapsed": 763945, "serialpos": 18, "key_press": -1, "wordID": 402, "type": "PRES_VIS", "trial_index": 163}, "uniqueid": "MTK2577:3GS6S824SR409QE43BUNE2PMHFWWN1", "dateTime": 1519075129833}, {"current_trial": 164, "trialdata": {"rt": -1, "trial_type": "single-stim", "word": "sketch", "stimulus": "<p id=\"stim\">SKETCH</p>", "conditions": [24, 800, "v", 24000], "internal_node_id": "0.0-119.0", "trial": 4, "time_elapsed": 765822, "serialpos": 19, "key_press": -1, "wordID": 1314, "type": "PRES_VIS", "trial_index": 164}, "uniqueid": "MTK2577:3GS6S824SR409QE43BUNE2PMHFWWN1", "dateTime": 1519075131710}, {"current_trial": 165, "trialdata": {"rt": -1, "trial_type": "single-stim", "word": "razor", "stimulus": "<p id=\"stim\">RAZOR</p>", "conditions": [24, 800, "v", 24000], "internal_node_id": "0.0-120.0", "trial": 4, "time_elapsed": 767804, "serialpos": 20, "key_press": -1, "wordID": 1170, "type": "PRES_VIS", "trial_index": 165}, "uniqueid": "MTK2577:3GS6S824SR409QE43BUNE2PMHFWWN1", "dateTime": 1519075133692}, {"current_trial": 166, "trialdata": {"rt": -1, "trial_type": "single-stim", "word": "supper", "stimulus": "<p id=\"stim\">SUPPER</p>", "conditions": [24, 800, "v", 24000], "internal_node_id": "0.0-121.0", "trial": 4, "time_elapsed": 769666, "serialpos": 21, "key_press": -1, "wordID": 1410, "type": "PRES_VIS", "trial_index": 166}, "uniqueid": "MTK2577:3GS6S824SR409QE43BUNE2PMHFWWN1", "dateTime": 1519075135554}, {"current_trial": 167, "trialdata": {"rt": -1, "trial_type": "single-stim", "word": "mammal", "stimulus": "<p id=\"stim\">MAMMAL</p>", "conditions": [24, 800, "v", 24000], "internal_node_id": "0.0-122.0", "trial": 4, "time_elapsed": 771572, "serialpos": 22, "key_press": -1, "wordID": 860, "type": "PRES_VIS", "trial_index": 167}, "uniqueid": "MTK2577:3GS6S824SR409QE43BUNE2PMHFWWN1", "dateTime": 1519075137461}, {"current_trial": 168, "trialdata": {"rt": -1, "trial_type": "single-stim", "word": "guitar", "stimulus": "<p id=\"stim\">GUITAR</p>", "conditions": [24, 800, "v", 24000], "internal_node_id": "0.0-123.0", "trial": 4, "time_elapsed": 773341, "serialpos": 23, "key_press": -1, "wordID": 669, "type": "PRES_VIS", "trial_index": 168}, "uniqueid": "MTK2577:3GS6S824SR409QE43BUNE2PMHFWWN1", "dateTime": 1519075139230}, {"current_trial": 169, "trialdata": {"rt": -1, "trial_type": "single-stim", "stimulus": "", "internal_node_id": "0.0-124.0-0.0", "time_elapsed": 775704, "key_press": -1, "type": "PRE_RECALL_DELAY", "trial_index": 169}, "uniqueid": "MTK2577:3GS6S824SR409QE43BUNE2PMHFWWN1", "dateTime": 1519075141592}, {"current_trial": 170, "trialdata": {"rt": -1000, "trial_type": "single-audio", "stimulus": "/static/audio/400Hz.wav", "internal_node_id": "0.0-125.0", "time_elapsed": 776220, "key_press": -1, "type": "PRE_RECALL_ALERT", "trial_index": 170}, "uniqueid": "MTK2577:3GS6S824SR409QE43BUNE2PMHFWWN1", "dateTime": 1519075142108}, {"current_trial": 171, "trialdata": {"rt": [2214, 3743, 5239, 7062, 8006, 11038, 12183], "recwords": ["razor", "mammal", "guitar", "sister", "wife", "tribe", "thief"], "key_times": [1190, 1478, 1727, 1847, 1982, 2214, 2598, 2846, 3198, 3358, 3478, 3606, 3743, 3902, 4430, 4494, 4630, 4742, 4838, 5239, 6150, 6271, 6374, 6519, 6656, 6718, 7062, 7319, 7438, 7534, 7598, 8006, 9998, 10174, 10270, 10374, 10526, 11038, 11358, 11486, 11558, 11606, 11752, 12183], "trial_type": "free-recall", "conditions": [24, 800, "v", 24000], "internal_node_id": "0.0-126.0-0.0", "key_presses": [82, 65, 90, 79, 82, 13, 77, 65, 77, 77, 65, 76, 32, 71, 85, 73, 84, 65, 82, 32, 83, 73, 83, 84, 69, 82, 32, 87, 73, 70, 69, 32, 84, 82, 73, 66, 69, 32, 84, 72, 73, 69, 70, 32], "trial": 4, "time_elapsed": 836234, "type": "FREE_RECALL", "trial_index": 171}, "uniqueid": "MTK2577:3GS6S824SR409QE43BUNE2PMHFWWN1", "dateTime": 1519075202126}, {"current_trial": 172, "trialdata": {"rt": 584, "trial_type": "text", "internal_node_id": "0.0-127.0", "time_elapsed": 838828, "key_press": 32, "type": "INSTRUCTIONS", "trial_index": 172}, "uniqueid": "MTK2577:3GS6S824SR409QE43BUNE2PMHFWWN1", "dateTime": 1519075204717}, {"current_trial": 173, "trialdata": {"rt": [5413, 8605, 10765, 13909, 16117, 17869, 19149, 23533], "trial_type": "math-distractor", "key_times": [4541, 5189, 5413, 8077, 8253, 8605, 10333, 10541, 10765, 13597, 13909, 15685, 15813, 16117, 17621, 17869, 18893, 19149, 23061, 23285, 23533], "responses": ["26", "11", "14", "9", "12", "7", "7", "12"], "num2": [9, 3, 1, 4, 5, 1, 1, 3, 7], "num3": [9, 4, 9, 3, 3, 3, 1, 8, 6], "conditions": [12, 1600, "v", 24000], "internal_node_id": "0.0-128.0", "key_presses": [98, 102, 13, 97, 97, 13, 97, 100, 13, 105, 13, 97, 98, 13, 103, 13, 103, 13, 97, 98, 13], "trial": 5, "time_elapsed": 864845, "type": "DISTRACTOR", "trial_index": 173, "num1": [8, 4, 4, 2, 4, 3, 5, 1, 7]}, "uniqueid": "MTK2577:3GS6S824SR409QE43BUNE2PMHFWWN1", "dateTime": 1519075230733}, {"current_trial": 174, "trialdata": {"rt": -1, "trial_type": "single-stim", "stimulus": "<p id=\"stim\">10</p>", "internal_node_id": "0.0-129.0-0.0", "time_elapsed": 867857, "key_press": -1, "trial_index": 174}, "uniqueid": "MTK2577:3GS6S824SR409QE43BUNE2PMHFWWN1", "dateTime": 1519075233745}, {"current_trial": 175, "trialdata": {"rt": -1, "trial_type": "single-stim", "stimulus": "<p id=\"stim\">9</p>", "internal_node_id": "0.0-129.0-1.0", "time_elapsed": 868863, "key_press": -1, "trial_index": 175}, "uniqueid": "MTK2577:3GS6S824SR409QE43BUNE2PMHFWWN1", "dateTime": 1519075234751}, {"current_trial": 176, "trialdata": {"rt": -1, "trial_type": "single-stim", "stimulus": "<p id=\"stim\">8</p>", "internal_node_id": "0.0-129.0-2.0", "time_elapsed": 869863, "key_press": -1, "trial_index": 176}, "uniqueid": "MTK2577:3GS6S824SR409QE43BUNE2PMHFWWN1", "dateTime": 1519075235751}, {"current_trial": 177, "trialdata": {"rt": -1, "trial_type": "single-stim", "stimulus": "<p id=\"stim\">7</p>", "internal_node_id": "0.0-129.0-3.0", "time_elapsed": 870863, "key_press": -1, "trial_index": 177}, "uniqueid": "MTK2577:3GS6S824SR409QE43BUNE2PMHFWWN1", "dateTime": 1519075236752}, {"current_trial": 178, "trialdata": {"rt": -1, "trial_type": "single-stim", "stimulus": "<p id=\"stim\">6</p>", "internal_node_id": "0.0-129.0-4.0", "time_elapsed": 871862, "key_press": -1, "trial_index": 178}, "uniqueid": "MTK2577:3GS6S824SR409QE43BUNE2PMHFWWN1", "dateTime": 1519075237750}, {"current_trial": 179, "trialdata": {"rt": -1, "trial_type": "single-stim", "stimulus": "<p id=\"stim\">5</p>", "internal_node_id": "0.0-129.0-5.0", "time_elapsed": 872860, "key_press": -1, "trial_index": 179}, "uniqueid": "MTK2577:3GS6S824SR409QE43BUNE2PMHFWWN1", "dateTime": 1519075238748}, {"current_trial": 180, "trialdata": {"rt": -1, "trial_type": "single-stim", "stimulus": "<p id=\"stim\">4</p>", "internal_node_id": "0.0-129.0-6.0", "time_elapsed": 873862, "key_press": -1, "trial_index": 180}, "uniqueid": "MTK2577:3GS6S824SR409QE43BUNE2PMHFWWN1", "dateTime": 1519075239750}, {"current_trial": 181, "trialdata": {"rt": -1, "trial_type": "single-stim", "stimulus": "<p id=\"stim\">3</p>", "internal_node_id": "0.0-129.0-7.0", "time_elapsed": 874855, "key_press": -1, "trial_index": 181}, "uniqueid": "MTK2577:3GS6S824SR409QE43BUNE2PMHFWWN1", "dateTime": 1519075240743}, {"current_trial": 182, "trialdata": {"rt": -1, "trial_type": "single-stim", "stimulus": "<p id=\"stim\">2</p>", "internal_node_id": "0.0-129.0-8.0", "time_elapsed": 875854, "key_press": -1, "trial_index": 182}, "uniqueid": "MTK2577:3GS6S824SR409QE43BUNE2PMHFWWN1", "dateTime": 1519075241743}, {"current_trial": 183, "trialdata": {"rt": -1, "trial_type": "single-stim", "stimulus": "<p id=\"stim\">1</p>", "internal_node_id": "0.0-129.0-9.0", "time_elapsed": 876857, "key_press": -1, "trial_index": 183}, "uniqueid": "MTK2577:3GS6S824SR409QE43BUNE2PMHFWWN1", "dateTime": 1519075242746}, {"current_trial": 184, "trialdata": {"rt": -1, "trial_type": "single-stim", "stimulus": "<p id=\"stim\">+</p>", "internal_node_id": "0.0-130.0-0.0", "time_elapsed": 878362, "key_press": -1, "type": "FIXATION", "trial_index": 184}, "uniqueid": "MTK2577:3GS6S824SR409QE43BUNE2PMHFWWN1", "dateTime": 1519075244250}, {"current_trial": 185, "trialdata": {"rt": -1, "trial_type": "single-stim", "word": "coin", "stimulus": "<p id=\"stim\">COIN</p>", "conditions": [12, 1600, "v", 24000], "internal_node_id": "0.0-131.0", "trial": 5, "time_elapsed": 879976, "serialpos": 0, "key_press": -1, "wordID": 342, "type": "PRES_VIS", "trial_index": 185}, "uniqueid": "MTK2577:3GS6S824SR409QE43BUNE2PMHFWWN1", "dateTime": 1519075245864}, {"current_trial": 186, "trialdata": {"rt": -1, "trial_type": "single-stim", "word": "banquet", "stimulus": "<p id=\"stim\">BANQUET</p>", "conditions": [12, 1600, "v", 24000], "internal_node_id": "0.0-132.0", "trial": 5, "time_elapsed": 882574, "serialpos": 1, "key_press": -1, "wordID": 85, "type": "PRES_VIS", "trial_index": 186}, "uniqueid": "MTK2577:3GS6S824SR409QE43BUNE2PMHFWWN1", "dateTime": 1519075248462}, {"current_trial": 187, "trialdata": {"rt": -1, "trial_type": "single-stim", "word": "shirt", "stimulus": "<p id=\"stim\">SHIRT</p>", "conditions": [12, 1600, "v", 24000], "internal_node_id": "0.0-133.0", "trial": 5, "time_elapsed": 885206, "serialpos": 2, "key_press": -1, "wordID": 1286, "type": "PRES_VIS", "trial_index": 187}, "uniqueid": "MTK2577:3GS6S824SR409QE43BUNE2PMHFWWN1", "dateTime": 1519075251094}, {"current_trial": 188, "trialdata": {"rt": -1, "trial_type": "single-stim", "word": "mattress", "stimulus": "<p id=\"stim\">MATTRESS</p>", "conditions": [12, 1600, "v", 24000], "internal_node_id": "0.0-134.0", "trial": 5, "time_elapsed": 887689, "serialpos": 3, "key_press": -1, "wordID": 878, "type": "PRES_VIS", "trial_index": 188}, "uniqueid": "MTK2577:3GS6S824SR409QE43BUNE2PMHFWWN1", "dateTime": 1519075253578}, {"current_trial": 189, "trialdata": {"rt": -1, "trial_type": "single-stim", "word": "skirt", "stimulus": "<p id=\"stim\">SKIRT</p>", "conditions": [12, 1600, "v", 24000], "internal_node_id": "0.0-135.0", "trial": 5, "time_elapsed": 890429, "serialpos": 4, "key_press": -1, "wordID": 1318, "type": "PRES_VIS", "trial_index": 189}, "uniqueid": "MTK2577:3GS6S824SR409QE43BUNE2PMHFWWN1", "dateTime": 1519075256317}, {"current_trial": 190, "trialdata": {"rt": -1, "trial_type": "single-stim", "word": "expert", "stimulus": "<p id=\"stim\">EXPERT</p>", "conditions": [12, 1600, "v", 24000], "internal_node_id": "0.0-136.0", "trial": 5, "time_elapsed": 893107, "serialpos": 5, "key_press": -1, "wordID": 542, "type": "PRES_VIS", "trial_index": 190}, "uniqueid": "MTK2577:3GS6S824SR409QE43BUNE2PMHFWWN1", "dateTime": 1519075258995}, {"current_trial": 191, "trialdata": {"rt": -1, "trial_type": "single-stim", "word": "beaker", "stimulus": "<p id=\"stim\">BEAKER</p>", "conditions": [12, 1600, "v", 24000], "internal_node_id": "0.0-137.0", "trial": 5, "time_elapsed": 895824, "serialpos": 6, "key_press": -1, "wordID": 103, "type": "PRES_VIS", "trial_index": 191}, "uniqueid": "MTK2577:3GS6S824SR409QE43BUNE2PMHFWWN1", "dateTime": 1519075261712}, {"current_trial": 192, "trialdata": {"rt": -1, "trial_type": "single-stim", "word": "flask", "stimulus": "<p id=\"stim\">FLASK</p>", "conditions": [12, 1600, "v", 24000], "internal_node_id": "0.0-138.0", "trial": 5, "time_elapsed": 898409, "serialpos": 7, "key_press": -1, "wordID": 575, "type": "PRES_VIS", "trial_index": 192}, "uniqueid": "MTK2577:3GS6S824SR409QE43BUNE2PMHFWWN1", "dateTime": 1519075264297}, {"current_trial": 193, "trialdata": {"rt": -1, "trial_type": "single-stim", "word": "fiddle", "stimulus": "<p id=\"stim\">FIDDLE</p>", "conditions": [12, 1600, "v", 24000], "internal_node_id": "0.0-139.0", "trial": 5, "time_elapsed": 900864, "serialpos": 8, "key_press": -1, "wordID": 560, "type": "PRES_VIS", "trial_index": 193}, "uniqueid": "MTK2577:3GS6S824SR409QE43BUNE2PMHFWWN1", "dateTime": 1519075266752}, {"current_trial": 194, "trialdata": {"rt": -1, "trial_type": "single-stim", "word": "penguin", "stimulus": "<p id=\"stim\">PENGUIN</p>", "conditions": [12, 1600, "v", 24000], "internal_node_id": "0.0-140.0", "trial": 5, "time_elapsed": 903679, "serialpos": 9, "key_press": -1, "wordID": 1043, "type": "PRES_VIS", "trial_index": 194}, "uniqueid": "MTK2577:3GS6S824SR409QE43BUNE2PMHFWWN1", "dateTime": 1519075269568}, {"current_trial": 195, "trialdata": {"rt": -1, "trial_type": "single-stim", "word": "antler", "stimulus": "<p id=\"stim\">ANTLER</p>", "conditions": [12, 1600, "v", 24000], "internal_node_id": "0.0-141.0", "trial": 5, "time_elapsed": 906198, "serialpos": 10, "key_press": -1, "wordID": 28, "type": "PRES_VIS", "trial_index": 195}, "uniqueid": "MTK2577:3GS6S824SR409QE43BUNE2PMHFWWN1", "dateTime": 1519075272086}, {"current_trial": 196, "trialdata": {"rt": -1, "trial_type": "single-stim", "word": "trombone", "stimulus": "<p id=\"stim\">TROMBONE</p>", "conditions": [12, 1600, "v", 24000], "internal_node_id": "0.0-142.0", "trial": 5, "time_elapsed": 909004, "serialpos": 11, "key_press": -1, "wordID": 1507, "type": "PRES_VIS", "trial_index": 196}, "uniqueid": "MTK2577:3GS6S824SR409QE43BUNE2PMHFWWN1", "dateTime": 1519075274892}, {"current_trial": 197, "trialdata": {"rt": -1, "trial_type": "single-stim", "stimulus": "", "internal_node_id": "0.0-143.0-0.0", "time_elapsed": 911296, "key_press": -1, "type": "PRE_RECALL_DELAY", "trial_index": 197}, "uniqueid": "MTK2577:3GS6S824SR409QE43BUNE2PMHFWWN1", "dateTime": 1519075277185}, {"current_trial": 198, "trialdata": {"rt": -1000, "trial_type": "single-audio", "stimulus": "/static/audio/400Hz.wav", "internal_node_id": "0.0-144.0", "time_elapsed": 911798, "key_press": -1, "type": "PRE_RECALL_ALERT", "trial_index": 198}, "uniqueid": "MTK2577:3GS6S824SR409QE43BUNE2PMHFWWN1", "dateTime": 1519075277686}, {"current_trial": 199, "trialdata": {"rt": [3308, 4660, 6468, 6628, 8436, 9807, 12388, 13692, 15700], "recwords": ["trombone", "antler", "penguin", "", "fiddle", "beaker", "flask", "banquet", "coin"], "key_times": [1612, 1812, 1956, 2012, 2084, 2356, 2404, 2492, 3308, 3740, 3854, 3948, 4076, 4167, 4212, 4660, 5228, 5334, 5430, 5540, 5653, 5724, 5886, 6468, 6628, 7044, 7428, 7500, 7644, 7717, 7836, 8436, 8956, 9148, 9228, 9366, 9438, 9492, 9807, 10236, 10372, 10493, 10820, 11004, 12388, 12708, 12844, 12892, 13068, 13182, 13286, 13332, 13692, 13996, 14172, 14236, 14636, 14764, 14956, 15028, 15092, 15700], "trial_type": "free-recall", "conditions": [12, 1600, "v", 24000], "internal_node_id": "0.0-145.0-0.0", "key_presses": [84, 82, 79, 77, 66, 79, 78, 69, 13, 65, 78, 84, 76, 69, 82, 13, 80, 69, 78, 71, 85, 73, 78, 13, 13, 70, 73, 68, 68, 76, 69, 32, 66, 69, 65, 75, 69, 82, 32, 70, 76, 65, 83, 75, 32, 66, 65, 78, 81, 85, 69, 84, 32, 67, 73, 78, 8, 8, 79, 73, 78, 32], "trial": 5, "time_elapsed": 971800, "type": "FREE_RECALL", "trial_index": 199}, "uniqueid": "MTK2577:3GS6S824SR409QE43BUNE2PMHFWWN1", "dateTime": 1519075337693}, {"current_trial": 200, "trialdata": {"rt": 1059, "trial_type": "text", "internal_node_id": "0.0-146.0", "time_elapsed": 974877, "key_press": 32, "type": "INSTRUCTIONS", "trial_index": 200}, "uniqueid": "MTK2577:3GS6S824SR409QE43BUNE2PMHFWWN1", "dateTime": 1519075340765}, {"current_trial": 201, "trialdata": {"rt": [2264, 3968, 6568, 8248, 9632], "trial_type": "math-distractor", "key_times": [1929, 2264, 3536, 3752, 3968, 5752, 6344, 6568, 7808, 8016, 8248, 9361, 9632, 11657, 11888], "responses": ["8", "13", "13", "16", "7"], "num2": [2, 3, 8, 6, 2, 9], "num3": [4, 2, 1, 5, 2, 1], "conditions": [12, 1600, "v", 12000], "internal_node_id": "0.0-147.0", "key_presses": [104, 13, 97, 99, 13, 97, 99, 13, 97, 102, 13, 103, 13, 97, 105], "trial": 6, "time_elapsed": 988900, "type": "DISTRACTOR", "trial_index": 201, "num1": [2, 8, 4, 5, 3, 9]}, "uniqueid": "MTK2577:3GS6S824SR409QE43BUNE2PMHFWWN1", "dateTime": 1519075354788}, {"current_trial": 202, "trialdata": {"rt": -1, "trial_type": "single-stim", "stimulus": "<p id=\"stim\">10</p>", "internal_node_id": "0.0-148.0-0.0", "time_elapsed": 991917, "key_press": -1, "trial_index": 202}, "uniqueid": "MTK2577:3GS6S824SR409QE43BUNE2PMHFWWN1", "dateTime": 1519075357805}, {"current_trial": 203, "trialdata": {"rt": -1, "trial_type": "single-stim", "stimulus": "<p id=\"stim\">9</p>", "internal_node_id": "0.0-148.0-1.0", "time_elapsed": 992907, "key_press": -1, "trial_index": 203}, "uniqueid": "MTK2577:3GS6S824SR409QE43BUNE2PMHFWWN1", "dateTime": 1519075358796}, {"current_trial": 204, "trialdata": {"rt": -1, "trial_type": "single-stim", "stimulus": "<p id=\"stim\">8</p>", "internal_node_id": "0.0-148.0-2.0", "time_elapsed": 993908, "key_press": -1, "trial_index": 204}, "uniqueid": "MTK2577:3GS6S824SR409QE43BUNE2PMHFWWN1", "dateTime": 1519075359796}, {"current_trial": 205, "trialdata": {"rt": -1, "trial_type": "single-stim", "stimulus": "<p id=\"stim\">7</p>", "internal_node_id": "0.0-148.0-3.0", "time_elapsed": 994912, "key_press": -1, "trial_index": 205}, "uniqueid": "MTK2577:3GS6S824SR409QE43BUNE2PMHFWWN1", "dateTime": 1519075360801}, {"current_trial": 206, "trialdata": {"rt": -1, "trial_type": "single-stim", "stimulus": "<p id=\"stim\">6</p>", "internal_node_id": "0.0-148.0-4.0", "time_elapsed": 995917, "key_press": -1, "trial_index": 206}, "uniqueid": "MTK2577:3GS6S824SR409QE43BUNE2PMHFWWN1", "dateTime": 1519075361805}, {"current_trial": 207, "trialdata": {"rt": -1, "trial_type": "single-stim", "stimulus": "<p id=\"stim\">5</p>", "internal_node_id": "0.0-148.0-5.0", "time_elapsed": 996917, "key_press": -1, "trial_index": 207}, "uniqueid": "MTK2577:3GS6S824SR409QE43BUNE2PMHFWWN1", "dateTime": 1519075362806}, {"current_trial": 208, "trialdata": {"rt": -1, "trial_type": "single-stim", "stimulus": "<p id=\"stim\">4</p>", "internal_node_id": "0.0-148.0-6.0", "time_elapsed": 997920, "key_press": -1, "trial_index": 208}, "uniqueid": "MTK2577:3GS6S824SR409QE43BUNE2PMHFWWN1", "dateTime": 1519075363808}, {"current_trial": 209, "trialdata": {"rt": -1, "trial_type": "single-stim", "stimulus": "<p id=\"stim\">3</p>", "internal_node_id": "0.0-148.0-7.0", "time_elapsed": 998933, "key_press": -1, "trial_index": 209}, "uniqueid": "MTK2577:3GS6S824SR409QE43BUNE2PMHFWWN1", "dateTime": 1519075364822}, {"current_trial": 210, "trialdata": {"rt": -1, "trial_type": "single-stim", "stimulus": "<p id=\"stim\">2</p>", "internal_node_id": "0.0-148.0-8.0", "time_elapsed": 999930, "key_press": -1, "trial_index": 210}, "uniqueid": "MTK2577:3GS6S824SR409QE43BUNE2PMHFWWN1", "dateTime": 1519075365818}, {"current_trial": 211, "trialdata": {"rt": -1, "trial_type": "single-stim", "stimulus": "<p id=\"stim\">1</p>", "internal_node_id": "0.0-148.0-9.0", "time_elapsed": 1000919, "key_press": -1, "trial_index": 211}, "uniqueid": "MTK2577:3GS6S824SR409QE43BUNE2PMHFWWN1", "dateTime": 1519075366807}, {"current_trial": 212, "trialdata": {"rt": -1, "trial_type": "single-stim", "stimulus": "<p id=\"stim\">+</p>", "internal_node_id": "0.0-149.0-0.0", "time_elapsed": 1002426, "key_press": -1, "type": "FIXATION", "trial_index": 212}, "uniqueid": "MTK2577:3GS6S824SR409QE43BUNE2PMHFWWN1", "dateTime": 1519075368314}, {"current_trial": 213, "trialdata": {"rt": -1, "trial_type": "single-stim", "word": "pasta", "stimulus": "<p id=\"stim\">PASTA</p>", "conditions": [12, 1600, "v", 12000], "internal_node_id": "0.0-150.0", "trial": 6, "time_elapsed": 1004035, "serialpos": 0, "key_press": -1, "wordID": 1020, "type": "PRES_VIS", "trial_index": 213}, "uniqueid": "MTK2577:3GS6S824SR409QE43BUNE2PMHFWWN1", "dateTime": 1519075369924}, {"current_trial": 214, "trialdata": {"rt": -1, "trial_type": "single-stim", "word": "scarecrow", "stimulus": "<p id=\"stim\">SCARECROW</p>", "conditions": [12, 1600, "v", 12000], "internal_node_id": "0.0-151.0", "trial": 6, "time_elapsed": 1006511, "serialpos": 1, "key_press": -1, "wordID": 1244, "type": "PRES_VIS", "trial_index": 214}, "uniqueid": "MTK2577:3GS6S824SR409QE43BUNE2PMHFWWN1", "dateTime": 1519075372399}, {"current_trial": 215, "trialdata": {"rt": -1, "trial_type": "single-stim", "word": "toaster", "stimulus": "<p id=\"stim\">TOASTER</p>", "conditions": [12, 1600, "v", 12000], "internal_node_id": "0.0-152.0", "trial": 6, "time_elapsed": 1009195, "serialpos": 2, "key_press": -1, "wordID": 1471, "type": "PRES_VIS", "trial_index": 215}, "uniqueid": "MTK2577:3GS6S824SR409QE43BUNE2PMHFWWN1", "dateTime": 1519075375083}, {"current_trial": 216, "trialdata": {"rt": -1, "trial_type": "single-stim", "word": "item", "stimulus": "<p id=\"stim\">ITEM</p>", "conditions": [12, 1600, "v", 12000], "internal_node_id": "0.0-153.0", "trial": 6, "time_elapsed": 1011955, "serialpos": 3, "key_press": -1, "wordID": 745, "type": "PRES_VIS", "trial_index": 216}, "uniqueid": "MTK2577:3GS6S824SR409QE43BUNE2PMHFWWN1", "dateTime": 1519075377844}, {"current_trial": 217, "trialdata": {"rt": -1, "trial_type": "single-stim", "word": "tweezers", "stimulus": "<p id=\"stim\">TWEEZERS</p>", "conditions": [12, 1600, "v", 12000], "internal_node_id": "0.0-154.0", "trial": 6, "time_elapsed": 1014760, "serialpos": 4, "key_press": -1, "wordID": 1525, "type": "PRES_VIS", "trial_index": 217}, "uniqueid": "MTK2577:3GS6S824SR409QE43BUNE2PMHFWWN1", "dateTime": 1519075380648}, {"current_trial": 218, "trialdata": {"rt": -1, "trial_type": "single-stim", "word": "scissors", "stimulus": "<p id=\"stim\">SCISSORS</p>", "conditions": [12, 1600, "v", 12000], "internal_node_id": "0.0-155.0", "trial": 6, "time_elapsed": 1017332, "serialpos": 5, "key_press": -1, "wordID": 1249, "type": "PRES_VIS", "trial_index": 218}, "uniqueid": "MTK2577:3GS6S824SR409QE43BUNE2PMHFWWN1", "dateTime": 1519075383220}, {"current_trial": 219, "trialdata": {"rt": -1, "trial_type": "single-stim", "word": "friend", "stimulus": "<p id=\"stim\">FRIEND</p>", "conditions": [12, 1600, "v", 12000], "internal_node_id": "0.0-156.0", "trial": 6, "time_elapsed": 1019952, "serialpos": 6, "key_press": -1, "wordID": 605, "type": "PRES_VIS", "trial_index": 219}, "uniqueid": "MTK2577:3GS6S824SR409QE43BUNE2PMHFWWN1", "dateTime": 1519075385840}, {"current_trial": 220, "trialdata": {"rt": -1, "trial_type": "single-stim", "word": "nomad", "stimulus": "<p id=\"stim\">NOMAD</p>", "conditions": [12, 1600, "v", 12000], "internal_node_id": "0.0-157.0", "trial": 6, "time_elapsed": 1022783, "serialpos": 7, "key_press": -1, "wordID": 954, "type": "PRES_VIS", "trial_index": 220}, "uniqueid": "MTK2577:3GS6S824SR409QE43BUNE2PMHFWWN1", "dateTime": 1519075388672}, {"current_trial": 221, "trialdata": {"rt": -1, "trial_type": "single-stim", "word": "knapsack", "stimulus": "<p id=\"stim\">KNAPSACK</p>", "conditions": [12, 1600, "v", 12000], "internal_node_id": "0.0-158.0", "trial": 6, "time_elapsed": 1025348, "serialpos": 8, "key_press": -1, "wordID": 782, "type": "PRES_VIS", "trial_index": 221}, "uniqueid": "MTK2577:3GS6S824SR409QE43BUNE2PMHFWWN1", "dateTime": 1519075391236}, {"current_trial": 222, "trialdata": {"rt": -1, "trial_type": "single-stim", "word": "asia", "stimulus": "<p id=\"stim\">ASIA</p>", "conditions": [12, 1600, "v", 12000], "internal_node_id": "0.0-159.0", "trial": 6, "time_elapsed": 1027886, "serialpos": 9, "key_press": -1, "wordID": 45, "type": "PRES_VIS", "trial_index": 222}, "uniqueid": "MTK2577:3GS6S824SR409QE43BUNE2PMHFWWN1", "dateTime": 1519075393774}, {"current_trial": 223, "trialdata": {"rt": -1, "trial_type": "single-stim", "word": "shortcake", "stimulus": "<p id=\"stim\">SHORTCAKE</p>", "conditions": [12, 1600, "v", 12000], "internal_node_id": "0.0-160.0", "trial": 6, "time_elapsed": 1030461, "serialpos": 10, "key_press": -1, "wordID": 1291, "type": "PRES_VIS", "trial_index": 223}, "uniqueid": "MTK2577:3GS6S824SR409QE43BUNE2PMHFWWN1", "dateTime": 1519075396349}, {"current_trial": 224, "trialdata": {"rt": -1, "trial_type": "single-stim", "word": "body", "stimulus": "<p id=\"stim\">BODY</p>", "conditions": [12, 1600, "v", 12000], "internal_node_id": "0.0-161.0", "trial": 6, "time_elapsed": 1033011, "serialpos": 11, "key_press": -1, "wordID": 144, "type": "PRES_VIS", "trial_index": 224}, "uniqueid": "MTK2577:3GS6S824SR409QE43BUNE2PMHFWWN1", "dateTime": 1519075398899}, {"current_trial": 225, "trialdata": {"rt": -1, "trial_type": "single-stim", "stimulus": "", "internal_node_id": "0.0-162.0-0.0", "time_elapsed": 1035247, "key_press": -1, "type": "PRE_RECALL_DELAY", "trial_index": 225}, "uniqueid": "MTK2577:3GS6S824SR409QE43BUNE2PMHFWWN1", "dateTime": 1519075401135}, {"current_trial": 226, "trialdata": {"rt": -1000, "trial_type": "single-audio", "stimulus": "/static/audio/400Hz.wav", "internal_node_id": "0.0-163.0", "time_elapsed": 1035764, "key_press": -1, "type": "PRE_RECALL_ALERT", "trial_index": 226}, "uniqueid": "MTK2577:3GS6S824SR409QE43BUNE2PMHFWWN1", "dateTime": 1519075401652}, {"current_trial": 227, "trialdata": {"rt": [2791, 4439, 5479, 7543, 9143, 10255, 12095, 13527], "recwords": ["shortcake", "body", "asia", "knapsack", "toaster", "item", "tweezers", "scissors"], "key_times": [1223, 1351, 1415, 1521, 1679, 2119, 2263, 2361, 2455, 2791, 3359, 3664, 3816, 4015, 4439, 4663, 4743, 4927, 5231, 5479, 5951, 6055, 6191, 6318, 6671, 6895, 7039, 7137, 7543, 7815, 7983, 8097, 8207, 8343, 8575, 8623, 9143, 9439, 9591, 9847, 10007, 10255, 10639, 10775, 10895, 11287, 11479, 11535, 11615, 11759, 12095, 12271, 12463, 12535, 12711, 12855, 12928, 13055, 13119, 13527], "trial_type": "free-recall", "conditions": [12, 1600, "v", 12000], "internal_node_id": "0.0-164.0-0.0", "key_presses": [83, 72, 79, 82, 84, 67, 65, 75, 69, 13, 66, 79, 68, 89, 13, 65, 83, 73, 65, 13, 75, 78, 65, 80, 83, 65, 67, 75, 13, 84, 79, 65, 83, 84, 69, 82, 13, 73, 84, 69, 77, 13, 84, 87, 69, 69, 90, 69, 82, 83, 13, 83, 67, 73, 83, 83, 79, 82, 83, 13], "trial": 6, "time_elapsed": 1095773, "type": "FREE_RECALL", "trial_index": 227}, "uniqueid": "MTK2577:3GS6S824SR409QE43BUNE2PMHFWWN1", "dateTime": 1519075461666}, {"current_trial": 228, "trialdata": {"rt": 2632, "trial_type": "text", "internal_node_id": "0.0-165.0", "time_elapsed": 1100421, "key_press": 32, "type": "INSTRUCTIONS", "trial_index": 228}, "uniqueid": "MTK2577:3GS6S824SR409QE43BUNE2PMHFWWN1", "dateTime": 1519075466309}, {"current_trial": 229, "trialdata": {"rt": [2331, 5011, 7483, 10643], "trial_type": "math-distractor", "key_times": [1827, 2011, 2331, 4563, 4763, 5011, 6747, 6915, 7483, 10211, 10395, 10643], "responses": ["17", "18", "11", "24"], "num2": [8, 4, 6, 6, 8], "num3": [8, 7, 2, 9, 7], "conditions": [12, 800, "v", 12000], "internal_node_id": "0.0-166.0", "key_presses": [97, 103, 13, 97, 104, 13, 97, 97, 13, 98, 100, 13], "trial": 7, "time_elapsed": 1114434, "type": "DISTRACTOR", "trial_index": 229, "num1": [1, 7, 3, 9, 6]}, "uniqueid": "MTK2577:3GS6S824SR409QE43BUNE2PMHFWWN1", "dateTime": 1519075480322}, {"current_trial": 230, "trialdata": {"rt": -1, "trial_type": "single-stim", "stimulus": "<p id=\"stim\">10</p>", "internal_node_id": "0.0-167.0-0.0", "time_elapsed": 1117437, "key_press": -1, "trial_index": 230}, "uniqueid": "MTK2577:3GS6S824SR409QE43BUNE2PMHFWWN1", "dateTime": 1519075483325}, {"current_trial": 231, "trialdata": {"rt": -1, "trial_type": "single-stim", "stimulus": "<p id=\"stim\">9</p>", "internal_node_id": "0.0-167.0-1.0", "time_elapsed": 1118453, "key_press": -1, "trial_index": 231}, "uniqueid": "MTK2577:3GS6S824SR409QE43BUNE2PMHFWWN1", "dateTime": 1519075484342}, {"current_trial": 232, "trialdata": {"rt": -1, "trial_type": "single-stim", "stimulus": "<p id=\"stim\">8</p>", "internal_node_id": "0.0-167.0-2.0", "time_elapsed": 1119435, "key_press": -1, "trial_index": 232}, "uniqueid": "MTK2577:3GS6S824SR409QE43BUNE2PMHFWWN1", "dateTime": 1519075485323}, {"current_trial": 233, "trialdata": {"rt": -1, "trial_type": "single-stim", "stimulus": "<p id=\"stim\">7</p>", "internal_node_id": "0.0-167.0-3.0", "time_elapsed": 1120438, "key_press": -1, "trial_index": 233}, "uniqueid": "MTK2577:3GS6S824SR409QE43BUNE2PMHFWWN1", "dateTime": 1519075486326}, {"current_trial": 234, "trialdata": {"rt": -1, "trial_type": "single-stim", "stimulus": "<p id=\"stim\">6</p>", "internal_node_id": "0.0-167.0-4.0", "time_elapsed": 1121444, "key_press": -1, "trial_index": 234}, "uniqueid": "MTK2577:3GS6S824SR409QE43BUNE2PMHFWWN1", "dateTime": 1519075487332}, {"current_trial": 235, "trialdata": {"rt": -1, "trial_type": "single-stim", "stimulus": "<p id=\"stim\">5</p>", "internal_node_id": "0.0-167.0-5.0", "time_elapsed": 1122437, "key_press": -1, "trial_index": 235}, "uniqueid": "MTK2577:3GS6S824SR409QE43BUNE2PMHFWWN1", "dateTime": 1519075488325}, {"current_trial": 236, "trialdata": {"rt": -1, "trial_type": "single-stim", "stimulus": "<p id=\"stim\">4</p>", "internal_node_id": "0.0-167.0-6.0", "time_elapsed": 1123448, "key_press": -1, "trial_index": 236}, "uniqueid": "MTK2577:3GS6S824SR409QE43BUNE2PMHFWWN1", "dateTime": 1519075489336}, {"current_trial": 237, "trialdata": {"rt": -1, "trial_type": "single-stim", "stimulus": "<p id=\"stim\">3</p>", "internal_node_id": "0.0-167.0-7.0", "time_elapsed": 1124440, "key_press": -1, "trial_index": 237}, "uniqueid": "MTK2577:3GS6S824SR409QE43BUNE2PMHFWWN1", "dateTime": 1519075490328}, {"current_trial": 238, "trialdata": {"rt": -1, "trial_type": "single-stim", "stimulus": "<p id=\"stim\">2</p>", "internal_node_id": "0.0-167.0-8.0", "time_elapsed": 1125437, "key_press": -1, "trial_index": 238}, "uniqueid": "MTK2577:3GS6S824SR409QE43BUNE2PMHFWWN1", "dateTime": 1519075491325}, {"current_trial": 239, "trialdata": {"rt": -1, "trial_type": "single-stim", "stimulus": "<p id=\"stim\">1</p>", "internal_node_id": "0.0-167.0-9.0", "time_elapsed": 1126438, "key_press": -1, "trial_index": 239}, "uniqueid": "MTK2577:3GS6S824SR409QE43BUNE2PMHFWWN1", "dateTime": 1519075492327}, {"current_trial": 240, "trialdata": {"rt": -1, "trial_type": "single-stim", "stimulus": "<p id=\"stim\">+</p>", "internal_node_id": "0.0-168.0-0.0", "time_elapsed": 1127954, "key_press": -1, "type": "FIXATION", "trial_index": 240}, "uniqueid": "MTK2577:3GS6S824SR409QE43BUNE2PMHFWWN1", "dateTime": 1519075493842}, {"current_trial": 241, "trialdata": {"rt": -1, "trial_type": "single-stim", "word": "france", "stimulus": "<p id=\"stim\">FRANCE</p>", "conditions": [12, 800, "v", 12000], "internal_node_id": "0.0-169.0", "trial": 7, "time_elapsed": 1128766, "serialpos": 0, "key_press": -1, "wordID": 600, "type": "PRES_VIS", "trial_index": 241}, "uniqueid": "MTK2577:3GS6S824SR409QE43BUNE2PMHFWWN1", "dateTime": 1519075494654}, {"current_trial": 242, "trialdata": {"rt": -1, "trial_type": "single-stim", "word": "highway", "stimulus": "<p id=\"stim\">HIGHWAY</p>", "conditions": [12, 800, "v", 12000], "internal_node_id": "0.0-170.0", "trial": 7, "time_elapsed": 1130695, "serialpos": 1, "key_press": -1, "wordID": 706, "type": "PRES_VIS", "trial_index": 242}, "uniqueid": "MTK2577:3GS6S824SR409QE43BUNE2PMHFWWN1", "dateTime": 1519075496583}, {"current_trial": 243, "trialdata": {"rt": -1, "trial_type": "single-stim", "word": "crown", "stimulus": "<p id=\"stim\">CROWN</p>", "conditions": [12, 800, "v", 12000], "internal_node_id": "0.0-171.0", "trial": 7, "time_elapsed": 1132374, "serialpos": 2, "key_press": -1, "wordID": 414, "type": "PRES_VIS", "trial_index": 243}, "uniqueid": "MTK2577:3GS6S824SR409QE43BUNE2PMHFWWN1", "dateTime": 1519075498262}, {"current_trial": 244, "trialdata": {"rt": -1, "trial_type": "single-stim", "word": "curtain", "stimulus": "<p id=\"stim\">CURTAIN</p>", "conditions": [12, 800, "v", 12000], "internal_node_id": "0.0-172.0", "trial": 7, "time_elapsed": 1134097, "serialpos": 3, "key_press": -1, "wordID": 426, "type": "PRES_VIS", "trial_index": 244}, "uniqueid": "MTK2577:3GS6S824SR409QE43BUNE2PMHFWWN1", "dateTime": 1519075499986}, {"current_trial": 245, "trialdata": {"rt": -1, "trial_type": "single-stim", "word": "velvet", "stimulus": "<p id=\"stim\">VELVET</p>", "conditions": [12, 800, "v", 12000], "internal_node_id": "0.0-173.0", "trial": 7, "time_elapsed": 1135751, "serialpos": 4, "key_press": -1, "wordID": 1554, "type": "PRES_VIS", "trial_index": 245}, "uniqueid": "MTK2577:3GS6S824SR409QE43BUNE2PMHFWWN1", "dateTime": 1519075501640}, {"current_trial": 246, "trialdata": {"rt": -1, "trial_type": "single-stim", "word": "spool", "stimulus": "<p id=\"stim\">SPOOL</p>", "conditions": [12, 800, "v", 12000], "internal_node_id": "0.0-174.0", "trial": 7, "time_elapsed": 1137420, "serialpos": 5, "key_press": -1, "wordID": 1355, "type": "PRES_VIS", "trial_index": 246}, "uniqueid": "MTK2577:3GS6S824SR409QE43BUNE2PMHFWWN1", "dateTime": 1519075503308}, {"current_trial": 247, "trialdata": {"rt": -1, "trial_type": "single-stim", "word": "cook", "stimulus": "<p id=\"stim\">COOK</p>", "conditions": [12, 800, "v", 12000], "internal_node_id": "0.0-175.0", "trial": 7, "time_elapsed": 1139130, "serialpos": 6, "key_press": -1, "wordID": 371, "type": "PRES_VIS", "trial_index": 247}, "uniqueid": "MTK2577:3GS6S824SR409QE43BUNE2PMHFWWN1", "dateTime": 1519075505018}, {"current_trial": 248, "trialdata": {"rt": -1, "trial_type": "single-stim", "word": "widow", "stimulus": "<p id=\"stim\">WIDOW</p>", "conditions": [12, 800, "v", 12000], "internal_node_id": "0.0-176.0", "trial": 7, "time_elapsed": 1140875, "serialpos": 7, "key_press": -1, "wordID": 1607, "type": "PRES_VIS", "trial_index": 248}, "uniqueid": "MTK2577:3GS6S824SR409QE43BUNE2PMHFWWN1", "dateTime": 1519075506763}, {"current_trial": 249, "trialdata": {"rt": -1, "trial_type": "single-stim", "word": "rabbit", "stimulus": "<p id=\"stim\">RABBIT</p>", "conditions": [12, 800, "v", 12000], "internal_node_id": "0.0-177.0", "trial": 7, "time_elapsed": 1142718, "serialpos": 8, "key_press": -1, "wordID": 1151, "type": "PRES_VIS", "trial_index": 249}, "uniqueid": "MTK2577:3GS6S824SR409QE43BUNE2PMHFWWN1", "dateTime": 1519075508606}, {"current_trial": 250, "trialdata": {"rt": -1, "trial_type": "single-stim", "word": "rooster", "stimulus": "<p id=\"stim\">ROOSTER</p>", "conditions": [12, 800, "v", 12000], "internal_node_id": "0.0-178.0", "trial": 7, "time_elapsed": 1144667, "serialpos": 9, "key_press": -1, "wordID": 1208, "type": "PRES_VIS", "trial_index": 250}, "uniqueid": "MTK2577:3GS6S824SR409QE43BUNE2PMHFWWN1", "dateTime": 1519075510555}, {"current_trial": 251, "trialdata": {"rt": -1, "trial_type": "single-stim", "word": "japan", "stimulus": "<p id=\"stim\">JAPAN</p>", "conditions": [12, 800, "v", 12000], "internal_node_id": "0.0-179.0", "trial": 7, "time_elapsed": 1146469, "serialpos": 10, "key_press": -1, "wordID": 748, "type": "PRES_VIS", "trial_index": 251}, "uniqueid": "MTK2577:3GS6S824SR409QE43BUNE2PMHFWWN1", "dateTime": 1519075512357}, {"current_trial": 252, "trialdata": {"rt": -1, "trial_type": "single-stim", "word": "motor", "stimulus": "<p id=\"stim\">MOTOR</p>", "conditions": [12, 800, "v", 12000], "internal_node_id": "0.0-180.0", "trial": 7, "time_elapsed": 1148220, "serialpos": 11, "key_press": -1, "wordID": 921, "type": "PRES_VIS", "trial_index": 252}, "uniqueid": "MTK2577:3GS6S824SR409QE43BUNE2PMHFWWN1", "dateTime": 1519075514108}, {"current_trial": 253, "trialdata": {"rt": -1, "trial_type": "single-stim", "stimulus": "", "internal_node_id": "0.0-181.0-0.0", "time_elapsed": 1150549, "key_press": -1, "type": "PRE_RECALL_DELAY", "trial_index": 253}, "uniqueid": "MTK2577:3GS6S824SR409QE43BUNE2PMHFWWN1", "dateTime": 1519075516437}, {"current_trial": 254, "trialdata": {"rt": -1000, "trial_type": "single-audio", "stimulus": "/static/audio/400Hz.wav", "internal_node_id": "0.0-182.0", "time_elapsed": 1151065, "key_press": -1, "type": "PRE_RECALL_ALERT", "trial_index": 254}, "uniqueid": "MTK2577:3GS6S824SR409QE43BUNE2PMHFWWN1", "dateTime": 1519075516953}, {"current_trial": 255, "trialdata": {"rt": [2505, 4009, 6113, 7237, 10065, 11121, 12585, 22097], "recwords": ["motor", "japan", "rooster", "rabbit", "france", "crown", "velvet", "highway"], "key_times": [1729, 1835, 2001, 2090, 2273, 2505, 3211, 3329, 3425, 3553, 3641, 4009, 5297, 5424, 5577, 5633, 5737, 5881, 5953, 6113, 6385, 6475, 6657, 6825, 6891, 7041, 7237, 9233, 9401, 9499, 9595, 9690, 9865, 10065, 10401, 10569, 10681, 10809, 10899, 11121, 11529, 11689, 11817, 12145, 12296, 12385, 12585, 21089, 21161, 21281, 21370, 21481, 21545, 21649, 22097], "trial_type": "free-recall", "conditions": [12, 800, "v", 12000], "internal_node_id": "0.0-183.0-0.0", "key_presses": [77, 79, 84, 79, 82, 32, 74, 65, 80, 65, 78, 13, 82, 79, 79, 83, 84, 69, 82, 13, 82, 65, 66, 66, 73, 84, 13, 70, 82, 65, 78, 67, 69, 13, 67, 82, 79, 87, 78, 13, 86, 69, 76, 86, 69, 84, 13, 72, 73, 71, 72, 87, 65, 89, 13], "trial": 7, "time_elapsed": 1211079, "type": "FREE_RECALL", "trial_index": 255}, "uniqueid": "MTK2577:3GS6S824SR409QE43BUNE2PMHFWWN1", "dateTime": 1519075576973}, {"current_trial": 256, "trialdata": {"rt": 665, "trial_type": "text", "internal_node_id": "0.0-184.0", "time_elapsed": 1213756, "key_press": 32, "type": "INSTRUCTIONS", "trial_index": 256}, "uniqueid": "MTK2577:3GS6S824SR409QE43BUNE2PMHFWWN1", "dateTime": 1519075579645}, {"current_trial": 257, "trialdata": {"rt": [3002, 5890, 8706, 10946], "trial_type": "math-distractor", "key_times": [2650, 2756, 3002, 5538, 5690, 5890, 7986, 8154, 8706, 10450, 10618, 10946], "responses": ["15", "11", "22", "15"], "num2": [5, 1, 5, 7, 4], "num3": [3, 4, 8, 2, 8], "conditions": [12, 800, "v", 12000], "internal_node_id": "0.0-185.0", "key_presses": [97, 101, 13, 97, 97, 13, 98, 98, 13, 97, 101, 13], "trial": 8, "time_elapsed": 1227773, "type": "DISTRACTOR", "trial_index": 257, "num1": [7, 6, 9, 6, 7]}, "uniqueid": "MTK2577:3GS6S824SR409QE43BUNE2PMHFWWN1", "dateTime": 1519075593661}, {"current_trial": 258, "trialdata": {"rt": -1, "trial_type": "single-stim", "stimulus": "<p id=\"stim\">10</p>", "internal_node_id": "0.0-186.0-0.0", "time_elapsed": 1230785, "key_press": -1, "trial_index": 258}, "