{"assignmentId": "3SBEHTYCWOACKUYDLWZJUREL7Z7IYY", "workerId": "MTK2867", "questiondata": {"avail_screen_height": 856, "color_depth": 24, "screen_width": 1607, "pixel_depth": 24, "avail_screen_width": 1607, "screen_height": 904}, "bonus": 0, "hitId": "3Y7LTZE0YTTFBR5OLXLE2HFEMBJZUD", "counterbalance": 1085, "useragent": "Mozilla/5.0 (Windows NT 10.0; Win64; x64) AppleWebKit/537.36 (KHTML, like Gecko) Chrome/58.0.3029.110 Safari/537.36 Edge/16.16299", "eventdata": [{"eventtype": "initialized", "interval": 0, "value": null, "timestamp": 1519420733696}, {"eventtype": "window_resize", "interval": 0, "value": [1607, 766], "timestamp": 1519420733696}, {"eventtype": "focus", "interval": 1010, "value": "on", "timestamp": 1519420734706}, {"eventtype": "focus", "interval": 2722828, "value": "off", "timestamp": 1519423457534}, {"eventtype": "focus", "interval": 46911, "value": "on", "timestamp": 1519423504445}, {"eventtype": "focus", "interval": 186201, "value": "off", "timestamp": 1519423690646}, {"eventtype": "focus", "interval": 9563, "value": "on", "timestamp": 1519423700209}, {"eventtype": "focus", "interval": 62060, "value": "off", "timestamp": 1519423762269}, {"eventtype": "focus", "interval": 4195, "value": "on", "timestamp": 1519423766464}], "data": [{"current_trial": 0, "trialdata": {"rt": 1942, "trial_type": "text", "internal_node_id": "0.0-0.0", "time_elapsed": 1945, "key_press": 13, "type": "INSTRUCTIONS", "trial_index": 0}, "uniqueid": "MTK2867:3SBEHTYCWOACKUYDLWZJUREL7Z7IYY", "dateTime": 1519420737729}, {"current_trial": 1, "trialdata": {"rt": 24812, "trial_type": "text", "internal_node_id": "0.0-1.0", "time_elapsed": 26760, "key_press": 13, "type": "INSTRUCTIONS", "trial_index": 1}, "uniqueid": "MTK2867:3SBEHTYCWOACKUYDLWZJUREL7Z7IYY", "dateTime": 1519420762543}, {"current_trial": 2, "trialdata": {"rt": [20997], "trial_type": "audio-test", "responses": ["ocean"], "internal_node_id": "0.0-2.0", "time_elapsed": 47792, "type": "AUDIO_TEST", "trial_index": 2}, "uniqueid": "MTK2867:3SBEHTYCWOACKUYDLWZJUREL7Z7IYY", "dateTime": 1519420783575}, {"current_trial": 3, "trialdata": {"rt": [13102], "trial_type": "audio-test", "responses": ["crystal"], "internal_node_id": "0.0-3.0", "time_elapsed": 60915, "type": "AUDIO_TEST", "trial_index": 3}, "uniqueid": "MTK2867:3SBEHTYCWOACKUYDLWZJUREL7Z7IYY", "dateTime": 1519420796698}, {"current_trial": 4, "trialdata": {"rt": [12079], "trial_type": "audio-test", "responses": ["spice"], "internal_node_id": "0.0-4.0", "time_elapsed": 73014, "type": "AUDIO_TEST", "trial_index": 4}, "uniqueid": "MTK2867:3SBEHTYCWOACKUYDLWZJUREL7Z7IYY", "dateTime": 1519420808797}, {"current_trial": 5, "trialdata": {"rt": 23057, "trial_type": "survey-text", "responses": "{\"Q0\":\"10:30 pm\",\"Q1\":\"6:30 am\",\"Q2\":\"4\"}", "internal_node_id": "0.0-5.0", "time_elapsed": 96848, "type": "SLEEP_SURVEY", "trial_index": 5}, "uniqueid": "MTK2867:3SBEHTYCWOACKUYDLWZJUREL7Z7IYY", "dateTime": 1519420832632}, {"current_trial": 6, "trialdata": {"rt": 51893, "trial_type": "text", "internal_node_id": "0.0-6.0", "time_elapsed": 149771, "key_press": 13, "type": "INSTRUCTIONS", "trial_index": 6}, "uniqueid": "MTK2867:3SBEHTYCWOACKUYDLWZJUREL7Z7IYY", "dateTime": 1519420885555}, {"current_trial": 7, "trialdata": {"rt": 18671, "trial_type": "text", "internal_node_id": "0.0-7.0", "time_elapsed": 168959, "key_press": 13, "type": "INSTRUCTIONS", "trial_index": 7}, "uniqueid": "MTK2867:3SBEHTYCWOACKUYDLWZJUREL7Z7IYY", "dateTime": 1519420904743}, {"current_trial": 8, "trialdata": {"rt": 15513, "trial_type": "text", "internal_node_id": "0.0-8.0", "time_elapsed": 184996, "key_press": 13, "type": "INSTRUCTIONS", "trial_index": 8}, "uniqueid": "MTK2867:3SBEHTYCWOACKUYDLWZJUREL7Z7IYY", "dateTime": 1519420920779}, {"current_trial": 9, "trialdata": {"rt": [5070, 14667], "trial_type": "math-distractor", "key_times": [3322, 3466, 5070, 13791, 13972, 14667], "responses": ["14", "22"], "num2": [1, 9, 9], "num3": [8, 8, 2], "conditions": [18, 1200, "v", 18000], "internal_node_id": "0.0-9.0", "key_presses": [49, 52, 13, 50, 50, 13], "trial": 0, "time_elapsed": 204028, "type": "DISTRACTOR", "trial_index": 9, "num1": [5, 5, 5]}, "uniqueid": "MTK2867:3SBEHTYCWOACKUYDLWZJUREL7Z7IYY", "dateTime": 1519420939812}, {"current_trial": 10, "trialdata": {"rt": -1, "trial_type": "single-stim", "stimulus": "<p id=\"stim\">10</p>", "internal_node_id": "0.0-10.0-0.0", "time_elapsed": 207060, "key_press": -1, "trial_index": 10}, "uniqueid": "MTK2867:3SBEHTYCWOACKUYDLWZJUREL7Z7IYY", "dateTime": 1519420942844}, {"current_trial": 11, "trialdata": {"rt": -1, "trial_type": "single-stim", "stimulus": "<p id=\"stim\">9</p>", "internal_node_id": "0.0-10.0-1.0", "time_elapsed": 208062, "key_press": -1, "trial_index": 11}, "uniqueid": "MTK2867:3SBEHTYCWOACKUYDLWZJUREL7Z7IYY", "dateTime": 1519420943845}, {"current_trial": 12, "trialdata": {"rt": -1, "trial_type": "single-stim", "stimulus": "<p id=\"stim\">8</p>", "internal_node_id": "0.0-10.0-2.0", "time_elapsed": 209063, "key_press": -1, "trial_index": 12}, "uniqueid": "MTK2867:3SBEHTYCWOACKUYDLWZJUREL7Z7IYY", "dateTime": 1519420944846}, {"current_trial": 13, "trialdata": {"rt": -1, "trial_type": "single-stim", "stimulus": "<p id=\"stim\">7</p>", "internal_node_id": "0.0-10.0-3.0", "time_elapsed": 210061, "key_press": -1, "trial_index": 13}, "uniqueid": "MTK2867:3SBEHTYCWOACKUYDLWZJUREL7Z7IYY", "dateTime": 1519420945844}, {"current_trial": 14, "trialdata": {"rt": -1, "trial_type": "single-stim", "stimulus": "<p id=\"stim\">6</p>", "internal_node_id": "0.0-10.0-4.0", "time_elapsed": 211067, "key_press": -1, "trial_index": 14}, "uniqueid": "MTK2867:3SBEHTYCWOACKUYDLWZJUREL7Z7IYY", "dateTime": 1519420946850}, {"current_trial": 15, "trialdata": {"rt": -1, "trial_type": "single-stim", "stimulus": "<p id=\"stim\">5</p>", "internal_node_id": "0.0-10.0-5.0", "time_elapsed": 212076, "key_press": -1, "trial_index": 15}, "uniqueid": "MTK2867:3SBEHTYCWOACKUYDLWZJUREL7Z7IYY", "dateTime": 1519420947860}, {"current_trial": 16, "trialdata": {"rt": -1, "trial_type": "single-stim", "stimulus": "<p id=\"stim\">4</p>", "internal_node_id": "0.0-10.0-6.0", "time_elapsed": 213075, "key_press": -1, "trial_index": 16}, "uniqueid": "MTK2867:3SBEHTYCWOACKUYDLWZJUREL7Z7IYY", "dateTime": 1519420948859}, {"current_trial": 17, "trialdata": {"rt": -1, "trial_type": "single-stim", "stimulus": "<p id=\"stim\">3</p>", "internal_node_id": "0.0-10.0-7.0", "time_elapsed": 214079, "key_press": -1, "trial_index": 17}, "uniqueid": "MTK2867:3SBEHTYCWOACKUYDLWZJUREL7Z7IYY", "dateTime": 1519420949863}, {"current_trial": 18, "trialdata": {"rt": -1, "trial_type": "single-stim", "stimulus": "<p id=\"stim\">2</p>", "internal_node_id": "0.0-10.0-8.0", "time_elapsed": 215075, "key_press": -1, "trial_index": 18}, "uniqueid": "MTK2867:3SBEHTYCWOACKUYDLWZJUREL7Z7IYY", "dateTime": 1519420950858}, {"current_trial": 19, "trialdata": {"rt": -1, "trial_type": "single-stim", "stimulus": "<p id=\"stim\">1</p>", "internal_node_id": "0.0-10.0-9.0", "time_elapsed": 216075, "key_press": -1, "trial_index": 19}, "uniqueid": "MTK2867:3SBEHTYCWOACKUYDLWZJUREL7Z7IYY", "dateTime": 1519420951858}, {"current_trial": 20, "trialdata": {"rt": -1, "trial_type": "single-stim", "stimulus": "<p id=\"stim\">+</p>", "internal_node_id": "0.0-11.0-0.0", "time_elapsed": 217602, "key_press": -1, "type": "FIXATION", "trial_index": 20}, "uniqueid": "MTK2867:3SBEHTYCWOACKUYDLWZJUREL7Z7IYY", "dateTime": 1519420953385}, {"current_trial": 21, "trialdata": {"rt": -1, "trial_type": "single-stim", "word": "survey", "stimulus": "<p id=\"stim\">SURVEY</p>", "conditions": [18, 1200, "v", 18000], "internal_node_id": "0.0-12.0", "trial": 0, "time_elapsed": 218818, "serialpos": 0, "key_press": -1, "wordID": 1413, "type": "PRES_VIS", "trial_index": 21}, "uniqueid": "MTK2867:3SBEHTYCWOACKUYDLWZJUREL7Z7IYY", "dateTime": 1519420954601}, {"current_trial": 22, "trialdata": {"rt": -1, "trial_type": "single-stim", "word": "spouse", "stimulus": "<p id=\"stim\">SPOUSE</p>", "conditions": [18, 1200, "v", 18000], "internal_node_id": "0.0-13.0", "trial": 0, "time_elapsed": 220889, "serialpos": 1, "key_press": -1, "wordID": 1357, "type": "PRES_VIS", "trial_index": 22}, "uniqueid": "MTK2867:3SBEHTYCWOACKUYDLWZJUREL7Z7IYY", "dateTime": 1519420956672}, {"current_trial": 23, "trialdata": {"rt": -1, "trial_type": "single-stim", "word": "ketchup", "stimulus": "<p id=\"stim\">KETCHUP</p>", "conditions": [18, 1200, "v", 18000], "internal_node_id": "0.0-14.0", "trial": 0, "time_elapsed": 223079, "serialpos": 2, "key_press": -1, "wordID": 770, "type": "PRES_VIS", "trial_index": 23}, "uniqueid": "MTK2867:3SBEHTYCWOACKUYDLWZJUREL7Z7IYY", "dateTime": 1519420958863}, {"current_trial": 24, "trialdata": {"rt": -1, "trial_type": "single-stim", "word": "expert", "stimulus": "<p id=\"stim\">EXPERT</p>", "conditions": [18, 1200, "v", 18000], "internal_node_id": "0.0-15.0", "trial": 0, "time_elapsed": 225185, "serialpos": 3, "key_press": -1, "wordID": 542, "type": "PRES_VIS", "trial_index": 24}, "uniqueid": "MTK2867:3SBEHTYCWOACKUYDLWZJUREL7Z7IYY", "dateTime": 1519420960968}, {"current_trial": 25, "trialdata": {"rt": -1, "trial_type": "single-stim", "word": "market", "stimulus": "<p id=\"stim\">MARKET</p>", "conditions": [18, 1200, "v", 18000], "internal_node_id": "0.0-16.0", "trial": 0, "time_elapsed": 227238, "serialpos": 4, "key_press": -1, "wordID": 870, "type": "PRES_VIS", "trial_index": 25}, "uniqueid": "MTK2867:3SBEHTYCWOACKUYDLWZJUREL7Z7IYY", "dateTime": 1519420963021}, {"current_trial": 26, "trialdata": {"rt": -1, "trial_type": "single-stim", "word": "box", "stimulus": "<p id=\"stim\">BOX</p>", "conditions": [18, 1200, "v", 18000], "internal_node_id": "0.0-17.0", "trial": 0, "time_elapsed": 229544, "serialpos": 5, "key_press": -1, "wordID": 158, "type": "PRES_VIS", "trial_index": 26}, "uniqueid": "MTK2867:3SBEHTYCWOACKUYDLWZJUREL7Z7IYY", "dateTime": 1519420965327}, {"current_trial": 27, "trialdata": {"rt": -1, "trial_type": "single-stim", "word": "foot", "stimulus": "<p id=\"stim\">FOOT</p>", "conditions": [18, 1200, "v", 18000], "internal_node_id": "0.0-18.0", "trial": 0, "time_elapsed": 231851, "serialpos": 6, "key_press": -1, "wordID": 589, "type": "PRES_VIS", "trial_index": 27}, "uniqueid": "MTK2867:3SBEHTYCWOACKUYDLWZJUREL7Z7IYY", "dateTime": 1519420967635}, {"current_trial": 28, "trialdata": {"rt": -1, "trial_type": "single-stim", "word": "cottage", "stimulus": "<p id=\"stim\">COTTAGE</p>", "conditions": [18, 1200, "v", 18000], "internal_node_id": "0.0-19.0", "trial": 0, "time_elapsed": 234171, "serialpos": 7, "key_press": -1, "wordID": 383, "type": "PRES_VIS", "trial_index": 28}, "uniqueid": "MTK2867:3SBEHTYCWOACKUYDLWZJUREL7Z7IYY", "dateTime": 1519420969954}, {"current_trial": 29, "trialdata": {"rt": -1, "trial_type": "single-stim", "word": "witness", "stimulus": "<p id=\"stim\">WITNESS</p>", "conditions": [18, 1200, "v", 18000], "internal_node_id": "0.0-20.0", "trial": 0, "time_elapsed": 236310, "serialpos": 8, "key_press": -1, "wordID": 1617, "type": "PRES_VIS", "trial_index": 29}, "uniqueid": "MTK2867:3SBEHTYCWOACKUYDLWZJUREL7Z7IYY", "dateTime": 1519420972093}, {"current_trial": 30, "trialdata": {"rt": -1, "trial_type": "single-stim", "word": "termite", "stimulus": "<p id=\"stim\">TERMITE</p>", "conditions": [18, 1200, "v", 18000], "internal_node_id": "0.0-21.0", "trial": 0, "time_elapsed": 238437, "serialpos": 9, "key_press": -1, "wordID": 1450, "type": "PRES_VIS", "trial_index": 30}, "uniqueid": "MTK2867:3SBEHTYCWOACKUYDLWZJUREL7Z7IYY", "dateTime": 1519420974220}, {"current_trial": 31, "trialdata": {"rt": -1, "trial_type": "single-stim", "word": "notebook", "stimulus": "<p id=\"stim\">NOTEBOOK</p>", "conditions": [18, 1200, "v", 18000], "internal_node_id": "0.0-22.0", "trial": 0, "time_elapsed": 240849, "serialpos": 10, "key_press": -1, "wordID": 958, "type": "PRES_VIS", "trial_index": 31}, "uniqueid": "MTK2867:3SBEHTYCWOACKUYDLWZJUREL7Z7IYY", "dateTime": 1519420976632}, {"current_trial": 32, "trialdata": {"rt": -1, "trial_type": "single-stim", "word": "empire", "stimulus": "<p id=\"stim\">EMPIRE</p>", "conditions": [18, 1200, "v", 18000], "internal_node_id": "0.0-23.0", "trial": 0, "time_elapsed": 243183, "serialpos": 11, "key_press": -1, "wordID": 529, "type": "PRES_VIS", "trial_index": 32}, "uniqueid": "MTK2867:3SBEHTYCWOACKUYDLWZJUREL7Z7IYY", "dateTime": 1519420978966}, {"current_trial": 33, "trialdata": {"rt": -1, "trial_type": "single-stim", "word": "cook", "stimulus": "<p id=\"stim\">COOK</p>", "conditions": [18, 1200, "v", 18000], "internal_node_id": "0.0-24.0", "trial": 0, "time_elapsed": 245281, "serialpos": 12, "key_press": -1, "wordID": 371, "type": "PRES_VIS", "trial_index": 33}, "uniqueid": "MTK2867:3SBEHTYCWOACKUYDLWZJUREL7Z7IYY", "dateTime": 1519420981064}, {"current_trial": 34, "trialdata": {"rt": -1, "trial_type": "single-stim", "word": "crater", "stimulus": "<p id=\"stim\">CRATER</p>", "conditions": [18, 1200, "v", 18000], "internal_node_id": "0.0-25.0", "trial": 0, "time_elapsed": 247403, "serialpos": 13, "key_press": -1, "wordID": 399, "type": "PRES_VIS", "trial_index": 34}, "uniqueid": "MTK2867:3SBEHTYCWOACKUYDLWZJUREL7Z7IYY", "dateTime": 1519420983186}, {"current_trial": 35, "trialdata": {"rt": -1, "trial_type": "single-stim", "word": "hound", "stimulus": "<p id=\"stim\">HOUND</p>", "conditions": [18, 1200, "v", 18000], "internal_node_id": "0.0-26.0", "trial": 0, "time_elapsed": 249819, "serialpos": 14, "key_press": -1, "wordID": 723, "type": "PRES_VIS", "trial_index": 35}, "uniqueid": "MTK2867:3SBEHTYCWOACKUYDLWZJUREL7Z7IYY", "dateTime": 1519420985602}, {"current_trial": 36, "trialdata": {"rt": -1, "trial_type": "single-stim", "word": "human", "stimulus": "<p id=\"stim\">HUMAN</p>", "conditions": [18, 1200, "v", 18000], "internal_node_id": "0.0-27.0", "trial": 0, "time_elapsed": 251996, "serialpos": 15, "key_press": -1, "wordID": 725, "type": "PRES_VIS", "trial_index": 36}, "uniqueid": "MTK2867:3SBEHTYCWOACKUYDLWZJUREL7Z7IYY", "dateTime": 1519420987779}, {"current_trial": 37, "trialdata": {"rt": -1, "trial_type": "single-stim", "word": "jungle", "stimulus": "<p id=\"stim\">JUNGLE</p>", "conditions": [18, 1200, "v", 18000], "internal_node_id": "0.0-28.0", "trial": 0, "time_elapsed": 254045, "serialpos": 16, "key_press": -1, "wordID": 763, "type": "PRES_VIS", "trial_index": 37}, "uniqueid": "MTK2867:3SBEHTYCWOACKUYDLWZJUREL7Z7IYY", "dateTime": 1519420989829}, {"current_trial": 38, "trialdata": {"rt": -1, "trial_type": "single-stim", "word": "fleet", "stimulus": "<p id=\"stim\">FLEET</p>", "conditions": [18, 1200, "v", 18000], "internal_node_id": "0.0-29.0", "trial": 0, "time_elapsed": 256358, "serialpos": 17, "key_press": -1, "wordID": 577, "type": "PRES_VIS", "trial_index": 38}, "uniqueid": "MTK2867:3SBEHTYCWOACKUYDLWZJUREL7Z7IYY", "dateTime": 1519420992141}, {"current_trial": 39, "trialdata": {"rt": -1, "trial_type": "single-stim", "stimulus": "", "internal_node_id": "0.0-30.0-0.0", "time_elapsed": 258443, "key_press": -1, "type": "PRE_RECALL_DELAY", "trial_index": 39}, "uniqueid": "MTK2867:3SBEHTYCWOACKUYDLWZJUREL7Z7IYY", "dateTime": 1519420994226}, {"current_trial": 40, "trialdata": {"rt": -1000, "trial_type": "single-audio", "stimulus": "/static/audio/400Hz.wav", "internal_node_id": "0.0-31.0", "time_elapsed": 258988, "key_press": -1, "type": "PRE_RECALL_ALERT", "trial_index": 40}, "uniqueid": "MTK2867:3SBEHTYCWOACKUYDLWZJUREL7Z7IYY", "dateTime": 1519420994771}, {"current_trial": 41, "trialdata": {"rt": [4208, 11145, 15969, 24397, 31166, 32883, 33675, 38175, 42789], "recwords": ["fleet", "jungle", "spouse", "cottage", "experiment", "foot", "box", "survey", "ketchup"], "key_times": [1607, 1792, 1907, 2067, 2212, 4208, 6629, 6882, 7160, 7600, 7757, 7919, 9451, 9636, 9821, 10023, 10364, 10566, 10747, 10929, 11145, 14871, 15018, 15253, 15406, 15476, 15576, 15969, 22775, 22922, 23330, 23507, 23634, 23819, 23998, 24397, 26681, 26940, 27143, 27266, 27413, 27488, 27635, 27785, 27933, 28005, 28473, 28686, 28872, 29049, 30308, 30392, 30544, 30665, 31166, 32207, 32368, 32521, 32642, 32883, 33158, 33288, 33417, 33675, 36957, 37105, 37287, 37528, 37684, 37843, 38175, 40850, 40972, 41132, 41677, 41930, 42215, 42447, 42789], "trial_type": "free-recall", "conditions": [18, 1200, "v", 18000], "internal_node_id": "0.0-32.0-0.0", "key_presses": [70, 76, 69, 69, 84, 32, 74, 85, 78, 71, 76, 69, 70, 76, 69, 69, 8, 8, 8, 8, 32, 83, 80, 79, 85, 83, 69, 13, 67, 79, 84, 84, 65, 71, 69, 13, 69, 88, 80, 69, 82, 73, 69, 77, 84, 78, 8, 8, 8, 8, 77, 69, 78, 84, 13, 70, 79, 79, 84, 13, 66, 79, 88, 13, 83, 85, 82, 86, 69, 89, 13, 75, 69, 84, 67, 72, 85, 80, 13], "trial": 0, "time_elapsed": 319014, "type": "FREE_RECALL", "trial_index": 41}, "uniqueid": "MTK2867:3SBEHTYCWOACKUYDLWZJUREL7Z7IYY", "dateTime": 1519421054809}, {"current_trial": 42, "trialdata": {"rt": 1819, "trial_type": "text", "internal_node_id": "0.0-33.0", "time_elapsed": 322852, "key_press": 13, "type": "INSTRUCTIONS", "trial_index": 42}, "uniqueid": "MTK2867:3SBEHTYCWOACKUYDLWZJUREL7Z7IYY", "dateTime": 1519421058636}, {"current_trial": 43, "trialdata": {"rt": [7173, 13168, 16969], "trial_type": "math-distractor", "key_times": [4496, 4937, 7173, 12216, 12605, 13168, 16216, 16361, 16969], "responses": ["17", "19", "14"], "num2": [5, 7, 6, 5], "num3": [3, 4, 4, 7], "conditions": [18, 1200, "v", 18000], "internal_node_id": "0.0-34.0", "key_presses": [49, 55, 13, 49, 57, 13, 49, 52, 13], "trial": 1, "time_elapsed": 342885, "type": "DISTRACTOR", "trial_index": 43, "num1": [9, 8, 4, 9]}, "uniqueid": "MTK2867:3SBEHTYCWOACKUYDLWZJUREL7Z7IYY", "dateTime": 1519421078669}, {"current_trial": 44, "trialdata": {"rt": -1, "trial_type": "single-stim", "stimulus": "<p id=\"stim\">10</p>", "internal_node_id": "0.0-35.0-0.0", "time_elapsed": 345908, "key_press": -1, "trial_index": 44}, "uniqueid": "MTK2867:3SBEHTYCWOACKUYDLWZJUREL7Z7IYY", "dateTime": 1519421081691}, {"current_trial": 45, "trialdata": {"rt": -1, "trial_type": "single-stim", "stimulus": "<p id=\"stim\">9</p>", "internal_node_id": "0.0-35.0-1.0", "time_elapsed": 346925, "key_press": -1, "trial_index": 45}, "uniqueid": "MTK2867:3SBEHTYCWOACKUYDLWZJUREL7Z7IYY", "dateTime": 1519421082708}, {"current_trial": 46, "trialdata": {"rt": -1, "trial_type": "single-stim", "stimulus": "<p id=\"stim\">8</p>", "internal_node_id": "0.0-35.0-2.0", "time_elapsed": 347909, "key_press": -1, "trial_index": 46}, "uniqueid": "MTK2867:3SBEHTYCWOACKUYDLWZJUREL7Z7IYY", "dateTime": 1519421083692}, {"current_trial": 47, "trialdata": {"rt": -1, "trial_type": "single-stim", "stimulus": "<p id=\"stim\">7</p>", "internal_node_id": "0.0-35.0-3.0", "time_elapsed": 348922, "key_press": -1, "trial_index": 47}, "uniqueid": "MTK2867:3SBEHTYCWOACKUYDLWZJUREL7Z7IYY", "dateTime": 1519421084706}, {"current_trial": 48, "trialdata": {"rt": -1, "trial_type": "single-stim", "stimulus": "<p id=\"stim\">6</p>", "internal_node_id": "0.0-35.0-4.0", "time_elapsed": 349906, "key_press": -1, "trial_index": 48}, "uniqueid": "MTK2867:3SBEHTYCWOACKUYDLWZJUREL7Z7IYY", "dateTime": 1519421085690}, {"current_trial": 49, "trialdata": {"rt": -1, "trial_type": "single-stim", "stimulus": "<p id=\"stim\">5</p>", "internal_node_id": "0.0-35.0-5.0", "time_elapsed": 350918, "key_press": -1, "trial_index": 49}, "uniqueid": "MTK2867:3SBEHTYCWOACKUYDLWZJUREL7Z7IYY", "dateTime": 1519421086701}, {"current_trial": 50, "trialdata": {"rt": -1, "trial_type": "single-stim", "stimulus": "<p id=\"stim\">4</p>", "internal_node_id": "0.0-35.0-6.0", "time_elapsed": 351920, "key_press": -1, "trial_index": 50}, "uniqueid": "MTK2867:3SBEHTYCWOACKUYDLWZJUREL7Z7IYY", "dateTime": 1519421087704}, {"current_trial": 51, "trialdata": {"rt": -1, "trial_type": "single-stim", "stimulus": "<p id=\"stim\">3</p>", "internal_node_id": "0.0-35.0-7.0", "time_elapsed": 352927, "key_press": -1, "trial_index": 51}, "uniqueid": "MTK2867:3SBEHTYCWOACKUYDLWZJUREL7Z7IYY", "dateTime": 1519421088710}, {"current_trial": 52, "trialdata": {"rt": -1, "trial_type": "single-stim", "stimulus": "<p id=\"stim\">2</p>", "internal_node_id": "0.0-35.0-8.0", "time_elapsed": 353907, "key_press": -1, "trial_index": 52}, "uniqueid": "MTK2867:3SBEHTYCWOACKUYDLWZJUREL7Z7IYY", "dateTime": 1519421089690}, {"current_trial": 53, "trialdata": {"rt": -1, "trial_type": "single-stim", "stimulus": "<p id=\"stim\">1</p>", "internal_node_id": "0.0-35.0-9.0", "time_elapsed": 354910, "key_press": -1, "trial_index": 53}, "uniqueid": "MTK2867:3SBEHTYCWOACKUYDLWZJUREL7Z7IYY", "dateTime": 1519421090693}, {"current_trial": 54, "trialdata": {"rt": -1, "trial_type": "single-stim", "stimulus": "<p id=\"stim\">+</p>", "internal_node_id": "0.0-36.0-0.0", "time_elapsed": 356436, "key_press": -1, "type": "FIXATION", "trial_index": 54}, "uniqueid": "MTK2867:3SBEHTYCWOACKUYDLWZJUREL7Z7IYY", "dateTime": 1519421092219}, {"current_trial": 55, "trialdata": {"rt": -1, "trial_type": "single-stim", "word": "ulcer", "stimulus": "<p id=\"stim\">ULCER</p>", "conditions": [18, 1200, "v", 18000], "internal_node_id": "0.0-37.0", "trial": 1, "time_elapsed": 357653, "serialpos": 0, "key_press": -1, "wordID": 1532, "type": "PRES_VIS", "trial_index": 55}, "uniqueid": "MTK2867:3SBEHTYCWOACKUYDLWZJUREL7Z7IYY", "dateTime": 1519421093436}, {"current_trial": 56, "trialdata": {"rt": -1, "trial_type": "single-stim", "word": "glass", "stimulus": "<p id=\"stim\">GLASS</p>", "conditions": [18, 1200, "v", 18000], "internal_node_id": "0.0-38.0", "trial": 1, "time_elapsed": 360054, "serialpos": 1, "key_press": -1, "wordID": 638, "type": "PRES_VIS", "trial_index": 56}, "uniqueid": "MTK2867:3SBEHTYCWOACKUYDLWZJUREL7Z7IYY", "dateTime": 1519421095837}, {"current_trial": 57, "trialdata": {"rt": -1, "trial_type": "single-stim", "word": "machine", "stimulus": "<p id=\"stim\">MACHINE</p>", "conditions": [18, 1200, "v", 18000], "internal_node_id": "0.0-39.0", "trial": 1, "time_elapsed": 362227, "serialpos": 2, "key_press": -1, "wordID": 851, "type": "PRES_VIS", "trial_index": 57}, "uniqueid": "MTK2867:3SBEHTYCWOACKUYDLWZJUREL7Z7IYY", "dateTime": 1519421098010}, {"current_trial": 58, "trialdata": {"rt": -1, "trial_type": "single-stim", "word": "arm", "stimulus": "<p id=\"stim\">ARM</p>", "conditions": [18, 1200, "v", 18000], "internal_node_id": "0.0-40.0", "trial": 1, "time_elapsed": 364345, "serialpos": 3, "key_press": -1, "wordID": 37, "type": "PRES_VIS", "trial_index": 58}, "uniqueid": "MTK2867:3SBEHTYCWOACKUYDLWZJUREL7Z7IYY", "dateTime": 1519421100128}, {"current_trial": 59, "trialdata": {"rt": -1, "trial_type": "single-stim", "word": "football", "stimulus": "<p id=\"stim\">FOOTBALL</p>", "conditions": [18, 1200, "v", 18000], "internal_node_id": "0.0-41.0", "trial": 1, "time_elapsed": 366453, "serialpos": 4, "key_press": -1, "wordID": 590, "type": "PRES_VIS", "trial_index": 59}, "uniqueid": "MTK2867:3SBEHTYCWOACKUYDLWZJUREL7Z7IYY", "dateTime": 1519421102236}, {"current_trial": 60, "trialdata": {"rt": -1, "trial_type": "single-stim", "word": "bison", "stimulus": "<p id=\"stim\">BISON</p>", "conditions": [18, 1200, "v", 18000], "internal_node_id": "0.0-42.0", "trial": 1, "time_elapsed": 368636, "serialpos": 5, "key_press": -1, "wordID": 130, "type": "PRES_VIS", "trial_index": 60}, "uniqueid": "MTK2867:3SBEHTYCWOACKUYDLWZJUREL7Z7IYY", "dateTime": 1519421104419}, {"current_trial": 61, "trialdata": {"rt": -1, "trial_type": "single-stim", "word": "pecan", "stimulus": "<p id=\"stim\">PECAN</p>", "conditions": [18, 1200, "v", 18000], "internal_node_id": "0.0-43.0", "trial": 1, "time_elapsed": 370999, "serialpos": 6, "key_press": -1, "wordID": 1035, "type": "PRES_VIS", "trial_index": 61}, "uniqueid": "MTK2867:3SBEHTYCWOACKUYDLWZJUREL7Z7IYY", "dateTime": 1519421106782}, {"current_trial": 62, "trialdata": {"rt": -1, "trial_type": "single-stim", "word": "dustpan", "stimulus": "<p id=\"stim\">DUSTPAN</p>", "conditions": [18, 1200, "v", 18000], "internal_node_id": "0.0-44.0", "trial": 1, "time_elapsed": 373418, "serialpos": 7, "key_press": -1, "wordID": 508, "type": "PRES_VIS", "trial_index": 62}, "uniqueid": "MTK2867:3SBEHTYCWOACKUYDLWZJUREL7Z7IYY", "dateTime": 1519421109201}, {"current_trial": 63, "trialdata": {"rt": -1, "trial_type": "single-stim", "word": "virus", "stimulus": "<p id=\"stim\">VIRUS</p>", "conditions": [18, 1200, "v", 18000], "internal_node_id": "0.0-45.0", "trial": 1, "time_elapsed": 375736, "serialpos": 8, "key_press": -1, "wordID": 1571, "type": "PRES_VIS", "trial_index": 63}, "uniqueid": "MTK2867:3SBEHTYCWOACKUYDLWZJUREL7Z7IYY", "dateTime": 1519421111520}, {"current_trial": 64, "trialdata": {"rt": -1, "trial_type": "single-stim", "word": "carrot", "stimulus": "<p id=\"stim\">CARROT</p>", "conditions": [18, 1200, "v", 18000], "internal_node_id": "0.0-46.0", "trial": 1, "time_elapsed": 377823, "serialpos": 9, "key_press": -1, "wordID": 248, "type": "PRES_VIS", "trial_index": 64}, "uniqueid": "MTK2867:3SBEHTYCWOACKUYDLWZJUREL7Z7IYY", "dateTime": 1519421113606}, {"current_trial": 65, "trialdata": {"rt": -1, "trial_type": "single-stim", "word": "cashier", "stimulus": "<p id=\"stim\">CASHIER</p>", "conditions": [18, 1200, "v", 18000], "internal_node_id": "0.0-47.0", "trial": 1, "time_elapsed": 380024, "serialpos": 10, "key_press": -1, "wordID": 253, "type": "PRES_VIS", "trial_index": 65}, "uniqueid": "MTK2867:3SBEHTYCWOACKUYDLWZJUREL7Z7IYY", "dateTime": 1519421115807}, {"current_trial": 66, "trialdata": {"rt": -1, "trial_type": "single-stim", "word": "pliers", "stimulus": "<p id=\"stim\">PLIERS</p>", "conditions": [18, 1200, "v", 18000], "internal_node_id": "0.0-48.0", "trial": 1, "time_elapsed": 382431, "serialpos": 11, "key_press": -1, "wordID": 1088, "type": "PRES_VIS", "trial_index": 66}, "uniqueid": "MTK2867:3SBEHTYCWOACKUYDLWZJUREL7Z7IYY", "dateTime": 1519421118214}, {"current_trial": 67, "trialdata": {"rt": -1, "trial_type": "single-stim", "word": "river", "stimulus": "<p id=\"stim\">RIVER</p>", "conditions": [18, 1200, "v", 18000], "internal_node_id": "0.0-49.0", "trial": 1, "time_elapsed": 384470, "serialpos": 12, "key_press": -1, "wordID": 1193, "type": "PRES_VIS", "trial_index": 67}, "uniqueid": "MTK2867:3SBEHTYCWOACKUYDLWZJUREL7Z7IYY", "dateTime": 1519421120253}, {"current_trial": 68, "trialdata": {"rt": -1, "trial_type": "single-stim", "word": "cloud", "stimulus": "<p id=\"stim\">CLOUD</p>", "conditions": [18, 1200, "v", 18000], "internal_node_id": "0.0-50.0", "trial": 1, "time_elapsed": 386736, "serialpos": 13, "key_press": -1, "wordID": 327, "type": "PRES_VIS", "trial_index": 68}, "uniqueid": "MTK2867:3SBEHTYCWOACKUYDLWZJUREL7Z7IYY", "dateTime": 1519421122519}, {"current_trial": 69, "trialdata": {"rt": -1, "trial_type": "single-stim", "word": "treat", "stimulus": "<p id=\"stim\">TREAT</p>", "conditions": [18, 1200, "v", 18000], "internal_node_id": "0.0-51.0", "trial": 1, "time_elapsed": 389076, "serialpos": 14, "key_press": -1, "wordID": 1500, "type": "PRES_VIS", "trial_index": 69}, "uniqueid": "MTK2867:3SBEHTYCWOACKUYDLWZJUREL7Z7IYY", "dateTime": 1519421124859}, {"current_trial": 70, "trialdata": {"rt": -1, "trial_type": "single-stim", "word": "county", "stimulus": "<p id=\"stim\">COUNTY</p>", "conditions": [18, 1200, "v", 18000], "internal_node_id": "0.0-52.0", "trial": 1, "time_elapsed": 391136, "serialpos": 15, "key_press": -1, "wordID": 388, "type": "PRES_VIS", "trial_index": 70}, "uniqueid": "MTK2867:3SBEHTYCWOACKUYDLWZJUREL7Z7IYY", "dateTime": 1519421126919}, {"current_trial": 71, "trialdata": {"rt": -1, "trial_type": "single-stim", "word": "waitress", "stimulus": "<p id=\"stim\">WAITRESS</p>", "conditions": [18, 1200, "v", 18000], "internal_node_id": "0.0-53.0", "trial": 1, "time_elapsed": 393173, "serialpos": 16, "key_press": -1, "wordID": 1580, "type": "PRES_VIS", "trial_index": 71}, "uniqueid": "MTK2867:3SBEHTYCWOACKUYDLWZJUREL7Z7IYY", "dateTime": 1519421128956}, {"current_trial": 72, "trialdata": {"rt": -1, "trial_type": "single-stim", "word": "perch", "stimulus": "<p id=\"stim\">PERCH</p>", "conditions": [18, 1200, "v", 18000], "internal_node_id": "0.0-54.0", "trial": 1, "time_elapsed": 395330, "serialpos": 17, "key_press": -1, "wordID": 1047, "type": "PRES_VIS", "trial_index": 72}, "uniqueid": "MTK2867:3SBEHTYCWOACKUYDLWZJUREL7Z7IYY", "dateTime": 1519421131113}, {"current_trial": 73, "trialdata": {"rt": -1, "trial_type": "single-stim", "stimulus": "", "internal_node_id": "0.0-55.0-0.0", "time_elapsed": 397837, "key_press": -1, "type": "PRE_RECALL_DELAY", "trial_index": 73}, "uniqueid": "MTK2867:3SBEHTYCWOACKUYDLWZJUREL7Z7IYY", "dateTime": 1519421133620}, {"current_trial": 74, "trialdata": {"rt": -1000, "trial_type": "single-audio", "stimulus": "/static/audio/400Hz.wav", "internal_node_id": "0.0-56.0", "time_elapsed": 398344, "key_press": -1, "type": "PRE_RECALL_ALERT", "trial_index": 74}, "uniqueid": "MTK2867:3SBEHTYCWOACKUYDLWZJUREL7Z7IYY", "dateTime": 1519421134127}, {"current_trial": 75, "trialdata": {"rt": [1920, 3202, 4319, 6389, 9275, 22713], "recwords": ["carrot", "pecan", "treat", "waitress", "perch", "country"], "key_times": [804, 1052, 1159, 1309, 1476, 1610, 1920, 2320, 2442, 2615, 2777, 2939, 3202, 3458, 3659, 3769, 3882, 3991, 4319, 4641, 4806, 4974, 5060, 5375, 5527, 5700, 5889, 6389, 8401, 8523, 8582, 8835, 8987, 9275, 21597, 21746, 21849, 22076, 22152, 22261, 22394, 22713], "trial_type": "free-recall", "conditions": [18, 1200, "v", 18000], "internal_node_id": "0.0-57.0-0.0", "key_presses": [67, 65, 82, 82, 79, 84, 13, 80, 69, 67, 65, 78, 13, 84, 82, 69, 65, 84, 13, 87, 65, 73, 84, 82, 69, 83, 83, 13, 80, 69, 82, 67, 72, 13, 67, 79, 85, 78, 84, 82, 89, 13], "trial": 1, "time_elapsed": 458370, "type": "FREE_RECALL", "trial_index": 75}, "uniqueid": "MTK2867:3SBEHTYCWOACKUYDLWZJUREL7Z7IYY", "dateTime": 1519421194159}, {"current_trial": 76, "trialdata": {"rt": 2569, "trial_type": "text", "internal_node_id": "0.0-58.0", "time_elapsed": 462955, "key_press": 13, "type": "INSTRUCTIONS", "trial_index": 76}, "uniqueid": "MTK2867:3SBEHTYCWOACKUYDLWZJUREL7Z7IYY", "dateTime": 1519421198738}, {"current_trial": 77, "trialdata": {"rt": [4179, 6838, 9662, 14709, 16409, 18383, 20651, 22962], "trial_type": "math-distractor", "key_times": [3173, 3638, 4179, 6013, 6247, 6838, 8902, 9230, 9662, 14039, 14186, 14709, 15967, 16409, 17708, 18014, 18383, 19944, 20130, 20651, 22224, 22658, 22962], "responses": ["20", "14", "17", "15", "3", "17", "13", "20"], "num2": [2, 4, 9, 3, 1, 8, 1, 7, 2], "num3": [9, 9, 3, 8, 1, 2, 4, 5, 2], "conditions": [24, 800, "v", 24000], "internal_node_id": "0.0-59.0", "key_presses": [50, 48, 13, 49, 52, 13, 49, 55, 13, 49, 53, 13, 51, 13, 49, 55, 13, 49, 51, 13, 50, 48, 13], "trial": 2, "time_elapsed": 487988, "type": "DISTRACTOR", "trial_index": 77, "num1": [9, 1, 5, 4, 1, 7, 8, 8, 4]}, "uniqueid": "MTK2867:3SBEHTYCWOACKUYDLWZJUREL7Z7IYY", "dateTime": 1519421223771}, {"current_trial": 78, "trialdata": {"rt": -1, "trial_type": "single-stim", "stimulus": "<p id=\"stim\">10</p>", "internal_node_id": "0.0-60.0-0.0", "time_elapsed": 491017, "key_press": -1, "trial_index": 78}, "uniqueid": "MTK2867:3SBEHTYCWOACKUYDLWZJUREL7Z7IYY", "dateTime": 1519421226800}, {"current_trial": 79, "trialdata": {"rt": -1, "trial_type": "single-stim", "stimulus": "<p id=\"stim\">9</p>", "internal_node_id": "0.0-60.0-1.0", "time_elapsed": 492023, "key_press": -1, "trial_index": 79}, "uniqueid": "MTK2867:3SBEHTYCWOACKUYDLWZJUREL7Z7IYY", "dateTime": 1519421227807}, {"current_trial": 80, "trialdata": {"rt": -1, "trial_type": "single-stim", "stimulus": "<p id=\"stim\">8</p>", "internal_node_id": "0.0-60.0-2.0", "time_elapsed": 493036, "key_press": -1, "trial_index": 80}, "uniqueid": "MTK2867:3SBEHTYCWOACKUYDLWZJUREL7Z7IYY", "dateTime": 1519421228819}, {"current_trial": 81, "trialdata": {"rt": -1, "trial_type": "single-stim", "stimulus": "<p id=\"stim\">7</p>", "internal_node_id": "0.0-60.0-3.0", "time_elapsed": 494033, "key_press": -1, "trial_index": 81}, "uniqueid": "MTK2867:3SBEHTYCWOACKUYDLWZJUREL7Z7IYY", "dateTime": 1519421229816}, {"current_trial": 82, "trialdata": {"rt": -1, "trial_type": "single-stim", "stimulus": "<p id=\"stim\">6</p>", "internal_node_id": "0.0-60.0-4.0", "time_elapsed": 495020, "key_press": -1, "trial_index": 82}, "uniqueid": "MTK2867:3SBEHTYCWOACKUYDLWZJUREL7Z7IYY", "dateTime": 1519421230804}, {"current_trial": 83, "trialdata": {"rt": -1, "trial_type": "single-stim", "stimulus": "<p id=\"stim\">5</p>", "internal_node_id": "0.0-60.0-5.0", "time_elapsed": 496015, "key_press": -1, "trial_index": 83}, "uniqueid": "MTK2867:3SBEHTYCWOACKUYDLWZJUREL7Z7IYY", "dateTime": 1519421231799}, {"current_trial": 84, "trialdata": {"rt": -1, "trial_type": "single-stim", "stimulus": "<p id=\"stim\">4</p>", "internal_node_id": "0.0-60.0-6.0", "time_elapsed": 497018, "key_press": -1, "trial_index": 84}, "uniqueid": "MTK2867:3SBEHTYCWOACKUYDLWZJUREL7Z7IYY", "dateTime": 1519421232802}, {"current_trial": 85, "trialdata": {"rt": -1, "trial_type": "single-stim", "stimulus": "<p id=\"stim\">3</p>", "internal_node_id": "0.0-60.0-7.0", "time_elapsed": 498020, "key_press": -1, "trial_index": 85}, "uniqueid": "MTK2867:3SBEHTYCWOACKUYDLWZJUREL7Z7IYY", "dateTime": 1519421233803}, {"current_trial": 86, "trialdata": {"rt": -1, "trial_type": "single-stim", "stimulus": "<p id=\"stim\">2</p>", "internal_node_id": "0.0-60.0-8.0", "time_elapsed": 499016, "key_press": -1, "trial_index": 86}, "uniqueid": "MTK2867:3SBEHTYCWOACKUYDLWZJUREL7Z7IYY", "dateTime": 1519421234800}, {"current_trial": 87, "trialdata": {"rt": -1, "trial_type": "single-stim", "stimulus": "<p id=\"stim\">1</p>", "internal_node_id": "0.0-60.0-9.0", "time_elapsed": 500020, "key_press": -1, "trial_index": 87}, "uniqueid": "MTK2867:3SBEHTYCWOACKUYDLWZJUREL7Z7IYY", "dateTime": 1519421235803}, {"current_trial": 88, "trialdata": {"rt": -1, "trial_type": "single-stim", "stimulus": "<p id=\"stim\">+</p>", "internal_node_id": "0.0-61.0-0.0", "time_elapsed": 501526, "key_press": -1, "type": "FIXATION", "trial_index": 88}, "uniqueid": "MTK2867:3SBEHTYCWOACKUYDLWZJUREL7Z7IYY", "dateTime": 1519421237310}, {"current_trial": 89, "trialdata": {"rt": -1, "trial_type": "single-stim", "word": "camel", "stimulus": "<p id=\"stim\">CAMEL</p>", "conditions": [24, 800, "v", 24000], "internal_node_id": "0.0-62.0", "trial": 2, "time_elapsed": 502364, "serialpos": 0, "key_press": -1, "wordID": 222, "type": "PRES_VIS", "trial_index": 89}, "uniqueid": "MTK2867:3SBEHTYCWOACKUYDLWZJUREL7Z7IYY", "dateTime": 1519421238147}, {"current_trial": 90, "trialdata": {"rt": -1, "trial_type": "single-stim", "word": "spider", "stimulus": "<p id=\"stim\">SPIDER</p>", "conditions": [24, 800, "v", 24000], "internal_node_id": "0.0-63.0", "trial": 2, "time_elapsed": 504222, "serialpos": 1, "key_press": -1, "wordID": 1350, "type": "PRES_VIS", "trial_index": 90}, "uniqueid": "MTK2867:3SBEHTYCWOACKUYDLWZJUREL7Z7IYY", "dateTime": 1519421240005}, {"current_trial": 91, "trialdata": {"rt": -1, "trial_type": "single-stim", "word": "banker", "stimulus": "<p id=\"stim\">BANKER</p>", "conditions": [24, 800, "v", 24000], "internal_node_id": "0.0-64.0", "trial": 2, "time_elapsed": 506227, "serialpos": 2, "key_press": -1, "wordID": 83, "type": "PRES_VIS", "trial_index": 91}, "uniqueid": "MTK2867:3SBEHTYCWOACKUYDLWZJUREL7Z7IYY", "dateTime": 1519421242011}, {"current_trial": 92, "trialdata": {"rt": -1, "trial_type": "single-stim", "word": "thread", "stimulus": "<p id=\"stim\">THREAD</p>", "conditions": [24, 800, "v", 24000], "internal_node_id": "0.0-65.0", "trial": 2, "time_elapsed": 508082, "serialpos": 3, "key_press": -1, "wordID": 1459, "type": "PRES_VIS", "trial_index": 92}, "uniqueid": "MTK2867:3SBEHTYCWOACKUYDLWZJUREL7Z7IYY", "dateTime": 1519421243866}, {"current_trial": 93, "trialdata": {"rt": -1, "trial_type": "single-stim", "word": "compass", "stimulus": "<p id=\"stim\">COMPASS</p>", "conditions": [24, 800, "v", 24000], "internal_node_id": "0.0-66.0", "trial": 2, "time_elapsed": 509748, "serialpos": 4, "key_press": -1, "wordID": 357, "type": "PRES_VIS", "trial_index": 93}, "uniqueid": "MTK2867:3SBEHTYCWOACKUYDLWZJUREL7Z7IYY", "dateTime": 1519421245532}, {"current_trial": 94, "trialdata": {"rt": -1, "trial_type": "single-stim", "word": "necklace", "stimulus": "<p id=\"stim\">NECKLACE</p>", "conditions": [24, 800, "v", 24000], "internal_node_id": "0.0-67.0", "trial": 2, "time_elapsed": 511631, "serialpos": 5, "key_press": -1, "wordID": 939, "type": "PRES_VIS", "trial_index": 94}, "uniqueid": "MTK2867:3SBEHTYCWOACKUYDLWZJUREL7Z7IYY", "dateTime": 1519421247414}, {"current_trial": 95, "trialdata": {"rt": -1, "trial_type": "single-stim", "word": "wardrobe", "stimulus": "<p id=\"stim\">WARDROBE</p>", "conditions": [24, 800, "v", 24000], "internal_node_id": "0.0-68.0", "trial": 2, "time_elapsed": 513384, "serialpos": 6, "key_press": -1, "wordID": 1586, "type": "PRES_VIS", "trial_index": 95}, "uniqueid": "MTK2867:3SBEHTYCWOACKUYDLWZJUREL7Z7IYY", "dateTime": 1519421249167}, {"current_trial": 96, "trialdata": {"rt": -1, "trial_type": "single-stim", "word": "snake", "stimulus": "<p id=\"stim\">SNAKE</p>", "conditions": [24, 800, "v", 24000], "internal_node_id": "0.0-69.0", "trial": 2, "time_elapsed": 515078, "serialpos": 7, "key_press": -1, "wordID": 1332, "type": "PRES_VIS", "trial_index": 96}, "uniqueid": "MTK2867:3SBEHTYCWOACKUYDLWZJUREL7Z7IYY", "dateTime": 1519421250861}, {"current_trial": 97, "trialdata": {"rt": -1, "trial_type": "single-stim", "word": "drink", "stimulus": "<p id=\"stim\">DRINK</p>", "conditions": [24, 800, "v", 24000], "internal_node_id": "0.0-70.0", "trial": 2, "time_elapsed": 516715, "serialpos": 8, "key_press": -1, "wordID": 497, "type": "PRES_VIS", "trial_index": 97}, "uniqueid": "MTK2867:3SBEHTYCWOACKUYDLWZJUREL7Z7IYY", "dateTime": 1519421252498}, {"current_trial": 98, "trialdata": {"rt": -1, "trial_type": "single-stim", "word": "soda", "stimulus": "<p id=\"stim\">SODA</p>", "conditions": [24, 800, "v", 24000], "internal_node_id": "0.0-71.0", "trial": 2, "time_elapsed": 518611, "serialpos": 9, "key_press": -1, "wordID": 1340, "type": "PRES_VIS", "trial_index": 98}, "uniqueid": "MTK2867:3SBEHTYCWOACKUYDLWZJUREL7Z7IYY", "dateTime": 1519421254394}, {"current_trial": 99, "trialdata": {"rt": -1, "trial_type": "single-stim", "word": "chauffeur", "stimulus": "<p id=\"stim\">CHAUFFEUR</p>", "conditions": [24, 800, "v", 24000], "internal_node_id": "0.0-72.0", "trial": 2, "time_elapsed": 520463, "serialpos": 10, "key_press": -1, "wordID": 282, "type": "PRES_VIS", "trial_index": 99}, "uniqueid": "MTK2867:3SBEHTYCWOACKUYDLWZJUREL7Z7IYY", "dateTime": 1519421256246}, {"current_trial": 100, "trialdata": {"rt": -1, "trial_type": "single-stim", "word": "brick", "stimulus": "<p id=\"stim\">BRICK</p>", "conditions": [24, 800, "v", 24000], "internal_node_id": "0.0-73.0", "trial": 2, "time_elapsed": 522383, "serialpos": 11, "key_press": -1, "wordID": 171, "type": "PRES_VIS", "trial_index": 100}, "uniqueid": "MTK2867:3SBEHTYCWOACKUYDLWZJUREL7Z7IYY", "dateTime": 1519421258166}, {"current_trial": 101, "trialdata": {"rt": -1, "trial_type": "single-stim", "word": "dorm", "stimulus": "<p id=\"stim\">DORM</p>", "conditions": [24, 800, "v", 24000], "internal_node_id": "0.0-74.0", "trial": 2, "time_elapsed": 524334, "serialpos": 12, "key_press": -1, "wordID": 487, "type": "PRES_VIS", "trial_index": 101}, "uniqueid": "MTK2867:3SBEHTYCWOACKUYDLWZJUREL7Z7IYY", "dateTime": 1519421260117}, {"current_trial": 102, "trialdata": {"rt": -1, "trial_type": "single-stim", "word": "knife", "stimulus": "<p id=\"stim\">KNIFE</p>", "conditions": [24, 800, "v", 24000], "internal_node_id": "0.0-75.0", "trial": 2, "time_elapsed": 526362, "serialpos": 13, "key_press": -1, "wordID": 784, "type": "PRES_VIS", "trial_index": 102}, "uniqueid": "MTK2867:3SBEHTYCWOACKUYDLWZJUREL7Z7IYY", "dateTime": 1519421262145}, {"current_trial": 103, "trialdata": {"rt": -1, "trial_type": "single-stim", "word": "gangster", "stimulus": "<p id=\"stim\">GANGSTER</p>", "conditions": [24, 800, "v", 24000], "internal_node_id": "0.0-76.0", "trial": 2, "time_elapsed": 528255, "serialpos": 14, "key_press": -1, "wordID": 619, "type": "PRES_VIS", "trial_index": 103}, "uniqueid": "MTK2867:3SBEHTYCWOACKUYDLWZJUREL7Z7IYY", "dateTime": 1519421264039}, {"current_trial": 104, "trialdata": {"rt": -1, "trial_type": "single-stim", "word": "tribe", "stimulus": "<p id=\"stim\">TRIBE</p>", "conditions": [24, 800, "v", 24000], "internal_node_id": "0.0-77.0", "trial": 2, "time_elapsed": 530219, "serialpos": 15, "key_press": -1, "wordID": 1504, "type": "PRES_VIS", "trial_index": 104}, "uniqueid": "MTK2867:3SBEHTYCWOACKUYDLWZJUREL7Z7IYY", "dateTime": 1519421266002}, {"current_trial": 105, "trialdata": {"rt": -1, "trial_type": "single-stim", "word": "pigment", "stimulus": "<p id=\"stim\">PIGMENT</p>", "conditions": [24, 800, "v", 24000], "internal_node_id": "0.0-78.0", "trial": 2, "time_elapsed": 532207, "serialpos": 16, "key_press": -1, "wordID": 1065, "type": "PRES_VIS", "trial_index": 105}, "uniqueid": "MTK2867:3SBEHTYCWOACKUYDLWZJUREL7Z7IYY", "dateTime": 1519421267990}, {"current_trial": 106, "trialdata": {"rt": -1, "trial_type": "single-stim", "word": "custard", "stimulus": "<p id=\"stim\">CUSTARD</p>", "conditions": [24, 800, "v", 24000], "internal_node_id": "0.0-79.0", "trial": 2, "time_elapsed": 534208, "serialpos": 17, "key_press": -1, "wordID": 428, "type": "PRES_VIS", "trial_index": 106}, "uniqueid": "MTK2867:3SBEHTYCWOACKUYDLWZJUREL7Z7IYY", "dateTime": 1519421269992}, {"current_trial": 107, "trialdata": {"rt": -1, "trial_type": "single-stim", "word": "jelly", "stimulus": "<p id=\"stim\">JELLY</p>", "conditions": [24, 800, "v", 24000], "internal_node_id": "0.0-80.0", "trial": 2, "time_elapsed": 536201, "serialpos": 18, "key_press": -1, "wordID": 754, "type": "PRES_VIS", "trial_index": 107}, "uniqueid": "MTK2867:3SBEHTYCWOACKUYDLWZJUREL7Z7IYY", "dateTime": 1519421271984}, {"current_trial": 108, "trialdata": {"rt": -1, "trial_type": "single-stim", "word": "bank", "stimulus": "<p id=\"stim\">BANK</p>", "conditions": [24, 800, "v", 24000], "internal_node_id": "0.0-81.0", "trial": 2, "time_elapsed": 537899, "serialpos": 19, "key_press": -1, "wordID": 82, "type": "PRES_VIS", "trial_index": 108}, "uniqueid": "MTK2867:3SBEHTYCWOACKUYDLWZJUREL7Z7IYY", "dateTime": 1519421273682}, {"current_trial": 109, "trialdata": {"rt": -1, "trial_type": "single-stim", "word": "salad", "stimulus": "<p id=\"stim\">SALAD</p>", "conditions": [24, 800, "v", 24000], "internal_node_id": "0.0-82.0", "trial": 2, "time_elapsed": 539626, "serialpos": 20, "key_press": -1, "wordID": 1223, "type": "PRES_VIS", "trial_index": 109}, "uniqueid": "MTK2867:3SBEHTYCWOACKUYDLWZJUREL7Z7IYY", "dateTime": 1519421275410}, {"current_trial": 110, "trialdata": {"rt": -1, "trial_type": "single-stim", "word": "match", "stimulus": "<p id=\"stim\">MATCH</p>", "conditions": [24, 800, "v", 24000], "internal_node_id": "0.0-83.0", "trial": 2, "time_elapsed": 541635, "serialpos": 21, "key_press": -1, "wordID": 877, "type": "PRES_VIS", "trial_index": 110}, "uniqueid": "MTK2867:3SBEHTYCWOACKUYDLWZJUREL7Z7IYY", "dateTime": 1519421277418}, {"current_trial": 111, "trialdata": {"rt": -1, "trial_type": "single-stim", "word": "sword", "stimulus": "<p id=\"stim\">SWORD</p>", "conditions": [24, 800, "v", 24000], "internal_node_id": "0.0-84.0", "trial": 2, "time_elapsed": 543569, "serialpos": 22, "key_press": -1, "wordID": 1422, "type": "PRES_VIS", "trial_index": 111}, "uniqueid": "MTK2867:3SBEHTYCWOACKUYDLWZJUREL7Z7IYY", "dateTime": 1519421279353}, {"current_trial": 112, "trialdata": {"rt": -1, "trial_type": "single-stim", "word": "sketch", "stimulus": "<p id=\"stim\">SKETCH</p>", "conditions": [24, 800, "v", 24000], "internal_node_id": "0.0-85.0", "trial": 2, "time_elapsed": 545444, "serialpos": 23, "key_press": -1, "wordID": 1314, "type": "PRES_VIS", "trial_index": 112}, "uniqueid": "MTK2867:3SBEHTYCWOACKUYDLWZJUREL7Z7IYY", "dateTime": 1519421281227}, {"current_trial": 113, "trialdata": {"rt": -1, "trial_type": "single-stim", "stimulus": "", "internal_node_id": "0.0-86.0-0.0", "time_elapsed": 547663, "key_press": -1, "type": "PRE_RECALL_DELAY", "trial_index": 113}, "uniqueid": "MTK2867:3SBEHTYCWOACKUYDLWZJUREL7Z7IYY", "dateTime": 1519421283447}, {"current_trial": 114, "trialdata": {"rt": -1000, "trial_type": "single-audio", "stimulus": "/static/audio/400Hz.wav", "internal_node_id": "0.0-87.0", "time_elapsed": 548183, "key_press": -1, "type": "PRE_RECALL_ALERT", "trial_index": 114}, "uniqueid": "MTK2867:3SBEHTYCWOACKUYDLWZJUREL7Z7IYY", "dateTime": 1519421283967}, {"current_trial": 115, "trialdata": {"rt": [2279, 3946, 5468, 10281, 18502, 22910], "recwords": ["camel", "spider", "snake", "instrument", "compass", "watch"], "key_times": [864, 1100, 1265, 1432, 1836, 2279, 2681, 2843, 3088, 3251, 3461, 3606, 3946, 4304, 4460, 4583, 4733, 4917, 5468, 7997, 8252, 8378, 8544, 8612, 8850, 9150, 9273, 9429, 9630, 10281, 17258, 17364, 17532, 17716, 17853, 18107, 18273, 18502, 21970, 22117, 22220, 22458, 22615, 22910], "trial_type": "free-recall", "conditions": [24, 800, "v", 24000], "internal_node_id": "0.0-88.0-0.0", "key_presses": [67, 65, 77, 69, 76, 13, 83, 80, 73, 68, 69, 82, 13, 83, 78, 65, 75, 69, 13, 73, 78, 83, 84, 82, 85, 77, 69, 78, 84, 13, 67, 79, 77, 80, 65, 83, 83, 13, 87, 65, 84, 67, 72, 13], "trial": 2, "time_elapsed": 608212, "type": "FREE_RECALL", "trial_index": 115}, "uniqueid": "MTK2867:3SBEHTYCWOACKUYDLWZJUREL7Z7IYY", "dateTime": 1519421344000}, {"current_trial": 116, "trialdata": {"rt": 160742, "trial_type": "text", "internal_node_id": "0.0-89.0", "time_elapsed": 770977, "key_press": 13, "type": "INSTRUCTIONS", "trial_index": 116}, "uniqueid": "MTK2867:3SBEHTYCWOACKUYDLWZJUREL7Z7IYY", "dateTime": 1519421506760}, {"current_trial": 117, "trialdata": {"rt": [3100, 6155, 8666, 10882, 14684, 17407, 19443, 21804, 23502], "trial_type": "math-distractor", "key_times": [2286, 2456, 3100, 5822, 6155, 8255, 8474, 8666, 10639, 10882, 13932, 14402, 14684, 16632, 16742, 17407, 18971, 19237, 19443, 21444, 21590, 21804, 23145, 23294, 23502], "responses": ["10", "7", "14", "9", "19", "12", "16", "13", "13"], "num2": [1, 3, 5, 5, 9, 1, 8, 4, 1, 3], "num3": [3, 2, 5, 2, 7, 4, 7, 7, 9, 8], "conditions": [24, 800, "v", 24000], "internal_node_id": "0.0-90.0", "key_presses": [49, 48, 13, 55, 13, 49, 52, 13, 57, 13, 49, 57, 13, 49, 50, 13, 49, 54, 13, 49, 51, 13, 49, 51, 13], "trial": 3, "time_elapsed": 797009, "type": "DISTRACTOR", "trial_index": 117, "num1": [7, 2, 4, 2, 3, 7, 1, 2, 3, 8]}, "uniqueid": "MTK2867:3SBEHTYCWOACKUYDLWZJUREL7Z7IYY", "dateTime": 1519421532792}, {"current_trial": 118, "trialdata": {"rt": -1, "trial_type": "single-stim", "stimulus": "<p id=\"stim\">10</p>", "internal_node_id": "0.0-91.0-0.0", "time_elapsed": 800038, "key_press": -1, "trial_index": 118}, "uniqueid": "MTK2867:3SBEHTYCWOACKUYDLWZJUREL7Z7IYY", "dateTime": 1519421535822}, {"current_trial": 119, "trialdata": {"rt": -1, "trial_type": "single-stim", "stimulus": "<p id=\"stim\">9</p>", "internal_node_id": "0.0-91.0-1.0", "time_elapsed": 801052, "key_press": -1, "trial_index": 119}, "uniqueid": "MTK2867:3SBEHTYCWOACKUYDLWZJUREL7Z7IYY", "dateTime": 1519421536835}, {"current_trial": 120, "trialdata": {"rt": -1, "trial_type": "single-stim", "stimulus": "<p id=\"stim\">8</p>", "internal_node_id": "0.0-91.0-2.0", "time_elapsed": 802044, "key_press": -1, "trial_index": 120}, "uniqueid": "MTK2867:3SBEHTYCWOACKUYDLWZJUREL7Z7IYY", "dateTime": 1519421537827}, {"current_trial": 121, "trialdata": {"rt": -1, "trial_type": "single-stim", "stimulus": "<p id=\"stim\">7</p>", "internal_node_id": "0.0-91.0-3.0", "time_elapsed": 803040, "key_press": -1, "trial_index": 121}, "uniqueid": "MTK2867:3SBEHTYCWOACKUYDLWZJUREL7Z7IYY", "dateTime": 1519421538823}, {"current_trial": 122, "trialdata": {"rt": -1, "trial_type": "single-stim", "stimulus": "<p id=\"stim\">6</p>", "internal_node_id": "0.0-91.0-4.0", "time_elapsed": 804037, "key_press": -1, "trial_index": 122}, "uniqueid": "MTK2867:3SBEHTYCWOACKUYDLWZJUREL7Z7IYY", "dateTime": 1519421539820}, {"current_trial": 123, "trialdata": {"rt": -1, "trial_type": "single-stim", "stimulus": "<p id=\"stim\">5</p>", "internal_node_id": "0.0-91.0-5.0", "time_elapsed": 805039, "key_press": -1, "trial_index": 123}, "uniqueid": "MTK2867:3SBEHTYCWOACKUYDLWZJUREL7Z7IYY", "dateTime": 1519421540822}, {"current_trial": 124, "trialdata": {"rt": -1, "trial_type": "single-stim", "stimulus": "<p id=\"stim\">4</p>", "internal_node_id": "0.0-91.0-6.0", "time_elapsed": 806055, "key_press": -1, "trial_index": 124}, "uniqueid": "MTK2867:3SBEHTYCWOACKUYDLWZJUREL7Z7IYY", "dateTime": 1519421541839}, {"current_trial": 125, "trialdata": {"rt": -1, "trial_type": "single-stim", "stimulus": "<p id=\"stim\">3</p>", "internal_node_id": "0.0-91.0-7.0", "time_elapsed": 807038, "key_press": -1, "trial_index": 125}, "uniqueid": "MTK2867:3SBEHTYCWOACKUYDLWZJUREL7Z7IYY", "dateTime": 1519421542821}, {"current_trial": 126, "trialdata": {"rt": -1, "trial_type": "single-stim", "stimulus": "<p id=\"stim\">2</p>", "internal_node_id": "0.0-91.0-8.0", "time_elapsed": 808042, "key_press": -1, "trial_index": 126}, "uniqueid": "MTK2867:3SBEHTYCWOACKUYDLWZJUREL7Z7IYY", "dateTime": 1519421543826}, {"current_trial": 127, "trialdata": {"rt": -1, "trial_type": "single-stim", "stimulus": "<p id=\"stim\">1</p>", "internal_node_id": "0.0-91.0-9.0", "time_elapsed": 809047, "key_press": -1, "trial_index": 127}, "uniqueid": "MTK2867:3SBEHTYCWOACKUYDLWZJUREL7Z7IYY", "dateTime": 1519421544831}, {"current_trial": 128, "trialdata": {"rt": -1, "trial_type": "single-stim", "stimulus": "<p id=\"stim\">+</p>", "internal_node_id": "0.0-92.0-0.0", "time_elapsed": 810561, "key_press": -1, "type": "FIXATION", "trial_index": 128}, "uniqueid": "MTK2867:3SBEHTYCWOACKUYDLWZJUREL7Z7IYY", "dateTime": 1519421546345}, {"current_trial": 129, "trialdata": {"rt": -1, "trial_type": "single-stim", "word": "sausage", "stimulus": "<p id=\"stim\">SAUSAGE</p>", "conditions": [24, 800, "v", 24000], "internal_node_id": "0.0-93.0", "trial": 3, "time_elapsed": 811367, "serialpos": 0, "key_press": -1, "wordID": 1237, "type": "PRES_VIS", "trial_index": 129}, "uniqueid": "MTK2867:3SBEHTYCWOACKUYDLWZJUREL7Z7IYY", "dateTime": 1519421547150}, {"current_trial": 130, "trialdata": {"rt": -1, "trial_type": "single-stim", "word": "laser", "stimulus": "<p id=\"stim\">LASER</p>", "conditions": [24, 800, "v", 24000], "internal_node_id": "0.0-94.0", "trial": 3, "time_elapsed": 813008, "serialpos": 1, "key_press": -1, "wordID": 800, "type": "PRES_VIS", "trial_index": 130}, "uniqueid": "MTK2867:3SBEHTYCWOACKUYDLWZJUREL7Z7IYY", "dateTime": 1519421548791}, {"current_trial": 131, "trialdata": {"rt": -1, "trial_type": "single-stim", "word": "shorts", "stimulus": "<p id=\"stim\">SHORTS</p>", "conditions": [24, 800, "v", 24000], "internal_node_id": "0.0-95.0", "trial": 3, "time_elapsed": 814936, "serialpos": 2, "key_press": -1, "wordID": 1292, "type": "PRES_VIS", "trial_index": 131}, "uniqueid": "MTK2867:3SBEHTYCWOACKUYDLWZJUREL7Z7IYY", "dateTime": 1519421550720}, {"current_trial": 132, "trialdata": {"rt": -1, "trial_type": "single-stim", "word": "pizza", "stimulus": "<p id=\"stim\">PIZZA</p>", "conditions": [24, 800, "v", 24000], "internal_node_id": "0.0-96.0", "trial": 3, "time_elapsed": 816841, "serialpos": 3, "key_press": -1, "wordID": 1078, "type": "PRES_VIS", "trial_index": 132}, "uniqueid": "MTK2867:3SBEHTYCWOACKUYDLWZJUREL7Z7IYY", "dateTime": 1519421552625}, {"current_trial": 133, "trialdata": {"rt": -1, "trial_type": "single-stim", "word": "snack", "stimulus": "<p id=\"stim\">SNACK</p>", "conditions": [24, 800, "v", 24000], "internal_node_id": "0.0-97.0", "trial": 3, "time_elapsed": 818545, "serialpos": 4, "key_press": -1, "wordID": 1330, "type": "PRES_VIS", "trial_index": 133}, "uniqueid": "MTK2867:3SBEHTYCWOACKUYDLWZJUREL7Z7IYY", "dateTime": 1519421554329}, {"current_trial": 134, "trialdata": {"rt": -1, "trial_type": "single-stim", "word": "kleenex", "stimulus": "<p id=\"stim\">KLEENEX</p>", "conditions": [24, 800, "v", 24000], "internal_node_id": "0.0-98.0", "trial": 3, "time_elapsed": 820358, "serialpos": 5, "key_press": -1, "wordID": 781, "type": "PRES_VIS", "trial_index": 134}, "uniqueid": "MTK2867:3SBEHTYCWOACKUYDLWZJUREL7Z7IYY", "dateTime": 1519421556141}, {"current_trial": 135, "trialdata": {"rt": -1, "trial_type": "single-stim", "word": "permit", "stimulus": "<p id=\"stim\">PERMIT</p>", "conditions": [24, 800, "v", 24000], "internal_node_id": "0.0-99.0", "trial": 3, "time_elapsed": 822013, "serialpos": 6, "key_press": -1, "wordID": 1050, "type": "PRES_VIS", "trial_index": 135}, "uniqueid": "MTK2867:3SBEHTYCWOACKUYDLWZJUREL7Z7IYY", "dateTime": 1519421557796}, {"current_trial": 136, "trialdata": {"rt": -1, "trial_type": "single-stim", "word": "nurse", "stimulus": "<p id=\"stim\">NURSE</p>", "conditions": [24, 800, "v", 24000], "internal_node_id": "0.0-100.0", "trial": 3, "time_elapsed": 823789, "serialpos": 7, "key_press": -1, "wordID": 962, "type": "PRES_VIS", "trial_index": 136}, "uniqueid": "MTK2867:3SBEHTYCWOACKUYDLWZJUREL7Z7IYY", "dateTime": 1519421559573}, {"current_trial": 137, "trialdata": {"rt": -1, "trial_type": "single-stim", "word": "cousin", "stimulus": "<p id=\"stim\">COUSIN</p>", "conditions": [24, 800, "v", 24000], "internal_node_id": "0.0-101.0", "trial": 3, "time_elapsed": 825474, "serialpos": 8, "key_press": -1, "wordID": 391, "type": "PRES_VIS", "trial_index": 137}, "uniqueid": "MTK2867:3SBEHTYCWOACKUYDLWZJUREL7Z7IYY", "dateTime": 1519421561258}, {"current_trial": 138, "trialdata": {"rt": -1, "trial_type": "single-stim", "word": "clock", "stimulus": "<p id=\"stim\">CLOCK</p>", "conditions": [24, 800, "v", 24000], "internal_node_id": "0.0-102.0", "trial": 3, "time_elapsed": 827170, "serialpos": 9, "key_press": -1, "wordID": 324, "type": "PRES_VIS", "trial_index": 138}, "uniqueid": "MTK2867:3SBEHTYCWOACKUYDLWZJUREL7Z7IYY", "dateTime": 1519421562953}, {"current_trial": 139, "trialdata": {"rt": -1, "trial_type": "single-stim", "word": "pasta", "stimulus": "<p id=\"stim\">PASTA</p>", "conditions": [24, 800, "v", 24000], "internal_node_id": "0.0-103.0", "trial": 3, "time_elapsed": 829190, "serialpos": 10, "key_press": -1, "wordID": 1020, "type": "PRES_VIS", "trial_index": 139}, "uniqueid": "MTK2867:3SBEHTYCWOACKUYDLWZJUREL7Z7IYY", "dateTime": 1519421564974}, {"current_trial": 140, "trialdata": {"rt": -1, "trial_type": "single-stim", "word": "pork", "stimulus": "<p id=\"stim\">PORK</p>", "conditions": [24, 800, "v", 24000], "internal_node_id": "0.0-104.0", "trial": 3, "time_elapsed": 831018, "serialpos": 11, "key_press": -1, "wordID": 1107, "type": "PRES_VIS", "trial_index": 140}, "uniqueid": "MTK2867:3SBEHTYCWOACKUYDLWZJUREL7Z7IYY", "dateTime": 1519421566801}, {"current_trial": 141, "trialdata": {"rt": -1, "trial_type": "single-stim", "word": "typist", "stimulus": "<p id=\"stim\">TYPIST</p>", "conditions": [24, 800, "v", 24000], "internal_node_id": "0.0-105.0", "trial": 3, "time_elapsed": 832938, "serialpos": 12, "key_press": -1, "wordID": 1531, "type": "PRES_VIS", "trial_index": 141}, "uniqueid": "MTK2867:3SBEHTYCWOACKUYDLWZJUREL7Z7IYY", "dateTime": 1519421568721}, {"current_trial": 142, "trialdata": {"rt": -1, "trial_type": "single-stim", "word": "marrow", "stimulus": "<p id=\"stim\">MARROW</p>", "conditions": [24, 800, "v", 24000], "internal_node_id": "0.0-106.0", "trial": 3, "time_elapsed": 834903, "serialpos": 13, "key_press": -1, "wordID": 871, "type": "PRES_VIS", "trial_index": 142}, "uniqueid": "MTK2867:3SBEHTYCWOACKUYDLWZJUREL7Z7IYY", "dateTime": 1519421570687}, {"current_trial": 143, "trialdata": {"rt": -1, "trial_type": "single-stim", "word": "liver", "stimulus": "<p id=\"stim\">LIVER</p>", "conditions": [24, 800, "v", 24000], "internal_node_id": "0.0-107.0", "trial": 3, "time_elapsed": 836608, "serialpos": 14, "key_press": -1, "wordID": 832, "type": "PRES_VIS", "trial_index": 143}, "uniqueid": "MTK2867:3SBEHTYCWOACKUYDLWZJUREL7Z7IYY", "dateTime": 1519421572392}, {"current_trial": 144, "trialdata": {"rt": -1, "trial_type": "single-stim", "word": "zebra", "stimulus": "<p id=\"stim\">ZEBRA</p>", "conditions": [24, 800, "v", 24000], "internal_node_id": "0.0-108.0", "trial": 3, "time_elapsed": 838531, "serialpos": 15, "key_press": -1, "wordID": 1634, "type": "PRES_VIS", "trial_index": 144}, "uniqueid": "MTK2867:3SBEHTYCWOACKUYDLWZJUREL7Z7IYY", "dateTime": 1519421574314}, {"current_trial": 145, "trialdata": {"rt": -1, "trial_type": "single-stim", "word": "boyfriend", "stimulus": "<p id=\"stim\">BOYFRIEND</p>", "conditions": [24, 800, "v", 24000], "internal_node_id": "0.0-109.0", "trial": 3, "time_elapsed": 840338, "serialpos": 16, "key_press": -1, "wordID": 161, "type": "PRES_VIS", "trial_index": 145}, "uniqueid": "MTK2867:3SBEHTYCWOACKUYDLWZJUREL7Z7IYY", "dateTime": 1519421576121}, {"current_trial": 146, "trialdata": {"rt": -1, "trial_type": "single-stim", "word": "crab", "stimulus": "<p id=\"stim\">CRAB</p>", "conditions": [24, 800, "v", 24000], "internal_node_id": "0.0-110.0", "trial": 3, "time_elapsed": 842128, "serialpos": 17, "key_press": -1, "wordID": 396, "type": "PRES_VIS", "trial_index": 146}, "uniqueid": "MTK2867:3SBEHTYCWOACKUYDLWZJUREL7Z7IYY", "dateTime": 1519421577911}, {"current_trial": 147, "trialdata": {"rt": -1, "trial_type": "single-stim", "word": "lagoon", "stimulus": "<p id=\"stim\">LAGOON</p>", "conditions": [24, 800, "v", 24000], "internal_node_id": "0.0-111.0", "trial": 3, "time_elapsed": 843801, "serialpos": 18, "key_press": -1, "wordID": 794, "type": "PRES_VIS", "trial_index": 147}, "uniqueid": "MTK2867:3SBEHTYCWOACKUYDLWZJUREL7Z7IYY", "dateTime": 1519421579585}, {"current_trial": 148, "trialdata": {"rt": -1, "trial_type": "single-stim", "word": "hornet", "stimulus": "<p id=\"stim\">HORNET</p>", "conditions": [24, 800, "v", 24000], "internal_node_id": "0.0-112.0", "trial": 3, "time_elapsed": 845453, "serialpos": 19, "key_press": -1, "wordID": 717, "type": "PRES_VIS", "trial_index": 148}, "uniqueid": "MTK2867:3SBEHTYCWOACKUYDLWZJUREL7Z7IYY", "dateTime": 1519421581236}, {"current_trial": 149, "trialdata": {"rt": -1, "trial_type": "single-stim", "word": "venus", "stimulus": "<p id=\"stim\">VENUS</p>", "conditions": [24, 800, "v", 24000], "internal_node_id": "0.0-113.0", "trial": 3, "time_elapsed": 847373, "serialpos": 20, "key_press": -1, "wordID": 1556, "type": "PRES_VIS", "trial_index": 149}, "uniqueid": "MTK2867:3SBEHTYCWOACKUYDLWZJUREL7Z7IYY", "dateTime": 1519421583157}, {"current_trial": 150, "trialdata": {"rt": -1, "trial_type": "single-stim", "word": "omelet", "stimulus": "<p id=\"stim\">OMELET</p>", "conditions": [24, 800, "v", 24000], "internal_node_id": "0.0-114.0", "trial": 3, "time_elapsed": 849305, "serialpos": 21, "key_press": -1, "wordID": 975, "type": "PRES_VIS", "trial_index": 150}, "uniqueid": "MTK2867:3SBEHTYCWOACKUYDLWZJUREL7Z7IYY", "dateTime": 1519421585089}, {"current_trial": 151, "trialdata": {"rt": -1, "trial_type": "single-stim", "word": "leopard", "stimulus": "<p id=\"stim\">LEOPARD</p>", "conditions": [24, 800, "v", 24000], "internal_node_id": "0.0-115.0", "trial": 3, "time_elapsed": 851166, "serialpos": 22, "key_press": -1, "wordID": 811, "type": "PRES_VIS", "trial_index": 151}, "uniqueid": "MTK2867:3SBEHTYCWOACKUYDLWZJUREL7Z7IYY", "dateTime": 1519421586950}, {"current_trial": 152, "trialdata": {"rt": -1, "trial_type": "single-stim", "word": "kidney", "stimulus": "<p id=\"stim\">KIDNEY</p>", "conditions": [24, 800, "v", 24000], "internal_node_id": "0.0-116.0", "trial": 3, "time_elapsed": 853122, "serialpos": 23, "key_press": -1, "wordID": 775, "type": "PRES_VIS", "trial_index": 152}, "uniqueid": "MTK2867:3SBEHTYCWOACKUYDLWZJUREL7Z7IYY", "dateTime": 1519421588906}, {"current_trial": 153, "trialdata": {"rt": -1, "trial_type": "single-stim", "stimulus": "", "internal_node_id": "0.0-117.0-0.0", "time_elapsed": 855376, "key_press": -1, "type": "PRE_RECALL_DELAY", "trial_index": 153}, "uniqueid": "MTK2867:3SBEHTYCWOACKUYDLWZJUREL7Z7IYY", "dateTime": 1519421591160}, {"current_trial": 154, "trialdata": {"rt": -1000, "trial_type": "single-audio", "stimulus": "/static/audio/400Hz.wav", "internal_node_id": "0.0-118.0", "time_elapsed": 855877, "key_press": -1, "type": "PRE_RECALL_ALERT", "trial_index": 154}, "uniqueid": "MTK2867:3SBEHTYCWOACKUYDLWZJUREL7Z7IYY", "dateTime": 1519421591661}, {"current_trial": 155, "trialdata": {"rt": [6129, 9112, 13745, 16280, 19040, 21243, 24638, 27740, 30354, 32951, 34922, 37608, 40117, 42634], "recwords": ["leopard", "sausage", "lazer", "pizza", "snack", "boyfriend", "permit", "cousin", "pasta", "pork", "marrow", "zebra", "crab", "hornet"], "key_times": [2342, 3986, 4252, 4556, 4739, 4922, 5249, 6129, 7653, 7912, 8128, 8261, 8475, 8662, 8827, 9112, 12696, 12852, 13130, 13358, 13505, 13745, 15219, 15509, 15663, 15840, 16078, 16280, 17987, 18202, 18365, 18650, 18801, 19040, 19361, 19498, 19699, 19819, 20013, 20136, 20250, 20410, 20582, 21243, 23347, 23721, 23832, 24099, 24248, 24416, 24638, 26646, 26815, 26926, 27053, 27203, 27402, 27740, 29331, 29487, 29655, 29836, 30018, 30354, 31982, 32239, 32388, 32571, 32951, 34007, 34163, 34235, 34424, 34540, 34662, 34922, 36345, 36619, 36880, 37146, 37291, 37608, 38987, 39245, 39429, 39640, 40117, 41459, 41735, 41931, 42131, 42257, 42387, 42634], "trial_type": "free-recall", "conditions": [24, 800, "v", 24000], "internal_node_id": "0.0-119.0-0.0", "key_presses": [76, 69, 79, 80, 65, 82, 68, 13, 83, 65, 85, 83, 65, 71, 69, 13, 76, 65, 90, 69, 82, 13, 80, 73, 90, 90, 65, 13, 83, 78, 65, 67, 75, 13, 66, 79, 89, 70, 82, 73, 69, 78, 68, 13, 80, 69, 82, 77, 73, 84, 13, 67, 79, 85, 83, 73, 78, 13, 80, 65, 83, 84, 65, 13, 80, 79, 82, 75, 13, 77, 65, 82, 82, 79, 87, 13, 90, 69, 66, 82, 65, 13, 67, 82, 65, 66, 13, 72, 79, 82, 78, 69, 84, 13], "trial": 3, "time_elapsed": 915900, "type": "FREE_RECALL", "trial_index": 155}, "uniqueid": "MTK2867:3SBEHTYCWOACKUYDLWZJUREL7Z7IYY", "dateTime": 1519421651690}, {"current_trial": 156, "trialdata": {"rt": 247235, "trial_type": "text", "internal_node_id": "0.0-120.0", "time_elapsed": 1165152, "key_press": 13, "type": "INSTRUCTIONS", "trial_index": 156}, "uniqueid": "MTK2867:3SBEHTYCWOACKUYDLWZJUREL7Z7IYY", "dateTime": 1519421900936}, {"current_trial": 157, "trialdata": {"rt": [5338, 7980, 11787, 13794, 16211, 19070, 23528], "trial_type": "math-distractor", "key_times": [4480, 4800, 5338, 7473, 7703, 7980, 11328, 11542, 11787, 13091, 13534, 13794, 15850, 16028, 16211, 18659, 19070, 23126, 23273, 23528], "responses": ["17", "14", "11", "10", "11", "7", "15"], "num2": [3, 8, 6, 4, 1, 1, 5, 4], "num3": [6, 2, 2, 2, 8, 2, 6, 2], "conditions": [24, 1600, "v", 24000], "internal_node_id": "0.0-121.0", "key_presses": [49, 55, 13, 49, 52, 13, 49, 49, 13, 49, 48, 13, 49, 49, 13, 55, 13, 49, 53, 13], "trial": 4, "time_elapsed": 1191182, "type": "DISTRACTOR", "trial_index": 157, "num1": [8, 4, 3, 4, 2, 4, 4, 6]}, "uniqueid": "MTK2867:3SBEHTYCWOACKUYDLWZJUREL7Z7IYY", "dateTime": 1519421926966}, {"current_trial": 158, "trialdata": {"rt": -1, "trial_type": "single-stim", "stimulus": "<p id=\"stim\">10</p>", "internal_node_id": "0.0-122.0-0.0", "time_elapsed": 1194211, "key_press": -1, "trial_index": 158}, "uniqueid": "MTK2867:3SBEHTYCWOACKUYDLWZJUREL7Z7IYY", "dateTime": 1519421929994}, {"current_trial": 159, "trialdata": {"rt": -1, "trial_type": "single-stim", "stimulus": "<p id=\"stim\">9</p>", "internal_node_id": "0.0-122.0-1.0", "time_elapsed": 1195221, "key_press": -1, "trial_index": 159}, "uniqueid": "MTK2867:3SBEHTYCWOACKUYDLWZJUREL7Z7IYY", "dateTime": 1519421931005}, {"current_trial": 160, "trialdata": {"rt": -1, "trial_type": "single-stim", "stimulus": "<p id=\"stim\">8</p>", "internal_node_id": "0.0-122.0-2.0", "time_elapsed": 1196224, "key_press": -1, "trial_index": 160}, "uniqueid": "MTK2867:3SBEHTYCWOACKUYDLWZJUREL7Z7IYY", "dateTime": 1519421932008}, {"current_trial": 161, "trialdata": {"rt": -1, "trial_type": "single-stim", "stimulus": "<p id=\"stim\">7</p>", "internal_node_id": "0.0-122.0-3.0", "time_elapsed": 1197217, "key_press": -1, "trial_index": 161}, "uniqueid": "MTK2867:3SBEHTYCWOACKUYDLWZJUREL7Z7IYY", "dateTime": 1519421933000}, {"current_trial": 162, "trialdata": {"rt": -1, "trial_type": "single-stim", "stimulus": "<p id=\"stim\">6</p>", "internal_node_id": "0.0-122.0-4.0", "time_elapsed": 1198231, "key_press": -1, "trial_index": 162}, "uniqueid": "MTK2867:3SBEHTYCWOACKUYDLWZJUREL7Z7IYY", "dateTime": 1519421934015}, {"current_trial": 163, "trialdata": {"rt": -1, "trial_type": "single-stim", "stimulus": "<p id=\"stim\">5</p>", "internal_node_id": "0.0-122.0-5.0", "time_elapsed": 1199217, "key_press": -1, "trial_index": 163}, "uniqueid": "MTK2867:3SBEHTYCWOACKUYDLWZJUREL7Z7IYY", "dateTime": 1519421935000}, {"current_trial": 164, "trialdata": {"rt": -1, "trial_type": "single-stim", "stimulus": "<p id=\"stim\">4</p>", "internal_node_id": "0.0-122.0-6.0", "time_elapsed": 1200224, "key_press": -1, "trial_index": 164}, "uniqueid": "MTK2867:3SBEHTYCWOACKUYDLWZJUREL7Z7IYY", "dateTime": 1519421936008}, {"current_trial": 165, "trialdata": {"rt": -1, "trial_type": "single-stim", "stimulus": "<p id=\"stim\">3</p>", "internal_node_id": "0.0-122.0-7.0", "time_elapsed": 1201227, "key_press": -1, "trial_index": 165}, "uniqueid": "MTK2867:3SBEHTYCWOACKUYDLWZJUREL7Z7IYY", "dateTime": 1519421937010}, {"current_trial": 166, "trialdata": {"rt": -1, "trial_type": "single-stim", "stimulus": "<p id=\"stim\">2</p>", "internal_node_id": "0.0-122.0-8.0", "time_elapsed": 1202213, "key_press": -1, "trial_index": 166}, "uniqueid": "MTK2867:3SBEHTYCWOACKUYDLWZJUREL7Z7IYY", "dateTime": 1519421937996}, {"current_trial": 167, "trialdata": {"rt": -1, "trial_type": "single-stim", "stimulus": "<p id=\"stim\">1</p>", "internal_node_id": "0.0-122.0-9.0", "time_elapsed": 1203229, "key_press": -1, "trial_index": 167}, "uniqueid": "MTK2867:3SBEHTYCWOACKUYDLWZJUREL7Z7IYY", "dateTime": 1519421939012}, {"current_trial": 168, "trialdata": {"rt": -1, "trial_type": "single-stim", "stimulus": "<p id=\"stim\">+</p>", "internal_node_id": "0.0-123.0-0.0", "time_elapsed": 1204743, "key_press": -1, "type": "FIXATION", "trial_index": 168}, "uniqueid": "MTK2867:3SBEHTYCWOACKUYDLWZJUREL7Z7IYY", "dateTime": 1519421940527}, {"current_trial": 169, "trialdata": {"rt": -1, "trial_type": "single-stim", "word": "finger", "stimulus": "<p id=\"stim\">FINGER</p>", "conditions": [24, 1600, "v", 24000], "internal_node_id": "0.0-124.0", "trial": 4, "time_elapsed": 1206357, "serialpos": 0, "key_press": -1, "wordID": 566, "type": "PRES_VIS", "trial_index": 169}, "uniqueid": "MTK2867:3SBEHTYCWOACKUYDLWZJUREL7Z7IYY", "dateTime": 1519421942140}, {"current_trial": 170, "trialdata": {"rt": -1, "trial_type": "single-stim", "word": "gravel", "stimulus": "<p id=\"stim\">GRAVEL</p>", "conditions": [24, 1600, "v", 24000], "internal_node_id": "0.0-125.0", "trial": 4, "time_elapsed": 1209090, "serialpos": 1, "key_press": -1, "wordID": 658, "type": "PRES_VIS", "trial_index": 170}, "uniqueid": "MTK2867:3SBEHTYCWOACKUYDLWZJUREL7Z7IYY", "dateTime": 1519421944874}, {"current_trial": 171, "trialdata": {"rt": -1, "trial_type": "single-stim", "word": "igloo", "stimulus": "<p id=\"stim\">IGLOO</p>", "conditions": [24, 1600, "v", 24000], "internal_node_id": "0.0-126.0", "trial": 4, "time_elapsed": 1211837, "serialpos": 2, "key_press": -1, "wordID": 733, "type": "PRES_VIS", "trial_index": 171}, "uniqueid": "MTK2867:3SBEHTYCWOACKUYDLWZJUREL7Z7IYY", "dateTime": 1519421947620}, {"current_trial": 172, "trialdata": {"rt": -1, "trial_type": "single-stim", "word": "label", "stimulus": "<p id=\"stim\">LABEL</p>", "conditions": [24, 1600, "v", 24000], "internal_node_id": "0.0-127.0", "trial": 4, "time_elapsed": 1214323, "serialpos": 3, "key_press": -1, "wordID": 789, "type": "PRES_VIS", "trial_index": 172}, "uniqueid": "MTK2867:3SBEHTYCWOACKUYDLWZJUREL7Z7IYY", "dateTime": 1519421950106}, {"current_trial": 173, "trialdata": {"rt": -1, "trial_type": "single-stim", "word": "flag", "stimulus": "<p id=\"stim\">FLAG</p>", "conditions": [24, 1600, "v", 24000], "internal_node_id": "0.0-128.0", "trial": 4, "time_elapsed": 1216970, "serialpos": 4, "key_press": -1, "wordID": 572, "type": "PRES_VIS", "trial_index": 173}, "uniqueid": "MTK2867:3SBEHTYCWOACKUYDLWZJUREL7Z7IYY", "dateTime": 1519421952753}, {"current_trial": 174, "trialdata": {"rt": -1, "trial_type": "single-stim", "word": "sunrise", "stimulus": "<p id=\"stim\">SUNRISE</p>", "conditions": [24, 1600, "v", 24000], "internal_node_id": "0.0-129.0", "trial": 4, "time_elapsed": 1219496, "serialpos": 5, "key_press": -1, "wordID": 1406, "type": "PRES_VIS", "trial_index": 174}, "uniqueid": "MTK2867:3SBEHTYCWOACKUYDLWZJUREL7Z7IYY", "dateTime": 1519421955280}, {"current_trial": 175, "trialdata": {"rt": -1, "trial_type": "single-stim", "word": "trout", "stimulus": "<p id=\"stim\">TROUT</p>", "conditions": [24, 1600, "v", 24000], "internal_node_id": "0.0-130.0", "trial": 4, "time_elapsed": 1221975, "serialpos": 6, "key_press": -1, "wordID": 1510, "type": "PRES_VIS", "trial_index": 175}, "uniqueid": "MTK2867:3SBEHTYCWOACKUYDLWZJUREL7Z7IYY", "dateTime": 1519421957758}, {"current_trial": 176, "trialdata": {"rt": -1, "trial_type": "single-stim", "word": "scarecrow", "stimulus": "<p id=\"stim\">SCARECROW</p>", "conditions": [24, 1600, "v", 24000], "internal_node_id": "0.0-131.0", "trial": 4, "time_elapsed": 1224677, "serialpos": 7, "key_press": -1, "wordID": 1244, "type": "PRES_VIS", "trial_index": 176}, "uniqueid": "MTK2867:3SBEHTYCWOACKUYDLWZJUREL7Z7IYY", "dateTime": 1519421960462}, {"current_trial": 177, "trialdata": {"rt": -1, "trial_type": "single-stim", "word": "costume", "stimulus": "<p id=\"stim\">COSTUME</p>", "conditions": [24, 1600, "v", 24000], "internal_node_id": "0.0-132.0", "trial": 4, "time_elapsed": 1227144, "serialpos": 8, "key_press": -1, "wordID": 382, "type": "PRES_VIS", "trial_index": 177}, "uniqueid": "MTK2867:3SBEHTYCWOACKUYDLWZJUREL7Z7IYY", "dateTime": 1519421962928}, {"current_trial": 178, "trialdata": {"rt": -1, "trial_type": "single-stim", "word": "wrist", "stimulus": "<p id=\"stim\">WRIST</p>", "conditions": [24, 1600, "v", 24000], "internal_node_id": "0.0-133.0", "trial": 4, "time_elapsed": 1229893, "serialpos": 9, "key_press": -1, "wordID": 1625, "type": "PRES_VIS", "trial_index": 178}, "uniqueid": "MTK2867:3SBEHTYCWOACKUYDLWZJUREL7Z7IYY", "dateTime": 1519421965676}, {"current_trial": 179, "trialdata": {"rt": -1, "trial_type": "single-stim", "word": "smog", "stimulus": "<p id=\"stim\">SMOG</p>", "conditions": [24, 1600, "v", 24000], "internal_node_id": "0.0-134.0", "trial": 4, "time_elapsed": 1232664, "serialpos": 10, "key_press": -1, "wordID": 1329, "type": "PRES_VIS", "trial_index": 179}, "uniqueid": "MTK2867:3SBEHTYCWOACKUYDLWZJUREL7Z7IYY", "dateTime": 1519421968447}, {"current_trial": 180, "trialdata": {"rt": -1, "trial_type": "single-stim", "word": "flask", "stimulus": "<p id=\"stim\">FLASK</p>", "conditions": [24, 1600, "v", 24000], "internal_node_id": "0.0-135.0", "trial": 4, "time_elapsed": 1235125, "serialpos": 11, "key_press": -1, "wordID": 575, "type": "PRES_VIS", "trial_index": 180}, "uniqueid": "MTK2867:3SBEHTYCWOACKUYDLWZJUREL7Z7IYY", "dateTime": 1519421970909}, {"current_trial": 181, "trialdata": {"rt": -1, "trial_type": "single-stim", "word": "transplant", "stimulus": "<p id=\"stim\">TRANSPLANT</p>", "conditions": [24, 1600, "v", 24000], "internal_node_id": "0.0-136.0", "trial": 4, "time_elapsed": 1237658, "serialpos": 12, "key_press": -1, "wordID": 1495, "type": "PRES_VIS", "trial_index": 181}, "uniqueid": "MTK2867:3SBEHTYCWOACKUYDLWZJUREL7Z7IYY", "dateTime": 1519421973442}, {"current_trial": 182, "trialdata": {"rt": -1, "trial_type": "single-stim", "word": "stomach", "stimulus": "<p id=\"stim\">STOMACH</p>", "conditions": [24, 1600, "v", 24000], "internal_node_id": "0.0-137.0", "trial": 4, "time_elapsed": 1240427, "serialpos": 13, "key_press": -1, "wordID": 1383, "type": "PRES_VIS", "trial_index": 182}, "uniqueid": "MTK2867:3SBEHTYCWOACKUYDLWZJUREL7Z7IYY", "dateTime": 1519421976211}, {"current_trial": 183, "trialdata": {"rt": -1, "trial_type": "single-stim", "word": "chest", "stimulus": "<p id=\"stim\">CHEST</p>", "conditions": [24, 1600, "v", 24000], "internal_node_id": "0.0-138.0", "trial": 4, "time_elapsed": 1243006, "serialpos": 14, "key_press": -1, "wordID": 294, "type": "PRES_VIS", "trial_index": 183}, "uniqueid": "MTK2867:3SBEHTYCWOACKUYDLWZJUREL7Z7IYY", "dateTime": 1519421978790}, {"current_trial": 184, "trialdata": {"rt": -1, "trial_type": "single-stim", "word": "hero", "stimulus": "<p id=\"stim\">HERO</p>", "conditions": [24, 1600, "v", 24000], "internal_node_id": "0.0-139.0", "trial": 4, "time_elapsed": 1245574, "serialpos": 15, "key_press": -1, "wordID": 705, "type": "PRES_VIS", "trial_index": 184}, "uniqueid": "MTK2867:3SBEHTYCWOACKUYDLWZJUREL7Z7IYY", "dateTime": 1519421981358}, {"current_trial": 185, "trialdata": {"rt": -1, "trial_type": "single-stim", "word": "baby", "stimulus": "<p id=\"stim\">BABY</p>", "conditions": [24, 1600, "v", 24000], "internal_node_id": "0.0-140.0", "trial": 4, "time_elapsed": 1248241, "serialpos": 16, "key_press": -1, "wordID": 63, "type": "PRES_VIS", "trial_index": 185}, "uniqueid": "MTK2867:3SBEHTYCWOACKUYDLWZJUREL7Z7IYY", "dateTime": 1519421984025}, {"current_trial": 186, "trialdata": {"rt": -1, "trial_type": "single-stim", "word": "swamp", "stimulus": "<p id=\"stim\">SWAMP</p>", "conditions": [24, 1600, "v", 24000], "internal_node_id": "0.0-141.0", "trial": 4, "time_elapsed": 1250995, "serialpos": 17, "key_press": -1, "wordID": 1415, "type": "PRES_VIS", "trial_index": 186}, "uniqueid": "MTK2867:3SBEHTYCWOACKUYDLWZJUREL7Z7IYY", "dateTime": 1519421986779}, {"current_trial": 187, "trialdata": {"rt": -1, "trial_type": "single-stim", "word": "cocoon", "stimulus": "<p id=\"stim\">COCOON</p>", "conditions": [24, 1600, "v", 24000], "internal_node_id": "0.0-142.0", "trial": 4, "time_elapsed": 1253489, "serialpos": 18, "key_press": -1, "wordID": 338, "type": "PRES_VIS", "trial_index": 187}, "uniqueid": "MTK2867:3SBEHTYCWOACKUYDLWZJUREL7Z7IYY", "dateTime": 1519421989272}, {"current_trial": 188, "trialdata": {"rt": -1, "trial_type": "single-stim", "word": "onion", "stimulus": "<p id=\"stim\">ONION</p>", "conditions": [24, 1600, "v", 24000], "internal_node_id": "0.0-143.0", "trial": 4, "time_elapsed": 1255936, "serialpos": 19, "key_press": -1, "wordID": 976, "type": "PRES_VIS", "trial_index": 188}, "uniqueid": "MTK2867:3SBEHTYCWOACKUYDLWZJUREL7Z7IYY", "dateTime": 1519421991720}, {"current_trial": 189, "trialdata": {"rt": -1, "trial_type": "single-stim", "word": "spool", "stimulus": "<p id=\"stim\">SPOOL</p>", "conditions": [24, 1600, "v", 24000], "internal_node_id": "0.0-144.0", "trial": 4, "time_elapsed": 1258498, "serialpos": 20, "key_press": -1, "wordID": 1355, "type": "PRES_VIS", "trial_index": 189}, "uniqueid": "MTK2867:3SBEHTYCWOACKUYDLWZJUREL7Z7IYY", "dateTime": 1519421994281}, {"current_trial": 190, "trialdata": {"rt": -1, "trial_type": "single-stim", "word": "friend", "stimulus": "<p id=\"stim\">FRIEND</p>", "conditions": [24, 1600, "v", 24000], "internal_node_id": "0.0-145.0", "trial": 4, "time_elapsed": 1261207, "serialpos": 21, "key_press": -1, "wordID": 605, "type": "PRES_VIS", "trial_index": 190}, "uniqueid": "MTK2867:3SBEHTYCWOACKUYDLWZJUREL7Z7IYY", "dateTime": 1519421996990}, {"current_trial": 191, "trialdata": {"rt": -1, "trial_type": "single-stim", "word": "girl", "stimulus": "<p id=\"stim\">GIRL</p>", "conditions": [24, 1600, "v", 24000], "internal_node_id": "0.0-146.0", "trial": 4, "time_elapsed": 1263888, "serialpos": 22, "key_press": -1, "wordID": 636, "type": "PRES_VIS", "trial_index": 191}, "uniqueid": "MTK2867:3SBEHTYCWOACKUYDLWZJUREL7Z7IYY", "dateTime": 1519421999671}, {"current_trial": 192, "trialdata": {"rt": -1, "trial_type": "single-stim", "word": "vagrant", "stimulus": "<p id=\"stim\">VAGRANT</p>", "conditions": [24, 1600, "v", 24000], "internal_node_id": "0.0-147.0", "trial": 4, "time_elapsed": 1266507, "serialpos": 23, "key_press": -1, "wordID": 1543, "type": "PRES_VIS", "trial_index": 192}, "uniqueid": "MTK2867:3SBEHTYCWOACKUYDLWZJUREL7Z7IYY", "dateTime": 1519422002290}, {"current_trial": 193, "trialdata": {"rt": -1, "trial_type": "single-stim", "stimulus": "", "internal_node_id": "0.0-148.0-0.0", "time_elapsed": 1268739, "key_press": -1, "type": "PRE_RECALL_DELAY", "trial_index": 193}, "uniqueid": "MTK2867:3SBEHTYCWOACKUYDLWZJUREL7Z7IYY", "dateTime": 1519422004522}, {"current_trial": 194, "trialdata": {"rt": -1000, "trial_type": "single-audio", "stimulus": "/static/audio/400Hz.wav", "internal_node_id": "0.0-149.0", "time_elapsed": 1269255, "key_press": -1, "type": "PRE_RECALL_ALERT", "trial_index": 194}, "uniqueid": "MTK2867:3SBEHTYCWOACKUYDLWZJUREL7Z7IYY", "dateTime": 1519422005039}, {"current_trial": 195, "trialdata": {"rt": [3652, 8030, 11861, 15591, 18270, 20885, 25867, 27918, 32431, 36547, 38990, 41517, 44821, 47485], "recwords": ["vagrant", "girl", "finger", "igloo", "label", "sunrise", "scarecrow", "wrist", "transplant", "hero", "baby", "swamp", "onion", "spool"], "key_times": [2196, 2420, 2655, 2763, 2946, 3098, 3245, 3652, 5335, 5443, 5599, 5635, 5785, 6392, 6582, 7240, 8030, 10784, 10931, 11174, 11282, 11445, 11587, 11861, 14520, 14645, 14872, 15122, 15287, 15591, 17217, 17330, 17483, 17694, 17927, 18270, 19657, 19810, 20033, 20165, 20280, 20411, 20498, 20885, 22386, 22651, 22935, 23082, 23189, 23432, 23628, 23755, 24372, 25867, 26401, 26525, 26721, 26844, 26948, 27918, 28596, 28717, 28847, 29253, 29703, 29998, 30115, 30266, 30599, 30791, 30943, 31068, 32431, 34804, 34914, 35324, 35517, 35814, 35929, 36040, 36192, 36547, 38157, 38309, 38482, 38670, 38990, 40493, 40749, 40856, 41007, 41205, 41517, 43873, 44064, 44208, 44361, 44512, 44821, 46128, 46244, 46515, 46709, 47164, 47485], "trial_type": "free-recall", "conditions": [24, 1600, "v", 24000], "internal_node_id": "0.0-150.0-0.0", "key_presses": [86, 65, 71, 82, 65, 78, 84, 13, 71, 73, 82, 84, 76, 8, 8, 76, 13, 70, 73, 78, 71, 69, 82, 13, 73, 71, 76, 79, 79, 13, 76, 65, 66, 69, 76, 13, 83, 85, 78, 82, 73, 83, 69, 13, 83, 67, 65, 82, 69, 67, 82, 79, 87, 13, 87, 82, 73, 83, 84, 13, 84, 82, 65, 83, 8, 78, 83, 80, 76, 65, 78, 84, 13, 69, 82, 8, 8, 72, 69, 82, 79, 13, 66, 65, 66, 89, 13, 83, 87, 65, 77, 80, 13, 79, 78, 73, 79, 78, 13, 83, 80, 79, 79, 76, 13], "trial": 4, "time_elapsed": 1329272, "type": "FREE_RECALL", "trial_index": 195}, "uniqueid": "MTK2867:3SBEHTYCWOACKUYDLWZJUREL7Z7IYY", "dateTime": 1519422065066}, {"current_trial": 196, "trialdata": {"rt": 55018, "trial_type": "text", "internal_node_id": "0.0-151.0", "time_elapsed": 1386317, "key_press": 13, "type": "INSTRUCTIONS", "trial_index": 196}, "uniqueid": "MTK2867:3SBEHTYCWOACKUYDLWZJUREL7Z7IYY", "dateTime": 1519422122101}, {"current_trial": 197, "trialdata": {"rt": [3034, 7808], "trial_type": "math-distractor", "key_times": [2487, 2668, 3034, 7138, 7513, 7808], "responses": ["15", "17"], "num2": [3, 6, 6], "num3": [4, 6, 9], "conditions": [24, 1600, "v", 12000], "internal_node_id": "0.0-152.0", "key_presses": [49, 53, 13, 49, 55, 13], "trial": 5, "time_elapsed": 1400355, "type": "DISTRACTOR", "trial_index": 197, "num1": [5, 5, 9]}, "uniqueid": "MTK2867:3SBEHTYCWOACKUYDLWZJUREL7Z7IYY", "dateTime": 1519422136138}, {"current_trial": 198, "trialdata": {"rt": -1, "trial_type": "single-stim", "stimulus": "<p id=\"stim\">10</p>", "internal_node_id": "0.0-153.0-0.0", "time_elapsed": 1403386, "key_press": -1, "trial_index": 198}, "uniqueid": "MTK2867:3SBEHTYCWOACKUYDLWZJUREL7Z7IYY", "dateTime": 1519422139170}, {"current_trial": 199, "trialdata": {"rt": -1, "trial_type": "single-stim", "stimulus": "<p id=\"stim\">9</p>", "internal_node_id": "0.0-153.0-1.0", "time_elapsed": 1404370, "key_press": -1, "trial_index": 199}, "uniqueid": "MTK2867:3SBEHTYCWOACKUYDLWZJUREL7Z7IYY", "dateTime": 1519422140153}, {"current_trial": 200, "trialdata": {"rt": -1, "trial_type": "single-stim", "stimulus": "<p id=\"stim\">8</p>", "internal_node_id": "0.0-153.0-2.0", "time_elapsed": 1405383, "key_press": -1, "trial_index": 200}, "uniqueid": "MTK2867:3SBEHTYCWOACKUYDLWZJUREL7Z7IYY", "dateTime": 1519422141167}, {"current_trial": 201, "trialdata": {"rt": -1, "trial_type": "single-stim", "stimulus": "<p id=\"stim\">7</p>", "internal_node_id": "0.0-153.0-3.0", "time_elapsed": 1406380, "key_press": -1, "trial_index": 201}, "uniqueid": "MTK2867:3SBEHTYCWOACKUYDLWZJUREL7Z7IYY", "dateTime": 1519422142164}, {"current_trial": 202, "trialdata": {"rt": -1, "trial_type": "single-stim", "stimulus": "<p id=\"stim\">6</p>", "internal_node_id": "0.0-153.0-4.0", "time_elapsed": 1407366, "key_press": -1, "trial_index": 202}, "uniqueid": "MTK2867:3SBEHTYCWOACKUYDLWZJUREL7Z7IYY", "dateTime": 1519422143150}, {"current_trial": 203, "trialdata": {"rt": -1, "trial_type": "single-stim", "stimulus": "<p id=\"stim\">5</p>", "internal_node_id": "0.0-153.0-5.0", "time_elapsed": 1408384, "key_press": -1, "trial_index": 203}, "uniqueid": "MTK2867:3SBEHTYCWOACKUYDLWZJUREL7Z7IYY", "dateTime": 1519422144168}, {"current_trial": 204, "trialdata": {"rt": -1, "trial_type": "single-stim", "stimulus": "<p id=\"stim\">4</p>", "internal_node_id": "0.0-153.0-6.0", "time_elapsed": 1409372, "key_press": -1, "trial_index": 204}, "uniqueid": "MTK2867:3SBEHTYCWOACKUYDLWZJUREL7Z7IYY", "dateTime": 1519422145156}, {"current_trial": 205, "trialdata": {"rt": -1, "trial_type": "single-stim", "stimulus": "<p id=\"stim\">3</p>", "internal_node_id": "0.0-153.0-7.0", "time_elapsed": 1410380, "key_press": -1, "trial_index": 205}, "uniqueid": "MTK2867:3SBEHTYCWOACKUYDLWZJUREL7Z7IYY", "dateTime": 1519422146164}, {"current_trial": 206, "trialdata": {"rt": -1, "trial_type": "single-stim", "stimulus": "<p id=\"stim\">2</p>", "internal_node_id": "0.0-153.0-8.0", "time_elapsed": 1411377, "key_press": -1, "trial_index": 206}, "uniqueid": "MTK2867:3SBEHTYCWOACKUYDLWZJUREL7Z7IYY", "dateTime": 1519422147160}, {"current_trial": 207, "trialdata": {"rt": -1, "trial_type": "single-stim", "stimulus": "<p id=\"stim\">1</p>", "internal_node_id": "0.0-153.0-9.0", "time_elapsed": 1412370, "key_press": -1, "trial_index": 207}, "uniqueid": "MTK2867:3SBEHTYCWOACKUYDLWZJUREL7Z7IYY", "dateTime": 1519422148153}, {"current_trial": 208, "trialdata": {"rt": -1, "trial_type": "single-stim", "stimulus": "<p id=\"stim\">+</p>", "internal_node_id": "0.0-154.0-0.0", "time_elapsed": 1413897, "key_press": -1, "type": "FIXATION", "trial_index": 208}, "uniqueid": "MTK2867:3SBEHTYCWOACKUYDLWZJUREL7Z7IYY", "dateTime": 1519422149681}, {"current_trial": 209, "trialdata": {"rt": -1, "trial_type": "single-stim", "word": "garlic", "stimulus": "<p id=\"stim\">GARLIC</p>", "conditions": [24, 1600, "v", 12000], "internal_node_id": "0.0-155.0", "trial": 5, "time_elapsed": 1415525, "serialpos": 0, "key_press": -1, "wordID": 623, "type": "PRES_VIS", "trial_index": 209}, "uniqueid": "MTK2867:3SBEHTYCWOACKUYDLWZJUREL7Z7IYY", "dateTime": 1519422151308}, {"current_trial": 210, "trialdata": {"rt": -1, "trial_type": "single-stim", "word": "parrot", "stimulus": "<p id=\"stim\">PARROT</p>", "conditions": [24, 1600, "v", 12000], "internal_node_id": "0.0-156.0", "trial": 5, "time_elapsed": 1418339, "serialpos": 1, "key_press": -1, "wordID": 1014, "type": "PRES_VIS", "trial_index": 210}, "uniqueid": "MTK2867:3SBEHTYCWOACKUYDLWZJUREL7Z7IYY", "dateTime": 1519422154123}, {"current_trial": 211, "trialdata": {"rt": -1, "trial_type": "single-stim", "word": "inmate", "stimulus": "<p id=\"stim\">INMATE</p>", "conditions": [24, 1600, "v", 12000], "internal_node_id": "0.0-157.0", "trial": 5, "time_elapsed": 1420986, "serialpos": 2, "key_press": -1, "wordID": 737, "type": "PRES_VIS", "trial_index": 211}, "uniqueid": "MTK2867:3SBEHTYCWOACKUYDLWZJUREL7Z7IYY", "dateTime": 1519422156769}, {"current_trial": 212, "trialdata": {"rt": -1, "trial_type": "single-stim", "word": "robber", "stimulus": "<p id=\"stim\">ROBBER</p>", "conditions": [24, 1600, "v", 12000], "internal_node_id": "0.0-158.0", "trial": 5, "time_elapsed": 1423549, "serialpos": 3, "key_press": -1, "wordID": 1196, "type": "PRES_VIS", "trial_index": 212}, "uniqueid": "MTK2867:3SBEHTYCWOACKUYDLWZJUREL7Z7IYY", "dateTime": 1519422159332}, {"current_trial": 213, "trialdata": {"rt": -1, "trial_type": "single-stim", "word": "woman", "stimulus": "<p id=\"stim\">WOMAN</p>", "conditions": [24, 1600, "v", 12000], "internal_node_id": "0.0-159.0", "trial": 5, "time_elapsed": 1426223, "serialpos": 4, "key_press": -1, "wordID": 1619, "type": "PRES_VIS", "trial_index": 213}, "uniqueid": "MTK2867:3SBEHTYCWOACKUYDLWZJUREL7Z7IYY", "dateTime": 1519422162006}, {"current_trial": 214, "trialdata": {"rt": -1, "trial_type": "single-stim", "word": "skillet", "stimulus": "<p id=\"stim\">SKILLET</p>", "conditions": [24, 1600, "v", 12000], "internal_node_id": "0.0-160.0", "trial": 5, "time_elapsed": 1428669, "serialpos": 5, "key_press": -1, "wordID": 1316, "type": "PRES_VIS", "trial_index": 214}, "uniqueid": "MTK2867:3SBEHTYCWOACKUYDLWZJUREL7Z7IYY", "dateTime": 1519422164452}, {"current_trial": 215, "trialdata": {"rt": -1, "trial_type": "single-stim", "word": "blender", "stimulus": "<p id=\"stim\">BLENDER</p>", "conditions": [24, 1600, "v", 12000], "internal_node_id": "0.0-161.0", "trial": 5, "time_elapsed": 1431131, "serialpos": 6, "key_press": -1, "wordID": 135, "type": "PRES_VIS", "trial_index": 215}, "uniqueid": "MTK2867:3SBEHTYCWOACKUYDLWZJUREL7Z7IYY", "dateTime": 1519422166915}, {"current_trial": 216, "trialdata": {"rt": -1, "trial_type": "single-stim", "word": "mailbox", "stimulus": "<p id=\"stim\">MAILBOX</p>", "conditions": [24, 1600, "v", 12000], "internal_node_id": "0.0-162.0", "trial": 5, "time_elapsed": 1433896, "serialpos": 7, "key_press": -1, "wordID": 856, "type": "PRES_VIS", "trial_index": 216}, "uniqueid": "MTK2867:3SBEHTYCWOACKUYDLWZJUREL7Z7IYY", "dateTime": 1519422169680}, {"current_trial": 217, "trialdata": {"rt": -1, "trial_type": "single-stim", "word": "wasp", "stimulus": "<p id=\"stim\">WASP</p>", "conditions": [24, 1600, "v", 12000], "internal_node_id": "0.0-163.0", "trial": 5, "time_elapsed": 1436469, "serialpos": 8, "key_press": -1, "wordID": 1592, "type": "PRES_VIS", "trial_index": 217}, "uniqueid": "MTK2867:3SBEHTYCWOACKUYDLWZJUREL7Z7IYY", "dateTime": 1519422172253}, {"current_trial": 218, "trialdata": {"rt": -1, "trial_type": "single-stim", "word": "victim", "stimulus": "<p id=\"stim\">VICTIM</p>", "conditions": [24, 1600, "v", 12000], "internal_node_id": "0.0-164.0", "trial": 5, "time_elapsed": 1439141, "serialpos": 9, "key_press": -1, "wordID": 1561, "type": "PRES_VIS", "trial_index": 218}, "uniqueid": "MTK2867:3SBEHTYCWOACKUYDLWZJUREL7Z7IYY", "dateTime": 1519422174925}, {"current_trial": 219, "trialdata": {"rt": -1, "trial_type": "single-stim", "word": "rattle", "stimulus": "<p id=\"stim\">RATTLE</p>", "conditions": [24, 1600, "v", 12000], "internal_node_id": "0.0-165.0", "trial": 5, "time_elapsed": 1441854, "serialpos": 10, "key_press": -1, "wordID": 1169, "type": "PRES_VIS", "trial_index": 219}, "uniqueid": "MTK2867:3SBEHTYCWOACKUYDLWZJUREL7Z7IYY", "dateTime": 1519422177637}, {"current_trial": 220, "trialdata": {"rt": -1, "trial_type": "single-stim", "word": "lava", "stimulus": "<p id=\"stim\">LAVA</p>", "conditions": [24, 1600, "v", 12000], "internal_node_id": "0.0-166.0", "trial": 5, "time_elapsed": 1444649, "serialpos": 11, "key_press": -1, "wordID": 803, "type": "PRES_VIS", "trial_index": 220}, "uniqueid": "MTK2867:3SBEHTYCWOACKUYDLWZJUREL7Z7IYY", "dateTime": 1519422180433}, {"current_trial": 221, "trialdata": {"rt": -1, "trial_type": "single-stim", "word": "turkey", "stimulus": "<p id=\"stim\">TURKEY</p>", "conditions": [24, 1600, "v", 12000], "internal_node_id": "0.0-167.0", "trial": 5, "time_elapsed": 1447262, "serialpos": 12, "key_press": -1, "wordID": 1519, "type": "PRES_VIS", "trial_index": 221}, "uniqueid": "MTK2867:3SBEHTYCWOACKUYDLWZJUREL7Z7IYY", "dateTime": 1519422183045}, {"current_trial": 222, "trialdata": {"rt": -1, "trial_type": "single-stim", "word": "shortcake", "stimulus": "<p id=\"stim\">SHORTCAKE</p>", "conditions": [24, 1600, "v", 12000], "internal_node_id": "0.0-168.0", "trial": 5, "time_elapsed": 1449807, "serialpos": 13, "key_press": -1, "wordID": 1291, "type": "PRES_VIS", "trial_index": 222}, "uniqueid": "MTK2867:3SBEHTYCWOACKUYDLWZJUREL7Z7IYY", "dateTime": 1519422185590}, {"current_trial": 223, "trialdata": {"rt": -1, "trial_type": "single-stim", "word": "cabin", "stimulus": "<p id=\"stim\">CABIN</p>", "conditions": [24, 1600, "v", 12000], "internal_node_id": "0.0-169.0", "trial": 5, "time_elapsed": 1452581, "serialpos": 14, "key_press": -1, "wordID": 210, "type": "PRES_VIS", "trial_index": 223}, "uniqueid": "MTK2867:3SBEHTYCWOACKUYDLWZJUREL7Z7IYY", "dateTime": 1519422188364}, {"current_trial": 224, "trialdata": {"rt": -1, "trial_type": "single-stim", "word": "poet", "stimulus": "<p id=\"stim\">POET</p>", "conditions": [24, 1600, "v", 12000], "internal_node_id": "0.0-170.0", "trial": 5, "time_elapsed": 1455013, "serialpos": 15, "key_press": -1, "wordID": 1094, "type": "PRES_VIS", "trial_index": 224}, "uniqueid": "MTK2867:3SBEHTYCWOACKUYDLWZJUREL7Z7IYY", "dateTime": 1519422190796}, {"current_trial": 225, "trialdata": {"rt": -1, "trial_type": "single-stim", "word": "muffin", "stimulus": "<p id=\"stim\">MUFFIN</p>", "conditions": [24, 1600, "v", 12000], "internal_node_id": "0.0-171.0", "trial": 5, "time_elapsed": 1457838, "serialpos": 16, "key_press": -1, "wordID": 928, "type": "PRES_VIS", "trial_index": 225}, "uniqueid": "MTK2867:3SBEHTYCWOACKUYDLWZJUREL7Z7IYY", "dateTime": 1519422193622}, {"current_trial": 226, "trialdata": {"rt": -1, "trial_type": "single-stim", "word": "outdoors", "stimulus": "<p id=\"stim\">OUTDOORS</p>", "conditions": [24, 1600, "v", 12000], "internal_node_id": "0.0-172.0", "trial": 5, "time_elapsed": 1460592, "serialpos": 17, "key_press": -1, "wordID": 986, "type": "PRES_VIS", "trial_index": 226}, "uniqueid": "MTK2867:3SBEHTYCWOACKUYDLWZJUREL7Z7IYY", "dateTime": 1519422196375}, {"current_trial": 227, "trialdata": {"rt": -1, "trial_type": "single-stim", "word": "stone", "stimulus": "<p id=\"stim\">STONE</p>", "conditions": [24, 1600, "v", 12000], "internal_node_id": "0.0-173.0", "trial": 5, "time_elapsed": 1463114, "serialpos": 18, "key_press": -1, "wordID": 1384, "type": "PRES_VIS", "trial_index": 227}, "uniqueid": "MTK2867:3SBEHTYCWOACKUYDLWZJUREL7Z7IYY", "dateTime": 1519422198899}, {"current_trial": 228, "trialdata": {"rt": -1, "trial_type": "single-stim", "word": "ointment", "stimulus": "<p id=\"stim\">OINTMENT</p>", "conditions": [24, 1600, "v", 12000], "internal_node_id": "0.0-174.0", "trial": 5, "time_elapsed": 1465582, "serialpos": 19, "key_press": -1, "wordID": 973, "type": "PRES_VIS", "trial_index": 228}, "uniqueid": "MTK2867:3SBEHTYCWOACKUYDLWZJUREL7Z7IYY", "dateTime": 1519422201366}, {"current_trial": 229, "trialdata": {"rt": -1, "trial_type": "single-stim", "word": "sandwich", "stimulus": "<p id=\"stim\">SANDWICH</p>", "conditions": [24, 1600, "v", 12000], "internal_node_id": "0.0-175.0", "trial": 5, "time_elapsed": 1468350, "serialpos": 20, "key_press": -1, "wordID": 1231, "type": "PRES_VIS", "trial_index": 229}, "uniqueid": "MTK2867:3SBEHTYCWOACKUYDLWZJUREL7Z7IYY", "dateTime": 1519422204134}, {"current_trial": 230, "trialdata": {"rt": -1, "trial_type": "single-stim", "word": "bacon", "stimulus": "<p id=\"stim\">BACON</p>", "conditions": [24, 1600, "v", 12000], "internal_node_id": "0.0-176.0", "trial": 5, "time_elapsed": 1470832, "serialpos": 21, "key_press": -1, "wordID": 66, "type": "PRES_VIS", "trial_index": 230}, "uniqueid": "MTK2867:3SBEHTYCWOACKUYDLWZJUREL7Z7IYY", "dateTime": 1519422206616}, {"current_trial": 231, "trialdata": {"rt": -1, "trial_type": "single-stim", "word": "peach", "stimulus": "<p id=\"stim\">PEACH</p>", "conditions": [24, 1600, "v", 12000], "internal_node_id": "0.0-177.0", "trial": 5, "time_elapsed": 1473590, "serialpos": 22, "key_press": -1, "wordID": 1030, "type": "PRES_VIS", "trial_index": 231}, "uniqueid": "MTK2867:3SBEHTYCWOACKUYDLWZJUREL7Z7IYY", "dateTime": 1519422209374}, {"current_trial": 232, "trialdata": {"rt": -1, "trial_type": "single-stim", "word": "bunny", "stimulus": "<p id=\"stim\">BUNNY</p>", "conditions": [24, 1600, "v", 12000], "internal_node_id": "0.0-178.0", "trial": 5, "time_elapsed": 1476200, "serialpos": 23, "key_press": -1, "wordID": 197, "type": "PRES_VIS", "trial_index": 232}, "uniqueid": "MTK2867:3SBEHTYCWOACKUYDLWZJUREL7Z7IYY", "dateTime": 1519422211984}, {"current_trial": 233, "trialdata": {"rt": -1, "trial_type": "single-stim", "stimulus": "", "internal_node_id": "0.0-179.0-0.0", "time_elapsed": 1478654, "key_press": -1, "type": "PRE_RECALL_DELAY", "trial_index": 233}, "uniqueid": "MTK2867:3SBEHTYCWOACKUYDLWZJUREL7Z7IYY", "dateTime": 1519422214437}, {"current_trial": 234, "trialdata": {"rt": -1000, "trial_type": "single-audio", "stimulus": "/static/audio/400Hz.wav", "internal_node_id": "0.0-180.0", "time_elapsed": 1479168, "key_press": -1, "type": "PRE_RECALL_ALERT", "trial_index": 234}, "uniqueid": "MTK2867:3SBEHTYCWOACKUYDLWZJUREL7Z7IYY", "dateTime": 1519422214952}, {"current_trial": 235, "trialdata": {"rt": [3029, 5729, 8426, 11407, 15445, 18762, 21860, 25489, 49145], "recwords": ["garlic", "parrot", "inmate", "robber", "woman", "skillet", "mailbox", "victim", "peach"], "key_times": [2004, 2173, 2357, 2513, 2659, 2809, 3029, 4753, 4890, 5000, 5166, 5310, 5431, 5729, 7323, 7571, 7781, 7901, 8041, 8186, 8426, 10371, 10504, 10684, 10858, 11078, 11226, 11407, 13557, 13630, 13836, 13958, 14101, 15445, 17613, 17776, 18056, 18242, 18407, 18520, 18588, 18762, 20565, 20719, 20826, 21094, 21303, 21486, 21633, 21860, 23687, 24052, 24211, 24542, 24767, 25213, 25489, 48354, 48462, 48535, 48765, 48905, 49145], "trial_type": "free-recall", "conditions": [24, 1600, "v", 12000], "internal_node_id": "0.0-181.0-0.0", "key_presses": [71, 65, 82, 76, 73, 67, 13, 80, 65, 82, 82, 79, 84, 13, 73, 78, 77, 65, 84, 69, 13, 82, 79, 66, 66, 69, 82, 13, 87, 79, 77, 65, 78, 13, 83, 75, 73, 76, 76, 69, 84, 13, 77, 65, 73, 76, 66, 79, 88, 13, 86, 73, 67, 84, 73, 77, 13, 80, 69, 65, 67, 72, 13], "trial": 5, "time_elapsed": 1539193, "type": "FREE_RECALL", "trial_index": 235}, "uniqueid": "MTK2867:3SBEHTYCWOACKUYDLWZJUREL7Z7IYY", "dateTime": 1519422274989}, {"current_trial": 236, "trialdata": {"rt": 3963, "trial_type": "text", "internal_node_id": "0.0-182.0", "time_elapsed": 1545180, "key_press": 13, "type": "INSTRUCTIONS", "trial_index": 236}, "uniqueid": "MTK2867:3SBEHTYCWOACKUYDLWZJUREL7Z7IYY", "dateTime": 1519422280963}, {"current_trial": 237, "trialdata": {"rt": [6121, 11079, 13360, 18376, 23172], "trial_type": "math-distractor", "key_times": [5413, 5525, 6121, 10287, 10432, 11079, 12866, 13038, 13360, 17897, 18376, 22676, 22712, 23172], "responses": ["12", "13", "11", "9", "13"], "num2": [3, 7, 2, 1, 7, 2], "num3": [6, 4, 1, 1, 4, 5], "conditions": [24, 1600, "v", 24000], "internal_node_id": "0.0-183.0", "key_presses": [49, 50, 13, 49, 51, 13, 49, 49, 13, 57, 13, 49, 51, 13], "trial": 6, "time_elapsed": 1571225, "type": "DISTRACTOR", "trial_index": 237, "num1": [3, 2, 8, 7, 2, 2]}, "uniqueid": "MTK2867:3SBEHTYCWOACKUYDLWZJUREL7Z7IYY", "dateTime": 1519422307009}, {"current_trial": 238, "trialdata": {"rt": -1, "trial_type": "single-stim", "stimulus": "<p id=\"stim\">10</p>", "internal_node_id": "0.0-184.0-0.0", "time_elapsed": 1574242, "key_press": -1, "trial_index": 238}, "uniqueid": "MTK2867:3SBEHTYCWOACKUYDLWZJUREL7Z7IYY", "dateTime": 1519422310025}, {"current_trial": 239, "trialdata": {"rt": -1, "trial_type": "single-stim", "stimulus": "<p id=\"stim\">9</p>", "internal_node_id": "0.0-184.0-1.0", "time_elapsed": 1575245, "key_press": -1, "trial_index": 239}, "uniqueid": "MTK2867:3SBEHTYCWOACKUYDLWZJUREL7Z7IYY", "dateTime": 1519422311028}, {"current_trial": 240, "trialdata": {"rt": -1, "trial_type": "single-stim", "stimulus": "<p id=\"stim\">8</p>", "internal_node_id": "0.0-184.0-2.0", "time_elapsed": 1576275, "key_press": -1, "trial_index": 240}, "uniqueid": "MTK2867:3SBEHTYCWOACKUYDLWZJUREL7Z7IYY", "dateTime": 1519422312058}, {"current_trial": 241, "trialdata": {"rt": -1, "trial_type": "single-stim", "stimulus": "<p id=\"stim\">7</p>", "internal_node_id": "0.0-184.0-3.0", "time_elapsed": 1577259, "key_press": -1, "trial_index": 241}, "uniqueid": "MTK2867:3SBEHTYCWOACKUYDLWZJUREL7Z7IYY", "dateTime": 1519422313042}, {"current_trial": 242, "trialdata": {"rt": -1, "trial_type": "single-stim", "stimulus": "<p id=\"stim\">6</p>", "internal_node_id": "0.0-184.0-4.0", "time_elapsed": 1578254, "key_press": -1, "trial_index": 242}, "uniqueid": "MTK2867:3SBEHTYCWOACKUYDLWZJUREL7Z7IYY", "dateTime": 1519422314037}, {"current_trial": 243, "trialdata": {"rt": -1, "trial_type": "single-stim", "stimulus": "<p id=\"stim\">5</p>", "internal_node_id": "0.0-184.0-5.0", "time_elapsed": 1579246, "key_press": -1, "trial_index": 243}, "uniqueid": "MTK2867:3SBEHTYCWOACKUYDLWZJUREL7Z7IYY", "dateTime": 1519422315030}, {"current_trial": 244, "trialdata": {"rt": -1, "trial_type": "single-stim", "stimulus": "<p id=\"stim\">4</p>", "internal_node_id": "0.0-184.0-6.0", "time_elapsed": 1580244, "key_press": -1, "trial_index": 244}, "uniqueid": "MTK2867:3SBEHTYCWOACKUYDLWZJUREL7Z7IYY", "dateTime": 1519422316028}, {"current_trial": 245, "trialdata": {"rt": -1, "trial_type": "single-stim", "stimulus": "<p id=\"stim\">3</p>", "internal_node_id": "0.0-184.0-7.0", "time_elapsed": 1581244, "key_press": -1, "trial_index": 245}, "uniqueid": "MTK2867:3SBEHTYCWOACKUYDLWZJUREL7Z7IYY", "dateTime": 1519422317028}, {"current_trial": 246, "trialdata": {"rt": -1, "trial_type": "single-stim", "stimulus": "<p id=\"stim\">2</p>", "internal_node_id": "0.0-184.0-8.0", "time_elapsed": 1582237, "key_press": -1, "trial_index": 246}, "uniqueid": "MTK2867:3SBEHTYCWOACKUYDLWZJUREL7Z7IYY", "dateTime": 1519422318021}, {"current_trial": 247, "trialdata": {"rt": -1, "trial_type": "single-stim", "stimulus": "<p id=\"stim\">1</p>", "internal_node_id": "0.0-184.0-9.0", "time_elapsed": 1583248, "key_press": -1, "trial_index": 247}, "uniqueid": "MTK2867:3SBEHTYCWOACKUYDLWZJUREL7Z7IYY", "dateTime": 1519422319031}, {"current_trial": 248, "trialdata": {"rt": -1, "trial_type": "single-stim", "stimulus": "<p id=\"stim\">+</p>", "internal_node_id": "0.0-185.0-0.0", "time_elapsed": 1584757, "key_press": -1, "type": "FIXATION", "trial_index": 248}, "uniqueid": "MTK2867:3SBEHTYCWOACKUYDLWZJUREL7Z7IYY", "dateTime": 1519422320541}, {"current_trial": 249, "trialdata": {"rt": -1, "trial_type": "single-stim", "word": "citrus", "stimulus": "<p id=\"stim\">CITRUS</p>", "conditions": [24, 1600, "v", 24000], "internal_node_id": "0.0-186.0", "trial": 6, "time_elapsed": 1586370, "serialpos": 0, "key_press": -1, "wordID": 312, "type": "PRES_VIS", "trial_index": 249}, "uniqueid": "MTK2867:3SBEHTYCWOACKUYDLWZJUREL7Z7IYY", "dateTime": 1519422322153}, {"current_trial": 250, "trialdata": {"rt": -1, "trial_type": "single-stim", "word": "washer", "stimulus": "<p id=\"stim\">WASHER</p>", "conditions": [24, 1600, "v", 24000], "internal_node_id": "0.0-187.0", "trial": 6, "time_elapsed": 1589001, "serialpos": 1, "key_press": -1, "wordID": 1591, "type": "PRES_VIS", "trial_index": 250}, "uniqueid": "MTK2867:3SBEHTYCWOACKUYDLWZJUREL7Z7IYY", "dateTime": 1519422324785}, {"current_trial": 251, "trialdata": {"rt": -1, "trial_type": "single-stim", "word": "london", "stimulus": "<p id=\"stim\">LONDON</p>", "conditions": [24, 1600, "v", 24000], "internal_node_id": "0.0-188.0", "trial": 6, "time_elapsed": 1591648, "serialpos": 2, "key_press": -1, "wordID": 842, "type": "PRES_VIS", "trial_index": 251}, "uniqueid": "MTK2867:3SBEHTYCWOACKUYDLWZJUREL7Z7IYY", "dateTime": 1519422327431}, {"current_trial": 252, "trialdata": {"rt": -1, "trial_type": "single-stim", "word": "butcher", "stimulus": "<p id=\"stim\">BUTCHER</p>", "conditions": [24, 1600, "v", 24000], "internal_node_id": "0.0-189.0", "trial": 6, "time_elapsed": 1594247, "serialpos": 3, "key_press": -1, "wordID": 