{"assignmentId": "3L70J4KAZHTUG1KODCKS08G1A2WDAD", "workerId": "MTK2316", "questiondata": {"avail_screen_height": 728, "color_depth": 24, "screen_width": 1366, "pixel_depth": 24, "avail_screen_width": 1366, "screen_height": 768}, "bonus": 0, "hitId": "3M67TQBQQHVGQR9DBUAOPS1R0L99AY", "counterbalance": 1909, "useragent": "Mozilla/5.0 (Windows NT 10.0; Win64; x64) AppleWebKit/537.36 (KHTML, like Gecko) Chrome/63.0.3239.132 Safari/537.36", "eventdata": [{"eventtype": "initialized", "interval": 0, "value": null, "timestamp": 1516986326943}, {"eventtype": "window_resize", "interval": 0, "value": [1366, 677], "timestamp": 1516986326943}, {"eventtype": "focus", "interval": 29708, "value": "off", "timestamp": 1516986356651}, {"eventtype": "focus", "interval": 4046, "value": "on", "timestamp": 1516986360697}, {"eventtype": "focus", "interval": 952577, "value": "off", "timestamp": 1516987313274}, {"eventtype": "focus", "interval": 3300, "value": "on", "timestamp": 1516987316574}, {"eventtype": "focus", "interval": 280517, "value": "off", "timestamp": 1516987597091}, {"eventtype": "focus", "interval": 3996, "value": "on", "timestamp": 1516987601087}], "data": [{"current_trial": 0, "trialdata": {"rt": 2199, "trial_type": "text", "internal_node_id": "0.0-0.0", "time_elapsed": 2205, "key_press": 32, "type": "INSTRUCTIONS", "trial_index": 0}, "uniqueid": "MTK2316:3L70J4KAZHTUG1KODCKS08G1A2WDAD", "dateTime": 1516986330133}, {"current_trial": 1, "trialdata": {"rt": 21509, "trial_type": "text", "internal_node_id": "0.0-1.0", "time_elapsed": 23717, "key_press": 13, "type": "INSTRUCTIONS", "trial_index": 1}, "uniqueid": "MTK2316:3L70J4KAZHTUG1KODCKS08G1A2WDAD", "dateTime": 1516986351644}, {"current_trial": 2, "trialdata": {"rt": [12862], "trial_type": "audio-test", "responses": ["ocean"], "internal_node_id": "0.0-2.0", "time_elapsed": 36585, "type": "AUDIO_TEST", "trial_index": 2}, "uniqueid": "MTK2316:3L70J4KAZHTUG1KODCKS08G1A2WDAD", "dateTime": 1516986364512}, {"current_trial": 3, "trialdata": {"rt": [8648], "trial_type": "audio-test", "responses": ["crystal"], "internal_node_id": "0.0-3.0", "time_elapsed": 45237, "type": "AUDIO_TEST", "trial_index": 3}, "uniqueid": "MTK2316:3L70J4KAZHTUG1KODCKS08G1A2WDAD", "dateTime": 1516986373164}, {"current_trial": 4, "trialdata": {"rt": [4760], "trial_type": "audio-test", "responses": ["spice"], "internal_node_id": "0.0-4.0", "time_elapsed": 50001, "type": "AUDIO_TEST", "trial_index": 4}, "uniqueid": "MTK2316:3L70J4KAZHTUG1KODCKS08G1A2WDAD", "dateTime": 1516986377928}, {"current_trial": 5, "trialdata": {"rt": 15980, "trial_type": "survey-text", "responses": "{\"Q0\":\"12\",\"Q1\":\"7\",\"Q2\":\"5\\n5\"}", "internal_node_id": "0.0-5.0", "time_elapsed": 66737, "type": "SLEEP_SURVEY", "trial_index": 5}, "uniqueid": "MTK2316:3L70J4KAZHTUG1KODCKS08G1A2WDAD", "dateTime": 1516986394664}, {"current_trial": 6, "trialdata": {"rt": 49163, "trial_type": "text", "internal_node_id": "0.0-6.0", "time_elapsed": 116905, "key_press": 32, "type": "INSTRUCTIONS", "trial_index": 6}, "uniqueid": "MTK2316:3L70J4KAZHTUG1KODCKS08G1A2WDAD", "dateTime": 1516986444832}, {"current_trial": 7, "trialdata": {"rt": 22198, "trial_type": "text", "internal_node_id": "0.0-7.0", "time_elapsed": 139608, "key_press": 32, "type": "INSTRUCTIONS", "trial_index": 7}, "uniqueid": "MTK2316:3L70J4KAZHTUG1KODCKS08G1A2WDAD", "dateTime": 1516986467535}, {"current_trial": 8, "trialdata": {"rt": 12073, "trial_type": "text", "internal_node_id": "0.0-8.0", "time_elapsed": 152183, "key_press": 32, "type": "INSTRUCTIONS", "trial_index": 8}, "uniqueid": "MTK2316:3L70J4KAZHTUG1KODCKS08G1A2WDAD", "dateTime": 1516986480111}, {"current_trial": 9, "trialdata": {"rt": [5023, 8241, 10372, 12836, 14518, 17818], "trial_type": "math-distractor", "key_times": [4271, 4337, 5023, 7197, 7271, 8241, 10117, 10372, 12497, 12631, 12836, 14211, 14330, 14518, 16951, 17039, 17818], "responses": ["16", "14", "9", "10", "10", "16"], "num2": [8, 4, 3, 1, 3, 2, 5], "num3": [4, 7, 4, 5, 2, 9, 5], "conditions": [18, 1200, "v", 18000], "internal_node_id": "0.0-9.0", "key_presses": [97, 102, 13, 97, 100, 13, 105, 13, 97, 96, 13, 97, 96, 13, 97, 102, 13], "trial": 0, "time_elapsed": 171199, "type": "DISTRACTOR", "trial_index": 9, "num1": [4, 3, 2, 4, 5, 5, 8]}, "uniqueid": "MTK2316:3L70J4KAZHTUG1KODCKS08G1A2WDAD", "dateTime": 1516986499126}, {"current_trial": 10, "trialdata": {"rt": -1, "trial_type": "single-stim", "stimulus": "<p id=\"stim\">10</p>", "internal_node_id": "0.0-10.0-0.0", "time_elapsed": 174203, "key_press": -1, "trial_index": 10}, "uniqueid": "MTK2316:3L70J4KAZHTUG1KODCKS08G1A2WDAD", "dateTime": 1516986502130}, {"current_trial": 11, "trialdata": {"rt": -1, "trial_type": "single-stim", "stimulus": "<p id=\"stim\">9</p>", "internal_node_id": "0.0-10.0-1.0", "time_elapsed": 175207, "key_press": -1, "trial_index": 11}, "uniqueid": "MTK2316:3L70J4KAZHTUG1KODCKS08G1A2WDAD", "dateTime": 1516986503134}, {"current_trial": 12, "trialdata": {"rt": -1, "trial_type": "single-stim", "stimulus": "<p id=\"stim\">8</p>", "internal_node_id": "0.0-10.0-2.0", "time_elapsed": 176209, "key_press": -1, "trial_index": 12}, "uniqueid": "MTK2316:3L70J4KAZHTUG1KODCKS08G1A2WDAD", "dateTime": 1516986504136}, {"current_trial": 13, "trialdata": {"rt": -1, "trial_type": "single-stim", "stimulus": "<p id=\"stim\">7</p>", "internal_node_id": "0.0-10.0-3.0", "time_elapsed": 177210, "key_press": -1, "trial_index": 13}, "uniqueid": "MTK2316:3L70J4KAZHTUG1KODCKS08G1A2WDAD", "dateTime": 1516986505138}, {"current_trial": 14, "trialdata": {"rt": -1, "trial_type": "single-stim", "stimulus": "<p id=\"stim\">6</p>", "internal_node_id": "0.0-10.0-4.0", "time_elapsed": 178215, "key_press": -1, "trial_index": 14}, "uniqueid": "MTK2316:3L70J4KAZHTUG1KODCKS08G1A2WDAD", "dateTime": 1516986506143}, {"current_trial": 15, "trialdata": {"rt": -1, "trial_type": "single-stim", "stimulus": "<p id=\"stim\">5</p>", "internal_node_id": "0.0-10.0-5.0", "time_elapsed": 179221, "key_press": -1, "trial_index": 15}, "uniqueid": "MTK2316:3L70J4KAZHTUG1KODCKS08G1A2WDAD", "dateTime": 1516986507148}, {"current_trial": 16, "trialdata": {"rt": -1, "trial_type": "single-stim", "stimulus": "<p id=\"stim\">4</p>", "internal_node_id": "0.0-10.0-6.0", "time_elapsed": 180226, "key_press": -1, "trial_index": 16}, "uniqueid": "MTK2316:3L70J4KAZHTUG1KODCKS08G1A2WDAD", "dateTime": 1516986508154}, {"current_trial": 17, "trialdata": {"rt": -1, "trial_type": "single-stim", "stimulus": "<p id=\"stim\">3</p>", "internal_node_id": "0.0-10.0-7.0", "time_elapsed": 181228, "key_press": -1, "trial_index": 17}, "uniqueid": "MTK2316:3L70J4KAZHTUG1KODCKS08G1A2WDAD", "dateTime": 1516986509156}, {"current_trial": 18, "trialdata": {"rt": -1, "trial_type": "single-stim", "stimulus": "<p id=\"stim\">2</p>", "internal_node_id": "0.0-10.0-8.0", "time_elapsed": 182230, "key_press": -1, "trial_index": 18}, "uniqueid": "MTK2316:3L70J4KAZHTUG1KODCKS08G1A2WDAD", "dateTime": 1516986510157}, {"current_trial": 19, "trialdata": {"rt": -1, "trial_type": "single-stim", "stimulus": "<p id=\"stim\">1</p>", "internal_node_id": "0.0-10.0-9.0", "time_elapsed": 183232, "key_press": -1, "trial_index": 19}, "uniqueid": "MTK2316:3L70J4KAZHTUG1KODCKS08G1A2WDAD", "dateTime": 1516986511159}, {"current_trial": 20, "trialdata": {"rt": -1, "trial_type": "single-stim", "stimulus": "<p id=\"stim\">+</p>", "internal_node_id": "0.0-11.0-0.0", "time_elapsed": 184734, "key_press": -1, "type": "FIXATION", "trial_index": 20}, "uniqueid": "MTK2316:3L70J4KAZHTUG1KODCKS08G1A2WDAD", "dateTime": 1516986512661}, {"current_trial": 21, "trialdata": {"rt": -1, "trial_type": "single-stim", "word": "salt", "stimulus": "<p id=\"stim\">SALT</p>", "conditions": [18, 1200, "v", 18000], "internal_node_id": "0.0-12.0", "trial": 0, "time_elapsed": 185938, "serialpos": 0, "key_press": -1, "wordID": 1228, "type": "PRES_VIS", "trial_index": 21}, "uniqueid": "MTK2316:3L70J4KAZHTUG1KODCKS08G1A2WDAD", "dateTime": 1516986513866}, {"current_trial": 22, "trialdata": {"rt": -1, "trial_type": "single-stim", "word": "egypt", "stimulus": "<p id=\"stim\">EGYPT</p>", "conditions": [18, 1200, "v", 18000], "internal_node_id": "0.0-13.0", "trial": 0, "time_elapsed": 188255, "serialpos": 1, "key_press": -1, "wordID": 518, "type": "PRES_VIS", "trial_index": 22}, "uniqueid": "MTK2316:3L70J4KAZHTUG1KODCKS08G1A2WDAD", "dateTime": 1516986516182}, {"current_trial": 23, "trialdata": {"rt": -1, "trial_type": "single-stim", "word": "muffin", "stimulus": "<p id=\"stim\">MUFFIN</p>", "conditions": [18, 1200, "v", 18000], "internal_node_id": "0.0-14.0", "trial": 0, "time_elapsed": 190268, "serialpos": 2, "key_press": -1, "wordID": 928, "type": "PRES_VIS", "trial_index": 23}, "uniqueid": "MTK2316:3L70J4KAZHTUG1KODCKS08G1A2WDAD", "dateTime": 1516986518195}, {"current_trial": 24, "trialdata": {"rt": -1, "trial_type": "single-stim", "word": "oyster", "stimulus": "<p id=\"stim\">OYSTER</p>", "conditions": [18, 1200, "v", 18000], "internal_node_id": "0.0-15.0", "trial": 0, "time_elapsed": 192336, "serialpos": 3, "key_press": -1, "wordID": 994, "type": "PRES_VIS", "trial_index": 24}, "uniqueid": "MTK2316:3L70J4KAZHTUG1KODCKS08G1A2WDAD", "dateTime": 1516986520264}, {"current_trial": 25, "trialdata": {"rt": -1, "trial_type": "single-stim", "word": "scallop", "stimulus": "<p id=\"stim\">SCALLOP</p>", "conditions": [18, 1200, "v", 18000], "internal_node_id": "0.0-16.0", "trial": 0, "time_elapsed": 194649, "serialpos": 4, "key_press": -1, "wordID": 1241, "type": "PRES_VIS", "trial_index": 25}, "uniqueid": "MTK2316:3L70J4KAZHTUG1KODCKS08G1A2WDAD", "dateTime": 1516986522576}, {"current_trial": 26, "trialdata": {"rt": -1, "trial_type": "single-stim", "word": "garbage", "stimulus": "<p id=\"stim\">GARBAGE</p>", "conditions": [18, 1200, "v", 18000], "internal_node_id": "0.0-17.0", "trial": 0, "time_elapsed": 196937, "serialpos": 5, "key_press": -1, "wordID": 621, "type": "PRES_VIS", "trial_index": 26}, "uniqueid": "MTK2316:3L70J4KAZHTUG1KODCKS08G1A2WDAD", "dateTime": 1516986524864}, {"current_trial": 27, "trialdata": {"rt": -1, "trial_type": "single-stim", "word": "flask", "stimulus": "<p id=\"stim\">FLASK</p>", "conditions": [18, 1200, "v", 18000], "internal_node_id": "0.0-18.0", "trial": 0, "time_elapsed": 198968, "serialpos": 6, "key_press": -1, "wordID": 575, "type": "PRES_VIS", "trial_index": 27}, "uniqueid": "MTK2316:3L70J4KAZHTUG1KODCKS08G1A2WDAD", "dateTime": 1516986526896}, {"current_trial": 28, "trialdata": {"rt": -1, "trial_type": "single-stim", "word": "grape", "stimulus": "<p id=\"stim\">GRAPE</p>", "conditions": [18, 1200, "v", 18000], "internal_node_id": "0.0-19.0", "trial": 0, "time_elapsed": 201354, "serialpos": 7, "key_press": -1, "wordID": 653, "type": "PRES_VIS", "trial_index": 28}, "uniqueid": "MTK2316:3L70J4KAZHTUG1KODCKS08G1A2WDAD", "dateTime": 1516986529282}, {"current_trial": 29, "trialdata": {"rt": -1, "trial_type": "single-stim", "word": "widow", "stimulus": "<p id=\"stim\">WIDOW</p>", "conditions": [18, 1200, "v", 18000], "internal_node_id": "0.0-20.0", "trial": 0, "time_elapsed": 203644, "serialpos": 8, "key_press": -1, "wordID": 1607, "type": "PRES_VIS", "trial_index": 29}, "uniqueid": "MTK2316:3L70J4KAZHTUG1KODCKS08G1A2WDAD", "dateTime": 1516986531572}, {"current_trial": 30, "trialdata": {"rt": -1, "trial_type": "single-stim", "word": "proton", "stimulus": "<p id=\"stim\">PROTON</p>", "conditions": [18, 1200, "v", 18000], "internal_node_id": "0.0-21.0", "trial": 0, "time_elapsed": 205690, "serialpos": 9, "key_press": -1, "wordID": 1131, "type": "PRES_VIS", "trial_index": 30}, "uniqueid": "MTK2316:3L70J4KAZHTUG1KODCKS08G1A2WDAD", "dateTime": 1516986533617}, {"current_trial": 31, "trialdata": {"rt": -1, "trial_type": "single-stim", "word": "staple", "stimulus": "<p id=\"stim\">STAPLE</p>", "conditions": [18, 1200, "v", 18000], "internal_node_id": "0.0-22.0", "trial": 0, "time_elapsed": 208096, "serialpos": 10, "key_press": -1, "wordID": 1370, "type": "PRES_VIS", "trial_index": 31}, "uniqueid": "MTK2316:3L70J4KAZHTUG1KODCKS08G1A2WDAD", "dateTime": 1516986536023}, {"current_trial": 32, "trialdata": {"rt": -1, "trial_type": "single-stim", "word": "crown", "stimulus": "<p id=\"stim\">CROWN</p>", "conditions": [18, 1200, "v", 18000], "internal_node_id": "0.0-23.0", "trial": 0, "time_elapsed": 210430, "serialpos": 11, "key_press": -1, "wordID": 414, "type": "PRES_VIS", "trial_index": 32}, "uniqueid": "MTK2316:3L70J4KAZHTUG1KODCKS08G1A2WDAD", "dateTime": 1516986538358}, {"current_trial": 33, "trialdata": {"rt": -1, "trial_type": "single-stim", "word": "hedge", "stimulus": "<p id=\"stim\">HEDGE</p>", "conditions": [18, 1200, "v", 18000], "internal_node_id": "0.0-24.0", "trial": 0, "time_elapsed": 212602, "serialpos": 12, "key_press": -1, "wordID": 698, "type": "PRES_VIS", "trial_index": 33}, "uniqueid": "MTK2316:3L70J4KAZHTUG1KODCKS08G1A2WDAD", "dateTime": 1516986540529}, {"current_trial": 34, "trialdata": {"rt": -1, "trial_type": "single-stim", "word": "swimmer", "stimulus": "<p id=\"stim\">SWIMMER</p>", "conditions": [18, 1200, "v", 18000], "internal_node_id": "0.0-25.0", "trial": 0, "time_elapsed": 214672, "serialpos": 13, "key_press": -1, "wordID": 1419, "type": "PRES_VIS", "trial_index": 34}, "uniqueid": "MTK2316:3L70J4KAZHTUG1KODCKS08G1A2WDAD", "dateTime": 1516986542599}, {"current_trial": 35, "trialdata": {"rt": -1, "trial_type": "single-stim", "word": "mop", "stimulus": "<p id=\"stim\">MOP</p>", "conditions": [18, 1200, "v", 18000], "internal_node_id": "0.0-26.0", "trial": 0, "time_elapsed": 216926, "serialpos": 14, "key_press": -1, "wordID": 915, "type": "PRES_VIS", "trial_index": 35}, "uniqueid": "MTK2316:3L70J4KAZHTUG1KODCKS08G1A2WDAD", "dateTime": 1516986544854}, {"current_trial": 36, "trialdata": {"rt": -1, "trial_type": "single-stim", "word": "package", "stimulus": "<p id=\"stim\">PACKAGE</p>", "conditions": [18, 1200, "v", 18000], "internal_node_id": "0.0-27.0", "trial": 0, "time_elapsed": 219202, "serialpos": 15, "key_press": -1, "wordID": 996, "type": "PRES_VIS", "trial_index": 36}, "uniqueid": "MTK2316:3L70J4KAZHTUG1KODCKS08G1A2WDAD", "dateTime": 1516986547129}, {"current_trial": 37, "trialdata": {"rt": -1, "trial_type": "single-stim", "word": "helmet", "stimulus": "<p id=\"stim\">HELMET</p>", "conditions": [18, 1200, "v", 18000], "internal_node_id": "0.0-28.0", "trial": 0, "time_elapsed": 221552, "serialpos": 16, "key_press": -1, "wordID": 701, "type": "PRES_VIS", "trial_index": 37}, "uniqueid": "MTK2316:3L70J4KAZHTUG1KODCKS08G1A2WDAD", "dateTime": 1516986549480}, {"current_trial": 38, "trialdata": {"rt": -1, "trial_type": "single-stim", "word": "sphinx", "stimulus": "<p id=\"stim\">SPHINX</p>", "conditions": [18, 1200, "v", 18000], "internal_node_id": "0.0-29.0", "trial": 0, "time_elapsed": 223929, "serialpos": 17, "key_press": -1, "wordID": 1348, "type": "PRES_VIS", "trial_index": 38}, "uniqueid": "MTK2316:3L70J4KAZHTUG1KODCKS08G1A2WDAD", "dateTime": 1516986551856}, {"current_trial": 39, "trialdata": {"rt": -1, "trial_type": "single-stim", "stimulus": "", "internal_node_id": "0.0-30.0-0.0", "time_elapsed": 226383, "key_press": -1, "type": "PRE_RECALL_DELAY", "trial_index": 39}, "uniqueid": "MTK2316:3L70J4KAZHTUG1KODCKS08G1A2WDAD", "dateTime": 1516986554310}, {"current_trial": 40, "trialdata": {"rt": -1000, "trial_type": "single-audio", "stimulus": "/static/audio/400Hz.wav", "internal_node_id": "0.0-31.0", "time_elapsed": 226888, "key_press": -1, "type": "PRE_RECALL_ALERT", "trial_index": 40}, "uniqueid": "MTK2316:3L70J4KAZHTUG1KODCKS08G1A2WDAD", "dateTime": 1516986554815}, {"current_trial": 41, "trialdata": {"rt": [3568, 6347, 8695, 28778], "recwords": ["oyster", "spinx", "crown", "flask"], "key_times": [1630, 2171, 2353, 2618, 2837, 3006, 3568, 4789, 4827, 5116, 5317, 5888, 6347, 7151, 7373, 7621, 8006, 8072, 8695, 25980, 26046, 26571, 26655, 27678, 28051, 28165, 28778], "trial_type": "free-recall", "conditions": [18, 1200, "v", 18000], "internal_node_id": "0.0-32.0-0.0", "key_presses": [79, 89, 83, 84, 69, 82, 13, 83, 80, 73, 78, 88, 13, 67, 82, 79, 87, 78, 13, 70, 76, 65, 75, 8, 83, 75, 13], "trial": 0, "time_elapsed": 286896, "type": "FREE_RECALL", "trial_index": 41}, "uniqueid": "MTK2316:3L70J4KAZHTUG1KODCKS08G1A2WDAD", "dateTime": 1516986614827}, {"current_trial": 42, "trialdata": {"rt": 1563, "trial_type": "text", "internal_node_id": "0.0-33.0", "time_elapsed": 290466, "key_press": 32, "type": "INSTRUCTIONS", "trial_index": 42}, "uniqueid": "MTK2316:3L70J4KAZHTUG1KODCKS08G1A2WDAD", "dateTime": 1516986618393}, {"current_trial": 43, "trialdata": {"rt": [1922, 3205, 5471, 8813, 10446, 11949, 15334], "trial_type": "math-distractor", "key_times": [1700, 1922, 3002, 3205, 5131, 5222, 5471, 8484, 8552, 8813, 10208, 10446, 11695, 11949, 14941, 15090, 15334, 17794, 17899], "responses": ["9", "5", "18", "18", "9", "9", "14"], "num2": [3, 1, 7, 5, 6, 2, 7, 5], "num3": [5, 1, 7, 4, 1, 1, 1, 4], "conditions": [18, 1200, "v", 18000], "internal_node_id": "0.0-34.0", "key_presses": [105, 13, 101, 13, 97, 104, 13, 97, 104, 13, 105, 13, 105, 13, 97, 100, 13, 97, 101], "trial": 1, "time_elapsed": 310470, "type": "DISTRACTOR", "trial_index": 43, "num1": [1, 3, 4, 9, 2, 6, 6, 6]}, "uniqueid": "MTK2316:3L70J4KAZHTUG1KODCKS08G1A2WDAD", "dateTime": 1516986638397}, {"current_trial": 44, "trialdata": {"rt": -1, "trial_type": "single-stim", "stimulus": "<p id=\"stim\">10</p>", "internal_node_id": "0.0-35.0-0.0", "time_elapsed": 313475, "key_press": -1, "trial_index": 44}, "uniqueid": "MTK2316:3L70J4KAZHTUG1KODCKS08G1A2WDAD", "dateTime": 1516986641403}, {"current_trial": 45, "trialdata": {"rt": -1, "trial_type": "single-stim", "stimulus": "<p id=\"stim\">9</p>", "internal_node_id": "0.0-35.0-1.0", "time_elapsed": 314479, "key_press": -1, "trial_index": 45}, "uniqueid": "MTK2316:3L70J4KAZHTUG1KODCKS08G1A2WDAD", "dateTime": 1516986642406}, {"current_trial": 46, "trialdata": {"rt": -1, "trial_type": "single-stim", "stimulus": "<p id=\"stim\">8</p>", "internal_node_id": "0.0-35.0-2.0", "time_elapsed": 315483, "key_press": -1, "trial_index": 46}, "uniqueid": "MTK2316:3L70J4KAZHTUG1KODCKS08G1A2WDAD", "dateTime": 1516986643410}, {"current_trial": 47, "trialdata": {"rt": -1, "trial_type": "single-stim", "stimulus": "<p id=\"stim\">7</p>", "internal_node_id": "0.0-35.0-3.0", "time_elapsed": 316485, "key_press": -1, "trial_index": 47}, "uniqueid": "MTK2316:3L70J4KAZHTUG1KODCKS08G1A2WDAD", "dateTime": 1516986644412}, {"current_trial": 48, "trialdata": {"rt": -1, "trial_type": "single-stim", "stimulus": "<p id=\"stim\">6</p>", "internal_node_id": "0.0-35.0-4.0", "time_elapsed": 317487, "key_press": -1, "trial_index": 48}, "uniqueid": "MTK2316:3L70J4KAZHTUG1KODCKS08G1A2WDAD", "dateTime": 1516986645414}, {"current_trial": 49, "trialdata": {"rt": -1, "trial_type": "single-stim", "stimulus": "<p id=\"stim\">5</p>", "internal_node_id": "0.0-35.0-5.0", "time_elapsed": 318491, "key_press": -1, "trial_index": 49}, "uniqueid": "MTK2316:3L70J4KAZHTUG1KODCKS08G1A2WDAD", "dateTime": 1516986646418}, {"current_trial": 50, "trialdata": {"rt": -1, "trial_type": "single-stim", "stimulus": "<p id=\"stim\">4</p>", "internal_node_id": "0.0-35.0-6.0", "time_elapsed": 319495, "key_press": -1, "trial_index": 50}, "uniqueid": "MTK2316:3L70J4KAZHTUG1KODCKS08G1A2WDAD", "dateTime": 1516986647422}, {"current_trial": 51, "trialdata": {"rt": -1, "trial_type": "single-stim", "stimulus": "<p id=\"stim\">3</p>", "internal_node_id": "0.0-35.0-7.0", "time_elapsed": 320499, "key_press": -1, "trial_index": 51}, "uniqueid": "MTK2316:3L70J4KAZHTUG1KODCKS08G1A2WDAD", "dateTime": 1516986648426}, {"current_trial": 52, "trialdata": {"rt": -1, "trial_type": "single-stim", "stimulus": "<p id=\"stim\">2</p>", "internal_node_id": "0.0-35.0-8.0", "time_elapsed": 321501, "key_press": -1, "trial_index": 52}, "uniqueid": "MTK2316:3L70J4KAZHTUG1KODCKS08G1A2WDAD", "dateTime": 1516986649428}, {"current_trial": 53, "trialdata": {"rt": -1, "trial_type": "single-stim", "stimulus": "<p id=\"stim\">1</p>", "internal_node_id": "0.0-35.0-9.0", "time_elapsed": 322503, "key_press": -1, "trial_index": 53}, "uniqueid": "MTK2316:3L70J4KAZHTUG1KODCKS08G1A2WDAD", "dateTime": 1516986650431}, {"current_trial": 54, "trialdata": {"rt": -1, "trial_type": "single-stim", "stimulus": "<p id=\"stim\">+</p>", "internal_node_id": "0.0-36.0-0.0", "time_elapsed": 324008, "key_press": -1, "type": "FIXATION", "trial_index": 54}, "uniqueid": "MTK2316:3L70J4KAZHTUG1KODCKS08G1A2WDAD", "dateTime": 1516986651935}, {"current_trial": 55, "trialdata": {"rt": -1, "trial_type": "single-stim", "word": "iceberg", "stimulus": "<p id=\"stim\">ICEBERG</p>", "conditions": [18, 1200, "v", 18000], "internal_node_id": "0.0-37.0", "trial": 1, "time_elapsed": 325212, "serialpos": 0, "key_press": -1, "wordID": 730, "type": "PRES_VIS", "trial_index": 55}, "uniqueid": "MTK2316:3L70J4KAZHTUG1KODCKS08G1A2WDAD", "dateTime": 1516986653139}, {"current_trial": 56, "trialdata": {"rt": -1, "trial_type": "single-stim", "word": "cocoon", "stimulus": "<p id=\"stim\">COCOON</p>", "conditions": [18, 1200, "v", 18000], "internal_node_id": "0.0-38.0", "trial": 1, "time_elapsed": 327592, "serialpos": 1, "key_press": -1, "wordID": 338, "type": "PRES_VIS", "trial_index": 56}, "uniqueid": "MTK2316:3L70J4KAZHTUG1KODCKS08G1A2WDAD", "dateTime": 1516986655519}, {"current_trial": 57, "trialdata": {"rt": -1, "trial_type": "single-stim", "word": "message", "stimulus": "<p id=\"stim\">MESSAGE</p>", "conditions": [18, 1200, "v", 18000], "internal_node_id": "0.0-39.0", "trial": 1, "time_elapsed": 329633, "serialpos": 2, "key_press": -1, "wordID": 887, "type": "PRES_VIS", "trial_index": 57}, "uniqueid": "MTK2316:3L70J4KAZHTUG1KODCKS08G1A2WDAD", "dateTime": 1516986657560}, {"current_trial": 58, "trialdata": {"rt": -1, "trial_type": "single-stim", "word": "clock", "stimulus": "<p id=\"stim\">CLOCK</p>", "conditions": [18, 1200, "v", 18000], "internal_node_id": "0.0-40.0", "trial": 1, "time_elapsed": 331895, "serialpos": 3, "key_press": -1, "wordID": 324, "type": "PRES_VIS", "trial_index": 58}, "uniqueid": "MTK2316:3L70J4KAZHTUG1KODCKS08G1A2WDAD", "dateTime": 1516986659822}, {"current_trial": 59, "trialdata": {"rt": -1, "trial_type": "single-stim", "word": "denim", "stimulus": "<p id=\"stim\">DENIM</p>", "conditions": [18, 1200, "v", 18000], "internal_node_id": "0.0-41.0", "trial": 1, "time_elapsed": 333995, "serialpos": 4, "key_press": -1, "wordID": 445, "type": "PRES_VIS", "trial_index": 59}, "uniqueid": "MTK2316:3L70J4KAZHTUG1KODCKS08G1A2WDAD", "dateTime": 1516986661923}, {"current_trial": 60, "trialdata": {"rt": -1, "trial_type": "single-stim", "word": "seal", "stimulus": "<p id=\"stim\">SEAL</p>", "conditions": [18, 1200, "v", 18000], "internal_node_id": "0.0-42.0", "trial": 1, "time_elapsed": 336083, "serialpos": 5, "key_press": -1, "wordID": 1261, "type": "PRES_VIS", "trial_index": 60}, "uniqueid": "MTK2316:3L70J4KAZHTUG1KODCKS08G1A2WDAD", "dateTime": 1516986664010}, {"current_trial": 61, "trialdata": {"rt": -1, "trial_type": "single-stim", "word": "cabin", "stimulus": "<p id=\"stim\">CABIN</p>", "conditions": [18, 1200, "v", 18000], "internal_node_id": "0.0-43.0", "trial": 1, "time_elapsed": 338242, "serialpos": 6, "key_press": -1, "wordID": 210, "type": "PRES_VIS", "trial_index": 61}, "uniqueid": "MTK2316:3L70J4KAZHTUG1KODCKS08G1A2WDAD", "dateTime": 1516986666169}, {"current_trial": 62, "trialdata": {"rt": -1, "trial_type": "single-stim", "word": "scarecrow", "stimulus": "<p id=\"stim\">SCARECROW</p>", "conditions": [18, 1200, "v", 18000], "internal_node_id": "0.0-44.0", "trial": 1, "time_elapsed": 340279, "serialpos": 7, "key_press": -1, "wordID": 1244, "type": "PRES_VIS", "trial_index": 62}, "uniqueid": "MTK2316:3L70J4KAZHTUG1KODCKS08G1A2WDAD", "dateTime": 1516986668206}, {"current_trial": 63, "trialdata": {"rt": -1, "trial_type": "single-stim", "word": "banjo", "stimulus": "<p id=\"stim\">BANJO</p>", "conditions": [18, 1200, "v", 18000], "internal_node_id": "0.0-45.0", "trial": 1, "time_elapsed": 342555, "serialpos": 8, "key_press": -1, "wordID": 81, "type": "PRES_VIS", "trial_index": 63}, "uniqueid": "MTK2316:3L70J4KAZHTUG1KODCKS08G1A2WDAD", "dateTime": 1516986670482}, {"current_trial": 64, "trialdata": {"rt": -1, "trial_type": "single-stim", "word": "witness", "stimulus": "<p id=\"stim\">WITNESS</p>", "conditions": [18, 1200, "v", 18000], "internal_node_id": "0.0-46.0", "trial": 1, "time_elapsed": 344681, "serialpos": 9, "key_press": -1, "wordID": 1617, "type": "PRES_VIS", "trial_index": 64}, "uniqueid": "MTK2316:3L70J4KAZHTUG1KODCKS08G1A2WDAD", "dateTime": 1516986672608}, {"current_trial": 65, "trialdata": {"rt": -1, "trial_type": "single-stim", "word": "infant", "stimulus": "<p id=\"stim\">INFANT</p>", "conditions": [18, 1200, "v", 18000], "internal_node_id": "0.0-47.0", "trial": 1, "time_elapsed": 346709, "serialpos": 10, "key_press": -1, "wordID": 736, "type": "PRES_VIS", "trial_index": 65}, "uniqueid": "MTK2316:3L70J4KAZHTUG1KODCKS08G1A2WDAD", "dateTime": 1516986674636}, {"current_trial": 66, "trialdata": {"rt": -1, "trial_type": "single-stim", "word": "servant", "stimulus": "<p id=\"stim\">SERVANT</p>", "conditions": [18, 1200, "v", 18000], "internal_node_id": "0.0-48.0", "trial": 1, "time_elapsed": 349045, "serialpos": 11, "key_press": -1, "wordID": 1270, "type": "PRES_VIS", "trial_index": 66}, "uniqueid": "MTK2316:3L70J4KAZHTUG1KODCKS08G1A2WDAD", "dateTime": 1516986676972}, {"current_trial": 67, "trialdata": {"rt": -1, "trial_type": "single-stim", "word": "drug", "stimulus": "<p id=\"stim\">DRUG</p>", "conditions": [18, 1200, "v", 18000], "internal_node_id": "0.0-49.0", "trial": 1, "time_elapsed": 351082, "serialpos": 12, "key_press": -1, "wordID": 500, "type": "PRES_VIS", "trial_index": 67}, "uniqueid": "MTK2316:3L70J4KAZHTUG1KODCKS08G1A2WDAD", "dateTime": 1516986679010}, {"current_trial": 68, "trialdata": {"rt": -1, "trial_type": "single-stim", "word": "army", "stimulus": "<p id=\"stim\">ARMY</p>", "conditions": [18, 1200, "v", 18000], "internal_node_id": "0.0-50.0", "trial": 1, "time_elapsed": 353398, "serialpos": 13, "key_press": -1, "wordID": 38, "type": "PRES_VIS", "trial_index": 68}, "uniqueid": "MTK2316:3L70J4KAZHTUG1KODCKS08G1A2WDAD", "dateTime": 1516986681330}, {"current_trial": 69, "trialdata": {"rt": -1, "trial_type": "single-stim", "word": "nurse", "stimulus": "<p id=\"stim\">NURSE</p>", "conditions": [18, 1200, "v", 18000], "internal_node_id": "0.0-51.0", "trial": 1, "time_elapsed": 355642, "serialpos": 14, "key_press": -1, "wordID": 962, "type": "PRES_VIS", "trial_index": 69}, "uniqueid": "MTK2316:3L70J4KAZHTUG1KODCKS08G1A2WDAD", "dateTime": 1516986683569}, {"current_trial": 70, "trialdata": {"rt": -1, "trial_type": "single-stim", "word": "chapel", "stimulus": "<p id=\"stim\">CHAPEL</p>", "conditions": [18, 1200, "v", 18000], "internal_node_id": "0.0-52.0", "trial": 1, "time_elapsed": 357805, "serialpos": 15, "key_press": -1, "wordID": 279, "type": "PRES_VIS", "trial_index": 70}, "uniqueid": "MTK2316:3L70J4KAZHTUG1KODCKS08G1A2WDAD", "dateTime": 1516986685733}, {"current_trial": 71, "trialdata": {"rt": -1, "trial_type": "single-stim", "word": "flag", "stimulus": "<p id=\"stim\">FLAG</p>", "conditions": [18, 1200, "v", 18000], "internal_node_id": "0.0-53.0", "trial": 1, "time_elapsed": 359878, "serialpos": 16, "key_press": -1, "wordID": 572, "type": "PRES_VIS", "trial_index": 71}, "uniqueid": "MTK2316:3L70J4KAZHTUG1KODCKS08G1A2WDAD", "dateTime": 1516986687806}, {"current_trial": 72, "trialdata": {"rt": -1, "trial_type": "single-stim", "word": "table", "stimulus": "<p id=\"stim\">TABLE</p>", "conditions": [18, 1200, "v", 18000], "internal_node_id": "0.0-54.0", "trial": 1, "time_elapsed": 362257, "serialpos": 17, "key_press": -1, "wordID": 1425, "type": "PRES_VIS", "trial_index": 72}, "uniqueid": "MTK2316:3L70J4KAZHTUG1KODCKS08G1A2WDAD", "dateTime": 1516986690184}, {"current_trial": 73, "trialdata": {"rt": -1, "trial_type": "single-stim", "stimulus": "", "internal_node_id": "0.0-55.0-0.0", "time_elapsed": 364542, "key_press": -1, "type": "PRE_RECALL_DELAY", "trial_index": 73}, "uniqueid": "MTK2316:3L70J4KAZHTUG1KODCKS08G1A2WDAD", "dateTime": 1516986692469}, {"current_trial": 74, "trialdata": {"rt": -1000, "trial_type": "single-audio", "stimulus": "/static/audio/400Hz.wav", "internal_node_id": "0.0-56.0", "time_elapsed": 365052, "key_press": -1, "type": "PRE_RECALL_ALERT", "trial_index": 74}, "uniqueid": "MTK2316:3L70J4KAZHTUG1KODCKS08G1A2WDAD", "dateTime": 1516986692979}, {"current_trial": 75, "trialdata": {"rt": [3433, 6081, 7817, 13264, 16825], "recwords": ["table", "chapel", "clock", "scarecrow", "iceburg"], "key_times": [1292, 1597, 1653, 2170, 2261, 3433, 4471, 4547, 5002, 5085, 5460, 5534, 6081, 6882, 6918, 7091, 7233, 7399, 7817, 9723, 10697, 10977, 11245, 11496, 11784, 11979, 12318, 12523, 12770, 12890, 13264, 14083, 14221, 14441, 14744, 15025, 15201, 16248, 16825], "trial_type": "free-recall", "conditions": [18, 1200, "v", 18000], "internal_node_id": "0.0-57.0-0.0", "key_presses": [84, 65, 66, 76, 69, 13, 67, 72, 65, 80, 69, 76, 13, 67, 76, 79, 67, 75, 13, 67, 8, 83, 67, 65, 82, 69, 67, 82, 79, 87, 13, 73, 67, 69, 66, 85, 82, 71, 13], "trial": 1, "time_elapsed": 425061, "type": "FREE_RECALL", "trial_index": 75}, "uniqueid": "MTK2316:3L70J4KAZHTUG1KODCKS08G1A2WDAD", "dateTime": 1516986752992}, {"current_trial": 76, "trialdata": {"rt": 10349, "trial_type": "text", "internal_node_id": "0.0-58.0", "time_elapsed": 437417, "key_press": 32, "type": "INSTRUCTIONS", "trial_index": 76}, "uniqueid": "MTK2316:3L70J4KAZHTUG1KODCKS08G1A2WDAD", "dateTime": 1516986765344}, {"current_trial": 77, "trialdata": {"rt": [2258, 4920, 6796, 8724, 10545], "trial_type": "math-distractor", "key_times": [1931, 2033, 2258, 4605, 4674, 4920, 6277, 6523, 6796, 8308, 8472, 8724, 10321, 10545], "responses": ["13", "18", "17", "14", "9"], "num2": [9, 7, 9, 6, 5, 9], "num3": [3, 5, 7, 2, 1, 7], "conditions": [24, 1600, "v", 12000], "internal_node_id": "0.0-59.0", "key_presses": [97, 99, 13, 97, 104, 13, 97, 103, 13, 97, 100, 13, 105, 13], "trial": 2, "time_elapsed": 450424, "type": "DISTRACTOR", "trial_index": 77, "num1": [1, 6, 1, 6, 3, 5]}, "uniqueid": "MTK2316:3L70J4KAZHTUG1KODCKS08G1A2WDAD", "dateTime": 1516986778351}, {"current_trial": 78, "trialdata": {"rt": 208, "trial_type": "single-stim", "stimulus": "<p id=\"stim\">10</p>", "internal_node_id": "0.0-60.0-0.0", "time_elapsed": 453430, "key_press": 98, "trial_index": 78}, "uniqueid": "MTK2316:3L70J4KAZHTUG1KODCKS08G1A2WDAD", "dateTime": 1516986781358}, {"current_trial": 79, "trialdata": {"rt": -1, "trial_type": "single-stim", "stimulus": "<p id=\"stim\">9</p>", "internal_node_id": "0.0-60.0-1.0", "time_elapsed": 454434, "key_press": -1, "trial_index": 79}, "uniqueid": "MTK2316:3L70J4KAZHTUG1KODCKS08G1A2WDAD", "dateTime": 1516986782362}, {"current_trial": 80, "trialdata": {"rt": -1, "trial_type": "single-stim", "stimulus": "<p id=\"stim\">8</p>", "internal_node_id": "0.0-60.0-2.0", "time_elapsed": 455438, "key_press": -1, "trial_index": 80}, "uniqueid": "MTK2316:3L70J4KAZHTUG1KODCKS08G1A2WDAD", "dateTime": 1516986783366}, {"current_trial": 81, "trialdata": {"rt": -1, "trial_type": "single-stim", "stimulus": "<p id=\"stim\">7</p>", "internal_node_id": "0.0-60.0-3.0", "time_elapsed": 456441, "key_press": -1, "trial_index": 81}, "uniqueid": "MTK2316:3L70J4KAZHTUG1KODCKS08G1A2WDAD", "dateTime": 1516986784368}, {"current_trial": 82, "trialdata": {"rt": -1, "trial_type": "single-stim", "stimulus": "<p id=\"stim\">6</p>", "internal_node_id": "0.0-60.0-4.0", "time_elapsed": 457443, "key_press": -1, "trial_index": 82}, "uniqueid": "MTK2316:3L70J4KAZHTUG1KODCKS08G1A2WDAD", "dateTime": 1516986785370}, {"current_trial": 83, "trialdata": {"rt": -1, "trial_type": "single-stim", "stimulus": "<p id=\"stim\">5</p>", "internal_node_id": "0.0-60.0-5.0", "time_elapsed": 458445, "key_press": -1, "trial_index": 83}, "uniqueid": "MTK2316:3L70J4KAZHTUG1KODCKS08G1A2WDAD", "dateTime": 1516986786372}, {"current_trial": 84, "trialdata": {"rt": -1, "trial_type": "single-stim", "stimulus": "<p id=\"stim\">4</p>", "internal_node_id": "0.0-60.0-6.0", "time_elapsed": 459449, "key_press": -1, "trial_index": 84}, "uniqueid": "MTK2316:3L70J4KAZHTUG1KODCKS08G1A2WDAD", "dateTime": 1516986787376}, {"current_trial": 85, "trialdata": {"rt": -1, "trial_type": "single-stim", "stimulus": "<p id=\"stim\">3</p>", "internal_node_id": "0.0-60.0-7.0", "time_elapsed": 460452, "key_press": -1, "trial_index": 85}, "uniqueid": "MTK2316:3L70J4KAZHTUG1KODCKS08G1A2WDAD", "dateTime": 1516986788380}, {"current_trial": 86, "trialdata": {"rt": -1, "trial_type": "single-stim", "stimulus": "<p id=\"stim\">2</p>", "internal_node_id": "0.0-60.0-8.0", "time_elapsed": 461454, "key_press": -1, "trial_index": 86}, "uniqueid": "MTK2316:3L70J4KAZHTUG1KODCKS08G1A2WDAD", "dateTime": 1516986789382}, {"current_trial": 87, "trialdata": {"rt": -1, "trial_type": "single-stim", "stimulus": "<p id=\"stim\">1</p>", "internal_node_id": "0.0-60.0-9.0", "time_elapsed": 462459, "key_press": -1, "trial_index": 87}, "uniqueid": "MTK2316:3L70J4KAZHTUG1KODCKS08G1A2WDAD", "dateTime": 1516986790386}, {"current_trial": 88, "trialdata": {"rt": -1, "trial_type": "single-stim", "stimulus": "<p id=\"stim\">+</p>", "internal_node_id": "0.0-61.0-0.0", "time_elapsed": 463962, "key_press": -1, "type": "FIXATION", "trial_index": 88}, "uniqueid": "MTK2316:3L70J4KAZHTUG1KODCKS08G1A2WDAD", "dateTime": 1516986791890}, {"current_trial": 89, "trialdata": {"rt": -1, "trial_type": "single-stim", "word": "cafe", "stimulus": "<p id=\"stim\">CAFE</p>", "conditions": [24, 1600, "v", 12000], "internal_node_id": "0.0-62.0", "trial": 2, "time_elapsed": 465564, "serialpos": 0, "key_press": -1, "wordID": 215, "type": "PRES_VIS", "trial_index": 89}, "uniqueid": "MTK2316:3L70J4KAZHTUG1KODCKS08G1A2WDAD", "dateTime": 1516986793491}, {"current_trial": 90, "trialdata": {"rt": -1, "trial_type": "single-stim", "word": "dustpan", "stimulus": "<p id=\"stim\">DUSTPAN</p>", "conditions": [24, 1600, "v", 12000], "internal_node_id": "0.0-63.0", "trial": 2, "time_elapsed": 468211, "serialpos": 1, "key_press": -1, "wordID": 508, "type": "PRES_VIS", "trial_index": 90}, "uniqueid": "MTK2316:3L70J4KAZHTUG1KODCKS08G1A2WDAD", "dateTime": 1516986796138}, {"current_trial": 91, "trialdata": {"rt": -1, "trial_type": "single-stim", "word": "empire", "stimulus": "<p id=\"stim\">EMPIRE</p>", "conditions": [24, 1600, "v", 12000], "internal_node_id": "0.0-64.0", "trial": 2, "time_elapsed": 470868, "serialpos": 2, "key_press": -1, "wordID": 529, "type": "PRES_VIS", "trial_index": 91}, "uniqueid": "MTK2316:3L70J4KAZHTUG1KODCKS08G1A2WDAD", "dateTime": 1516986798795}, {"current_trial": 92, "trialdata": {"rt": -1, "trial_type": "single-stim", "word": "plaster", "stimulus": "<p id=\"stim\">PLASTER</p>", "conditions": [24, 1600, "v", 12000], "internal_node_id": "0.0-65.0", "trial": 2, "time_elapsed": 473661, "serialpos": 3, "key_press": -1, "wordID": 1084, "type": "PRES_VIS", "trial_index": 92}, "uniqueid": "MTK2316:3L70J4KAZHTUG1KODCKS08G1A2WDAD", "dateTime": 1516986801588}, {"current_trial": 93, "trialdata": {"rt": -1, "trial_type": "single-stim", "word": "chipmunk", "stimulus": "<p id=\"stim\">CHIPMUNK</p>", "conditions": [24, 1600, "v", 12000], "internal_node_id": "0.0-66.0", "trial": 2, "time_elapsed": 476281, "serialpos": 4, "key_press": -1, "wordID": 303, "type": "PRES_VIS", "trial_index": 93}, "uniqueid": "MTK2316:3L70J4KAZHTUG1KODCKS08G1A2WDAD", "dateTime": 1516986804208}, {"current_trial": 94, "trialdata": {"rt": -1, "trial_type": "single-stim", "word": "garlic", "stimulus": "<p id=\"stim\">GARLIC</p>", "conditions": [24, 1600, "v", 12000], "internal_node_id": "0.0-67.0", "trial": 2, "time_elapsed": 478690, "serialpos": 5, "key_press": -1, "wordID": 623, "type": "PRES_VIS", "trial_index": 94}, "uniqueid": "MTK2316:3L70J4KAZHTUG1KODCKS08G1A2WDAD", "dateTime": 1516986806617}, {"current_trial": 95, "trialdata": {"rt": -1, "trial_type": "single-stim", "word": "toaster", "stimulus": "<p id=\"stim\">TOASTER</p>", "conditions": [24, 1600, "v", 12000], "internal_node_id": "0.0-68.0", "trial": 2, "time_elapsed": 481313, "serialpos": 6, "key_press": -1, "wordID": 1471, "type": "PRES_VIS", "trial_index": 95}, "uniqueid": "MTK2316:3L70J4KAZHTUG1KODCKS08G1A2WDAD", "dateTime": 1516986809240}, {"current_trial": 96, "trialdata": {"rt": -1, "trial_type": "single-stim", "word": "stove", "stimulus": "<p id=\"stim\">STOVE</p>", "conditions": [24, 1600, "v", 12000], "internal_node_id": "0.0-69.0", "trial": 2, "time_elapsed": 484021, "serialpos": 7, "key_press": -1, "wordID": 1387, "type": "PRES_VIS", "trial_index": 96}, "uniqueid": "MTK2316:3L70J4KAZHTUG1KODCKS08G1A2WDAD", "dateTime": 1516986811949}, {"current_trial": 97, "trialdata": {"rt": -1, "trial_type": "single-stim", "word": "beaver", "stimulus": "<p id=\"stim\">BEAVER</p>", "conditions": [24, 1600, "v", 12000], "internal_node_id": "0.0-70.0", "trial": 2, "time_elapsed": 486440, "serialpos": 8, "key_press": -1, "wordID": 108, "type": "PRES_VIS", "trial_index": 97}, "uniqueid": "MTK2316:3L70J4KAZHTUG1KODCKS08G1A2WDAD", "dateTime": 1516986814367}, {"current_trial": 98, "trialdata": {"rt": -1, "trial_type": "single-stim", "word": "knife", "stimulus": "<p id=\"stim\">KNIFE</p>", "conditions": [24, 1600, "v", 12000], "internal_node_id": "0.0-71.0", "trial": 2, "time_elapsed": 489112, "serialpos": 9, "key_press": -1, "wordID": 784, "type": "PRES_VIS", "trial_index": 98}, "uniqueid": "MTK2316:3L70J4KAZHTUG1KODCKS08G1A2WDAD", "dateTime": 1516986817039}, {"current_trial": 99, "trialdata": {"rt": -1, "trial_type": "single-stim", "word": "ox", "stimulus": "<p id=\"stim\">OX</p>", "conditions": [24, 1600, "v", 12000], "internal_node_id": "0.0-72.0", "trial": 2, "time_elapsed": 491804, "serialpos": 10, "key_press": -1, "wordID": 993, "type": "PRES_VIS", "trial_index": 99}, "uniqueid": "MTK2316:3L70J4KAZHTUG1KODCKS08G1A2WDAD", "dateTime": 1516986819731}, {"current_trial": 100, "trialdata": {"rt": -1, "trial_type": "single-stim", "word": "bunny", "stimulus": "<p id=\"stim\">BUNNY</p>", "conditions": [24, 1600, "v", 12000], "internal_node_id": "0.0-73.0", "trial": 2, "time_elapsed": 494274, "serialpos": 11, "key_press": -1, "wordID": 197, "type": "PRES_VIS", "trial_index": 100}, "uniqueid": "MTK2316:3L70J4KAZHTUG1KODCKS08G1A2WDAD", "dateTime": 1516986822201}, {"current_trial": 101, "trialdata": {"rt": -1, "trial_type": "single-stim", "word": "ozone", "stimulus": "<p id=\"stim\">OZONE</p>", "conditions": [24, 1600, "v", 12000], "internal_node_id": "0.0-74.0", "trial": 2, "time_elapsed": 497065, "serialpos": 12, "key_press": -1, "wordID": 995, "type": "PRES_VIS", "trial_index": 101}, "uniqueid": "MTK2316:3L70J4KAZHTUG1KODCKS08G1A2WDAD", "dateTime": 1516986824992}, {"current_trial": 102, "trialdata": {"rt": -1, "trial_type": "single-stim", "word": "spool", "stimulus": "<p id=\"stim\">SPOOL</p>", "conditions": [24, 1600, "v", 12000], "internal_node_id": "0.0-75.0", "trial": 2, "time_elapsed": 499481, "serialpos": 13, "key_press": -1, "wordID": 1355, "type": "PRES_VIS", "trial_index": 102}, "uniqueid": "MTK2316:3L70J4KAZHTUG1KODCKS08G1A2WDAD", "dateTime": 1516986827408}, {"current_trial": 103, "trialdata": {"rt": -1, "trial_type": "single-stim", "word": "rod", "stimulus": "<p id=\"stim\">ROD</p>", "conditions": [24, 1600, "v", 12000], "internal_node_id": "0.0-76.0", "trial": 2, "time_elapsed": 501937, "serialpos": 14, "key_press": -1, "wordID": 1202, "type": "PRES_VIS", "trial_index": 103}, "uniqueid": "MTK2316:3L70J4KAZHTUG1KODCKS08G1A2WDAD", "dateTime": 1516986829864}, {"current_trial": 104, "trialdata": {"rt": -1, "trial_type": "single-stim", "word": "pasta", "stimulus": "<p id=\"stim\">PASTA</p>", "conditions": [24, 1600, "v", 12000], "internal_node_id": "0.0-77.0", "trial": 2, "time_elapsed": 504606, "serialpos": 15, "key_press": -1, "wordID": 1020, "type": "PRES_VIS", "trial_index": 104}, "uniqueid": "MTK2316:3L70J4KAZHTUG1KODCKS08G1A2WDAD", "dateTime": 1516986832533}, {"current_trial": 105, "trialdata": {"rt": -1, "trial_type": "single-stim", "word": "hero", "stimulus": "<p id=\"stim\">HERO</p>", "conditions": [24, 1600, "v", 12000], "internal_node_id": "0.0-78.0", "trial": 2, "time_elapsed": 507263, "serialpos": 16, "key_press": -1, "wordID": 705, "type": "PRES_VIS", "trial_index": 105}, "uniqueid": "MTK2316:3L70J4KAZHTUG1KODCKS08G1A2WDAD", "dateTime": 1516986835190}, {"current_trial": 106, "trialdata": {"rt": -1, "trial_type": "single-stim", "word": "knapsack", "stimulus": "<p id=\"stim\">KNAPSACK</p>", "conditions": [24, 1600, "v", 12000], "internal_node_id": "0.0-79.0", "trial": 2, "time_elapsed": 510065, "serialpos": 17, "key_press": -1, "wordID": 782, "type": "PRES_VIS", "trial_index": 106}, "uniqueid": "MTK2316:3L70J4KAZHTUG1KODCKS08G1A2WDAD", "dateTime": 1516986837992}, {"current_trial": 107, "trialdata": {"rt": -1, "trial_type": "single-stim", "word": "slide", "stimulus": "<p id=\"stim\">SLIDE</p>", "conditions": [24, 1600, "v", 12000], "internal_node_id": "0.0-80.0", "trial": 2, "time_elapsed": 512560, "serialpos": 18, "key_press": -1, "wordID": 1325, "type": "PRES_VIS", "trial_index": 107}, "uniqueid": "MTK2316:3L70J4KAZHTUG1KODCKS08G1A2WDAD", "dateTime": 1516986840488}, {"current_trial": 108, "trialdata": {"rt": -1, "trial_type": "single-stim", "word": "scissors", "stimulus": "<p id=\"stim\">SCISSORS</p>", "conditions": [24, 1600, "v", 12000], "internal_node_id": "0.0-81.0", "trial": 2, "time_elapsed": 515217, "serialpos": 19, "key_press": -1, "wordID": 1249, "type": "PRES_VIS", "trial_index": 108}, "uniqueid": "MTK2316:3L70J4KAZHTUG1KODCKS08G1A2WDAD", "dateTime": 1516986843144}, {"current_trial": 109, "trialdata": {"rt": -1, "trial_type": "single-stim", "word": "fragrance", "stimulus": "<p id=\"stim\">FRAGRANCE</p>", "conditions": [24, 1600, "v", 12000], "internal_node_id": "0.0-82.0", "trial": 2, "time_elapsed": 517861, "serialpos": 20, "key_press": -1, "wordID": 598, "type": "PRES_VIS", "trial_index": 109}, "uniqueid": "MTK2316:3L70J4KAZHTUG1KODCKS08G1A2WDAD", "dateTime": 1516986845788}, {"current_trial": 110, "trialdata": {"rt": -1, "trial_type": "single-stim", "word": "forest", "stimulus": "<p id=\"stim\">FOREST</p>", "conditions": [24, 1600, "v", 12000], "internal_node_id": "0.0-83.0", "trial": 2, "time_elapsed": 520492, "serialpos": 21, "key_press": -1, "wordID": 592, "type": "PRES_VIS", "trial_index": 110}, "uniqueid": "MTK2316:3L70J4KAZHTUG1KODCKS08G1A2WDAD", "dateTime": 1516986848419}, {"current_trial": 111, "trialdata": {"rt": -1, "trial_type": "single-stim", "word": "razor", "stimulus": "<p id=\"stim\">RAZOR</p>", "conditions": [24, 1600, "v", 12000], "internal_node_id": "0.0-84.0", "trial": 2, "time_elapsed": 523214, "serialpos": 22, "key_press": -1, "wordID": 1170, "type": "PRES_VIS", "trial_index": 111}, "uniqueid": "MTK2316:3L70J4KAZHTUG1KODCKS08G1A2WDAD", "dateTime": 1516986851141}, {"current_trial": 112, "trialdata": {"rt": -1, "trial_type": "single-stim", "word": "carriage", "stimulus": "<p id=\"stim\">CARRIAGE</p>", "conditions": [24, 1600, "v", 12000], "internal_node_id": "0.0-85.0", "trial": 2, "time_elapsed": 525645, "serialpos": 23, "key_press": -1, "wordID": 247, "type": "PRES_VIS", "trial_index": 112}, "uniqueid": "MTK2316:3L70J4KAZHTUG1KODCKS08G1A2WDAD", "dateTime": 1516986853573}, {"current_trial": 113, "trialdata": {"rt": -1, "trial_type": "single-stim", "stimulus": "", "internal_node_id": "0.0-86.0-0.0", "time_elapsed": 528068, "key_press": -1, "type": "PRE_RECALL_DELAY", "trial_index": 113}, "uniqueid": "MTK2316:3L70J4KAZHTUG1KODCKS08G1A2WDAD", "dateTime": 1516986855996}, {"current_trial": 114, "trialdata": {"rt": -1000, "trial_type": "single-audio", "stimulus": "/static/audio/400Hz.wav", "internal_node_id": "0.0-87.0", "time_elapsed": 528571, "key_press": -1, "type": "PRE_RECALL_ALERT", "trial_index": 114}, "uniqueid": "MTK2316:3L70J4KAZHTUG1KODCKS08G1A2WDAD", "dateTime": 1516986856498}, {"current_trial": 115, "trialdata": {"rt": [2922, 5038, 9013, 20700], "recwords": ["spool", "razor", "carriage", "fragrance"], "key_times": [1325, 1500, 1773, 1890, 2033, 2922, 3611, 3912, 4366, 4601, 4722, 5038, 6105, 6357, 6635, 7303, 7726, 8112, 8224, 8372, 9013, 16017, 16171, 16436, 16731, 16917, 17308, 17554, 17756, 18621, 18762, 18929, 19864, 19962, 20188, 20412, 20700], "trial_type": "free-recall", "conditions": [24, 1600, "v", 12000], "internal_node_id": "0.0-88.0-0.0", "key_presses": [83, 80, 79, 79, 76, 13, 82, 65, 90, 79, 82, 13, 67, 65, 82, 82, 73, 65, 71, 69, 13, 70, 82, 65, 71, 82, 78, 67, 69, 8, 8, 8, 65, 78, 67, 69, 13], "trial": 2, "time_elapsed": 588577, "type": "FREE_RECALL", "trial_index": 115}, "uniqueid": "MTK2316:3L70J4KAZHTUG1KODCKS08G1A2WDAD", "dateTime": 1516986916509}, {"current_trial": 116, "trialdata": {"rt": 1810, "trial_type": "text", "internal_node_id": "0.0-89.0", "time_elapsed": 592396, "key_press": 32, "type": "INSTRUCTIONS", "trial_index": 116}, "uniqueid": "MTK2316:3L70J4KAZHTUG1KODCKS08G1A2WDAD", "dateTime": 1516986920323}, {"current_trial": 117, "trialdata": {"rt": [2203], "trial_type": "math-distractor", "key_times": [1632, 1758, 2203], "responses": ["15"], "num2": [5, 6], "num3": [9, 9], "conditions": [24, 1600, "v", 12000], "internal_node_id": "0.0-90.0", "key_presses": [97, 101, 13], "trial": 3, "time_elapsed": 606404, "type": "DISTRACTOR", "trial_index": 117, "num1": [1, 8]}, "uniqueid": "MTK2316:3L70J4KAZHTUG1KODCKS08G1A2WDAD", "dateTime": 1516986934331}, {"current_trial": 118, "trialdata": {"rt": -1, "trial_type": "single-stim", "stimulus": "<p id=\"stim\">10</p>", "internal_node_id": "0.0-91.0-0.0", "time_elapsed": 609411, "key_press": -1, "trial_index": 118}, "uniqueid": "MTK2316:3L70J4KAZHTUG1KODCKS08G1A2WDAD", "dateTime": 1516986937338}, {"current_trial": 119, "trialdata": {"rt": -1, "trial_type": "single-stim", "stimulus": "<p id=\"stim\">9</p>", "internal_node_id": "0.0-91.0-1.0", "time_elapsed": 610413, "key_press": -1, "trial_index": 119}, "uniqueid": "MTK2316:3L70J4KAZHTUG1KODCKS08G1A2WDAD", "dateTime": 1516986938340}, {"current_trial": 120, "trialdata": {"rt": -1, "trial_type": "single-stim", "stimulus": "<p id=\"stim\">8</p>", "internal_node_id": "0.0-91.0-2.0", "time_elapsed": 611418, "key_press": -1, "trial_index": 120}, "uniqueid": "MTK2316:3L70J4KAZHTUG1KODCKS08G1A2WDAD", "dateTime": 1516986939345}, {"current_trial": 121, "trialdata": {"rt": -1, "trial_type": "single-stim", "stimulus": "<p id=\"stim\">7</p>", "internal_node_id": "0.0-91.0-3.0", "time_elapsed": 612423, "key_press": -1, "trial_index": 121}, "uniqueid": "MTK2316:3L70J4KAZHTUG1KODCKS08G1A2WDAD", "dateTime": 1516986940350}, {"current_trial": 122, "trialdata": {"rt": -1, "trial_type": "single-stim", "stimulus": "<p id=\"stim\">6</p>", "internal_node_id": "0.0-91.0-4.0", "time_elapsed": 613426, "key_press": -1, "trial_index": 122}, "uniqueid": "MTK2316:3L70J4KAZHTUG1KODCKS08G1A2WDAD", "dateTime": 1516986941353}, {"current_trial": 123, "trialdata": {"rt": -1, "trial_type": "single-stim", "stimulus": "<p id=\"stim\">5</p>", "internal_node_id": "0.0-91.0-5.0", "time_elapsed": 614431, "key_press": -1, "trial_index": 123}, "uniqueid": "MTK2316:3L70J4KAZHTUG1KODCKS08G1A2WDAD", "dateTime": 1516986942358}, {"current_trial": 124, "trialdata": {"rt": -1, "trial_type": "single-stim", "stimulus": "<p id=\"stim\">4</p>", "internal_node_id": "0.0-91.0-6.0", "time_elapsed": 615433, "key_press": -1, "trial_index": 124}, "uniqueid": "MTK2316:3L70J4KAZHTUG1KODCKS08G1A2WDAD", "dateTime": 1516986943361}, {"current_trial": 125, "trialdata": {"rt": -1, "trial_type": "single-stim", "stimulus": "<p id=\"stim\">3</p>", "internal_node_id": "0.0-91.0-7.0", "time_elapsed": 616436, "key_press": -1, "trial_index": 125}, "uniqueid": "MTK2316:3L70J4KAZHTUG1KODCKS08G1A2WDAD", "dateTime": 1516986944363}, {"current_trial": 126, "trialdata": {"rt": -1, "trial_type": "single-stim", "stimulus": "<p id=\"stim\">2</p>", "internal_node_id": "0.0-91.0-8.0", "time_elapsed": 617440, "key_press": -1, "trial_index": 126}, "uniqueid": "MTK2316:3L70J4KAZHTUG1KODCKS08G1A2WDAD", "dateTime": 1516986945368}, {"current_trial": 127, "trialdata": {"rt": -1, "trial_type": "single-stim", "stimulus": "<p id=\"stim\">1</p>", "internal_node_id": "0.0-91.0-9.0", "time_elapsed": 618442, "key_press": -1, "trial_index": 127}, "uniqueid": "MTK2316:3L70J4KAZHTUG1KODCKS08G1A2WDAD", "dateTime": 1516986946370}, {"current_trial": 128, "trialdata": {"rt": -1, "trial_type": "single-stim", "stimulus": "<p id=\"stim\">+</p>", "internal_node_id": "0.0-92.0-0.0", "time_elapsed": 619946, "key_press": -1, "type": "FIXATION", "trial_index": 128}, "uniqueid": "MTK2316:3L70J4KAZHTUG1KODCKS08G1A2WDAD", "dateTime": 1516986947873}, {"current_trial": 129, "trialdata": {"rt": -1, "trial_type": "single-stim", "word": "frame", "stimulus": "<p id=\"stim\">FRAME</p>", "conditions": [24, 1600, "v", 12000], "internal_node_id": "0.0-93.0", "trial": 3, "time_elapsed": 621550, "serialpos": 0, "key_press": -1, "wordID": 599, "type": "PRES_VIS", "trial_index": 129}, "uniqueid": "MTK2316:3L70J4KAZHTUG1KODCKS08G1A2WDAD", "dateTime": 1516986949477}, {"current_trial": 130, "trialdata": {"rt": -1, "trial_type": "single-stim", "word": "picture", "stimulus": "<p id=\"stim\">PICTURE</p>", "conditions": [24, 1600, "v", 12000], "internal_node_id": "0.0-94.0", "trial": 3, "time_elapsed": 624353, "serialpos": 1, "key_press": -1, "wordID": 1060, "type": "PRES_VIS", "trial_index": 130}, "uniqueid": "MTK2316:3L70J4KAZHTUG1KODCKS08G1A2WDAD", "dateTime": 1516986952280}, {"current_trial": 131, "trialdata": {"rt": -1, "trial_type": "single-stim", "word": "cupboard", "stimulus": "<p id=\"stim\">CUPBOARD</p>", "conditions": [24, 1600, "v", 12000], "internal_node_id": "0.0-95.0", "trial": 3, "time_elapsed": 626962, "serialpos": 2, "key_press": -1, "wordID": 424, "type": "PRES_VIS", "trial_index": 131}, "uniqueid": "MTK2316:3L70J4KAZHTUG1KODCKS08G1A2WDAD", "dateTime": 1516986954890}, {"current_trial": 132, "trialdata": {"rt": -1, "trial_type": "single-stim", "word": "kitchen", "stimulus": "<p id=\"stim\">KITCHEN</p>", "conditions": [24, 1600, "v", 12000], "internal_node_id": "0.0-96.0", "trial": 3, "time_elapsed": 629669, "serialpos": 3, "key_press": -1, "wordID": 777, "type": "PRES_VIS", "trial_index": 132}, "uniqueid": "MTK2316:3L70J4KAZHTUG1KODCKS08G1A2WDAD", "dateTime": 1516986957596}, {"current_trial": 133, "trialdata": {"rt": -1, "trial_type": "single-stim", "word": "velvet", "stimulus": "<p id=\"stim\">VELVET</p>", "conditions": [24, 1600, "v", 12000], "internal_node_id": "0.0-97.0", "trial": 3, "time_elapsed": 632264, "serialpos": 4, "key_press": -1, "wordID": 1554, "type": "PRES_VIS", "trial_index": 133}, "uniqueid": "MTK2316:3L70J4KAZHTUG1KODCKS08G1A2WDAD", "dateTime": 1516986960192}, {"current_trial": 134, "trialdata": {"rt": -1, "trial_type": "single-stim", "word": "glass", "stimulus": "<p id=\"stim\">GLASS</p>", "conditions": [24, 1600, "v", 12000], "internal_node_id": "0.0-98.0", "trial": 3, "time_elapsed": 634976, "serialpos": 5, "key_press": -1, "wordID": 638, "type": "PRES_VIS", "trial_index": 134}, "uniqueid": "MTK2316:3L70J4KAZHTUG1KODCKS08G1A2WDAD", "dateTime": 1516986962903}, {"current_trial": 135, "trialdata": {"rt": -1, "trial_type": "single-stim", "word": "preacher", "stimulus": "<p id=\"stim\">PREACHER</p>", "conditions": [24, 1600, "v", 12000], "internal_node_id": "0.0-99.0", "trial": 3, "time_elapsed": 637632, "serialpos": 6, "key_press": -1, "wordID": 1118, "type": "PRES_VIS", "trial_index": 135}, "uniqueid": "MTK2316:3L70J4KAZHTUG1KODCKS08G1A2WDAD", "dateTime": 1516986965559}, {"current_trial": 136, "trialdata": {"rt": -1, "trial_type": "single-stim", "word": "portrait", "stimulus": "<p id=\"stim\">PORTRAIT</p>", "conditions": [24, 1600, "v", 12000], "internal_node_id": "0.0-100.0", "trial": 3, "time_elapsed": 640223, "serialpos": 7, "key_press": -1, "wordID": 1110, "type": "PRES_VIS", "trial_index": 136}, "uniqueid": "MTK2316:3L70J4KAZHTUG1KODCKS08G1A2WDAD", "dateTime": 1516986968150}, {"current_trial": 137, "trialdata": {"rt": -1, "trial_type": "single-stim", "word": "rooster", "stimulus": "<p id=\"stim\">ROOSTER</p>", "conditions": [24, 1600, "v", 12000], "internal_node_id": "0.0-101.0", "trial": 3, "time_elapsed": 642963, "serialpos": 8, "key_press": -1, "wordID": 1208, "type": "PRES_VIS", "trial_index": 137}, "uniqueid": "MTK2316:3L70J4KAZHTUG1KODCKS08G1A2WDAD", "dateTime": 1516986970891}, {"current_trial": 138, "trialdata": {"rt": -1, "trial_type": "single-stim", "word": "stone", "stimulus": "<p id=\"stim\">STONE</p>", "conditions": [24, 1600, "v", 12000], "internal_node_id": "0.0-102.0", "trial": 3, "time_elapsed": 645702, "serialpos": 9, "key_press": -1, "wordID": 1384, "type": "PRES_VIS", "trial_index": 138}, "uniqueid": "MTK2316:3L70J4KAZHTUG1KODCKS08G1A2WDAD", "dateTime": 1516986973629}, {"current_trial": 139, "trialdata": {"rt": -1, "trial_type": "single-stim", "word": "trombone", "stimulus": "<p id=\"stim\">TROMBONE</p>", "conditions": [24, 1600, "v", 12000], "internal_node_id": "0.0-103.0", "trial": 3, "time_elapsed": 648319, "serialpos": 10, "key_press": -1, "wordID": 1507, "type": "PRES_VIS", "trial_index": 139}, "uniqueid": "MTK2316:3L70J4KAZHTUG1KODCKS08G1A2WDAD", "dateTime": 1516986976246}, {"current_trial": 140, "trialdata": {"rt": -1, "trial_type": "single-stim", "word": "pliers", "stimulus": "<p id=\"stim\">PLIERS</p>", "conditions": [24, 1600, "v", 12000], "internal_node_id": "0.0-104.0", "trial": 3, "time_elapsed": 650798, "serialpos": 11, "key_press": -1, "wordID": 1088, "type": "PRES_VIS", "trial_index": 140}, "uniqueid": "MTK2316:3L70J4KAZHTUG1KODCKS08G1A2WDAD", "dateTime": 1516986978726}, {"current_trial": 141, "trialdata": {"rt": -1, "trial_type": "single-stim", "word": "ketchup", "stimulus": "<p id=\"stim\">KETCHUP</p>", "conditions": [24, 1600, "v", 12000], "internal_node_id": "0.0-105.0", "trial": 3, "time_elapsed": 653436, "serialpos": 12, "key_press": -1, "wordID": 770, "type": "PRES_VIS", "trial_index": 141}, "uniqueid": "MTK2316:3L70J4KAZHTUG1KODCKS08G1A2WDAD", "dateTime": 1516986981364}, {"current_trial": 142, "trialdata": {"rt": -1, "trial_type": "single-stim", "word": "fiddle", "stimulus": "<p id=\"stim\">FIDDLE</p>", "conditions": [24, 1600, "v", 12000], "internal_node_id": "0.0-106.0", "trial": 3, "time_elapsed": 656119, "serialpos": 13, "key_press": -1, "wordID": 560, "type": "PRES_VIS", "trial_index": 142}, "uniqueid": "MTK2316:3L70J4KAZHTUG1KODCKS08G1A2WDAD", "dateTime": 1516986984046}, {"current_trial": 143, "trialdata": {"rt": -1, "trial_type": "single-stim", "word": "harp", "stimulus": "<p id=\"stim\">HARP</p>", "conditions": [24, 1600, "v", 12000], "internal_node_id": "0.0-107.0", "trial": 3, "time_elapsed": 658659, "serialpos": 14, "key_press": -1, "wordID": 688, "type": "PRES_VIS", "trial_index": 143}, "uniqueid": "MTK2316:3L70J4KAZHTUG1KODCKS08G1A2WDAD", "dateTime": 1516986986586}, {"current_trial": 144, "trialdata": {"rt": -1, "trial_type": "single-stim", "word": "cellar", "stimulus": "<p id=\"stim\">CELLAR</p>", "conditions": [24, 1600, "v", 12000], "internal_node_id": "0.0-108.0", "trial": 3, "time_elapsed": 661140, "serialpos": 15, "key_press": -1, "wordID": 266, "type": "PRES_VIS", "trial_index": 144}, "uniqueid": "MTK2316:3L70J4KAZHTUG1KODCKS08G1A2WDAD", "dateTime": 1516986989067}, {"current_trial": 145, "trialdata": {"rt": -1, "trial_type": "single-stim", "word": "scribble", "stimulus": "<p id=\"stim\">SCRIBBLE</p>", "conditions": [24, 1600, "v", 12000], "internal_node_id": "0.0-109.0", "trial": 3, "time_elapsed": 663615, "serialpos": 16, "key_press": -1, "wordID": 1255, "type": "PRES_VIS", "trial_index": 145}, "uniqueid": "MTK2316:3L70J4KAZHTUG1KODCKS08G1A2WDAD", "dateTime": 1516986991542}, {"current_trial": 146, "trialdata": {"rt": -1, "trial_type": "single-stim", "word": "patrol", "stimulus": "<p id=\"stim\">PATROL</p>", "conditions": [24, 1600, "v", 12000], "internal_node_id": "0.0-110.0", "trial": 3, "time_elapsed": 666186, "serialpos": 17, "key_press": -1, "wordID": 1026, "type": "PRES_VIS", "trial_index": 146}, "uniqueid": "MTK2316:3L70J4KAZHTUG1KODCKS08G1A2WDAD", "dateTime": 1516986994114}, {"current_trial": 147, "trialdata": {"rt": -1, "trial_type": "single-stim", "word": "dresser", "stimulus": "<p id=\"stim\">DRESSER</p>", "conditions": [24, 1600, "v", 12000], "internal_node_id": "0.0-111.0", "trial": 3, "time_elapsed": 668892, "serialpos": 18, "key_press": -1, "wordID": 495, "type": "PRES_VIS", "trial_index": 147}, "uniqueid": "MTK2316:3L70J4KAZHTUG1KODCKS08G1A2WDAD", "dateTime": 1516986996819}, {"current_trial": 148, "trialdata": {"rt": -1, "trial_type": "single-stim", "word": "piano", "stimulus": "<p id=\"stim\">PIANO</p>", "conditions": [24, 1600, "v", 12000], "internal_node_id": "0.0-112.0", "trial": 3, "time_elapsed": 671535, "serialpos": 19, "key_press": -1, "wordID": 1056, "type": "PRES_VIS", "trial_index": 148}, "uniqueid": "MTK2316:3L70J4KAZHTUG1KODCKS08G1A2WDAD", "dateTime": 1516986999462}, {"current_trial": 149, "trialdata": {"rt": -1, "trial_type": "single-stim", "word": "basement", "stimulus": "<p id=\"stim\">BASEMENT</p>", "conditions": [24, 1600, "v", 12000], "internal_node_id": "0.0-113.0", "trial": 3, "time_elapsed": 674151, "serialpos": 20, "key_press": -1, "wordID": 93, "type": "PRES_VIS", "trial_index": 149}, "uniqueid": "MTK2316:3L70J4KAZHTUG1KODCKS08G1A2WDAD", "dateTime": 1516987002078}, {"current_trial": 150, "trialdata": {"rt": -1, "trial_type": "single-stim", "word": "napkin", "stimulus": "<p id=\"stim\">NAPKIN</p>", "conditions": [24, 1600, "v", 12000], "internal_node_id": "0.0-114.0", "trial": 3, "time_elapsed": 676604, "serialpos": 21, "key_press": -1, "wordID": 936, "type": "PRES_VIS", "trial_index": 150}, "uniqueid": "MTK2316:3L70J4KAZHTUG1KODCKS08G1A2WDAD", "dateTime": 1516987004531}, {"current_trial": 151, "trialdata": {"rt": -1, "trial_type": "single-stim", "word": "dress", "stimulus": "<p id=\"stim\">DRESS</p>", "conditions": [24, 1600, "v", 12000], "internal_node_id": "0.0-115.0", "trial": 3, "time_elapsed": 679219, "serialpos": 22, "key_press": -1, "wordID": 494, "type": "PRES_VIS", "trial_index": 151}, "uniqueid": "MTK2316:3L70J4KAZHTUG1KODCKS08G1A2WDAD", "dateTime": 1516987007146}, {"current_trial": 152, "trialdata": {"rt": -1, "trial_type": "single-stim", "word": "grave", "stimulus": "<p id=\"stim\">GRAVE</p>", "conditions": [24, 1600, "v", 12000], "internal_node_id": "0.0-116.0", "trial": 3, "time_elapsed": 681641, "serialpos": 23, "key_press": -1, "wordID": 657, "type": "PRES_VIS", "trial_index": 152}, "uniqueid": "MTK2316:3L70J4KAZHTUG1KODCKS08G1A2WDAD", "dateTime": 1516987009568}, {"current_trial": 153, "trialdata": {"rt": -1, "trial_type": "single-stim", "stimulus": "", "internal_node_id": "0.0-117.0-0.0", "time_elapsed": 683674, "key_press": -1, "type": "PRE_RECALL_DELAY", "trial_index": 153}, "uniqueid": "MTK2316:3L70J4KAZHTUG1KODCKS08G1A2WDAD", "dateTime": 1516987011601}, {"current_trial": 154, "trialdata": {"rt": -1000, "trial_type": "single-audio", "stimulus": "/static/audio/400Hz.wav", "internal_node_id": "0.0-118.0", "time_elapsed": 684179, "key_press": -1, "type": "PRE_RECALL_ALERT", "trial_index": 154}, "uniqueid": "MTK2316:3L70J4KAZHTUG1KODCKS08G1A2WDAD", "dateTime": 1516987012106}, {"current_trial": 155, "trialdata": {"rt": [1827, 3256, 4931, 7114, 12321, 15782], "recwords": ["grave", "dress", "fiddle", "harp", "preacher", "harp"], "key_times": [622, 689, 1109, 1173, 1336, 1827, 2255, 2450, 2651, 2908, 3051, 3256, 3861, 3929, 4239, 4366, 4589, 4696, 4931, 5995, 6068, 6593, 6678, 7114, 10825, 10926, 11087, 11342, 11664, 11738, 11886, 12047, 12321, 14447, 14673, 15142, 15179, 15782], "trial_type": "free-recall", "conditions": [24, 1600, "v", 12000], "internal_node_id": "0.0-119.0-0.0", "key_presses": [71, 82, 65, 86, 69, 13, 68, 82, 69, 83, 83, 13, 70, 73, 68, 68, 76, 69, 13, 72, 65, 82, 80, 13, 80, 82, 69, 65, 67, 72, 69, 82, 13, 72, 65, 82, 80, 13], "trial": 3, "time_elapsed": 744184, "type": "FREE_RECALL", "trial_index": 155}, "uniqueid": "MTK2316:3L70J4KAZHTUG1KODCKS08G1A2WDAD", "dateTime": 1516987072118}, {"current_trial": 156, "trialdata": {"rt": 5160, "trial_type": "text", "internal_node_id": "0.0-120.0", "time_elapsed": 751353, "key_press": 32, "type": "INSTRUCTIONS", "trial_index": 156}, "uniqueid": "MTK2316:3L70J4KAZHTUG1KODCKS08G1A2WDAD", "dateTime": 1516987079280}, {"current_trial": 157, "trialdata": {"rt": [3107, 6530, 9627, 11635], "trial_type": "math-distractor", "key_times": [2732, 2800, 3107, 6209, 6301, 6530, 8985, 9134, 9627, 11371, 11512, 11635], "responses": ["19", "16", "24", "20"], "num2": [8, 5, 9, 4, 8], "num3": [4, 5, 5, 8, 1], "conditions": [12, 800, "v", 12000], "internal_node_id": "0.0-121.0", "key_presses": [97, 105, 13, 97, 102, 13, 98, 100, 13, 98, 96, 13], "trial": 4, "time_elapsed": 765364, "type": "DISTRACTOR", "trial_index": 157, "num1": [7, 6, 9, 8, 1]}, "uniqueid": "MTK2316:3L70J4KAZHTUG1KODCKS08G1A2WDAD", "dateTime": 1516987093291}, {"current_trial": 158, "trialdata": {"rt": -1, "trial_type": "single-stim", "stimulus": "<p id=\"stim\">10</p>", "internal_node_id": "0.0-122.0-0.0", "time_elapsed": 768368, "key_press": -1, "trial_index": 158}, "uniqueid": "MTK2316:3L70J4KAZHTUG1KODCKS08G1A2WDAD", "dateTime": 1516987096295}, {"current_trial": 159, "trialdata": {"rt": -1, "trial_type": "single-stim", "stimulus": "<p id=\"stim\">9</p>", "internal_node_id": "0.0-122.0-1.0", "time_elapsed": 769370, "key_press": -1, "trial_index": 159}, "uniqueid": "MTK2316:3L70J4KAZHTUG1KODCKS08G1A2WDAD", "dateTime": 1516987097297}, {"current_trial": 160, "trialdata": {"rt": -1, "trial_type": "single-stim", "stimulus": "<p id=\"stim\">8</p>", "internal_node_id": "0.0-122.0-2.0", "time_elapsed": 770374, "key_press": -1, "trial_index": 160}, "uniqueid": "MTK2316:3L70J4KAZHTUG1KODCKS08G1A2WDAD", "dateTime": 1516987098301}, {"current_trial": 161, "trialdata": {"rt": -1, "trial_type": "single-stim", "stimulus": "<p id=\"stim\">7</p>", "internal_node_id": "0.0-122.0-3.0", "time_elapsed": 771378, "key_press": -1, "trial_index": 161}, "uniqueid": "MTK2316:3L70J4KAZHTUG1KODCKS08G1A2WDAD", "dateTime": 1516987099305}, {"current_trial": 162, "trialdata": {"rt": -1, "trial_type": "single-stim", "stimulus": "<p id=\"stim\">6</p>", "internal_node_id": "0.0-122.0-4.0", "time_elapsed": 772380, "key_press": -1, "trial_index": 162}, "uniqueid": "MTK2316:3L70J4KAZHTUG1KODCKS08G1A2WDAD", "dateTime": 1516987100307}, {"current_trial": 163, "trialdata": {"rt": -1, "trial_type": "single-stim", "stimulus": "<p id=\"stim\">5</p>", "internal_node_id": "0.0-122.0-5.0", "time_elapsed": 773385, "key_press": -1, "trial_index": 163}, "uniqueid": "MTK2316:3L70J4KAZHTUG1KODCKS08G1A2WDAD", "dateTime": 1516987101313}, {"current_trial": 164, "trialdata": {"rt": -1, "trial_type": "single-stim", "stimulus": "<p id=\"stim\">4</p>", "internal_node_id": "0.0-122.0-6.0", "time_elapsed": 774388, "key_press": -1, "trial_index": 164}, "uniqueid": "MTK2316:3L70J4KAZHTUG1KODCKS08G1A2WDAD", "dateTime": 1516987102315}, {"current_trial": 165, "trialdata": {"rt": -1, "trial_type": "single-stim", "stimulus": "<p id=\"stim\">3</p>", "internal_node_id": "0.0-122.0-7.0", "time_elapsed": 775392, "key_press": -1, "trial_index": 165}, "uniqueid": "MTK2316:3L70J4KAZHTUG1KODCKS08G1A2WDAD", "dateTime": 1516987103319}, {"current_trial": 166, "trialdata": {"rt": -1, "trial_type": "single-stim", "stimulus": "<p id=\"stim\">2</p>", "internal_node_id": "0.0-122.0-8.0", "time_elapsed": 776396, "key_press": -1, "trial_index": 166}, "uniqueid": "MTK2316:3L70J4KAZHTUG1KODCKS08G1A2WDAD", "dateTime": 1516987104324}, {"current_trial": 167, "trialdata": {"rt": -1, "trial_type": "single-stim", "stimulus": "<p id=\"stim\">1</p>", "internal_node_id": "0.0-122.0-9.0", "time_elapsed": 777401, "key_press": -1, "trial_index": 167}, "uniqueid": "MTK2316:3L70J4KAZHTUG1KODCKS08G1A2WDAD", "dateTime": 1516987105328}, {"current_trial": 168, "trialdata": {"rt": -1, "trial_type": "single-stim", "stimulus": "<p id=\"stim\">+</p>", "internal_node_id": "0.0-123.0-0.0", "time_elapsed": 778902, "key_press": -1, "type": "FIXATION", "trial_index": 168}, "uniqueid": "MTK2316:3L70J4KAZHTUG1KODCKS08G1A2WDAD", "dateTime": 1516987106830}, {"current_trial": 169, "trialdata": {"rt": -1, "trial_type": "single-stim", "word": "pastry", "stimulus": "<p id=\"stim\">PASTRY</p>", "conditions": [12, 800, "v", 12000], "internal_node_id": "0.0-124.0", "trial": 4, "time_elapsed": 779704, "serialpos": 0, "key_press": -1, "wordID": 1021, "type": "PRES_VIS", "trial_index": 169}, "uniqueid": "MTK2316:3L70J4KAZHTUG1KODCKS08G1A2WDAD", "dateTime": 1516987107632}, {"current_trial": 170, "trialdata": {"rt": -1, "trial_type": "single-stim", "word": "jelly", "stimulus": "<p id=\"stim\">JELLY</p>", "conditions": [12, 800, "v", 12000], "internal_node_id": "0.0-125.0", "trial": 4, "time_elapsed": 781364, "serialpos": 1, "key_press": -1, "wordID": 754, "type": "PRES_VIS", "trial_index": 170}, "uniqueid": "MTK2316:3L70J4KAZHTUG1KODCKS08G1A2WDAD", "dateTime": 1516987109291}, {"current_trial": 171, "trialdata": {"rt": -1, "trial_type": "single-stim", "word": "tweezers", "stimulus": "<p id=\"stim\">TWEEZERS</p>", "conditions": [12, 800, "v", 12000], "internal_node_id": "0.0-126.0", "trial": 4, "time_elapsed": 783344, "serialpos": 2, "key_press": -1, "wordID": 1525, "type": "PRES_VIS", "trial_index": 171}, "uniqueid": "MTK2316:3L70J4KAZHTUG1KODCKS08G1A2WDAD", "dateTime": 1516987111271}, {"current_trial": 172, "trialdata": {"rt": -1, "trial_type": "single-stim", "word": "gavel", "stimulus": "<p id=\"stim\">GAVEL</p>", "conditions": [12, 800, "v", 12000], "internal_node_id": "0.0-127.0", "trial": 4, "time_elapsed": 785292, "serialpos": 3, "key_press": -1, "wordID": 626, "type": "PRES_VIS", "trial_index": 172}, "uniqueid": "MTK2316:3L70J4KAZHTUG1KODCKS08G1A2WDAD", "dateTime": 1516987113219}, {"current_trial": 173, "trialdata": {"rt": -1, "trial_type": "single-stim", "word": "girl", "stimulus": "<p id=\"stim\">GIRL</p>", "conditions": [12, 800, "v", 12000], "internal_node_id": "0.0-128.0", "trial": 4, "time_elapsed": 786920, "serialpos": 4, "key_press": -1, "wordID": 636, "type": "PRES_VIS", "trial_index": 173}, "uniqueid": "MTK2316:3L70J4KAZHTUG1KODCKS08G1A2WDAD", "dateTime": 1516987114849}, {"current_trial": 174, "trialdata": {"rt": -1, "trial_type": "single-stim", "word": "sunrise", "stimulus": "<p id=\"stim\">SUNRISE</p>", "conditions": [12, 800, "v", 12000], "internal_node_id": "0.0-129.0", "trial": 4, "time_elapsed": 788664, "serialpos": 5, "key_press": -1, "wordID": 1406, "type": "PRES_VIS", "trial_index": 174}, "uniqueid": "MTK2316:3L70J4KAZHTUG1KODCKS08G1A2WDAD", "dateTime": 1516987116591}, {"current_trial": 175, "trialdata": {"rt": -1, "trial_type": "single-stim", "word": "trout", "stimulus": "<p id=\"stim\">TROUT</p>", "conditions": [12, 800, "v", 12000], "internal_node_id": "0.0-130.0", "trial": 4, "time_elapsed": 790576, "serialpos": 6, "key_press": -1, "wordID": 1510, "type": "PRES_VIS", "trial_index": 175}, "uniqueid": "MTK2316:3L70J4KAZHTUG1KODCKS08G1A2WDAD", "dateTime": 1516987118503}, {"current_trial": 176, "trialdata": {"rt": -1, "trial_type": "single-stim", "word": "poison", "stimulus": "<p id=\"stim\">POISON</p>", "conditions": [12, 800, "v", 12000], "internal_node_id": "0.0-131.0", "trial": 4, "time_elapsed": 792426, "serialpos": 7, "key_press": -1, "wordID": 1095, "type": "PRES_VIS", "trial_index": 176}, "uniqueid": "MTK2316:3L70J4KAZHTUG1KODCKS08G1A2WDAD", "dateTime": 1516987120353}, {"current_trial": 177, "trialdata": {"rt": -1, "trial_type": "single-stim", "word": "victim", "stimulus": "<p id=\"stim\">VICTIM</p>", "conditions": [12, 800, "v", 12000], "internal_node_id": "0.0-132.0", "trial": 4, "time_elapsed": 794241, "serialpos": 8, "key_press": -1, "wordID": 1561, "type": "PRES_VIS", "trial_index": 177}, "uniqueid": "MTK2316:3L70J4KAZHTUG1KODCKS08G1A2WDAD", "dateTime": 1516987122169}, {"current_trial": 178, "trialdata": {"rt": -1, "trial_type": "single-stim", "word": "suspect", "stimulus": "<p id=\"stim\">SUSPECT</p>", "conditions": [12, 800, "v", 12000], "internal_node_id": "0.0-133.0", "trial": 4, "time_elapsed": 795996, "serialpos": 9, "key_press": -1, "wordID": 1414, "type": "PRES_VIS", "trial_index": 178}, "uniqueid": "MTK2316:3L70J4KAZHTUG1KODCKS08G1A2WDAD", "dateTime": 1516987123923}, {"current_trial": 179, "trialdata": {"rt": -1, "trial_type": "single-stim", "word": "sunset", "stimulus": "<p id=\"stim\">SUNSET</p>", "conditions": [12, 800, "v", 12000], "internal_node_id": "0.0-134.0", "trial": 4, "time_elapsed": 797760, "serialpos": 10, "key_press": -1, "wordID": 1407, "type": "PRES_VIS", "trial_index": 179}, "uniqueid": "MTK2316:3L70J4KAZHTUG1KODCKS08G1A2WDAD", "dateTime": 1516987125687}, {"current_trial": 180, "trialdata": {"rt": -1, "trial_type": "single-stim", "word": "eagle", "stimulus": "<p id=\"stim\">EAGLE</p>", "conditions": [12, 800, "v", 12000], "internal_node_id": "0.0-135.0", "trial": 4, "time_elapsed": 799528, "serialpos": 11, "key_press": -1, "wordID": 511, "type": "PRES_VIS", "trial_index": 180}, "uniqueid": "MTK2316:3L70J4KAZHTUG1KODCKS08G1A2WDAD", "dateTime": 1516987127455}, {"current_trial": 181, "trialdata": {"rt": -1, "trial_type": "single-stim", "stimulus": "", "internal_node_id": "0.0-136.0-0.0", "time_elapsed": 802048, "key_press": -1, "type": "PRE_RECALL_DELAY", "trial_index": 181}, "uniqueid": "MTK2316:3L70J4KAZHTUG1KODCKS08G1A2WDAD", "dateTime": 1516987129975}, {"current_trial": 182, "trialdata": {"rt": -1000, "trial_type": "single-audio", "stimulus": "/static/audio/400Hz.wav", "internal_node_id": "0.0-137.0", "time_elapsed": 802553, "key_press": -1, "type": "PRE_RECALL_ALERT", "trial_index": 182}, "uniqueid": "MTK2316:3L70J4KAZHTUG1KODCKS08G1A2WDAD", "dateTime": 1516987130480}, {"current_trial": 183, "trialdata": {"rt": [11669, 13650, 24151, 36496], "recwords": ["suspect", "eagle", "sunset", "eagle"], "key_times": [7660, 9882, 10218, 10281, 10485, 10731, 10945, 11669, 12303, 12527, 12741, 13191, 13274, 13650, 21690, 21756, 22288, 22462, 22693, 23468, 24151, 34829, 35110, 35164, 35599, 35693, 36496], "trial_type": "free-recall", "conditions": [12, 800, "v", 12000], "internal_node_id": "0.0-138.0-0.0", "key_presses": [83, 85, 83, 80, 69, 67, 84, 13, 69, 65, 71, 76, 69, 13, 83, 85, 78, 83, 69, 84, 13, 69, 65, 71, 76, 69, 13], "trial": 4, "time_elapsed": 862557, "type": "FREE_RECALL", "trial_index": 183}, "uniqueid": "MTK2316:3L70J4KAZHTUG1KODCKS08G1A2WDAD", "dateTime": 1516987190490}, {"current_trial": 184, "trialdata": {"rt": 2061, "trial_type": "text", "internal_node_id": "0.0-139.0", "time_elapsed": 866630, "key_press": 32, "type": "INSTRUCTIONS", "trial_index": 184}, "uniqueid": "MTK2316:3L70J4KAZHTUG1KODCKS08G1A2WDAD", "dateTime": 1516987194557}, {"current_trial": 185, "trialdata": {"rt": [1776, 3713, 7638, 9542, 12008, 13684, 15303, 16957, 19632, 23691], "trial_type": "math-distractor", "key_times": [1502, 1573, 1776, 3462, 3523, 3713, 7354, 7450, 7638, 9236, 9345, 9542, 11675, 11790, 12008, 13424, 13540, 13684, 14973, 15061, 15303, 16713, 16761, 16957, 18877, 19020, 19632, 23374, 23500, 23691], "responses": ["12", "13", "13", "18", "22", "20", "12", "15", "13", "24"], "num2": [1, 2, 4, 7, 4, 9, 5, 7, 8, 9, 6], "num3": [2, 8, 5, 9, 9, 1, 2, 5, 3, 7, 6], "conditions": [24, 1600, "v", 24000], "internal_node_id": "0.0-140.0", "key_presses": [97, 98, 13, 97, 99, 13, 97, 99, 13, 97, 104, 13, 98, 98, 13, 98, 96, 13, 97, 98, 13, 97, 101, 13, 97, 99, 13, 98, 100, 13], "trial": 5, "time_elapsed": 892636, "type": "DISTRACTOR", "trial_index": 185, "num1": [9, 3, 4, 2, 9, 9, 5, 3, 2, 8, 9]}, "uniqueid": "MTK2316:3L70J4KAZHTUG1KODCKS08G1A2WDAD", "dateTime": 1516987220564}, {"current_trial": 186, "trialdata": {"rt": -1, "trial_type": "single-stim", "stimulus": "<p id=\"stim\">10</p>", "internal_node_id": "0.0-141.0-0.0", "time_elapsed": 895644, "key_press": -1, "trial_index": 186}, "uniqueid": "MTK2316:3L70J4KAZHTUG1KODCKS08G1A2WDAD", "dateTime": 1516987223571}, {"current_trial": 187, "trialdata": {"rt": -1, "trial_type": "single-stim", "stimulus": "<p id=\"stim\">9</p>", "internal_node_id": "0.0-141.0-1.0", "time_elapsed": 896647, "key_press": -1, "trial_index": 187}, "uniqueid": "MTK2316:3L70J4KAZHTUG1KODCKS08G1A2WDAD", "dateTime": 1516987224574}, {"current_trial": 188, "trialdata": {"rt": -1, "trial_type": "single-stim", "stimulus": "<p id=\"stim\">8</p>", "internal_node_id": "0.0-141.0-2.0", "time_elapsed": 897651, "key_press": -1, "trial_index": 188}, "uniqueid": "MTK2316:3L70J4KAZHTUG1KODCKS08G1A2WDAD", "dateTime": 1516987225578}, {"current_trial": 189, "trialdata": {"rt": -1, "trial_type": "single-stim", "stimulus": "<p id=\"stim\">7</p>", "internal_node_id": "0.0-141.0-3.0", "time_elapsed": 898655, "key_press": -1, "trial_index": 189}, "uniqueid": "MTK2316:3L70J4KAZHTUG1KODCKS08G1A2WDAD", "dateTime": 1516987226582}, {"current_trial": 190, "trialdata": {"rt": -1, "trial_type": "single-stim", "stimulus": "<p id=\"stim\">6</p>", "internal_node_id": "0.0-141.0-4.0", "time_elapsed": 899657, "key_press": -1, "trial_index": 190}, "uniqueid": "MTK2316:3L70J4KAZHTUG1KODCKS08G1A2WDAD", "dateTime": 1516987227584}, {"current_trial": 191, "trialdata": {"rt": -1, "trial_type": "single-stim", "stimulus": "<p id=\"stim\">5</p>", "internal_node_id": "0.0-141.0-5.0", "time_elapsed": 900659, "key_press": -1, "trial_index": 191}, "uniqueid": "MTK2316:3L70J4KAZHTUG1KODCKS08G1A2WDAD", "dateTime": 1516987228586}, {"current_trial": 192, "trialdata": {"rt": -1, "trial_type": "single-stim", "stimulus": "<p id=\"stim\">4</p>", "internal_node_id": "0.0-141.0-6.0", "time_elapsed": 901663, "key_press": -1, "trial_index": 192}, "uniqueid": "MTK2316:3L70J4KAZHTUG1KODCKS08G1A2WDAD", "dateTime": 1516987229591}, {"current_trial": 193, "trialdata": {"rt": -1, "trial_type": "single-stim", "stimulus": "<p id=\"stim\">3</p>", "internal_node_id": "0.0-141.0-7.0", "time_elapsed": 902666, "key_press": -1, "trial_index": 193}, "uniqueid": "MTK2316:3L70J4KAZHTUG1KODCKS08G1A2WDAD", "dateTime": 1516987230593}, {"current_trial": 194, "trialdata": {"rt": -1, "trial_type": "single-stim", "stimulus": "<p id=\"stim\">2</p>", "internal_node_id": "0.0-141.0-8.0", "time_elapsed": 903671, "key_press": -1, "trial_index": 194}, "uniqueid": "MTK2316:3L70J4KAZHTUG1KODCKS08G1A2WDAD", "dateTime": 1516987231598}, {"current_trial": 195, "trialdata": {"rt": -1, "trial_type": "single-stim", "stimulus": "<p id=\"stim\">1</p>", "internal_node_id": "0.0-141.0-9.0", "time_elapsed": 904676, "key_press": -1, "trial_index": 195}, "uniqueid": "MTK2316:3L70J4KAZHTUG1KODCKS08G1A2WDAD", "dateTime": 1516987232603}, {"current_trial": 196, "trialdata": {"rt": -1, "trial_type": "single-stim", "stimulus": "<p id=\"stim\">+</p>", "internal_node_id": "0.0-142.0-0.0", "time_elapsed": 906180, "key_press": -1, "type": "FIXATION", "trial_index": 196}, "uniqueid": "MTK2316:3L70J4KAZHTUG1KODCKS08G1A2WDAD", "dateTime": 1516987234107}, {"current_trial": 197, "trialdata": {"rt": -1, "trial_type": "single-stim", "word": "waiter", "stimulus": "<p id=\"stim\">WAITER</p>", "conditions": [24, 1600, "v", 24000], "internal_node_id": "0.0-143.0", "trial": 5, "time_elapsed": 907784, "serialpos": 0, "key_press": -1, "wordID": 1579, "type": "PRES_VIS", "trial_index": 197}, "uniqueid": "MTK2316:3L70J4KAZHTUG1KODCKS08G1A2WDAD", "dateTime": 1516987235711}, {"current_trial": 198, "trialdata": {"rt": -1, "trial_type": "single-stim", "word": "drawing", "stimulus": "<p id=\"stim\">DRAWING</p>", "conditions": [24, 1600, "v", 24000], "internal_node_id": "0.0-144.0", "trial": 5, "time_elapsed": 910398, "serialpos": 1, "key_press": -1, "wordID": 493, "type": "PRES_VIS", "trial_index": 198}, "uniqueid": "MTK2316:3L70J4KAZHTUG1KODCKS08G1A2WDAD", "dateTime": 1516987238325}, {"current_trial": 199, "trialdata": {"rt": -1, "trial_type": "single-stim", "word": "rocket", "stimulus": "<p id=\"stim\">ROCKET</p>", "conditions": [24, 1600, "v", 24000], "internal_node_id": "0.0-145.0", "trial": 5, "time_elapsed": 913126, "serialpos": 2, "key_press": -1, "wordID": 1201, "type": "PRES_VIS", "trial_index": 199}, "uniqueid": "MTK2316:3L70J4KAZHTUG1KODCKS08G1A2WDAD", "dateTime": 1516987241054}, {"current_trial": 200, "trialdata": {"rt": -1, "trial_type": "single-stim", "word": "bucket", "stimulus": "<p id=\"stim\">BUCKET</p>", "conditions": [24, 1600, "v", 24000], "internal_node_id": "0.0-146.0", "trial": 5, "time_elapsed": 915769, "serialpos": 3, "key_press": -1, "wordID": 183, "type": "PRES_VIS", "trial_index": 200}, "uniqueid": "MTK2316:3L70J4KAZHTUG1KODCKS08G1A2WDAD", "dateTime": 1516987243696}, {"current_trial": 201, "trialdata": {"rt": -1, "trial_type": "single-stim", "word": "diner", "stimulus": "<p id=\"stim\">DINER</p>", "conditions": [24, 1600, "v", 24000], "internal_node_id": "0.0-147.0", "trial": 5, "time_elapsed": 918181, "serialpos": 4, "key_press": -1, "wordID": 466, "type": "PRES_VIS", "trial_index": 201}, "uniqueid": "MTK2316:3L70J4KAZHTUG1KODCKS08G1A2WDAD", "dateTime": 1516987246108}, {"current_trial": 202, "trialdata": {"rt": -1, "trial_type": "single-stim", "word": "pimple", "stimulus": "<p id=\"stim\">PIMPLE</p>", "conditions": [24, 1600, "v", 24000], "internal_node_id": "0.0-148.0", "trial": 5, "time_elapsed": 920867, "serialpos": 5, "key_press": -1, "wordID": 1070, "type": "PRES_VIS", "trial_index": 202}, "uniqueid": "MTK2316:3L70J4KAZHTUG1KODCKS08G1A2WDAD", "dateTime": 1516987248794}, {"current_trial": 203, "trialdata": {"rt": -1, "trial_type": "single-stim", "word": "sticker", "stimulus": "<p id=\"stim\">STICKER</p>", "conditions": [24, 1600, "v", 24000], "internal_node_id": "0.0-149.0", "trial": 5, "time_elapsed": 923385, "serialpos": 6, "key_press": -1, "wordID": 1381, "type": "PRES_VIS", "trial_index": 203}, "uniqueid": "MTK2316:3L70J4KAZHTUG1KODCKS08G1A2WDAD", "dateTime": 1516987251313}, {"current_trial": 204, "trialdata": {"rt": -1, "trial_type": "single-stim", "word": "apron", "stimulus": "<p id=\"stim\">APRON</p>", "conditions": [24, 1600, "v", 24000], "internal_node_id": "0.0-150.0", "trial": 5, "time_elapsed": 926010, "serialpos": 7, "key_press": -1, "wordID": 34, "type": "PRES_VIS", "trial_index": 204}, "uniqueid": "MTK2316:3L70J4KAZHTUG1KODCKS08G1A2WDAD", "dateTime": 1516987253937}, {"current_trial": 205, "trialdata": {"rt": -1, "trial_type": "single-stim", "word": "lodge", "stimulus": "<p id=\"stim\">LODGE</p>", "conditions": [24, 1600, "v", 24000], "internal_node_id": "0.0-151.0", "trial": 5, "time_elapsed": 928565, "serialpos": 8, "key_press": -1, "wordID": 838, "type": "PRES_VIS", "trial_index": 205}, "uniqueid": "MTK2316:3L70J4KAZHTUG1KODCKS08G1A2WDAD", "dateTime": 1516987256492}, {"current_trial": 206, "trialdata": {"rt": -1, "trial_type": "single-stim", "word": "japan", "stimulus": "<p id=\"stim\">JAPAN</p>", "conditions": [24, 1600, "v", 24000], "internal_node_id": "0.0-152.0", "trial": 5, "time_elapsed": 931203, "serialpos": 9, "key_press": -1, "wordID": 748, "type": "PRES_VIS", "trial_index": 206}, "uniqueid": "MTK2316:3L70J4KAZHTUG1KODCKS08G1A2WDAD", "dateTime": 1516987259130}, {"current_trial": 207, "trialdata": {"rt": -1, "trial_type": "single-stim", "word": "asia", "stimulus": "<p id=\"stim\">ASIA</p>", "conditions": [24, 1600, "v", 24000], "internal_node_id": "0.0-153.0", "trial": 5, "time_elapsed": 933976, "serialpos": 10, "key_press": -1, "wordID": 45, "type": "PRES_VIS", "trial_index": 207}, "uniqueid": "MTK2316:3L70J4KAZHTUG1KODCKS08G1A2WDAD", "dateTime": 1516987261903}, {"current_trial": 208, "trialdata": {"rt": -1, "trial_type": "single-stim", "word": "crayon", "stimulus": "<p id=\"stim\">CRAYON</p>", "conditions": [24, 1600, "v", 24000], "internal_node_id": "0.0-154.0", "trial": 5, "time_elapsed": 936679, "serialpos": 11, "key_press": -1, "wordID": 400, "type": "PRES_VIS", "trial_index": 208}, "uniqueid": "MTK2316:3L70J4KAZHTUG1KODCKS08G1A2WDAD", "dateTime": 1516987264606}, {"current_trial": 209, "trialdata": {"rt": -1, "trial_type": "single-stim", "word": "critic", "stimulus": "<p id=\"stim\">CRITIC</p>", "conditions": [24, 1600, "v", 24000], "internal_node_id": "0.0-155.0", "trial": 5, "time_elapsed": 939171, "serialpos": 12, "key_press": -1, "wordID": 409, "type": "PRES_VIS", "trial_index": 209}, "uniqueid": "MTK2316:3L70J4KAZHTUG1KODCKS08G1A2WDAD", "dateTime": 1516987267099}, {"current_trial": 210, "trialdata": {"rt": -1, "trial_type": "single-stim", "word": "skillet", "stimulus": "<p id=\"stim\">SKILLET</p>", "conditions": [24, 1600, "v", 24000], "internal_node_id": "0.0-156.0", "trial": 5, "time_elapsed": 941793, "serialpos": 13, "key_press": -1, "wordID": 1316, "type": "PRES_VIS", "trial_index": 210}, "uniqueid": "MTK2316:3L70J4KAZHTUG1KODCKS08G1A2WDAD", "dateTime": 1516987269720}, {"current_trial": 211, "trialdata": {"rt": -1, "trial_type": "single-stim", "word": "truck", "stimulus": "<p id=\"stim\">TRUCK</p>", "conditions": [24, 1600, "v", 24000], "internal_node_id": "0.0-157.0", "trial": 5, "time_elapsed": 944421, "serialpos": 14, "key_press": -1, "wordID": 1511, "type": "PRES_VIS", "trial_index": 211}, "uniqueid": "MTK2316:3L70J4KAZHTUG1KODCKS08G1A2WDAD", "dateTime": 1516987272348}, {"current_trial": 212, "trialdata": {"rt": -1, "trial_type": "single-stim", "word": "marsh", "stimulus": "<p id=\"stim\">MARSH</p>", "conditions": [24, 1600, "v", 24000], "internal_node_id": "0.0-158.0", "trial": 5, "time_elapsed": 946837, "serialpos": 15, "key_press": -1, "wordID": 873, "type": "PRES_VIS", "trial_index": 212}, "uniqueid": "MTK2316:3L70J4KAZHTUG1KODCKS08G1A2WDAD", "dateTime": 1516987274764}, {"current_trial": 213, "trialdata": {"rt": -1, "trial_type": "single-stim", "word": "igloo", "stimulus": "<p id=\"stim\">IGLOO</p>", "conditions": [24, 1600, "v", 24000], "internal_node_id": "0.0-159.0", "trial": 5, "time_elapsed": 949540, "serialpos": 16, "key_press": -1, "wordID": 733, "type": "PRES_VIS", "trial_index": 213}, "uniqueid": "MTK2316:3L70J4KAZHTUG1KODCKS08G1A2WDAD", "dateTime": 1516987277467}, {"current_trial": 214, "trialdata": {"rt": -1, "trial_type": "single-stim", "word": "mister", "stimulus": "<p id=\"stim\">MISTER</p>", "conditions": [24, 1600, "v", 24000], "internal_node_id": "0.0-160.0", "trial": 5, "time_elapsed": 952155, "serialpos": 17, "key_press": -1, "wordID": 900, "type": "PRES_VIS", "trial_index": 214}, "uniqueid": "MTK2316:3L70J4KAZHTUG1KODCKS08G1A2WDAD", "dateTime": 1516987280082}, {"current_trial": 215, "trialdata": {"rt": -1, "trial_type": "single-stim", "word": "kleenex", "stimulus": "<p id=\"stim\">KLEENEX</p>", "conditions": [24, 1600, "v", 24000], "internal_node_id": "0.0-161.0", "trial": 5, "time_elapsed": 954679, "serialpos": 18, "key_press": -1, "wordID": 781, "type": "PRES_VIS", "trial_index": 215}, "uniqueid": "MTK2316:3L70J4KAZHTUG1KODCKS08G1A2WDAD", "dateTime": 1516987282607}, {"current_trial": 216, "trialdata": {"rt": -1, "trial_type": "single-stim", "word": "spouse", "stimulus": "<p id=\"stim\">SPOUSE</p>", "conditions": [24, 1600, "v", 24000], "internal_node_id": "0.0-162.0", "trial": 5, "time_elapsed": 957107, "serialpos": 19, "key_press": -1, "wordID": 1357, "type": "PRES_VIS", "trial_index": 216}, "uniqueid": "MTK2316:3L70J4KAZHTUG1KODCKS08G1A2WDAD", "dateTime": 1516987285035}, {"current_trial": 217, "trialdata": {"rt": -1, "trial_type": "single-stim", "word": "husband", "stimulus": "<p id=\"stim\">HUSBAND</p>", "conditions": [24, 1600, "v", 24000], "internal_node_id": "0.0-163.0", "trial": 5, "time_elapsed": 959755, "serialpos": 20, "key_press": -1, "wordID": 727, "type": "PRES_VIS", "trial_index": 217}, "uniqueid": "MTK2316:3L70J4KAZHTUG1KODCKS08G1A2WDAD", "dateTime": 1516987287682}, {"current_trial": 218, "trialdata": {"rt": -1, "trial_type": "single-stim", "word": "film", "stimulus": "<p id=\"stim\">FILM</p>", "conditions": [24, 1600, "v", 24000], "internal_node_id": "0.0-164.0", "trial": 5, "time_elapsed": 962489, "serialpos": 21, "key_press": -1, "wordID": 564, "type": "PRES_VIS", "trial_index": 218}, "uniqueid": "MTK2316:3L70J4KAZHTUG1KODCKS08G1A2WDAD", "dateTime": 1516987290416}, {"current_trial": 219, "trialdata": {"rt": -1, "trial_type": "single-stim", "word": "playground", "stimulus": "<p id=\"stim\">PLAYGROUND</p>", "conditions": [24, 1600, "v", 24000], "internal_node_id": "0.0-165.0", "trial": 5, "time_elapsed": 965291, "serialpos": 22, "key_press": -1, "wordID": 1086, "type": "PRES_VIS", "trial_index": 219}, "uniqueid": "MTK2316:3L70J4KAZHTUG1KODCKS08G1A2WDAD", "dateTime": 1516987293218}, {"current_trial": 220, "trialdata": {"rt": -1, "trial_type": "single-stim", "word": "driver", "stimulus": "<p id=\"stim\">DRIVER</p>", "conditions": [24, 1600, "v", 24000], "internal_node_id": "0.0-166.0", "trial": 5, "time_elapsed": 967781, "serialpos": 23, "key_press": -1, "wordID": 498, "type": "PRES_VIS", "trial_index": 220}, "uniqueid": "MTK2316:3L70J4KAZHTUG1KODCKS08G1A2WDAD", "dateTime": 1516987295708}, {"current_trial": 221, "trialdata": {"rt": -1, "trial_type": "single-stim", "stimulus": "", "internal_node_id": "0.0-167.0-0.0", "time_elapsed": 969995, "key_press": -1, "type": "PRE_RECALL_DELAY", "trial_index": 221}, "uniqueid": "MTK2316:3L70J4KAZHTUG1KODCKS08G1A2WDAD", "dateTime": 1516987297922}, {"current_trial": 222, "trialdata": {"rt": -1000, "trial_type": "single-audio", "stimulus": "/static/audio/400Hz.wav", "internal_node_id": "0.0-168.0", "time_elapsed": 970500, "key_press": -1, "type": "PRE_RECALL_ALERT", "trial_index": 222}, "uniqueid": "MTK2316:3L70J4KAZHTUG1KODCKS08G1A2WDAD", "dateTime": 1516987298427}, {"current_trial": 223, "trialdata": {"rt": [3050, 6545, 11741, 14162, 20709, 27277, 30779], "recwords": ["playground", "driver", "japan", "asia", "crayon", "waiter", "drawing"], "key_times": [1078, 1197, 1501, 1525, 2046, 2214, 2439, 2646, 2802, 2968, 3050, 4907, 5091, 5267, 5647, 5851, 6004, 6545, 10486, 10554, 10677, 11037, 11093, 11741, 13032, 13219, 13450, 13509, 14162, 19073, 19265, 19530, 19588, 19934, 20111, 20709, 25158, 25368, 25425, 25777, 26124, 26850, 26989, 27151, 27277, 28764, 28946, 29378, 29831, 29918, 30030, 30200, 30779], "trial_type": "free-recall", "conditions": [24, 1600, "v", 24000], "internal_node_id": "0.0-169.0-0.0", "key_presses": [80, 76, 65, 89, 71, 82, 79, 85, 78, 68, 32, 68, 82, 73, 86, 69, 82, 13, 74, 65, 80, 65, 78, 13, 65, 83, 73, 65, 13, 67, 82, 65, 89, 79, 78, 13, 87, 65, 73, 84, 82, 8, 69, 82, 13, 68, 82, 65, 87, 73, 78, 71, 13], "trial": 5, "time_elapsed": 1030504, "type": "FREE_RECALL", "trial_index": 223}, "uniqueid": "MTK2316:3L70J4KAZHTUG1KODCKS08G1A2WDAD", "dateTime": 1516987358439}, {"current_trial": 224, "trialdata": {"rt": 2619, "trial_type": "text", "internal_node_id": "0.0-170.0", "time_elapsed": 1035136, "key_press": 32, "type": "INSTRUCTIONS", "trial_index": 224}, "uniqueid": "MTK2316:3L70J4KAZHTUG1KODCKS08G1A2WDAD", "dateTime": 1516987363063}, {"current_trial": 225, "trialdata": {"rt": [2738, 4580, 6532, 8597, 11835, 13544, 16307, 18801, 20686, 23170], "trial_type": "math-distractor", "key_times": [2395, 2465, 2738, 4200, 4310, 4580, 6278, 6386, 6532, 8064, 8148, 8597, 11507, 11583, 11835, 13300, 13418, 13544, 16043, 16121, 16307, 18488, 18604, 18801, 20366, 20463, 20686, 22496, 22611, 23170], "responses": ["23", "18", "21", "13", "21", "10", "18", "12", "21", "15"], "num2": [9, 8, 9, 6, 9, 2, 4, 1, 3, 4, 2], "num3": [5, 3, 9, 4, 8, 1, 8, 3, 9, 6, 2], "conditions": [24, 1600, "v", 24000], "internal_node_id": "0.0-171.0", "key_presses": [98, 99, 13, 97, 104, 13, 98, 97, 13, 97, 99, 13, 98, 97, 13, 97, 96, 13, 97, 104, 13, 97, 98, 13, 98, 97, 13, 97, 101, 13], "trial": 6, "time_elapsed": 1061141, "type": "DISTRACTOR", "trial_index": 225, "num1": [9, 7, 3, 3, 4, 7, 6, 8, 9, 5, 7]}, "uniqueid": "MTK2316:3L70J4KAZHTUG1KODCKS08G1A2WDAD", "dateTime": 1516987389068}, {"current_trial": 226, "trialdata": {"rt": -1, "trial_type": "single-stim", "stimulus": "<p id=\"stim\">10</p>", "internal_node_id": "0.0-172.0-0.0", "time_elapsed": 1064147, "key_press": -1, "trial_index": 226}, "uniqueid": "MTK2316:3L70J4KAZHTUG1KODCKS08G1A2WDAD", "dateTime": 1516987392074}, {"current_trial": 227, "trialdata": {"rt": -1, "trial_type": "single-stim", "stimulus": "<p id=\"stim\">9</p>", "internal_node_id": "0.0-172.0-1.0", "time_elapsed": 1065152, "key_press": -1, "trial_index": 227}, "uniqueid": "MTK2316:3L70J4KAZHTUG1KODCKS08G1A2WDAD", "dateTime": 1516987393080}, {"current_trial": 228, "trialdata": {"rt": -1, "trial_type": "single-stim", "stimulus": "<p id=\"stim\">8</p>", "internal_node_id": "0.0-172.0-2.0", "time_elapsed": 1066157, "key_press": -1, "trial_index": 228}, "uniqueid": "MTK2316:3L70J4KAZHTUG1KODCKS08G1A2WDAD", "dateTime": 1516987394085}, {"current_trial": 229, "trialdata": {"rt": -1, "trial_type": "single-stim", "stimulus": "<p id=\"stim\">7</p>", "internal_node_id": "0.0-172.0-3.0", "time_elapsed": 1067159, "key_press": -1, "trial_index": 229}, "uniqueid": "MTK2316:3L70J4KAZHTUG1KODCKS08G1A2WDAD", "dateTime": 1516987395086}, {"current_trial": 230, "trialdata": {"rt": -1, "trial_type": "single-stim", "stimulus": "<p id=\"stim\">6</p>", "internal_node_id": "0.0-172.0-4.0", "time_elapsed": 1068163, "key_press": -1, "trial_index": 230}, "uniqueid": "MTK2316:3L70J4KAZHTUG1KODCKS08G1A2WDAD", "dateTime": 1516987396090}, {"current_trial": 231, "trialdata": {"rt": -1, "trial_type": "single-stim", "stimulus": "<p id=\"stim\">5</p>", "internal_node_id": "0.0-172.0-5.0", "time_elapsed": 1069167, "key_press": -1, "trial_index": 231}, "uniqueid": "MTK2316:3L70J4KAZHTUG1KODCKS08G1A2WDAD", "dateTime": 1516987397094}, {"current_trial": 232, "trialdata": {"rt": -1, "trial_type": "single-stim", "stimulus": "<p id=\"stim\">4</p>", "internal_node_id": "0.0-172.0-6.0", "time_elapsed": 1070168, "key_press": -1, "trial_index": 232}, "uniqueid": "MTK2316:3L70J4KAZHTUG1KODCKS08G1A2WDAD", "dateTime": 1516987398096}, {"current_trial": 233, "trialdata": {"rt": -1, "trial_type": "single-stim", "stimulus": "<p id=\"stim\">3</p>", "internal_node_id": "0.0-172.0-7.0", "time_elapsed": 1071170, "key_press": -1, "trial_index": 233}, "uniqueid": "MTK2316:3L70J4KAZHTUG1KODCKS08G1A2WDAD", "dateTime": 1516987399098}, {"current_trial": 234, "trialdata": {"rt": -1, "trial_type": "single-stim", "stimulus": "<p id=\"stim\">2</p>", "internal_node_id": "0.0-172.0-8.0", "time_elapsed": 1072175, "key_press": -1, "trial_index": 234}, "uniqueid": "MTK2316:3L70J4KAZHTUG1KODCKS08G1A2WDAD", "dateTime": 1516987400103}, {"current_trial": 235, "trialdata": {"rt": -1, "trial_type": "single-stim", "stimulus": "<p id=\"stim\">1</p>", "internal_node_id": "0.0-172.0-9.0", "time_elapsed": 1073180, "key_press": -1, "trial_index": 235}, "uniqueid": "MTK2316:3L70J4KAZHTUG1KODCKS08G1A2WDAD", "dateTime": 1516987401107}, {"current_trial": 236, "trialdata": {"rt": -1, "trial_type": "single-stim", "stimulus": "<p id=\"stim\">+</p>", "internal_node_id": "0.0-173.0-0.0", "time_elapsed": 1074682, "key_press": -1, "type": "FIXATION", "trial_index": 236}, "uniqueid": "MTK2316:3L70J4KAZHTUG1KODCKS08G1A2WDAD", "dateTime": 1516987402609}, {"current_trial": 237, "trialdata": {"rt": -1, "trial_type": "single-stim", "word": "clamp", "stimulus": "<p id=\"stim\">CLAMP</p>", "conditions": [24, 1600, "v", 24000], "internal_node_id": "0.0-174.0", "trial": 6, "time_elapsed": 1076285, "serialpos": 0, "key_press": -1, "wordID": 315, "type": "PRES_VIS", "trial_index": 237}, "uniqueid": "MTK2316:3L70J4KAZHTUG1KODCKS08G1A2WDAD", "dateTime": 1516987404212}, {"current_trial": 238, "trialdata": {"rt": -1, "trial_type": "single-stim", "word": "london", "stimulus": "<p id=\"stim\">LONDON</p>", "conditions": [24, 1600, "v", 24000], "internal_node_id": "0.0-175.0", "trial": 6, "time_elapsed": 1078702, "serialpos": 1, "key_press": -1, "wordID": 842, "type": "PRES_VIS", "trial_index": 238}, "uniqueid": "MTK2316:3L70J4KAZHTUG1KODCKS08G1A2WDAD", "dateTime": 1516987406629}, {"current_trial": 239, "trialdata": {"rt": -1, "trial_type": "single-stim", "word": "europe", "stimulus": "<p id=\"stim\">EUROPE</p>", "conditions": [24, 1600, "v", 24000], "internal_node_id": "0.0-176.0", "trial": 6, "time_elapsed": 1081110, "serialpos": 2, "key_press": -1, "wordID": 540, "type": "PRES_VIS", "trial_index": 239}, "uniqueid": "MTK2316:3L70J4KAZHTUG1KODCKS08G1A2WDAD", "dateTime": 1516987409037}, {"current_trial": 240, "trialdata": {"rt": -1, "trial_type": "single-stim", "word": "lunch", "stimulus": "<p id=\"stim\">LUNCH</p>", "conditions": [24, 1600, "v", 24000], "internal_node_id": "0.0-177.0", "trial": 6, "time_elapsed": 1083878, "serialpos": 3, "key_press": -1, "wordID": 848, "type": "PRES_VIS", "trial_index": 240}, "uniqueid": "MTK2316:3L70J4KAZHTUG1KODCKS08G1A2WDAD", "dateTime": 1516987411805}, {"current_trial": 241, "trialdata": {"rt": -1, "trial_type": "single-stim", "word": "gymnast", "stimulus": "<p id=\"stim\">GYMNAST</p>", "conditions": [24, 1600, "v", 24000], "internal_node_id": "0.0-178.0", "trial": 6, "time_elapsed": 1086479, "serialpos": 4, "key_press": -1, "wordID": 674, "type": "PRES_VIS", "trial_index": 241}, "uniqueid": "MTK2316:3L70J4KAZHTUG1KODCKS08G1A2WDAD", "dateTime": 1516987414406}, {"current_trial": 242, "trialdata": {"rt": -1, "trial_type": "single-stim", "word": "heart", "stimulus": "<p id=\"stim\">HEART</p>", "conditions": [24, 1600, "v", 24000], "internal_node_id": "0.0-179.0", "trial": 6, "time_elapsed": 1088905, "serialpos": 5, "key_press": -1, "wordID": 696, "type": "PRES_VIS", "trial_index": 242}, "uniqueid": "MTK2316:3L70J4KAZHTUG1KODCKS08G1A2WDAD", "dateTime": 1516987416832}, {"current_trial": 243, "trialdata": {"rt": -1, "trial_type": "single-stim", "word": "braces", "stimulus": "<p id=\"stim\">BRACES</p>", "conditions": [24, 1600, "v", 24000], "internal_node_id": "0.0-180.0", "trial": 6, "time_elapsed": 1091532, "serialpos": 6, "key_press": -1, "wordID": 163, "type": "PRES_VIS", "trial_index": 243}, "uniqueid": "MTK2316:3L70J4KAZHTUG1KODCKS08G1A2WDAD", "dateTime": 1516987419459}, {"current_trial": 244, "trialdata": {"rt": -1, "trial_type": "single-stim", "word": "scalpel", "stimulus": "<p id=\"stim\">SCALPEL</p>", "conditions": [24, 1600, "v", 24000], "internal_node_id": "0.0-181.0", "trial": 6, "time_elapsed": 1093952, "serialpos": 7, "key_press": -1, "wordID": 1242, "type": "PRES_VIS", "trial_index": 244}, "uniqueid": "MTK2316:3L70J4KAZHTUG1KODCKS08G1A2WDAD", "dateTime": 1516987421880}, {"current_trial": 245, "trialdata": {"rt": -1, "trial_type": "single-stim", "word": "worker", "stimulus": "<p id=\"stim\">WORKER</p>", "conditions": [24, 1600, "v", 24000], "internal_node_id": "0.0-182.0", "trial": 6, "time_elapsed": 1096367, "serialpos": 8, "key_press": -1, "wordID": 1620, "type": "PRES_VIS", "trial_index": 245}, "uniqueid": "MTK2316:3L70J4KAZHTUG1KODCKS08G1A2WDAD", "dateTime": 1516987424295}, {"current_trial": 246, "trialdata": {"rt": -1, "trial_type": "single-stim", "word": "judge", "stimulus": "<p id=\"stim\">JUDGE</p>", "conditions": [24, 1600, "v", 24000], "internal_node_id": "0.0-183.0", "trial": 6, "time_elapsed": 1099074, "serialpos": 9, "key_press": -1, "wordID": 760, "type": "PRES_VIS", "trial_index": 246}, "uniqueid": "MTK2316:3L70J4KAZHTUG1KODCKS08G1A2WDAD", "dateTime": 1516987427001}, {"current_trial": 247, "trialdata": {"rt": -1, "trial_type": "single-stim", "word": "student", "stimulus": "<p id=\"stim\">STUDENT</p>", "conditions": [24, 1600, "v", 24000], "internal_node_id": "0.0-184.0", "trial": 6, "time_elapsed": 1101536, "serialpos": 10, "key_press": -1, "wordID": 1394, "type": "PRES_VIS", "trial_index": 247}, "uniqueid": "MTK2316:3L70J4KAZHTUG1KODCKS08G1A2WDAD", "dateTime": 1516987429463}, {"current_trial": 248, "trialdata": {"rt": -1, "trial_type": "single-stim", "word": "snack", "stimulus": "<p id=\"stim\">SNACK</p>", "conditions": [24, 1600, "v", 24000], "internal_node_id": "0.0-185.0", "trial": 6, "time_elapsed": 1104280, "serialpos": 11, "key_press": -1, "wordID": 1330, "type": "PRES_VIS", "trial_index": 248}, "uniqueid": "MTK2316:3L70J4KAZHTUG1KODCKS08G1A2WDAD", "dateTime": 1516987432207}, {"current_trial": 249, "trialdata": {"rt": -1, "trial_type": "single-stim", "word": "tortoise", "stimulus": "<p id=\"stim\">TORTOISE</p>", "conditions": [24, 1600, "v", 24000], "internal_node_id": "0.0-186.0", "trial": 6, "time_elapsed": 1106704, "serialpos": 12, "key_press": -1, "wordID": 1485, "type": "PRES_VIS", "trial_index": 249}, "uniqueid": "MTK2316:3L70J4KAZHTUG1KODCKS08G1A2WDAD", "dateTime": 1516987434631}, {"current_trial": 250, "trialdata": {"rt": -1, "trial_type": "single-stim", "word": "panther", "stimulus": "<p id=\"stim\">PANTHER</p>", "conditions": [24, 1600, "v", 24000], "internal_node_id": "0.0-187.0", "trial": 6, "time_elapsed": 1109170, "serialpos": 13, "key_press": -1, "wordID": 1008, "type": "PRES_VIS", "trial_index": 250}, "uniqueid": "MTK2316:3L70J4KAZHTUG1KODCKS08G1A2WDAD", "dateTime": 1516987437097}, {"current_trial": 251, "trialdata": {"rt": -1, "trial_type": "single-stim", "word": "supper", "stimulus": "<p id=\"stim\">SUPPER</p>", "conditions": [24, 1600, "v", 24000], "internal_node_id": "0.0-188.0", "trial": 6, "time_elapsed": 1111700, "serialpos": 14, "key_press": -1, "wordID": 1410, "type": "PRES_VIS", "trial_index": 251}, "uniqueid": "MTK2316:3L70J4KAZHTUG1KODCKS08G1A2WDAD", "dateTime": 1516987439627}, {"current_trial": 252, "trialdata": {"rt": -1, "trial_type": "single-stim", "word": "cottage", "stimulus": "<p id=\"stim\">COTTAGE</p>", "conditions": [24, 1600, "v", 24000], "internal_node_id": "0.0-189.0", "trial": 6, "time_elapsed": 1114160, "serialpos": 15, "key_press": -1, "wordID": 383, "type": "PRES_VIS", "trial_index": 252}, "uniqueid": "MTK2316:3L70J4KAZHTUG1KODCKS08G1A2WDAD", "dateTime": 1516987442087}, {"current_trial": 253, "trialdata": {"rt": -1, "trial_type": "single-stim", "word": "cashier", "stimulus": "<p id=\"stim\">CASHIER</p>", "conditions": [24, 1600, "v", 24000], "internal_node_id": "0.0-190.0", "trial": 6, "time_elapsed": 1116953, "serialpos": 16, "key_press": -1, "wordID": 253, "type": "PRES_VIS", "trial_index": 253}, "uniqueid": "MTK2316:3L70J4KAZHTUG1KODCKS08G1A2WDAD", "dateTime": 1516987444882}, {"current_trial": 254, "trialdata": {"rt": -1, "trial_type": "single-stim", "word": "leg", "stimulus": "<p id=\"stim\">LEG</p>", "conditions": [24, 1600, "v", 24000], "internal_node_id": "0.0-191.0", "trial": 6, "time_elapsed": 1119625, "serialpos": 17, "key_press": -1, "wordID": 808, "type": "PRES_VIS", "trial_index": 254}, "uniqueid": "MTK2316:3L70J4KAZHTUG1KODCKS08G1A2WDAD", "dateTime": 1516987447553}, {"current_trial": 255, "trialdata": {"rt": -1, "trial_type": "single-stim", "word": "sidewalk", "stimulus": "<p id=\"stim\">SIDEWALK</p>", "conditions": [24, 1600, "v", 24000], "internal_node_id": "0.0-192.0", "trial": 6, "time_elapsed": 1122141, "serialpos": 18, "key_press": -1, "wordID": 1302, "type": "PRES_VIS", "trial_index": 255}, "uniqueid": "MTK2316:3L70J4KAZHTUG1KODCKS08G1A2WDAD", "dateTime": 1516987450068}, {"current_trial": 256, "trialdata": {"rt": -1, "trial_type": "single-stim", "word": "hound", "stimulus": "<p id=\"stim\">HOUND</p>", "conditions": [24, 1600, "v", 24000], "internal_node_id": "0.0-193.0", "trial": 6, "time_elapsed": 1124907, "serialpos": 19, "key_press": -1, "wordID": 723, "type": "PRES_VIS", "trial_index": 256}, "uniqueid": "MTK2316:3L70J4KAZHTUG1KODCKS08G1A2WDAD", "dateTime": 1516987452835}, {"current_trial": 257, "trialdata": {"rt": -1, "trial_type": "single-stim", "word": "onion", "stimulus": "<p id=\"stim\">ONION</p>", "conditions": [24, 1600, "v", 24000], "internal_node_id": "0.0-194.0", "trial": 6, "time_elapsed": 1127703, "serialpos": 20, "key_press": -1, "wordID": 976, "type": "PRES_VIS", "trial_index": 257}, "uniqueid": "MTK2316:3L70J4KAZHTUG1KODCKS08G1A2WDAD", "dateTime": 1516987455630}, {"current_trial": 258, "trialdata": {"rt": -1, "trial_type": "single-stim", "word": "coffee", "stimulus": "<p id=\"stim\">COFFEE</p>", "conditions": [24, 1600, "v", 24000], "internal_node_id": "0.0-195.0", "trial": 6, "time_elapsed": 11