{"assignmentId": "3NKQQ8O39ZCEVAYMJH1J09SVGNZUDG", "workerId": "MTK2091", "questiondata": {"avail_screen_height": 1093, "color_depth": 24, "screen_width": 1920, "pixel_depth": 24, "avail_screen_width": 1920, "screen_height": 1200}, "bonus": 0, "hitId": "3NRZ1LDP7WD2JMXS4BMKSBSFE5QZP2", "counterbalance": 2723, "useragent": "Mozilla/5.0 (Macintosh; Intel Mac OS X 10_11_3) AppleWebKit/537.36 (KHTML, like Gecko) Chrome/63.0.3239.132 Safari/537.36", "eventdata": [{"eventtype": "initialized", "interval": 0, "value": null, "timestamp": 1516729129453}, {"eventtype": "window_resize", "interval": 0, "value": [1920, 1126], "timestamp": 1516729129453}, {"eventtype": "focus", "interval": 52280, "value": "on", "timestamp": 1516729181733}, {"eventtype": "focus", "interval": 1304, "value": "off", "timestamp": 1516729183037}, {"eventtype": "focus", "interval": 12992, "value": "on", "timestamp": 1516729196029}, {"eventtype": "focus", "interval": 4798, "value": "off", "timestamp": 1516729200827}, {"eventtype": "focus", "interval": 7497, "value": "on", "timestamp": 1516729208324}, {"eventtype": "focus", "interval": 1283, "value": "off", "timestamp": 1516729209607}, {"eventtype": "focus", "interval": 43974, "value": "on", "timestamp": 1516729253581}, {"eventtype": "focus", "interval": 1426, "value": "off", "timestamp": 1516729255007}, {"eventtype": "focus", "interval": 550216, "value": "on", "timestamp": 1516729805223}], "data": [{"current_trial": 0, "trialdata": {"rt": 609306, "trial_type": "text", "internal_node_id": "0.0-0.0", "time_elapsed": 609308, "key_press": 75, "type": "INSTRUCTIONS", "trial_index": 0}, "uniqueid": "MTK2091:3NKQQ8O39ZCEVAYMJH1J09SVGNZUDG", "dateTime": 1516729806197}, {"current_trial": 1, "trialdata": {"rt": 16015, "trial_type": "text", "internal_node_id": "0.0-1.0", "time_elapsed": 625326, "key_press": 75, "type": "INSTRUCTIONS", "trial_index": 1}, "uniqueid": "MTK2091:3NKQQ8O39ZCEVAYMJH1J09SVGNZUDG", "dateTime": 1516729822214}, {"current_trial": 2, "trialdata": {"rt": [13426], "trial_type": "audio-test", "responses": ["ocean"], "internal_node_id": "0.0-2.0", "time_elapsed": 638767, "type": "AUDIO_TEST", "trial_index": 2}, "uniqueid": "MTK2091:3NKQQ8O39ZCEVAYMJH1J09SVGNZUDG", "dateTime": 1516729835655}, {"current_trial": 3, "trialdata": {"rt": [8801], "trial_type": "audio-test", "responses": ["crystal"], "internal_node_id": "0.0-3.0", "time_elapsed": 647575, "type": "AUDIO_TEST", "trial_index": 3}, "uniqueid": "MTK2091:3NKQQ8O39ZCEVAYMJH1J09SVGNZUDG", "dateTime": 1516729844463}, {"current_trial": 4, "trialdata": {"rt": [10449], "trial_type": "audio-test", "responses": ["spice"], "internal_node_id": "0.0-4.0", "time_elapsed": 658031, "type": "AUDIO_TEST", "trial_index": 4}, "uniqueid": "MTK2091:3NKQQ8O39ZCEVAYMJH1J09SVGNZUDG", "dateTime": 1516729854919}, {"current_trial": 5, "trialdata": {"rt": 30158, "trial_type": "survey-text", "responses": "{\"Q0\":\"11pm\",\"Q1\":\"7am\",\"Q2\":\"5\"}", "internal_node_id": "0.0-5.0", "time_elapsed": 688947, "type": "SLEEP_SURVEY", "trial_index": 5}, "uniqueid": "MTK2091:3NKQQ8O39ZCEVAYMJH1J09SVGNZUDG", "dateTime": 1516729885835}, {"current_trial": 6, "trialdata": {"rt": 45282, "trial_type": "text", "internal_node_id": "0.0-6.0", "time_elapsed": 735236, "key_press": 76, "type": "INSTRUCTIONS", "trial_index": 6}, "uniqueid": "MTK2091:3NKQQ8O39ZCEVAYMJH1J09SVGNZUDG", "dateTime": 1516729932124}, {"current_trial": 7, "trialdata": {"rt": 13351, "trial_type": "text", "internal_node_id": "0.0-7.0", "time_elapsed": 749091, "key_press": 76, "type": "INSTRUCTIONS", "trial_index": 7}, "uniqueid": "MTK2091:3NKQQ8O39ZCEVAYMJH1J09SVGNZUDG", "dateTime": 1516729945979}, {"current_trial": 8, "trialdata": {"rt": 10014, "trial_type": "text", "internal_node_id": "0.0-8.0", "time_elapsed": 759610, "key_press": 76, "type": "INSTRUCTIONS", "trial_index": 8}, "uniqueid": "MTK2091:3NKQQ8O39ZCEVAYMJH1J09SVGNZUDG", "dateTime": 1516729956499}, {"current_trial": 9, "trialdata": {"rt": [6055, 9840, 13287], "trial_type": "math-distractor", "key_times": [5103, 5623, 6055, 9136, 9840, 12471, 12991, 13287], "responses": ["15", "9", "15"], "num2": [6, 5, 8, 7], "num3": [4, 2, 2, 5], "conditions": [18, 1200, "a", 18000], "internal_node_id": "0.0-9.0", "key_presses": [49, 53, 13, 57, 13, 49, 53, 13], "trial": 0, "time_elapsed": 778624, "type": "DISTRACTOR", "trial_index": 9, "num1": [5, 2, 5, 4]}, "uniqueid": "MTK2091:3NKQQ8O39ZCEVAYMJH1J09SVGNZUDG", "dateTime": 1516729975512}, {"current_trial": 10, "trialdata": {"rt": -1, "trial_type": "single-stim", "stimulus": "<p id=\"stim\">10</p>", "internal_node_id": "0.0-10.0-0.0", "time_elapsed": 781630, "key_press": -1, "trial_index": 10}, "uniqueid": "MTK2091:3NKQQ8O39ZCEVAYMJH1J09SVGNZUDG", "dateTime": 1516729978519}, {"current_trial": 11, "trialdata": {"rt": -1, "trial_type": "single-stim", "stimulus": "<p id=\"stim\">9</p>", "internal_node_id": "0.0-10.0-1.0", "time_elapsed": 782634, "key_press": -1, "trial_index": 11}, "uniqueid": "MTK2091:3NKQQ8O39ZCEVAYMJH1J09SVGNZUDG", "dateTime": 1516729979522}, {"current_trial": 12, "trialdata": {"rt": -1, "trial_type": "single-stim", "stimulus": "<p id=\"stim\">8</p>", "internal_node_id": "0.0-10.0-2.0", "time_elapsed": 783638, "key_press": -1, "trial_index": 12}, "uniqueid": "MTK2091:3NKQQ8O39ZCEVAYMJH1J09SVGNZUDG", "dateTime": 1516729980526}, {"current_trial": 13, "trialdata": {"rt": -1, "trial_type": "single-stim", "stimulus": "<p id=\"stim\">7</p>", "internal_node_id": "0.0-10.0-3.0", "time_elapsed": 784642, "key_press": -1, "trial_index": 13}, "uniqueid": "MTK2091:3NKQQ8O39ZCEVAYMJH1J09SVGNZUDG", "dateTime": 1516729981531}, {"current_trial": 14, "trialdata": {"rt": -1, "trial_type": "single-stim", "stimulus": "<p id=\"stim\">6</p>", "internal_node_id": "0.0-10.0-4.0", "time_elapsed": 785648, "key_press": -1, "trial_index": 14}, "uniqueid": "MTK2091:3NKQQ8O39ZCEVAYMJH1J09SVGNZUDG", "dateTime": 1516729982536}, {"current_trial": 15, "trialdata": {"rt": -1, "trial_type": "single-stim", "stimulus": "<p id=\"stim\">5</p>", "internal_node_id": "0.0-10.0-5.0", "time_elapsed": 786652, "key_press": -1, "trial_index": 15}, "uniqueid": "MTK2091:3NKQQ8O39ZCEVAYMJH1J09SVGNZUDG", "dateTime": 1516729983540}, {"current_trial": 16, "trialdata": {"rt": -1, "trial_type": "single-stim", "stimulus": "<p id=\"stim\">4</p>", "internal_node_id": "0.0-10.0-6.0", "time_elapsed": 787656, "key_press": -1, "trial_index": 16}, "uniqueid": "MTK2091:3NKQQ8O39ZCEVAYMJH1J09SVGNZUDG", "dateTime": 1516729984544}, {"current_trial": 17, "trialdata": {"rt": -1, "trial_type": "single-stim", "stimulus": "<p id=\"stim\">3</p>", "internal_node_id": "0.0-10.0-7.0", "time_elapsed": 788660, "key_press": -1, "trial_index": 17}, "uniqueid": "MTK2091:3NKQQ8O39ZCEVAYMJH1J09SVGNZUDG", "dateTime": 1516729985548}, {"current_trial": 18, "trialdata": {"rt": -1, "trial_type": "single-stim", "stimulus": "<p id=\"stim\">2</p>", "internal_node_id": "0.0-10.0-8.0", "time_elapsed": 789664, "key_press": -1, "trial_index": 18}, "uniqueid": "MTK2091:3NKQQ8O39ZCEVAYMJH1J09SVGNZUDG", "dateTime": 1516729986553}, {"current_trial": 19, "trialdata": {"rt": -1, "trial_type": "single-stim", "stimulus": "<p id=\"stim\">1</p>", "internal_node_id": "0.0-10.0-9.0", "time_elapsed": 790670, "key_press": -1, "trial_index": 19}, "uniqueid": "MTK2091:3NKQQ8O39ZCEVAYMJH1J09SVGNZUDG", "dateTime": 1516729987558}, {"current_trial": 20, "trialdata": {"rt": -1, "trial_type": "single-stim", "stimulus": "<p id=\"stim\">+</p>", "internal_node_id": "0.0-11.0-0.0", "time_elapsed": 792177, "key_press": -1, "type": "FIXATION", "trial_index": 20}, "uniqueid": "MTK2091:3NKQQ8O39ZCEVAYMJH1J09SVGNZUDG", "dateTime": 1516729989065}, {"current_trial": 21, "trialdata": {"rt": -1000, "trial_type": "single-audio", "word": "lizard", "stimulus": "/static/audio/wordpool/LIZARD.wav", "conditions": [18, 1200, "a", 18000], "internal_node_id": "0.0-12.0", "trial": 0, "time_elapsed": 794219, "serialpos": 0, "key_press": -1, "wordID": 833, "type": "PRES_AUD", "trial_index": 21}, "uniqueid": "MTK2091:3NKQQ8O39ZCEVAYMJH1J09SVGNZUDG", "dateTime": 1516729991107}, {"current_trial": 22, "trialdata": {"rt": -1000, "trial_type": "single-audio", "word": "lamp", "stimulus": "/static/audio/wordpool/LAMP.wav", "conditions": [18, 1200, "a", 18000], "internal_node_id": "0.0-13.0", "trial": 0, "time_elapsed": 796390, "serialpos": 1, "key_press": -1, "wordID": 797, "type": "PRES_AUD", "trial_index": 22}, "uniqueid": "MTK2091:3NKQQ8O39ZCEVAYMJH1J09SVGNZUDG", "dateTime": 1516729993278}, {"current_trial": 23, "trialdata": {"rt": -1000, "trial_type": "single-audio", "word": "staple", "stimulus": "/static/audio/wordpool/STAPLE.wav", "conditions": [18, 1200, "a", 18000], "internal_node_id": "0.0-14.0", "trial": 0, "time_elapsed": 798780, "serialpos": 2, "key_press": -1, "wordID": 1370, "type": "PRES_AUD", "trial_index": 23}, "uniqueid": "MTK2091:3NKQQ8O39ZCEVAYMJH1J09SVGNZUDG", "dateTime": 1516729995668}, {"current_trial": 24, "trialdata": {"rt": -1000, "trial_type": "single-audio", "word": "county", "stimulus": "/static/audio/wordpool/COUNTY.wav", "conditions": [18, 1200, "a", 18000], "internal_node_id": "0.0-15.0", "trial": 0, "time_elapsed": 801035, "serialpos": 3, "key_press": -1, "wordID": 388, "type": "PRES_AUD", "trial_index": 24}, "uniqueid": "MTK2091:3NKQQ8O39ZCEVAYMJH1J09SVGNZUDG", "dateTime": 1516729997924}, {"current_trial": 25, "trialdata": {"rt": -1000, "trial_type": "single-audio", "word": "beaker", "stimulus": "/static/audio/wordpool/BEAKER.wav", "conditions": [18, 1200, "a", 18000], "internal_node_id": "0.0-16.0", "trial": 0, "time_elapsed": 803263, "serialpos": 4, "key_press": -1, "wordID": 103, "type": "PRES_AUD", "trial_index": 25}, "uniqueid": "MTK2091:3NKQQ8O39ZCEVAYMJH1J09SVGNZUDG", "dateTime": 1516730000152}, {"current_trial": 26, "trialdata": {"rt": -1000, "trial_type": "single-audio", "word": "worker", "stimulus": "/static/audio/wordpool/WORKER.wav", "conditions": [18, 1200, "a", 18000], "internal_node_id": "0.0-17.0", "trial": 0, "time_elapsed": 805593, "serialpos": 5, "key_press": -1, "wordID": 1620, "type": "PRES_AUD", "trial_index": 26}, "uniqueid": "MTK2091:3NKQQ8O39ZCEVAYMJH1J09SVGNZUDG", "dateTime": 1516730002481}, {"current_trial": 27, "trialdata": {"rt": -1000, "trial_type": "single-audio", "word": "barley", "stimulus": "/static/audio/wordpool/BARLEY.wav", "conditions": [18, 1200, "a", 18000], "internal_node_id": "0.0-18.0", "trial": 0, "time_elapsed": 807873, "serialpos": 6, "key_press": -1, "wordID": 87, "type": "PRES_AUD", "trial_index": 27}, "uniqueid": "MTK2091:3NKQQ8O39ZCEVAYMJH1J09SVGNZUDG", "dateTime": 1516730004761}, {"current_trial": 28, "trialdata": {"rt": -1000, "trial_type": "single-audio", "word": "buggy", "stimulus": "/static/audio/wordpool/BUGGY.wav", "conditions": [18, 1200, "a", 18000], "internal_node_id": "0.0-19.0", "trial": 0, "time_elapsed": 810119, "serialpos": 7, "key_press": -1, "wordID": 187, "type": "PRES_AUD", "trial_index": 28}, "uniqueid": "MTK2091:3NKQQ8O39ZCEVAYMJH1J09SVGNZUDG", "dateTime": 1516730007007}, {"current_trial": 29, "trialdata": {"rt": -1000, "trial_type": "single-audio", "word": "lipstick", "stimulus": "/static/audio/wordpool/LIPSTICK.wav", "conditions": [18, 1200, "a", 18000], "internal_node_id": "0.0-20.0", "trial": 0, "time_elapsed": 812377, "serialpos": 8, "key_press": -1, "wordID": 828, "type": "PRES_AUD", "trial_index": 29}, "uniqueid": "MTK2091:3NKQQ8O39ZCEVAYMJH1J09SVGNZUDG", "dateTime": 1516730009266}, {"current_trial": 30, "trialdata": {"rt": -1000, "trial_type": "single-audio", "word": "record", "stimulus": "/static/audio/wordpool/RECORD.wav", "conditions": [18, 1200, "a", 18000], "internal_node_id": "0.0-21.0", "trial": 0, "time_elapsed": 814601, "serialpos": 9, "key_press": -1, "wordID": 1175, "type": "PRES_AUD", "trial_index": 30}, "uniqueid": "MTK2091:3NKQQ8O39ZCEVAYMJH1J09SVGNZUDG", "dateTime": 1516730011489}, {"current_trial": 31, "trialdata": {"rt": -1000, "trial_type": "single-audio", "word": "knife", "stimulus": "/static/audio/wordpool/KNIFE.wav", "conditions": [18, 1200, "a", 18000], "internal_node_id": "0.0-22.0", "trial": 0, "time_elapsed": 816969, "serialpos": 10, "key_press": -1, "wordID": 784, "type": "PRES_AUD", "trial_index": 31}, "uniqueid": "MTK2091:3NKQQ8O39ZCEVAYMJH1J09SVGNZUDG", "dateTime": 1516730013857}, {"current_trial": 32, "trialdata": {"rt": -1000, "trial_type": "single-audio", "word": "fungus", "stimulus": "/static/audio/wordpool/FUNGUS.wav", "conditions": [18, 1200, "a", 18000], "internal_node_id": "0.0-23.0", "trial": 0, "time_elapsed": 819257, "serialpos": 11, "key_press": -1, "wordID": 613, "type": "PRES_AUD", "trial_index": 32}, "uniqueid": "MTK2091:3NKQQ8O39ZCEVAYMJH1J09SVGNZUDG", "dateTime": 1516730016145}, {"current_trial": 33, "trialdata": {"rt": -1000, "trial_type": "single-audio", "word": "motel", "stimulus": "/static/audio/wordpool/MOTEL.wav", "conditions": [18, 1200, "a", 18000], "internal_node_id": "0.0-24.0", "trial": 0, "time_elapsed": 821474, "serialpos": 12, "key_press": -1, "wordID": 918, "type": "PRES_AUD", "trial_index": 33}, "uniqueid": "MTK2091:3NKQQ8O39ZCEVAYMJH1J09SVGNZUDG", "dateTime": 1516730018362}, {"current_trial": 34, "trialdata": {"rt": -1000, "trial_type": "single-audio", "word": "yacht", "stimulus": "/static/audio/wordpool/YACHT.wav", "conditions": [18, 1200, "a", 18000], "internal_node_id": "0.0-25.0", "trial": 0, "time_elapsed": 823664, "serialpos": 13, "key_press": -1, "wordID": 1628, "type": "PRES_AUD", "trial_index": 34}, "uniqueid": "MTK2091:3NKQQ8O39ZCEVAYMJH1J09SVGNZUDG", "dateTime": 1516730020552}, {"current_trial": 35, "trialdata": {"rt": -1000, "trial_type": "single-audio", "word": "wrist", "stimulus": "/static/audio/wordpool/WRIST.wav", "conditions": [18, 1200, "a", 18000], "internal_node_id": "0.0-26.0", "trial": 0, "time_elapsed": 825712, "serialpos": 14, "key_press": -1, "wordID": 1625, "type": "PRES_AUD", "trial_index": 35}, "uniqueid": "MTK2091:3NKQQ8O39ZCEVAYMJH1J09SVGNZUDG", "dateTime": 1516730022600}, {"current_trial": 36, "trialdata": {"rt": -1000, "trial_type": "single-audio", "word": "gavel", "stimulus": "/static/audio/wordpool/GAVEL.wav", "conditions": [18, 1200, "a", 18000], "internal_node_id": "0.0-27.0", "trial": 0, "time_elapsed": 827767, "serialpos": 15, "key_press": -1, "wordID": 626, "type": "PRES_AUD", "trial_index": 36}, "uniqueid": "MTK2091:3NKQQ8O39ZCEVAYMJH1J09SVGNZUDG", "dateTime": 1516730024655}, {"current_trial": 37, "trialdata": {"rt": -1000, "trial_type": "single-audio", "word": "tutu", "stimulus": "/static/audio/wordpool/TUTU.wav", "conditions": [18, 1200, "a", 18000], "internal_node_id": "0.0-28.0", "trial": 0, "time_elapsed": 830147, "serialpos": 16, "key_press": -1, "wordID": 1523, "type": "PRES_AUD", "trial_index": 37}, "uniqueid": "MTK2091:3NKQQ8O39ZCEVAYMJH1J09SVGNZUDG", "dateTime": 1516730027035}, {"current_trial": 38, "trialdata": {"rt": -1000, "trial_type": "single-audio", "word": "world", "stimulus": "/static/audio/wordpool/WORLD.wav", "conditions": [18, 1200, "a", 18000], "internal_node_id": "0.0-29.0", "trial": 0, "time_elapsed": 832235, "serialpos": 17, "key_press": -1, "wordID": 1621, "type": "PRES_AUD", "trial_index": 38}, "uniqueid": "MTK2091:3NKQQ8O39ZCEVAYMJH1J09SVGNZUDG", "dateTime": 1516730029123}, {"current_trial": 39, "trialdata": {"rt": -1, "trial_type": "single-stim", "stimulus": "", "internal_node_id": "0.0-30.0-0.0", "time_elapsed": 833611, "key_press": -1, "type": "PRE_RECALL_DELAY", "trial_index": 39}, "uniqueid": "MTK2091:3NKQQ8O39ZCEVAYMJH1J09SVGNZUDG", "dateTime": 1516730030499}, {"current_trial": 40, "trialdata": {"rt": -1000, "trial_type": "single-audio", "stimulus": "/static/audio/400Hz.wav", "internal_node_id": "0.0-31.0", "time_elapsed": 834112, "key_press": -1, "type": "PRE_RECALL_ALERT", "trial_index": 40}, "uniqueid": "MTK2091:3NKQQ8O39ZCEVAYMJH1J09SVGNZUDG", "dateTime": 1516730031000}, {"current_trial": 41, "trialdata": {"rt": [5594, 8258, 10610, 17744, 20184, 23152, 25385, 28160, 32633, 34936, 39721, 42945], "recwords": ["fungus", "tutu", "world", "knife", "motel", "lizard", "barley", "beaker", "lipstick", "wrist", "lamp", "staple"], "key_times": [2923, 3154, 3482, 4178, 4474, 4994, 5594, 6562, 6874, 7162, 7482, 8258, 8994, 9250, 9482, 9666, 10370, 10610, 15665, 16072, 16552, 16856, 17177, 17744, 18472, 18848, 19144, 19408, 19608, 20184, 20833, 21193, 21497, 21800, 22297, 22625, 23152, 23736, 23857, 24201, 24377, 24561, 24793, 25385, 25833, 25978, 26296, 26665, 26888, 27017, 28160, 30113, 30416, 31033, 31233, 31577, 31737, 31953, 32073, 32633, 33225, 33537, 33849, 34017, 34313, 34936, 37795, 38009, 38233, 38721, 39721, 41089, 41561, 41857, 41993, 42129, 42665, 42945], "trial_type": "free-recall", "conditions": [18, 1200, "a", 18000], "internal_node_id": "0.0-32.0-0.0", "key_presses": [70, 85, 78, 71, 85, 83, 13, 84, 85, 84, 85, 13, 87, 79, 82, 76, 68, 13, 75, 78, 73, 70, 69, 13, 77, 79, 84, 69, 76, 13, 76, 73, 90, 65, 82, 68, 13, 66, 65, 82, 76, 69, 89, 13, 66, 69, 65, 75, 69, 82, 13, 76, 73, 80, 83, 84, 73, 67, 75, 13, 87, 82, 73, 83, 84, 13, 76, 65, 77, 80, 13, 83, 84, 65, 80, 76, 69, 13], "trial": 0, "time_elapsed": 894118, "type": "FREE_RECALL", "trial_index": 41}, "uniqueid": "MTK2091:3NKQQ8O39ZCEVAYMJH1J09SVGNZUDG", "dateTime": 1516730091009}, {"current_trial": 42, "trialdata": {"rt": 2202, "trial_type": "text", "internal_node_id": "0.0-33.0", "time_elapsed": 898327, "key_press": 77, "type": "INSTRUCTIONS", "trial_index": 42}, "uniqueid": "MTK2091:3NKQQ8O39ZCEVAYMJH1J09SVGNZUDG", "dateTime": 1516730095215}, {"current_trial": 43, "trialdata": {"rt": [4585, 9129, 12881, 15529], "trial_type": "math-distractor", "key_times": [3921, 4017, 4585, 8105, 8489, 9129, 12145, 12545, 12881, 15041, 15529], "responses": ["19", "19", "14", "4"], "num2": [7, 9, 4, 1, 6], "num3": [7, 9, 1, 2, 6], "conditions": [18, 1200, "a", 18000], "internal_node_id": "0.0-34.0", "key_presses": [49, 57, 13, 49, 57, 13, 49, 52, 13, 52, 13], "trial": 1, "time_elapsed": 918337, "type": "DISTRACTOR", "trial_index": 43, "num1": [5, 1, 9, 1, 7]}, "uniqueid": "MTK2091:3NKQQ8O39ZCEVAYMJH1J09SVGNZUDG", "dateTime": 1516730115225}, {"current_trial": 44, "trialdata": {"rt": -1, "trial_type": "single-stim", "stimulus": "<p id=\"stim\">10</p>", "internal_node_id": "0.0-35.0-0.0", "time_elapsed": 921343, "key_press": -1, "trial_index": 44}, "uniqueid": "MTK2091:3NKQQ8O39ZCEVAYMJH1J09SVGNZUDG", "dateTime": 1516730118231}, {"current_trial": 45, "trialdata": {"rt": -1, "trial_type": "single-stim", "stimulus": "<p id=\"stim\">9</p>", "internal_node_id": "0.0-35.0-1.0", "time_elapsed": 922347, "key_press": -1, "trial_index": 45}, "uniqueid": "MTK2091:3NKQQ8O39ZCEVAYMJH1J09SVGNZUDG", "dateTime": 1516730119235}, {"current_trial": 46, "trialdata": {"rt": -1, "trial_type": "single-stim", "stimulus": "<p id=\"stim\">8</p>", "internal_node_id": "0.0-35.0-2.0", "time_elapsed": 923351, "key_press": -1, "trial_index": 46}, "uniqueid": "MTK2091:3NKQQ8O39ZCEVAYMJH1J09SVGNZUDG", "dateTime": 1516730120239}, {"current_trial": 47, "trialdata": {"rt": -1, "trial_type": "single-stim", "stimulus": "<p id=\"stim\">7</p>", "internal_node_id": "0.0-35.0-3.0", "time_elapsed": 924357, "key_press": -1, "trial_index": 47}, "uniqueid": "MTK2091:3NKQQ8O39ZCEVAYMJH1J09SVGNZUDG", "dateTime": 1516730121245}, {"current_trial": 48, "trialdata": {"rt": -1, "trial_type": "single-stim", "stimulus": "<p id=\"stim\">6</p>", "internal_node_id": "0.0-35.0-4.0", "time_elapsed": 925360, "key_press": -1, "trial_index": 48}, "uniqueid": "MTK2091:3NKQQ8O39ZCEVAYMJH1J09SVGNZUDG", "dateTime": 1516730122248}, {"current_trial": 49, "trialdata": {"rt": -1, "trial_type": "single-stim", "stimulus": "<p id=\"stim\">5</p>", "internal_node_id": "0.0-35.0-5.0", "time_elapsed": 926364, "key_press": -1, "trial_index": 49}, "uniqueid": "MTK2091:3NKQQ8O39ZCEVAYMJH1J09SVGNZUDG", "dateTime": 1516730123252}, {"current_trial": 50, "trialdata": {"rt": -1, "trial_type": "single-stim", "stimulus": "<p id=\"stim\">4</p>", "internal_node_id": "0.0-35.0-6.0", "time_elapsed": 927368, "key_press": -1, "trial_index": 50}, "uniqueid": "MTK2091:3NKQQ8O39ZCEVAYMJH1J09SVGNZUDG", "dateTime": 1516730124256}, {"current_trial": 51, "trialdata": {"rt": -1, "trial_type": "single-stim", "stimulus": "<p id=\"stim\">3</p>", "internal_node_id": "0.0-35.0-7.0", "time_elapsed": 928372, "key_press": -1, "trial_index": 51}, "uniqueid": "MTK2091:3NKQQ8O39ZCEVAYMJH1J09SVGNZUDG", "dateTime": 1516730125260}, {"current_trial": 52, "trialdata": {"rt": -1, "trial_type": "single-stim", "stimulus": "<p id=\"stim\">2</p>", "internal_node_id": "0.0-35.0-8.0", "time_elapsed": 929377, "key_press": -1, "trial_index": 52}, "uniqueid": "MTK2091:3NKQQ8O39ZCEVAYMJH1J09SVGNZUDG", "dateTime": 1516730126265}, {"current_trial": 53, "trialdata": {"rt": -1, "trial_type": "single-stim", "stimulus": "<p id=\"stim\">1</p>", "internal_node_id": "0.0-35.0-9.0", "time_elapsed": 930380, "key_press": -1, "trial_index": 53}, "uniqueid": "MTK2091:3NKQQ8O39ZCEVAYMJH1J09SVGNZUDG", "dateTime": 1516730127269}, {"current_trial": 54, "trialdata": {"rt": -1, "trial_type": "single-stim", "stimulus": "<p id=\"stim\">+</p>", "internal_node_id": "0.0-36.0-0.0", "time_elapsed": 931884, "key_press": -1, "type": "FIXATION", "trial_index": 54}, "uniqueid": "MTK2091:3NKQQ8O39ZCEVAYMJH1J09SVGNZUDG", "dateTime": 1516730128772}, {"current_trial": 55, "trialdata": {"rt": -1000, "trial_type": "single-audio", "word": "supper", "stimulus": "/static/audio/wordpool/SUPPER.wav", "conditions": [18, 1200, "a", 18000], "internal_node_id": "0.0-37.0", "trial": 1, "time_elapsed": 934221, "serialpos": 0, "key_press": -1, "wordID": 1410, "type": "PRES_AUD", "trial_index": 55}, "uniqueid": "MTK2091:3NKQQ8O39ZCEVAYMJH1J09SVGNZUDG", "dateTime": 1516730131109}, {"current_trial": 56, "trialdata": {"rt": -1000, "trial_type": "single-audio", "word": "chest", "stimulus": "/static/audio/wordpool/CHEST.wav", "conditions": [18, 1200, "a", 18000], "internal_node_id": "0.0-38.0", "trial": 1, "time_elapsed": 936489, "serialpos": 1, "key_press": -1, "wordID": 294, "type": "PRES_AUD", "trial_index": 56}, "uniqueid": "MTK2091:3NKQQ8O39ZCEVAYMJH1J09SVGNZUDG", "dateTime": 1516730133377}, {"current_trial": 57, "trialdata": {"rt": -1000, "trial_type": "single-audio", "word": "onion", "stimulus": "/static/audio/wordpool/ONION.wav", "conditions": [18, 1200, "a", 18000], "internal_node_id": "0.0-39.0", "trial": 1, "time_elapsed": 938771, "serialpos": 2, "key_press": -1, "wordID": 976, "type": "PRES_AUD", "trial_index": 57}, "uniqueid": "MTK2091:3NKQQ8O39ZCEVAYMJH1J09SVGNZUDG", "dateTime": 1516730135659}, {"current_trial": 58, "trialdata": {"rt": -1000, "trial_type": "single-audio", "word": "swimmer", "stimulus": "/static/audio/wordpool/SWIMMER.wav", "conditions": [18, 1200, "a", 18000], "internal_node_id": "0.0-40.0", "trial": 1, "time_elapsed": 940803, "serialpos": 3, "key_press": -1, "wordID": 1419, "type": "PRES_AUD", "trial_index": 58}, "uniqueid": "MTK2091:3NKQQ8O39ZCEVAYMJH1J09SVGNZUDG", "dateTime": 1516730137691}, {"current_trial": 59, "trialdata": {"rt": -1000, "trial_type": "single-audio", "word": "seafood", "stimulus": "/static/audio/wordpool/SEAFOOD.wav", "conditions": [18, 1200, "a", 18000], "internal_node_id": "0.0-41.0", "trial": 1, "time_elapsed": 943171, "serialpos": 4, "key_press": -1, "wordID": 1259, "type": "PRES_AUD", "trial_index": 59}, "uniqueid": "MTK2091:3NKQQ8O39ZCEVAYMJH1J09SVGNZUDG", "dateTime": 1516730140059}, {"current_trial": 60, "trialdata": {"rt": -1000, "trial_type": "single-audio", "word": "friend", "stimulus": "/static/audio/wordpool/FRIEND.wav", "conditions": [18, 1200, "a", 18000], "internal_node_id": "0.0-42.0", "trial": 1, "time_elapsed": 945555, "serialpos": 5, "key_press": -1, "wordID": 605, "type": "PRES_AUD", "trial_index": 60}, "uniqueid": "MTK2091:3NKQQ8O39ZCEVAYMJH1J09SVGNZUDG", "dateTime": 1516730142444}, {"current_trial": 61, "trialdata": {"rt": -1000, "trial_type": "single-audio", "word": "message", "stimulus": "/static/audio/wordpool/MESSAGE.wav", "conditions": [18, 1200, "a", 18000], "internal_node_id": "0.0-43.0", "trial": 1, "time_elapsed": 947850, "serialpos": 6, "key_press": -1, "wordID": 887, "type": "PRES_AUD", "trial_index": 61}, "uniqueid": "MTK2091:3NKQQ8O39ZCEVAYMJH1J09SVGNZUDG", "dateTime": 1516730144738}, {"current_trial": 62, "trialdata": {"rt": -1000, "trial_type": "single-audio", "word": "orchid", "stimulus": "/static/audio/wordpool/ORCHID.wav", "conditions": [18, 1200, "a", 18000], "internal_node_id": "0.0-44.0", "trial": 1, "time_elapsed": 950178, "serialpos": 7, "key_press": -1, "wordID": 981, "type": "PRES_AUD", "trial_index": 62}, "uniqueid": "MTK2091:3NKQQ8O39ZCEVAYMJH1J09SVGNZUDG", "dateTime": 1516730147066}, {"current_trial": 63, "trialdata": {"rt": -1000, "trial_type": "single-audio", "word": "chemist", "stimulus": "/static/audio/wordpool/CHEMIST.wav", "conditions": [18, 1200, "a", 18000], "internal_node_id": "0.0-45.0", "trial": 1, "time_elapsed": 952240, "serialpos": 8, "key_press": -1, "wordID": 291, "type": "PRES_AUD", "trial_index": 63}, "uniqueid": "MTK2091:3NKQQ8O39ZCEVAYMJH1J09SVGNZUDG", "dateTime": 1516730149128}, {"current_trial": 64, "trialdata": {"rt": -1000, "trial_type": "single-audio", "word": "highway", "stimulus": "/static/audio/wordpool/HIGHWAY.wav", "conditions": [18, 1200, "a", 18000], "internal_node_id": "0.0-46.0", "trial": 1, "time_elapsed": 954265, "serialpos": 9, "key_press": -1, "wordID": 706, "type": "PRES_AUD", "trial_index": 64}, "uniqueid": "MTK2091:3NKQQ8O39ZCEVAYMJH1J09SVGNZUDG", "dateTime": 1516730151153}, {"current_trial": 65, "trialdata": {"rt": -1000, "trial_type": "single-audio", "word": "tortoise", "stimulus": "/static/audio/wordpool/TORTOISE.wav", "conditions": [18, 1200, "a", 18000], "internal_node_id": "0.0-47.0", "trial": 1, "time_elapsed": 956523, "serialpos": 10, "key_press": -1, "wordID": 1485, "type": "PRES_AUD", "trial_index": 65}, "uniqueid": "MTK2091:3NKQQ8O39ZCEVAYMJH1J09SVGNZUDG", "dateTime": 1516730153411}, {"current_trial": 66, "trialdata": {"rt": -1000, "trial_type": "single-audio", "word": "blender", "stimulus": "/static/audio/wordpool/BLENDER.wav", "conditions": [18, 1200, "a", 18000], "internal_node_id": "0.0-48.0", "trial": 1, "time_elapsed": 958590, "serialpos": 11, "key_press": -1, "wordID": 135, "type": "PRES_AUD", "trial_index": 66}, "uniqueid": "MTK2091:3NKQQ8O39ZCEVAYMJH1J09SVGNZUDG", "dateTime": 1516730155478}, {"current_trial": 67, "trialdata": {"rt": -1000, "trial_type": "single-audio", "word": "mailbox", "stimulus": "/static/audio/wordpool/MAILBOX.wav", "conditions": [18, 1200, "a", 18000], "internal_node_id": "0.0-49.0", "trial": 1, "time_elapsed": 960844, "serialpos": 12, "key_press": -1, "wordID": 856, "type": "PRES_AUD", "trial_index": 67}, "uniqueid": "MTK2091:3NKQQ8O39ZCEVAYMJH1J09SVGNZUDG", "dateTime": 1516730157733}, {"current_trial": 68, "trialdata": {"rt": -1000, "trial_type": "single-audio", "word": "lagoon", "stimulus": "/static/audio/wordpool/LAGOON.wav", "conditions": [18, 1200, "a", 18000], "internal_node_id": "0.0-50.0", "trial": 1, "time_elapsed": 963001, "serialpos": 13, "key_press": -1, "wordID": 794, "type": "PRES_AUD", "trial_index": 68}, "uniqueid": "MTK2091:3NKQQ8O39ZCEVAYMJH1J09SVGNZUDG", "dateTime": 1516730159891}, {"current_trial": 69, "trialdata": {"rt": -1000, "trial_type": "single-audio", "word": "stallion", "stimulus": "/static/audio/wordpool/STALLION.wav", "conditions": [18, 1200, "a", 18000], "internal_node_id": "0.0-51.0", "trial": 1, "time_elapsed": 965318, "serialpos": 14, "key_press": -1, "wordID": 1368, "type": "PRES_AUD", "trial_index": 69}, "uniqueid": "MTK2091:3NKQQ8O39ZCEVAYMJH1J09SVGNZUDG", "dateTime": 1516730162206}, {"current_trial": 70, "trialdata": {"rt": -1000, "trial_type": "single-audio", "word": "woman", "stimulus": "/static/audio/wordpool/WOMAN.wav", "conditions": [18, 1200, "a", 18000], "internal_node_id": "0.0-52.0", "trial": 1, "time_elapsed": 967466, "serialpos": 15, "key_press": -1, "wordID": 1619, "type": "PRES_AUD", "trial_index": 70}, "uniqueid": "MTK2091:3NKQQ8O39ZCEVAYMJH1J09SVGNZUDG", "dateTime": 1516730164354}, {"current_trial": 71, "trialdata": {"rt": -1000, "trial_type": "single-audio", "word": "canal", "stimulus": "/static/audio/wordpool/CANAL.wav", "conditions": [18, 1200, "a", 18000], "internal_node_id": "0.0-53.0", "trial": 1, "time_elapsed": 969712, "serialpos": 16, "key_press": -1, "wordID": 225, "type": "PRES_AUD", "trial_index": 71}, "uniqueid": "MTK2091:3NKQQ8O39ZCEVAYMJH1J09SVGNZUDG", "dateTime": 1516730166600}, {"current_trial": 72, "trialdata": {"rt": -1000, "trial_type": "single-audio", "word": "brook", "stimulus": "/static/audio/wordpool/BROOK.wav", "conditions": [18, 1200, "a", 18000], "internal_node_id": "0.0-54.0", "trial": 1, "time_elapsed": 971901, "serialpos": 17, "key_press": -1, "wordID": 176, "type": "PRES_AUD", "trial_index": 72}, "uniqueid": "MTK2091:3NKQQ8O39ZCEVAYMJH1J09SVGNZUDG", "dateTime": 1516730168789}, {"current_trial": 73, "trialdata": {"rt": -1, "trial_type": "single-stim", "stimulus": "", "internal_node_id": "0.0-55.0-0.0", "time_elapsed": 973190, "key_press": -1, "type": "PRE_RECALL_DELAY", "trial_index": 73}, "uniqueid": "MTK2091:3NKQQ8O39ZCEVAYMJH1J09SVGNZUDG", "dateTime": 1516730170078}, {"current_trial": 74, "trialdata": {"rt": -1000, "trial_type": "single-audio", "stimulus": "/static/audio/400Hz.wav", "internal_node_id": "0.0-56.0", "time_elapsed": 973692, "key_press": -1, "type": "PRE_RECALL_ALERT", "trial_index": 74}, "uniqueid": "MTK2091:3NKQQ8O39ZCEVAYMJH1J09SVGNZUDG", "dateTime": 1516730170580}, {"current_trial": 75, "trialdata": {"rt": [9708, 12484, 14884, 17245, 19452, 22732, 24773, 26724, 28956, 33829, 36437, 43050, 53438], "recwords": ["swimmer", "chest", "friend", "supper", "onion", "seafood", "orchid", "chemist", "message", "lagoon", "brook", "stallion", "mailbox"], "key_times": [7205, 7452, 7596, 7884, 8036, 8444, 8812, 9708, 10452, 10700, 10892, 11220, 11700, 12484, 13076, 13340, 13532, 13836, 14124, 14516, 14884, 15429, 15684, 16348, 16508, 16716, 16836, 17245, 17788, 18044, 18252, 18452, 18692, 19452, 20796, 21052, 21308, 21837, 22044, 22196, 22420, 22732, 23365, 23540, 23837, 23964, 24229, 24356, 24773, 25173, 25356, 25501, 25684, 26005, 26109, 26604, 26724, 27286, 27428, 27740, 27892, 28149, 28461, 28732, 28956, 32085, 32228, 32564, 32716, 32853, 33517, 33829, 34389, 34781, 35021, 35173, 35445, 36437, 40898, 41202, 41514, 41682, 41834, 42362, 42578, 42794, 43050, 51046, 51150, 51366, 51814, 52318, 52630, 53286, 53438], "trial_type": "free-recall", "conditions": [18, 1200, "a", 18000], "internal_node_id": "0.0-57.0-0.0", "key_presses": [83, 87, 73, 77, 77, 69, 82, 13, 67, 72, 69, 83, 84, 13, 70, 82, 73, 69, 78, 68, 13, 83, 85, 80, 80, 69, 82, 13, 79, 78, 73, 79, 78, 13, 83, 69, 65, 70, 79, 79, 68, 13, 79, 82, 67, 72, 73, 68, 13, 67, 72, 69, 77, 73, 83, 84, 13, 77, 69, 83, 83, 65, 71, 69, 13, 76, 65, 71, 79, 79, 78, 13, 66, 82, 79, 79, 75, 13, 83, 84, 65, 76, 76, 73, 79, 78, 13, 77, 65, 73, 76, 66, 79, 88, 13], "trial": 1, "time_elapsed": 1033699, "type": "FREE_RECALL", "trial_index": 75}, "uniqueid": "MTK2091:3NKQQ8O39ZCEVAYMJH1J09SVGNZUDG", "dateTime": 1516730230591}, {"current_trial": 76, "trialdata": {"rt": 2856, "trial_type": "text", "internal_node_id": "0.0-58.0", "time_elapsed": 1038563, "key_press": 83, "type": "INSTRUCTIONS", "trial_index": 76}, "uniqueid": "MTK2091:3NKQQ8O39ZCEVAYMJH1J09SVGNZUDG", "dateTime": 1516730235451}, {"current_trial": 77, "trialdata": {"rt": [4689, 7538, 12346, 14562, 17122, 21576], "trial_type": "math-distractor", "key_times": [4001, 4105, 4689, 7402, 7538, 11467, 11474, 12346, 14402, 14562, 16746, 16890, 17122, 20839, 21000, 21576], "responses": ["12", "6", "17", "6", "12", "19"], "num2": [5, 1, 6, 2, 7, 6, 9], "num3": [1, 1, 7, 2, 2, 7, 8], "conditions": [24, 800, "a", 24000], "internal_node_id": "0.0-59.0", "key_presses": [49, 50, 13, 54, 13, 49, 55, 13, 54, 13, 49, 50, 13, 49, 57, 13], "trial": 2, "time_elapsed": 1063573, "type": "DISTRACTOR", "trial_index": 77, "num1": [6, 4, 4, 2, 3, 6, 4]}, "uniqueid": "MTK2091:3NKQQ8O39ZCEVAYMJH1J09SVGNZUDG", "dateTime": 1516730260461}, {"current_trial": 78, "trialdata": {"rt": -1, "trial_type": "single-stim", "stimulus": "<p id=\"stim\">10</p>", "internal_node_id": "0.0-60.0-0.0", "time_elapsed": 1066577, "key_press": -1, "trial_index": 78}, "uniqueid": "MTK2091:3NKQQ8O39ZCEVAYMJH1J09SVGNZUDG", "dateTime": 1516730263465}, {"current_trial": 79, "trialdata": {"rt": -1, "trial_type": "single-stim", "stimulus": "<p id=\"stim\">9</p>", "internal_node_id": "0.0-60.0-1.0", "time_elapsed": 1067579, "key_press": -1, "trial_index": 79}, "uniqueid": "MTK2091:3NKQQ8O39ZCEVAYMJH1J09SVGNZUDG", "dateTime": 1516730264467}, {"current_trial": 80, "trialdata": {"rt": -1, "trial_type": "single-stim", "stimulus": "<p id=\"stim\">8</p>", "internal_node_id": "0.0-60.0-2.0", "time_elapsed": 1068581, "key_press": -1, "trial_index": 80}, "uniqueid": "MTK2091:3NKQQ8O39ZCEVAYMJH1J09SVGNZUDG", "dateTime": 1516730265469}, {"current_trial": 81, "trialdata": {"rt": -1, "trial_type": "single-stim", "stimulus": "<p id=\"stim\">7</p>", "internal_node_id": "0.0-60.0-3.0", "time_elapsed": 1069583, "key_press": -1, "trial_index": 81}, "uniqueid": "MTK2091:3NKQQ8O39ZCEVAYMJH1J09SVGNZUDG", "dateTime": 1516730266471}, {"current_trial": 82, "trialdata": {"rt": -1, "trial_type": "single-stim", "stimulus": "<p id=\"stim\">6</p>", "internal_node_id": "0.0-60.0-4.0", "time_elapsed": 1070584, "key_press": -1, "trial_index": 82}, "uniqueid": "MTK2091:3NKQQ8O39ZCEVAYMJH1J09SVGNZUDG", "dateTime": 1516730267473}, {"current_trial": 83, "trialdata": {"rt": -1, "trial_type": "single-stim", "stimulus": "<p id=\"stim\">5</p>", "internal_node_id": "0.0-60.0-5.0", "time_elapsed": 1071589, "key_press": -1, "trial_index": 83}, "uniqueid": "MTK2091:3NKQQ8O39ZCEVAYMJH1J09SVGNZUDG", "dateTime": 1516730268477}, {"current_trial": 84, "trialdata": {"rt": -1, "trial_type": "single-stim", "stimulus": "<p id=\"stim\">4</p>", "internal_node_id": "0.0-60.0-6.0", "time_elapsed": 1072593, "key_press": -1, "trial_index": 84}, "uniqueid": "MTK2091:3NKQQ8O39ZCEVAYMJH1J09SVGNZUDG", "dateTime": 1516730269482}, {"current_trial": 85, "trialdata": {"rt": -1, "trial_type": "single-stim", "stimulus": "<p id=\"stim\">3</p>", "internal_node_id": "0.0-60.0-7.0", "time_elapsed": 1073597, "key_press": -1, "trial_index": 85}, "uniqueid": "MTK2091:3NKQQ8O39ZCEVAYMJH1J09SVGNZUDG", "dateTime": 1516730270485}, {"current_trial": 86, "trialdata": {"rt": -1, "trial_type": "single-stim", "stimulus": "<p id=\"stim\">2</p>", "internal_node_id": "0.0-60.0-8.0", "time_elapsed": 1074601, "key_press": -1, "trial_index": 86}, "uniqueid": "MTK2091:3NKQQ8O39ZCEVAYMJH1J09SVGNZUDG", "dateTime": 1516730271489}, {"current_trial": 87, "trialdata": {"rt": -1, "trial_type": "single-stim", "stimulus": "<p id=\"stim\">1</p>", "internal_node_id": "0.0-60.0-9.0", "time_elapsed": 1075605, "key_press": -1, "trial_index": 87}, "uniqueid": "MTK2091:3NKQQ8O39ZCEVAYMJH1J09SVGNZUDG", "dateTime": 1516730272493}, {"current_trial": 88, "trialdata": {"rt": -1, "trial_type": "single-stim", "stimulus": "<p id=\"stim\">+</p>", "internal_node_id": "0.0-61.0-0.0", "time_elapsed": 1077108, "key_press": -1, "type": "FIXATION", "trial_index": 88}, "uniqueid": "MTK2091:3NKQQ8O39ZCEVAYMJH1J09SVGNZUDG", "dateTime": 1516730273996}, {"current_trial": 89, "trialdata": {"rt": -1000, "trial_type": "single-audio", "word": "doughnut", "stimulus": "/static/audio/wordpool/DOUGHNUT.wav", "conditions": [24, 800, "a", 24000], "internal_node_id": "0.0-62.0", "trial": 2, "time_elapsed": 1078854, "serialpos": 0, "key_press": -1, "wordID": 489, "type": "PRES_AUD", "trial_index": 89}, "uniqueid": "MTK2091:3NKQQ8O39ZCEVAYMJH1J09SVGNZUDG", "dateTime": 1516730275742}, {"current_trial": 90, "trialdata": {"rt": -1000, "trial_type": "single-audio", "word": "cook", "stimulus": "/static/audio/wordpool/COOK.wav", "conditions": [24, 800, "a", 24000], "internal_node_id": "0.0-63.0", "trial": 2, "time_elapsed": 1080461, "serialpos": 1, "key_press": -1, "wordID": 371, "type": "PRES_AUD", "trial_index": 90}, "uniqueid": "MTK2091:3NKQQ8O39ZCEVAYMJH1J09SVGNZUDG", "dateTime": 1516730277349}, {"current_trial": 91, "trialdata": {"rt": -1000, "trial_type": "single-audio", "word": "sparrow", "stimulus": "/static/audio/wordpool/SPARROW.wav", "conditions": [24, 800, "a", 24000], "internal_node_id": "0.0-64.0", "trial": 2, "time_elapsed": 1082238, "serialpos": 2, "key_press": -1, "wordID": 1346, "type": "PRES_AUD", "trial_index": 91}, "uniqueid": "MTK2091:3NKQQ8O39ZCEVAYMJH1J09SVGNZUDG", "dateTime": 1516730279126}, {"current_trial": 92, "trialdata": {"rt": -1000, "trial_type": "single-audio", "word": "robin", "stimulus": "/static/audio/wordpool/ROBIN.wav", "conditions": [24, 800, "a", 24000], "internal_node_id": "0.0-65.0", "trial": 2, "time_elapsed": 1084078, "serialpos": 3, "key_press": -1, "wordID": 1198, "type": "PRES_AUD", "trial_index": 92}, "uniqueid": "MTK2091:3NKQQ8O39ZCEVAYMJH1J09SVGNZUDG", "dateTime": 1516730280966}, {"current_trial": 93, "trialdata": {"rt": -1000, "trial_type": "single-audio", "word": "clamp", "stimulus": "/static/audio/wordpool/CLAMP.wav", "conditions": [24, 800, "a", 24000], "internal_node_id": "0.0-66.0", "trial": 2, "time_elapsed": 1085814, "serialpos": 4, "key_press": -1, "wordID": 315, "type": "PRES_AUD", "trial_index": 93}, "uniqueid": "MTK2091:3NKQQ8O39ZCEVAYMJH1J09SVGNZUDG", "dateTime": 1516730282702}, {"current_trial": 94, "trialdata": {"rt": -1000, "trial_type": "single-audio", "word": "rod", "stimulus": "/static/audio/wordpool/ROD.wav", "conditions": [24, 800, "a", 24000], "internal_node_id": "0.0-67.0", "trial": 2, "time_elapsed": 1087712, "serialpos": 5, "key_press": -1, "wordID": 1202, "type": "PRES_AUD", "trial_index": 94}, "uniqueid": "MTK2091:3NKQQ8O39ZCEVAYMJH1J09SVGNZUDG", "dateTime": 1516730284600}, {"current_trial": 95, "trialdata": {"rt": -1000, "trial_type": "single-audio", "word": "shirt", "stimulus": "/static/audio/wordpool/SHIRT.wav", "conditions": [24, 800, "a", 24000], "internal_node_id": "0.0-68.0", "trial": 2, "time_elapsed": 1089419, "serialpos": 6, "key_press": -1, "wordID": 1286, "type": "PRES_AUD", "trial_index": 95}, "uniqueid": "MTK2091:3NKQQ8O39ZCEVAYMJH1J09SVGNZUDG", "dateTime": 1516730286307}, {"current_trial": 96, "trialdata": {"rt": -1000, "trial_type": "single-audio", "word": "package", "stimulus": "/static/audio/wordpool/PACKAGE.wav", "conditions": [24, 800, "a", 24000], "internal_node_id": "0.0-69.0", "trial": 2, "time_elapsed": 1091375, "serialpos": 7, "key_press": -1, "wordID": 996, "type": "PRES_AUD", "trial_index": 96}, "uniqueid": "MTK2091:3NKQQ8O39ZCEVAYMJH1J09SVGNZUDG", "dateTime": 1516730288263}, {"current_trial": 97, "trialdata": {"rt": -1000, "trial_type": "single-audio", "word": "paddle", "stimulus": "/static/audio/wordpool/PADDLE.wav", "conditions": [24, 800, "a", 24000], "internal_node_id": "0.0-70.0", "trial": 2, "time_elapsed": 1093279, "serialpos": 8, "key_press": -1, "wordID": 999, "type": "PRES_AUD", "trial_index": 97}, "uniqueid": "MTK2091:3NKQQ8O39ZCEVAYMJH1J09SVGNZUDG", "dateTime": 1516730290167}, {"current_trial": 98, "trialdata": {"rt": -1000, "trial_type": "single-audio", "word": "blouse", "stimulus": "/static/audio/wordpool/BLOUSE.wav", "conditions": [24, 800, "a", 24000], "internal_node_id": "0.0-71.0", "trial": 2, "time_elapsed": 1094899, "serialpos": 9, "key_press": -1, "wordID": 138, "type": "PRES_AUD", "trial_index": 98}, "uniqueid": "MTK2091:3NKQQ8O39ZCEVAYMJH1J09SVGNZUDG", "dateTime": 1516730291787}, {"current_trial": 99, "trialdata": {"rt": -1000, "trial_type": "single-audio", "word": "crown", "stimulus": "/static/audio/wordpool/CROWN.wav", "conditions": [24, 800, "a", 24000], "internal_node_id": "0.0-72.0", "trial": 2, "time_elapsed": 1096827, "serialpos": 10, "key_press": -1, "wordID": 414, "type": "PRES_AUD", "trial_index": 99}, "uniqueid": "MTK2091:3NKQQ8O39ZCEVAYMJH1J09SVGNZUDG", "dateTime": 1516730293715}, {"current_trial": 100, "trialdata": {"rt": -1000, "trial_type": "single-audio", "word": "hamper", "stimulus": "/static/audio/wordpool/HAMPER.wav", "conditions": [24, 800, "a", 24000], "internal_node_id": "0.0-73.0", "trial": 2, "time_elapsed": 1098758, "serialpos": 11, "key_press": -1, "wordID": 681, "type": "PRES_AUD", "trial_index": 100}, "uniqueid": "MTK2091:3NKQQ8O39ZCEVAYMJH1J09SVGNZUDG", "dateTime": 1516730295646}, {"current_trial": 101, "trialdata": {"rt": -1000, "trial_type": "single-audio", "word": "dorm", "stimulus": "/static/audio/wordpool/DORM.wav", "conditions": [24, 800, "a", 24000], "internal_node_id": "0.0-74.0", "trial": 2, "time_elapsed": 1100611, "serialpos": 12, "key_press": -1, "wordID": 487, "type": "PRES_AUD", "trial_index": 101}, "uniqueid": "MTK2091:3NKQQ8O39ZCEVAYMJH1J09SVGNZUDG", "dateTime": 1516730297499}, {"current_trial": 102, "trialdata": {"rt": -1000, "trial_type": "single-audio", "word": "mammal", "stimulus": "/static/audio/wordpool/MAMMAL.wav", "conditions": [24, 800, "a", 24000], "internal_node_id": "0.0-75.0", "trial": 2, "time_elapsed": 1102232, "serialpos": 13, "key_press": -1, "wordID": 860, "type": "PRES_AUD", "trial_index": 102}, "uniqueid": "MTK2091:3NKQQ8O39ZCEVAYMJH1J09SVGNZUDG", "dateTime": 1516730299120}, {"current_trial": 103, "trialdata": {"rt": -1000, "trial_type": "single-audio", "word": "catcher", "stimulus": "/static/audio/wordpool/CATCHER.wav", "conditions": [24, 800, "a", 24000], "internal_node_id": "0.0-76.0", "trial": 2, "time_elapsed": 1104117, "serialpos": 14, "key_press": -1, "wordID": 257, "type": "PRES_AUD", "trial_index": 103}, "uniqueid": "MTK2091:3NKQQ8O39ZCEVAYMJH1J09SVGNZUDG", "dateTime": 1516730301005}, {"current_trial": 104, "trialdata": {"rt": -1000, "trial_type": "single-audio", "word": "jelly", "stimulus": "/static/audio/wordpool/JELLY.wav", "conditions": [24, 800, "a", 24000], "internal_node_id": "0.0-77.0", "trial": 2, "time_elapsed": 1105969, "serialpos": 15, "key_press": -1, "wordID": 754, "type": "PRES_AUD", "trial_index": 104}, "uniqueid": "MTK2091:3NKQQ8O39ZCEVAYMJH1J09SVGNZUDG", "dateTime": 1516730302858}, {"current_trial": 105, "trialdata": {"rt": -1000, "trial_type": "single-audio", "word": "jello", "stimulus": "/static/audio/wordpool/JELLO.wav", "conditions": [24, 800, "a", 24000], "internal_node_id": "0.0-78.0", "trial": 2, "time_elapsed": 1107914, "serialpos": 16, "key_press": -1, "wordID": 753, "type": "PRES_AUD", "trial_index": 105}, "uniqueid": "MTK2091:3NKQQ8O39ZCEVAYMJH1J09SVGNZUDG", "dateTime": 1516730304802}, {"current_trial": 106, "trialdata": {"rt": -1000, "trial_type": "single-audio", "word": "primate", "stimulus": "/static/audio/wordpool/PRIMATE.wav", "conditions": [24, 800, "a", 24000], "internal_node_id": "0.0-79.0", "trial": 2, "time_elapsed": 1109894, "serialpos": 17, "key_press": -1, "wordID": 1122, "type": "PRES_AUD", "trial_index": 106}, "uniqueid": "MTK2091:3NKQQ8O39ZCEVAYMJH1J09SVGNZUDG", "dateTime": 1516730306782}, {"current_trial": 107, "trialdata": {"rt": -1000, "trial_type": "single-audio", "word": "atom", "stimulus": "/static/audio/wordpool/ATOM.wav", "conditions": [24, 800, "a", 24000], "internal_node_id": "0.0-80.0", "trial": 2, "time_elapsed": 1111606, "serialpos": 18, "key_press": -1, "wordID": 54, "type": "PRES_AUD", "trial_index": 107}, "uniqueid": "MTK2091:3NKQQ8O39ZCEVAYMJH1J09SVGNZUDG", "dateTime": 1516730308495}, {"current_trial": 108, "trialdata": {"rt": -1000, "trial_type": "single-audio", "word": "scalpel", "stimulus": "/static/audio/wordpool/SCALPEL.wav", "conditions": [24, 800, "a", 24000], "internal_node_id": "0.0-81.0", "trial": 2, "time_elapsed": 1113487, "serialpos": 19, "key_press": -1, "wordID": 1242, "type": "PRES_AUD", "trial_index": 108}, "uniqueid": "MTK2091:3NKQQ8O39ZCEVAYMJH1J09SVGNZUDG", "dateTime": 1516730310375}, {"current_trial": 109, "trialdata": {"rt": -1000, "trial_type": "single-audio", "word": "nurse", "stimulus": "/static/audio/wordpool/NURSE.wav", "conditions": [24, 800, "a", 24000], "internal_node_id": "0.0-82.0", "trial": 2, "time_elapsed": 1115304, "serialpos": 20, "key_press": -1, "wordID": 962, "type": "PRES_AUD", "trial_index": 109}, "uniqueid": "MTK2091:3NKQQ8O39ZCEVAYMJH1J09SVGNZUDG", "dateTime": 1516730312192}, {"current_trial": 110, "trialdata": {"rt": -1000, "trial_type": "single-audio", "word": "preacher", "stimulus": "/static/audio/wordpool/PREACHER.wav", "conditions": [24, 800, "a", 24000], "internal_node_id": "0.0-83.0", "trial": 2, "time_elapsed": 1116927, "serialpos": 21, "key_press": -1, "wordID": 1118, "type": "PRES_AUD", "trial_index": 110}, "uniqueid": "MTK2091:3NKQQ8O39ZCEVAYMJH1J09SVGNZUDG", "dateTime": 1516730313815}, {"current_trial": 111, "trialdata": {"rt": -1000, "trial_type": "single-audio", "word": "breast", "stimulus": "/static/audio/wordpool/BREAST.wav", "conditions": [24, 800, "a", 24000], "internal_node_id": "0.0-84.0", "trial": 2, "time_elapsed": 1118671, "serialpos": 22, "key_press": -1, "wordID": 170, "type": "PRES_AUD", "trial_index": 111}, "uniqueid": "MTK2091:3NKQQ8O39ZCEVAYMJH1J09SVGNZUDG", "dateTime": 1516730315559}, {"current_trial": 112, "trialdata": {"rt": -1000, "trial_type": "single-audio", "word": "panther", "stimulus": "/static/audio/wordpool/PANTHER.wav", "conditions": [24, 800, "a", 24000], "internal_node_id": "0.0-85.0", "trial": 2, "time_elapsed": 1120488, "serialpos": 23, "key_press": -1, "wordID": 1008, "type": "PRES_AUD", "trial_index": 112}, "uniqueid": "MTK2091:3NKQQ8O39ZCEVAYMJH1J09SVGNZUDG", "dateTime": 1516730317376}, {"current_trial": 113, "trialdata": {"rt": -1, "trial_type": "single-stim", "stimulus": "", "internal_node_id": "0.0-86.0-0.0", "time_elapsed": 1121760, "key_press": -1, "type": "PRE_RECALL_DELAY", "trial_index": 113}, "uniqueid": "MTK2091:3NKQQ8O39ZCEVAYMJH1J09SVGNZUDG", "dateTime": 1516730318648}, {"current_trial": 114, "trialdata": {"rt": -1000, "trial_type": "single-audio", "stimulus": "/static/audio/400Hz.wav", "internal_node_id": "0.0-87.0", "time_elapsed": 1122261, "key_press": -1, "type": "PRE_RECALL_ALERT", "trial_index": 114}, "uniqueid": "MTK2091:3NKQQ8O39ZCEVAYMJH1J09SVGNZUDG", "dateTime": 1516730319149}, {"current_trial": 115, "trialdata": {"rt": [5076, 7700, 10116, 12389, 15940, 18156, 20108, 22188, 27956, 32700, 42610, 47555, 51253], "recwords": ["panther", "breast", "preacher", "scalpel", "nurse", "sparrow", "robin", "donut", "chef", "primate", "crown", "jelly", "jell-o"], "key_times": [2068, 2267, 2563, 2847, 2996, 3214, 3339, 5076, 6036, 6196, 6348, 6684, 6892, 7284, 7700, 8284, 8468, 8580, 8900, 9148, 9356, 9548, 9676, 10116, 10460, 10715, 10939, 11043, 11299, 11412, 11563, 12389, 14540, 15012, 15132, 15412, 15692, 15940, 16436, 16612, 16764, 17332, 17460, 17564, 17812, 18156, 18740, 18852, 19228, 19444, 19620, 20108, 20900, 21020, 21252, 21492, 21948, 22188, 24117, 25436, 25580, 25884, 27956, 31276, 31517, 31653, 31852, 31972, 32252, 32508, 32700, 41067, 41339, 41467, 41643, 41818, 42610, 46418, 46659, 46811, 46970, 47283, 47555, 48083, 48227, 48371, 48515, 48771, 49323, 50253, 50787, 51253], "trial_type": "free-recall", "conditions": [24, 800, "a", 24000], "internal_node_id": "0.0-88.0-0.0", "key_presses": [80, 65, 78, 84, 72, 69, 82, 13, 66, 82, 69, 65, 83, 84, 13, 80, 82, 69, 65, 67, 72, 69, 82, 13, 83, 67, 65, 76, 80, 69, 76, 13, 78, 85, 82, 83, 69, 13, 83, 80, 65, 82, 82, 79, 87, 13, 82, 79, 66, 73, 78, 13, 68, 79, 78, 85, 84, 13, 67, 72, 69, 70, 13, 80, 82, 73, 77, 65, 84, 69, 13, 67, 82, 79, 87, 78, 13, 74, 69, 76, 76, 89, 13, 74, 69, 76, 76, 80, 8, 189, 79, 13], "trial": 2, "time_elapsed": 1182267, "type": "FREE_RECALL", "trial_index": 115}, "uniqueid": "MTK2091:3NKQQ8O39ZCEVAYMJH1J09SVGNZUDG", "dateTime": 1516730379159}, {"current_trial": 116, "trialdata": {"rt": 2209, "trial_type": "text", "internal_node_id": "0.0-89.0", "time_elapsed": 1186485, "key_press": 68, "type": "INSTRUCTIONS", "trial_index": 116}, "uniqueid": "MTK2091:3NKQQ8O39ZCEVAYMJH1J09SVGNZUDG", "dateTime": 1516730383373}, {"current_trial": 117, "trialdata": {"rt": [3552, 7472, 11184], "trial_type": "math-distractor", "key_times": [2680, 2920, 3552, 6720, 6960, 7472, 10386, 10536, 11184], "responses": ["10", "20", "18"], "num2": [1, 4, 7, 9], "num3": [7, 8, 8, 5], "conditions": [24, 1600, "a", 12000], "internal_node_id": "0.0-90.0", "key_presses": [49, 48, 13, 50, 48, 13, 49, 56, 13], "trial": 3, "time_elapsed": 1200494, "type": "DISTRACTOR", "trial_index": 117, "num1": [2, 8, 3, 5]}, "uniqueid": "MTK2091:3NKQQ8O39ZCEVAYMJH1J09SVGNZUDG", "dateTime": 1516730397382}, {"current_trial": 118, "trialdata": {"rt": -1, "trial_type": "single-stim", "stimulus": "<p id=\"stim\">10</p>", "internal_node_id": "0.0-91.0-0.0", "time_elapsed": 1203500, "key_press": -1, "trial_index": 118}, "uniqueid": "MTK2091:3NKQQ8O39ZCEVAYMJH1J09SVGNZUDG", "dateTime": 1516730400388}, {"current_trial": 119, "trialdata": {"rt": -1, "trial_type": "single-stim", "stimulus": "<p id=\"stim\">9</p>", "internal_node_id": "0.0-91.0-1.0", "time_elapsed": 1204504, "key_press": -1, "trial_index": 119}, "uniqueid": "MTK2091:3NKQQ8O39ZCEVAYMJH1J09SVGNZUDG", "dateTime": 1516730401392}, {"current_trial": 120, "trialdata": {"rt": -1, "trial_type": "single-stim", "stimulus": "<p id=\"stim\">8</p>", "internal_node_id": "0.0-91.0-2.0", "time_elapsed": 1205508, "key_press": -1, "trial_index": 120}, "uniqueid": "MTK2091:3NKQQ8O39ZCEVAYMJH1J09SVGNZUDG", "dateTime": 1516730402396}, {"current_trial": 121, "trialdata": {"rt": -1, "trial_type": "single-stim", "stimulus": "<p id=\"stim\">7</p>", "internal_node_id": "0.0-91.0-3.0", "time_elapsed": 1206512, "key_press": -1, "trial_index": 121}, "uniqueid": "MTK2091:3NKQQ8O39ZCEVAYMJH1J09SVGNZUDG", "dateTime": 1516730403401}, {"current_trial": 122, "trialdata": {"rt": -1, "trial_type": "single-stim", "stimulus": "<p id=\"stim\">6</p>", "internal_node_id": "0.0-91.0-4.0", "time_elapsed": 1207517, "key_press": -1, "trial_index": 122}, "uniqueid": "MTK2091:3NKQQ8O39ZCEVAYMJH1J09SVGNZUDG", "dateTime": 1516730404405}, {"current_trial": 123, "trialdata": {"rt": -1, "trial_type": "single-stim", "stimulus": "<p id=\"stim\">5</p>", "internal_node_id": "0.0-91.0-5.0", "time_elapsed": 1208521, "key_press": -1, "trial_index": 123}, "uniqueid": "MTK2091:3NKQQ8O39ZCEVAYMJH1J09SVGNZUDG", "dateTime": 1516730405409}, {"current_trial": 124, "trialdata": {"rt": -1, "trial_type": "single-stim", "stimulus": "<p id=\"stim\">4</p>", "internal_node_id": "0.0-91.0-6.0", "time_elapsed": 1209525, "key_press": -1, "trial_index": 124}, "uniqueid": "MTK2091:3NKQQ8O39ZCEVAYMJH1J09SVGNZUDG", "dateTime": 1516730406413}, {"current_trial": 125, "trialdata": {"rt": -1, "trial_type": "single-stim", "stimulus": "<p id=\"stim\">3</p>", "internal_node_id": "0.0-91.0-7.0", "time_elapsed": 1210530, "key_press": -1, "trial_index": 125}, "uniqueid": "MTK2091:3NKQQ8O39ZCEVAYMJH1J09SVGNZUDG", "dateTime": 1516730407419}, {"current_trial": 126, "trialdata": {"rt": -1, "trial_type": "single-stim", "stimulus": "<p id=\"stim\">2</p>", "internal_node_id": "0.0-91.0-8.0", "time_elapsed": 1211534, "key_press": -1, "trial_index": 126}, "uniqueid": "MTK2091:3NKQQ8O39ZCEVAYMJH1J09SVGNZUDG", "dateTime": 1516730408422}, {"current_trial": 127, "trialdata": {"rt": -1, "trial_type": "single-stim", "stimulus": "<p id=\"stim\">1</p>", "internal_node_id": "0.0-91.0-9.0", "time_elapsed": 1212538, "key_press": -1, "trial_index": 127}, "uniqueid": "MTK2091:3NKQQ8O39ZCEVAYMJH1J09SVGNZUDG", "dateTime": 1516730409426}, {"current_trial": 128, "trialdata": {"rt": -1, "trial_type": "single-stim", "stimulus": "<p id=\"stim\">+</p>", "internal_node_id": "0.0-92.0-0.0", "time_elapsed": 1214040, "key_press": -1, "type": "FIXATION", "trial_index": 128}, "uniqueid": "MTK2091:3NKQQ8O39ZCEVAYMJH1J09SVGNZUDG", "dateTime": 1516730410928}, {"current_trial": 129, "trialdata": {"rt": -1000, "trial_type": "single-audio", "word": "japan", "stimulus": "/static/audio/wordpool/JAPAN.wav", "conditions": [24, 1600, "a", 12000], "internal_node_id": "0.0-93.0", "trial": 3, "time_elapsed": 1216483, "serialpos": 0, "key_press": -1, "wordID": 748, "type": "PRES_AUD", "trial_index": 129}, "uniqueid": "MTK2091:3NKQQ8O39ZCEVAYMJH1J09SVGNZUDG", "dateTime": 1516730413371}, {"current_trial": 130, "trialdata": {"rt": -1000, "trial_type": "single-audio", "word": "patrol", "stimulus": "/static/audio/wordpool/PATROL.wav", "conditions": [24, 1600, "a", 12000], "internal_node_id": "0.0-94.0", "trial": 3, "time_elapsed": 1219057, "serialpos": 1, "key_press": -1, "wordID": 1026, "type": "PRES_AUD", "trial_index": 130}, "uniqueid": "MTK2091:3NKQQ8O39ZCEVAYMJH1J09SVGNZUDG", "dateTime": 1516730415946}, {"current_trial": 131, "trialdata": {"rt": -1000, "trial_type": "single-audio", "word": "bathtub", "stimulus": "/static/audio/wordpool/BATHTUB.wav", "conditions": [24, 1600, "a", 12000], "internal_node_id": "0.0-95.0", "trial": 3, "time_elapsed": 1221517, "serialpos": 2, "key_press": -1, "wordID": 99, "type": "PRES_AUD", "trial_index": 131}, "uniqueid": "MTK2091:3NKQQ8O39ZCEVAYMJH1J09SVGNZUDG", "dateTime": 1516730418405}, {"current_trial": 132, "trialdata": {"rt": -1000, "trial_type": "single-audio", "word": "dolphin", "stimulus": "/static/audio/wordpool/DOLPHIN.wav", "conditions": [24, 1600, "a", 12000], "internal_node_id": "0.0-96.0", "trial": 3, "time_elapsed": 1223928, "serialpos": 3, "key_press": -1, "wordID": 482, "type": "PRES_AUD", "trial_index": 132}, "uniqueid": "MTK2091:3NKQQ8O39ZCEVAYMJH1J09SVGNZUDG", "dateTime": 1516730420816}, {"current_trial": 133, "trialdata": {"rt": -1000, "trial_type": "single-audio", "word": "turtle", "stimulus": "/static/audio/wordpool/TURTLE.wav", "conditions": [24, 1600, "a", 12000], "internal_node_id": "0.0-97.0", "trial": 3, "time_elapsed": 1226459, "serialpos": 4, "key_press": -1, "wordID": 1521, "type": "PRES_AUD", "trial_index": 133}, "uniqueid": "MTK2091:3NKQQ8O39ZCEVAYMJH1J09SVGNZUDG", "dateTime": 1516730423347}, {"current_trial": 134, "trialdata": {"rt": -1000, "trial_type": "single-audio", "word": "freezer", "stimulus": "/static/audio/wordpool/FREEZER.wav", "conditions": [24, 1600, "a", 12000], "internal_node_id": "0.0-98.0", "trial": 3, "time_elapsed": 1228866, "serialpos": 5, "key_press": -1, "wordID": 603, "type": "PRES_AUD", "trial_index": 134}, "uniqueid": "MTK2091:3NKQQ8O39ZCEVAYMJH1J09SVGNZUDG", "dateTime": 1516730425754}, {"current_trial": 135, "trialdata": {"rt": -1000, "trial_type": "single-audio", "word": "egypt", "stimulus": "/static/audio/wordpool/EGYPT.wav", "conditions": [24, 1600, "a", 12000], "internal_node_id": "0.0-99.0", "trial": 3, "time_elapsed": 1231490, "serialpos": 6, "key_press": -1, "wordID": 518, "type": "PRES_AUD", "trial_index": 135}, "uniqueid": "MTK2091:3NKQQ8O39ZCEVAYMJH1J09SVGNZUDG", "dateTime": 1516730428378}, {"current_trial": 136, "trialdata": {"rt": -1000, "trial_type": "single-audio", "word": "cowboy", "stimulus": "/static/audio/wordpool/COWBOY.wav", "conditions": [24, 1600, "a", 12000], "internal_node_id": "0.0-100.0", "trial": 3, "time_elapsed": 1234085, "serialpos": 7, "key_press": -1, "wordID": 394, "type": "PRES_AUD", "trial_index": 136}, "uniqueid": "MTK2091:3NKQQ8O39ZCEVAYMJH1J09SVGNZUDG", "dateTime": 1516730430973}, {"current_trial": 137, "trialdata": {"rt": -1000, "trial_type": "single-audio", "word": "police", "stimulus": "/static/audio/wordpool/POLICE.wav", "conditions": [24, 1600, "a", 12000], "internal_node_id": "0.0-101.0", "trial": 3, "time_elapsed": 1236571, "serialpos": 8, "key_press": -1, "wordID": 1097, "type": "PRES_AUD", "trial_index": 137}, "uniqueid": "MTK2091:3NKQQ8O39ZCEVAYMJH1J09SVGNZUDG", "dateTime": 1516730433459}, {"current_trial": 138, "trialdata": {"rt": -1000, "trial_type": "single-audio", "word": "venus", "stimulus": "/static/audio/wordpool/VENUS.wav", "conditions": [24, 1600, "a", 12000], "internal_node_id": "0.0-102.0", "trial": 3, "time_elapsed": 1239167, "serialpos": 9, "key_press": -1, "wordID": 1556, "type": "PRES_AUD", "trial_index": 138}, "uniqueid": "MTK2091:3NKQQ8O39ZCEVAYMJH1J09SVGNZUDG", "dateTime": 1516730436055}, {"current_trial": 139, "trialdata": {"rt": -1000, "trial_type": "single-audio", "word": "garden", "stimulus": "/static/audio/wordpool/GARDEN.wav", "conditions": [24, 1600, "a", 12000], "internal_node_id": "0.0-103.0", "trial": 3, "time_elapsed": 1241883, "serialpos": 10, "key_press": -1, "wordID": 622, "type": "PRES_AUD", "trial_index": 139}, "uniqueid": "MTK2091:3NKQQ8O39ZCEVAYMJH1J09SVGNZUDG", "dateTime": 1516730438771}, {"current_trial": 140, "trialdata": {"rt": -1000, "trial_type": "single-audio", "word": "crevice", "stimulus": "/static/audio/wordpool/CREVICE.wav", "conditions": [24, 1600, "a", 12000], "internal_node_id": "0.0-104.0", "trial": 3, "time_elapsed": 1244679, "serialpos": 11, "key_press": -1, "wordID": 404, "type": "PRES_AUD", "trial_index": 140}, "uniqueid": "MTK2091:3NKQQ8O39ZCEVAYMJH1J09SVGNZUDG", "dateTime": 1516730441567}, {"current_trial": 141, "trialdata": {"rt": -1000, "trial_type": "single-audio", "word": "globe", "stimulus": "/static/audio/wordpool/GLOBE.wav", "conditions": [24, 1600, "a", 12000], "internal_node_id": "0.0-105.0", "trial": 3, "time_elapsed": 1247131, "serialpos": 12, "key_press": -1, "wordID": 640, "type": "PRES_AUD", "trial_index": 141}, "uniqueid": "MTK2091:3NKQQ8O39ZCEVAYMJH1J09SVGNZUDG", "dateTime": 1516730444019}, {"current_trial": 142, "trialdata": {"rt": -1000, "trial_type": "single-audio", "word": "garbage", "stimulus": "/static/audio/wordpool/GARBAGE.wav", "conditions": [24, 1600, "a", 12000], "internal_node_id": "0.0-106.0", "trial": 3, "time_elapsed": 1249705, "serialpos": 13, "key_press": -1, "wordID": 621, "type": "PRES_AUD", "trial_index": 142}, "uniqueid": "MTK2091:3NKQQ8O39ZCEVAYMJH1J09SVGNZUDG", "dateTime": 1516730446594}, {"current_trial": 143, "trialdata": {"rt": -1000, "trial_type": "single-audio", "word": "eyelash", "stimulus": "/static/audio/wordpool/EYELASH.wav", "conditions": [24, 1600, "a", 12000], "internal_node_id": "0.0-107.0", "trial": 3, "time_elapsed": 1252318, "serialpos": 14, "key_press": -1, "wordID": 545, "type": "PRES_AUD", "trial_index": 143}, "uniqueid": "MTK2091:3NKQQ8O39ZCEVAYMJH1J09SVGNZUDG", "dateTime": 1516730449206}, {"current_trial": 144, "trialdata": {"rt": -1000, "trial_type": "single-audio", "word": "london", "stimulus": "/static/audio/wordpool/LONDON.wav", "conditions": [24, 1600, "a", 12000], "internal_node_id": "0.0-108.0", "trial": 3, "time_elapsed": 1254774, "serialpos": 15, "key_press": -1, "wordID": 842, "type": "PRES_AUD", "trial_index": 144}, "uniqueid": "MTK2091:3NKQQ8O39ZCEVAYMJH1J09SVGNZUDG", "dateTime": 1516730451662}, {"current_trial": 145, "trialdata": {"rt": -1000, "trial_type": "single-audio", "word": "wrench", "stimulus": "/static/audio/wordpool/WRENCH.wav", "conditions": [24, 1600, "a", 12000], "internal_node_id": "0.0-109.0", "trial": 3, "time_elapsed": 1257388, "serialpos": 16, "key_press": -1, "wordID": 1624, "type": "PRES_AUD", "trial_index": 145}, "uniqueid": "MTK2091:3NKQQ8O39ZCEVAYMJH1J09SVGNZUDG", "dateTime": 1516730454276}, {"current_trial": 146, "trialdata": {"rt": -1000, "trial_type": "single-audio", "word": "cottage", "stimulus": "/static/audio/wordpool/COTTAGE.wav", "conditions": [24, 1600, "a", 12000], "internal_node_id": "0.0-110.0", "trial": 3, "time_elapsed": 1260100, "serialpos": 17, "key_press": -1, "wordID": 383, "type": "PRES_AUD", "trial_index": 146}, "uniqueid": "MTK2091:3NKQQ8O39ZCEVAYMJH1J09SVGNZUDG", "dateTime": 1516730456988}, {"current_trial": 147, "trialdata": {"rt": -1000, "trial_type": "single-audio", "word": "cupboard", "stimulus": "/static/audio/wordpool/CUPBOARD.wav", "conditions": [24, 1600, "a", 12000], "internal_node_id": "0.0-111.0", "trial": 3, "time_elapsed": 1262544, "serialpos": 18, "key_press": -1, "wordID": 424, "type": "PRES_AUD", "trial_index": 147}, "uniqueid": "MTK2091:3NKQQ8O39ZCEVAYMJH1J09SVGNZUDG", "dateTime": 1516730459432}, {"current_trial": 148, "trialdata": {"rt": -1000, "trial_type": "single-audio", "word": "hornet", "stimulus": "/static/audio/wordpool/HORNET.wav", "conditions": [24, 1600, "a", 12000], "internal_node_id": "0.0-112.0", "trial": 3, "time_elapsed": 1265307, "serialpos": 19, "key_press": -1, "wordID": 717, "type": "PRES_AUD", "trial_index": 148}, "uniqueid": "MTK2091:3NKQQ8O39ZCEVAYMJH1J09SVGNZUDG", "dateTime": 1516730462195}, {"current_trial": 149, "trialdata": {"rt": -1000, "trial_type": "single-audio", "word": "diner", "stimulus": "/static/audio/wordpool/DINER.wav", "conditions": [24, 1600, "a", 12000], "internal_node_id": "0.0-113.0", "trial": 3, "time_elapsed": 1267908, "serialpos": 20, "key_press": -1, "wordID": 466, "type": "PRES_AUD", "trial_index": 149}, "uniqueid": "MTK2091:3NKQQ8O39ZCEVAYMJH1J09SVGNZUDG", "dateTime": 1516730464796}, {"current_trial": 150, "trialdata": {"rt": -1000, "trial_type": "single-audio", "word": "waiter", "stimulus": "/static/audio/wordpool/WAITER.wav", "conditions": [24, 1600, "a", 12000], "internal_node_id": "0.0-114.0", "trial": 3, "time_elapsed": 1270330, "serialpos": 21, "key_press": -1, "wordID": 1579, "type": "PRES_AUD", "trial_index": 150}, "uniqueid": "MTK2091:3NKQQ8O39ZCEVAYMJH1J09SVGNZUDG", "dateTime": 1516730467218}, {"current_trial": 151, "trialdata": {"rt": -1000, "trial_type": "single-audio", "word": "france", "stimulus": "/static/audio/wordpool/FRANCE.wav", "conditions": [24, 1600, "a", 12000], "internal_node_id": "0.0-115.0", "trial": 3, "time_elapsed": 1272749, "serialpos": 22, "key_press": -1, "wordID": 600, "type": "PRES_AUD", "trial_index": 151}, "uniqueid": "MTK2091:3NKQQ8O39ZCEVAYMJH1J09SVGNZUDG", "dateTime": 1516730469638}, {"current_trial": 152, "trialdata": {"rt": -1000, "trial_type": "single-audio", "word": "europe", "stimulus": "/static/audio/wordpool/EUROPE.wav", "conditions": [24, 1600, "a", 12000], "internal_node_id": "0.0-116.0", "trial": 3, "time_elapsed": 1275176, "serialpos": 23, "key_press": -1, "wordID": 540, "type": "PRES_AUD", "trial_index": 152}, "uniqueid": "MTK2091:3NKQQ8O39ZCEVAYMJH1J09SVGNZUDG", "dateTime": 1516730472064}, {"current_trial": 153, "trialdata": {"rt": -1, "trial_type": "single-stim", "stimulus": "", "internal_node_id": "0.0-117.0-0.0", "time_elapsed": 1276416, "key_press": -1, "type": "PRE_RECALL_DELAY", "trial_index": 153}, "uniqueid": "MTK2091:3NKQQ8O39ZCEVAYMJH1J09SVGNZUDG", "dateTime": 1516730473304}, {"current_trial": 154, "trialdata": {"rt": -1000, "trial_type": "single-audio", "stimulus": "/static/audio/400Hz.wav", "internal_node_id": "0.0-118.0", "time_elapsed": 1276918, "key_press": -1, "type": "PRE_RECALL_ALERT", "trial_index": 154}, "uniqueid": "MTK2091:3NKQQ8O39ZCEVAYMJH1J09SVGNZUDG", "dateTime": 1516730473806}, {"current_trial": 155, "trialdata": {"rt": [3988, 6605, 12869, 16284, 19972, 22684, 25452, 27980, 30629, 32484, 37733, 44890, 57428], "recwords": ["japan", "patrol", "cupboard", "egypt", "londen", "france", "europe", "dolphin", "tortoise", "globe", "bathtub", "crevich", "tortoise"], "key_times": [2092, 2404, 2787, 3108, 3277, 3524, 3988, 4684, 4796, 5196, 5436, 5572, 5852, 6605, 8836, 9252, 9556, 10188, 10460, 10628, 11220, 11371, 11678, 11924, 12869, 13261, 13676, 13876, 14148, 14580, 14732, 15140, 15340, 15668, 16052, 16284, 17340, 17468, 17796, 18044, 18332, 18932, 19092, 19220, 19348, 19972, 20372, 20676, 21084, 21428, 21620, 21756, 22100, 22684, 22957, 23269, 23604, 23845, 24484, 24700, 24885, 25452, 25957, 26149, 26364, 26732, 27244, 27476, 27660, 27980, 28460, 28604, 28748, 28988, 29244, 29597, 29740, 30061, 30629, 31333, 31436, 31653, 32125, 32333, 32484, 34830, 34949, 35197, 35325, 36060, 36500, 36724, 37349, 37524, 37733, 42913, 43113, 43289, 43809, 44009, 44305, 44401, 44890, 55581, 55692, 55909, 56293, 56604, 56836, 56932, 57148, 57428], "trial_type": "free-recall", "conditions": [24, 1600, "a", 12000], "internal_node_id": "0.0-119.0-0.0", "key_presses": [16, 74, 65, 80, 65, 78, 13, 80, 65, 84, 82, 79, 76, 13, 67, 85, 80, 66, 79, 82, 8, 65, 82, 68, 13, 16, 69, 71, 89, 8, 8, 71, 89, 80, 84, 13, 16, 76, 79, 78, 70, 8, 68, 69, 78, 13, 16, 70, 82, 65, 78, 67, 69, 13, 16, 69, 85, 82, 79, 80, 69, 13, 68, 79, 76, 80, 72, 73, 78, 13, 84, 79, 82, 84, 79, 73, 83, 69, 13, 71, 76, 79, 66, 69, 13, 66, 65, 84, 72, 84, 85, 78, 8, 66, 13, 67, 82, 69, 86, 73, 67, 72, 13, 84, 79, 82, 84, 79, 73, 83, 69, 13], "trial": 3, "time_elapsed": 1336928, "type": "FREE_RECALL", "trial_index": 155}, "uniqueid": "MTK2091:3NKQQ8O39ZCEVAYMJH1J09SVGNZUDG", "dateTime": 1516730533819}, {"current_trial": 156, "trialdata": {"rt": 1902, "trial_type": "text", "internal_node_id": "0.0-120.0", "time_elapsed": 1340837, "key_press": 77, "type": "INSTRUCTIONS", "trial_index": 156}, "uniqueid": "MTK2091:3NKQQ8O39ZCEVAYMJH1J09SVGNZUDG", "dateTime": 1516730537726}, {"current_trial": 157, "trialdata": {"rt": [3760, 6176], "trial_type": "math-distractor", "key_times": [3161, 3327, 3760, 5480, 5880, 6176], "responses": ["20", "14"], "num2": [4, 4, 9], "num3": [8, 5, 8], "conditions": [24, 800, "a", 12000], "internal_node_id": "0.0-121.0", "key_presses": [50, 48, 13, 49, 52, 13], "trial": 4, "time_elapsed": 1354845, "type": "DISTRACTOR", "trial_index": 157, "num1": [8, 5, 8]}, "uniqueid": "MTK2091:3NKQQ8O39ZCEVAYMJH1J09SVGNZUDG", "dateTime": 1516730551733}, {"current_trial": 158, "trialdata": {"rt": -1, "trial_type": "single-stim", "stimulus": "<p id=\"stim\">10</p>", "internal_node_id": "0.0-122.0-0.0", "time_elapsed": 1357851, "key_press": -1, "trial_index": 158}, "uniqueid": "MTK2091:3NKQQ8O39ZCEVAYMJH1J09SVGNZUDG", "dateTime": 1516730554739}, {"current_trial": 159, "trialdata": {"rt": -1, "trial_type": "single-stim", "stimulus": "<p id=\"stim\">9</p>", "internal_node_id": "0.0-122.0-1.0", "time_elapsed": 1358855, "key_press": -1, "trial_index": 159}, "uniqueid": "MTK2091:3NKQQ8O39ZCEVAYMJH1J09SVGNZUDG", "dateTime": 1516730555743}, {"current_trial": 160, "trialdata": {"rt": -1, "trial_type": "single-stim", "stimulus": "<p id=\"stim\">8</p>", "internal_node_id": "0.0-122.0-2.0", "time_elapsed": 1359859, "key_press": -1, "trial_index": 160}, "uniqueid": "MTK2091:3NKQQ8O39ZCEVAYMJH1J09SVGNZUDG", "dateTime": 1516730556748}, {"current_trial": 161, "trialdata": {"rt": -1, "trial_type": "single-stim", "stimulus": "<p id=\"stim\">7</p>", "internal_node_id": "0.0-122.0-3.0", "time_elapsed": 1360863, "key_press": -1, "trial_index": 161}, "uniqueid": "MTK2091:3NKQQ8O39ZCEVAYMJH1J09SVGNZUDG", "dateTime": 1516730557752}, {"current_trial": 162, "trialdata": {"rt": -1, "trial_type": "single-stim", "stimulus": "<p id=\"stim\">6</p>", "internal_node_id": "0.0-122.0-4.0", "time_elapsed": 1361868, "key_press": -1, "trial_index": 162}, "uniqueid": "MTK2091:3NKQQ8O39ZCEVAYMJH1J09SVGNZUDG", "dateTime": 1516730558756}, {"current_trial": 163, "trialdata": {"rt": -1, "trial_type": "single-stim", "stimulus": "<p id=\"stim\">5</p>", "internal_node_id": "0.0-122.0-5.0", "time_elapsed": 1362873, "key_press": -1, "trial_index": 163}, "uniqueid": "MTK2091:3NKQQ8O39ZCEVAYMJH1J09SVGNZUDG", "dateTime": 1516730559761}, {"current_trial": 164, "trialdata": {"rt": -1, "trial_type": "single-stim", "stimulus": "<p id=\"stim\">4</p>", "internal_node_id": "0.0-122.0-6.0", "time_elapsed": 1363878, "key_press": -1, "trial_index": 164}, "uniqueid": "MTK2091:3NKQQ8O39ZCEVAYMJH1J09SVGNZUDG", "dateTime": 1516730560767}, {"current_trial": 165, "trialdata": {"rt": -1, "trial_type": "single-stim", "stimulus": "<p id=\"stim\">3</p>", "internal_node_id": "0.0-122.0-7.0", "time_elapsed": 1364881, "key_press": -1, "trial_index": 165}, "uniqueid": "MTK2091:3NKQQ8O39ZCEVAYMJH1J09SVGNZUDG", "dateTime": 1516730561769}, {"current_trial": 166, "trialdata": {"rt": -1, "trial_type": "single-stim", "stimulus": "<p id=\"stim\">2</p>", "internal_node_id": "0.0-122.0-8.0", "time_elapsed": 1365885, "key_press": -1, "trial_index": 166}, "uniqueid": "MTK2091:3NKQQ8O39ZCEVAYMJH1J09SVGNZUDG", "dateTime": 1516730562773}, {"current_trial": 167, "trialdata": {"rt": -1, "trial_type": "single-stim", "stimulus": "<p id=\"stim\">1</p>", "internal_node_id": "0.0-122.0-9.0", "time_elapsed": 1366888, "key_press": -1, "trial_index": 167}, "uniqueid": "MTK2091:3NKQQ8O39ZCEVAYMJH1J09SVGNZUDG", "dateTime": 1516730563776}, {"current_trial": 168, "trialdata": {"rt": -1, "trial_type": "single-stim", "stimulus": "<p id=\"stim\">+</p>", "internal_node_id": "0.0-123.0-0.0", "time_elapsed": 1368392, "key_press": -1, "type": "FIXATION", "trial_index": 168}, "uniqueid": "MTK2091:3NKQQ8O39ZCEVAYMJH1J09SVGNZUDG", "dateTime": 1516730565280}, {"current_trial": 169, "trialdata": {"rt": -1000, "trial_type": "single-audio", "word": "rabbit", "stimulus": "/static/audio/wordpool/RABBIT.wav", "conditions": [24, 800, "a", 12000], "internal_node_id": "0.0-124.0", "trial": 4, "time_elapsed": 1370183, "serialpos": 0, "key_press": -1, "wordID": 1151, "type": "PRES_AUD", "trial_index": 169}, "uniqueid": "MTK2091:3NKQQ8O39ZCEVAYMJH1J09SVGNZUDG", "dateTime": 1516730567071}, {"current_trial": 170, "trialdata": {"rt": -1000, "trial_type": "single-audio", "word": "pilot", "stimulus": "/static/audio/wordpool/PILOT.wav", "conditions": [24, 800, "a", 12000], "internal_node_id": "0.0-125.0", "trial": 4, "time_elapsed": 1372029, "serialpos": 1, "key_press": -1, "wordID": 1069, "type": "PRES_AUD", "trial_index": 170}, "uniqueid": "MTK2091:3NKQQ8O39ZCEVAYMJH1J09SVGNZUDG", "dateTime": 1516730568917}, {"current_trial": 171, "trialdata": {"rt": -1000, "trial_type": "single-audio", "word": "cousin", "stimulus": "/static/audio/wordpool/COUSIN.wav", "conditions": [24, 800, "a", 12000], "internal_node_id": "0.0-126.0", "trial": 4, "time_elapsed": 1373718, "serialpos": 2, "key_press": -1, "wordID": 391, "type": "PRES_AUD", "trial_index": 171}, "uniqueid": "MTK2091:3NKQQ8O39ZCEVAYMJH1J09SVGNZUDG", "dateTime": 1516730570606}, {"current_trial": 172, "trialdata": {"rt": -1000, "trial_type": "single-audio", "word": "film", "stimulus": "/static/audio/wordpool/FILM.wav", "conditions": [24, 800, "a", 12000], "internal_node_id": "0.0-127.0", "trial": 4, "time_elapsed": 1375355, "serialpos": 3, "key_press": -1, "wordID": 564, "type": "PRES_AUD", "trial_index": 172}, "uniqueid": "MTK2091:3NKQQ8O39ZCEVAYMJH1J09SVGNZUDG", "dateTime": 1516730572243}, {"current_trial": 173, "trialdata": {"rt": -1000, "trial_type": "single-audio", "word": "actor", "stimulus": "/static/audio/wordpool/ACTOR.wav", "conditions": [24, 800, "a", 12000], "internal_node_id": "0.0-128.0", "trial": 4, "time_elapsed": 1377349, "serialpos": 4, "key_press": -1, "wordID": 4, "type": "PRES_AUD", "trial_index": 173}, "uniqueid": "MTK2091:3NKQQ8O39ZCEVAYMJH1J09SVGNZUDG", "dateTime": 1516730574237}, {"current_trial": 174, "trialdata": {"rt": -1000, "trial_type": "single-audio", "word": "wife", "stimulus": "/static/audio/wordpool/WIFE.wav", "conditions": [24, 800, "a", 12000], "internal_node_id": "0.0-129.0", "trial": 4, "time_elapsed": 1379109, "serialpos": 5, "key_press": -1, "wordID": 1608, "type": "PRES_AUD", "trial_index": 174}, "uniqueid": "MTK2091:3NKQQ8O39ZCEVAYMJH1J09SVGNZUDG", "dateTime": 1516730575997}, {"current_trial": 175, "trialdata": {"rt": -1000, "trial_type": "single-audio", "word": "quail", "stimulus": "/static/audio/wordpool/QUAIL.wav", "conditions": [24, 800, "a", 12000], "internal_node_id": "0.0-130.0", "trial": 4, "time_elapsed": 1380951, "serialpos": 6, "key_press": -1, "wordID": 1146, "type": "PRES_AUD", "trial_index": 175}, "uniqueid": "MTK2091:3NKQQ8O39ZCEVAYMJH1J09SVGNZUDG", "dateTime": 1516730577839}, {"current_trial": 176, "trialdata": {"rt": -1000, "trial_type": "single-audio", "word": "milk", "stimulus": "/static/audio/wordpool/MILK.wav", "conditions": [24, 800, "a", 12000], "internal_node_id": "0.0-131.0", "trial": 4, "time_elapsed": 1382871, "serialpos": 7, "key_press": -1, "wordID": 894, "type": "PRES_AUD", "trial_index": 176}, "uniqueid": "MTK2091:3NKQQ8O39ZCEVAYMJH1J09SVGNZUDG", "dateTime": 1516730579759}, {"current_trial": 177, "trialdata": {"rt": -1000, "trial_type": "single-audio", "word": "soda", "stimulus": "/static/audio/wordpool/SODA.wav", "conditions": [24, 800, "a", 12000], "internal_node_id": "0.0-132.0", "trial": 4, "time_elapsed": 1384863, "serialpos": 8, "key_press": -1, "wordID": 1340, "type": "PRES_AUD", "trial_index": 177}, "uniqueid": "MTK2091:3NKQQ8O39ZCEVAYMJH1J09SVGNZUDG", "dateTime": 1516730581753}, {"current_trial": 178, "trialdata": {"rt": -1000, "trial_type": "single-audio", "word": "gift", "stimulus": "/static/audio/wordpool/GIFT.wav", "conditions": [24, 800, "a", 12000], "internal_node_id": "0.0-133.0", "trial": 4, "time_elapsed": 1386781, "serialpos": 9, "key_press": -1, "wordID": 634, "type": "PRES_AUD", "trial_index": 178}, "uniqueid": "MTK2091:3NKQQ8O39ZCEVAYMJH1J09SVGNZUDG", "dateTime": 1516730583669}, {"current_trial": 179, "trialdata": {"rt": -1000, "trial_type": "single-audio", "word": "turnip", "stimulus": "/static/audio/wordpool/TURNIP.wav", "conditions": [24, 800, "a", 12000], "internal_node_id": "0.0-134.0", "trial": 4, "time_elapsed": 1388579, "serialpos": 10, "key_press": -1, "wordID": 1520, "type": "PRES_AUD", "trial_index": 179}, "uniqueid": "MTK2091:3NKQQ8O39ZCEVAYMJH1J09SVGNZUDG", "dateTime": 1516730585467}, {"current_trial": 180, "trialdata": {"rt": -1000, "trial_type": "single-audio", "word": "pistol", "stimulus": "/static/audio/wordpool/PISTOL.wav", "conditions": [24, 800, "a", 12000], "internal_node_id": "0.0-135.0", "trial": 4, "time_elapsed": 1390371, "serialpos": 11, "key_press": -1, "wordID": 1074, "type": "PRES_AUD", "trial_index": 180}, "uniqueid": "MTK2091:3NKQQ8O39ZCEVAYMJH1J09SVGNZUDG", "dateTime": 1516730587259}, {"current_trial": 181, "trialdata": {"rt": -1000, "trial_type": "single-audio", "word": "wardrobe", "stimulus": "/static/audio/wordpool/WARDROBE.wav", "conditions": [24, 800, "a", 12000], "internal_node_id": "0.0-136.0", "trial": 4, "time_elapsed": 1392027, "serialpos": 12, "key_press": -1, "wordID": 1586, "type": "PRES_AUD", "trial_index": 181}, "uniqueid": "MTK2091:3NKQQ8O39ZCEVAYMJH1J09SVGNZUDG", "dateTime": 1516730588915}, {"current_trial": 182, "trialdata": {"rt": -1000, "trial_type": "single-audio", "word": "briefcase", "stimulus": "/static/audio/wordpool/BRIEFCASE.wav", "conditions": [24, 800, "a", 12000], "internal_node_id": "0.0-137.0", "trial": 4, "time_elapsed": 1393682, "serialpos": 13, "key_press": -1, "wordID": 174, "type": "PRES_AUD", "trial_index": 182}, "uniqueid": "MTK2091:3NKQQ8O39ZCEVAYMJH1J09SVGNZUDG", "dateTime": 1516730590570}, {"current_trial": 183, "trialdata": {"rt": -1000, "trial_type": "single-audio", "word": "partner", "stimulus": "/static/audio/wordpool/PARTNER.wav", "conditions": [24, 800, "a", 12000], "internal_node_id": "0.0-138.0", "trial": 4, "time_elapsed": 1395411, "serialpos": 14, "key_press": -1, "wordID": 1016, "type": "PRES_AUD", "trial_index": 183}, "uniqueid": "MTK2091:3NKQQ8O39ZCEVAYMJH1J09SVGNZUDG", "dateTime": 1516730592300}, {"current_trial": 184, "trialdata": {"rt": -1000, "trial_type": "single-audio", "word": "victim", "stimulus": "/static/audio/wordpool/VICTIM.wav", "conditions": [24, 800, "a", 12000], "internal_node_id": "0.0-139.0", "trial": 4, "time_elapsed": 1397368, "serialpos": 15, "key_press": -1, "wordID": 1561, "type": "PRES_AUD", "trial_index": 184}, "uniqueid": "MTK2091:3NKQQ8O39ZCEVAYMJH1J09SVGNZUDG", "dateTime": 1516730594256}, {"current_trial": 185, "trialdata": {"rt": -1000, "trial_type": "single-audio", "word": "barrel", "stimulus": "/static/audio/wordpool/BARREL.wav", "conditions": [24, 800, "a", 12000], "internal_node_id": "0.0-140.0", "trial": 4, "time_elapsed": 1398981, "serialpos": 16, "key_press": -1, "wordID": 90, "type": "PRES_AUD", "trial_index": 185}, "uniqueid": "MTK2091:3NKQQ8O39ZCEVAYMJH1J09SVGNZUDG", "dateTime": 1516730595869}, {"current_trial": 186, "trialdata": {"rt": -1000, "trial_type": "single-audio", "word": "chipmunk", "stimulus": "/static/audio/wordpool/CHIPMUNK.wav", "conditions": [24, 800, "a", 12000], "internal_node_id": "0.0-141.0", "trial": 4, "time_elapsed": 1400864, "serialpos": 17, "key_press": -1, "wordID": 303, "type": "PRES_AUD", "trial_index": 186}, "uniqueid": "MTK2091:3NKQQ8O39ZCEVAYMJH1J09SVGNZUDG", "dateTime": 1516730597752}, {"current_trial": 187, "trialdata": {"rt": -1000, "trial_type": "single-audio", "word": "beaver", "stimulus": "/static/audio/wordpool/BEAVER.wav", "conditions": [24, 800, "a", 12000], "internal_node_id": "0.0-142.0", "trial": 4, "time_elapsed": 1402481, "serialpos": 18, "key_press": -1, "wordID": 108, "type": "PRES_AUD", "trial_index": 187}, "uniqueid": "MTK2091:3NKQQ8O39ZCEVAYMJH1J09SVGNZUDG", "dateTime": 1516730599369}, {"current_trial": 188, "trialdata": {"rt": -1000, "trial_type": "single-audio", "word": "plaid", "stimulus": "/static/audio/wordpool/PLAID.wav", "conditions": [24, 800, "a", 12000], "internal_node_id": "0.0-143.0", "trial": 4, "time_elapsed": 1404368, "serialpos": 19, "key_press": -1, "wordID": 1079, "type": "PRES_AUD", "trial_index": 188}, "uniqueid": "MTK2091:3NKQQ8O39ZCEVAYMJH1J09SVGNZUDG", "dateTime": 1516730601257}, {"current_trial": 189, "trialdata": {"rt": -1000, "trial_type": "single-audio", "word": "dustpan", "stimulus": "/static/audio/wordpool/DUSTPAN.wav", "conditions": [24, 800, "a", 12000], "internal_node_id": "0.0-144.0", "trial": 4, "time_elapsed": 1406267, "serialpos": 20, "key_press": -1, "wordID": 508, "type": "PRES_AUD", "trial_index": 189}, "uniqueid": "MTK2091:3NKQQ8O39ZCEVAYMJH1J09SVGNZUDG", "dateTime": 1516730603155}, {"current_trial": 190, "trialdata": {"rt": -1000, "trial_type": "single-audio", "word": "cyclone", "stimulus": "/static/audio/wordpool/CYCLONE.wav", "conditions": [24, 800, "a", 12000], "internal_node_id": "0.0-145.0", "trial": 4, "time_elapsed": 1407980, "serialpos": 21, "key_press": -1, "wordID": 430, "type": "PRES_AUD", "trial_index": 190}, "uniqueid": "MTK2091:3NKQQ8O39ZCEVAYMJH1J09SVGNZUDG", "dateTime": 1516730604868}, {"current_trial": 191, "trialdata": {"rt": -1000, "trial_type": "single-audio", "word": "gallon", "stimulus": "/static/audio/wordpool/GALLON.wav", "conditions": [24, 800, "a", 12000], "internal_node_id": "0.0-146.0", "trial": 4, "time_elapsed": 1409598, "serialpos": 22, "key_press": -1, "wordID": 617, "type": "PRES_AUD", "trial_index": 191}, "uniqueid": "MTK2091:3NKQQ8O39ZCEVAYMJH1J09SVGNZUDG", "dateTime": 1516730606487}, {"current_trial": 192, "trialdata": {"rt": -1000, "trial_type": "single-audio", "word": "ox", "stimulus": "/static/audio/wordpool/OX.wav", "conditions": [24, 800, "a", 12000], "internal_node_id": "0.0-147.0", "trial": 4, "time_elapsed": 1411515, "serialpos": 23, "key_press": -1, "wordID": 993, "type": "PRES_AUD", "trial_index": 192}, "uniqueid": "MTK2091:3NKQQ8O39ZCEVAYMJH1J09SVGNZUDG", "dateTime": 1516730608403}, {"current_trial": 193, "trialdata": {"rt": -1, "trial_type": "single-stim", "stimulus": "", "internal_node_id": "0.0-148.0-0.0", "time_elapsed": 1412787, "key_press": -1, "type": "PRE_RECALL_DELAY", "trial_index": 193}, "uniqueid": "MTK2091:3NKQQ8O39ZCEVAYMJH1J09SVGNZUDG", "dateTime": 1516730609675}, {"current_trial": 194, "trialdata": {"rt": -1000, "trial_type": "single-audio", "stimulus": "/static/audio/400Hz.wav", "internal_node_id": "0.0-149.0", "time_elapsed": 1413289, "key_press": -1, "type": "PRE_RECALL_ALERT", "trial_index": 194}, "uniqueid": "MTK2091:3NKQQ8O39ZCEVAYMJH1J09SVGNZUDG", "dateTime": 1516730610177}, {"current_trial": 195, "trialdata": {"rt": [5004, 6371, 9164, 14236, 16476, 18748, 20764, 22956, 26028, 28917, 32556], "recwords": ["cyclon", "ox", "gallon", "chipmunk", "beaver", "film", "actor", "pilot", "rabbit", "closet", "quil"], "key_times": [2636, 2843, 3028, 3580, 3860, 4107, 5004, 5716, 6164, 6371, 7052, 7388, 7556, 7724, 7964, 8204, 9164, 10268, 10492, 10820, 11028, 11252, 11789, 11931, 12388, 12708, 13036, 13252, 13484, 14236, 14748, 14860, 15100, 15733, 15972, 16052, 16476, 17268, 17404, 17900, 18404, 18748, 19108, 19388, 19780, 20060, 20284, 20764, 21660, 21964, 22196, 22428, 22620, 22956, 23461, 23724, 23877, 24029, 24317, 24484, 26028, 26525, 26652, 26908, 27125, 27413, 27709, 28917, 31028, 31189, 31388, 31981, 32556, 54023, 54149, 54998, 55454], "trial_type": "free-recall", "conditions": [24, 800, "a", 12000], "internal_node_id": "0.0-150.0-0.0", "key_presses": [67, 89, 67, 76, 79, 78, 13, 79, 88, 13, 71, 65, 76, 76, 79, 78, 13, 67, 72, 73, 77, 80, 8, 8, 80, 77, 85, 78, 75, 13, 66, 69, 65, 86, 69, 82, 13, 70, 73, 76, 77, 13, 65, 67, 84, 79, 82, 13, 80, 73, 76, 79, 84, 13, 82, 65, 66, 66, 73, 84, 13, 67, 76, 79, 83, 69, 84, 13, 81, 85, 73, 76, 13, 70, 73, 8, 8], "trial": 4, "time_elapsed": 1473296, "type": "FREE_RECALL", "trial_index": 195}, "uniqueid": "MTK2091:3NKQQ8O39ZCEVAYMJH1J09SVGNZUDG", "dateTime": 1516730670188}, {"current_trial": 196, "trialdata": {"rt": 1430, "trial_type": "text", "internal_node_id": "0.0-151.0", "time_elapsed": 1476734, "key_press": 67, "type": "INSTRUCTIONS", "trial_index": 196}, "uniqueid": "MTK2091:3NKQQ8O39ZCEVAYMJH1J09SVGNZUDG", "dateTime": 1516730673622}, {"current_trial": 197, "trialdata": {"rt": [3570, 7130, 12480, 15016, 23954], "trial_type": "math-distractor", "key_times": [2995, 3114, 3570, 6378, 6506, 7130, 11151, 11720, 12480, 14281, 14728, 15016, 23226, 23762, 23954], "responses": ["10", "21", "15", "14", "17"], "num2": [3, 9, 1, 1, 8, 2], "num3": [4, 9, 6, 7, 5, 9], "conditions": [12, 1600, "a", 24000], "internal_node_id": "0.0-152.0", "key_presses": [49, 48, 13, 50, 49, 13, 49, 53, 13, 49, 52, 13, 49, 55, 13], "trial": 5, "time_elapsed": 1502746, "type": "DISTRACTOR", "trial_index": 197, "num1": [3, 3, 7, 6, 6, 8]}, "uniqueid": "MTK2091:3NKQQ8O39ZCEVAYMJH1J09SVGNZUDG", "dateTime": 1516730699634}, {"current_trial": 198, "trialdata": {"rt": -1, "trial_type": "single-stim", "stimulus": "<p id=\"stim\">10</p>", "internal_node_id": "0.0-153.0-0.0", "time_elapsed": 1505752, "key_press": -1, "trial_index": 198}, "uniqueid": "MTK2091:3NKQQ8O39ZCEVAYMJH1J09SVGNZUDG", "dateTime": 1516730702640}, {"current_trial": 199, "trialdata": {"rt": -1, "trial_type": "single-stim", "stimulus": "<p id=\"stim\">9</p>", "internal_node_id": "0.0-153.0-1.0", "time_elapsed": 1506756, "key_press": -1, "trial_index": 199}, "uniqueid": "MTK2091:3NKQQ8O39ZCEVAYMJH1J09SVGNZUDG", "dateTime": 1516730703645}, {"current_trial": 200, "trialdata": {"rt": -1, "trial_type": "single-stim", "stimulus": "<p id=\"stim\">8</p>", "internal_node_id": "0.0-153.0-2.0", "time_elapsed": 1507761, "key_press": -1, "trial_index": 200}, "uniqueid": "MTK2091:3NKQQ8O39ZCEVAYMJH1J09SVGNZUDG", "dateTime": 1516730704649}, {"current_trial": 201, "trialdata": {"rt": -1, "trial_type": "single-stim", "stimulus": "<p id=\"stim\">7</p>", "internal_node_id": "0.0-153.0-3.0", "time_elapsed": 1508765, "key_press": -1, "trial_index": 201}, "uniqueid": "MTK2091:3NKQQ8O39ZCEVAYMJH1J09SVGNZUDG", "dateTime": 1516730705653}, {"current_trial": 202, "trialdata": {"rt": -1, "trial_type": "single-stim", "stimulus": "<p id=\"stim\">6</p>", "internal_node_id": "0.0-153.0-4.0", "time_elapsed": 1509769, "key_press": -1, "trial_index": 202}, "uniqueid": "MTK2091:3NKQQ8O39ZCEVAYMJH1J09SVGNZUDG", "dateTime": 1516730706657}, {"current_trial": 203, "trialdata": {"rt": -1, "trial_type": "single-stim", "stimulus": "<p id=\"stim\">5</p>", "internal_node_id": "0.0-153.0-5.0", "time_elapsed": 1510773, "key_press": -1, "trial_index": 203}, "uniqueid": "MTK2091:3NKQQ8O39ZCEVAYMJH1J09SVGNZUDG", "dateTime": 1516730707661}, {"current_trial": 204, "trialdata": {"rt": -1, "trial_type": "single-stim", "stimulus": "<p id=\"stim\">4</p>", "internal_node_id": "0.0-153.0-6.0", "time_elapsed": 1511777, "key_press": -1, "trial_index": 204}, "uniqueid": "MTK2091:3NKQQ8O39ZCEVAYMJH1J09SVGNZUDG", "dateTime": 1516730708665}, {"current_trial": 205, "trialdata": {"rt": -1, "trial_type": "single-stim", "stimulus": "<p id=\"stim\">3</p>", "internal_node_id": "0.0-153.0-7.0", "time_elapsed": 1512783, "key_press": -1, "trial_index": 205}, "uniqueid": "MTK2091:3NKQQ8O39ZCEVAYMJH1J09SVGNZUDG", "dateTime": 1516730709672}, {"current_trial": 206, "trialdata": {"rt": -1, "trial_type": "single-stim", "stimulus": "<p id=\"stim\">2</p>", "internal_node_id": "0.0-153.0-8.0", "time_elapsed": 1513788, "key_press": -1, "trial_index": 206}, "uniqueid": "MTK2091:3NKQQ8O39ZCEVAYMJH1J09SVGNZUDG", "dateTime": 1516730710676}, {"current_trial": 207, "trialdata": {"rt": -1, "trial_type": "single-stim", "stimulus": "<p id=\"stim\">1</p>", "internal_node_id": "0.0-153.0-9.0", "time_elapsed": 1514792, "key_press": -1, "trial_index": 207}, "uniqueid": "MTK2091:3NKQQ8O39ZCEVAYMJH1J09SVGNZUDG", "dateTime": 1516730711680}, {"current_trial": 208, "trialdata": {"rt": -1, "trial_type": "single-stim", "stimulus": "<p id=\"stim\">+</p>", "internal_node_id": "0.0-154.0-0.0", "time_elapsed": 1516293, "key_press": -1, "type": "FIXATION", "trial_index": 208}, "uniqueid": "MTK2091:3NKQQ8O39ZCEVAYMJH1J09SVGNZUDG", "dateTime": 1516730713181}, {"current_trial": 209, "trialdata": {"rt": -1000, "trial_type": "single-audio", "word": "spouse", "stimulus": "/static/audio/wordpool/SPOUSE.wav", "conditions": [12, 1600, "a", 24000], "internal_node_id": "0.0-155.0", "trial": 5, "time_elapsed": 1518700, "serialpos": 0, "key_press": -1, "wordID": 1357, "type": "PRES_AUD", "trial_index": 209}, "uniqueid": "MTK2091:3NKQQ8O39ZCEVAYMJH1J09SVGNZUDG", "dateTime": 1516730715588}, {"current_trial": 210, "trialdata": {"rt": -1000, "trial_type": "single-audio", "word": "princess", "stimulus": "/static/audio/wordpool/PRINCESS.wav", "conditions": [12, 1600, "a", 24000], "internal_node_id": "0.0-156.0", "trial": 5, "time_elapsed": 1521191, "serialpos": 1, "key_press": -1, "wordID": 1124, "type": "PRES_AUD", "trial_index": 210}, "uniqueid": "MTK2091:3NKQQ8O39ZCEVAYMJH1J09SVGNZUDG", "dateTime": 1516730718079}, {"current_trial": 211, "trialdata": {"rt": -1000, "trial_type": "single-audio", "word": "shortcake", "stimulus": "/static/audio/wordpool/SHORTCAKE.wav", "conditions": [12, 1600, "a", 24000], "internal_node_id": "0.0-157.0", "trial": 5, "time_elapsed": 1523702, "serialpos": 2, "key_press": -1, "wordID": 1291, "type": "PRES_AUD", "trial_index": 211}, "uniqueid": "MTK2091:3NKQQ8O39ZCEVAYMJH1J09SVGNZUDG", "dateTime": 1516730720592}, {"current_trial": 212, "trialdata": {"rt": -1000, "trial_type": "single-audio", "word": "climber", "stimulus": "/static/audio/wordpool/CLIMBER.wav", "conditions": [12, 1600, "a", 24000], "internal_node_id": "0.0-158.0", "trial": 5, "time_elapsed": 1526154, "serialpos": 3, "key_press": -1, "wordID": 322, "type": "PRES_AUD", "trial_index": 212}, "uniqueid": "MTK2091:3NKQQ8O39ZCEVAYMJH1J09SVGNZUDG", "dateTime": 1516730723042}, {"current_trial": 213, "trialdata": {"rt": -1000, "trial_type": "single-audio", "word": "mars", "stimulus": "/static/audio/wordpool/MARS.wav", "conditions": [12, 1600, "a", 24000], "internal_node_id": "0.0-159.0", "trial": 5, "time_elapsed": 1528705, "serialpos": 4, "key_press": -1, "wordID": 872, "type": "PRES_AUD", "trial_index": 213}, "uniqueid": "MTK2091:3NKQQ8O39ZCEVAYMJH1J09SVGNZUDG", "dateTime": 1516730725593}, {"current_trial": 214, "trialdata": {"rt": -1000, "trial_type": "single-audio", "word": "human", "stimulus": "/static/audio/wordpool/HUMAN.wav", "conditions": [12, 1600, "a", 24000], "internal_node_id": "0.0-160.0", "trial": 5, "time_elapsed": 1531186, "serialpos": 5, "key_press": -1, "wordID": 725, "type": "PRES_AUD", "trial_index": 214}, "uniqueid": "MTK2091:3NKQQ8O39ZCEVAYMJH1J09SVGNZUDG", "dateTime": 1516730728075}, {"current_trial": 215, "trialdata": {"rt": -1000, "trial_type": "single-audio", "word": "dragon", "stimulus": "/static/audio/wordpool/DRAGON.wav", "conditions": [12, 1600, "a", 24000], "internal_node_id": "0.0-161.0", "trial": 5, "time_elapsed": 1533903, "serialpos": 6, "key_press": -1, "wordID": 491, "type": "PRES_AUD", "trial_index": 215}, "uniqueid": "MTK2091:3NKQQ8O39ZCEVAYMJH1J09SVGNZUDG", "dateTime": 1516730730791}, {"current_trial": 216, "trialdata": {"rt": -1000, "trial_type": "single-audio", "word": "waitress", "stimulus": "/static/audio/wordpool/WAITRESS.wav", "conditions": [12, 1600, "a", 24000], "internal_node_id": "0.0-162.0", "trial": 5, "time_elapsed": 1536424, "serialpos": 7, "key_press": -1, "wordID": 1580, "type": "PRES_AUD", "trial_index": 216}, "uniqueid": "MTK2091:3NKQQ8O39ZCEVAYMJH1J09SVGNZUDG", "dateTime": 1516730733312}, {"current_trial": 217, "trialdata": {"rt": -1000, "trial_type": "single-audio", "word": "tractor", "stimulus": "/static/audio/wordpool/TRACTOR.wav", "conditions": [12, 1600, "a", 24000], "internal_node_id": "0.0-163.0", "trial": 5, "time_elapsed": 1539221, "serialpos": 8, "key_press": -1, "wordID": 1492, "type": "PRES_AUD", "trial_index": 217}, "uniqueid": "MTK2091:3NKQQ8O39ZCEVAYMJH1J09SVGNZUDG", "dateTime": 1516730736110}, {"current_trial": 218, "trialdata": {"rt": -1000, "trial_type": "single-audio", "word": "truck", "stimulus": "/static/audio/wordpool/TRUCK.wav", "conditions": [12, 1600, "a", 24000], "internal_node_id": "0.0-164.0", "trial": 5, "time_elapsed": 1541934, "serialpos": 9, "key_press": -1, "wordID": 1511, "type": "PRES_AUD", "trial_index": 218}, "uniqueid": "MTK2091:3NKQQ8O39ZCEVAYMJH1J09SVGNZUDG", "dateTime": 1516730738822}, {"current_trial": 219, "trialdata": {"rt": -1000, "trial_type": "single-audio", "word": "hero", "stimulus": "/static/audio/wordpool/HERO.wav", "conditions": [12, 1600, "a", 24000], "internal_node_id": "0.0-165.0", "trial": 5, "time_elapsed": 1544696, "serialpos": 10, "key_press": -1, "wordID": 705, "type": "PRES_AUD", "trial_index": 219}, "uniqueid": "MTK2091:3NKQQ8O39ZCEVAYMJH1J09SVGNZUDG", "dateTime": 1516730741584}, {"current_trial": 220, "trialdata": {"rt": -1000, "trial_type": "single-audio", "word": "custard", "stimulus": "/static/audio/wordpool/CUSTARD.wav", "conditions": [12, 1600, "a", 24000], "internal_node_id": "0.0-166.0", "trial": 5, "time_elapsed": 1547209, "serialpos": 11, "key_press": -1, "wordID": 428, "type": "PRES_AUD", "trial_index": 220}, "uniqueid": "MTK2091:3NKQQ8O39ZCEVAYMJH1J09SVGNZUDG", "dateTime": 1516730744097}, {"current_trial": 221, "trialdata": {"rt": -1, "trial_type": "single-stim", "stimulus": "", "internal_node_id": "0.0-167.0-0.0", "time_elapsed": 1548452, "key_press": -1, "type": "PRE_RECALL_DELAY", "trial_index": 221}, "uniqueid": "MTK2091:3NKQQ8O39ZCEVAYMJH1J09SVGNZUDG", "dateTime": 1516730745340}, {"current_trial": 222, "trialdata": {"rt": -1000, "trial_type": "single-audio", "stimulus": "/static/audio/400Hz.wav", "internal_node_id": "0.0-168.0", "time_elapsed": 1548954, "key_press": -1, "type": "PRE_RECALL_ALERT", "trial_index": 222}, "uniqueid": "MTK2091:3NKQQ8O39ZCEVAYMJH1J09SVGNZUDG", "dateTime": 1516730745842}, {"current_trial": 223, "trialdata": {"rt": [4456, 7199, 10695, 12879, 15903, 17367, 19464, 26512, 37011, 46490], "recwords": ["spouse", "princess", "short-cake", "climber", "human", "hero", "truck", "mars", "venus", "tractor"], "key_times": [3112, 3175, 3415, 3719, 3823, 4087, 4456, 5279, 5551, 5919, 6070, 6223, 6471, 6759, 6951, 7199, 7639, 7855, 8119, 8247, 8487, 9175, 9471, 9871, 10047, 10263, 10695, 11215, 11303, 11543, 11751, 12040, 12223, 12335, 12879, 13543, 14751, 15040, 15223, 15399, 15903, 16439, 16615, 16775, 17007, 17367, 17896, 18031, 18255, 18455, 18655, 19464, 24569, 24672, 24968, 25256, 26512, 33468, 33668, 33884, 34156, 34460, 35317, 35451, 36611, 36804, 37011, 44379, 44579, 44707, 44987, 45636, 45883, 46091, 46490, 56891, 57339], "trial_type": "free-recall", "conditions": [12, 1600, "a", 24000], "internal_node_id": "0.0-169.0-0.0", "key_presses": [83, 80, 79, 85, 83, 69, 13, 80, 82, 73, 78, 67, 69, 83, 83, 13, 83, 72, 79, 82, 84, 189, 67, 65, 75, 69, 13, 67, 76, 73, 77, 66, 69, 82, 13, 72, 85, 77, 65, 78, 13, 72, 69, 82, 79, 13, 84, 82, 85, 67, 75, 13, 77, 65, 82, 83, 13, 86, 69, 78, 85, 83, 8, 8, 85, 83, 13, 84, 82, 65, 67, 84, 79, 82, 13, 67, 8], "trial": 5, "time_elapsed": 1608961, "type": "FREE_RECALL", "trial_index": 223}, "uniqueid": "MTK2091:3NKQQ8O39ZCEVAYMJH1J09SVGNZUDG", "dateTime": 1516730805854}, {"current_trial": 224, "trialdata": {"rt": 1183, "trial_type": "text", "internal_node_id": "0.0-170.0", "time_elapsed": 1612152, "key_press": 69, "type": "INSTRUCTIONS", "trial_index": 224}, "uniqueid": "MTK2091:3NKQQ8O39ZCEVAYMJH1J09SVGNZUDG", "dateTime": 1516730809040}, {"current_trial": 225, "trialdata": {"rt": [3403, 5779, 8395, 11315, 17884, 21356], "trial_type": "math-distractor", "key_times": [2804, 2995, 3403, 5187, 5499, 5779, 7891, 8059, 8395, 10395, 10907, 11315, 16965, 17596, 17884, 20284, 21028, 21356], "responses": ["12", "14", "12", "10", "28", "16"], "num2": [3, 6, 6, 2, 3, 2, 3], "num3": [1, 1, 4, 1, 9, 7, 7], "conditions": [12, 800, "a", 24000], "internal_node_id": "0.0-171.0", "key_presses": [49, 50, 13, 49, 52, 13, 49, 50, 13, 49, 48, 13, 50, 56, 13, 49, 54, 13], "trial": 6, "time_elapsed": 1638162, "type": "DISTRACTOR", "trial_index": 225, "num1": [8, 7, 2, 7, 6, 7, 7]}, "uniqueid": "MTK2091:3NKQQ8O39ZCEVAYMJH1J09SVGNZUDG", "dateTime": 1516730835050}, {"current_trial": 226, "trialdata": {"rt": -1, "trial_type": "single-stim", "stimulus": "<p id=\"stim\">10</p>", "internal_node_id": "0.0-172.0-0.0", "time_elapsed": 1641166, "key_press": -1, "trial_index": 226}, "uniqueid": "MTK2091:3NKQQ8O39ZCEVAYMJH1J09SVGNZUDG", "dateTime": 1516730838054}, {"current_trial": 227, "trialdata": {"rt": -1, "trial_type": "single-stim", "stimulus": "<p id=\"stim\">9</p>", "internal_node_id": "0.0-172.0-1.0", "time_elapsed": 1642168, "key_press": -1, "trial_index": 227}, "uniqueid": "MTK2091:3NKQQ8O39ZCEVAYMJH1J09SVGNZUDG", "dateTime": 1516730839057}, {"current_trial": 228, "trialdata": {"rt": -1, "trial_type": "single-stim", "stimulus": "<p id=\"stim\">8</p>", "internal_node_id": "0.0-172.0-2.0", "time_elapsed": 1643170, "key_press": -1, "trial_index": 228}, "uniqueid": "MTK2091:3NKQQ8O39ZCEVAYMJH1J09SVGNZUDG", "dateTime": 1516730840059}, {"current_trial": 229, "trialdata": {"rt": -1, "trial_type": "single-stim", "stimulus": "<p id=\"stim\">7</p>", "internal_node_id": "0.0-172.0-3.0", "time_elapsed": 1644172, "key_press": -1, "trial_index": 229}, "uniqueid": "MTK2091:3NKQQ8O39ZCEVAYMJH1J09SVGNZUDG", "dateTime": 1516730841061}, {"current_trial": 230, "trialdata": {"rt": -1, "trial_type": "single-stim", "stimulus": "<p id=\"stim\">6</p>", "internal_node_id": "0.0-172.0-4.0", "time_elapsed": 1645174, "key_press": -1, "trial_index": 230}, "uniqueid": "MTK2091:3NKQQ8O39ZCEVAYMJH1J09SVGNZUDG", "dateTime": 1516730842062}, {"current_trial": 231, "trialdata": {"rt": -1, "trial_type": "single-stim", "stimulus": "<p id=\"stim\">5</p>", "internal_node_id": "0.0-172.0-5.0", "time_elapsed": 1646177, "key_press": -1, "trial_index": 231}, "uniqueid": "MTK2091:3NKQQ8O39ZCEVAYMJH1J09SVGNZUDG", "dateTime": 1516730843066}, {"current_trial": 232, "trialdata": {"rt": -1, "trial_type": "single-stim", "stimulus": "<p id=\"stim\">4</p>", "internal_node_id": "0.0-172.0-6.0", "time_elapsed": 1647181, "key_press": -1, "trial_index": 232}, "uniqueid": "MTK2091:3NKQQ8O39ZCEVAYMJH1J09SVGNZUDG", "dateTime": 1516730844070}, {"current_trial": 233, "trialdata": {"rt": -1, "trial_type": "single-stim", "stimulus": "<p id=\"stim\">3</p>", "internal_node_id": "0.0-172.0-7.0", "time_elapsed": 1648186, "key_press": -1, "trial_index": 233}, "uniqueid": "MTK2091:3NKQQ8O39ZCEVAYMJH1J09SVGNZUDG", "dateTime": 1516730845076}, {"current_trial": 234, "trialdata": {"rt": -1, "trial_type": "single-stim", "stimulus": "<p id=\"stim\">2</p>", "internal_node_id": "0.0-172.0-8.0", "time_elapsed": 1649190, "key_press": -1, "trial_index": 234}, "uniqueid": "MTK2091:3NKQQ8O39ZCEVAYMJH1J09SVGNZUDG", "dateTime": 1516730846078}, {"current_trial": 235, "trialdata": {"rt": -1, "trial_type": "single-stim", "stimulus": "<p id=\"stim\">1</p>", "internal_node_id": "0.0-172.0-9.0", "time_elapsed": 1650194, "key_press": -1, "trial_index": 235}, "uniqueid": "MTK2091:3NKQQ8O39ZCEVAYMJH1J09SVGNZUDG", "dateTime": 1516730847082}, {"current_trial": 236, "trialdata": {"rt": -1, "trial_type": "single-stim", "stimulus": "<p id=\"stim\">+</p>", "internal_node_id": "0.0-173.0-0.0", "time_elapsed": 1651697, "key_press": -1, "type": "FIXATION", "trial_index": 236}, "uniqueid": "MTK2091:3NKQQ8O39ZCEVAYMJH1J09SVGNZUDG", "dateTime": 1516730848585}, {"current_trial": 237, "trialdata": {"rt": -1000, "trial_type": "single-audio", "word": "sidewalk", "stimulus": "/static/audio/wordpool/SIDEWALK.wav", "conditions": [12, 800, "a", 24000], "internal_node_id": "0.0-174.0", "trial": 6, "time_elapsed": 1653679, "serialpos": 0, "key_press": -1, "wordID": 1302, "type": "PRES_AUD", "trial_index": 237}, "uniqueid": "MTK2091:3NKQQ8O39ZCEVAYMJH1J09SVGNZUDG", "dateTime": 1516730850567}, {"current_trial": 238, "trialdata": {"rt": -1000, "trial_type": "single-audio", "word": "pigment", "stimulus": "/static/audio/wordpool/PIGMENT.wav", "conditions": [12, 800, "a", 24000], "internal_node_id": "0.0-175.0", "trial": 6, "time_elapsed": 1655537, "serialpos": 1, "key_press": -1, "wordID": 1065, "type": "PRES_AUD", "trial_index": 238}, "uniqueid": "MTK2091:3NKQQ8O39ZCEVAYMJH1J09SVGNZUDG", "dateTime": 1516730852425}, {"current_trial": 239, "trialdata": {"rt": -1000, "trial_type": "single-audio", "word": "gymnast", "stimulus": "/static/audio/wordpool/GYMNAST.wav", "conditions": [12, 800, "a", 24000], "internal_node_id": "0.0-176.0", "trial": 6, "time_elapsed": 1657301, "serialpos": 2, "key_press": -1, "wordID": 674, "type": "PRES_AUD", "trial_index": 239}, "uniqueid": "MTK2091:3NKQQ8O39ZCEVAYMJH1J09SVGNZUDG", "dateTime": 1516730854189}, {"current_trial": 240, "trialdata": {"rt": -1000, "trial_type": "single-audio", "word": "dancer", "stimulus": "/static/audio/wordpool/DANCER.wav", "conditions": [12, 800, "a", 24000], "internal_node_id": "0.0-177.0", "trial": 6, "time_elapsed": 1659124, "serialpos": 3, "key_press": -1, "wordID": 436, "type": "PRES_AUD", "trial_index": 240}, "uniqueid": "MTK2091:3NKQQ8O39ZCEVAYMJH1J09SVGNZUDG", "dateTime": 1516730856012}, {"current_trial": 241, "trialdata": {"rt": -1000, "trial_type": "single-audio", "word": "slide", "stimulus": "/static/audio/wordpool/SLIDE.wav", "conditions": [12, 800, "a", 24000], "internal_node_id": "0.0-178.0", "trial": 6, "time_elapsed": 1661022, "serialpos": 4, "key_press": -1, "wordID": 1325, "type": "PRES_AUD", "trial_index": 241}, "uniqueid": "MTK2091:3NKQQ8O39ZCEVAYMJH1J09SVGNZUDG", "dateTime": 1516730857910}, {"current_trial": 242, "trialdata": {"rt": -1000, "trial_type": "single-audio", "word": "stone", "stimulus": "/static/audio/wordpool/STONE.wav", "conditions": [12, 800, "a", 24000], "internal_node_id": "0.0-179.0", "trial": 6, "time_elapsed": 1662828, "serialpos": 5, "key_press": -1, "wordID": 1384, "type": "PRES_AUD", "trial_index": 242}, "uniqueid": "MTK2091:3NKQQ8O39ZCEVAYMJH1J09SVGNZUDG", "dateTime": 1516730859716}, {"current_trial": 243, "trialdata": {"rt": -1000, "trial_type": "single-audio", "word": "bullet", "stimulus": "/static/audio/wordpool/BULLET.wav", "conditions": [12, 800, "a", 24000], "internal_node_id": "0.0-180.0", "trial": 6, "time_elapsed": 1664755, "serialpos": 6, "key_press": -1, "wordID": 193, "type": "PRES_AUD", "trial_index": 243}, "uniqueid": "MTK2091:3NKQQ8O39ZCEVAYMJH1J09SVGNZUDG", "dateTime": 1516730861643}, {"current_trial": 244, "trialdata": {"rt": -1000, "trial_type": "single-audio", "word": "match", "stimulus": "/static/audio/wordpool/MATCH.wav", "conditions": [12, 800, "a", 24000], "internal_node_id": "0.0-181.0", "trial": 6, "time_elapsed": 1666694, "serialpos": 7, "key_press": -1, "wordID": 877, "type": "PRES_AUD", "trial_index": 244}, "uniqueid": "MTK2091:3NKQQ8O39ZCEVAYMJH1J09SVGNZUDG", "dateTime": 1516730863582}, {"current_trial": 245, "trialdata": {"rt": -1000, "trial_type": "single-audio", "word": "forest", "stimulus": "/static/audio/wordpool/FOREST.wav", "conditions": [12, 800, "a", 24000], "internal_node_id": "0.0-182.0", "trial": 6, "time_elapsed": 1668674, "serialpos": 8, "key_press": -1, "wordID": 592, "type": "PRES_AUD", "trial_index": 245}, "uniqueid": "MTK209