{"assignmentId": "3FIJLY1B6VBY1P4MT1XFE38HKHXFPM", "workerId": "MTK2078", "questiondata": {"origin": "United States", "strat-rehearsal": "5", "marital": "Single", "education": "Some college", "ethnicity": "Not Hispanic", "color_depth": 24, "distracted": "No", "wrote-notes": "No", "strat-other": "Trying to capture the sound of the reader to mentally listen to the word again.", "screen_width": 1920, "avail_screen_width": 1920, "avail_screen_height": 1040, "strat-image": "61", "language": "English", "gender": "Male", "age": "24", "gender_other": "", "race": ["White"], "strat-categorize": "70", "pixel_depth": 24, "strat-spatial": "90", "strat-story": "35", "race_other": "", "screen_height": 1080}, "bonus": 0, "hitId": "31KPKEKW4AK3D7QSHCRRRSK4FRQB0T", "counterbalance": 2825, "useragent": "Mozilla/5.0 (Windows NT 6.1; Win64; x64) AppleWebKit/537.36 (KHTML, like Gecko) Chrome/63.0.3239.132 Safari/537.36", "eventdata": [{"eventtype": "initialized", "interval": 0, "value": null, "timestamp": 1516688890868}, {"eventtype": "window_resize", "interval": 0, "value": [1916, 1026], "timestamp": 1516688890868}, {"eventtype": "window_resize", "interval": 3502, "value": [1920, 990], "timestamp": 1516688894370}, {"eventtype": "focus", "interval": 4456, "value": "off", "timestamp": 1516688898826}, {"eventtype": "focus", "interval": 6440, "value": "on", "timestamp": 1516688905266}, {"eventtype": "focus", "interval": 5810, "value": "off", "timestamp": 1516688911076}, {"eventtype": "window_resize", "interval": 19798, "value": [1920, 951], "timestamp": 1516688930874}, {"eventtype": "focus", "interval": 1689, "value": "on", "timestamp": 1516688932563}, {"eventtype": "window_resize", "interval": 6194, "value": [1920, 990], "timestamp": 1516688938757}, {"eventtype": "focus", "interval": 1693523, "value": "off", "timestamp": 1516690632280}, {"eventtype": "focus", "interval": 8892, "value": "on", "timestamp": 1516690641172}], "data": [{"current_trial": 0, "trialdata": {"rt": 7580, "trial_type": "text", "internal_node_id": "0.0-0.0", "time_elapsed": 7582, "key_press": 39, "type": "INSTRUCTIONS", "trial_index": 0}, "uniqueid": "MTK2078:3FIJLY1B6VBY1P4MT1XFE38HKHXFPM", "dateTime": 1516688940535}, {"current_trial": 1, "trialdata": {"rt": 15856, "trial_type": "text", "internal_node_id": "0.0-1.0", "time_elapsed": 23440, "key_press": 39, "type": "INSTRUCTIONS", "trial_index": 1}, "uniqueid": "MTK2078:3FIJLY1B6VBY1P4MT1XFE38HKHXFPM", "dateTime": 1516688956393}, {"current_trial": 2, "trialdata": {"rt": [7661], "trial_type": "audio-test", "responses": ["ocean"], "internal_node_id": "0.0-2.0", "time_elapsed": 31112, "type": "AUDIO_TEST", "trial_index": 2}, "uniqueid": "MTK2078:3FIJLY1B6VBY1P4MT1XFE38HKHXFPM", "dateTime": 1516688964065}, {"current_trial": 3, "trialdata": {"rt": [6921], "trial_type": "audio-test", "responses": ["crystal"], "internal_node_id": "0.0-3.0", "time_elapsed": 38038, "type": "AUDIO_TEST", "trial_index": 3}, "uniqueid": "MTK2078:3FIJLY1B6VBY1P4MT1XFE38HKHXFPM", "dateTime": 1516688970991}, {"current_trial": 4, "trialdata": {"rt": [5875], "trial_type": "audio-test", "responses": ["spice"], "internal_node_id": "0.0-4.0", "time_elapsed": 43917, "type": "AUDIO_TEST", "trial_index": 4}, "uniqueid": "MTK2078:3FIJLY1B6VBY1P4MT1XFE38HKHXFPM", "dateTime": 1516688976870}, {"current_trial": 5, "trialdata": {"rt": 22908, "trial_type": "survey-text", "responses": "{\"Q0\":\"12:30 AM\",\"Q1\":\"9:00 AM\",\"Q2\":\"4\"}", "internal_node_id": "0.0-5.0", "time_elapsed": 67577, "type": "SLEEP_SURVEY", "trial_index": 5}, "uniqueid": "MTK2078:3FIJLY1B6VBY1P4MT1XFE38HKHXFPM", "dateTime": 1516689000530}, {"current_trial": 6, "trialdata": {"rt": 40355, "trial_type": "text", "internal_node_id": "0.0-6.0", "time_elapsed": 108932, "key_press": 39, "type": "INSTRUCTIONS", "trial_index": 6}, "uniqueid": "MTK2078:3FIJLY1B6VBY1P4MT1XFE38HKHXFPM", "dateTime": 1516689041885}, {"current_trial": 7, "trialdata": {"rt": 20010, "trial_type": "text", "internal_node_id": "0.0-7.0", "time_elapsed": 129580, "key_press": 39, "type": "INSTRUCTIONS", "trial_index": 7}, "uniqueid": "MTK2078:3FIJLY1B6VBY1P4MT1XFE38HKHXFPM", "dateTime": 1516689062533}, {"current_trial": 8, "trialdata": {"rt": 12363, "trial_type": "text", "internal_node_id": "0.0-8.0", "time_elapsed": 142443, "key_press": 37, "type": "INSTRUCTIONS", "trial_index": 8}, "uniqueid": "MTK2078:3FIJLY1B6VBY1P4MT1XFE38HKHXFPM", "dateTime": 1516689075396}, {"current_trial": 9, "trialdata": {"rt": [3356, 5152, 7495, 8583, 10263, 12150, 13530, 14570, 16345, 17560], "trial_type": "math-distractor", "key_times": [3021, 3125, 3356, 4872, 5004, 5152, 7259, 7359, 7495, 8467, 8583, 9983, 10051, 10263, 11731, 12014, 12150, 13242, 13334, 13530, 14414, 14570, 16133, 16225, 16345, 17289, 17396, 17560], "responses": ["16", "11", "12", "7", "13", "16", "16", "7", "19", "10"], "num2": [3, 4, 4, 2, 4, 6, 6, 2, 8, 1, 1], "num3": [4, 6, 3, 1, 7, 7, 5, 1, 6, 5, 5], "conditions": [18, 1200, "a", 18000], "internal_node_id": "0.0-9.0", "key_presses": [97, 102, 13, 97, 97, 13, 97, 98, 13, 103, 13, 97, 99, 13, 97, 102, 13, 97, 102, 13, 103, 13, 97, 105, 13, 97, 96, 13], "trial": 0, "time_elapsed": 161616, "type": "DISTRACTOR", "trial_index": 9, "num1": [9, 1, 5, 4, 2, 3, 5, 4, 5, 4, 5]}, "uniqueid": "MTK2078:3FIJLY1B6VBY1P4MT1XFE38HKHXFPM", "dateTime": 1516689094569}, {"current_trial": 10, "trialdata": {"rt": -1, "trial_type": "single-stim", "stimulus": "<p id=\"stim\">10</p>", "internal_node_id": "0.0-10.0-0.0", "time_elapsed": 164616, "key_press": -1, "trial_index": 10}, "uniqueid": "MTK2078:3FIJLY1B6VBY1P4MT1XFE38HKHXFPM", "dateTime": 1516689097569}, {"current_trial": 11, "trialdata": {"rt": -1, "trial_type": "single-stim", "stimulus": "<p id=\"stim\">9</p>", "internal_node_id": "0.0-10.0-1.0", "time_elapsed": 165617, "key_press": -1, "trial_index": 11}, "uniqueid": "MTK2078:3FIJLY1B6VBY1P4MT1XFE38HKHXFPM", "dateTime": 1516689098570}, {"current_trial": 12, "trialdata": {"rt": -1, "trial_type": "single-stim", "stimulus": "<p id=\"stim\">8</p>", "internal_node_id": "0.0-10.0-2.0", "time_elapsed": 166617, "key_press": -1, "trial_index": 12}, "uniqueid": "MTK2078:3FIJLY1B6VBY1P4MT1XFE38HKHXFPM", "dateTime": 1516689099570}, {"current_trial": 13, "trialdata": {"rt": 291, "trial_type": "single-stim", "stimulus": "<p id=\"stim\">7</p>", "internal_node_id": "0.0-10.0-3.0", "time_elapsed": 167619, "key_press": 175, "trial_index": 13}, "uniqueid": "MTK2078:3FIJLY1B6VBY1P4MT1XFE38HKHXFPM", "dateTime": 1516689100573}, {"current_trial": 14, "trialdata": {"rt": 55, "trial_type": "single-stim", "stimulus": "<p id=\"stim\">6</p>", "internal_node_id": "0.0-10.0-4.0", "time_elapsed": 168620, "key_press": 175, "trial_index": 14}, "uniqueid": "MTK2078:3FIJLY1B6VBY1P4MT1XFE38HKHXFPM", "dateTime": 1516689101573}, {"current_trial": 15, "trialdata": {"rt": -1, "trial_type": "single-stim", "stimulus": "<p id=\"stim\">5</p>", "internal_node_id": "0.0-10.0-5.0", "time_elapsed": 169620, "key_press": -1, "trial_index": 15}, "uniqueid": "MTK2078:3FIJLY1B6VBY1P4MT1XFE38HKHXFPM", "dateTime": 1516689102573}, {"current_trial": 16, "trialdata": {"rt": -1, "trial_type": "single-stim", "stimulus": "<p id=\"stim\">4</p>", "internal_node_id": "0.0-10.0-6.0", "time_elapsed": 170620, "key_press": -1, "trial_index": 16}, "uniqueid": "MTK2078:3FIJLY1B6VBY1P4MT1XFE38HKHXFPM", "dateTime": 1516689103573}, {"current_trial": 17, "trialdata": {"rt": -1, "trial_type": "single-stim", "stimulus": "<p id=\"stim\">3</p>", "internal_node_id": "0.0-10.0-7.0", "time_elapsed": 171620, "key_press": -1, "trial_index": 17}, "uniqueid": "MTK2078:3FIJLY1B6VBY1P4MT1XFE38HKHXFPM", "dateTime": 1516689104573}, {"current_trial": 18, "trialdata": {"rt": -1, "trial_type": "single-stim", "stimulus": "<p id=\"stim\">2</p>", "internal_node_id": "0.0-10.0-8.0", "time_elapsed": 172621, "key_press": -1, "trial_index": 18}, "uniqueid": "MTK2078:3FIJLY1B6VBY1P4MT1XFE38HKHXFPM", "dateTime": 1516689105574}, {"current_trial": 19, "trialdata": {"rt": 302, "trial_type": "single-stim", "stimulus": "<p id=\"stim\">1</p>", "internal_node_id": "0.0-10.0-9.0", "time_elapsed": 173621, "key_press": 174, "trial_index": 19}, "uniqueid": "MTK2078:3FIJLY1B6VBY1P4MT1XFE38HKHXFPM", "dateTime": 1516689106574}, {"current_trial": 20, "trialdata": {"rt": -1, "trial_type": "single-stim", "stimulus": "<p id=\"stim\">+</p>", "internal_node_id": "0.0-11.0-0.0", "time_elapsed": 175121, "key_press": -1, "type": "FIXATION", "trial_index": 20}, "uniqueid": "MTK2078:3FIJLY1B6VBY1P4MT1XFE38HKHXFPM", "dateTime": 1516689108074}, {"current_trial": 21, "trialdata": {"rt": 991.3378684807412, "trial_type": "single-audio", "word": "clock", "stimulus": "/static/audio/wordpool/CLOCK.wav", "conditions": [18, 1200, "a", 18000], "internal_node_id": "0.0-12.0", "trial": 0, "time_elapsed": 177303, "serialpos": 0, "key_press": 175, "wordID": 324, "type": "PRES_AUD", "trial_index": 21}, "uniqueid": "MTK2078:3FIJLY1B6VBY1P4MT1XFE38HKHXFPM", "dateTime": 1516689110256}, {"current_trial": 22, "trialdata": {"rt": -1000, "trial_type": "single-audio", "word": "ox", "stimulus": "/static/audio/wordpool/OX.wav", "conditions": [18, 1200, "a", 18000], "internal_node_id": "0.0-13.0", "trial": 0, "time_elapsed": 179628, "serialpos": 1, "key_press": -1, "wordID": 993, "type": "PRES_AUD", "trial_index": 22}, "uniqueid": "MTK2078:3FIJLY1B6VBY1P4MT1XFE38HKHXFPM", "dateTime": 1516689112581}, {"current_trial": 23, "trialdata": {"rt": 648.8435374149617, "trial_type": "single-audio", "word": "gallon", "stimulus": "/static/audio/wordpool/GALLON.wav", "conditions": [18, 1200, "a", 18000], "internal_node_id": "0.0-14.0", "trial": 0, "time_elapsed": 181687, "serialpos": 2, "key_press": 175, "wordID": 617, "type": "PRES_AUD", "trial_index": 23}, "uniqueid": "MTK2078:3FIJLY1B6VBY1P4MT1XFE38HKHXFPM", "dateTime": 1516689114640}, {"current_trial": 24, "trialdata": {"rt": 898.4580498866137, "trial_type": "single-audio", "word": "bullet", "stimulus": "/static/audio/wordpool/BULLET.wav", "conditions": [18, 1200, "a", 18000], "internal_node_id": "0.0-15.0", "trial": 0, "time_elapsed": 183847, "serialpos": 3, "key_press": 175, "wordID": 193, "type": "PRES_AUD", "trial_index": 24}, "uniqueid": "MTK2078:3FIJLY1B6VBY1P4MT1XFE38HKHXFPM", "dateTime": 1516689116800}, {"current_trial": 25, "trialdata": {"rt": -1000, "trial_type": "single-audio", "word": "stove", "stimulus": "/static/audio/wordpool/STOVE.wav", "conditions": [18, 1200, "a", 18000], "internal_node_id": "0.0-16.0", "trial": 0, "time_elapsed": 185850, "serialpos": 4, "key_press": -1, "wordID": 1387, "type": "PRES_AUD", "trial_index": 25}, "uniqueid": "MTK2078:3FIJLY1B6VBY1P4MT1XFE38HKHXFPM", "dateTime": 1516689118803}, {"current_trial": 26, "trialdata": {"rt": -1000, "trial_type": "single-audio", "word": "stone", "stimulus": "/static/audio/wordpool/STONE.wav", "conditions": [18, 1200, "a", 18000], "internal_node_id": "0.0-17.0", "trial": 0, "time_elapsed": 187879, "serialpos": 5, "key_press": -1, "wordID": 1384, "type": "PRES_AUD", "trial_index": 26}, "uniqueid": "MTK2078:3FIJLY1B6VBY1P4MT1XFE38HKHXFPM", "dateTime": 1516689120832}, {"current_trial": 27, "trialdata": {"rt": -1000, "trial_type": "single-audio", "word": "clam", "stimulus": "/static/audio/wordpool/CLAM.wav", "conditions": [18, 1200, "a", 18000], "internal_node_id": "0.0-18.0", "trial": 0, "time_elapsed": 190237, "serialpos": 6, "key_press": -1, "wordID": 314, "type": "PRES_AUD", "trial_index": 27}, "uniqueid": "MTK2078:3FIJLY1B6VBY1P4MT1XFE38HKHXFPM", "dateTime": 1516689123190}, {"current_trial": 28, "trialdata": {"rt": -1000, "trial_type": "single-audio", "word": "market", "stimulus": "/static/audio/wordpool/MARKET.wav", "conditions": [18, 1200, "a", 18000], "internal_node_id": "0.0-19.0", "trial": 0, "time_elapsed": 192456, "serialpos": 7, "key_press": -1, "wordID": 870, "type": "PRES_AUD", "trial_index": 28}, "uniqueid": "MTK2078:3FIJLY1B6VBY1P4MT1XFE38HKHXFPM", "dateTime": 1516689125409}, {"current_trial": 29, "trialdata": {"rt": -1000, "trial_type": "single-audio", "word": "umpire", "stimulus": "/static/audio/wordpool/UMPIRE.wav", "conditions": [18, 1200, "a", 18000], "internal_node_id": "0.0-20.0", "trial": 0, "time_elapsed": 194779, "serialpos": 8, "key_press": -1, "wordID": 1534, "type": "PRES_AUD", "trial_index": 29}, "uniqueid": "MTK2078:3FIJLY1B6VBY1P4MT1XFE38HKHXFPM", "dateTime": 1516689127732}, {"current_trial": 30, "trialdata": {"rt": -1000, "trial_type": "single-audio", "word": "money", "stimulus": "/static/audio/wordpool/MONEY.wav", "conditions": [18, 1200, "a", 18000], "internal_node_id": "0.0-21.0", "trial": 0, "time_elapsed": 196816, "serialpos": 9, "key_press": -1, "wordID": 907, "type": "PRES_AUD", "trial_index": 30}, "uniqueid": "MTK2078:3FIJLY1B6VBY1P4MT1XFE38HKHXFPM", "dateTime": 1516689129769}, {"current_trial": 31, "trialdata": {"rt": -1000, "trial_type": "single-audio", "word": "slug", "stimulus": "/static/audio/wordpool/SLUG.wav", "conditions": [18, 1200, "a", 18000], "internal_node_id": "0.0-22.0", "trial": 0, "time_elapsed": 199146, "serialpos": 10, "key_press": -1, "wordID": 1328, "type": "PRES_AUD", "trial_index": 31}, "uniqueid": "MTK2078:3FIJLY1B6VBY1P4MT1XFE38HKHXFPM", "dateTime": 1516689132099}, {"current_trial": 32, "trialdata": {"rt": -1000, "trial_type": "single-audio", "word": "sponge", "stimulus": "/static/audio/wordpool/SPONGE.wav", "conditions": [18, 1200, "a", 18000], "internal_node_id": "0.0-23.0", "trial": 0, "time_elapsed": 201431, "serialpos": 11, "key_press": -1, "wordID": 1354, "type": "PRES_AUD", "trial_index": 32}, "uniqueid": "MTK2078:3FIJLY1B6VBY1P4MT1XFE38HKHXFPM", "dateTime": 1516689134384}, {"current_trial": 33, "trialdata": {"rt": -1000, "trial_type": "single-audio", "word": "thread", "stimulus": "/static/audio/wordpool/THREAD.wav", "conditions": [18, 1200, "a", 18000], "internal_node_id": "0.0-24.0", "trial": 0, "time_elapsed": 203764, "serialpos": 12, "key_press": -1, "wordID": 1459, "type": "PRES_AUD", "trial_index": 33}, "uniqueid": "MTK2078:3FIJLY1B6VBY1P4MT1XFE38HKHXFPM", "dateTime": 1516689136717}, {"current_trial": 34, "trialdata": {"rt": -1000, "trial_type": "single-audio", "word": "trout", "stimulus": "/static/audio/wordpool/TROUT.wav", "conditions": [18, 1200, "a", 18000], "internal_node_id": "0.0-25.0", "trial": 0, "time_elapsed": 206083, "serialpos": 13, "key_press": -1, "wordID": 1510, "type": "PRES_AUD", "trial_index": 34}, "uniqueid": "MTK2078:3FIJLY1B6VBY1P4MT1XFE38HKHXFPM", "dateTime": 1516689139036}, {"current_trial": 35, "trialdata": {"rt": -1000, "trial_type": "single-audio", "word": "xerox", "stimulus": "/static/audio/wordpool/XEROX.wav", "conditions": [18, 1200, "a", 18000], "internal_node_id": "0.0-26.0", "trial": 0, "time_elapsed": 208163, "serialpos": 14, "key_press": -1, "wordID": 1627, "type": "PRES_AUD", "trial_index": 35}, "uniqueid": "MTK2078:3FIJLY1B6VBY1P4MT1XFE38HKHXFPM", "dateTime": 1516689141116}, {"current_trial": 36, "trialdata": {"rt": -1000, "trial_type": "single-audio", "word": "waitress", "stimulus": "/static/audio/wordpool/WAITRESS.wav", "conditions": [18, 1200, "a", 18000], "internal_node_id": "0.0-27.0", "trial": 0, "time_elapsed": 210473, "serialpos": 15, "key_press": -1, "wordID": 1580, "type": "PRES_AUD", "trial_index": 36}, "uniqueid": "MTK2078:3FIJLY1B6VBY1P4MT1XFE38HKHXFPM", "dateTime": 1516689143426}, {"current_trial": 37, "trialdata": {"rt": -1000, "trial_type": "single-audio", "word": "snake", "stimulus": "/static/audio/wordpool/SNAKE.wav", "conditions": [18, 1200, "a", 18000], "internal_node_id": "0.0-28.0", "trial": 0, "time_elapsed": 212504, "serialpos": 16, "key_press": -1, "wordID": 1332, "type": "PRES_AUD", "trial_index": 37}, "uniqueid": "MTK2078:3FIJLY1B6VBY1P4MT1XFE38HKHXFPM", "dateTime": 1516689145457}, {"current_trial": 38, "trialdata": {"rt": -1000, "trial_type": "single-audio", "word": "bike", "stimulus": "/static/audio/wordpool/BIKE.wav", "conditions": [18, 1200, "a", 18000], "internal_node_id": "0.0-29.0", "trial": 0, "time_elapsed": 214835, "serialpos": 17, "key_press": -1, "wordID": 124, "type": "PRES_AUD", "trial_index": 38}, "uniqueid": "MTK2078:3FIJLY1B6VBY1P4MT1XFE38HKHXFPM", "dateTime": 1516689147788}, {"current_trial": 39, "trialdata": {"rt": -1, "trial_type": "single-stim", "stimulus": "", "internal_node_id": "0.0-30.0-0.0", "time_elapsed": 216200, "key_press": -1, "type": "PRE_RECALL_DELAY", "trial_index": 39}, "uniqueid": "MTK2078:3FIJLY1B6VBY1P4MT1XFE38HKHXFPM", "dateTime": 1516689149153}, {"current_trial": 40, "trialdata": {"rt": -1000, "trial_type": "single-audio", "stimulus": "/static/audio/400Hz.wav", "internal_node_id": "0.0-31.0", "time_elapsed": 216729, "key_press": -1, "type": "PRE_RECALL_ALERT", "trial_index": 40}, "uniqueid": "MTK2078:3FIJLY1B6VBY1P4MT1XFE38HKHXFPM", "dateTime": 1516689149682}, {"current_trial": 41, "trialdata": {"rt": [2254, 3421, 5201, 9356, 12443, 21361, 26568], "recwords": ["bike", "clock", "trout", "waitress", "xerox", "slug", "oxen"], "key_times": [1671, 1850, 2006, 2046, 2254, 2510, 2670, 2985, 3030, 3138, 3421, 3597, 3777, 3965, 4277, 4460, 5201, 6077, 6293, 6417, 6585, 6669, 6869, 7245, 7377, 7536, 7704, 7980, 8104, 8268, 8388, 8576, 8944, 9356, 10552, 10841, 10842, 11595, 11799, 12443, 20797, 20885, 21077, 21153, 21361, 25016, 25196, 25628, 25756, 25992, 26100, 26292, 26388, 26568], "trial_type": "free-recall", "conditions": [18, 1200, "a", 18000], "internal_node_id": "0.0-32.0-0.0", "key_presses": [66, 73, 75, 69, 13, 67, 76, 79, 67, 75, 13, 84, 82, 79, 85, 84, 13, 87, 65, 84, 73, 82, 69, 8, 8, 8, 8, 73, 84, 82, 69, 83, 83, 13, 88, 69, 82, 79, 88, 13, 83, 76, 85, 71, 13, 88, 69, 8, 8, 79, 88, 69, 78, 13], "trial": 0, "time_elapsed": 276732, "type": "FREE_RECALL", "trial_index": 41}, "uniqueid": "MTK2078:3FIJLY1B6VBY1P4MT1XFE38HKHXFPM", "dateTime": 1516689209687}, {"current_trial": 42, "trialdata": {"rt": 1736, "trial_type": "text", "internal_node_id": "0.0-33.0", "time_elapsed": 280470, "key_press": 39, "type": "INSTRUCTIONS", "trial_index": 42}, "uniqueid": "MTK2078:3FIJLY1B6VBY1P4MT1XFE38HKHXFPM", "dateTime": 1516689213423}, {"current_trial": 43, "trialdata": {"rt": [1461, 2946, 4932, 6032, 7935, 9104, 11163, 12578, 14190, 16384, 17920], "trial_type": "math-distractor", "key_times": [1177, 1280, 1461, 2946, 3169, 4564, 4932, 5760, 5904, 6032, 7671, 7807, 7935, 8875, 9104, 10880, 11086, 11163, 12102, 12394, 12578, 13902, 14046, 14190, 16017, 16125, 16384, 17568, 17684, 17920], "responses": ["15", "", "12", "11", "20", "9", "11", "10", "12", "23", "15"], "num2": [4, 5, 1, 1, 9, 7, 6, 2, 3, 6, 4, 3], "num3": [6, 6, 9, 9, 6, 1, 4, 7, 8, 9, 3, 5], "conditions": [18, 1200, "a", 18000], "internal_node_id": "0.0-34.0", "key_presses": [97, 101, 13, 13, 97, 98, 13, 97, 97, 13, 98, 96, 13, 105, 13, 97, 97, 13, 97, 96, 13, 97, 98, 13, 98, 99, 13, 97, 101, 13], "trial": 1, "time_elapsed": 300472, "type": "DISTRACTOR", "trial_index": 43, "num1": [5, 8, 2, 1, 5, 1, 1, 1, 1, 8, 8, 6]}, "uniqueid": "MTK2078:3FIJLY1B6VBY1P4MT1XFE38HKHXFPM", "dateTime": 1516689233425}, {"current_trial": 44, "trialdata": {"rt": -1, "trial_type": "single-stim", "stimulus": "<p id=\"stim\">10</p>", "internal_node_id": "0.0-35.0-0.0", "time_elapsed": 303562, "key_press": -1, "trial_index": 44}, "uniqueid": "MTK2078:3FIJLY1B6VBY1P4MT1XFE38HKHXFPM", "dateTime": 1516689236516}, {"current_trial": 45, "trialdata": {"rt": -1, "trial_type": "single-stim", "stimulus": "<p id=\"stim\">9</p>", "internal_node_id": "0.0-35.0-1.0", "time_elapsed": 304563, "key_press": -1, "trial_index": 45}, "uniqueid": "MTK2078:3FIJLY1B6VBY1P4MT1XFE38HKHXFPM", "dateTime": 1516689237516}, {"current_trial": 46, "trialdata": {"rt": -1, "trial_type": "single-stim", "stimulus": "<p id=\"stim\">8</p>", "internal_node_id": "0.0-35.0-2.0", "time_elapsed": 305579, "key_press": -1, "trial_index": 46}, "uniqueid": "MTK2078:3FIJLY1B6VBY1P4MT1XFE38HKHXFPM", "dateTime": 1516689238532}, {"current_trial": 47, "trialdata": {"rt": -1, "trial_type": "single-stim", "stimulus": "<p id=\"stim\">7</p>", "internal_node_id": "0.0-35.0-3.0", "time_elapsed": 306580, "key_press": -1, "trial_index": 47}, "uniqueid": "MTK2078:3FIJLY1B6VBY1P4MT1XFE38HKHXFPM", "dateTime": 1516689239533}, {"current_trial": 48, "trialdata": {"rt": -1, "trial_type": "single-stim", "stimulus": "<p id=\"stim\">6</p>", "internal_node_id": "0.0-35.0-4.0", "time_elapsed": 307622, "key_press": -1, "trial_index": 48}, "uniqueid": "MTK2078:3FIJLY1B6VBY1P4MT1XFE38HKHXFPM", "dateTime": 1516689240575}, {"current_trial": 49, "trialdata": {"rt": -1, "trial_type": "single-stim", "stimulus": "<p id=\"stim\">5</p>", "internal_node_id": "0.0-35.0-5.0", "time_elapsed": 308623, "key_press": -1, "trial_index": 49}, "uniqueid": "MTK2078:3FIJLY1B6VBY1P4MT1XFE38HKHXFPM", "dateTime": 1516689241576}, {"current_trial": 50, "trialdata": {"rt": -1, "trial_type": "single-stim", "stimulus": "<p id=\"stim\">4</p>", "internal_node_id": "0.0-35.0-6.0", "time_elapsed": 309656, "key_press": -1, "trial_index": 50}, "uniqueid": "MTK2078:3FIJLY1B6VBY1P4MT1XFE38HKHXFPM", "dateTime": 1516689242609}, {"current_trial": 51, "trialdata": {"rt": -1, "trial_type": "single-stim", "stimulus": "<p id=\"stim\">3</p>", "internal_node_id": "0.0-35.0-7.0", "time_elapsed": 310656, "key_press": -1, "trial_index": 51}, "uniqueid": "MTK2078:3FIJLY1B6VBY1P4MT1XFE38HKHXFPM", "dateTime": 1516689243609}, {"current_trial": 52, "trialdata": {"rt": -1, "trial_type": "single-stim", "stimulus": "<p id=\"stim\">2</p>", "internal_node_id": "0.0-35.0-8.0", "time_elapsed": 311656, "key_press": -1, "trial_index": 52}, "uniqueid": "MTK2078:3FIJLY1B6VBY1P4MT1XFE38HKHXFPM", "dateTime": 1516689244609}, {"current_trial": 53, "trialdata": {"rt": -1, "trial_type": "single-stim", "stimulus": "<p id=\"stim\">1</p>", "internal_node_id": "0.0-35.0-9.0", "time_elapsed": 312656, "key_press": -1, "trial_index": 53}, "uniqueid": "MTK2078:3FIJLY1B6VBY1P4MT1XFE38HKHXFPM", "dateTime": 1516689245609}, {"current_trial": 54, "trialdata": {"rt": -1, "trial_type": "single-stim", "stimulus": "<p id=\"stim\">+</p>", "internal_node_id": "0.0-36.0-0.0", "time_elapsed": 314156, "key_press": -1, "type": "FIXATION", "trial_index": 54}, "uniqueid": "MTK2078:3FIJLY1B6VBY1P4MT1XFE38HKHXFPM", "dateTime": 1516689247109}, {"current_trial": 55, "trialdata": {"rt": -1000, "trial_type": "single-audio", "word": "leader", "stimulus": "/static/audio/wordpool/LEADER.wav", "conditions": [18, 1200, "a", 18000], "internal_node_id": "0.0-37.0", "trial": 1, "time_elapsed": 316228, "serialpos": 0, "key_press": -1, "wordID": 806, "type": "PRES_AUD", "trial_index": 55}, "uniqueid": "MTK2078:3FIJLY1B6VBY1P4MT1XFE38HKHXFPM", "dateTime": 1516689249181}, {"current_trial": 56, "trialdata": {"rt": -1000, "trial_type": "single-audio", "word": "inmate", "stimulus": "/static/audio/wordpool/INMATE.wav", "conditions": [18, 1200, "a", 18000], "internal_node_id": "0.0-38.0", "trial": 1, "time_elapsed": 318607, "serialpos": 1, "key_press": -1, "wordID": 737, "type": "PRES_AUD", "trial_index": 56}, "uniqueid": "MTK2078:3FIJLY1B6VBY1P4MT1XFE38HKHXFPM", "dateTime": 1516689251560}, {"current_trial": 57, "trialdata": {"rt": -1000, "trial_type": "single-audio", "word": "patient", "stimulus": "/static/audio/wordpool/PATIENT.wav", "conditions": [18, 1200, "a", 18000], "internal_node_id": "0.0-39.0", "trial": 1, "time_elapsed": 320875, "serialpos": 2, "key_press": -1, "wordID": 1023, "type": "PRES_AUD", "trial_index": 57}, "uniqueid": "MTK2078:3FIJLY1B6VBY1P4MT1XFE38HKHXFPM", "dateTime": 1516689253828}, {"current_trial": 58, "trialdata": {"rt": -1000, "trial_type": "single-audio", "word": "journal", "stimulus": "/static/audio/wordpool/JOURNAL.wav", "conditions": [18, 1200, "a", 18000], "internal_node_id": "0.0-40.0", "trial": 1, "time_elapsed": 323196, "serialpos": 3, "key_press": -1, "wordID": 759, "type": "PRES_AUD", "trial_index": 58}, "uniqueid": "MTK2078:3FIJLY1B6VBY1P4MT1XFE38HKHXFPM", "dateTime": 1516689256149}, {"current_trial": 59, "trialdata": {"rt": -1000, "trial_type": "single-audio", "word": "critic", "stimulus": "/static/audio/wordpool/CRITIC.wav", "conditions": [18, 1200, "a", 18000], "internal_node_id": "0.0-41.0", "trial": 1, "time_elapsed": 325513, "serialpos": 4, "key_press": -1, "wordID": 409, "type": "PRES_AUD", "trial_index": 59}, "uniqueid": "MTK2078:3FIJLY1B6VBY1P4MT1XFE38HKHXFPM", "dateTime": 1516689258466}, {"current_trial": 60, "trialdata": {"rt": -1000, "trial_type": "single-audio", "word": "witness", "stimulus": "/static/audio/wordpool/WITNESS.wav", "conditions": [18, 1200, "a", 18000], "internal_node_id": "0.0-42.0", "trial": 1, "time_elapsed": 327884, "serialpos": 5, "key_press": -1, "wordID": 1617, "type": "PRES_AUD", "trial_index": 60}, "uniqueid": "MTK2078:3FIJLY1B6VBY1P4MT1XFE38HKHXFPM", "dateTime": 1516689260837}, {"current_trial": 61, "trialdata": {"rt": -1000, "trial_type": "single-audio", "word": "creature", "stimulus": "/static/audio/wordpool/CREATURE.wav", "conditions": [18, 1200, "a", 18000], "internal_node_id": "0.0-43.0", "trial": 1, "time_elapsed": 330274, "serialpos": 6, "key_press": -1, "wordID": 402, "type": "PRES_AUD", "trial_index": 61}, "uniqueid": "MTK2078:3FIJLY1B6VBY1P4MT1XFE38HKHXFPM", "dateTime": 1516689263227}, {"current_trial": 62, "trialdata": {"rt": -1000, "trial_type": "single-audio", "word": "tile", "stimulus": "/static/audio/wordpool/TILE.wav", "conditions": [18, 1200, "a", 18000], "internal_node_id": "0.0-44.0", "trial": 1, "time_elapsed": 332646, "serialpos": 7, "key_press": -1, "wordID": 1467, "type": "PRES_AUD", "trial_index": 62}, "uniqueid": "MTK2078:3FIJLY1B6VBY1P4MT1XFE38HKHXFPM", "dateTime": 1516689265599}, {"current_trial": 63, "trialdata": {"rt": -1000, "trial_type": "single-audio", "word": "monster", "stimulus": "/static/audio/wordpool/MONSTER.wav", "conditions": [18, 1200, "a", 18000], "internal_node_id": "0.0-45.0", "trial": 1, "time_elapsed": 334829, "serialpos": 8, "key_press": -1, "wordID": 911, "type": "PRES_AUD", "trial_index": 63}, "uniqueid": "MTK2078:3FIJLY1B6VBY1P4MT1XFE38HKHXFPM", "dateTime": 1516689267782}, {"current_trial": 64, "trialdata": {"rt": -1000, "trial_type": "single-audio", "word": "fungus", "stimulus": "/static/audio/wordpool/FUNGUS.wav", "conditions": [18, 1200, "a", 18000], "internal_node_id": "0.0-46.0", "trial": 1, "time_elapsed": 337132, "serialpos": 9, "key_press": -1, "wordID": 613, "type": "PRES_AUD", "trial_index": 64}, "uniqueid": "MTK2078:3FIJLY1B6VBY1P4MT1XFE38HKHXFPM", "dateTime": 1516689270085}, {"current_trial": 65, "trialdata": {"rt": -1000, "trial_type": "single-audio", "word": "elbow", "stimulus": "/static/audio/wordpool/ELBOW.wav", "conditions": [18, 1200, "a", 18000], "internal_node_id": "0.0-47.0", "trial": 1, "time_elapsed": 339314, "serialpos": 10, "key_press": -1, "wordID": 519, "type": "PRES_AUD", "trial_index": 65}, "uniqueid": "MTK2078:3FIJLY1B6VBY1P4MT1XFE38HKHXFPM", "dateTime": 1516689272267}, {"current_trial": 66, "trialdata": {"rt": -1000, "trial_type": "single-audio", "word": "daisy", "stimulus": "/static/audio/wordpool/DAISY.wav", "conditions": [18, 1200, "a", 18000], "internal_node_id": "0.0-48.0", "trial": 1, "time_elapsed": 341335, "serialpos": 11, "key_press": -1, "wordID": 434, "type": "PRES_AUD", "trial_index": 66}, "uniqueid": "MTK2078:3FIJLY1B6VBY1P4MT1XFE38HKHXFPM", "dateTime": 1516689274288}, {"current_trial": 67, "trialdata": {"rt": -1000, "trial_type": "single-audio", "word": "bison", "stimulus": "/static/audio/wordpool/BISON.wav", "conditions": [18, 1200, "a", 18000], "internal_node_id": "0.0-49.0", "trial": 1, "time_elapsed": 343444, "serialpos": 12, "key_press": -1, "wordID": 130, "type": "PRES_AUD", "trial_index": 67}, "uniqueid": "MTK2078:3FIJLY1B6VBY1P4MT1XFE38HKHXFPM", "dateTime": 1516689276397}, {"current_trial": 68, "trialdata": {"rt": -1000, "trial_type": "single-audio", "word": "cupboard", "stimulus": "/static/audio/wordpool/CUPBOARD.wav", "conditions": [18, 1200, "a", 18000], "internal_node_id": "0.0-50.0", "trial": 1, "time_elapsed": 345739, "serialpos": 13, "key_press": -1, "wordID": 424, "type": "PRES_AUD", "trial_index": 68}, "uniqueid": "MTK2078:3FIJLY1B6VBY1P4MT1XFE38HKHXFPM", "dateTime": 1516689278692}, {"current_trial": 69, "trialdata": {"rt": -1000, "trial_type": "single-audio", "word": "playground", "stimulus": "/static/audio/wordpool/PLAYGROUND.wav", "conditions": [18, 1200, "a", 18000], "internal_node_id": "0.0-51.0", "trial": 1, "time_elapsed": 347971, "serialpos": 14, "key_press": -1, "wordID": 1086, "type": "PRES_AUD", "trial_index": 69}, "uniqueid": "MTK2078:3FIJLY1B6VBY1P4MT1XFE38HKHXFPM", "dateTime": 1516689280924}, {"current_trial": 70, "trialdata": {"rt": -1000, "trial_type": "single-audio", "word": "sister", "stimulus": "/static/audio/wordpool/SISTER.wav", "conditions": [18, 1200, "a", 18000], "internal_node_id": "0.0-52.0", "trial": 1, "time_elapsed": 350323, "serialpos": 15, "key_press": -1, "wordID": 1311, "type": "PRES_AUD", "trial_index": 70}, "uniqueid": "MTK2078:3FIJLY1B6VBY1P4MT1XFE38HKHXFPM", "dateTime": 1516689283276}, {"current_trial": 71, "trialdata": {"rt": -1000, "trial_type": "single-audio", "word": "kitchen", "stimulus": "/static/audio/wordpool/KITCHEN.wav", "conditions": [18, 1200, "a", 18000], "internal_node_id": "0.0-53.0", "trial": 1, "time_elapsed": 352456, "serialpos": 16, "key_press": -1, "wordID": 777, "type": "PRES_AUD", "trial_index": 71}, "uniqueid": "MTK2078:3FIJLY1B6VBY1P4MT1XFE38HKHXFPM", "dateTime": 1516689285409}, {"current_trial": 72, "trialdata": {"rt": -1000, "trial_type": "single-audio", "word": "briefcase", "stimulus": "/static/audio/wordpool/BRIEFCASE.wav", "conditions": [18, 1200, "a", 18000], "internal_node_id": "0.0-54.0", "trial": 1, "time_elapsed": 354487, "serialpos": 17, "key_press": -1, "wordID": 174, "type": "PRES_AUD", "trial_index": 72}, "uniqueid": "MTK2078:3FIJLY1B6VBY1P4MT1XFE38HKHXFPM", "dateTime": 1516689287440}, {"current_trial": 73, "trialdata": {"rt": -1, "trial_type": "single-stim", "stimulus": "", "internal_node_id": "0.0-55.0-0.0", "time_elapsed": 355687, "key_press": -1, "type": "PRE_RECALL_DELAY", "trial_index": 73}, "uniqueid": "MTK2078:3FIJLY1B6VBY1P4MT1XFE38HKHXFPM", "dateTime": 1516689288640}, {"current_trial": 74, "trialdata": {"rt": -1000, "trial_type": "single-audio", "stimulus": "/static/audio/400Hz.wav", "internal_node_id": "0.0-56.0", "time_elapsed": 356187, "key_press": -1, "type": "PRE_RECALL_ALERT", "trial_index": 74}, "uniqueid": "MTK2078:3FIJLY1B6VBY1P4MT1XFE38HKHXFPM", "dateTime": 1516689289140}, {"current_trial": 75, "trialdata": {"rt": [3121, 4921, 6857, 8409, 20941, 27444, 53437, 56480], "recwords": ["briefcase", "kitchen", "critic", "monster", "bicycle", "patient", "fungus", "elbow"], "key_times": [1003, 1262, 1700, 1785, 1883, 2222, 2366, 2526, 2674, 3121, 3586, 3781, 3865, 4289, 4441, 4525, 4633, 4921, 5549, 5753, 5917, 5993, 6125, 6233, 6857, 7288, 7448, 7592, 7672, 7780, 7940, 7996, 8409, 15511, 15802, 16094, 16198, 16412, 16602, 17006, 17158, 17322, 17678, 17830, 17946, 18074, 18372, 18502, 18662, 18826, 18994, 19441, 19657, 20328, 20429, 20545, 20941, 26397, 26516, 26720, 26864, 26968, 27076, 27160, 27444, 52247, 52410, 52625, 52737, 52881, 53141, 53437, 55441, 55641, 56041, 56165, 56319, 56480], "trial_type": "free-recall", "conditions": [18, 1200, "a", 18000], "internal_node_id": "0.0-57.0-0.0", "key_presses": [66, 82, 73, 69, 70, 67, 65, 83, 69, 13, 75, 73, 84, 67, 72, 69, 78, 13, 67, 82, 73, 84, 73, 67, 13, 77, 79, 78, 83, 84, 69, 82, 13, 66, 73, 89, 67, 76, 69, 8, 8, 8, 73, 67, 76, 69, 8, 8, 8, 8, 8, 67, 89, 67, 76, 69, 13, 80, 65, 84, 73, 69, 78, 84, 13, 70, 85, 78, 71, 85, 83, 13, 69, 76, 66, 79, 87, 13], "trial": 1, "time_elapsed": 416189, "type": "FREE_RECALL", "trial_index": 75}, "uniqueid": "MTK2078:3FIJLY1B6VBY1P4MT1XFE38HKHXFPM", "dateTime": 1516689349145}, {"current_trial": 76, "trialdata": {"rt": 2052, "trial_type": "text", "internal_node_id": "0.0-58.0", "time_elapsed": 420244, "key_press": 39, "type": "INSTRUCTIONS", "trial_index": 76}, "uniqueid": "MTK2078:3FIJLY1B6VBY1P4MT1XFE38HKHXFPM", "dateTime": 1516689353198}, {"current_trial": 77, "trialdata": {"rt": [1488, 3924, 5760, 7240, 9254, 11226], "trial_type": "math-distractor", "key_times": [1121, 1344, 1488, 3673, 3808, 3924, 5476, 5612, 5760, 6996, 7108, 7240, 8887, 9004, 9254, 10843, 11027, 11226], "responses": ["17", "22", "26", "18", "21", "14"], "num2": [8, 8, 9, 4, 6, 5, 9], "num3": [1, 5, 9, 8, 6, 2, 6], "conditions": [24, 1600, "a", 12000], "internal_node_id": "0.0-59.0", "key_presses": [97, 103, 13, 98, 98, 13, 98, 102, 13, 97, 104, 13, 98, 97, 13, 97, 100, 13], "trial": 2, "time_elapsed": 433246, "type": "DISTRACTOR", "trial_index": 77, "num1": [8, 9, 8, 6, 9, 7, 4]}, "uniqueid": "MTK2078:3FIJLY1B6VBY1P4MT1XFE38HKHXFPM", "dateTime": 1516689366199}, {"current_trial": 78, "trialdata": {"rt": -1, "trial_type": "single-stim", "stimulus": "<p id=\"stim\">10</p>", "internal_node_id": "0.0-60.0-0.0", "time_elapsed": 436247, "key_press": -1, "trial_index": 78}, "uniqueid": "MTK2078:3FIJLY1B6VBY1P4MT1XFE38HKHXFPM", "dateTime": 1516689369200}, {"current_trial": 79, "trialdata": {"rt": -1, "trial_type": "single-stim", "stimulus": "<p id=\"stim\">9</p>", "internal_node_id": "0.0-60.0-1.0", "time_elapsed": 437247, "key_press": -1, "trial_index": 79}, "uniqueid": "MTK2078:3FIJLY1B6VBY1P4MT1XFE38HKHXFPM", "dateTime": 1516689370200}, {"current_trial": 80, "trialdata": {"rt": -1, "trial_type": "single-stim", "stimulus": "<p id=\"stim\">8</p>", "internal_node_id": "0.0-60.0-2.0", "time_elapsed": 438247, "key_press": -1, "trial_index": 80}, "uniqueid": "MTK2078:3FIJLY1B6VBY1P4MT1XFE38HKHXFPM", "dateTime": 1516689371200}, {"current_trial": 81, "trialdata": {"rt": -1, "trial_type": "single-stim", "stimulus": "<p id=\"stim\">7</p>", "internal_node_id": "0.0-60.0-3.0", "time_elapsed": 439247, "key_press": -1, "trial_index": 81}, "uniqueid": "MTK2078:3FIJLY1B6VBY1P4MT1XFE38HKHXFPM", "dateTime": 1516689372200}, {"current_trial": 82, "trialdata": {"rt": -1, "trial_type": "single-stim", "stimulus": "<p id=\"stim\">6</p>", "internal_node_id": "0.0-60.0-4.0", "time_elapsed": 440247, "key_press": -1, "trial_index": 82}, "uniqueid": "MTK2078:3FIJLY1B6VBY1P4MT1XFE38HKHXFPM", "dateTime": 1516689373200}, {"current_trial": 83, "trialdata": {"rt": -1, "trial_type": "single-stim", "stimulus": "<p id=\"stim\">5</p>", "internal_node_id": "0.0-60.0-5.0", "time_elapsed": 441248, "key_press": -1, "trial_index": 83}, "uniqueid": "MTK2078:3FIJLY1B6VBY1P4MT1XFE38HKHXFPM", "dateTime": 1516689374201}, {"current_trial": 84, "trialdata": {"rt": -1, "trial_type": "single-stim", "stimulus": "<p id=\"stim\">4</p>", "internal_node_id": "0.0-60.0-6.0", "time_elapsed": 442248, "key_press": -1, "trial_index": 84}, "uniqueid": "MTK2078:3FIJLY1B6VBY1P4MT1XFE38HKHXFPM", "dateTime": 1516689375201}, {"current_trial": 85, "trialdata": {"rt": -1, "trial_type": "single-stim", "stimulus": "<p id=\"stim\">3</p>", "internal_node_id": "0.0-60.0-7.0", "time_elapsed": 443248, "key_press": -1, "trial_index": 85}, "uniqueid": "MTK2078:3FIJLY1B6VBY1P4MT1XFE38HKHXFPM", "dateTime": 1516689376201}, {"current_trial": 86, "trialdata": {"rt": -1, "trial_type": "single-stim", "stimulus": "<p id=\"stim\">2</p>", "internal_node_id": "0.0-60.0-8.0", "time_elapsed": 444248, "key_press": -1, "trial_index": 86}, "uniqueid": "MTK2078:3FIJLY1B6VBY1P4MT1XFE38HKHXFPM", "dateTime": 1516689377201}, {"current_trial": 87, "trialdata": {"rt": -1, "trial_type": "single-stim", "stimulus": "<p id=\"stim\">1</p>", "internal_node_id": "0.0-60.0-9.0", "time_elapsed": 445248, "key_press": -1, "trial_index": 87}, "uniqueid": "MTK2078:3FIJLY1B6VBY1P4MT1XFE38HKHXFPM", "dateTime": 1516689378201}, {"current_trial": 88, "trialdata": {"rt": -1, "trial_type": "single-stim", "stimulus": "<p id=\"stim\">+</p>", "internal_node_id": "0.0-61.0-0.0", "time_elapsed": 446748, "key_press": -1, "type": "FIXATION", "trial_index": 88}, "uniqueid": "MTK2078:3FIJLY1B6VBY1P4MT1XFE38HKHXFPM", "dateTime": 1516689379701}, {"current_trial": 89, "trialdata": {"rt": -1000, "trial_type": "single-audio", "word": "doughnut", "stimulus": "/static/audio/wordpool/DOUGHNUT.wav", "conditions": [24, 1600, "a", 12000], "internal_node_id": "0.0-62.0", "trial": 2, "time_elapsed": 449388, "serialpos": 0, "key_press": -1, "wordID": 489, "type": "PRES_AUD", "trial_index": 89}, "uniqueid": "MTK2078:3FIJLY1B6VBY1P4MT1XFE38HKHXFPM", "dateTime": 1516689382341}, {"current_trial": 90, "trialdata": {"rt": -1000, "trial_type": "single-audio", "word": "swamp", "stimulus": "/static/audio/wordpool/SWAMP.wav", "conditions": [24, 1600, "a", 12000], "internal_node_id": "0.0-63.0", "trial": 2, "time_elapsed": 452011, "serialpos": 1, "key_press": -1, "wordID": 1415, "type": "PRES_AUD", "trial_index": 90}, "uniqueid": "MTK2078:3FIJLY1B6VBY1P4MT1XFE38HKHXFPM", "dateTime": 1516689384964}, {"current_trial": 91, "trialdata": {"rt": -1000, "trial_type": "single-audio", "word": "table", "stimulus": "/static/audio/wordpool/TABLE.wav", "conditions": [24, 1600, "a", 12000], "internal_node_id": "0.0-64.0", "trial": 2, "time_elapsed": 454670, "serialpos": 2, "key_press": -1, "wordID": 1425, "type": "PRES_AUD", "trial_index": 91}, "uniqueid": "MTK2078:3FIJLY1B6VBY1P4MT1XFE38HKHXFPM", "dateTime": 1516689387623}, {"current_trial": 92, "trialdata": {"rt": -1000, "trial_type": "single-audio", "word": "lace", "stimulus": "/static/audio/wordpool/LACE.wav", "conditions": [24, 1600, "a", 12000], "internal_node_id": "0.0-65.0", "trial": 2, "time_elapsed": 457226, "serialpos": 3, "key_press": -1, "wordID": 791, "type": "PRES_AUD", "trial_index": 92}, "uniqueid": "MTK2078:3FIJLY1B6VBY1P4MT1XFE38HKHXFPM", "dateTime": 1516689390179}, {"current_trial": 93, "trialdata": {"rt": -1000, "trial_type": "single-audio", "word": "ketchup", "stimulus": "/static/audio/wordpool/KETCHUP.wav", "conditions": [24, 1600, "a", 12000], "internal_node_id": "0.0-66.0", "trial": 2, "time_elapsed": 459691, "serialpos": 4, "key_press": -1, "wordID": 770, "type": "PRES_AUD", "trial_index": 93}, "uniqueid": "MTK2078:3FIJLY1B6VBY1P4MT1XFE38HKHXFPM", "dateTime": 1516689392644}, {"current_trial": 94, "trialdata": {"rt": -1000, "trial_type": "single-audio", "word": "pigment", "stimulus": "/static/audio/wordpool/PIGMENT.wav", "conditions": [24, 1600, "a", 12000], "internal_node_id": "0.0-67.0", "trial": 2, "time_elapsed": 462484, "serialpos": 5, "key_press": -1, "wordID": 1065, "type": "PRES_AUD", "trial_index": 94}, "uniqueid": "MTK2078:3FIJLY1B6VBY1P4MT1XFE38HKHXFPM", "dateTime": 1516689395437}, {"current_trial": 95, "trialdata": {"rt": -1000, "trial_type": "single-audio", "word": "blade", "stimulus": "/static/audio/wordpool/BLADE.wav", "conditions": [24, 1600, "a", 12000], "internal_node_id": "0.0-68.0", "trial": 2, "time_elapsed": 465171, "serialpos": 6, "key_press": -1, "wordID": 133, "type": "PRES_AUD", "trial_index": 95}, "uniqueid": "MTK2078:3FIJLY1B6VBY1P4MT1XFE38HKHXFPM", "dateTime": 1516689398124}, {"current_trial": 96, "trialdata": {"rt": -1000, "trial_type": "single-audio", "word": "nightgown", "stimulus": "/static/audio/wordpool/NIGHTGOWN.wav", "conditions": [24, 1600, "a", 12000], "internal_node_id": "0.0-69.0", "trial": 2, "time_elapsed": 467909, "serialpos": 7, "key_press": -1, "wordID": 952, "type": "PRES_AUD", "trial_index": 96}, "uniqueid": "MTK2078:3FIJLY1B6VBY1P4MT1XFE38HKHXFPM", "dateTime": 1516689400862}, {"current_trial": 97, "trialdata": {"rt": -1000, "trial_type": "single-audio", "word": "blouse", "stimulus": "/static/audio/wordpool/BLOUSE.wav", "conditions": [24, 1600, "a", 12000], "internal_node_id": "0.0-70.0", "trial": 2, "time_elapsed": 470662, "serialpos": 8, "key_press": -1, "wordID": 138, "type": "PRES_AUD", "trial_index": 97}, "uniqueid": "MTK2078:3FIJLY1B6VBY1P4MT1XFE38HKHXFPM", "dateTime": 1516689403615}, {"current_trial": 98, "trialdata": {"rt": -1000, "trial_type": "single-audio", "word": "widow", "stimulus": "/static/audio/wordpool/WIDOW.wav", "conditions": [24, 1600, "a", 12000], "internal_node_id": "0.0-71.0", "trial": 2, "time_elapsed": 473179, "serialpos": 9, "key_press": -1, "wordID": 1607, "type": "PRES_AUD", "trial_index": 98}, "uniqueid": "MTK2078:3FIJLY1B6VBY1P4MT1XFE38HKHXFPM", "dateTime": 1516689406132}, {"current_trial": 99, "trialdata": {"rt": -1000, "trial_type": "single-audio", "word": "knife", "stimulus": "/static/audio/wordpool/KNIFE.wav", "conditions": [24, 1600, "a", 12000], "internal_node_id": "0.0-72.0", "trial": 2, "time_elapsed": 475850, "serialpos": 10, "key_press": -1, "wordID": 784, "type": "PRES_AUD", "trial_index": 99}, "uniqueid": "MTK2078:3FIJLY1B6VBY1P4MT1XFE38HKHXFPM", "dateTime": 1516689408803}, {"current_trial": 100, "trialdata": {"rt": -1000, "trial_type": "single-audio", "word": "princess", "stimulus": "/static/audio/wordpool/PRINCESS.wav", "conditions": [24, 1600, "a", 12000], "internal_node_id": "0.0-73.0", "trial": 2, "time_elapsed": 478361, "serialpos": 11, "key_press": -1, "wordID": 1124, "type": "PRES_AUD", "trial_index": 100}, "uniqueid": "MTK2078:3FIJLY1B6VBY1P4MT1XFE38HKHXFPM", "dateTime": 1516689411314}, {"current_trial": 101, "trialdata": {"rt": -1000, "trial_type": "single-audio", "word": "cod", "stimulus": "/static/audio/wordpool/COD.wav", "conditions": [24, 1600, "a", 12000], "internal_node_id": "0.0-74.0", "trial": 2, "time_elapsed": 480763, "serialpos": 12, "key_press": -1, "wordID": 339, "type": "PRES_AUD", "trial_index": 101}, "uniqueid": "MTK2078:3FIJLY1B6VBY1P4MT1XFE38HKHXFPM", "dateTime": 1516689413716}, {"current_trial": 102, "trialdata": {"rt": -1000, "trial_type": "single-audio", "word": "padding", "stimulus": "/static/audio/wordpool/PADDING.wav", "conditions": [24, 1600, "a", 12000], "internal_node_id": "0.0-75.0", "trial": 2, "time_elapsed": 483556, "serialpos": 13, "key_press": -1, "wordID": 998, "type": "PRES_AUD", "trial_index": 102}, "uniqueid": "MTK2078:3FIJLY1B6VBY1P4MT1XFE38HKHXFPM", "dateTime": 1516689416509}, {"current_trial": 103, "trialdata": {"rt": -1000, "trial_type": "single-audio", "word": "custard", "stimulus": "/static/audio/wordpool/CUSTARD.wav", "conditions": [24, 1600, "a", 12000], "internal_node_id": "0.0-76.0", "trial": 2, "time_elapsed": 486391, "serialpos": 14, "key_press": -1, "wordID": 428, "type": "PRES_AUD", "trial_index": 103}, "uniqueid": "MTK2078:3FIJLY1B6VBY1P4MT1XFE38HKHXFPM", "dateTime": 1516689419344}, {"current_trial": 104, "trialdata": {"rt": -1000, "trial_type": "single-audio", "word": "pecan", "stimulus": "/static/audio/wordpool/PECAN.wav", "conditions": [24, 1600, "a", 12000], "internal_node_id": "0.0-77.0", "trial": 2, "time_elapsed": 489026, "serialpos": 15, "key_press": -1, "wordID": 1035, "type": "PRES_AUD", "trial_index": 104}, "uniqueid": "MTK2078:3FIJLY1B6VBY1P4MT1XFE38HKHXFPM", "dateTime": 1516689421979}, {"current_trial": 105, "trialdata": {"rt": -1000, "trial_type": "single-audio", "word": "marine", "stimulus": "/static/audio/wordpool/MARINE.wav", "conditions": [24, 1600, "a", 12000], "internal_node_id": "0.0-78.0", "trial": 2, "time_elapsed": 491446, "serialpos": 16, "key_press": -1, "wordID": 868, "type": "PRES_AUD", "trial_index": 105}, "uniqueid": "MTK2078:3FIJLY1B6VBY1P4MT1XFE38HKHXFPM", "dateTime": 1516689424399}, {"current_trial": 106, "trialdata": {"rt": -1000, "trial_type": "single-audio", "word": "nurse", "stimulus": "/static/audio/wordpool/NURSE.wav", "conditions": [24, 1600, "a", 12000], "internal_node_id": "0.0-79.0", "trial": 2, "time_elapsed": 494205, "serialpos": 17, "key_press": -1, "wordID": 962, "type": "PRES_AUD", "trial_index": 106}, "uniqueid": "MTK2078:3FIJLY1B6VBY1P4MT1XFE38HKHXFPM", "dateTime": 1516689427159}, {"current_trial": 107, "trialdata": {"rt": -1000, "trial_type": "single-audio", "word": "cousin", "stimulus": "/static/audio/wordpool/COUSIN.wav", "conditions": [24, 1600, "a", 12000], "internal_node_id": "0.0-80.0", "trial": 2, "time_elapsed": 496817, "serialpos": 18, "key_press": -1, "wordID": 391, "type": "PRES_AUD", "trial_index": 107}, "uniqueid": "MTK2078:3FIJLY1B6VBY1P4MT1XFE38HKHXFPM", "dateTime": 1516689429770}, {"current_trial": 108, "trialdata": {"rt": -1000, "trial_type": "single-audio", "word": "pastry", "stimulus": "/static/audio/wordpool/PASTRY.wav", "conditions": [24, 1600, "a", 12000], "internal_node_id": "0.0-81.0", "trial": 2, "time_elapsed": 499536, "serialpos": 19, "key_press": -1, "wordID": 1021, "type": "PRES_AUD", "trial_index": 108}, "uniqueid": "MTK2078:3FIJLY1B6VBY1P4MT1XFE38HKHXFPM", "dateTime": 1516689432489}, {"current_trial": 109, "trialdata": {"rt": -1000, "trial_type": "single-audio", "word": "cocoon", "stimulus": "/static/audio/wordpool/COCOON.wav", "conditions": [24, 1600, "a", 12000], "internal_node_id": "0.0-82.0", "trial": 2, "time_elapsed": 502095, "serialpos": 20, "key_press": -1, "wordID": 338, "type": "PRES_AUD", "trial_index": 109}, "uniqueid": "MTK2078:3FIJLY1B6VBY1P4MT1XFE38HKHXFPM", "dateTime": 1516689435048}, {"current_trial": 110, "trialdata": {"rt": -1000, "trial_type": "single-audio", "word": "europe", "stimulus": "/static/audio/wordpool/EUROPE.wav", "conditions": [24, 1600, "a", 12000], "internal_node_id": "0.0-83.0", "trial": 2, "time_elapsed": 504918, "serialpos": 21, "key_press": -1, "wordID": 540, "type": "PRES_AUD", "trial_index": 110}, "uniqueid": "MTK2078:3FIJLY1B6VBY1P4MT1XFE38HKHXFPM", "dateTime": 1516689437871}, {"current_trial": 111, "trialdata": {"rt": -1000, "trial_type": "single-audio", "word": "valley", "stimulus": "/static/audio/wordpool/VALLEY.wav", "conditions": [24, 1600, "a", 12000], "internal_node_id": "0.0-84.0", "trial": 2, "time_elapsed": 507381, "serialpos": 22, "key_press": -1, "wordID": 1544, "type": "PRES_AUD", "trial_index": 111}, "uniqueid": "MTK2078:3FIJLY1B6VBY1P4MT1XFE38HKHXFPM", "dateTime": 1516689440334}, {"current_trial": 112, "trialdata": {"rt": -1000, "trial_type": "single-audio", "word": "canyon", "stimulus": "/static/audio/wordpool/CANYON.wav", "conditions": [24, 1600, "a", 12000], "internal_node_id": "0.0-85.0", "trial": 2, "time_elapsed": 509905, "serialpos": 23, "key_press": -1, "wordID": 234, "type": "PRES_AUD", "trial_index": 112}, "uniqueid": "MTK2078:3FIJLY1B6VBY1P4MT1XFE38HKHXFPM", "dateTime": 1516689442858}, {"current_trial": 113, "trialdata": {"rt": -1, "trial_type": "single-stim", "stimulus": "", "internal_node_id": "0.0-86.0-0.0", "time_elapsed": 511152, "key_press": -1, "type": "PRE_RECALL_DELAY", "trial_index": 113}, "uniqueid": "MTK2078:3FIJLY1B6VBY1P4MT1XFE38HKHXFPM", "dateTime": 1516689444105}, {"current_trial": 114, "trialdata": {"rt": -1000, "trial_type": "single-audio", "stimulus": "/static/audio/400Hz.wav", "internal_node_id": "0.0-87.0", "time_elapsed": 511652, "key_press": -1, "type": "PRE_RECALL_ALERT", "trial_index": 114}, "uniqueid": "MTK2078:3FIJLY1B6VBY1P4MT1XFE38HKHXFPM", "dateTime": 1516689444605}, {"current_trial": 115, "trialdata": {"rt": [2031, 3490, 5058, 14724, 15706, 21870, 38258], "recwords": ["canyon", "europe", "pastry", "nurse", "lace", "valley", "pigment"], "key_times": [496, 923, 1015, 1239, 1395, 1579, 2031, 2503, 2651, 2731, 2855, 3070, 3226, 3490, 3885, 3964, 4078, 4210, 4414, 4574, 5058, 13660, 13904, 14003, 14180, 14356, 14724, 15032, 15163, 15355, 15562, 15706, 20970, 21126, 21270, 21410, 21530, 21630, 21870, 35552, 35794, 35870, 36002, 36110, 36226, 36518, 36670, 36818, 36974, 37130, 37506, 37618, 37766, 37904, 38017, 38074, 38258, 55179, 55470, 55602, 55706, 55904, 56010, 56317, 58141, 58640, 58673, 58706, 58739, 58772, 58805, 58838, 58871, 58904, 58937, 58970, 59003, 59036, 59069, 59796, 59941], "trial_type": "free-recall", "conditions": [24, 1600, "a", 12000], "internal_node_id": "0.0-88.0-0.0", "key_presses": [67, 65, 78, 89, 79, 78, 13, 69, 85, 82, 79, 80, 69, 13, 80, 65, 83, 84, 82, 89, 13, 78, 85, 82, 83, 69, 13, 76, 65, 67, 69, 13, 86, 65, 76, 76, 69, 89, 13, 80, 71, 73, 77, 69, 78, 8, 8, 8, 8, 8, 73, 71, 77, 69, 78, 84, 13, 77, 85, 83, 84, 65, 82, 68, 8, 8, 8, 8, 8, 8, 8, 8, 8, 8, 8, 8, 8, 8, 8, 67, 85], "trial": 2, "time_elapsed": 571655, "type": "FREE_RECALL", "trial_index": 115}, "uniqueid": "MTK2078:3FIJLY1B6VBY1P4MT1XFE38HKHXFPM", "dateTime": 1516689504611}, {"current_trial": 116, "trialdata": {"rt": 1900, "trial_type": "text", "internal_node_id": "0.0-89.0", "time_elapsed": 575605, "key_press": 39, "type": "INSTRUCTIONS", "trial_index": 116}, "uniqueid": "MTK2078:3FIJLY1B6VBY1P4MT1XFE38HKHXFPM", "dateTime": 1516689508559}, {"current_trial": 117, "trialdata": {"rt": [1765, 4381, 5871, 7648, 9532, 11259, 12703, 13954, 16258, 17970, 19029, 20656, 21723, 22809], "trial_type": "math-distractor", "key_times": [1578, 1666, 1765, 3201, 3304, 4381, 5593, 5705, 5871, 7344, 7500, 7648, 9240, 9356, 9532, 10683, 10831, 11259, 12419, 12567, 12703, 13954, 14031, 14986, 15963, 16122, 16258, 17438, 17573, 17970, 18893, 19029, 20365, 20508, 20656, 21397, 21545, 21723, 22462, 22581, 22809], "responses": ["16", "23", "19", "23", "16", "13", "10", "", "14", "12", "9", "18", "15", "10"], "num2": [4, 7, 3, 8, 7, 5, 4, 6, 8, 1, 2, 3, 5, 2, 9], "num3": [9, 9, 9, 8, 8, 4, 3, 5, 2, 8, 5, 7, 5, 1, 5], "conditions": [24, 800, "a", 24000], "internal_node_id": "0.0-90.0", "key_presses": [97, 102, 13, 98, 99, 13, 97, 105, 13, 98, 99, 13, 97, 102, 13, 97, 99, 13, 97, 96, 13, 13, 97, 8, 97, 100, 13, 97, 98, 13, 105, 13, 97, 104, 13, 97, 101, 13, 97, 96, 13], "trial": 3, "time_elapsed": 601607, "type": "DISTRACTOR", "trial_index": 117, "num1": [3, 7, 7, 7, 1, 4, 3, 6, 4, 3, 2, 8, 5, 7, 6]}, "uniqueid": "MTK2078:3FIJLY1B6VBY1P4MT1XFE38HKHXFPM", "dateTime": 1516689534561}, {"current_trial": 118, "trialdata": {"rt": -1, "trial_type": "single-stim", "stimulus": "<p id=\"stim\">10</p>", "internal_node_id": "0.0-91.0-0.0", "time_elapsed": 604608, "key_press": -1, "trial_index": 118}, "uniqueid": "MTK2078:3FIJLY1B6VBY1P4MT1XFE38HKHXFPM", "dateTime": 1516689537561}, {"current_trial": 119, "trialdata": {"rt": -1, "trial_type": "single-stim", "stimulus": "<p id=\"stim\">9</p>", "internal_node_id": "0.0-91.0-1.0", "time_elapsed": 605608, "key_press": -1, "trial_index": 119}, "uniqueid": "MTK2078:3FIJLY1B6VBY1P4MT1XFE38HKHXFPM", "dateTime": 1516689538561}, {"current_trial": 120, "trialdata": {"rt": -1, "trial_type": "single-stim", "stimulus": "<p id=\"stim\">8</p>", "internal_node_id": "0.0-91.0-2.0", "time_elapsed": 606608, "key_press": -1, "trial_index": 120}, "uniqueid": "MTK2078:3FIJLY1B6VBY1P4MT1XFE38HKHXFPM", "dateTime": 1516689539561}, {"current_trial": 121, "trialdata": {"rt": -1, "trial_type": "single-stim", "stimulus": "<p id=\"stim\">7</p>", "internal_node_id": "0.0-91.0-3.0", "time_elapsed": 607608, "key_press": -1, "trial_index": 121}, "uniqueid": "MTK2078:3FIJLY1B6VBY1P4MT1XFE38HKHXFPM", "dateTime": 1516689540561}, {"current_trial": 122, "trialdata": {"rt": -1, "trial_type": "single-stim", "stimulus": "<p id=\"stim\">6</p>", "internal_node_id": "0.0-91.0-4.0", "time_elapsed": 608608, "key_press": -1, "trial_index": 122}, "uniqueid": "MTK2078:3FIJLY1B6VBY1P4MT1XFE38HKHXFPM", "dateTime": 1516689541561}, {"current_trial": 123, "trialdata": {"rt": -1, "trial_type": "single-stim", "stimulus": "<p id=\"stim\">5</p>", "internal_node_id": "0.0-91.0-5.0", "time_elapsed": 609608, "key_press": -1, "trial_index": 123}, "uniqueid": "MTK2078:3FIJLY1B6VBY1P4MT1XFE38HKHXFPM", "dateTime": 1516689542561}, {"current_trial": 124, "trialdata": {"rt": -1, "trial_type": "single-stim", "stimulus": "<p id=\"stim\">4</p>", "internal_node_id": "0.0-91.0-6.0", "time_elapsed": 610608, "key_press": -1, "trial_index": 124}, "uniqueid": "MTK2078:3FIJLY1B6VBY1P4MT1XFE38HKHXFPM", "dateTime": 1516689543561}, {"current_trial": 125, "trialdata": {"rt": -1, "trial_type": "single-stim", "stimulus": "<p id=\"stim\">3</p>", "internal_node_id": "0.0-91.0-7.0", "time_elapsed": 611610, "key_press": -1, "trial_index": 125}, "uniqueid": "MTK2078:3FIJLY1B6VBY1P4MT1XFE38HKHXFPM", "dateTime": 1516689544564}, {"current_trial": 126, "trialdata": {"rt": -1, "trial_type": "single-stim", "stimulus": "<p id=\"stim\">2</p>", "internal_node_id": "0.0-91.0-8.0", "time_elapsed": 612611, "key_press": -1, "trial_index": 126}, "uniqueid": "MTK2078:3FIJLY1B6VBY1P4MT1XFE38HKHXFPM", "dateTime": 1516689545564}, {"current_trial": 127, "trialdata": {"rt": -1, "trial_type": "single-stim", "stimulus": "<p id=\"stim\">1</p>", "internal_node_id": "0.0-91.0-9.0", "time_elapsed": 613648, "key_press": -1, "trial_index": 127}, "uniqueid": "MTK2078:3FIJLY1B6VBY1P4MT1XFE38HKHXFPM", "dateTime": 1516689546601}, {"current_trial": 128, "trialdata": {"rt": -1, "trial_type": "single-stim", "stimulus": "<p id=\"stim\">+</p>", "internal_node_id": "0.0-92.0-0.0", "time_elapsed": 615148, "key_press": -1, "type": "FIXATION", "trial_index": 128}, "uniqueid": "MTK2078:3FIJLY1B6VBY1P4MT1XFE38HKHXFPM", "dateTime": 1516689548101}, {"current_trial": 129, "trialdata": {"rt": -1000, "trial_type": "single-audio", "word": "tractor", "stimulus": "/static/audio/wordpool/TRACTOR.wav", "conditions": [24, 800, "a", 24000], "internal_node_id": "0.0-93.0", "trial": 3, "time_elapsed": 616967, "serialpos": 0, "key_press": -1, "wordID": 1492, "type": "PRES_AUD", "trial_index": 129}, "uniqueid": "MTK2078:3FIJLY1B6VBY1P4MT1XFE38HKHXFPM", "dateTime": 1516689549920}, {"current_trial": 130, "trialdata": {"rt": -1000, "trial_type": "single-audio", "word": "space", "stimulus": "/static/audio/wordpool/SPACE.wav", "conditions": [24, 800, "a", 24000], "internal_node_id": "0.0-94.0", "trial": 3, "time_elapsed": 618839, "serialpos": 1, "key_press": -1, "wordID": 1344, "type": "PRES_AUD", "trial_index": 130}, "uniqueid": "MTK2078:3FIJLY1B6VBY1P4MT1XFE38HKHXFPM", "dateTime": 1516689551792}, {"current_trial": 131, "trialdata": {"rt": -1000, "trial_type": "single-audio", "word": "flipper", "stimulus": "/static/audio/wordpool/FLIPPER.wav", "conditions": [24, 800, "a", 24000], "internal_node_id": "0.0-95.0", "trial": 3, "time_elapsed": 620504, "serialpos": 2, "key_press": -1, "wordID": 579, "type": "PRES_AUD", "trial_index": 131}, "uniqueid": "MTK2078:3FIJLY1B6VBY1P4MT1XFE38HKHXFPM", "dateTime": 1516689553457}, {"current_trial": 132, "trialdata": {"rt": -1000, "trial_type": "single-audio", "word": "wagon", "stimulus": "/static/audio/wordpool/WAGON.wav", "conditions": [24, 800, "a", 24000], "internal_node_id": "0.0-96.0", "trial": 3, "time_elapsed": 622439, "serialpos": 3, "key_press": -1, "wordID": 1577, "type": "PRES_AUD", "trial_index": 132}, "uniqueid": "MTK2078:3FIJLY1B6VBY1P4MT1XFE38HKHXFPM", "dateTime": 1516689555392}, {"current_trial": 133, "trialdata": {"rt": -1000, "trial_type": "single-audio", "word": "chest", "stimulus": "/static/audio/wordpool/CHEST.wav", "conditions": [24, 800, "a", 24000], "internal_node_id": "0.0-97.0", "trial": 3, "time_elapsed": 624163, "serialpos": 4, "key_press": -1, "wordID": 294, "type": "PRES_AUD", "trial_index": 133}, "uniqueid": "MTK2078:3FIJLY1B6VBY1P4MT1XFE38HKHXFPM", "dateTime": 1516689557116}, {"current_trial": 134, "trialdata": {"rt": -1000, "trial_type": "single-audio", "word": "razor", "stimulus": "/static/audio/wordpool/RAZOR.wav", "conditions": [24, 800, "a", 24000], "internal_node_id": "0.0-98.0", "trial": 3, "time_elapsed": 626088, "serialpos": 5, "key_press": -1, "wordID": 1170, "type": "PRES_AUD", "trial_index": 134}, "uniqueid": "MTK2078:3FIJLY1B6VBY1P4MT1XFE38HKHXFPM", "dateTime": 1516689559041}, {"current_trial": 135, "trialdata": {"rt": -1000, "trial_type": "single-audio", "word": "sculpture", "stimulus": "/static/audio/wordpool/SCULPTURE.wav", "conditions": [24, 800, "a", 24000], "internal_node_id": "0.0-99.0", "trial": 3, "time_elapsed": 627912, "serialpos": 6, "key_press": -1, "wordID": 1257, "type": "PRES_AUD", "trial_index": 135}, "uniqueid": "MTK2078:3FIJLY1B6VBY1P4MT1XFE38HKHXFPM", "dateTime": 1516689560865}, {"current_trial": 136, "trialdata": {"rt": -1000, "trial_type": "single-audio", "word": "statue", "stimulus": "/static/audio/wordpool/STATUE.wav", "conditions": [24, 800, "a", 24000], "internal_node_id": "0.0-100.0", "trial": 3, "time_elapsed": 629567, "serialpos": 7, "key_press": -1, "wordID": 1373, "type": "PRES_AUD", "trial_index": 136}, "uniqueid": "MTK2078:3FIJLY1B6VBY1P4MT1XFE38HKHXFPM", "dateTime": 1516689562520}, {"current_trial": 137, "trialdata": {"rt": -1000, "trial_type": "single-audio", "word": "sunset", "stimulus": "/static/audio/wordpool/SUNSET.wav", "conditions": [24, 800, "a", 24000], "internal_node_id": "0.0-101.0", "trial": 3, "time_elapsed": 631340, "serialpos": 8, "key_press": -1, "wordID": 1407, "type": "PRES_AUD", "trial_index": 137}, "uniqueid": "MTK2078:3FIJLY1B6VBY1P4MT1XFE38HKHXFPM", "dateTime": 1516689564293}, {"current_trial": 138, "trialdata": {"rt": -1000, "trial_type": "single-audio", "word": "friend", "stimulus": "/static/audio/wordpool/FRIEND.wav", "conditions": [24, 800, "a", 24000], "internal_node_id": "0.0-102.0", "trial": 3, "time_elapsed": 632946, "serialpos": 9, "key_press": -1, "wordID": 605, "type": "PRES_AUD", "trial_index": 138}, "uniqueid": "MTK2078:3FIJLY1B6VBY1P4MT1XFE38HKHXFPM", "dateTime": 1516689565899}, {"current_trial": 139, "trialdata": {"rt": -1000, "trial_type": "single-audio", "word": "france", "stimulus": "/static/audio/wordpool/FRANCE.wav", "conditions": [24, 800, "a", 24000], "internal_node_id": "0.0-103.0", "trial": 3, "time_elapsed": 634581, "serialpos": 10, "key_press": -1, "wordID": 600, "type": "PRES_AUD", "trial_index": 139}, "uniqueid": "MTK2078:3FIJLY1B6VBY1P4MT1XFE38HKHXFPM", "dateTime": 1516689567534}, {"current_trial": 140, "trialdata": {"rt": -1000, "trial_type": "single-audio", "word": "mars", "stimulus": "/static/audio/wordpool/MARS.wav", "conditions": [24, 800, "a", 24000], "internal_node_id": "0.0-104.0", "trial": 3, "time_elapsed": 636352, "serialpos": 11, "key_press": -1, "wordID": 872, "type": "PRES_AUD", "trial_index": 140}, "uniqueid": "MTK2078:3FIJLY1B6VBY1P4MT1XFE38HKHXFPM", "dateTime": 1516689569305}, {"current_trial": 141, "trialdata": {"rt": -1000, "trial_type": "single-audio", "word": "tutu", "stimulus": "/static/audio/wordpool/TUTU.wav", "conditions": [24, 800, "a", 24000], "internal_node_id": "0.0-105.0", "trial": 3, "time_elapsed": 638312, "serialpos": 12, "key_press": -1, "wordID": 1523, "type": "PRES_AUD", "trial_index": 141}, "uniqueid": "MTK2078:3FIJLY1B6VBY1P4MT1XFE38HKHXFPM", "dateTime": 1516689571265}, {"current_trial": 142, "trialdata": {"rt": -1000, "trial_type": "single-audio", "word": "author", "stimulus": "/static/audio/wordpool/AUTHOR.wav", "conditions": [24, 800, "a", 24000], "internal_node_id": "0.0-106.0", "trial": 3, "time_elapsed": 640008, "serialpos": 13, "key_press": -1, "wordID": 60, "type": "PRES_AUD", "trial_index": 142}, "uniqueid": "MTK2078:3FIJLY1B6VBY1P4MT1XFE38HKHXFPM", "dateTime": 1516689572961}, {"current_trial": 143, "trialdata": {"rt": -1000, "trial_type": "single-audio", "word": "brother", "stimulus": "/static/audio/wordpool/BROTHER.wav", "conditions": [24, 800, "a", 24000], "internal_node_id": "0.0-107.0", "trial": 3, "time_elapsed": 641619, "serialpos": 14, "key_press": -1, "wordID": 178, "type": "PRES_AUD", "trial_index": 143}, "uniqueid": "MTK2078:3FIJLY1B6VBY1P4MT1XFE38HKHXFPM", "dateTime": 1516689574572}, {"current_trial": 144, "trialdata": {"rt": -1000, "trial_type": "single-audio", "word": "sibling", "stimulus": "/static/audio/wordpool/SIBLING.wav", "conditions": [24, 800, "a", 24000], "internal_node_id": "0.0-108.0", "trial": 3, "time_elapsed": 643537, "serialpos": 15, "key_press": -1, "wordID": 1300, "type": "PRES_AUD", "trial_index": 144}, "uniqueid": "MTK2078:3FIJLY1B6VBY1P4MT1XFE38HKHXFPM", "dateTime": 1516689576490}, {"current_trial": 145, "trialdata": {"rt": -1000, "trial_type": "single-audio", "word": "hero", "stimulus": "/static/audio/wordpool/HERO.wav", "conditions": [24, 800, "a", 24000], "internal_node_id": "0.0-109.0", "trial": 3, "time_elapsed": 645292, "serialpos": 16, "key_press": -1, "wordID": 705, "type": "PRES_AUD", "trial_index": 145}, "uniqueid": "MTK2078:3FIJLY1B6VBY1P4MT1XFE38HKHXFPM", "dateTime": 1516689578245}, {"current_trial": 146, "trialdata": {"rt": -1000, "trial_type": "single-audio", "word": "beaver", "stimulus": "/static/audio/wordpool/BEAVER.wav", "conditions": [24, 800, "a", 24000], "internal_node_id": "0.0-110.0", "trial": 3, "time_elapsed": 647114, "serialpos": 17, "key_press": -1, "wordID": 108, "type": "PRES_AUD", "trial_index": 146}, "uniqueid": "MTK2078:3FIJLY1B6VBY1P4MT1XFE38HKHXFPM", "dateTime": 1516689580067}, {"current_trial": 147, "trialdata": {"rt": -1000, "trial_type": "single-audio", "word": "chauffeur", "stimulus": "/static/audio/wordpool/CHAUFFEUR.wav", "conditions": [24, 800, "a", 24000], "internal_node_id": "0.0-111.0", "trial": 3, "time_elapsed": 648761, "serialpos": 18, "key_press": -1, "wordID": 282, "type": "PRES_AUD", "trial_index": 147}, "uniqueid": "MTK2078:3FIJLY1B6VBY1P4MT1XFE38HKHXFPM", "dateTime": 1516689581714}, {"current_trial": 148, "trialdata": {"rt": -1000, "trial_type": "single-audio", "word": "pistol", "stimulus": "/static/audio/wordpool/PISTOL.wav", "conditions": [24, 800, "a", 24000], "internal_node_id": "0.0-112.0", "trial": 3, "time_elapsed": 650388, "serialpos": 19, "key_press": -1, "wordID": 1074, "type": "PRES_AUD", "trial_index": 148}, "uniqueid": "MTK2078:3FIJLY1B6VBY1P4MT1XFE38HKHXFPM", "dateTime": 1516689583341}, {"current_trial": 149, "trialdata": {"rt": -1000, "trial_type": "single-audio", "word": "pepper", "stimulus": "/static/audio/wordpool/PEPPER.wav", "conditions": [24, 800, "a", 24000], "internal_node_id": "0.0-113.0", "trial": 3, "time_elapsed": 652196, "serialpos": 20, "key_press": -1, "wordID": 1046, "type": "PRES_AUD", "trial_index": 149}, "uniqueid": "MTK2078:3FIJLY1B6VBY1P4MT1XFE38HKHXFPM", "dateTime": 1516689585149}, {"current_trial": 150, "trialdata": {"rt": -1000, "trial_type": "single-audio", "word": "robber", "stimulus": "/static/audio/wordpool/ROBBER.wav", "conditions": [24, 800, "a", 24000], "internal_node_id": "0.0-114.0", "trial": 3, "time_elapsed": 653900, "serialpos": 21, "key_press": -1, "wordID": 1196, "type": "PRES_AUD", "trial_index": 150}, "uniqueid": "MTK2078:3FIJLY1B6VBY1P4MT1XFE38HKHXFPM", "dateTime": 1516689586853}, {"current_trial": 151, "trialdata": {"rt": -1000, "trial_type": "single-audio", "word": "rabbit", "stimulus": "/static/audio/wordpool/RABBIT.wav", "conditions": [24, 800, "a", 24000], "internal_node_id": "0.0-115.0", "trial": 3, "time_elapsed": 655541, "serialpos": 22, "key_press": -1, "wordID": 1151, "type": "PRES_AUD", "trial_index": 151}, "uniqueid": "MTK2078:3FIJLY1B6VBY1P4MT1XFE38HKHXFPM", "dateTime": 1516689588494}, {"current_trial": 152, "trialdata": {"rt": -1000, "trial_type": "single-audio", "word": "actor", "stimulus": "/static/audio/wordpool/ACTOR.wav", "conditions": [24, 800, "a", 24000], "internal_node_id": "0.0-116.0", "trial": 3, "time_elapsed": 657274, "serialpos": 23, "key_press": -1, "wordID": 4, "type": "PRES_AUD", "trial_index": 152}, "uniqueid": "MTK2078:3FIJLY1B6VBY1P4MT1XFE38HKHXFPM", "dateTime": 1516689590227}, {"current_trial": 153, "trialdata": {"rt": -1, "trial_type": "single-stim", "stimulus": "", "internal_node_id": "0.0-117.0-0.0", "time_elapsed": 658476, "key_press": -1, "type": "PRE_RECALL_DELAY", "trial_index": 153}, "uniqueid": "MTK2078:3FIJLY1B6VBY1P4MT1XFE38HKHXFPM", "dateTime": 1516689591429}, {"current_trial": 154, "trialdata": {"rt": -1000, "trial_type": "single-audio", "stimulus": "/static/audio/400Hz.wav", "internal_node_id": "0.0-118.0", "time_elapsed": 658976, "key_press": -1, "type": "PRE_RECALL_ALERT", "trial_index": 154}, "uniqueid": "MTK2078:3FIJLY1B6VBY1P4MT1XFE38HKHXFPM", "dateTime": 1516689591929}, {"current_trial": 155, "trialdata": {"rt": [2044, 3863, 5875, 7977, 40438, 58631, 59870], "recwords": ["actor", "robber", "rabbit", "tractor", "chauffeur", "sculpture", "statue"], "key_times": [708, 920, 1152, 1388, 1468, 2044, 2356, 2536, 2676, 2816, 3011, 3075, 3863, 4287, 4467, 5151, 5295, 5467, 5559, 5875, 6319, 6497, 6613, 6823, 7031, 7210, 7290, 7977, 31570, 31740, 31792, 33128, 33208, 33548, 33732, 33792, 35863, 36032, 36323, 36525, 36656, 36787, 36863, 40438, 55303, 55627, 55955, 56119, 56573, 57174, 57306, 57382, 57538, 58631, 58702, 58874, 59286, 59417, 59597, 59686, 59870], "trial_type": "free-recall", "conditions": [24, 800, "a", 24000], "internal_node_id": "0.0-119.0-0.0", "key_presses": [65, 67, 84, 79, 82, 13, 82, 79, 66, 66, 69, 82, 13, 82, 65, 66, 66, 73, 84, 13, 84, 82, 65, 67, 84, 79, 82, 13, 67, 72, 65, 85, 70, 69, 85, 82, 8, 8, 8, 70, 69, 85, 82, 13, 83, 67, 85, 76, 80, 84, 85, 82, 69, 13, 83, 84, 65, 84, 85, 69, 13], "trial": 3, "time_elapsed": 718977, "type": "FREE_RECALL", "trial_index": 155}, "uniqueid": "MTK2078:3FIJLY1B6VBY1P4MT1XFE38HKHXFPM", "dateTime": 1516689651933}, {"current_trial": 156, "trialdata": {"rt": 1809, "trial_type": "text", "internal_node_id": "0.0-120.0", "time_elapsed": 722791, "key_press": 39, "type": "INSTRUCTIONS", "trial_index": 156}, "uniqueid": "MTK2078:3FIJLY1B6VBY1P4MT1XFE38HKHXFPM", "dateTime": 1516689655744}, {"current_trial": 157, "trialdata": {"rt": [1869, 3852, 4786, 6044, 7707, 9051, 11441], "trial_type": "math-distractor", "key_times": [1597, 1729, 1869, 3572, 3720, 3852, 4640, 4786, 5812, 5932, 6044, 7443, 7575, 7707, 8746, 8827, 9051, 11202, 11317, 11441], "responses": ["11", "22", "8", "10", "12", "13", "19"], "num2": [1, 8, 1, 1, 6, 5, 9, 6], "num3": [1, 8, 3, 1, 4, 4, 6, 5], "conditions": [24, 800, "a", 12000], "internal_node_id": "0.0-121.0", "key_presses": [97, 97, 13, 98, 98, 13, 104, 13, 97, 96, 13, 97, 98, 13, 97, 99, 13, 97, 105, 13], "trial": 4, "time_elapsed": 736792, "type": "DISTRACTOR", "trial_index": 157, "num1": [9, 6, 4, 8, 2, 4, 4, 5]}, "uniqueid": "MTK2078:3FIJLY1B6VBY1P4MT1XFE38HKHXFPM", "dateTime": 1516689669746}, {"current_trial": 158, "trialdata": {"rt": -1, "trial_type": "single-stim", "stimulus": "<p id=\"stim\">10</p>", "internal_node_id": "0.0-122.0-0.0", "time_elapsed": 739794, "key_press": -1, "trial_index": 158}, "uniqueid": "MTK2078:3FIJLY1B6VBY1P4MT1XFE38HKHXFPM", "dateTime": 1516689672747}, {"current_trial": 159, "trialdata": {"rt": -1, "trial_type": "single-stim", "stimulus": "<p id=\"stim\">9</p>", "internal_node_id": "0.0-122.0-1.0", "time_elapsed": 740794, "key_press": -1, "trial_index": 159}, "uniqueid": "MTK2078:3FIJLY1B6VBY1P4MT1XFE38HKHXFPM", "dateTime": 1516689673747}, {"current_trial": 160, "trialdata": {"rt": -1, "trial_type": "single-stim", "stimulus": "<p id=\"stim\">8</p>", "internal_node_id": "0.0-122.0-2.0", "time_elapsed": 741794, "key_press": -1, "trial_index": 160}, "uniqueid": "MTK2078:3FIJLY1B6VBY1P4MT1XFE38HKHXFPM", "dateTime": 1516689674747}, {"current_trial": 161, "trialdata": {"rt": -1, "trial_type": "single-stim", "stimulus": "<p id=\"stim\">7</p>", "internal_node_id": "0.0-122.0-3.0", "time_elapsed": 742794, "key_press": -1, "trial_index": 161}, "uniqueid": "MTK2078:3FIJLY1B6VBY1P4MT1XFE38HKHXFPM", "dateTime": 1516689675747}, {"current_trial": 162, "trialdata": {"rt": -1, "trial_type": "single-stim", "stimulus": "<p id=\"stim\">6</p>", "internal_node_id": "0.0-122.0-4.0", "time_elapsed": 743794, "key_press": -1, "trial_index": 162}, "uniqueid": "MTK2078:3FIJLY1B6VBY1P4MT1XFE38HKHXFPM", "dateTime": 1516689676747}, {"current_trial": 163, "trialdata": {"rt": -1, "trial_type": "single-stim", "stimulus": "<p id=\"stim\">5</p>", "internal_node_id": "0.0-122.0-5.0", "time_elapsed": 744794, "key_press": -1, "trial_index": 163}, "uniqueid": "MTK2078:3FIJLY1B6VBY1P4MT1XFE38HKHXFPM", "dateTime": 1516689677747}, {"current_trial": 164, "trialdata": {"rt": -1, "trial_type": "single-stim", "stimulus": "<p id=\"stim\">4</p>", "internal_node_id": "0.0-122.0-6.0", "time_elapsed": 745794, "key_press": -1, "trial_index": 164}, "uniqueid": "MTK2078:3FIJLY1B6VBY1P4MT1XFE38HKHXFPM", "dateTime": 1516689678747}, {"current_trial": 165, "trialdata": {"rt": 858, "trial_type": "single-stim", "stimulus": "<p id=\"stim\">3</p>", "internal_node_id": "0.0-122.0-7.0", "time_elapsed": 746794, "key_press": 175, "trial_index": 165}, "uniqueid": "MTK2078:3FIJLY1B6VBY1P4MT1XFE38HKHXFPM", "dateTime": 1516689679747}, {"current_trial": 166, "trialdata": {"rt": 145, "trial_type": "single-stim", "stimulus": "<p id=\"stim\">2</p>", "internal_node_id": "0.0-122.0-8.0", "time_elapsed": 747794, "key_press": 175, "trial_index": 166}, "uniqueid": "MTK2078:3FIJLY1B6VBY1P4MT1XFE38HKHXFPM", "dateTime": 1516689680747}, {"current_trial": 167, "trialdata": {"rt": -1, "trial_type": "single-stim", "stimulus": "<p id=\"stim\">1</p>", "internal_node_id": "0.0-122.0-9.0", "time_elapsed": 748794, "key_press": -1, "trial_index": 167}, "uniqueid": "MTK2078:3FIJLY1B6VBY1P4MT1XFE38HKHXFPM", "dateTime": 1516689681747}, {"current_trial": 168, "trialdata": {"rt": -1, "trial_type": "single-stim", "stimulus": "<p id=\"stim\">+</p>", "internal_node_id": "0.0-123.0-0.0", "time_elapsed": 750295, "key_press": -1, "type": "FIXATION", "trial_index": 168}, "uniqueid": "MTK2078:3FIJLY1B6VBY1P4MT1XFE38HKHXFPM", "dateTime": 1516689683248}, {"current_trial": 169, "trialdata": {"rt": 799.7732426304083, "trial_type": "single-audio", "word": "convict", "stimulus": "/static/audio/wordpool/CONVICT.wav", "conditions": [24, 800, "a", 12000], "internal_node_id": "0.0-124.0", "trial": 4, "time_elapsed": 751975, "serialpos": 0, "key_press": 175, "wordID": 370, "type": "PRES_AUD", "trial_index": 169}, "uniqueid": "MTK2078:3FIJLY1B6VBY1P4MT1XFE38HKHXFPM", "dateTime": 1516689684928}, {"current_trial": 170, "trialdata": {"rt": 1449.9319727891589, "trial_type": "single-audio", "word": "judge", "stimulus": "/static/audio/wordpool/JUDGE.wav", "conditions": [24, 800, "a", 12000], "internal_node_id": "0.0-125.0", "trial": 4, "time_elapsed": 753681, "serialpos": 1, "key_press": 175, "wordID": 760, "type": "PRES_AUD", "trial_index": 170}, "uniqueid": "MTK2078:3FIJLY1B6VBY1P4MT1XFE38HKHXFPM", "dateTime": 1516689686634}, {"current_trial": 171, "trialdata": {"rt": 108.97959183671446, "trial_type": "single-audio", "word": "ghetto", "stimulus": "/static/audio/wordpool/GHETTO.wav", "conditions": [24, 800, "a", 12000], "internal_node_id": "0.0-126.0", "trial": 4, "time_elapsed": 755282, "serialpos": 2, "key_press": 175, "wordID": 632, "type": "PRES_AUD", "trial_index": 171}, "uniqueid": "MTK2078:3FIJLY1B6VBY1P4MT1XFE38HKHXFPM", "dateTime": 1516689688235}, {"current_trial": 172, "trialdata": {"rt": -1000, "trial_type": "single-audio", "word": "soda", "stimulus": "/static/audio/wordpool/SODA.wav", "conditions": [24, 800, "a", 12000], "internal_node_id": "0.0-127.0", "trial": 4, "time_elapsed": 756954, "serialpos": 3, "key_press": -1, "wordID": 1340, "type": "PRES_AUD", "trial_index": 172}, "uniqueid": "MTK2078:3FIJLY1B6VBY1P4MT1XFE38HKHXFPM", "dateTime": 1516689689907}, {"current_trial": 173, "trialdata": {"rt": -1000, "trial_type": "single-audio", "word": "oyster", "stimulus": "/static/audio/wordpool/OYSTER.wav", "conditions": [24, 800, "a", 12000], "internal_node_id": "0.0-128.0", "trial": 4, "time_elapsed": 758873, "serialpos": 4, "key_press": -1, "wordID": 994, "type": "PRES_AUD", "trial_index": 173}, "uniqueid": "MTK2078:3FIJLY1B6VBY1P4MT1XFE38HKHXFPM", "dateTime": 1516689691826}, {"current_trial": 174, "trialdata": {"rt": -1000, "trial_type": "single-audio", "word": "egypt", "stimulus": "/static/audio/wordpool/EGYPT.wav", "conditions": [24, 800, "a", 12000], "internal_node_id": "0.0-129.0", "trial": 4, "time_elapsed": 760714, "serialpos": 5, "key_press": -1, "wordID": 518, "type": "PRES_AUD", "trial_index": 174}, "uniqueid": "MTK2078:3FIJLY1B6VBY1P4MT1XFE38HKHXFPM", "dateTime": 1516689693667}, {"current_trial": 175, "trialdata": {"rt": -1000, "trial_type": "single-audio", "word": "hiker", "stimulus": "/static/audio/wordpool/HIKER.wav", "conditions": [24, 800, "a", 12000], "internal_node_id": "0.0-130.0", "trial": 4, "time_elapsed": 762478, "serialpos": 6, "key_press": -1, "wordID": 707, "type": "PRES_AUD", "trial_index": 175}, "uniqueid": "MTK2078:3FIJLY1B6VBY1P4MT1XFE38HKHXFPM", "dateTime": 1516689695431}, {"current_trial": 176, "trialdata": {"rt": -1000, "trial_type": "single-audio", "word": "climber", "stimulus": "/static/audio/wordpool/CLIMBER.wav", "conditions": [24, 800, "a", 12000], "internal_node_id": "0.0-131.0", "trial": 4, "time_elapsed": 764127, "serialpos": 7, "key_press": -1, "wordID": 322, "type": "PRES_AUD", "trial_index": 176}, "uniqueid": "MTK2078:3FIJLY1B6VBY1P4MT1XFE38HKHXFPM", "dateTime": 1516689697080}, {"current_trial": 177, "trialdata": {"rt": -1000, "trial_type": "single-audio", "word": "bucket", "stimulus": "/static/audio/wordpool/BUCKET.wav", "conditions": [24, 800, "a", 12000], "internal_node_id": "0.0-132.0", "trial": 4, "time_elapsed": 766057, "serialpos": 8, "key_press": -1, "wordID": 183, "type": "PRES_AUD", "trial_index": 177}, "uniqueid": "MTK2078:3FIJLY1B6VBY1P4MT1XFE38HKHXFPM", "dateTime": 1516689699010}, {"current_trial": 178, "trialdata": {"rt": -1000, "trial_type": "single-audio", "word": "blender", "stimulus": "/static/audio/wordpool/BLENDER.wav", "conditions": [24, 800, "a", 12000], "internal_node_id": "0.0-133.0", "trial": 4, "time_elapsed": 767770, "serialpos": 9, "key_press": -1, "wordID": 135, "type": "PRES_AUD", "trial_index": 178}, "uniqueid": "MTK2078:3FIJLY1B6VBY1P4MT1XFE38HKHXFPM", "dateTime": 1516689700723}, {"current_trial": 179, "trialdata": {"rt": -1000, "trial_type": "single-audio", "word": "chapel", "stimulus": "/static/audio/wordpool/CHAPEL.wav", "conditions": [24, 800, "a", 12000], "internal_node_id": "0.0-134.0", "trial": 4, "time_elapsed": 769403, "serialpos": 10, "key_press": -1, "wordID": 279, "type": "PRES_AUD", "trial_index": 179}, "uniqueid": "MTK2078:3FIJLY1B6VBY1P4MT1XFE38HKHXFPM", "dateTime": 1516689702356}, {"current_trial": 180, "trialdata": {"rt": -1000, "trial_type": "single-audio", "word": "popcorn", "stimulus": "/static/audio/wordpool/POPCORN.wav", "conditions": [24, 800, "a", 12000], "internal_node_id": "0.0-135.0", "trial": 4, "time_elapsed": 771202, "serialpos": 11, "key_press": -1, "wordID": 1103, "type": "PRES_AUD", "trial_index": 180}, "uniqueid": "MTK2078:3FIJLY1B6VBY1P4MT1XFE38HKHXFPM", "dateTime": 1516689704155}, {"current_trial": 181, "trialdata": {"rt": -1000, "trial_type": "single-audio", "word": "banquet", "stimulus": "/static/audio/wordpool/BANQUET.wav", "conditions": [24, 800, "a", 12000], "internal_node_id": "0.0-136.0", "trial": 4, "time_elapsed": 772955, "serialpos": 12, "key_press": -1, "wordID": 85, "type": "PRES_AUD", "trial_index": 181}, "uniqueid": "MTK2078:3FIJLY1B6VBY1P4MT1XFE38HKHXFPM", "dateTime": 1516689705908}, {"current_trial": 182, "trialdata": {"rt": -1000, "trial_type": "single-audio", "word": "perfume", "stimulus": "/static/audio/wordpool/PERFUME.wav", "conditions": [24, 800, "a", 12000], "internal_node_id": "0.0-137.0", "trial": 4, "time_elapsed": 774789, "serialpos": 13, "key_press": -1, "wordID": 1048, "type": "PRES_AUD", "trial_index": 182}, "uniqueid": "MTK2078:3FIJLY1B6VBY1P4MT1XFE38HKHXFPM", "dateTime": 1516689707742}, {"current_trial": 183, "trialdata": {"rt": -1000, "trial_type": "single-audio", "word": "slime", "stimulus": "/static/audio/wordpool/SLIME.wav", "conditions": [24, 800, "a", 12000], "internal_node_id": "0.0-138.0", "trial": 4, "time_elapsed": 776547, "serialpos": 14, "key_press": -1, "wordID": 1326, "type": "PRES_AUD", "trial_index": 183}, "uniqueid": "MTK2078:3FIJLY1B6VBY1P4MT1XFE38HKHXFPM", "dateTime": 1516689709500}, {"current_trial": 184, "trialdata": {"rt": -1000, "trial_type": "single-audio", "word": "pudding", "stimulus": "/static/audio/wordpool/PUDDING.wav", "conditions": [24, 800, "a", 12000], "internal_node_id": "0.0-139.0", "trial": 4, "time_elapsed": 778473, "serialpos": 15, "key_press": -1, "wordID": 1138, "type": "PRES_AUD", "trial_index": 184}, "uniqueid": "MTK2078:3FIJLY1B6VBY1P4MT1XFE38HKHXFPM", "dateTime": 1516689711426}, {"current_trial": 185, "trialdata": {"rt": -1000, "trial_type": "single-audio", "word": "piston", "stimulus": "/static/audio/wordpool/PISTON.wav", "conditions": [24, 800, "a", 12000], "internal_node_id": "0.0-140.0", "trial": 4, "time_elapsed": 780391, "serialpos": 16, "key_press": -1, "wordID": 1075, "type": "PRES_AUD", "trial_index": 185}, "uniqueid": "MTK2078:3FIJLY1B6VBY1P4MT1XFE38HKHXFPM", "dateTime": 1516689713344}, {"current_trial": 186, "trialdata": {"rt": -1000, "trial_type": "single-audio", "word": "foot", "stimulus": "/static/audio/wordpool/FOOT.wav", "conditions": [24, 800, "a", 12000], "internal_node_id": "0.0-141.0", "trial": 4, "time_elapsed": 782058, "serialpos": 17, "key_press": -1, "wordID": 589, "type": "PRES_AUD", "trial_index": 186}, "uniqueid": "MTK2078:3FIJLY1B6VBY1P4MT1XFE38HKHXFPM", "dateTime": 1516689715011}, {"current_trial": 187, "trialdata": {"rt": -1000, "trial_type": "single-audio", "word": "japan", "stimulus": "/static/audio/wordpool/JAPAN.wav", "conditions": [24, 800, "a", 12000], "internal_node_id": "0.0-142.0", "trial": 4, "time_elapsed": 783769, "serialpos": 18, "key_press": -1, "wordID": 748, "type": "PRES_AUD", "trial_index": 187}, "uniqueid": "MTK2078:3FIJLY1B6VBY1P4MT1XFE38HKHXFPM", "dateTime": 1516689716722}, {"current_trial": 188, "trialdata": {"rt": -1000, "trial_type": "single-audio", "word": "asia", "stimulus": "/static/audio/wordpool/ASIA.wav", "conditions": [24, 800, "a", 12000], "internal_node_id": "0.0-143.0", "trial": 4, "time_elapsed": 785610, "serialpos": 19, "key_press": -1, "wordID": 45, "type": "PRES_AUD", "trial_index": 188}, "uniqueid": "MTK2078:3FIJLY1B6VBY1P4MT1XFE38HKHXFPM", "dateTime": 1516689718563}, {"current_trial": 189, "trialdata": {"rt": -1000, "trial_type": "single-audio", "word": "seagull", "stimulus": "/static/audio/wordpool/SEAGULL.wav", "conditions": [24, 800, "a", 12000], "internal_node_id": "0.0-144.0", "trial": 4, "time_elapsed": 787235, "serialpos": 20, "key_press": -1, "wordID": 1260, "type": "PRES_AUD", "trial_index": 189}, "uniqueid": "MTK2078:3FIJLY1B6VBY1P4MT1XFE38HKHXFPM", "dateTime": 1516689720188}, {"current_trial": 190, "trialdata": {"rt": -1000, "trial_type": "single-audio", "word": "uncle", "stimulus": "/static/audio/wordpool/UNCLE.wav", "conditions": [24, 800, "a", 12000], "internal_node_id": "0.0-145.0", "trial": 4, "time_elapsed": 789027, "serialpos": 21, "key_press": -1, "wordID": 1535, "type": "PRES_AUD", "trial_index": 190}, "uniqueid": "MTK2078:3FIJLY1B6VBY1P4MT1XFE38HKHXFPM", "dateTime": 1516689721980}, {"current_trial": 191, "trialdata": {"rt": -1000, "trial_type": "single-audio", "word": "quail", "stimulus": "/static/audio/wordpool/QUAIL.wav", "conditions": [24, 800, "a", 12000], "internal_node_id": "0.0-146.0", "trial": 4, "time_elapsed": 790686, "serialpos": 22, "key_press": -1, "wordID": 1146, "type": "PRES_AUD", "trial_index": 191}, "uniqueid": "MTK2078:3FIJLY1B6VBY1P4MT1XFE38HKHXFPM", "dateTime": 1516689723639}, {"current_trial": 192, "trialdata": {"rt": -1000, "trial_type": "single-audio", "word": "fragrance", "stimulus": "/static/audio/wordpool/FRAGRANCE.wav", "conditions": [24, 800, "a", 12000], "internal_node_id": "0.0-147.0", "trial": 4, "time_elapsed": 792662, "serialpos": 23, "key_press": -1, "wordID": 598, "type": "PRES_AUD", "trial_index": 192}, "uniqueid": "MTK2078:3FIJLY1B6VBY1P4MT1XFE38HKHXFPM", "dateTime": 1516689725615}, {"current_trial": 193, "trialdata": {"rt": -1, "trial_type": "single-stim", "stimulus": "", "internal_node_id": "0.0-148.0-0.0", "time_elapsed": 793895, "key_press": -1, "type": "PRE_RECALL_DELAY", "trial_index": 193}, "uniqueid": "MTK2078:3FIJLY1B6VBY1P4MT1XFE38HKHXFPM", "dateTime": 1516689726848}, {"current_trial": 194, "trialdata": {"rt": -1000, "trial_type": "single-audio", "stimulus": "/static/audio/400Hz.wav", "internal_node_id": "0.0-149.0", "time_elapsed": 794395, "key_press": -1, "type": "PRE_RECALL_ALERT", "trial_index": 194}, "uniqueid": "MTK2078:3FIJLY1B6VBY1P4MT1XFE38HKHXFPM", "dateTime": 1516689727348}, {"current_trial": 195, "trialdata": {"rt": [7761, 9545, 11712, 14081, 18371, 22058, 24513, 27260, 28336, 40569, 58437], "recwords": ["fragrance", "uncle", "seagull", "judge", "ghetto", "japan", "asia", "pudding", "slime", "climber", "quail"], "key_times": [1715, 1899, 2039, 2203, 2559, 2826, 2906, 3038, 3262, 5762, 5938, 6334, 6913, 7025, 7253, 7761, 8665, 8869, 9009, 9113, 9233, 9545, 9805, 9973, 10143, 10273, 10633, 10824, 10988, 11712, 12836, 13031, 13087, 13271, 13467, 14081, 14500, 14812, 15383, 15683, 15711, 15899, 16193, 16247, 18371, 20558, 21051, 21206, 21354, 21530, 22058, 22354, 22610, 22754, 22938, 23050, 23401, 23549, 23709, 24151, 24249, 24513, 26221, 26445, 26517, 26661, 26817, 26985, 27081, 27260, 27464, 27680, 27880, 28032, 28224, 28336, 39007, 39110, 39410, 39573, 39657, 39853, 39929, 40569, 57414, 57661, 57781, 58014, 58218, 58437], "trial_type": "free-recall", "conditions": [24, 800, "a", 12000], "internal_node_id": "0.0-150.0-0.0", "key_presses": [70, 82, 65, 71, 82, 65, 78, 67, 69, 8, 8, 8, 78, 67, 69, 13, 85, 78, 67, 76, 69, 13, 83, 69, 65, 71, 85, 76, 76, 13, 74, 85, 68, 71, 69, 13, 71, 69, 8, 72, 69, 84, 84, 79, 13, 74, 65, 80, 65, 78, 13, 65, 83, 83, 73, 65, 8, 8, 8, 73, 65, 13, 80, 85, 68, 68, 73, 78, 71, 13, 83, 76, 73, 77, 69, 13, 67, 76, 73, 77, 66, 69, 82, 13, 81, 85, 65, 73, 76, 13], "trial": 4, "time_elapsed": 854397, "type": "FREE_RECALL", "trial_index": 195}, "uniqueid": "MTK2078:3FIJLY1B6VBY1P4MT1XFE38HKHXFPM", "dateTime": 1516689787354}, {"current_trial": 196, "trialdata": {"rt": 900, "trial_type": "text", "internal_node_id": "0.0-151.0", "time_elapsed": 857301, "key_press": 37, "type": "INSTRUCTIONS", "trial_index": 196}, "uniqueid": "MTK2078:3FIJLY1B6VBY1P4MT1XFE38HKHXFPM", "dateTime": 1516689790254}, {"current_trial": 197, "trialdata": {"rt": [1485, 2374, 3569, 5001, 6745, 7644, 8500, 9348, 10728, 14219, 16078, 17961, 19817, 21077, 22637], "trial_type": "math-distractor", "key_times": [1325, 1386, 1485, 2275, 2374, 3458, 3569, 4833, 4889, 5001, 6489, 6641, 6745, 7512, 7644, 8392, 8500, 9278, 9348, 10468, 10628, 10728, 13947, 14071, 14219, 15890, 15986, 16078, 17358, 17806, 17961, 19577, 19681, 19817, 20881, 20973, 21077, 22393, 22505, 22637], "responses": ["11", "3", "9", "15", "18", "9", "9", "8", "14", "16", "15", "11", "23", "13", "15"], "num2": [2, 1, 1, 6, 7, 2, 4, 4, 1, 4, 4, 4, 9, 4, 4, 1], "num3": [1, 1, 3, 2, 6, 5, 4, 1, 7, 5, 8, 1, 9, 5, 3, 7], "conditions": [24, 1600, "a", 24000], "internal_node_id": "0.0-152.0", "key_presses": [97, 97, 13, 99, 13, 105, 13, 97, 101, 13, 97, 104, 13, 105, 13, 105, 13, 104, 13, 97, 100, 13, 97, 102, 13, 97, 101, 13, 97, 97, 13, 98, 99, 13, 97, 99, 13, 97, 101, 13], "trial": 5, "time_elapsed": 883302, "type": "DISTRACTOR", "trial_index": 197, "num1": [8, 1, 5, 7, 8, 2, 1, 3, 6, 7, 3, 6, 5, 4, 8, 5]}, "uniqueid": "MTK2078:3FIJLY1B6VBY1P4MT1XFE38HKHXFPM", "dateTime": 1516689816256}, {"current_trial": 198, "trialdata": {"rt": -1, "trial_type": "single-stim", "stimulus": "<p id=\"stim\">10</p>", "internal_node_id": "0.0-153.0-0.0", "time_elapsed": 886303, "key_press": -1, "trial_index": 198}, "uniqueid": "MTK2078:3FIJLY1B6VBY1P4MT1XFE38HKHXFPM", "dateTime": 1516689819256}, {"current_trial": 199, "trialdata": {"rt": -1, "trial_type": "single-stim", "stimulus": "<p id=\"stim\">9</p>", "internal_node_id": "0.0-153.0-1.0", "time_elapsed": 887303, "key_press": -1, "trial_index": 199}, "uniqueid": "MTK2078:3FIJLY1B6VBY1P4MT1XFE38HKHXFPM", "dateTime": 1516689820256}, {"current_trial": 200, "trialdata": {"rt": -1, "trial_type": "single-stim", "stimulus": "<p id=\"stim\">8</p>", "internal_node_id": "0.0-153.0-2.0", "time_elapsed": 888304, "key_press": -1, "trial_index": 200}, "uniqueid": "MTK2078:3FIJLY1B6VBY1P4MT1XFE38HKHXFPM", "dateTime": 1516689821257}, {"current_trial": 201, "trialdata": {"rt": -1, "trial_type": "single-stim", "stimulus": "<p id=\"stim\">7</p>", "internal_node_id": "0.0-153.0-3.0", "time_elapsed": 889304, "key_press": -1, "trial_index": 201}, "uniqueid": "MTK2078:3FIJLY1B6VBY1P4MT1XFE38HKHXFPM", "dateTime": 1516689822257}, {"current_trial": 202, "trialdata": {"rt": -1, "trial_type": "single-stim", "stimulus": "<p id=\"stim\">6</p>", "internal_node_id": "0.0-153.0-4.0", "time_elapsed": 890304, "key_press": -1, "trial_index": 202}, "uniqueid": "MTK2078:3FIJLY1B6VBY1P4MT1XFE38HKHXFPM", "dateTime": 1516689823257}, {"current_trial": 203, "trialdata": {"rt": -1, "trial_type": "single-stim", "stimulus": "<p id=\"stim\">5</p>", "internal_node_id": "0.0-153.0-5.0", "time_elapsed": 891304, "key_press": -1, "trial_index": 203}, "uniqueid": "MTK2078:3FIJLY1B6VBY1P4MT1XFE38HKHXFPM", "dateTime": 1516689824257}, {"current_trial": 204, "trialdata": {"rt": -1, "trial_type": "single-stim", "stimulus": "<p id=\"stim\">4</p>", "internal_node_id": "0.0-153.0-6.0", "time_elapsed": 892304, "key_press": -1, "trial_index": 204}, "uniqueid": "MTK2078:3FIJLY1B6VBY1P4MT1XFE38HKHXFPM", "dateTime": 1516689825257}, {"current_trial": 205, "trialdata": {"rt": -1, "trial_type": "single-stim", "stimulus": "<p id=\"stim\">3</p>", "internal_node_id": "0.0-153.0-7.0", "time_elapsed": 893304, "key_press": -1, "trial_index": 205}, "uniqueid": "MTK2078:3FIJLY1B6VBY1P4MT1XFE38HKHXFPM", "dateTime": 1516689826257}, {"current_trial": 206, "trialdata": {"rt": -1, "trial_type": "single-stim", "stimulus": "<p id=\"stim\">2</p>", "internal_node_id": "0.0-153.0-8.0", "time_elapsed": 894305, "key_press": -1, "trial_index": 206}, "uniqueid": "MTK2078:3FIJLY1B6VBY1P4MT1XFE38HKHXFPM", "dateTime": 1516689827258}, {"current_trial": 207, "trialdata": {"rt": -1, "trial_type": "single-stim", "stimulus": "<p id=\"stim\">1</p>", "internal_node_id": "0.0-153.0-9.0", "time_elapsed": 895305, "key_press": -1, "trial_index": 207}, "uniqueid": "MTK2078:3FIJLY1B6VBY1P4MT1XFE38HKHXFPM", "dateTime": 1516689828261}, {"current_trial": 208, "trialdata": {"rt": -1, "trial_type": "single-stim", "stimulus": "<p id=\"stim\">+</p>", "internal_node_id": "0.0-154.0-0.0", "time_elapsed": 896808, "key_press": -1, "type": "FIXATION", "trial_index": 208}, "uniqueid": "MTK2078:3FIJLY1B6VBY1P4MT1XFE38HKHXFPM", "dateTime": 1516689829761}, {"current_trial": 209, "trialdata": {"rt": -1000, "trial_type": "single-audio", "word": "swimmer", "stimulus": "/static/audio/wordpool/SWIMMER.wav", "conditions": [24, 1600, "a", 24000], "internal_node_id": "0.0-155.0", "trial": 5, "time_elapsed": 899229, "serialpos": 0, "key_press": -1, "wordID": 1419, "type": "PRES_AUD", "trial_index": 209}, "uniqueid": "MTK2078:3FIJLY1B6VBY1P4MT1XFE38HKHXFPM", "dateTime": 1516689832182}, {"current_trial": 210, "trialdata": {"rt": 2108.7981859410547, "trial_type": "single-audio", "word": "island", "stimulus": "/static/audio/wordpool/ISLAND.wav", "conditions": [24, 1600, "a", 24000], "internal_node_id": "0.0-156.0", "trial": 5, "time_elapsed": 902007, "serialpos": 1, "key_press": 175, "wordID": 744, "type": "PRES_AUD", "trial_index": 210}, "uniqueid": "MTK2078:3FIJLY1B6VBY1P4MT1XFE38HKHXFPM", "dateTime": 1516689834960}, {"current_trial": 211, "trialdata": {"rt": -1000, "trial_type": "single-audio", "word": "jury", "stimulus": "/static/audio/wordpool/JURY.wav", "conditions": [24, 1600, "a", 24000], "internal_node_id": "0.0-157.0", "trial": 5, "time_elapsed": 904551, "serialpos": 2, "key_press": -1, "wordID": 765, "type": "PRES_AUD", "trial_index": 211}, "uniqueid": "MTK2078:3FIJLY1B6VBY1P4MT1XFE38HKHXFPM", "dateTime": 1516689837504}, {"current_trial": 212, "trialdata": {"rt": -1000, "trial_type": "single-audio", "word": "glass", "stimulus": "/static/audio/wordpool/GLASS.wav", "conditions": [24, 1600, "a", 24000], "internal_node_id": "0.0-158.0", "trial": 5, "time_elapsed": 907058, "serialpos": 3, "key_press": -1, "wordID": 638, "type": "PRES_AUD", "trial_index": 212}, "uniqueid": "MTK2078:3FIJLY1B6VBY1P4MT1XFE38HKHXFPM", "dateTime": 1516689840011}, {"current_trial": 213, "trialdata": {"rt": -1000, "trial_type": "single-audio", "word": "message", "stimulus": "/static/audio/wordpool/MESSAGE.wav", "conditions": [24, 1600, "a", 24000], "internal_node_id": "0.0-159.0", "trial": 5, "time_elapsed": 909695, "serialpos": 4, "key_press": -1, "wordID": 887, "type": "PRES_AUD", "trial_index": 213}, "uniqueid": "MTK2078:3FIJLY1B6VBY1P4MT1XFE38HKHXFPM", "dateTime": 1516689842648}, {"current_trial": 214, "trialdata": {"rt": -1000, "trial_type": "single-audio", "word": "boyfriend", "stimulus": "/static/audio/wordpool/BOYFRIEND.wav", "conditions": [24, 1600, "a", 24000], "internal_node_id": "0.0-160.0", "trial": 5, "time_elapsed": 912226, "serialpos": 5, "key_press": -1, "wordID": 161, "type": "PRES_AUD", "trial_index": 214}, "uniqueid": "MTK2078:3FIJLY1B6VBY1P4MT1XFE38HKHXFPM", "dateTime": 1516689845179}, {"current_trial": 215, "trialdata": {"rt": -1000, "trial_type": "single-audio", "word": "girl", "stimulus": "/static/audio/wordpool/GIRL.wav", "conditions": [24, 1600, "a", 24000], "internal_node_id": "0.0-161.0", "trial": 5, "time_elapsed": 914923, "serialpos": 6, "key_press": -1, "wordID": 636, "type": "PRES_AUD", "trial_index": 215}, "uniqueid": "MTK2078:3FIJLY1B6VBY1P4MT1XFE38HKHXFPM", "dateTime": 1516689847876}, {"current_trial": 216, "trialdata": {"rt": -1000, "trial_type": "single-audio", "word": "diver", "stimulus": "/static/audio/wordpool/DIVER.wav", "conditions": [24, 1600, "a", 24000], "internal_node_id": "0.0-162.0", "trial": 5, "time_elapsed": 917455, "serialpos": 7, "key_press": -1, "wordID": 475, "type": "PRES_AUD", "trial_index": 216}, "uniqueid": "MTK2078:3FIJLY1B6VBY1P4MT1XFE38HKHXFPM", "dateTime": 1516689850408}, {"current_trial": 217, "trialdata": {"rt": -1000, "trial_type": "single-audio", "word": "jelly", "stimulus": "/static/audio/wordpool/JELLY.wav", "conditions": [24, 1600, "a", 24000], "internal_node_id": "0.0-163.0", "trial": 5, "time_elapsed": 919879, "serialpos": 8, "key_press": -1, "wordID": 754, "type": "PRES_AUD", "trial_index": 217}, "uniqueid": "MTK2078:3FIJLY1B6VBY1P4MT1XFE38HKHXFPM", "dateTime": 1516689852832}, {"current_trial": 218, "trialdata": {"rt": -1000, "trial_type": "single-audio", "word": "award", "stimulus": "/static/audio/wordpool/AWARD.wav", "conditions": [24, 1600, "a", 24000], "internal_node_id": "0.0-164.0", "trial": 5, "time_elapsed": 922392, "serialpos": 9, "key_press": -1, "wordID": 62, "type": "PRES_AUD", "trial_index": 218}, "uniqueid": "MTK2078:3FIJLY1B6VBY1P4MT1XFE38HKHXFPM", "dateTime": 1516689855345}, {"current_trial": 219, "trialdata": {"rt": -1000, "trial_type": "single-audio", "word": "contract", "stimulus": "/static/audio/wordpool/CONTRACT.wav", "conditions": [24, 1600, "a", 24000], "internal_node_id": "0.0-165.0", "trial": 5, "time_elapsed": 925056, "serialpos": 10, "key_press": -1, "wordID": 367, "type": "PRES_AUD", "trial_index": 219}, "uniqueid": "MTK2078:3FIJLY1B6VBY1P4MT1XFE38HKHXFPM", "dateTime": 1516689858009}, {"current_trial": 220, "trialdata": {"rt": -1000, "trial_type": "single-audio", "word": "receipt", "stimulus": "/static/audio/wordpool/RECEIPT.wav", "conditions": [24, 1600, "a", 24000], "internal_node_id": "0.0-166.0", "trial": 5, "time_elapsed": 927673, "serialpos": 11, "key_press": -1, "wordID": 1172, "type": "PRES_AUD", "trial_index": 220}, "uniqueid": "MTK2078:3FIJLY1B6VBY1P4MT1XFE38HKHXFPM", "dateTime": 1516689860626}, {"current_trial": 221, "trialdata": {"rt": -1000, "trial_type": "single-audio", "word": "plaza", "stimulus": "/static/audio/wordpool/PLAZA.wav", "conditions": [24, 1600, "a", 24000], "internal_node_id": "0.0-167.0", "trial": 5, "time_elapsed": 930401, "serialpos": 12, "key_press": -1, "wordID": 1087, "type": "PRES_AUD", "trial_index": 221}, "uniqueid": "MTK2078:3FIJLY1B6VBY1P4MT1XFE38HKHXFPM", "dateTime": 1516689863354}, {"current_trial": 222, "trialdata": {"rt": -1000, "trial_type": "single-audio", "word": "mailman", "stimulus": "/static/audio/wordpool/MAILMAN.wav", "conditions": [24, 1600, "a", 24000], "internal_node_id": "0.0-168.0", "trial": 5, "time_elapsed": 933089, "serialpos": 13, "key_press": -1, "wordID": 857, "type": "PRES_AUD", "trial_index": 222}, "uniqueid": "MTK2078:3FIJLY1B6VBY1P4MT1XFE38HKHXFPM", "dateTime": 1516689866042}, {"current_trial": 223, "trialdata": {"rt": -1000, "trial_type": "single-audio", "word": "wrist", "stimulus": "/static/audio/wordpool/WRIST.wav", "conditions": [24, 1600, "a", 24000], "internal_node_id": "0.0-169.0", "trial": 5, "time_elapsed": 935541, "serialpos": 14, "key_press": -1, "wordID": 1625, "type": "PRES_AUD", "trial_index": 223}, "uniqueid": "MTK2078:3FIJLY1B6VBY1P4MT1XFE38HKHXFPM", "dateTime": 1516689868494}, {"current_trial": 224, "trialdata": {"rt": -1000, "trial_type": "single-audio", "word": "finger", "stimulus": "/static/audio/wordpool/FINGER.wav", "conditions": [24, 1600, "a", 24000], "internal_node_id": "0.0-170.0", "trial": 5, "time_elapsed": 938062, "serialpos": 15, "key_press": -1, "wordID": 566, "type": "PRES_AUD", "trial_index": 224}, "uniqueid": "MTK2078:3FIJLY1B6VBY1P4MT1XFE38HKHXFPM", "dateTime": 1516689871015}, {"current_trial": 225, "trialdata": {"rt": -1000, "trial_type": "single-audio", "word": "daughter", "stimulus": "/static/audio/wordpool/DAUGHTER.wav", "conditions": [24, 1600, "a", 24000], "internal_node_id": "0.0-171.0", "trial": 5, "time_elapsed": 940633, "serialpos": 16, "key_press": -1, "wordID": 441, "type": "PRES_AUD", "trial_index": 225}, "uniqueid": "MTK2078:3FIJLY1B6VBY1P4MT1XFE38HKHXFPM", "dateTime": 1516689873586}, {"current_trial": 226, "trialdata": {"rt": -1000, "trial_type": "single-audio", "word": "hedge", "stimulus": "/static/audio/wordpool/HEDGE.wav", "conditions": [24, 1600, "a", 24000], "internal_node_id": "0.0-172.0", "trial": 5, "time_elapsed": 943190, "serialpos": 17, "key_press": -1, "wordID": 698, "type": "PRES_AUD", "trial_index": 226}, "uniqueid": "MTK2078:3FIJLY1B6VBY1P4MT1XFE38HKHXFPM", "dateTime": 1516689876143}, {"current_trial": 227, "trialdata": {"rt": -1000, "trial_type": "single-audio", "word": "cookbook", "stimulus": "/static/audio/wordpool/COOKBOOK.wav", "conditions": [24, 1600, "a", 24000], "internal_node_id": "0.0-173.0", "trial": 5, "time_elapsed": 945988, "serialpos": 18, "key_press": -1, "wordID": 372, "type": "PRES_AUD", "trial_index": 227}, "uniqueid": "MTK2078:3FIJLY1B6VBY1P4MT1XFE38HKHXFPM", "dateTime": 1516689878941}, {"current_trial": 228, "trialdata": {"rt": -1000, "trial_type": "single-audio", "word": "shorts", "stimulus": "/static/audio/wordpool/SHORTS.wav", "conditions": [24, 1600, "a", 24000], "internal_node_id": "0.0-174.0", "trial": 5, "time_elapsed": 948526, "serialpos": 19, "key_press": -1, "wordID": 1292, "type": "PRES_AUD", "trial_index": 228}, "uniqueid": "MTK2078:3FIJLY1B6VBY1P4MT1XFE38HKHXFPM", "dateTime": 1516689881479}, {"current_trial": 229, "trialdata": {"rt": -1000, "trial_type": "single-audio", "word": "flower", "stimulus": "/static/audio/wordpool/FLOWER.wav", "conditions": [24, 1600, "a", 24000], "internal_node_id": "0.0-175.0", "trial": 5, "time_elapsed": 951142, "serialpos": 20, "key_press": -1, "wordID": 583, "type": "PRES_AUD", "trial_index": 229}, "uniqueid": "MTK2078:3FIJLY1B6VBY1P4MT1XFE38HKHXFPM", "dateTime": 1516689884095}, {"current_trial": 230, "trialdata": {"rt": -1000, "trial_type": "single-audio", "word": "paper", "stimulus": "/static/audio/wordpool/PAPER.wav", "conditions": [24, 1600, "a", 24000], "internal_node_id": "0.0-176.0", "trial": 5, "time_elapsed": 953770, "serialpos": 21, "key_press": -1, "wordID": 1010, "type": "PRES_AUD", "trial_index": 230}, "uniqueid": "MTK2078:3FIJLY1B6VBY1P4MT1XFE38HKHXFPM", "dateTime": 1516689886723}, {"current_trial": 231, "trialdata": {"rt": -1000, "trial_type": "single-audio", "word": "report", "stimulus": "/static/audio/wordpool/REPORT.wav", "conditions": [24, 1600, "a", 24000], "internal_node_id": "0.0-177.0", "trial": 5, "time_elapsed": 956171, "serialpos": 22, "key_press": -1, "wordID": 1183, "type": "PRES_AUD", "trial_index": 231}, "uniqueid": "MTK2078:3FIJLY1B6VBY1P4MT1XFE38HKHXFPM", "dateTime": 1516689889124}, {"current_trial": 232, "trialdata": {"rt": -1000, "trial_type": "single-audio", "word": "lily", "stimulus": "/static/audio/wordpool/LILY.wav", "conditions": [24, 1600, "a", 24000], "internal_node_id": "0.0-178.0", "trial": 5, "time_elapsed": 958836, "serialpos": 23, "key_press": -1, "wordID": 820, "type": "PRES_AUD", "trial_index": 232}, "uniqueid": "MTK2078:3FIJLY1B6VBY1P4MT1XFE38HKHXFPM", "dateTime": 1516689891789}, {"current_trial": 233, "trialdata": {"rt": -1, "trial_type": "single-stim", "stimulus": "", "internal_node_id": "0.0-179.0-0.0", "time_elapsed": 960209, "key_press": -1, "type": "PRE_RECALL_DELAY", "trial_index": 233}, "uniqueid": "MTK2078:3FIJLY1B6VBY1P4MT1XFE38HKHXFPM", "dateTime": 1516689893162}, {"current_trial": 234, "trialdata": {"rt": -1000, "trial_type": "single-audio", "stimulus": "/static/audio/400Hz.wav", "internal_node_id": "0.0-180.0", "time_elapsed": 960709, "key_press": -1, "type": "PRE_RECALL_ALERT", "trial_index": 234}, "uniqueid": "MTK2078:3FIJLY1B6VBY1P4MT1XFE38HKHXFPM", "dateTime": 1516689893662}, {"current_trial": 235, "trialdata": {"rt": [2716, 4090, 7163, 8905, 17752, 19116, 22262, 26578, 27662, 31141, 32241, 43866, 52716], "recwords": ["lilie", "report", "swimmer", "island", "boyfriend", "girl", "paper", "wrist", "finger", "message", "jury", "hedge", "diver"], "key_times": [1300, 1752, 1956, 2211, 2348, 2716, 2892, 3052, 3268, 3524, 3742, 3879, 4090, 5039, 5274, 5399, 5623, 5775, 5839, 5907, 7163, 7471, 7575, 7707, 7851, 7995, 8091, 8905, 15621, 15745, 15945, 16081, 16384, 16484, 16792, 16956, 17076, 17204, 17292, 17752, 18020, 18232, 18244, 18868, 19116, 21599, 21755, 21861, 21930, 22006, 22262, 25579, 25739, 25882, 25970, 26094, 26578, 26766, 26906, 27090, 27134, 27330, 27406, 27662, 29880, 30081, 30289, 30425, 30589, 30721, 30917, 31141, 31445, 31645, 31755, 31877, 32241, 42919, 43050, 43270, 43442, 43602, 43866, 52072, 52236, 52312, 52500, 52584, 52716], "trial_type": "free-recall", "conditions": [24, 1600, "a", 24000], "internal_node_id": "0.0-181.0-0.0", "key_presses": [76, 73, 76, 73, 69, 13, 82, 69, 80, 79, 82, 84, 13, 83, 87, 73, 77, 77, 69, 82, 13, 73, 83, 76, 65, 78, 68, 13, 66, 79, 89, 82, 8, 70, 82, 73, 69, 78, 68, 13, 71, 73, 82, 76, 13, 80, 65, 80, 69, 82, 13, 87, 82, 73, 83, 84, 13, 70, 73, 78, 71, 69, 82, 13, 77, 69, 83, 83, 65, 71, 69, 13, 74, 85, 82, 89, 13, 72, 69, 68, 71, 69, 13, 68, 73, 86, 69, 82, 13], "trial": 5, "time_elapsed": 1020711, "type": "FREE_RECALL", "trial_index": 235}, "uniqueid": "MTK2078:3FIJLY1B6VBY1P4MT1XFE38HKHXFPM", "dateTime": 1516689953669}, {"current_trial": 236, "trialdata": {"rt": 1432, "trial_type": "text", "internal_node_id": "0.0-182.0", "time_elapsed": 1024149, "key_press": 39, "type": "INSTRUCTIONS", "trial_index": 236}, "uniqueid": "MTK2078:3FIJLY1B6VBY1P4MT1XFE38HKHXFPM", "dateTime": 1516689957102}, {"current_trial": 237, "trialdata": {"rt": [1937, 4728, 6704, 8068, 10123, 11307, 13134, 14834, 16122, 17849, 19609, 21576, 23252], "trial_type": "math-distractor", "key_times": [1685, 1809, 1937, 4096, 4588, 4728, 6541, 6541, 6704, 7824, 7963, 8068, 9775, 9991, 10123, 11067, 11175, 11307, 12734, 12958, 13134, 14214, 14678, 14834, 15870, 15962, 16122, 17617, 17733, 17849, 19229, 19429, 19609, 21316, 21412, 21576, 22916, 23104, 23252], "responses": ["20", "23", "10", "18", "17", "10", "17", "26", "13", "15", "14", "12", "21"], "num2": [6, 8, 5, 3, 7, 3, 1, 9, 4, 3, 1, 7, 3, 1], "num3": [7, 7, 2, 8, 8, 3, 9, 8, 3, 9, 4, 1, 9, 9], "conditions": [12, 800, "a", 24000], "internal_node_id": "0.0-183.0", "key_presses": [98, 96, 13, 98, 99, 13, 97, 96, 13, 97, 104, 13, 97, 103, 13, 97, 96, 13, 97, 103, 13, 98, 102, 13, 97, 99, 13, 97, 101, 13, 97, 100, 13, 97, 98, 13, 98, 97, 13], "trial": 6, "time_elapsed": 1050150, "type": "DISTRACTOR", "trial_index": 237, "num1": [7, 8, 3, 7, 2, 4, 7, 9, 6, 3, 9, 4, 9, 2]}, "uniqueid": "MTK2078:3FIJLY1B6VBY1P4MT1XFE38HKHXFPM", "dateTime": 1516689983103}, {"current_trial": 238, "trialdata": {"rt": -1, "trial_type": "single-stim", "stimulus": "<p id=\"stim\">10</p>", "internal_node_id": "0.0-184.0-0.0", "time_elapsed": 1053151, "key_press": -1, "trial_index": 238}, "uniqueid": "MTK2078:3FIJLY1B6VBY1P4MT1XFE38HKHXFPM", "dateTime": 1516689986104}, {"