{"assignmentId": "3C2NJ6JBKBOEXAGXPR5GQV9XCMN2N2", "workerId": "MTK2422", "questiondata": {"avail_screen_height": 877, "color_depth": 24, "screen_width": 1440, "pixel_depth": 24, "avail_screen_width": 1440, "screen_height": 900}, "bonus": 0, "hitId": "34YWR3PJ28HAQATTM8J9GPBWY3OX0G", "counterbalance": 413, "useragent": "Mozilla/5.0 (Macintosh; Intel Mac OS X 10_13_3) AppleWebKit/537.36 (KHTML, like Gecko) Chrome/63.0.3239.132 Safari/537.36", "eventdata": [{"eventtype": "initialized", "interval": 0, "value": null, "timestamp": 1517080103948}, {"eventtype": "window_resize", "interval": 0, "value": [1440, 826], "timestamp": 1517080103948}], "data": [{"current_trial": 0, "trialdata": {"rt": 1814, "trial_type": "text", "internal_node_id": "0.0-0.0", "time_elapsed": 1816, "key_press": 32, "type": "INSTRUCTIONS", "trial_index": 0}, "uniqueid": "MTK2422:3C2NJ6JBKBOEXAGXPR5GQV9XCMN2N2", "dateTime": 1517080106778}, {"current_trial": 1, "trialdata": {"rt": 43120, "trial_type": "text", "internal_node_id": "0.0-1.0", "time_elapsed": 44938, "key_press": 32, "type": "INSTRUCTIONS", "trial_index": 1}, "uniqueid": "MTK2422:3C2NJ6JBKBOEXAGXPR5GQV9XCMN2N2", "dateTime": 1517080149900}, {"current_trial": 2, "trialdata": {"rt": [9661], "trial_type": "audio-test", "responses": ["ocean"], "internal_node_id": "0.0-2.0", "time_elapsed": 54616, "type": "AUDIO_TEST", "trial_index": 2}, "uniqueid": "MTK2422:3C2NJ6JBKBOEXAGXPR5GQV9XCMN2N2", "dateTime": 1517080159578}, {"current_trial": 3, "trialdata": {"rt": [5585], "trial_type": "audio-test", "responses": ["crystal"], "internal_node_id": "0.0-3.0", "time_elapsed": 60205, "type": "AUDIO_TEST", "trial_index": 3}, "uniqueid": "MTK2422:3C2NJ6JBKBOEXAGXPR5GQV9XCMN2N2", "dateTime": 1517080165167}, {"current_trial": 4, "trialdata": {"rt": [5354], "trial_type": "audio-test", "responses": ["spice"], "internal_node_id": "0.0-4.0", "time_elapsed": 65562, "type": "AUDIO_TEST", "trial_index": 4}, "uniqueid": "MTK2422:3C2NJ6JBKBOEXAGXPR5GQV9XCMN2N2", "dateTime": 1517080170524}, {"current_trial": 5, "trialdata": {"rt": 19910, "trial_type": "survey-text", "responses": "{\"Q0\":\"midnight\",\"Q1\":\"8 a.m.\",\"Q2\":\"4\"}", "internal_node_id": "0.0-5.0", "time_elapsed": 86228, "type": "SLEEP_SURVEY", "trial_index": 5}, "uniqueid": "MTK2422:3C2NJ6JBKBOEXAGXPR5GQV9XCMN2N2", "dateTime": 1517080191190}, {"current_trial": 6, "trialdata": {"rt": 38009, "trial_type": "text", "internal_node_id": "0.0-6.0", "time_elapsed": 125239, "key_press": 32, "type": "INSTRUCTIONS", "trial_index": 6}, "uniqueid": "MTK2422:3C2NJ6JBKBOEXAGXPR5GQV9XCMN2N2", "dateTime": 1517080230201}, {"current_trial": 7, "trialdata": {"rt": 12572, "trial_type": "text", "internal_node_id": "0.0-7.0", "time_elapsed": 138314, "key_press": 32, "type": "INSTRUCTIONS", "trial_index": 7}, "uniqueid": "MTK2422:3C2NJ6JBKBOEXAGXPR5GQV9XCMN2N2", "dateTime": 1517080243276}, {"current_trial": 8, "trialdata": {"rt": 7424, "trial_type": "text", "internal_node_id": "0.0-8.0", "time_elapsed": 146243, "key_press": 32, "type": "INSTRUCTIONS", "trial_index": 8}, "uniqueid": "MTK2422:3C2NJ6JBKBOEXAGXPR5GQV9XCMN2N2", "dateTime": 1517080251205}, {"current_trial": 9, "trialdata": {"rt": [2510, 6051, 8701, 11526, 15752, 17311], "trial_type": "math-distractor", "key_times": [2114, 2510, 4762, 5483, 6051, 7663, 8102, 8701, 10342, 11056, 11526, 14638, 15140, 15752, 17140, 17311], "responses": ["9", "16", "16", "16", "15", "4"], "num2": [3, 4, 5, 1, 1, 1, 7], "num3": [4, 9, 3, 8, 5, 1, 1], "conditions": [18, 1200, "v", 18000], "internal_node_id": "0.0-9.0", "key_presses": [57, 13, 49, 54, 13, 49, 54, 13, 49, 54, 13, 49, 53, 13, 52, 13], "trial": 0, "time_elapsed": 165251, "type": "DISTRACTOR", "trial_index": 9, "num1": [2, 3, 8, 7, 9, 2, 1]}, "uniqueid": "MTK2422:3C2NJ6JBKBOEXAGXPR5GQV9XCMN2N2", "dateTime": 1517080270214}, {"current_trial": 10, "trialdata": {"rt": -1, "trial_type": "single-stim", "stimulus": "<p id=\"stim\">10</p>", "internal_node_id": "0.0-10.0-0.0", "time_elapsed": 168258, "key_press": -1, "trial_index": 10}, "uniqueid": "MTK2422:3C2NJ6JBKBOEXAGXPR5GQV9XCMN2N2", "dateTime": 1517080273220}, {"current_trial": 11, "trialdata": {"rt": -1, "trial_type": "single-stim", "stimulus": "<p id=\"stim\">9</p>", "internal_node_id": "0.0-10.0-1.0", "time_elapsed": 169262, "key_press": -1, "trial_index": 11}, "uniqueid": "MTK2422:3C2NJ6JBKBOEXAGXPR5GQV9XCMN2N2", "dateTime": 1517080274224}, {"current_trial": 12, "trialdata": {"rt": -1, "trial_type": "single-stim", "stimulus": "<p id=\"stim\">8</p>", "internal_node_id": "0.0-10.0-2.0", "time_elapsed": 170266, "key_press": -1, "trial_index": 12}, "uniqueid": "MTK2422:3C2NJ6JBKBOEXAGXPR5GQV9XCMN2N2", "dateTime": 1517080275228}, {"current_trial": 13, "trialdata": {"rt": -1, "trial_type": "single-stim", "stimulus": "<p id=\"stim\">7</p>", "internal_node_id": "0.0-10.0-3.0", "time_elapsed": 171270, "key_press": -1, "trial_index": 13}, "uniqueid": "MTK2422:3C2NJ6JBKBOEXAGXPR5GQV9XCMN2N2", "dateTime": 1517080276232}, {"current_trial": 14, "trialdata": {"rt": -1, "trial_type": "single-stim", "stimulus": "<p id=\"stim\">6</p>", "internal_node_id": "0.0-10.0-4.0", "time_elapsed": 172274, "key_press": -1, "trial_index": 14}, "uniqueid": "MTK2422:3C2NJ6JBKBOEXAGXPR5GQV9XCMN2N2", "dateTime": 1517080277236}, {"current_trial": 15, "trialdata": {"rt": -1, "trial_type": "single-stim", "stimulus": "<p id=\"stim\">5</p>", "internal_node_id": "0.0-10.0-5.0", "time_elapsed": 173278, "key_press": -1, "trial_index": 15}, "uniqueid": "MTK2422:3C2NJ6JBKBOEXAGXPR5GQV9XCMN2N2", "dateTime": 1517080278240}, {"current_trial": 16, "trialdata": {"rt": -1, "trial_type": "single-stim", "stimulus": "<p id=\"stim\">4</p>", "internal_node_id": "0.0-10.0-6.0", "time_elapsed": 174282, "key_press": -1, "trial_index": 16}, "uniqueid": "MTK2422:3C2NJ6JBKBOEXAGXPR5GQV9XCMN2N2", "dateTime": 1517080279244}, {"current_trial": 17, "trialdata": {"rt": -1, "trial_type": "single-stim", "stimulus": "<p id=\"stim\">3</p>", "internal_node_id": "0.0-10.0-7.0", "time_elapsed": 175286, "key_press": -1, "trial_index": 17}, "uniqueid": "MTK2422:3C2NJ6JBKBOEXAGXPR5GQV9XCMN2N2", "dateTime": 1517080280248}, {"current_trial": 18, "trialdata": {"rt": -1, "trial_type": "single-stim", "stimulus": "<p id=\"stim\">2</p>", "internal_node_id": "0.0-10.0-8.0", "time_elapsed": 176291, "key_press": -1, "trial_index": 18}, "uniqueid": "MTK2422:3C2NJ6JBKBOEXAGXPR5GQV9XCMN2N2", "dateTime": 1517080281253}, {"current_trial": 19, "trialdata": {"rt": -1, "trial_type": "single-stim", "stimulus": "<p id=\"stim\">1</p>", "internal_node_id": "0.0-10.0-9.0", "time_elapsed": 177294, "key_press": -1, "trial_index": 19}, "uniqueid": "MTK2422:3C2NJ6JBKBOEXAGXPR5GQV9XCMN2N2", "dateTime": 1517080282257}, {"current_trial": 20, "trialdata": {"rt": -1, "trial_type": "single-stim", "stimulus": "<p id=\"stim\">+</p>", "internal_node_id": "0.0-11.0-0.0", "time_elapsed": 178798, "key_press": -1, "type": "FIXATION", "trial_index": 20}, "uniqueid": "MTK2422:3C2NJ6JBKBOEXAGXPR5GQV9XCMN2N2", "dateTime": 1517080283760}, {"current_trial": 21, "trialdata": {"rt": -1, "trial_type": "single-stim", "word": "package", "stimulus": "<p id=\"stim\">PACKAGE</p>", "conditions": [18, 1200, "v", 18000], "internal_node_id": "0.0-12.0", "trial": 0, "time_elapsed": 179999, "serialpos": 0, "key_press": -1, "wordID": 996, "type": "PRES_VIS", "trial_index": 21}, "uniqueid": "MTK2422:3C2NJ6JBKBOEXAGXPR5GQV9XCMN2N2", "dateTime": 1517080284961}, {"current_trial": 22, "trialdata": {"rt": -1, "trial_type": "single-stim", "word": "ground", "stimulus": "<p id=\"stim\">GROUND</p>", "conditions": [18, 1200, "v", 18000], "internal_node_id": "0.0-13.0", "trial": 0, "time_elapsed": 182059, "serialpos": 1, "key_press": -1, "wordID": 665, "type": "PRES_VIS", "trial_index": 22}, "uniqueid": "MTK2422:3C2NJ6JBKBOEXAGXPR5GQV9XCMN2N2", "dateTime": 1517080287021}, {"current_trial": 23, "trialdata": {"rt": -1, "trial_type": "single-stim", "word": "lava", "stimulus": "<p id=\"stim\">LAVA</p>", "conditions": [18, 1200, "v", 18000], "internal_node_id": "0.0-14.0", "trial": 0, "time_elapsed": 184433, "serialpos": 2, "key_press": -1, "wordID": 803, "type": "PRES_VIS", "trial_index": 23}, "uniqueid": "MTK2422:3C2NJ6JBKBOEXAGXPR5GQV9XCMN2N2", "dateTime": 1517080289395}, {"current_trial": 24, "trialdata": {"rt": -1, "trial_type": "single-stim", "word": "sponge", "stimulus": "<p id=\"stim\">SPONGE</p>", "conditions": [18, 1200, "v", 18000], "internal_node_id": "0.0-15.0", "trial": 0, "time_elapsed": 186790, "serialpos": 3, "key_press": -1, "wordID": 1354, "type": "PRES_VIS", "trial_index": 24}, "uniqueid": "MTK2422:3C2NJ6JBKBOEXAGXPR5GQV9XCMN2N2", "dateTime": 1517080291752}, {"current_trial": 25, "trialdata": {"rt": -1, "trial_type": "single-stim", "word": "nomad", "stimulus": "<p id=\"stim\">NOMAD</p>", "conditions": [18, 1200, "v", 18000], "internal_node_id": "0.0-16.0", "trial": 0, "time_elapsed": 188949, "serialpos": 4, "key_press": -1, "wordID": 954, "type": "PRES_VIS", "trial_index": 25}, "uniqueid": "MTK2422:3C2NJ6JBKBOEXAGXPR5GQV9XCMN2N2", "dateTime": 1517080293911}, {"current_trial": 26, "trialdata": {"rt": -1, "trial_type": "single-stim", "word": "nurse", "stimulus": "<p id=\"stim\">NURSE</p>", "conditions": [18, 1200, "v", 18000], "internal_node_id": "0.0-17.0", "trial": 0, "time_elapsed": 191346, "serialpos": 5, "key_press": -1, "wordID": 962, "type": "PRES_VIS", "trial_index": 26}, "uniqueid": "MTK2422:3C2NJ6JBKBOEXAGXPR5GQV9XCMN2N2", "dateTime": 1517080296309}, {"current_trial": 27, "trialdata": {"rt": -1, "trial_type": "single-stim", "word": "space", "stimulus": "<p id=\"stim\">SPACE</p>", "conditions": [18, 1200, "v", 18000], "internal_node_id": "0.0-18.0", "trial": 0, "time_elapsed": 193679, "serialpos": 6, "key_press": -1, "wordID": 1344, "type": "PRES_VIS", "trial_index": 27}, "uniqueid": "MTK2422:3C2NJ6JBKBOEXAGXPR5GQV9XCMN2N2", "dateTime": 1517080298642}, {"current_trial": 28, "trialdata": {"rt": -1, "trial_type": "single-stim", "word": "valley", "stimulus": "<p id=\"stim\">VALLEY</p>", "conditions": [18, 1200, "v", 18000], "internal_node_id": "0.0-19.0", "trial": 0, "time_elapsed": 195723, "serialpos": 7, "key_press": -1, "wordID": 1544, "type": "PRES_VIS", "trial_index": 28}, "uniqueid": "MTK2422:3C2NJ6JBKBOEXAGXPR5GQV9XCMN2N2", "dateTime": 1517080300685}, {"current_trial": 29, "trialdata": {"rt": -1, "trial_type": "single-stim", "word": "princess", "stimulus": "<p id=\"stim\">PRINCESS</p>", "conditions": [18, 1200, "v", 18000], "internal_node_id": "0.0-20.0", "trial": 0, "time_elapsed": 197922, "serialpos": 8, "key_press": -1, "wordID": 1124, "type": "PRES_VIS", "trial_index": 29}, "uniqueid": "MTK2422:3C2NJ6JBKBOEXAGXPR5GQV9XCMN2N2", "dateTime": 1517080302885}, {"current_trial": 30, "trialdata": {"rt": -1, "trial_type": "single-stim", "word": "flower", "stimulus": "<p id=\"stim\">FLOWER</p>", "conditions": [18, 1200, "v", 18000], "internal_node_id": "0.0-21.0", "trial": 0, "time_elapsed": 200140, "serialpos": 9, "key_press": -1, "wordID": 583, "type": "PRES_VIS", "trial_index": 30}, "uniqueid": "MTK2422:3C2NJ6JBKBOEXAGXPR5GQV9XCMN2N2", "dateTime": 1517080305102}, {"current_trial": 31, "trialdata": {"rt": -1, "trial_type": "single-stim", "word": "leopard", "stimulus": "<p id=\"stim\">LEOPARD</p>", "conditions": [18, 1200, "v", 18000], "internal_node_id": "0.0-22.0", "trial": 0, "time_elapsed": 202513, "serialpos": 10, "key_press": -1, "wordID": 811, "type": "PRES_VIS", "trial_index": 31}, "uniqueid": "MTK2422:3C2NJ6JBKBOEXAGXPR5GQV9XCMN2N2", "dateTime": 1517080307476}, {"current_trial": 32, "trialdata": {"rt": -1, "trial_type": "single-stim", "word": "onion", "stimulus": "<p id=\"stim\">ONION</p>", "conditions": [18, 1200, "v", 18000], "internal_node_id": "0.0-23.0", "trial": 0, "time_elapsed": 204568, "serialpos": 11, "key_press": -1, "wordID": 976, "type": "PRES_VIS", "trial_index": 32}, "uniqueid": "MTK2422:3C2NJ6JBKBOEXAGXPR5GQV9XCMN2N2", "dateTime": 1517080309530}, {"current_trial": 33, "trialdata": {"rt": -1, "trial_type": "single-stim", "word": "kidney", "stimulus": "<p id=\"stim\">KIDNEY</p>", "conditions": [18, 1200, "v", 18000], "internal_node_id": "0.0-24.0", "trial": 0, "time_elapsed": 206693, "serialpos": 12, "key_press": -1, "wordID": 775, "type": "PRES_VIS", "trial_index": 33}, "uniqueid": "MTK2422:3C2NJ6JBKBOEXAGXPR5GQV9XCMN2N2", "dateTime": 1517080311655}, {"current_trial": 34, "trialdata": {"rt": -1, "trial_type": "single-stim", "word": "termite", "stimulus": "<p id=\"stim\">TERMITE</p>", "conditions": [18, 1200, "v", 18000], "internal_node_id": "0.0-25.0", "trial": 0, "time_elapsed": 208979, "serialpos": 13, "key_press": -1, "wordID": 1450, "type": "PRES_VIS", "trial_index": 34}, "uniqueid": "MTK2422:3C2NJ6JBKBOEXAGXPR5GQV9XCMN2N2", "dateTime": 1517080313941}, {"current_trial": 35, "trialdata": {"rt": -1, "trial_type": "single-stim", "word": "parent", "stimulus": "<p id=\"stim\">PARENT</p>", "conditions": [18, 1200, "v", 18000], "internal_node_id": "0.0-26.0", "trial": 0, "time_elapsed": 211051, "serialpos": 14, "key_press": -1, "wordID": 1012, "type": "PRES_VIS", "trial_index": 35}, "uniqueid": "MTK2422:3C2NJ6JBKBOEXAGXPR5GQV9XCMN2N2", "dateTime": 1517080316013}, {"current_trial": 36, "trialdata": {"rt": -1, "trial_type": "single-stim", "word": "cupboard", "stimulus": "<p id=\"stim\">CUPBOARD</p>", "conditions": [18, 1200, "v", 18000], "internal_node_id": "0.0-27.0", "trial": 0, "time_elapsed": 213309, "serialpos": 15, "key_press": -1, "wordID": 424, "type": "PRES_VIS", "trial_index": 36}, "uniqueid": "MTK2422:3C2NJ6JBKBOEXAGXPR5GQV9XCMN2N2", "dateTime": 1517080318272}, {"current_trial": 37, "trialdata": {"rt": -1, "trial_type": "single-stim", "word": "stallion", "stimulus": "<p id=\"stim\">STALLION</p>", "conditions": [18, 1200, "v", 18000], "internal_node_id": "0.0-28.0", "trial": 0, "time_elapsed": 215428, "serialpos": 16, "key_press": -1, "wordID": 1368, "type": "PRES_VIS", "trial_index": 37}, "uniqueid": "MTK2422:3C2NJ6JBKBOEXAGXPR5GQV9XCMN2N2", "dateTime": 1517080320390}, {"current_trial": 38, "trialdata": {"rt": -1, "trial_type": "single-stim", "word": "bullet", "stimulus": "<p id=\"stim\">BULLET</p>", "conditions": [18, 1200, "v", 18000], "internal_node_id": "0.0-29.0", "trial": 0, "time_elapsed": 217564, "serialpos": 17, "key_press": -1, "wordID": 193, "type": "PRES_VIS", "trial_index": 38}, "uniqueid": "MTK2422:3C2NJ6JBKBOEXAGXPR5GQV9XCMN2N2", "dateTime": 1517080322526}, {"current_trial": 39, "trialdata": {"rt": -1, "trial_type": "single-stim", "stimulus": "", "internal_node_id": "0.0-30.0-0.0", "time_elapsed": 219647, "key_press": -1, "type": "PRE_RECALL_DELAY", "trial_index": 39}, "uniqueid": "MTK2422:3C2NJ6JBKBOEXAGXPR5GQV9XCMN2N2", "dateTime": 1517080324609}, {"current_trial": 40, "trialdata": {"rt": -1000, "trial_type": "single-audio", "stimulus": "/static/audio/400Hz.wav", "internal_node_id": "0.0-31.0", "time_elapsed": 220157, "key_press": -1, "type": "PRE_RECALL_ALERT", "trial_index": 40}, "uniqueid": "MTK2422:3C2NJ6JBKBOEXAGXPR5GQV9XCMN2N2", "dateTime": 1517080325119}, {"current_trial": 41, "trialdata": {"rt": [3013, 5727, 7076, 9051, 10916, 13067, 18639, 21925, 32601], "recwords": ["package", "space", "nomad", "nurse", "spice", "leopard", "bullet", "cupboard", "flower"], "key_times": [1185, 1220, 1424, 1518, 1590, 2206, 2417, 3013, 4296, 4414, 4454, 4684, 5325, 5727, 6089, 6195, 6350, 6442, 6863, 7076, 7456, 7889, 8232, 8460, 8549, 8698, 8854, 9051, 9374, 9466, 9605, 10251, 10441, 10526, 10703, 10916, 11248, 11333, 11887, 12142, 12289, 12413, 12598, 13067, 17339, 17576, 17760, 17886, 17958, 18102, 18639, 19510, 19757, 20094, 20448, 20666, 20965, 21054, 21189, 21336, 21487, 21925, 31523, 31675, 31828, 31864, 32016, 32042, 32601], "trial_type": "free-recall", "conditions": [18, 1200, "v", 18000], "internal_node_id": "0.0-32.0-0.0", "key_presses": [80, 65, 67, 75, 65, 71, 69, 13, 83, 80, 65, 67, 69, 13, 78, 79, 77, 65, 68, 13, 78, 83, 8, 85, 82, 83, 69, 13, 83, 80, 82, 8, 73, 67, 69, 13, 76, 69, 79, 80, 65, 82, 68, 13, 66, 85, 76, 76, 69, 84, 13, 67, 85, 66, 8, 80, 66, 79, 65, 82, 68, 13, 70, 76, 79, 87, 69, 82, 13], "trial": 0, "time_elapsed": 280164, "type": "FREE_RECALL", "trial_index": 41}, "uniqueid": "MTK2422:3C2NJ6JBKBOEXAGXPR5GQV9XCMN2N2", "dateTime": 1517080385128}, {"current_trial": 42, "trialdata": {"rt": 1663, "trial_type": "text", "internal_node_id": "0.0-33.0", "time_elapsed": 283833, "key_press": 32, "type": "INSTRUCTIONS", "trial_index": 42}, "uniqueid": "MTK2422:3C2NJ6JBKBOEXAGXPR5GQV9XCMN2N2", "dateTime": 1517080388795}, {"current_trial": 43, "trialdata": {"rt": [3541, 5244, 7573, 10855, 12463, 14768, 16984], "trial_type": "math-distractor", "key_times": [2324, 2947, 3541, 4993, 5244, 6938, 7573, 10460, 10653, 10855, 12054, 12265, 12463, 14133, 14563, 14768, 16400, 16699, 16984], "responses": ["14", "9", "9", "20", "19", "15", "13"], "num2": [2, 2, 2, 9, 7, 1, 3, 4], "num3": [9, 1, 4, 4, 9, 7, 7, 6], "conditions": [18, 1200, "v", 18000], "internal_node_id": "0.0-34.0", "key_presses": [49, 52, 13, 57, 13, 57, 13, 50, 48, 13, 49, 57, 13, 49, 53, 13, 49, 51, 13], "trial": 1, "time_elapsed": 303843, "type": "DISTRACTOR", "trial_index": 43, "num1": [3, 6, 3, 7, 3, 7, 3, 2]}, "uniqueid": "MTK2422:3C2NJ6JBKBOEXAGXPR5GQV9XCMN2N2", "dateTime": 1517080408805}, {"current_trial": 44, "trialdata": {"rt": -1, "trial_type": "single-stim", "stimulus": "<p id=\"stim\">10</p>", "internal_node_id": "0.0-35.0-0.0", "time_elapsed": 306849, "key_press": -1, "trial_index": 44}, "uniqueid": "MTK2422:3C2NJ6JBKBOEXAGXPR5GQV9XCMN2N2", "dateTime": 1517080411811}, {"current_trial": 45, "trialdata": {"rt": -1, "trial_type": "single-stim", "stimulus": "<p id=\"stim\">9</p>", "internal_node_id": "0.0-35.0-1.0", "time_elapsed": 307854, "key_press": -1, "trial_index": 45}, "uniqueid": "MTK2422:3C2NJ6JBKBOEXAGXPR5GQV9XCMN2N2", "dateTime": 1517080412816}, {"current_trial": 46, "trialdata": {"rt": -1, "trial_type": "single-stim", "stimulus": "<p id=\"stim\">8</p>", "internal_node_id": "0.0-35.0-2.0", "time_elapsed": 308857, "key_press": -1, "trial_index": 46}, "uniqueid": "MTK2422:3C2NJ6JBKBOEXAGXPR5GQV9XCMN2N2", "dateTime": 1517080413819}, {"current_trial": 47, "trialdata": {"rt": -1, "trial_type": "single-stim", "stimulus": "<p id=\"stim\">7</p>", "internal_node_id": "0.0-35.0-3.0", "time_elapsed": 309861, "key_press": -1, "trial_index": 47}, "uniqueid": "MTK2422:3C2NJ6JBKBOEXAGXPR5GQV9XCMN2N2", "dateTime": 1517080414824}, {"current_trial": 48, "trialdata": {"rt": -1, "trial_type": "single-stim", "stimulus": "<p id=\"stim\">6</p>", "internal_node_id": "0.0-35.0-4.0", "time_elapsed": 310866, "key_press": -1, "trial_index": 48}, "uniqueid": "MTK2422:3C2NJ6JBKBOEXAGXPR5GQV9XCMN2N2", "dateTime": 1517080415828}, {"current_trial": 49, "trialdata": {"rt": -1, "trial_type": "single-stim", "stimulus": "<p id=\"stim\">5</p>", "internal_node_id": "0.0-35.0-5.0", "time_elapsed": 311870, "key_press": -1, "trial_index": 49}, "uniqueid": "MTK2422:3C2NJ6JBKBOEXAGXPR5GQV9XCMN2N2", "dateTime": 1517080416832}, {"current_trial": 50, "trialdata": {"rt": -1, "trial_type": "single-stim", "stimulus": "<p id=\"stim\">4</p>", "internal_node_id": "0.0-35.0-6.0", "time_elapsed": 312875, "key_press": -1, "trial_index": 50}, "uniqueid": "MTK2422:3C2NJ6JBKBOEXAGXPR5GQV9XCMN2N2", "dateTime": 1517080417838}, {"current_trial": 51, "trialdata": {"rt": -1, "trial_type": "single-stim", "stimulus": "<p id=\"stim\">3</p>", "internal_node_id": "0.0-35.0-7.0", "time_elapsed": 313878, "key_press": -1, "trial_index": 51}, "uniqueid": "MTK2422:3C2NJ6JBKBOEXAGXPR5GQV9XCMN2N2", "dateTime": 1517080418840}, {"current_trial": 52, "trialdata": {"rt": -1, "trial_type": "single-stim", "stimulus": "<p id=\"stim\">2</p>", "internal_node_id": "0.0-35.0-8.0", "time_elapsed": 314882, "key_press": -1, "trial_index": 52}, "uniqueid": "MTK2422:3C2NJ6JBKBOEXAGXPR5GQV9XCMN2N2", "dateTime": 1517080419845}, {"current_trial": 53, "trialdata": {"rt": -1, "trial_type": "single-stim", "stimulus": "<p id=\"stim\">1</p>", "internal_node_id": "0.0-35.0-9.0", "time_elapsed": 315886, "key_press": -1, "trial_index": 53}, "uniqueid": "MTK2422:3C2NJ6JBKBOEXAGXPR5GQV9XCMN2N2", "dateTime": 1517080420848}, {"current_trial": 54, "trialdata": {"rt": -1, "trial_type": "single-stim", "stimulus": "<p id=\"stim\">+</p>", "internal_node_id": "0.0-36.0-0.0", "time_elapsed": 317390, "key_press": -1, "type": "FIXATION", "trial_index": 54}, "uniqueid": "MTK2422:3C2NJ6JBKBOEXAGXPR5GQV9XCMN2N2", "dateTime": 1517080422352}, {"current_trial": 55, "trialdata": {"rt": -1, "trial_type": "single-stim", "word": "agent", "stimulus": "<p id=\"stim\">AGENT</p>", "conditions": [18, 1200, "v", 18000], "internal_node_id": "0.0-37.0", "trial": 1, "time_elapsed": 318595, "serialpos": 0, "key_press": -1, "wordID": 9, "type": "PRES_VIS", "trial_index": 55}, "uniqueid": "MTK2422:3C2NJ6JBKBOEXAGXPR5GQV9XCMN2N2", "dateTime": 1517080423557}, {"current_trial": 56, "trialdata": {"rt": -1, "trial_type": "single-stim", "word": "goblin", "stimulus": "<p id=\"stim\">GOBLIN</p>", "conditions": [18, 1200, "v", 18000], "internal_node_id": "0.0-38.0", "trial": 1, "time_elapsed": 320907, "serialpos": 1, "key_press": -1, "wordID": 644, "type": "PRES_VIS", "trial_index": 56}, "uniqueid": "MTK2422:3C2NJ6JBKBOEXAGXPR5GQV9XCMN2N2", "dateTime": 1517080425869}, {"current_trial": 57, "trialdata": {"rt": -1, "trial_type": "single-stim", "word": "swamp", "stimulus": "<p id=\"stim\">SWAMP</p>", "conditions": [18, 1200, "v", 18000], "internal_node_id": "0.0-39.0", "trial": 1, "time_elapsed": 323316, "serialpos": 2, "key_press": -1, "wordID": 1415, "type": "PRES_VIS", "trial_index": 57}, "uniqueid": "MTK2422:3C2NJ6JBKBOEXAGXPR5GQV9XCMN2N2", "dateTime": 1517080428278}, {"current_trial": 58, "trialdata": {"rt": -1, "trial_type": "single-stim", "word": "mustard", "stimulus": "<p id=\"stim\">MUSTARD</p>", "conditions": [18, 1200, "v", 18000], "internal_node_id": "0.0-40.0", "trial": 1, "time_elapsed": 325678, "serialpos": 3, "key_press": -1, "wordID": 934, "type": "PRES_VIS", "trial_index": 58}, "uniqueid": "MTK2422:3C2NJ6JBKBOEXAGXPR5GQV9XCMN2N2", "dateTime": 1517080430640}, {"current_trial": 59, "trialdata": {"rt": -1, "trial_type": "single-stim", "word": "coin", "stimulus": "<p id=\"stim\">COIN</p>", "conditions": [18, 1200, "v", 18000], "internal_node_id": "0.0-41.0", "trial": 1, "time_elapsed": 327976, "serialpos": 4, "key_press": -1, "wordID": 342, "type": "PRES_VIS", "trial_index": 59}, "uniqueid": "MTK2422:3C2NJ6JBKBOEXAGXPR5GQV9XCMN2N2", "dateTime": 1517080432938}, {"current_trial": 60, "trialdata": {"rt": -1, "trial_type": "single-stim", "word": "chest", "stimulus": "<p id=\"stim\">CHEST</p>", "conditions": [18, 1200, "v", 18000], "internal_node_id": "0.0-42.0", "trial": 1, "time_elapsed": 330147, "serialpos": 5, "key_press": -1, "wordID": 294, "type": "PRES_VIS", "trial_index": 60}, "uniqueid": "MTK2422:3C2NJ6JBKBOEXAGXPR5GQV9XCMN2N2", "dateTime": 1517080435109}, {"current_trial": 61, "trialdata": {"rt": -1, "trial_type": "single-stim", "word": "lizard", "stimulus": "<p id=\"stim\">LIZARD</p>", "conditions": [18, 1200, "v", 18000], "internal_node_id": "0.0-43.0", "trial": 1, "time_elapsed": 332219, "serialpos": 6, "key_press": -1, "wordID": 833, "type": "PRES_VIS", "trial_index": 61}, "uniqueid": "MTK2422:3C2NJ6JBKBOEXAGXPR5GQV9XCMN2N2", "dateTime": 1517080437181}, {"current_trial": 62, "trialdata": {"rt": -1, "trial_type": "single-stim", "word": "turkey", "stimulus": "<p id=\"stim\">TURKEY</p>", "conditions": [18, 1200, "v", 18000], "internal_node_id": "0.0-44.0", "trial": 1, "time_elapsed": 334425, "serialpos": 7, "key_press": -1, "wordID": 1519, "type": "PRES_VIS", "trial_index": 62}, "uniqueid": "MTK2422:3C2NJ6JBKBOEXAGXPR5GQV9XCMN2N2", "dateTime": 1517080439387}, {"current_trial": 63, "trialdata": {"rt": -1, "trial_type": "single-stim", "word": "garbage", "stimulus": "<p id=\"stim\">GARBAGE</p>", "conditions": [18, 1200, "v", 18000], "internal_node_id": "0.0-45.0", "trial": 1, "time_elapsed": 336822, "serialpos": 8, "key_press": -1, "wordID": 621, "type": "PRES_VIS", "trial_index": 63}, "uniqueid": "MTK2422:3C2NJ6JBKBOEXAGXPR5GQV9XCMN2N2", "dateTime": 1517080441784}, {"current_trial": 64, "trialdata": {"rt": -1, "trial_type": "single-stim", "word": "crab", "stimulus": "<p id=\"stim\">CRAB</p>", "conditions": [18, 1200, "v", 18000], "internal_node_id": "0.0-46.0", "trial": 1, "time_elapsed": 338917, "serialpos": 9, "key_press": -1, "wordID": 396, "type": "PRES_VIS", "trial_index": 64}, "uniqueid": "MTK2422:3C2NJ6JBKBOEXAGXPR5GQV9XCMN2N2", "dateTime": 1517080443879}, {"current_trial": 65, "trialdata": {"rt": -1, "trial_type": "single-stim", "word": "flipper", "stimulus": "<p id=\"stim\">FLIPPER</p>", "conditions": [18, 1200, "v", 18000], "internal_node_id": "0.0-47.0", "trial": 1, "time_elapsed": 341221, "serialpos": 10, "key_press": -1, "wordID": 579, "type": "PRES_VIS", "trial_index": 65}, "uniqueid": "MTK2422:3C2NJ6JBKBOEXAGXPR5GQV9XCMN2N2", "dateTime": 1517080446184}, {"current_trial": 66, "trialdata": {"rt": -1, "trial_type": "single-stim", "word": "eagle", "stimulus": "<p id=\"stim\">EAGLE</p>", "conditions": [18, 1200, "v", 18000], "internal_node_id": "0.0-48.0", "trial": 1, "time_elapsed": 343613, "serialpos": 11, "key_press": -1, "wordID": 511, "type": "PRES_VIS", "trial_index": 66}, "uniqueid": "MTK2422:3C2NJ6JBKBOEXAGXPR5GQV9XCMN2N2", "dateTime": 1517080448575}, {"current_trial": 67, "trialdata": {"rt": -1, "trial_type": "single-stim", "word": "peanut", "stimulus": "<p id=\"stim\">PEANUT</p>", "conditions": [18, 1200, "v", 18000], "internal_node_id": "0.0-49.0", "trial": 1, "time_elapsed": 345859, "serialpos": 12, "key_press": -1, "wordID": 1031, "type": "PRES_VIS", "trial_index": 67}, "uniqueid": "MTK2422:3C2NJ6JBKBOEXAGXPR5GQV9XCMN2N2", "dateTime": 1517080450822}, {"current_trial": 68, "trialdata": {"rt": -1, "trial_type": "single-stim", "word": "kitchen", "stimulus": "<p id=\"stim\">KITCHEN</p>", "conditions": [18, 1200, "v", 18000], "internal_node_id": "0.0-50.0", "trial": 1, "time_elapsed": 347977, "serialpos": 13, "key_press": -1, "wordID": 777, "type": "PRES_VIS", "trial_index": 68}, "uniqueid": "MTK2422:3C2NJ6JBKBOEXAGXPR5GQV9XCMN2N2", "dateTime": 1517080452941}, {"current_trial": 69, "trialdata": {"rt": -1, "trial_type": "single-stim", "word": "xerox", "stimulus": "<p id=\"stim\">XEROX</p>", "conditions": [18, 1200, "v", 18000], "internal_node_id": "0.0-51.0", "trial": 1, "time_elapsed": 349986, "serialpos": 14, "key_press": -1, "wordID": 1627, "type": "PRES_VIS", "trial_index": 69}, "uniqueid": "MTK2422:3C2NJ6JBKBOEXAGXPR5GQV9XCMN2N2", "dateTime": 1517080454948}, {"current_trial": 70, "trialdata": {"rt": -1, "trial_type": "single-stim", "word": "bureau", "stimulus": "<p id=\"stim\">BUREAU</p>", "conditions": [18, 1200, "v", 18000], "internal_node_id": "0.0-52.0", "trial": 1, "time_elapsed": 352296, "serialpos": 15, "key_press": -1, "wordID": 198, "type": "PRES_VIS", "trial_index": 70}, "uniqueid": "MTK2422:3C2NJ6JBKBOEXAGXPR5GQV9XCMN2N2", "dateTime": 1517080457258}, {"current_trial": 71, "trialdata": {"rt": -1, "trial_type": "single-stim", "word": "pork", "stimulus": "<p id=\"stim\">PORK</p>", "conditions": [18, 1200, "v", 18000], "internal_node_id": "0.0-53.0", "trial": 1, "time_elapsed": 354629, "serialpos": 16, "key_press": -1, "wordID": 1107, "type": "PRES_VIS", "trial_index": 71}, "uniqueid": "MTK2422:3C2NJ6JBKBOEXAGXPR5GQV9XCMN2N2", "dateTime": 1517080459591}, {"current_trial": 72, "trialdata": {"rt": -1, "trial_type": "single-stim", "word": "chemist", "stimulus": "<p id=\"stim\">CHEMIST</p>", "conditions": [18, 1200, "v", 18000], "internal_node_id": "0.0-54.0", "trial": 1, "time_elapsed": 356997, "serialpos": 17, "key_press": -1, "wordID": 291, "type": "PRES_VIS", "trial_index": 72}, "uniqueid": "MTK2422:3C2NJ6JBKBOEXAGXPR5GQV9XCMN2N2", "dateTime": 1517080461959}, {"current_trial": 73, "trialdata": {"rt": -1, "trial_type": "single-stim", "stimulus": "", "internal_node_id": "0.0-55.0-0.0", "time_elapsed": 359289, "key_press": -1, "type": "PRE_RECALL_DELAY", "trial_index": 73}, "uniqueid": "MTK2422:3C2NJ6JBKBOEXAGXPR5GQV9XCMN2N2", "dateTime": 1517080464251}, {"current_trial": 74, "trialdata": {"rt": -1000, "trial_type": "single-audio", "stimulus": "/static/audio/400Hz.wav", "internal_node_id": "0.0-56.0", "time_elapsed": 359791, "key_press": -1, "type": "PRE_RECALL_ALERT", "trial_index": 74}, "uniqueid": "MTK2422:3C2NJ6JBKBOEXAGXPR5GQV9XCMN2N2", "dateTime": 1517080464753}, {"current_trial": 75, "trialdata": {"rt": [4452, 5860, 7266, 8818, 48272, 56361], "recwords": ["chemist", "pork", "agent", "lizard", "chicken", "frog"], "key_times": [866, 999, 1082, 1204, 1781, 2095, 2182, 2360, 2915, 3046, 3175, 3531, 3776, 3912, 4099, 4452, 4784, 5241, 5336, 5470, 5860, 6151, 6378, 6506, 6632, 7047, 7266, 7532, 7670, 7784, 8077, 8281, 8469, 8818, 45004, 45091, 45230, 45877, 46111, 47508, 47644, 47770, 47926, 48272, 54709, 54866, 54974, 55097, 56361], "trial_type": "free-recall", "conditions": [18, 1200, "v", 18000], "internal_node_id": "0.0-57.0-0.0", "key_presses": [67, 72, 69, 83, 8, 73, 83, 84, 8, 8, 8, 77, 73, 83, 84, 13, 80, 79, 82, 75, 13, 65, 71, 69, 78, 84, 13, 76, 73, 90, 65, 82, 68, 13, 67, 72, 69, 8, 73, 67, 75, 69, 78, 13, 70, 82, 79, 71, 13], "trial": 1, "time_elapsed": 419800, "type": "FREE_RECALL", "trial_index": 75}, "uniqueid": "MTK2422:3C2NJ6JBKBOEXAGXPR5GQV9XCMN2N2", "dateTime": 1517080524764}, {"current_trial": 76, "trialdata": {"rt": 1617, "trial_type": "text", "internal_node_id": "0.0-58.0", "time_elapsed": 423420, "key_press": 32, "type": "INSTRUCTIONS", "trial_index": 76}, "uniqueid": "MTK2422:3C2NJ6JBKBOEXAGXPR5GQV9XCMN2N2", "dateTime": 1517080528382}, {"current_trial": 77, "trialdata": {"rt": [5225, 7267, 9404, 11256], "trial_type": "math-distractor", "key_times": [4008, 4880, 5225, 6563, 6978, 7267, 9035, 9256, 9404, 10719, 11072, 11256], "responses": ["17", "19", "23", "19"], "num2": [5, 7, 9, 2, 7], "num3": [6, 7, 9, 8, 8], "conditions": [24, 1600, "v", 12000], "internal_node_id": "0.0-59.0", "key_presses": [49, 55, 13, 49, 57, 13, 50, 51, 13, 49, 57, 13], "trial": 2, "time_elapsed": 436432, "type": "DISTRACTOR", "trial_index": 77, "num1": [6, 5, 5, 9, 2]}, "uniqueid": "MTK2422:3C2NJ6JBKBOEXAGXPR5GQV9XCMN2N2", "dateTime": 1517080541394}, {"current_trial": 78, "trialdata": {"rt": -1, "trial_type": "single-stim", "stimulus": "<p id=\"stim\">10</p>", "internal_node_id": "0.0-60.0-0.0", "time_elapsed": 439442, "key_press": -1, "trial_index": 78}, "uniqueid": "MTK2422:3C2NJ6JBKBOEXAGXPR5GQV9XCMN2N2", "dateTime": 1517080544404}, {"current_trial": 79, "trialdata": {"rt": -1, "trial_type": "single-stim", "stimulus": "<p id=\"stim\">9</p>", "internal_node_id": "0.0-60.0-1.0", "time_elapsed": 440446, "key_press": -1, "trial_index": 79}, "uniqueid": "MTK2422:3C2NJ6JBKBOEXAGXPR5GQV9XCMN2N2", "dateTime": 1517080545408}, {"current_trial": 80, "trialdata": {"rt": -1, "trial_type": "single-stim", "stimulus": "<p id=\"stim\">8</p>", "internal_node_id": "0.0-60.0-2.0", "time_elapsed": 441450, "key_press": -1, "trial_index": 80}, "uniqueid": "MTK2422:3C2NJ6JBKBOEXAGXPR5GQV9XCMN2N2", "dateTime": 1517080546412}, {"current_trial": 81, "trialdata": {"rt": -1, "trial_type": "single-stim", "stimulus": "<p id=\"stim\">7</p>", "internal_node_id": "0.0-60.0-3.0", "time_elapsed": 442454, "key_press": -1, "trial_index": 81}, "uniqueid": "MTK2422:3C2NJ6JBKBOEXAGXPR5GQV9XCMN2N2", "dateTime": 1517080547416}, {"current_trial": 82, "trialdata": {"rt": -1, "trial_type": "single-stim", "stimulus": "<p id=\"stim\">6</p>", "internal_node_id": "0.0-60.0-4.0", "time_elapsed": 443458, "key_press": -1, "trial_index": 82}, "uniqueid": "MTK2422:3C2NJ6JBKBOEXAGXPR5GQV9XCMN2N2", "dateTime": 1517080548421}, {"current_trial": 83, "trialdata": {"rt": -1, "trial_type": "single-stim", "stimulus": "<p id=\"stim\">5</p>", "internal_node_id": "0.0-60.0-5.0", "time_elapsed": 444462, "key_press": -1, "trial_index": 83}, "uniqueid": "MTK2422:3C2NJ6JBKBOEXAGXPR5GQV9XCMN2N2", "dateTime": 1517080549424}, {"current_trial": 84, "trialdata": {"rt": -1, "trial_type": "single-stim", "stimulus": "<p id=\"stim\">4</p>", "internal_node_id": "0.0-60.0-6.0", "time_elapsed": 445467, "key_press": -1, "trial_index": 84}, "uniqueid": "MTK2422:3C2NJ6JBKBOEXAGXPR5GQV9XCMN2N2", "dateTime": 1517080550429}, {"current_trial": 85, "trialdata": {"rt": -1, "trial_type": "single-stim", "stimulus": "<p id=\"stim\">3</p>", "internal_node_id": "0.0-60.0-7.0", "time_elapsed": 446471, "key_press": -1, "trial_index": 85}, "uniqueid": "MTK2422:3C2NJ6JBKBOEXAGXPR5GQV9XCMN2N2", "dateTime": 1517080551433}, {"current_trial": 86, "trialdata": {"rt": -1, "trial_type": "single-stim", "stimulus": "<p id=\"stim\">2</p>", "internal_node_id": "0.0-60.0-8.0", "time_elapsed": 447475, "key_press": -1, "trial_index": 86}, "uniqueid": "MTK2422:3C2NJ6JBKBOEXAGXPR5GQV9XCMN2N2", "dateTime": 1517080552437}, {"current_trial": 87, "trialdata": {"rt": -1, "trial_type": "single-stim", "stimulus": "<p id=\"stim\">1</p>", "internal_node_id": "0.0-60.0-9.0", "time_elapsed": 448479, "key_press": -1, "trial_index": 87}, "uniqueid": "MTK2422:3C2NJ6JBKBOEXAGXPR5GQV9XCMN2N2", "dateTime": 1517080553442}, {"current_trial": 88, "trialdata": {"rt": -1, "trial_type": "single-stim", "stimulus": "<p id=\"stim\">+</p>", "internal_node_id": "0.0-61.0-0.0", "time_elapsed": 449983, "key_press": -1, "type": "FIXATION", "trial_index": 88}, "uniqueid": "MTK2422:3C2NJ6JBKBOEXAGXPR5GQV9XCMN2N2", "dateTime": 1517080554945}, {"current_trial": 89, "trialdata": {"rt": -1, "trial_type": "single-stim", "word": "soda", "stimulus": "<p id=\"stim\">SODA</p>", "conditions": [24, 1600, "v", 12000], "internal_node_id": "0.0-62.0", "trial": 2, "time_elapsed": 451585, "serialpos": 0, "key_press": -1, "wordID": 1340, "type": "PRES_VIS", "trial_index": 89}, "uniqueid": "MTK2422:3C2NJ6JBKBOEXAGXPR5GQV9XCMN2N2", "dateTime": 1517080556547}, {"current_trial": 90, "trialdata": {"rt": -1, "trial_type": "single-stim", "word": "female", "stimulus": "<p id=\"stim\">FEMALE</p>", "conditions": [24, 1600, "v", 12000], "internal_node_id": "0.0-63.0", "trial": 2, "time_elapsed": 454237, "serialpos": 1, "key_press": -1, "wordID": 558, "type": "PRES_VIS", "trial_index": 90}, "uniqueid": "MTK2422:3C2NJ6JBKBOEXAGXPR5GQV9XCMN2N2", "dateTime": 1517080559199}, {"current_trial": 91, "trialdata": {"rt": -1, "trial_type": "single-stim", "word": "dresser", "stimulus": "<p id=\"stim\">DRESSER</p>", "conditions": [24, 1600, "v", 12000], "internal_node_id": "0.0-64.0", "trial": 2, "time_elapsed": 456861, "serialpos": 2, "key_press": -1, "wordID": 495, "type": "PRES_VIS", "trial_index": 91}, "uniqueid": "MTK2422:3C2NJ6JBKBOEXAGXPR5GQV9XCMN2N2", "dateTime": 1517080561823}, {"current_trial": 92, "trialdata": {"rt": -1, "trial_type": "single-stim", "word": "hornet", "stimulus": "<p id=\"stim\">HORNET</p>", "conditions": [24, 1600, "v", 12000], "internal_node_id": "0.0-65.0", "trial": 2, "time_elapsed": 459496, "serialpos": 3, "key_press": -1, "wordID": 717, "type": "PRES_VIS", "trial_index": 92}, "uniqueid": "MTK2422:3C2NJ6JBKBOEXAGXPR5GQV9XCMN2N2", "dateTime": 1517080564458}, {"current_trial": 93, "trialdata": {"rt": -1, "trial_type": "single-stim", "word": "wasp", "stimulus": "<p id=\"stim\">WASP</p>", "conditions": [24, 1600, "v", 12000], "internal_node_id": "0.0-66.0", "trial": 2, "time_elapsed": 462022, "serialpos": 4, "key_press": -1, "wordID": 1592, "type": "PRES_VIS", "trial_index": 93}, "uniqueid": "MTK2422:3C2NJ6JBKBOEXAGXPR5GQV9XCMN2N2", "dateTime": 1517080566984}, {"current_trial": 94, "trialdata": {"rt": -1, "trial_type": "single-stim", "word": "bathtub", "stimulus": "<p id=\"stim\">BATHTUB</p>", "conditions": [24, 1600, "v", 12000], "internal_node_id": "0.0-67.0", "trial": 2, "time_elapsed": 464598, "serialpos": 5, "key_press": -1, "wordID": 99, "type": "PRES_VIS", "trial_index": 94}, "uniqueid": "MTK2422:3C2NJ6JBKBOEXAGXPR5GQV9XCMN2N2", "dateTime": 1517080569560}, {"current_trial": 95, "trialdata": {"rt": -1, "trial_type": "single-stim", "word": "stone", "stimulus": "<p id=\"stim\">STONE</p>", "conditions": [24, 1600, "v", 12000], "internal_node_id": "0.0-68.0", "trial": 2, "time_elapsed": 467052, "serialpos": 6, "key_press": -1, "wordID": 1384, "type": "PRES_VIS", "trial_index": 95}, "uniqueid": "MTK2422:3C2NJ6JBKBOEXAGXPR5GQV9XCMN2N2", "dateTime": 1517080572014}, {"current_trial": 96, "trialdata": {"rt": -1, "trial_type": "single-stim", "word": "balloon", "stimulus": "<p id=\"stim\">BALLOON</p>", "conditions": [24, 1600, "v", 12000], "internal_node_id": "0.0-69.0", "trial": 2, "time_elapsed": 469845, "serialpos": 7, "key_press": -1, "wordID": 74, "type": "PRES_VIS", "trial_index": 96}, "uniqueid": "MTK2422:3C2NJ6JBKBOEXAGXPR5GQV9XCMN2N2", "dateTime": 1517080574807}, {"current_trial": 97, "trialdata": {"rt": -1, "trial_type": "single-stim", "word": "pistol", "stimulus": "<p id=\"stim\">PISTOL</p>", "conditions": [24, 1600, "v", 12000], "internal_node_id": "0.0-70.0", "trial": 2, "time_elapsed": 472585, "serialpos": 8, "key_press": -1, "wordID": 1074, "type": "PRES_VIS", "trial_index": 97}, "uniqueid": "MTK2422:3C2NJ6JBKBOEXAGXPR5GQV9XCMN2N2", "dateTime": 1517080577547}, {"current_trial": 98, "trialdata": {"rt": -1, "trial_type": "single-stim", "word": "popcorn", "stimulus": "<p id=\"stim\">POPCORN</p>", "conditions": [24, 1600, "v", 12000], "internal_node_id": "0.0-71.0", "trial": 2, "time_elapsed": 475197, "serialpos": 9, "key_press": -1, "wordID": 1103, "type": "PRES_VIS", "trial_index": 98}, "uniqueid": "MTK2422:3C2NJ6JBKBOEXAGXPR5GQV9XCMN2N2", "dateTime": 1517080580159}, {"current_trial": 99, "trialdata": {"rt": -1, "trial_type": "single-stim", "word": "pilot", "stimulus": "<p id=\"stim\">PILOT</p>", "conditions": [24, 1600, "v", 12000], "internal_node_id": "0.0-72.0", "trial": 2, "time_elapsed": 477716, "serialpos": 10, "key_press": -1, "wordID": 1069, "type": "PRES_VIS", "trial_index": 99}, "uniqueid": "MTK2422:3C2NJ6JBKBOEXAGXPR5GQV9XCMN2N2", "dateTime": 1517080582678}, {"current_trial": 100, "trialdata": {"rt": -1, "trial_type": "single-stim", "word": "snack", "stimulus": "<p id=\"stim\">SNACK</p>", "conditions": [24, 1600, "v", 12000], "internal_node_id": "0.0-73.0", "trial": 2, "time_elapsed": 480258, "serialpos": 11, "key_press": -1, "wordID": 1330, "type": "PRES_VIS", "trial_index": 100}, "uniqueid": "MTK2422:3C2NJ6JBKBOEXAGXPR5GQV9XCMN2N2", "dateTime": 1517080585220}, {"current_trial": 101, "trialdata": {"rt": -1, "trial_type": "single-stim", "word": "bacon", "stimulus": "<p id=\"stim\">BACON</p>", "conditions": [24, 1600, "v", 12000], "internal_node_id": "0.0-74.0", "trial": 2, "time_elapsed": 482934, "serialpos": 12, "key_press": -1, "wordID": 66, "type": "PRES_VIS", "trial_index": 101}, "uniqueid": "MTK2422:3C2NJ6JBKBOEXAGXPR5GQV9XCMN2N2", "dateTime": 1517080587896}, {"current_trial": 102, "trialdata": {"rt": -1, "trial_type": "single-stim", "word": "skillet", "stimulus": "<p id=\"stim\">SKILLET</p>", "conditions": [24, 1600, "v", 12000], "internal_node_id": "0.0-75.0", "trial": 2, "time_elapsed": 485472, "serialpos": 13, "key_press": -1, "wordID": 1316, "type": "PRES_VIS", "trial_index": 102}, "uniqueid": "MTK2422:3C2NJ6JBKBOEXAGXPR5GQV9XCMN2N2", "dateTime": 1517080590434}, {"current_trial": 103, "trialdata": {"rt": -1, "trial_type": "single-stim", "word": "blender", "stimulus": "<p id=\"stim\">BLENDER</p>", "conditions": [24, 1600, "v", 12000], "internal_node_id": "0.0-76.0", "trial": 2, "time_elapsed": 487960, "serialpos": 14, "key_press": -1, "wordID": 135, "type": "PRES_VIS", "trial_index": 103}, "uniqueid": "MTK2422:3C2NJ6JBKBOEXAGXPR5GQV9XCMN2N2", "dateTime": 1517080592922}, {"current_trial": 104, "trialdata": {"rt": -1, "trial_type": "single-stim", "word": "fleet", "stimulus": "<p id=\"stim\">FLEET</p>", "conditions": [24, 1600, "v", 12000], "internal_node_id": "0.0-77.0", "trial": 2, "time_elapsed": 490380, "serialpos": 15, "key_press": -1, "wordID": 577, "type": "PRES_VIS", "trial_index": 104}, "uniqueid": "MTK2422:3C2NJ6JBKBOEXAGXPR5GQV9XCMN2N2", "dateTime": 1517080595343}, {"current_trial": 105, "trialdata": {"rt": -1, "trial_type": "single-stim", "word": "branch", "stimulus": "<p id=\"stim\">BRANCH</p>", "conditions": [24, 1600, "v", 12000], "internal_node_id": "0.0-78.0", "trial": 2, "time_elapsed": 493114, "serialpos": 16, "key_press": -1, "wordID": 167, "type": "PRES_VIS", "trial_index": 105}, "uniqueid": "MTK2422:3C2NJ6JBKBOEXAGXPR5GQV9XCMN2N2", "dateTime": 1517080598076}, {"current_trial": 106, "trialdata": {"rt": -1, "trial_type": "single-stim", "word": "forehead", "stimulus": "<p id=\"stim\">FOREHEAD</p>", "conditions": [24, 1600, "v", 12000], "internal_node_id": "0.0-79.0", "trial": 2, "time_elapsed": 495767, "serialpos": 17, "key_press": -1, "wordID": 591, "type": "PRES_VIS", "trial_index": 106}, "uniqueid": "MTK2422:3C2NJ6JBKBOEXAGXPR5GQV9XCMN2N2", "dateTime": 1517080600730}, {"current_trial": 107, "trialdata": {"rt": -1, "trial_type": "single-stim", "word": "arm", "stimulus": "<p id=\"stim\">ARM</p>", "conditions": [24, 1600, "v", 12000], "internal_node_id": "0.0-80.0", "trial": 2, "time_elapsed": 498530, "serialpos": 18, "key_press": -1, "wordID": 37, "type": "PRES_VIS", "trial_index": 107}, "uniqueid": "MTK2422:3C2NJ6JBKBOEXAGXPR5GQV9XCMN2N2", "dateTime": 1517080603492}, {"current_trial": 108, "trialdata": {"rt": -1, "trial_type": "single-stim", "word": "proton", "stimulus": "<p id=\"stim\">PROTON</p>", "conditions": [24, 1600, "v", 12000], "internal_node_id": "0.0-81.0", "trial": 2, "time_elapsed": 501136, "serialpos": 19, "key_press": -1, "wordID": 1131, "type": "PRES_VIS", "trial_index": 108}, "uniqueid": "MTK2422:3C2NJ6JBKBOEXAGXPR5GQV9XCMN2N2", "dateTime": 1517080606098}, {"current_trial": 109, "trialdata": {"rt": -1, "trial_type": "single-stim", "word": "jello", "stimulus": "<p id=\"stim\">JELLO</p>", "conditions": [24, 1600, "v", 12000], "internal_node_id": "0.0-82.0", "trial": 2, "time_elapsed": 503602, "serialpos": 20, "key_press": -1, "wordID": 753, "type": "PRES_VIS", "trial_index": 109}, "uniqueid": "MTK2422:3C2NJ6JBKBOEXAGXPR5GQV9XCMN2N2", "dateTime": 1517080608564}, {"current_trial": 110, "trialdata": {"rt": -1, "trial_type": "single-stim", "word": "spool", "stimulus": "<p id=\"stim\">SPOOL</p>", "conditions": [24, 1600, "v", 12000], "internal_node_id": "0.0-83.0", "trial": 2, "time_elapsed": 506185, "serialpos": 21, "key_press": -1, "wordID": 1355, "type": "PRES_VIS", "trial_index": 110}, "uniqueid": "MTK2422:3C2NJ6JBKBOEXAGXPR5GQV9XCMN2N2", "dateTime": 1517080611147}, {"current_trial": 111, "trialdata": {"rt": -1, "trial_type": "single-stim", "word": "bank", "stimulus": "<p id=\"stim\">BANK</p>", "conditions": [24, 1600, "v", 12000], "internal_node_id": "0.0-84.0", "trial": 2, "time_elapsed": 508641, "serialpos": 22, "key_press": -1, "wordID": 82, "type": "PRES_VIS", "trial_index": 111}, "uniqueid": "MTK2422:3C2NJ6JBKBOEXAGXPR5GQV9XCMN2N2", "dateTime": 1517080613603}, {"current_trial": 112, "trialdata": {"rt": -1, "trial_type": "single-stim", "word": "plate", "stimulus": "<p id=\"stim\">PLATE</p>", "conditions": [24, 1600, "v", 12000], "internal_node_id": "0.0-85.0", "trial": 2, "time_elapsed": 511165, "serialpos": 23, "key_press": -1, "wordID": 1085, "type": "PRES_VIS", "trial_index": 112}, "uniqueid": "MTK2422:3C2NJ6JBKBOEXAGXPR5GQV9XCMN2N2", "dateTime": 1517080616127}, {"current_trial": 113, "trialdata": {"rt": -1, "trial_type": "single-stim", "stimulus": "", "internal_node_id": "0.0-86.0-0.0", "time_elapsed": 513541, "key_press": -1, "type": "PRE_RECALL_DELAY", "trial_index": 113}, "uniqueid": "MTK2422:3C2NJ6JBKBOEXAGXPR5GQV9XCMN2N2", "dateTime": 1517080618504}, {"current_trial": 114, "trialdata": {"rt": -1000, "trial_type": "single-audio", "stimulus": "/static/audio/400Hz.wav", "internal_node_id": "0.0-87.0", "time_elapsed": 514043, "key_press": -1, "type": "PRE_RECALL_ALERT", "trial_index": 114}, "uniqueid": "MTK2422:3C2NJ6JBKBOEXAGXPR5GQV9XCMN2N2", "dateTime": 1517080619005}, {"current_trial": 115, "trialdata": {"rt": [2464, 4386, 5944, 7549, 10895, 11659, 13763, 18238, 20173, 29951], "recwords": ["plate", "jello", "pistol", "pilot", "forehead", "arm", "blender", "female", "skillet", "plate"], "key_times": [1184, 1365, 1409, 1683, 2133, 2464, 2994, 3352, 3587, 3722, 4005, 4386, 4853, 5059, 5147, 5368, 5480, 5652, 5944, 6242, 6440, 6575, 6817, 7125, 7549, 9027, 9136, 9221, 9368, 9680, 9760, 10095, 10438, 10543, 10705, 10895, 11135, 11270, 11378, 11659, 12529, 12652, 12716, 12847, 12888, 13027, 13095, 13763, 17349, 17451, 17695, 17787, 17903, 18033, 18238, 19181, 19288, 19440, 19587, 19730, 19790, 19925, 20173, 28509, 28671, 28728, 29008, 29442, 29558, 29711, 29951], "trial_type": "free-recall", "conditions": [24, 1600, "v", 12000], "internal_node_id": "0.0-88.0-0.0", "key_presses": [80, 76, 65, 84, 69, 13, 74, 69, 76, 76, 79, 13, 80, 73, 83, 84, 79, 76, 13, 80, 73, 76, 79, 84, 13, 70, 79, 82, 69, 72, 69, 68, 8, 65, 68, 13, 65, 82, 77, 13, 66, 76, 69, 78, 68, 69, 82, 13, 70, 69, 77, 65, 76, 69, 13, 83, 75, 73, 76, 76, 69, 84, 13, 80, 76, 65, 69, 8, 84, 69, 13], "trial": 2, "time_elapsed": 574046, "type": "FREE_RECALL", "trial_index": 115}, "uniqueid": "MTK2422:3C2NJ6JBKBOEXAGXPR5GQV9XCMN2N2", "dateTime": 1517080679010}, {"current_trial": 116, "trialdata": {"rt": 2189, "trial_type": "text", "internal_node_id": "0.0-89.0", "time_elapsed": 578239, "key_press": 32, "type": "INSTRUCTIONS", "trial_index": 116}, "uniqueid": "MTK2422:3C2NJ6JBKBOEXAGXPR5GQV9XCMN2N2", "dateTime": 1517080683202}, {"current_trial": 117, "trialdata": {"rt": [2173, 5087, 8735, 10717, 13070, 15182, 16995, 19483, 21395, 23643], "trial_type": "math-distractor", "key_times": [1737, 1964, 2173, 4195, 4343, 5087, 7360, 8480, 8735, 9840, 10431, 10717, 12670, 12920, 13070, 14262, 14943, 15182, 16613, 16796, 16995, 19343, 19483, 20828, 21193, 21395, 22683, 23124, 23343, 23643], "responses": ["20", "21", "17", "17", "13", "16", "11", "6", "18", "8"], "num2": [7, 6, 8, 2, 7, 4, 3, 1, 8, 5, 5], "num3": [7, 8, 5, 8, 4, 7, 4, 1, 5, 3, 6], "conditions": [12, 800, "v", 24000], "internal_node_id": "0.0-90.0", "key_presses": [50, 48, 13, 50, 49, 13, 49, 55, 13, 49, 55, 13, 49, 51, 13, 49, 54, 13, 49, 49, 13, 54, 13, 49, 56, 13, 49, 8, 56, 13], "trial": 3, "time_elapsed": 604251, "type": "DISTRACTOR", "trial_index": 117, "num1": [6, 7, 4, 7, 2, 5, 4, 4, 5, 1, 6]}, "uniqueid": "MTK2422:3C2NJ6JBKBOEXAGXPR5GQV9XCMN2N2", "dateTime": 1517080709213}, {"current_trial": 118, "trialdata": {"rt": -1, "trial_type": "single-stim", "stimulus": "<p id=\"stim\">10</p>", "internal_node_id": "0.0-91.0-0.0", "time_elapsed": 607257, "key_press": -1, "trial_index": 118}, "uniqueid": "MTK2422:3C2NJ6JBKBOEXAGXPR5GQV9XCMN2N2", "dateTime": 1517080712219}, {"current_trial": 119, "trialdata": {"rt": -1, "trial_type": "single-stim", "stimulus": "<p id=\"stim\">9</p>", "internal_node_id": "0.0-91.0-1.0", "time_elapsed": 608262, "key_press": -1, "trial_index": 119}, "uniqueid": "MTK2422:3C2NJ6JBKBOEXAGXPR5GQV9XCMN2N2", "dateTime": 1517080713224}, {"current_trial": 120, "trialdata": {"rt": -1, "trial_type": "single-stim", "stimulus": "<p id=\"stim\">8</p>", "internal_node_id": "0.0-91.0-2.0", "time_elapsed": 609266, "key_press": -1, "trial_index": 120}, "uniqueid": "MTK2422:3C2NJ6JBKBOEXAGXPR5GQV9XCMN2N2", "dateTime": 1517080714228}, {"current_trial": 121, "trialdata": {"rt": -1, "trial_type": "single-stim", "stimulus": "<p id=\"stim\">7</p>", "internal_node_id": "0.0-91.0-3.0", "time_elapsed": 610270, "key_press": -1, "trial_index": 121}, "uniqueid": "MTK2422:3C2NJ6JBKBOEXAGXPR5GQV9XCMN2N2", "dateTime": 1517080715232}, {"current_trial": 122, "trialdata": {"rt": -1, "trial_type": "single-stim", "stimulus": "<p id=\"stim\">6</p>", "internal_node_id": "0.0-91.0-4.0", "time_elapsed": 611274, "key_press": -1, "trial_index": 122}, "uniqueid": "MTK2422:3C2NJ6JBKBOEXAGXPR5GQV9XCMN2N2", "dateTime": 1517080716236}, {"current_trial": 123, "trialdata": {"rt": -1, "trial_type": "single-stim", "stimulus": "<p id=\"stim\">5</p>", "internal_node_id": "0.0-91.0-5.0", "time_elapsed": 612278, "key_press": -1, "trial_index": 123}, "uniqueid": "MTK2422:3C2NJ6JBKBOEXAGXPR5GQV9XCMN2N2", "dateTime": 1517080717240}, {"current_trial": 124, "trialdata": {"rt": -1, "trial_type": "single-stim", "stimulus": "<p id=\"stim\">4</p>", "internal_node_id": "0.0-91.0-6.0", "time_elapsed": 613282, "key_press": -1, "trial_index": 124}, "uniqueid": "MTK2422:3C2NJ6JBKBOEXAGXPR5GQV9XCMN2N2", "dateTime": 1517080718244}, {"current_trial": 125, "trialdata": {"rt": -1, "trial_type": "single-stim", "stimulus": "<p id=\"stim\">3</p>", "internal_node_id": "0.0-91.0-7.0", "time_elapsed": 614286, "key_press": -1, "trial_index": 125}, "uniqueid": "MTK2422:3C2NJ6JBKBOEXAGXPR5GQV9XCMN2N2", "dateTime": 1517080719249}, {"current_trial": 126, "trialdata": {"rt": -1, "trial_type": "single-stim", "stimulus": "<p id=\"stim\">2</p>", "internal_node_id": "0.0-91.0-8.0", "time_elapsed": 615291, "key_press": -1, "trial_index": 126}, "uniqueid": "MTK2422:3C2NJ6JBKBOEXAGXPR5GQV9XCMN2N2", "dateTime": 1517080720253}, {"current_trial": 127, "trialdata": {"rt": -1, "trial_type": "single-stim", "stimulus": "<p id=\"stim\">1</p>", "internal_node_id": "0.0-91.0-9.0", "time_elapsed": 616295, "key_press": -1, "trial_index": 127}, "uniqueid": "MTK2422:3C2NJ6JBKBOEXAGXPR5GQV9XCMN2N2", "dateTime": 1517080721257}, {"current_trial": 128, "trialdata": {"rt": -1, "trial_type": "single-stim", "stimulus": "<p id=\"stim\">+</p>", "internal_node_id": "0.0-92.0-0.0", "time_elapsed": 617798, "key_press": -1, "type": "FIXATION", "trial_index": 128}, "uniqueid": "MTK2422:3C2NJ6JBKBOEXAGXPR5GQV9XCMN2N2", "dateTime": 1517080722760}, {"current_trial": 129, "trialdata": {"rt": -1, "trial_type": "single-stim", "word": "lamp", "stimulus": "<p id=\"stim\">LAMP</p>", "conditions": [12, 800, "v", 24000], "internal_node_id": "0.0-93.0", "trial": 3, "time_elapsed": 618599, "serialpos": 0, "key_press": -1, "wordID": 797, "type": "PRES_VIS", "trial_index": 129}, "uniqueid": "MTK2422:3C2NJ6JBKBOEXAGXPR5GQV9XCMN2N2", "dateTime": 1517080723561}, {"current_trial": 130, "trialdata": {"rt": -1, "trial_type": "single-stim", "word": "picnic", "stimulus": "<p id=\"stim\">PICNIC</p>", "conditions": [12, 800, "v", 24000], "internal_node_id": "0.0-94.0", "trial": 3, "time_elapsed": 620450, "serialpos": 1, "key_press": -1, "wordID": 1059, "type": "PRES_VIS", "trial_index": 130}, "uniqueid": "MTK2422:3C2NJ6JBKBOEXAGXPR5GQV9XCMN2N2", "dateTime": 1517080725412}, {"current_trial": 131, "trialdata": {"rt": -1, "trial_type": "single-stim", "word": "supper", "stimulus": "<p id=\"stim\">SUPPER</p>", "conditions": [12, 800, "v", 24000], "internal_node_id": "0.0-95.0", "trial": 3, "time_elapsed": 622174, "serialpos": 2, "key_press": -1, "wordID": 1410, "type": "PRES_VIS", "trial_index": 131}, "uniqueid": "MTK2422:3C2NJ6JBKBOEXAGXPR5GQV9XCMN2N2", "dateTime": 1517080727136}, {"current_trial": 132, "trialdata": {"rt": -1, "trial_type": "single-stim", "word": "camel", "stimulus": "<p id=\"stim\">CAMEL</p>", "conditions": [12, 800, "v", 24000], "internal_node_id": "0.0-96.0", "trial": 3, "time_elapsed": 624142, "serialpos": 3, "key_press": -1, "wordID": 222, "type": "PRES_VIS", "trial_index": 132}, "uniqueid": "MTK2422:3C2NJ6JBKBOEXAGXPR5GQV9XCMN2N2", "dateTime": 1517080729104}, {"current_trial": 133, "trialdata": {"rt": -1, "trial_type": "single-stim", "word": "patrol", "stimulus": "<p id=\"stim\">PATROL</p>", "conditions": [12, 800, "v", 24000], "internal_node_id": "0.0-97.0", "trial": 3, "time_elapsed": 626133, "serialpos": 4, "key_press": -1, "wordID": 1026, "type": "PRES_VIS", "trial_index": 133}, "uniqueid": "MTK2422:3C2NJ6JBKBOEXAGXPR5GQV9XCMN2N2", "dateTime": 1517080731095}, {"current_trial": 134, "trialdata": {"rt": -1, "trial_type": "single-stim", "word": "elbow", "stimulus": "<p id=\"stim\">ELBOW</p>", "conditions": [12, 800, "v", 24000], "internal_node_id": "0.0-98.0", "trial": 3, "time_elapsed": 627932, "serialpos": 5, "key_press": -1, "wordID": 519, "type": "PRES_VIS", "trial_index": 134}, "uniqueid": "MTK2422:3C2NJ6JBKBOEXAGXPR5GQV9XCMN2N2", "dateTime": 1517080732894}, {"current_trial": 135, "trialdata": {"rt": -1, "trial_type": "single-stim", "word": "virus", "stimulus": "<p id=\"stim\">VIRUS</p>", "conditions": [12, 800, "v", 24000], "internal_node_id": "0.0-99.0", "trial": 3, "time_elapsed": 629894, "serialpos": 6, "key_press": -1, "wordID": 1571, "type": "PRES_VIS", "trial_index": 135}, "uniqueid": "MTK2422:3C2NJ6JBKBOEXAGXPR5GQV9XCMN2N2", "dateTime": 1517080734856}, {"current_trial": 136, "trialdata": {"rt": -1, "trial_type": "single-stim", "word": "egypt", "stimulus": "<p id=\"stim\">EGYPT</p>", "conditions": [12, 800, "v", 24000], "internal_node_id": "0.0-100.0", "trial": 3, "time_elapsed": 631756, "serialpos": 7, "key_press": -1, "wordID": 518, "type": "PRES_VIS", "trial_index": 136}, "uniqueid": "MTK2422:3C2NJ6JBKBOEXAGXPR5GQV9XCMN2N2", "dateTime": 1517080736719}, {"current_trial": 137, "trialdata": {"rt": -1, "trial_type": "single-stim", "word": "police", "stimulus": "<p id=\"stim\">POLICE</p>", "conditions": [12, 800, "v", 24000], "internal_node_id": "0.0-101.0", "trial": 3, "time_elapsed": 633417, "serialpos": 8, "key_press": -1, "wordID": 1097, "type": "PRES_VIS", "trial_index": 137}, "uniqueid": "MTK2422:3C2NJ6JBKBOEXAGXPR5GQV9XCMN2N2", "dateTime": 1517080738379}, {"current_trial": 138, "trialdata": {"rt": -1, "trial_type": "single-stim", "word": "dentist", "stimulus": "<p id=\"stim\">DENTIST</p>", "conditions": [12, 800, "v", 24000], "internal_node_id": "0.0-102.0", "trial": 3, "time_elapsed": 635350, "serialpos": 9, "key_press": -1, "wordID": 446, "type": "PRES_VIS", "trial_index": 138}, "uniqueid": "MTK2422:3C2NJ6JBKBOEXAGXPR5GQV9XCMN2N2", "dateTime": 1517080740312}, {"current_trial": 139, "trialdata": {"rt": -1, "trial_type": "single-stim", "word": "turtle", "stimulus": "<p id=\"stim\">TURTLE</p>", "conditions": [12, 800, "v", 24000], "internal_node_id": "0.0-103.0", "trial": 3, "time_elapsed": 637271, "serialpos": 10, "key_press": -1, "wordID": 1521, "type": "PRES_VIS", "trial_index": 139}, "uniqueid": "MTK2422:3C2NJ6JBKBOEXAGXPR5GQV9XCMN2N2", "dateTime": 1517080742233}, {"current_trial": 140, "trialdata": {"rt": -1, "trial_type": "single-stim", "word": "window", "stimulus": "<p id=\"stim\">WINDOW</p>", "conditions": [12, 800, "v", 24000], "internal_node_id": "0.0-104.0", "trial": 3, "time_elapsed": 639186, "serialpos": 11, "key_press": -1, "wordID": 1610, "type": "PRES_VIS", "trial_index": 140}, "uniqueid": "MTK2422:3C2NJ6JBKBOEXAGXPR5GQV9XCMN2N2", "dateTime": 1517080744148}, {"current_trial": 141, "trialdata": {"rt": -1, "trial_type": "single-stim", "stimulus": "", "internal_node_id": "0.0-105.0-0.0", "time_elapsed": 641456, "key_press": -1, "type": "PRE_RECALL_DELAY", "trial_index": 141}, "uniqueid": "MTK2422:3C2NJ6JBKBOEXAGXPR5GQV9XCMN2N2", "dateTime": 1517080746418}, {"current_trial": 142, "trialdata": {"rt": -1000, "trial_type": "single-audio", "stimulus": "/static/audio/400Hz.wav", "internal_node_id": "0.0-106.0", "time_elapsed": 641957, "key_press": -1, "type": "PRE_RECALL_ALERT", "trial_index": 142}, "uniqueid": "MTK2422:3C2NJ6JBKBOEXAGXPR5GQV9XCMN2N2", "dateTime": 1517080746919}, {"current_trial": 143, "trialdata": {"rt": [1443, 3649, 6185, 8412, 12107, 14815, 15953, 18533], "recwords": ["window", "turtle", "camel", "patrol", "egypt", "bank", "window", "elbow"], "key_times": [478, 569, 649, 781, 893, 1017, 1443, 1927, 2714, 2894, 3087, 3223, 3323, 3649, 5338, 5481, 5617, 5775, 5892, 6185, 7198, 7290, 7480, 7616, 7706, 7871, 8412, 9396, 10250, 10599, 10940, 11309, 11557, 11729, 12107, 14126, 14268, 14395, 14455, 14815, 15181, 15293, 15377, 15462, 15542, 15640, 15953, 17823, 17918, 18074, 18220, 18319, 18533, 57717], "trial_type": "free-recall", "conditions": [12, 800, "v", 24000], "internal_node_id": "0.0-107.0-0.0", "key_presses": [87, 73, 78, 68, 79, 87, 13, 84, 85, 82, 84, 76, 69, 13, 67, 65, 77, 69, 76, 13, 80, 65, 84, 82, 79, 76, 13, 69, 71, 85, 8, 89, 80, 84, 13, 66, 65, 78, 75, 13, 87, 73, 78, 68, 79, 87, 13, 69, 76, 66, 79, 87, 13, 18], "trial": 3, "time_elapsed": 701964, "type": "FREE_RECALL", "trial_index": 143}, "uniqueid": "MTK2422:3C2NJ6JBKBOEXAGXPR5GQV9XCMN2N2", "dateTime": 1517080806928}, {"current_trial": 144, "trialdata": {"rt": 4304, "trial_type": "text", "internal_node_id": "0.0-108.0", "time_elapsed": 708270, "key_press": 32, "type": "INSTRUCTIONS", "trial_index": 144}, "uniqueid": "MTK2422:3C2NJ6JBKBOEXAGXPR5GQV9XCMN2N2", "dateTime": 1517080813232}, {"current_trial": 145, "trialdata": {"rt": [2250, 4255, 6338, 9906, 11698], "trial_type": "math-distractor", "key_times": [1510, 1949, 2250, 3639, 4042, 4255, 5940, 6080, 6338, 9676, 9906, 11152, 11413, 11698], "responses": ["16", "14", "11", "8", "19"], "num2": [4, 2, 7, 1, 9, 4], "num3": [9, 5, 2, 3, 3, 2], "conditions": [24, 1600, "v", 12000], "internal_node_id": "0.0-109.0", "key_presses": [49, 54, 13, 49, 52, 13, 49, 49, 13, 56, 13, 49, 57, 13], "trial": 4, "time_elapsed": 722273, "type": "DISTRACTOR", "trial_index": 145, "num1": [3, 7, 2, 4, 7, 7]}, "uniqueid": "MTK2422:3C2NJ6JBKBOEXAGXPR5GQV9XCMN2N2", "dateTime": 1517080827235}, {"current_trial": 146, "trialdata": {"rt": -1, "trial_type": "single-stim", "stimulus": "<p id=\"stim\">10</p>", "internal_node_id": "0.0-110.0-0.0", "time_elapsed": 725279, "key_press": -1, "trial_index": 146}, "uniqueid": "MTK2422:3C2NJ6JBKBOEXAGXPR5GQV9XCMN2N2", "dateTime": 1517080830242}, {"current_trial": 147, "trialdata": {"rt": -1, "trial_type": "single-stim", "stimulus": "<p id=\"stim\">9</p>", "internal_node_id": "0.0-110.0-1.0", "time_elapsed": 726284, "key_press": -1, "trial_index": 147}, "uniqueid": "MTK2422:3C2NJ6JBKBOEXAGXPR5GQV9XCMN2N2", "dateTime": 1517080831246}, {"current_trial": 148, "trialdata": {"rt": -1, "trial_type": "single-stim", "stimulus": "<p id=\"stim\">8</p>", "internal_node_id": "0.0-110.0-2.0", "time_elapsed": 727288, "key_press": -1, "trial_index": 148}, "uniqueid": "MTK2422:3C2NJ6JBKBOEXAGXPR5GQV9XCMN2N2", "dateTime": 1517080832250}, {"current_trial": 149, "trialdata": {"rt": -1, "trial_type": "single-stim", "stimulus": "<p id=\"stim\">7</p>", "internal_node_id": "0.0-110.0-3.0", "time_elapsed": 728292, "key_press": -1, "trial_index": 149}, "uniqueid": "MTK2422:3C2NJ6JBKBOEXAGXPR5GQV9XCMN2N2", "dateTime": 1517080833254}, {"current_trial": 150, "trialdata": {"rt": -1, "trial_type": "single-stim", "stimulus": "<p id=\"stim\">6</p>", "internal_node_id": "0.0-110.0-4.0", "time_elapsed": 729296, "key_press": -1, "trial_index": 150}, "uniqueid": "MTK2422:3C2NJ6JBKBOEXAGXPR5GQV9XCMN2N2", "dateTime": 1517080834259}, {"current_trial": 151, "trialdata": {"rt": -1, "trial_type": "single-stim", "stimulus": "<p id=\"stim\">5</p>", "internal_node_id": "0.0-110.0-5.0", "time_elapsed": 730300, "key_press": -1, "trial_index": 151}, "uniqueid": "MTK2422:3C2NJ6JBKBOEXAGXPR5GQV9XCMN2N2", "dateTime": 1517080835262}, {"current_trial": 152, "trialdata": {"rt": -1, "trial_type": "single-stim", "stimulus": "<p id=\"stim\">4</p>", "internal_node_id": "0.0-110.0-6.0", "time_elapsed": 731304, "key_press": -1, "trial_index": 152}, "uniqueid": "MTK2422:3C2NJ6JBKBOEXAGXPR5GQV9XCMN2N2", "dateTime": 1517080836266}, {"current_trial": 153, "trialdata": {"rt": -1, "trial_type": "single-stim", "stimulus": "<p id=\"stim\">3</p>", "internal_node_id": "0.0-110.0-7.0", "time_elapsed": 732308, "key_press": -1, "trial_index": 153}, "uniqueid": "MTK2422:3C2NJ6JBKBOEXAGXPR5GQV9XCMN2N2", "dateTime": 1517080837270}, {"current_trial": 154, "trialdata": {"rt": -1, "trial_type": "single-stim", "stimulus": "<p id=\"stim\">2</p>", "internal_node_id": "0.0-110.0-8.0", "time_elapsed": 733311, "key_press": -1, "trial_index": 154}, "uniqueid": "MTK2422:3C2NJ6JBKBOEXAGXPR5GQV9XCMN2N2", "dateTime": 1517080838274}, {"current_trial": 155, "trialdata": {"rt": -1, "trial_type": "single-stim", "stimulus": "<p id=\"stim\">1</p>", "internal_node_id": "0.0-110.0-9.0", "time_elapsed": 734316, "key_press": -1, "trial_index": 155}, "uniqueid": "MTK2422:3C2NJ6JBKBOEXAGXPR5GQV9XCMN2N2", "dateTime": 1517080839278}, {"current_trial": 156, "trialdata": {"rt": -1, "trial_type": "single-stim", "stimulus": "<p id=\"stim\">+</p>", "internal_node_id": "0.0-111.0-0.0", "time_elapsed": 735820, "key_press": -1, "type": "FIXATION", "trial_index": 156}, "uniqueid": "MTK2422:3C2NJ6JBKBOEXAGXPR5GQV9XCMN2N2", "dateTime": 1517080840782}, {"current_trial": 157, "trialdata": {"rt": -1, "trial_type": "single-stim", "word": "powder", "stimulus": "<p id=\"stim\">POWDER</p>", "conditions": [24, 1600, "v", 12000], "internal_node_id": "0.0-112.0", "trial": 4, "time_elapsed": 737422, "serialpos": 0, "key_press": -1, "wordID": 1116, "type": "PRES_VIS", "trial_index": 157}, "uniqueid": "MTK2422:3C2NJ6JBKBOEXAGXPR5GQV9XCMN2N2", "dateTime": 1517080842384}, {"current_trial": 158, "trialdata": {"rt": -1, "trial_type": "single-stim", "word": "crater", "stimulus": "<p id=\"stim\">CRATER</p>", "conditions": [24, 1600, "v", 12000], "internal_node_id": "0.0-113.0", "trial": 4, "time_elapsed": 739999, "serialpos": 1, "key_press": -1, "wordID": 399, "type": "PRES_VIS", "trial_index": 158}, "uniqueid": "MTK2422:3C2NJ6JBKBOEXAGXPR5GQV9XCMN2N2", "dateTime": 1517080844961}, {"current_trial": 159, "trialdata": {"rt": -1, "trial_type": "single-stim", "word": "shovel", "stimulus": "<p id=\"stim\">SHOVEL</p>", "conditions": [24, 1600, "v", 12000], "internal_node_id": "0.0-114.0", "trial": 4, "time_elapsed": 742732, "serialpos": 2, "key_press": -1, "wordID": 1294, "type": "PRES_VIS", "trial_index": 159}, "uniqueid": "MTK2422:3C2NJ6JBKBOEXAGXPR5GQV9XCMN2N2", "dateTime": 1517080847695}, {"current_trial": 160, "trialdata": {"rt": -1, "trial_type": "single-stim", "word": "zebra", "stimulus": "<p id=\"stim\">ZEBRA</p>", "conditions": [24, 1600, "v", 12000], "internal_node_id": "0.0-115.0", "trial": 4, "time_elapsed": 745188, "serialpos": 3, "key_press": -1, "wordID": 1634, "type": "PRES_VIS", "trial_index": 160}, "uniqueid": "MTK2422:3C2NJ6JBKBOEXAGXPR5GQV9XCMN2N2", "dateTime": 1517080850150}, {"current_trial": 161, "trialdata": {"rt": -1, "trial_type": "single-stim", "word": "waitress", "stimulus": "<p id=\"stim\">WAITRESS</p>", "conditions": [24, 1600, "v", 12000], "internal_node_id": "0.0-116.0", "trial": 4, "time_elapsed": 747910, "serialpos": 4, "key_press": -1, "wordID": 1580, "type": "PRES_VIS", "trial_index": 161}, "uniqueid": "MTK2422:3C2NJ6JBKBOEXAGXPR5GQV9XCMN2N2", "dateTime": 1517080852872}, {"current_trial": 162, "trialdata": {"rt": -1, "trial_type": "single-stim", "word": "dress", "stimulus": "<p id=\"stim\">DRESS</p>", "conditions": [24, 1600, "v", 12000], "internal_node_id": "0.0-117.0", "trial": 4, "time_elapsed": 750463, "serialpos": 5, "key_press": -1, "wordID": 494, "type": "PRES_VIS", "trial_index": 162}, "uniqueid": "MTK2422:3C2NJ6JBKBOEXAGXPR5GQV9XCMN2N2", "dateTime": 1517080855426}, {"current_trial": 163, "trialdata": {"rt": -1, "trial_type": "single-stim", "word": "clothes", "stimulus": "<p id=\"stim\">CLOTHES</p>", "conditions": [24, 1600, "v", 12000], "internal_node_id": "0.0-118.0", "trial": 4, "time_elapsed": 752994, "serialpos": 6, "key_press": -1, "wordID": 326, "type": "PRES_VIS", "trial_index": 163}, "uniqueid": "MTK2422:3C2NJ6JBKBOEXAGXPR5GQV9XCMN2N2", "dateTime": 1517080857956}, {"current_trial": 164, "trialdata": {"rt": -1, "trial_type": "single-stim", "word": "beaver", "stimulus": "<p id=\"stim\">BEAVER</p>", "conditions": [24, 1600, "v", 12000], "internal_node_id": "0.0-119.0", "trial": 4, "time_elapsed": 755763, "serialpos": 7, "key_press": -1, "wordID": 108, "type": "PRES_VIS", "trial_index": 164}, "uniqueid": "MTK2422:3C2NJ6JBKBOEXAGXPR5GQV9XCMN2N2", "dateTime": 1517080860725}, {"current_trial": 165, "trialdata": {"rt": -1, "trial_type": "single-stim", "word": "cashier", "stimulus": "<p id=\"stim\">CASHIER</p>", "conditions": [24, 1600, "v", 12000], "internal_node_id": "0.0-120.0", "trial": 4, "time_elapsed": 758537, "serialpos": 8, "key_press": -1, "wordID": 253, "type": "PRES_VIS", "trial_index": 165}, "uniqueid": "MTK2422:3C2NJ6JBKBOEXAGXPR5GQV9XCMN2N2", "dateTime": 1517080863499}, {"current_trial": 166, "trialdata": {"rt": -1, "trial_type": "single-stim", "word": "mummy", "stimulus": "<p id=\"stim\">MUMMY</p>", "conditions": [24, 1600, "v", 12000], "internal_node_id": "0.0-121.0", "trial": 4, "time_elapsed": 761143, "serialpos": 9, "key_press": -1, "wordID": 931, "type": "PRES_VIS", "trial_index": 166}, "uniqueid": "MTK2422:3C2NJ6JBKBOEXAGXPR5GQV9XCMN2N2", "dateTime": 1517080866105}, {"current_trial": 167, "trialdata": {"rt": -1, "trial_type": "single-stim", "word": "cross", "stimulus": "<p id=\"stim\">CROSS</p>", "conditions": [24, 1600, "v", 12000], "internal_node_id": "0.0-122.0", "trial": 4, "time_elapsed": 763796, "serialpos": 10, "key_press": -1, "wordID": 412, "type": "PRES_VIS", "trial_index": 167}, "uniqueid": "MTK2422:3C2NJ6JBKBOEXAGXPR5GQV9XCMN2N2", "dateTime": 1517080868758}, {"current_trial": 168, "trialdata": {"rt": -1, "trial_type": "single-stim", "word": "shrub", "stimulus": "<p id=\"stim\">SHRUB</p>", "conditions": [24, 1600, "v", 12000], "internal_node_id": "0.0-123.0", "trial": 4, "time_elapsed": 766355, "serialpos": 11, "key_press": -1, "wordID": 1298, "type": "PRES_VIS", "trial_index": 168}, "uniqueid": "MTK2422:3C2NJ6JBKBOEXAGXPR5GQV9XCMN2N2", "dateTime": 1517080871317}, {"current_trial": 169, "trialdata": {"rt": -1, "trial_type": "single-stim", "word": "plaster", "stimulus": "<p id=\"stim\">PLASTER</p>", "conditions": [24, 1600, "v", 12000], "internal_node_id": "0.0-124.0", "trial": 4, "time_elapsed": 769135, "serialpos": 12, "key_press": -1, "wordID": 1084, "type": "PRES_VIS", "trial_index": 169}, "uniqueid": "MTK2422:3C2NJ6JBKBOEXAGXPR5GQV9XCMN2N2", "dateTime": 1517080874097}, {"current_trial": 170, "trialdata": {"rt": -1, "trial_type": "single-stim", "word": "lunch", "stimulus": "<p id=\"stim\">LUNCH</p>", "conditions": [24, 1600, "v", 12000], "internal_node_id": "0.0-125.0", "trial": 4, "time_elapsed": 771834, "serialpos": 13, "key_press": -1, "wordID": 848, "type": "PRES_VIS", "trial_index": 170}, "uniqueid": "MTK2422:3C2NJ6JBKBOEXAGXPR5GQV9XCMN2N2", "dateTime": 1517080876796}, {"current_trial": 171, "trialdata": {"rt": -1, "trial_type": "single-stim", "word": "doughnut", "stimulus": "<p id=\"stim\">DOUGHNUT</p>", "conditions": [24, 1600, "v", 12000], "internal_node_id": "0.0-126.0", "trial": 4, "time_elapsed": 774251, "serialpos": 14, "key_press": -1, "wordID": 489, "type": "PRES_VIS", "trial_index": 171}, "uniqueid": "MTK2422:3C2NJ6JBKBOEXAGXPR5GQV9XCMN2N2", "dateTime": 1517080879214}, {"current_trial": 172, "trialdata": {"rt": -1, "trial_type": "single-stim", "word": "salt", "stimulus": "<p id=\"stim\">SALT</p>", "conditions": [24, 1600, "v", 12000], "internal_node_id": "0.0-127.0", "trial": 4, "time_elapsed": 776681, "serialpos": 15, "key_press": -1, "wordID": 1228, "type": "PRES_VIS", "trial_index": 172}, "uniqueid": "MTK2422:3C2NJ6JBKBOEXAGXPR5GQV9XCMN2N2", "dateTime": 1517080881643}, {"current_trial": 173, "trialdata": {"rt": -1, "trial_type": "single-stim", "word": "grape", "stimulus": "<p id=\"stim\">GRAPE</p>", "conditions": [24, 1600, "v", 12000], "internal_node_id": "0.0-128.0", "trial": 4, "time_elapsed": 779176, "serialpos": 16, "key_press": -1, "wordID": 653, "type": "PRES_VIS", "trial_index": 173}, "uniqueid": "MTK2422:3C2NJ6JBKBOEXAGXPR5GQV9XCMN2N2", "dateTime": 1517080884138}, {"current_trial": 174, "trialdata": {"rt": -1, "trial_type": "single-stim", "word": "husband", "stimulus": "<p id=\"stim\">HUSBAND</p>", "conditions": [24, 1600, "v", 12000], "internal_node_id": "0.0-129.0", "trial": 4, "time_elapsed": 781922, "serialpos": 17, "key_press": -1, "wordID": 727, "type": "PRES_VIS", "trial_index": 174}, "uniqueid": "MTK2422:3C2NJ6JBKBOEXAGXPR5GQV9XCMN2N2", "dateTime": 1517080886884}, {"current_trial": 175, "trialdata": {"rt": -1, "trial_type": "single-stim", "word": "lover", "stimulus": "<p id=\"stim\">LOVER</p>", "conditions": [24, 1600, "v", 12000], "internal_node_id": "0.0-130.0", "trial": 4, "time_elapsed": 784673, "serialpos": 18, "key_press": -1, "wordID": 845, "type": "PRES_VIS", "trial_index": 175}, "uniqueid": "MTK2422:3C2NJ6JBKBOEXAGXPR5GQV9XCMN2N2", "dateTime": 1517080889635}, {"current_trial": 176, "trialdata": {"rt": -1, "trial_type": "single-stim", "word": "brandy", "stimulus": "<p id=\"stim\">BRANDY</p>", "conditions": [24, 1600, "v", 12000], "internal_node_id": "0.0-131.0", "trial": 4, "time_elapsed": 787180, "serialpos": 19, "key_press": -1, "wordID": 168, "type": "PRES_VIS", "trial_index": 176}, "uniqueid": "MTK2422:3C2NJ6JBKBOEXAGXPR5GQV9XCMN2N2", "dateTime": 1517080892143}, {"current_trial": 177, "trialdata": {"rt": -1, "trial_type": "single-stim", "word": "flashlight", "stimulus": "<p id=\"stim\">FLASHLIGHT</p>", "conditions": [24, 1600, "v", 12000], "internal_node_id": "0.0-132.0", "trial": 4, "time_elapsed": 789682, "serialpos": 20, "key_press": -1, "wordID": 574, "type": "PRES_VIS", "trial_index": 177}, "uniqueid": "MTK2422:3C2NJ6JBKBOEXAGXPR5GQV9XCMN2N2", "dateTime": 1517080894644}, {"current_trial": 178, "trialdata": {"rt": -1, "trial_type": "single-stim", "word": "marrow", "stimulus": "<p id=\"stim\">MARROW</p>", "conditions": [24, 1600, "v", 12000], "internal_node_id": "0.0-133.0", "trial": 4, "time_elapsed": 792126, "serialpos": 21, "key_press": -1, "wordID": 871, "type": "PRES_VIS", "trial_index": 178}, "uniqueid": "MTK2422:3C2NJ6JBKBOEXAGXPR5GQV9XCMN2N2", "dateTime": 1517080897088}, {"current_trial": 179, "trialdata": {"rt": -1, "trial_type": "single-stim", "word": "apple", "stimulus": "<p id=\"stim\">APPLE</p>", "conditions": [24, 1600, "v", 12000], "internal_node_id": "0.0-134.0", "trial": 4, "time_elapsed": 794854, "serialpos": 22, "key_press": -1, "wordID": 32, "type": "PRES_VIS", "trial_index": 179}, "uniqueid": "MTK2422:3C2NJ6JBKBOEXAGXPR5GQV9XCMN2N2", "dateTime": 1517080899816}, {"current_trial": 180, "trialdata": {"rt": -1, "trial_type": "single-stim", "word": "airport", "stimulus": "<p id=\"stim\">AIRPORT</p>", "conditions": [24, 1600, "v", 12000], "internal_node_id": "0.0-135.0", "trial": 4, "time_elapsed": 797611, "serialpos": 23, "key_press": -1, "wordID": 12, "type": "PRES_VIS", "trial_index": 180}, "uniqueid": "MTK2422:3C2NJ6JBKBOEXAGXPR5GQV9XCMN2N2", "dateTime": 1517080902573}, {"current_trial": 181, "trialdata": {"rt": -1, "trial_type": "single-stim", "stimulus": "", "internal_node_id": "0.0-136.0-0.0", "time_elapsed": 799984, "key_press": -1, "type": "PRE_RECALL_DELAY", "trial_index": 181}, "uniqueid": "MTK2422:3C2NJ6JBKBOEXAGXPR5GQV9XCMN2N2", "dateTime": 1517080904946}, {"current_trial": 182, "trialdata": {"rt": -1000, "trial_type": "single-audio", "stimulus": "/static/audio/400Hz.wav", "internal_node_id": "0.0-137.0", "time_elapsed": 800485, "key_press": -1, "type": "PRE_RECALL_ALERT", "trial_index": 182}, "uniqueid": "MTK2422:3C2NJ6JBKBOEXAGXPR5GQV9XCMN2N2", "dateTime": 1517080905447}, {"current_trial": 183, "trialdata": {"rt": [2822, 4060, 5463, 6713, 8576, 9561, 12138, 13629, 18221, 19565, 21856, 26451, 39371, 40650, 51723, 53903], "recwords": ["airport", "apple", "grape", "lunch", "husband", "lover", "waitress", "dress", "doughnut", "salt", "powder", "lamp", "flashlight", "marrow", "bush", "shrub"], "key_times": [507, 674, 763, 879, 1041, 1156, 1609, 2168, 2476, 2822, 3162, 3270, 3407, 3622, 3747, 4060, 4547, 4695, 4800, 4933, 5102, 5463, 5746, 5964, 6115, 6215, 6312, 6713, 7489, 7647, 7735, 7977, 8100, 8197, 8296, 8576, 8865, 9005, 9090, 9245, 9321, 9561, 9865, 10124, 10156, 10659, 11425, 11594, 11760, 11879, 12138, 12632, 12802, 12919, 13143, 13287, 13629, 16248, 16372, 16528, 16531, 17098, 17389, 17596, 17737, 18221, 18466, 18607, 18707, 18834, 19187, 19313, 19565, 20337, 20488, 20564, 20753, 21099, 21218, 21373, 21448, 21856, 23753, 23849, 23905, 24132, 26451, 35792, 35883, 35943, 36318, 36673, 36737, 36878, 37196, 37332, 37503, 37594, 37697, 39371, 39634, 39734, 39984, 40089, 40256, 40406, 40650, 50829, 50957, 51025, 51189, 51723, 52799, 53141, 53374, 53518, 53668, 53903], "trial_type": "free-recall", "conditions": [24, 1600, "v", 12000], "internal_node_id": "0.0-138.0-0.0", "key_presses": [65, 73, 82, 80, 79, 82, 8, 82, 84, 13, 65, 80, 80, 76, 69, 13, 71, 82, 65, 80, 69, 13, 76, 85, 78, 67, 72, 13, 72, 85, 83, 66, 65, 78, 68, 13, 76, 79, 86, 69, 82, 13, 87, 65, 73, 84, 82, 69, 83, 83, 13, 68, 82, 69, 83, 83, 13, 68, 79, 85, 71, 72, 78, 85, 84, 13, 83, 65, 76, 69, 8, 84, 13, 80, 79, 87, 69, 8, 68, 69, 82, 13, 76, 65, 77, 80, 13, 70, 76, 65, 72, 8, 83, 72, 76, 73, 71, 72, 84, 13, 77, 65, 82, 82, 79, 87, 13, 66, 85, 83, 72, 13, 83, 72, 82, 85, 66, 13], "trial": 4, "time_elapsed": 860488, "type": "FREE_RECALL", "trial_index": 183}, "uniqueid": "MTK2422:3C2NJ6JBKBOEXAGXPR5GQV9XCMN2N2", "dateTime": 1517080965453}, {"current_trial": 184, "trialdata": {"rt": 674, "trial_type": "text", "internal_node_id": "0.0-139.0", "time_elapsed": 863170, "key_press": 32, "type": "INSTRUCTIONS", "trial_index": 184}, "uniqueid": "MTK2422:3C2NJ6JBKBOEXAGXPR5GQV9XCMN2N2", "dateTime": 1517080968133}, {"current_trial": 185, "trialdata": {"rt": [2129, 5293, 7198, 9380, 11000], "trial_type": "math-distractor", "key_times": [1775, 2129, 3679, 4481, 5293, 6813, 6970, 7198, 9107, 9237, 9380, 10772, 11000], "responses": ["8", "15", "21", "22", "8"], "num2": [2, 4, 5, 7, 1, 1], "num3": [2, 2, 7, 7, 1, 1], "conditions": [12, 1600, "v", 12000], "internal_node_id": "0.0-140.0", "key_presses": [56, 13, 49, 53, 13, 50, 49, 13, 50, 50, 13, 56, 13], "trial": 5, "time_elapsed": 877175, "type": "DISTRACTOR", "trial_index": 185, "num1": [4, 9, 9, 8, 6, 9]}, "uniqueid": "MTK2422:3C2NJ6JBKBOEXAGXPR5GQV9XCMN2N2", "dateTime": 1517080982137}, {"current_trial": 186, "trialdata": {"rt": -1, "trial_type": "single-stim", "stimulus": "<p id=\"stim\">10</p>", "internal_node_id": "0.0-141.0-0.0", "time_elapsed": 880181, "key_press": -1, "trial_index": 186}, "uniqueid": "MTK2422:3C2NJ6JBKBOEXAGXPR5GQV9XCMN2N2", "dateTime": 1517080985144}, {"current_trial": 187, "trialdata": {"rt": -1, "trial_type": "single-stim", "stimulus": "<p id=\"stim\">9</p>", "internal_node_id": "0.0-141.0-1.0", "time_elapsed": 881186, "key_press": -1, "trial_index": 187}, "uniqueid": "MTK2422:3C2NJ6JBKBOEXAGXPR5GQV9XCMN2N2", "dateTime": 1517080986148}, {"current_trial": 188, "trialdata": {"rt": -1, "trial_type": "single-stim", "stimulus": "<p id=\"stim\">8</p>", "internal_node_id": "0.0-141.0-2.0", "time_elapsed": 882189, "key_press": -1, "trial_index": 188}, "uniqueid": "MTK2422:3C2NJ6JBKBOEXAGXPR5GQV9XCMN2N2", "dateTime": 1517080987152}, {"current_trial": 189, "trialdata": {"rt": -1, "trial_type": "single-stim", "stimulus": "<p id=\"stim\">7</p>", "internal_node_id": "0.0-141.0-3.0", "time_elapsed": 883194, "key_press": -1, "trial_index": 189}, "uniqueid": "MTK2422:3C2NJ6JBKBOEXAGXPR5GQV9XCMN2N2", "dateTime": 1517080988156}, {"current_trial": 190, "trialdata": {"rt": -1, "trial_type": "single-stim", "stimulus": "<p id=\"stim\">6</p>", "internal_node_id": "0.0-141.0-4.0", "time_elapsed": 884198, "key_press": -1, "trial_index": 190}, "uniqueid": "MTK2422:3C2NJ6JBKBOEXAGXPR5GQV9XCMN2N2", "dateTime": 1517080989160}, {"current_trial": 191, "trialdata": {"rt": -1, "trial_type": "single-stim", "stimulus": "<p id=\"stim\">5</p>", "internal_node_id": "0.0-141.0-5.0", "time_elapsed": 885202, "key_press": -1, "trial_index": 191}, "uniqueid": "MTK2422:3C2NJ6JBKBOEXAGXPR5GQV9XCMN2N2", "dateTime": 1517080990164}, {"current_trial": 192, "trialdata": {"rt": -1, "trial_type": "single-stim", "stimulus": "<p id=\"stim\">4</p>", "internal_node_id": "0.0-141.0-6.0", "time_elapsed": 886206, "key_press": -1, "trial_index": 192}, "uniqueid": "MTK2422:3C2NJ6JBKBOEXAGXPR5GQV9XCMN2N2", "dateTime": 1517080991168}, {"current_trial": 193, "trialdata": {"rt": -1, "trial_type": "single-stim", "stimulus": "<p id=\"stim\">3</p>", "internal_node_id": "0.0-141.0-7.0", "time_elapsed": 887210, "key_press": -1, "trial_index": 193}, "uniqueid": "MTK2422:3C2NJ6JBKBOEXAGXPR5GQV9XCMN2N2", "dateTime": 1517080992172}, {"current_trial": 194, "trialdata": {"rt": -1, "trial_type": "single-stim", "stimulus": "<p id=\"stim\">2</p>", "internal_node_id": "0.0-141.0-8.0", "time_elapsed": 888214, "key_press": -1, "trial_index": 194}, "uniqueid": "MTK2422:3C2NJ6JBKBOEXAGXPR5GQV9XCMN2N2", "dateTime": 1517080993177}, {"current_trial": 195, "trialdata": {"rt": -1, "trial_type": "single-stim", "stimulus": "<p id=\"stim\">1</p>", "internal_node_id": "0.0-141.0-9.0", "time_elapsed": 889218, "key_press": -1, "trial_index": 195}, "uniqueid": "MTK2422:3C2NJ6JBKBOEXAGXPR5GQV9XCMN2N2", "dateTime": 1517080994181}, {"current_trial": 196, "trialdata": {"rt": -1, "trial_type": "single-stim", "stimulus": "<p id=\"stim\">+</p>", "internal_node_id": "0.0-142.0-0.0", "time_elapsed": 890722, "key_press": -1, "type": "FIXATION", "trial_index": 196}, "uniqueid": "MTK2422:3C2NJ6JBKBOEXAGXPR5GQV9XCMN2N2", "dateTime": 1517080995684}, {"current_trial": 197, "trialdata": {"rt": -1, "trial_type": "single-stim", "word": "tombstone", "stimulus": "<p id=\"stim\">TOMBSTONE</p>", "conditions": [12, 1600, "v", 12000], "internal_node_id": "0.0-143.0", "trial": 5, "time_elapsed": 892324, "serialpos": 0, "key_press": -1, "wordID": 1477, "type": "PRES_VIS", "trial_index": 197}, "uniqueid": "MTK2422:3C2NJ6JBKBOEXAGXPR5GQV9XCMN2N2", "dateTime": 1517080997286}, {"current_trial": 198, "trialdata": {"rt": -1, "trial_type": "single-stim", "word": "suitcase", "stimulus": "<p id=\"stim\">SUITCASE</p>", "conditions": [12, 1600, "v", 12000], "internal_node_id": "0.0-144.0", "trial": 5, "time_elapsed": 894767, "serialpos": 1, "key_press": -1, "wordID": 1402, "type": "PRES_VIS", "trial_index": 198}, "uniqueid": "MTK2422:3C2NJ6JBKBOEXAGXPR5GQV9XCMN2N2", "dateTime": 1517080999729}, {"current_trial": 199, "trialdata": {"rt": -1, "trial_type": "single-stim", "word": "luggage", "stimulus": "<p id=\"stim\">LUGGAGE</p>", "conditions": [12, 1600, "v", 12000], "internal_node_id": "0.0-145.0", "trial": 5, "time_elapsed": 897350, "serialpos": 2, "key_press": -1, "wordID": 846, "type": "PRES_VIS", "trial_index": 199}, "uniqueid": "MTK2422:3C2NJ6JBKBOEXAGXPR5GQV9XCMN2N2", "dateTime": 1517081002312}, {"current_trial": 200, "trialdata": {"rt": -1, "trial_type": "single-stim", "word": "island", "stimulus": "<p id=\"stim\">ISLAND</p>", "conditions": [12, 1600, "v", 12000], "internal_node_id": "0.0-146.0", "trial": 5, "time_elapsed": 900113, "serialpos": 3, "key_press": -1, "wordID": 744, "type": "PRES_VIS", "trial_index": 200}, "uniqueid": "MTK2422:3C2NJ6JBKBOEXAGXPR5GQV9XCMN2N2", "dateTime": 1517081005075}, {"current_trial": 201, "trialdata": {"rt": -1, "trial_type": "single-stim", "word": "bunny", "stimulus": "<p id=\"stim\">BUNNY</p>", "conditions": [12, 1600, "v", 12000], "internal_node_id": "0.0-147.0", "trial": 5, "time_elapsed": 902568, "serialpos": 4, "key_press": -1, "wordID": 197, "type": "PRES_VIS", "trial_index": 201}, "uniqueid": "MTK2422:3C2NJ6JBKBOEXAGXPR5GQV9XCMN2N2", "dateTime": 1517081007530}, {"current_trial": 202, "trialdata": {"rt": -1, "trial_type": "single-stim", "word": "snake", "stimulus": "<p id=\"stim\">SNAKE</p>", "conditions": [12, 1600, "v", 12000], "internal_node_id": "0.0-148.0", "trial": 5, "time_elapsed": 905017, "serialpos": 5, "key_press": -1, "wordID": 1332, "type": "PRES_VIS", "trial_index": 202}, "uniqueid": "MTK2422:3C2NJ6JBKBOEXAGXPR5GQV9XCMN2N2", "dateTime": 1517081009980}, {"current_trial": 203, "trialdata": {"rt": -1, "trial_type": "single-stim", "word": "puppy", "stimulus": "<p id=\"stim\">PUPPY</p>", "conditions": [12, 1600, "v", 12000], "internal_node_id": "0.0-149.0", "trial": 5, "time_elapsed": 907728, "serialpos": 6, "key_press": -1, "wordID": 1143, "type": "PRES_VIS", "trial_index": 203}, "uniqueid": "MTK2422:3C2NJ6JBKBOEXAGXPR5GQV9XCMN2N2", "dateTime": 1517081012690}, {"current_trial": 204, "trialdata": {"rt": -1, "trial_type": "single-stim", "word": "sparrow", "stimulus": "<p id=\"stim\">SPARROW</p>", "conditions": [12, 1600, "v", 12000], "internal_node_id": "0.0-150.0", "trial": 5, "time_elapsed": 910368, "serialpos": 7, "key_press": -1, "wordID": 1346, "type": "PRES_VIS", "trial_index": 204}, "uniqueid": "MTK2422:3C2NJ6JBKBOEXAGXPR5GQV9XCMN2N2", "dateTime": 1517081015330}, {"current_trial": 205, "trialdata": {"rt": -1, "trial_type": "single-stim", "word": "rebel", "stimulus": "<p id=\"stim\">REBEL</p>", "conditions": [12, 1600, "v", 12000], "internal_node_id": "0.0-151.0", "trial": 5, "time_elapsed": 913143, "serialpos": 8, "key_press": -1, "wordID": 1171, "type": "PRES_VIS", "trial_index": 205}, "uniqueid": "MTK2422:3C2NJ6JBKBOEXAGXPR5GQV9XCMN2N2", "dateTime": 1517081018105}, {"current_trial": 206, "trialdata": {"rt": -1, "trial_type": "single-stim", "word": "leg", "stimulus": "<p id=\"stim\">LEG</p>", "conditions": [12, 1600, "v", 12000], "internal_node_id": "0.0-152.0", "trial": 5, "time_elapsed": 915714, "serialpos": 9, "key_press": -1, "wordID": 808, "type": "PRES_VIS", "trial_index": 206}, "uniqueid": "MTK2422:3C2NJ6JBKBOEXAGXPR5GQV9XCMN2N2", "dateTime": 1517081020677}, {"current_trial": 207, "trialdata": {"rt": -1, "trial_type": "single-stim", "word": "glass", "stimulus": "<p id=\"stim\">GLASS</p>", "conditions": [12, 1600, "v", 12000], "internal_node_id": "0.0-153.0", "trial": 5, "time_elapsed": 918442, "serialpos": 10, "key_press": -1, "wordID": 638, "type": "PRES_VIS", "trial_index": 207}, "uniqueid": "MTK2422:3C2NJ6JBKBOEXAGXPR5GQV9XCMN2N2", "dateTime": 1517081023404}, {"current_trial": 208, "trialdata": {"rt": -1, "trial_type": "single-stim", "word": "fox", "stimulus": "<p id=\"stim\">FOX</p>", "conditions": [12, 1600, "v", 12000], "internal_node_id": "0.0-154.0", "trial": 5, "time_elapsed": 921034, "serialpos": 11, "key_press": -1, "wordID": 597, "type": "PRES_VIS", "trial_index": 208}, "uniqueid": "MTK2422:3C2NJ6JBKBOEXAGXPR5GQV9XCMN2N2", "dateTime": 1517081025996}, {"current_trial": 209, "trialdata": {"rt": -1, "trial_type": "single-stim", "stimulus": "", "internal_node_id": "0.0-155.0-0.0", "time_elapsed": 923196, "key_press": -1, "type": "PRE_RECALL_DELAY", "trial_index": 209}, "uniqueid": "MTK2422:3C2NJ6JBKBOEXAGXPR5GQV9XCMN2N2", "dateTime": 1517081028158}, {"current_trial": 210, "trialdata": {"rt": -1000, "trial_type": "single-audio", "stimulus": "/static/audio/400Hz.wav", "internal_node_id": "0.0-156.0", "time_elapsed": 923697, "key_press": -1, "type": "PRE_RECALL_ALERT", "trial_index": 210}, "uniqueid": "MTK2422:3C2NJ6JBKBOEXAGXPR5GQV9XCMN2N2", "dateTime": 1517081028660}, {"current_trial": 211, "trialdata": {"rt": [1309, 2766, 4233, 8227, 9905, 11159, 12523, 16811, 20117, 21548, 29893], "recwords": ["fox", "sparrow", "bunny", "tombstone", "suitcase", "luggage", "island", "glass", "rebel", "sparrow", "leg"], "key_times": [561, 713, 853, 1309, 1752, 1890, 1982, 2153, 2245, 2415, 2507, 2766, 3208, 3366, 3552, 3657, 3880, 4233, 6137, 6232, 6356, 6605, 6817, 7418, 7547, 7691, 7795, 8227, 8493, 8826, 8906, 8995, 9341, 9487, 9626, 9756, 9905, 10187, 10347, 10448, 10556, 10692, 10853, 11004, 11159, 11847, 11923, 12038, 12118, 12227, 12319, 12523, 15823, 15974, 16038, 16352, 16479, 16811, 17929, 18005, 18189, 18309, 18444, 19026, 19166, 19285, 19407, 19561, 19649, 20117, 20480, 20568, 20656, 20794, 20900, 21202, 21294, 21548, 29067, 29122, 29311, 29893], "trial_type": "free-recall", "conditions": [12, 1600, "v", 12000], "internal_node_id": "0.0-157.0-0.0", "key_presses": [70, 79, 88, 13, 83, 80, 65, 82, 82, 79, 87, 13, 66, 85, 78, 78, 89, 13, 84, 79, 77, 66, 83, 84, 79, 78, 69, 13, 83, 85, 73, 84, 67, 65, 83, 69, 13, 76, 85, 71, 71, 65, 71, 69, 13, 73, 83, 76, 65, 78, 68, 13, 71, 76, 65, 83, 83, 13, 82, 69, 86, 69, 76, 8, 8, 8, 66, 69, 76, 13, 83, 80, 65, 82, 82, 79, 87, 13, 76, 69, 71, 13], "trial": 5, "time_elapsed": 983705, "type": "FREE_RECALL", "trial_index": 211}, "uniqueid": "MTK2422:3C2NJ6JBKBOEXAGXPR5GQV9XCMN2N2", "dateTime": 1517081088669}, {"current_trial": 212, "trialdata": {"rt": 903, "trial_type": "text", "internal_node_id": "0.0-158.0", "time_elapsed": 986616, "key_press": 32, "type": "INSTRUCTIONS", "trial_index": 212}, "uniqueid": "MTK2422:3C2NJ6JBKBOEXAGXPR5GQV9XCMN2N2", "dateTime": 1517081091578}, {"current_trial": 213, "trialdata": {"rt": [3289, 5152, 7543, 10036, 13687, 15417, 17636, 19479, 21481, 23750], "trial_type": "math-distractor", "key_times": [2729, 2862, 3289, 4668, 4933, 5152, 7239, 7543, 9259, 9633, 10036, 13224, 13408, 13687, 14892, 15223, 15417, 17029, 17478, 17636, 18835, 19249, 19479, 20757, 21236, 21481, 23141, 23557, 23750], "responses": ["11", "18", "7", "14", "23", "19", "13", "13", "18", "12"], "num2": [4, 9, 1, 6, 7, 9, 3, 1, 8, 4, 2], "num3": [2, 6, 3, 5, 8, 9, 5, 7, 8, 3, 8], "conditions": [24, 800, "v", 24000], "internal_node_id": "0.0-159.0", "key_presses": [49, 49, 13, 49, 56, 13, 55, 13, 49, 52, 13, 50, 51, 13, 49, 57, 13, 49, 51, 13, 49, 51, 13, 49, 56, 13, 49, 50, 13], "trial": 6, "time_elapsed": 1012627, "type": "DISTRACTOR", "trial_index": 213, "num1": [5, 3, 3, 3, 8, 1, 5, 5, 2, 5, 3]}, "uniqueid": "MTK2422:3C2NJ6JBKBOEXAGXPR5GQV9XCMN2N2", "dateTime": 1517081117589}, {"current_trial": 214, "trialdata": {"rt": -1, "trial_type": "single-stim", "stimulus": "<p id=\"stim\">10</p>", "internal_node_id": "0.0-160.0-0.0", "time_elapsed": 1015633, "key_press": -1, "trial_index": 214}, "uniqueid": "MTK2422:3C2NJ6JBKBOEXAGXPR5GQV9XCMN2N2", "dateTime": 1517081120595}, {"current_trial": 215, "trialdata": {"rt": -1, "trial_type": "single-stim", "stimulus": "<p id=\"stim\">9</p>", "internal_node_id": "0.0-160.0-1.0", "time_elapsed": 1016637, "key_press": -1, "trial_index": 215}, "uniqueid": "MTK2422:3C2NJ6JBKBOEXAGXPR5GQV9XCMN2N2", "dateTime": 1517081121599}, {"current_trial": 216, "trialdata": {"rt": -1, "trial_type": "single-stim", "stimulus": "<p id=\"stim\">8</p>", "internal_node_id": "0.0-160.0-2.0", "time_elapsed": 1017640, "key_press": -1, "trial_index": 216}, "uniqueid": "MTK2422:3C2NJ6JBKBOEXAGXPR5GQV9XCMN2N2", "dateTime": 1517081122602}, {"current_trial": 217, "trialdata": {"rt": -1, "trial_type": "single-stim", "stimulus": "<p id=\"stim\">7</p>", "internal_node_id": "0.0-160.0-3.0", "time_elapsed": 1018645, "key_press": -1, "trial_index": 217}, "uniqueid": "MTK2422:3C2NJ6JBKBOEXAGXPR5GQV9XCMN2N2", "dateTime": 1517081123607}, {"current_trial": 218, "trialdata": {"rt": -1, "trial_type": "single-stim", "stimulus": "<p id=\"stim\">6</p>", "internal_node_id": "0.0-160.0-4.0", "time_elapsed": 1019648, "key_press": -1, "trial_index": 218}, "uniqueid": "MTK2422:3C2NJ6JBKBOEXAGXPR5GQV9XCMN2N2", "dateTime": 1517081124611}, {"current_trial": 219, "trialdata": {"rt": -1, "trial_type": "single-stim", "stimulus": "<p id=\"stim\">5</p>", "internal_node_id": "0.0-160.0-5.0", "time_elapsed": 1020652, "key_press": -1, "trial_index": 219}, "uniqueid": "MTK2422:3C2NJ6JBKBOEXAGXPR5GQV9XCMN2N2", "dateTime": 1517081125615}, {"current_trial": 220, "trialdata": {"rt": -1, "trial_type": "single-stim", "stimulus": "<p id=\"stim\">4</p>", "internal_node_id": "0.0-160.0-6.0", "time_elapsed": 1021657, "key_press": -1, "trial_index": 220}, "uniqueid": "MTK2422:3C2NJ6JBKBOEXAGXPR5GQV9XCMN2N2", "dateTime": 1517081126619}, {"current_trial": 221, "trialdata": {"rt": -1, "trial_type": "single-stim", "stimulus": "<p id=\"stim\">3</p>", "internal_node_id": "0.0-160.0-7.0", "time_elapsed": 1022662, "key_press": -1, "trial_index": 221}, "uniqueid": "MTK2422:3C2NJ6JBKBOEXAGXPR5GQV9XCMN2N2", "dateTime": 1517081127624}, {"current_trial": 222, "trialdata": {"rt": -1, "trial_type": "single-stim", "stimulus": "<p id=\"stim\">2</p>", "internal_node_id": "0.0-160.0-8.0", "time_elapsed": 1023665, "key_press": -1, "trial_index": 222}, "uniqueid": "MTK2422:3C2NJ6JBKBOEXAGXPR5GQV9XCMN2N2", "dateTime": 1517081128628}, {"current_trial": 223, "trialdata": {"rt": -1, "trial_type": "single-stim", "stimulus": "<p id=\"stim\">1</p>", "internal_node_id": "0.0-160.0-9.0", "time_elapsed": 1024670, "key_press": -1, "trial_index": 223}, "uniqueid": "MTK2422:3C2NJ6JBKBOEXAGXPR5GQV9XCMN2N2", "dateTime": 1517081129632}, {"current_trial": 224, "trialdata": {"rt": -1, "trial_type": "single-stim", "stimulus": "<p id=\"stim\">+</p>", "internal_node_id": "0.0-161.0-0.0", "time_elapsed": 1026173, "key_press": -1, "type": "FIXATION", "trial_index": 224}, "uniqueid": "MTK2422:3C2NJ6JBKBOEXAGXPR5GQV9XCMN2N2", "dateTime": 1517081131135}, {"current_trial": 225, "trialdata": {"rt": -1, "trial_type": "single-stim", "word": "dolphin", "stimulus": "<p id=\"stim\">DOLPHIN</p>", "conditions": [24, 800, "v", 24000], "internal_node_id": "0.0-162.0", "trial": 6, "time_elapsed": 1026979, "serialpos": 0, "key_press": -1, "wordID": 482, "type": "PRES_VIS", "trial_index": 225}, "uniqueid": "MTK2422:3C2NJ6JBKBOEXAGXPR5GQV9XCMN2N2", "dateTime": 1517081131941}, {"current_trial": 226, "trialdata": {"rt": -1, "trial_type": "single-stim", "word": "blockade", "stimulus": "<p id=\"stim\">BLOCKADE</p>", "conditions": [24, 800, "v", 24000], "internal_node_id": "0.0-163.0", "trial": 6, "time_elapsed": 1028974, "serialpos": 1, "key_press": -1, "wordID": 136, "type": "PRES_VIS", "trial_index": 226}, "uniqueid": "MTK2422:3C2NJ6JBKBOEXAGXPR5GQV9XCMN2N2", "dateTime": 1517081133936}, {"current_trial": 227, "trialdata": {"rt": -1, "trial_type": "single-stim", "word": "cyclone", "stimulus": "<p id=\"stim\">CYCLONE</p>", "conditions": [24, 800, "v", 24000], "internal_node_id": "0.0-164.0", "trial": 6, "time_elapsed": 1030931, "serialpos": 2, "key_press": -1, "wordID": 430, "type": "PRES_VIS", "trial_index": 227}, "uniqueid": "MTK2422:3C2NJ6JBKBOEXAGXPR5GQV9XCMN2N2", "dateTime": 1517081135893}, {"current_trial": 228, "trialdata": {"rt": -1, "trial_type": "single-stim", "word": "pecan", "stimulus": "<p id=\"stim\">PECAN</p>", "conditions": [24, 800, "v", 24000], "internal_node_id": "0.0-165.0", "trial": 6, "time_elapsed": 1032817, "serialpos": 3, "key_press": -1, "wordID": 1035, "type": "PRES_VIS", "trial_index": 228}, "uniqueid": "MTK2422:3C2NJ6JBKBOEXAGXPR5GQV9XCMN2N2", "dateTime": 1517081137779}, {"current_trial": 229, "trialdata": {"rt": -1, "trial_type": "single-stim", "word": "convict", "stimulus": "<p id=\"stim\">CONVICT</p>", "conditions": [24, 800, "v", 24000], "internal_node_id": "0.0-166.0", "trial": 6, "time_elapsed": 1034810, "serialpos": 4, "key_press": -1, "wordID": 370, "type": "PRES_VIS", "trial_index": 229}, "uniqueid": "MTK2422:3C2NJ6JBKBOEXAGXPR5GQV9XCMN2N2", "dateTime": 1517081139772}, {"current_trial": 230, "trialdata": {"rt": -1, "trial_type": "single-stim", "word": "liver", "stimulus": "<p id=\"stim\">LIVER</p>", "conditions": [24, 800, "v", 24000], "internal_node_id": "0.0-167.0", "trial": 6, "time_elapsed": 1036777, "serialpos": 5, "key_press": -1, "wordID": 832, "type": "PRES_VIS", "trial_index": 230}, "uniqueid": "MTK2422:3C2NJ6JBKBOEXAGXPR5GQV9XCMN2N2", "dateTime": 1517081141740}, {"current_trial": 231, "trialdata": {"rt": -1, "trial_type": "single-stim", "word": "seagull", "stimulus": "<p id=\"stim\">SEAGULL</p>", "conditions": [24, 800, "v", 24000], "internal_node_id": "0.0-168.0", "trial": 6, "time_elapsed": 1038524, "serialpos": 6, "key_press": -1, "wordID": 1260, "type": "PRES_VIS", "trial_index": 231}, "uniqueid": "MTK2422:3C2NJ6JBKBOEXAGXPR5GQV9XCMN2N2", "dateTime": 1517081143487}, {"current_trial": 232, "trialdata": {"rt": -1, "trial_type": "single-stim", "word": "peach", "stimulus": "<p id=\"stim\">PEACH</p>", "conditions": [24, 800, "v", 24000], "internal_node_id": "0.0-169.0", "trial": 6, "time_elapsed": 1040471, "serialpos": 7, "key_press": -1, "wordID": 1030, "type": "PRES_VIS", "trial_index": 232}, "uniqueid": "MTK2422:3C2NJ6JBKBOEXAGXPR5GQV9XCMN2N2", "dateTime": 1517081145433}, {"current_trial": 233, "trialdata": {"rt": -1, "trial_type": "single-stim", "word": "portrait", "stimulus": "<p id=\"stim\">PORTRAIT</p>", "conditions": [24, 800, "v", 24000], "internal_node_id": "0.0-170.0", "trial": 6, "time_elapsed": 1042320, "serialpos": 8, "key_press": -1, "wordID": 1110, "type": "PRES_VIS", "trial_index": 233}, "uniqueid": "MTK2422:3C2NJ6JBKBOEXAGXPR5GQV9XCMN2N2", "dateTime": 1517081147282}, {"current_trial": 234, "trialdata": {"rt": -1, "trial_type": "single-stim", "word": "picture", "stimulus": "<p id=\"stim\">PICTURE</p>", "conditions": [24, 800, "v", 24000], "internal_node_id": "0.0-171.0", "trial": 6, "time_elapsed": 1044282, "serialpos": 9, "key_press": -1, "wordID": 1060, "type": "PRES_VIS", "trial_index": 234}, "uniqueid": "MTK2422:3C2NJ6JBKBOEXAGXPR5GQV9XCMN2N2", "dateTime": 1517081149244}, {"current_trial": 235, "trialdata": {"rt": -1, "trial_type": "single-stim", "word": "skirt", "stimulus": "<p id=\"stim\">SKIRT</p>", "conditions": [24, 800, "v", 24000], "internal_node_id": "0.0-172.0", "trial": 6, "time_elapsed": 1046020, "serialpos": 10, "key_press": -1, "wordID": 1318, "type": "PRES_VIS", "trial_index": 235}, "uniqueid": "MTK2422:3C2NJ6JBKBOEXAGXPR5GQV9XCMN2N2", "dateTime": 1517081150982}, {"current_trial": 236, "trialdata": {"rt": -1, "trial_type": "single-stim", "word": "actor", "stimulus": "<p id=\"stim\">ACTOR</p>", "conditions": [24, 800, "v", 24000], "internal_node_id": "0.0-173.0", "trial": 6, "time_elapsed": 1047927, "serialpos": 11, "key_press": -1, "wordID": 4, "type": "PRES_VIS", "trial_index": 236}, "uniqueid": "MTK2422:3C2NJ6JBKBOEXAGXPR5GQV9XCMN2N2", "dateTime": 1517081152889}, {"current_trial": 237, "trialdata": {"rt": -1, "trial_type": "single-stim", "word": "piston", "stimulus": "<p id=\"stim\">PISTON</p>", "conditions": [24, 800, "v", 24000], "internal_node_id": "0.0-174.0", "trial": 6, "time_elapsed": 1049731, "serialpos": 12, "key_press": -1, "wordID": 1075, "type": "PRES_VIS", "trial_index": 237}, "uniqueid": "MTK2422:3C2NJ6JBKBOEXAGXPR5GQV9XCMN2N2", "dateTime": 1517081154694}, {"current_trial": 238, "trialdata": {"rt": -1, "trial_type": "single-stim", "word": "parsley", "stimulus": "<p id=\"stim\">PARSLEY</p>", "conditions": [24, 800, "v", 24000], "internal_node_id": "0.0-175.0", "trial": 6, "time_elapsed": 1051723, "serialpos": 13, "key_press": -1, "wordID": 1015, "type": "PRES_VIS", "trial_index": 238}, "uniqueid": "MTK2422:3C2NJ6JBKBOEXAGXPR5GQV9XCMN2N2", "dateTime": 1517081156685}, {"current_trial": 239, "trialdata": {"rt": -1, "trial_type": "single-stim", "word": "lady", "stimulus": "<p id=\"stim\">LADY</p>", "conditions": [24, 800, "v", 24000], "internal_node_id": "0.0-176.0", "trial": 6, "time_elapsed": 1053423, "serialpos": 14, "key_press": -1, "wordID": 793, "type": "PRES_VIS", "trial_index": 239}, "uniqueid": "MTK2422:3C2NJ6JBKBOEXAGXPR5GQV9XCMN2N2", "dateTime": 1517081158385}, {"current_trial": 240, "trialdata": {"rt": -1, "trial_type": "single-stim", "word": "donor", "stimulus": "<p id=\"stim\">DONOR</p>", "conditions": [24, 800, "v", 24000], "internal_node_id": "0.0-177.0", "trial": 6, "time_elapsed": 1055322, "serialpos": 15, "key_press": -1, "wordID": 484, "type": "PRES_VIS", "trial_index": 240}, "uniqueid": "MTK2422:3C2NJ6JBKBOEXAGXPR5GQV9XCMN2N2", "dateTime": 1517081160284}, {"current_trial": 241, "trialdata": {"rt": -1, "trial_type": "single-stim", "word": "pepper", "stimulus": "<p id=\"stim\">PEPPER</p>", "conditions": [24, 800, "v", 24000], "internal_node_id": "0.0-178.0", "trial": 6, "time_elapsed": 1057138, "serialpos": 16, "key_press": -1, "wordID": 1046, "type": "PRES_VIS", "trial_index": 241}, "uniqueid": "MTK2422:3C2NJ6JBKBOEXAGXPR5GQV9XCMN2N2", "dateTime": 1517081162100}, {"current_trial": 242, "trialdata": {"rt": -1, "trial_type": "single-stim", "word": "diner", "stimulus": "<p id=\"stim\">DINER</p>", "conditions": [24, 800, "v", 24000], "internal_node_id": "0.0-179.0", "trial": 6, "time_elapsed": 1058961, "serialpos": 17, "key_press": -1, "wordID": 466, "type": "PRES_VIS", "trial_index": 242}, "uniqueid": "MTK2422:3C2NJ6JBKBOEXAGXPR5GQV9XCMN2N2", "dateTime": 1517081163923}, {"current_trial": 243, "trialdata": {"rt": -1, "trial_type": "single-stim", "word": "hero", "stimulus": "<p id=\"stim\">HERO</p>", "conditions": [24, 800, "v", 24000], "internal_node_id": "0.0-180.0", "trial": 6, "time_elapsed": 1060580, "serialpos": 18, "key_press": -1, "wordID": 705, "type": "PRES_VIS", "trial_index": 243}, "uniqueid": "MTK2422:3C2NJ6JBKBOEXAGXPR5GQV9XCMN2N2", "dateTime": 1517081165542}, {"current_trial": 244, "trialdata": {"rt": -1, "trial_type": "single-stim", "word": "marine", "stimulus": "<p id=\"stim\">MARINE</p>", "conditions": [24, 800, "v", 24000], "internal_node_id": "0.0-181.0", "trial": 6, "time_elapsed": 1062327, "serialpos": 19, "key_press": -1, "wordID": 868, "type": "PRES_VIS", "trial_index": 244}, "uniqueid": "MTK2422:3C2NJ6JBKBOEXAGXPR5GQV9XCMN2N2", "dateTime": 1517081167289}, {"current_trial": 245, "trialdata": {"rt": -1, "trial_type": "single-stim", "word": "daughter", "stimulus": "<p id=\"stim\">DAUGHTER</p>", "conditions": [24, 800, "v", 24000], "internal_node_id": "0.0-182.0", "trial": 6, "time_elapsed": 1064236, "serialpos": 20, "key_press": -1, "wordID": 441, "type": "PRES_VIS", "trial_index": 245}, "uniqueid": "MTK2422:3C2NJ6JBKBOEXAGXPR5GQV9XCMN2N2", "dateTime": 1517081169198}, {"current_trial": 246, "trialdata": {"rt": -1, "trial_type": "single-stim", "word": "girl", "stimulus": "<p id=\"stim\">GIRL</p>", "conditions": [24, 800, "v", 24000], "internal_node_id": "0.0-183.0", "trial": 6, "time_elapsed": 1065938, "serialpos": 21, "key_press": -1, "wordID": 636, "type": "PRES_VIS", "trial_index": 246}, "uniqueid": "MTK2422:3C2NJ6JBKBOEXAGXPR5GQV9XCMN2N2", "dateTime": 1517081170900}, {"current_trial": 247, "trialdata": {"rt": -1, "trial_type": "single-stim", "word": "pasta", "stimulus": "<p id=\"stim\">PASTA</p>", "conditions": [24, 800, "v", 24000], "internal_node_id": "0.0-184.0", "trial": 6, "time_elapsed": 1067928, "serialpos": 22, "key_press": -1, "wordID": 1020, "type": "PRES_VIS", "trial_index": 247}, "uniqueid": "MTK2422:3C2NJ6JBKBOEXAGXPR5GQV9XCMN2N2", "dateTime": 1517081172891}, {"current_trial": 248, "trialdata": {"rt": -1, "trial_type": "single-stim", "word": "venus", "stimulus": "<p id=\"stim\">VENUS</p>", "conditions": [24, 800, "v", 24000], "internal_node_id": "0.0-185.0", "trial": 6, "time_elapsed": 1069756, "serialpos": 23, "key_press": -1, "wordID": 1556, "type": "PRES_VIS", "trial_index": 248}, "uniqueid": "MTK2422:3C2NJ6JBKBOEXAGXPR5GQV9XCMN2N2", "dateTime": 1517081174719}, {"current_trial": 249, "trialdata": {"rt": -1, "trial_type": "single-stim", "stimulus": "", "internal_node_id": "0.0-186.0-0.0", "time_elapsed": 1072077, "key_press": -1, "type": "PRE_RECALL_DELAY", "trial_index": 249}, "uniqueid": "MTK2422:3C2NJ6JBKBOEXAGXPR5GQV9XCMN2N2", "dateTime": 1517081177039}, {"current_trial": 250, "trialdata": {"rt": -1000, "trial_type": "single-audio", "stimulus": "/static/audio/400Hz.wav", "internal_node_id": "0.0-187.0", "time_elapsed": 1072579, "key_press": -1, "type": "PRE_RECALL_ALERT", "trial_index": 250}, "uniqueid": "MTK2422:3C2NJ6JBKBOEXAGXPR5GQV9XCMN2N2", "dateTime": 1517081177542}, {"current_trial": 251, "trialdata": {"rt": [1731, 2782, 3814, 5207, 7779, 9738, 12062, 22765, 37101], "recwords": ["venus", "marine", "diner", "pasta", "dolphin", "blockade", "pecan", "lady", "venus"], "key_times": [635, 787, 943, 1156, 1264, 1731, 1963, 2014, 2139, 2290, 2390, 2534, 2782, 3294, 3407, 3487, 3543, 3627, 3814, 4380, 4421, 4568, 4713, 4842, 5207, 6650, 6746, 6911, 7104, 7308, 7400, 7508, 7779, 8186, 8297, 8444, 8525, 8646, 8895, 9091, 9280, 9738, 11007, 11106, 11405, 11514, 11705, 12062, 21798, 21885, 22054, 22360, 22765, 35914, 36301, 36544, 36758, 36829, 37101], "trial_type": "free-recall", "conditions": [24, 800, "v", 24000], "internal_node_id": "0.0-188.0-0.0", "key_presses": [86, 69, 78, 85, 83, 13, 77, 65, 82, 73, 78, 69, 13, 68, 73, 78, 69, 82, 13, 80, 65, 83, 84, 65, 13, 68, 79, 76, 80, 72, 73, 78, 13, 66, 76, 79, 67, 75, 65, 68, 69, 13, 80, 69, 67, 65, 78, 13, 76, 65, 68, 89, 13, 86, 69, 78, 85, 83, 13], "trial": 