{"assignmentId": "3A4TN5196LPZLWMOJMZ9XOLN1J4CHO", "workerId": "MTK2161", "questiondata": {"origin": "United States", "strat-rehearsal": "51", "marital": "Married/Domestic Partnership", "education": "Bachelor's degree", "ethnicity": "Not Hispanic", "color_depth": 24, "distracted": "No", "wrote-notes": "No", "strat-other": "", "screen_width": 1366, "avail_screen_width": 1366, "avail_screen_height": 728, "strat-image": "20", "language": "English", "gender": "Female", "age": "-32", "gender_other": "", "race": ["White"], "strat-categorize": "70", "pixel_depth": 24, "strat-spatial": "11", "strat-story": "41", "race_other": "", "screen_height": 768}, "bonus": 0, "hitId": "3VQTAXTYN3SJTT28FJ5BGZ8BVJWUBN", "counterbalance": 2487, "useragent": "Mozilla/5.0 (Windows NT 10.0; WOW64) AppleWebKit/537.36 (KHTML, like Gecko) Chrome/63.0.3239.132 Safari/537.36", "eventdata": [{"eventtype": "initialized", "interval": 0, "value": null, "timestamp": 1516760112678}, {"eventtype": "window_resize", "interval": 0, "value": [1517, 801], "timestamp": 1516760112678}, {"eventtype": "window_resize", "interval": 15119, "value": [1517, 752], "timestamp": 1516760127797}, {"eventtype": "focus", "interval": 2809, "value": "off", "timestamp": 1516760130606}, {"eventtype": "window_resize", "interval": 2778, "value": [1517, 801], "timestamp": 1516760133384}, {"eventtype": "focus", "interval": 15083, "value": "on", "timestamp": 1516760148467}, {"eventtype": "focus", "interval": 8522, "value": "off", "timestamp": 1516760156989}, {"eventtype": "focus", "interval": 11214, "value": "on", "timestamp": 1516760168203}, {"eventtype": "focus", "interval": 120340, "value": "off", "timestamp": 1516760288543}, {"eventtype": "focus", "interval": 15126, "value": "on", "timestamp": 1516760303669}, {"eventtype": "focus", "interval": 87174, "value": "off", "timestamp": 1516760390843}, {"eventtype": "focus", "interval": 9150, "value": "on", "timestamp": 1516760399993}, {"eventtype": "window_resize", "interval": 88262, "value": [1707, 901], "timestamp": 1516760488255}, {"eventtype": "focus", "interval": 766202, "value": "off", "timestamp": 1516761254457}, {"eventtype": "focus", "interval": 4017, "value": "on", "timestamp": 1516761258474}, {"eventtype": "focus", "interval": 343921, "value": "off", "timestamp": 1516761602395}, {"eventtype": "focus", "interval": 6757, "value": "on", "timestamp": 1516761609152}], "data": [{"current_trial": 0, "trialdata": {"rt": 13673, "trial_type": "text", "internal_node_id": "0.0-0.0", "time_elapsed": 13677, "key_press": 76, "type": "INSTRUCTIONS", "trial_index": 0}, "uniqueid": "MTK2161:3A4TN5196LPZLWMOJMZ9XOLN1J4CHO", "dateTime": 1516760149114}, {"current_trial": 1, "trialdata": {"rt": 46347, "trial_type": "text", "internal_node_id": "0.0-1.0", "time_elapsed": 60027, "key_press": 72, "type": "INSTRUCTIONS", "trial_index": 1}, "uniqueid": "MTK2161:3A4TN5196LPZLWMOJMZ9XOLN1J4CHO", "dateTime": 1516760195462}, {"current_trial": 2, "trialdata": {"rt": [17671], "trial_type": "audio-test", "responses": ["ocean"], "internal_node_id": "0.0-2.0", "time_elapsed": 77763, "type": "AUDIO_TEST", "trial_index": 2}, "uniqueid": "MTK2161:3A4TN5196LPZLWMOJMZ9XOLN1J4CHO", "dateTime": 1516760213198}, {"current_trial": 3, "trialdata": {"rt": [8699], "trial_type": "audio-test", "responses": ["crystal"], "internal_node_id": "0.0-3.0", "time_elapsed": 86477, "type": "AUDIO_TEST", "trial_index": 3}, "uniqueid": "MTK2161:3A4TN5196LPZLWMOJMZ9XOLN1J4CHO", "dateTime": 1516760221913}, {"current_trial": 4, "trialdata": {"rt": [4875], "trial_type": "audio-test", "responses": ["spice"], "internal_node_id": "0.0-4.0", "time_elapsed": 91363, "type": "AUDIO_TEST", "trial_index": 4}, "uniqueid": "MTK2161:3A4TN5196LPZLWMOJMZ9XOLN1J4CHO", "dateTime": 1516760226799}, {"current_trial": 5, "trialdata": {"rt": 32710, "trial_type": "survey-text", "responses": "{\"Q0\":\"11:50pm\",\"Q1\":\"5:50am\",\"Q2\":\"4\"}", "internal_node_id": "0.0-5.0", "time_elapsed": 124829, "type": "SLEEP_SURVEY", "trial_index": 5}, "uniqueid": "MTK2161:3A4TN5196LPZLWMOJMZ9XOLN1J4CHO", "dateTime": 1516760260264}, {"current_trial": 6, "trialdata": {"rt": 70196, "trial_type": "text", "internal_node_id": "0.0-6.0", "time_elapsed": 196026, "key_press": 75, "type": "INSTRUCTIONS", "trial_index": 6}, "uniqueid": "MTK2161:3A4TN5196LPZLWMOJMZ9XOLN1J4CHO", "dateTime": 1516760331461}, {"current_trial": 7, "trialdata": {"rt": 14685, "trial_type": "text", "internal_node_id": "0.0-7.0", "time_elapsed": 211213, "key_press": 75, "type": "INSTRUCTIONS", "trial_index": 7}, "uniqueid": "MTK2161:3A4TN5196LPZLWMOJMZ9XOLN1J4CHO", "dateTime": 1516760346648}, {"current_trial": 8, "trialdata": {"rt": 4857, "trial_type": "text", "internal_node_id": "0.0-8.0", "time_elapsed": 216571, "key_press": 75, "type": "INSTRUCTIONS", "trial_index": 8}, "uniqueid": "MTK2161:3A4TN5196LPZLWMOJMZ9XOLN1J4CHO", "dateTime": 1516760352006}, {"current_trial": 9, "trialdata": {"rt": [4702, 7566, 9815, 12404, 14683], "trial_type": "math-distractor", "key_times": [3969, 4099, 4702, 7010, 7077, 7566, 9421, 9535, 9815, 11983, 12101, 12404, 14133, 14410, 14683], "responses": ["14", "12", "13", "14", "14"], "num2": [4, 2, 1, 7, 2, 9], "num3": [8, 6, 6, 3, 9, 6], "conditions": [18, 1200, "a", 18000], "internal_node_id": "0.0-9.0", "key_presses": [49, 52, 13, 49, 50, 13, 49, 51, 13, 49, 52, 13, 49, 52, 13], "trial": 0, "time_elapsed": 235621, "type": "DISTRACTOR", "trial_index": 9, "num1": [2, 4, 6, 4, 3, 2]}, "uniqueid": "MTK2161:3A4TN5196LPZLWMOJMZ9XOLN1J4CHO", "dateTime": 1516760371056}, {"current_trial": 10, "trialdata": {"rt": -1, "trial_type": "single-stim", "stimulus": "<p id=\"stim\">10</p>", "internal_node_id": "0.0-10.0-0.0", "time_elapsed": 238625, "key_press": -1, "trial_index": 10}, "uniqueid": "MTK2161:3A4TN5196LPZLWMOJMZ9XOLN1J4CHO", "dateTime": 1516760374060}, {"current_trial": 11, "trialdata": {"rt": -1, "trial_type": "single-stim", "stimulus": "<p id=\"stim\">9</p>", "internal_node_id": "0.0-10.0-1.0", "time_elapsed": 239627, "key_press": -1, "trial_index": 11}, "uniqueid": "MTK2161:3A4TN5196LPZLWMOJMZ9XOLN1J4CHO", "dateTime": 1516760375062}, {"current_trial": 12, "trialdata": {"rt": -1, "trial_type": "single-stim", "stimulus": "<p id=\"stim\">8</p>", "internal_node_id": "0.0-10.0-2.0", "time_elapsed": 240629, "key_press": -1, "trial_index": 12}, "uniqueid": "MTK2161:3A4TN5196LPZLWMOJMZ9XOLN1J4CHO", "dateTime": 1516760376065}, {"current_trial": 13, "trialdata": {"rt": -1, "trial_type": "single-stim", "stimulus": "<p id=\"stim\">7</p>", "internal_node_id": "0.0-10.0-3.0", "time_elapsed": 241632, "key_press": -1, "trial_index": 13}, "uniqueid": "MTK2161:3A4TN5196LPZLWMOJMZ9XOLN1J4CHO", "dateTime": 1516760377067}, {"current_trial": 14, "trialdata": {"rt": -1, "trial_type": "single-stim", "stimulus": "<p id=\"stim\">6</p>", "internal_node_id": "0.0-10.0-4.0", "time_elapsed": 242633, "key_press": -1, "trial_index": 14}, "uniqueid": "MTK2161:3A4TN5196LPZLWMOJMZ9XOLN1J4CHO", "dateTime": 1516760378068}, {"current_trial": 15, "trialdata": {"rt": -1, "trial_type": "single-stim", "stimulus": "<p id=\"stim\">5</p>", "internal_node_id": "0.0-10.0-5.0", "time_elapsed": 243633, "key_press": -1, "trial_index": 15}, "uniqueid": "MTK2161:3A4TN5196LPZLWMOJMZ9XOLN1J4CHO", "dateTime": 1516760379068}, {"current_trial": 16, "trialdata": {"rt": -1, "trial_type": "single-stim", "stimulus": "<p id=\"stim\">4</p>", "internal_node_id": "0.0-10.0-6.0", "time_elapsed": 244636, "key_press": -1, "trial_index": 16}, "uniqueid": "MTK2161:3A4TN5196LPZLWMOJMZ9XOLN1J4CHO", "dateTime": 1516760380071}, {"current_trial": 17, "trialdata": {"rt": -1, "trial_type": "single-stim", "stimulus": "<p id=\"stim\">3</p>", "internal_node_id": "0.0-10.0-7.0", "time_elapsed": 245638, "key_press": -1, "trial_index": 17}, "uniqueid": "MTK2161:3A4TN5196LPZLWMOJMZ9XOLN1J4CHO", "dateTime": 1516760381074}, {"current_trial": 18, "trialdata": {"rt": -1, "trial_type": "single-stim", "stimulus": "<p id=\"stim\">2</p>", "internal_node_id": "0.0-10.0-8.0", "time_elapsed": 246639, "key_press": -1, "trial_index": 18}, "uniqueid": "MTK2161:3A4TN5196LPZLWMOJMZ9XOLN1J4CHO", "dateTime": 1516760382075}, {"current_trial": 19, "trialdata": {"rt": -1, "trial_type": "single-stim", "stimulus": "<p id=\"stim\">1</p>", "internal_node_id": "0.0-10.0-9.0", "time_elapsed": 247640, "key_press": -1, "trial_index": 19}, "uniqueid": "MTK2161:3A4TN5196LPZLWMOJMZ9XOLN1J4CHO", "dateTime": 1516760383076}, {"current_trial": 20, "trialdata": {"rt": -1, "trial_type": "single-stim", "stimulus": "<p id=\"stim\">+</p>", "internal_node_id": "0.0-11.0-0.0", "time_elapsed": 249142, "key_press": -1, "type": "FIXATION", "trial_index": 20}, "uniqueid": "MTK2161:3A4TN5196LPZLWMOJMZ9XOLN1J4CHO", "dateTime": 1516760384577}, {"current_trial": 21, "trialdata": {"rt": -1000, "trial_type": "single-audio", "word": "bank", "stimulus": "/static/audio/wordpool/BANK.wav", "conditions": [18, 1200, "a", 18000], "internal_node_id": "0.0-12.0", "trial": 0, "time_elapsed": 251297, "serialpos": 0, "key_press": -1, "wordID": 82, "type": "PRES_AUD", "trial_index": 21}, "uniqueid": "MTK2161:3A4TN5196LPZLWMOJMZ9XOLN1J4CHO", "dateTime": 1516760386733}, {"current_trial": 22, "trialdata": {"rt": -1000, "trial_type": "single-audio", "word": "pecan", "stimulus": "/static/audio/wordpool/PECAN.wav", "conditions": [18, 1200, "a", 18000], "internal_node_id": "0.0-13.0", "trial": 0, "time_elapsed": 253557, "serialpos": 1, "key_press": -1, "wordID": 1035, "type": "PRES_AUD", "trial_index": 22}, "uniqueid": "MTK2161:3A4TN5196LPZLWMOJMZ9XOLN1J4CHO", "dateTime": 1516760388992}, {"current_trial": 23, "trialdata": {"rt": -1000, "trial_type": "single-audio", "word": "jelly", "stimulus": "/static/audio/wordpool/JELLY.wav", "conditions": [18, 1200, "a", 18000], "internal_node_id": "0.0-14.0", "trial": 0, "time_elapsed": 255835, "serialpos": 2, "key_press": -1, "wordID": 754, "type": "PRES_AUD", "trial_index": 23}, "uniqueid": "MTK2161:3A4TN5196LPZLWMOJMZ9XOLN1J4CHO", "dateTime": 1516760391270}, {"current_trial": 24, "trialdata": {"rt": -1000, "trial_type": "single-audio", "word": "plate", "stimulus": "/static/audio/wordpool/PLATE.wav", "conditions": [18, 1200, "a", 18000], "internal_node_id": "0.0-15.0", "trial": 0, "time_elapsed": 258052, "serialpos": 3, "key_press": -1, "wordID": 1085, "type": "PRES_AUD", "trial_index": 24}, "uniqueid": "MTK2161:3A4TN5196LPZLWMOJMZ9XOLN1J4CHO", "dateTime": 1516760393487}, {"current_trial": 25, "trialdata": {"rt": -1000, "trial_type": "single-audio", "word": "nurse", "stimulus": "/static/audio/wordpool/NURSE.wav", "conditions": [18, 1200, "a", 18000], "internal_node_id": "0.0-16.0", "trial": 0, "time_elapsed": 260419, "serialpos": 4, "key_press": -1, "wordID": 962, "type": "PRES_AUD", "trial_index": 25}, "uniqueid": "MTK2161:3A4TN5196LPZLWMOJMZ9XOLN1J4CHO", "dateTime": 1516760395854}, {"current_trial": 26, "trialdata": {"rt": -1000, "trial_type": "single-audio", "word": "wife", "stimulus": "/static/audio/wordpool/WIFE.wav", "conditions": [18, 1200, "a", 18000], "internal_node_id": "0.0-17.0", "trial": 0, "time_elapsed": 262717, "serialpos": 5, "key_press": -1, "wordID": 1608, "type": "PRES_AUD", "trial_index": 26}, "uniqueid": "MTK2161:3A4TN5196LPZLWMOJMZ9XOLN1J4CHO", "dateTime": 1516760398153}, {"current_trial": 27, "trialdata": {"rt": -1000, "trial_type": "single-audio", "word": "monster", "stimulus": "/static/audio/wordpool/MONSTER.wav", "conditions": [18, 1200, "a", 18000], "internal_node_id": "0.0-18.0", "trial": 0, "time_elapsed": 265061, "serialpos": 6, "key_press": -1, "wordID": 911, "type": "PRES_AUD", "trial_index": 27}, "uniqueid": "MTK2161:3A4TN5196LPZLWMOJMZ9XOLN1J4CHO", "dateTime": 1516760400496}, {"current_trial": 28, "trialdata": {"rt": -1000, "trial_type": "single-audio", "word": "cricket", "stimulus": "/static/audio/wordpool/CRICKET.wav", "conditions": [18, 1200, "a", 18000], "internal_node_id": "0.0-19.0", "trial": 0, "time_elapsed": 267247, "serialpos": 7, "key_press": -1, "wordID": 407, "type": "PRES_AUD", "trial_index": 28}, "uniqueid": "MTK2161:3A4TN5196LPZLWMOJMZ9XOLN1J4CHO", "dateTime": 1516760402682}, {"current_trial": 29, "trialdata": {"rt": -1000, "trial_type": "single-audio", "word": "backbone", "stimulus": "/static/audio/wordpool/BACKBONE.wav", "conditions": [18, 1200, "a", 18000], "internal_node_id": "0.0-20.0", "trial": 0, "time_elapsed": 269578, "serialpos": 8, "key_press": -1, "wordID": 65, "type": "PRES_AUD", "trial_index": 29}, "uniqueid": "MTK2161:3A4TN5196LPZLWMOJMZ9XOLN1J4CHO", "dateTime": 1516760405013}, {"current_trial": 30, "trialdata": {"rt": -1000, "trial_type": "single-audio", "word": "creature", "stimulus": "/static/audio/wordpool/CREATURE.wav", "conditions": [18, 1200, "a", 18000], "internal_node_id": "0.0-21.0", "trial": 0, "time_elapsed": 271697, "serialpos": 9, "key_press": -1, "wordID": 402, "type": "PRES_AUD", "trial_index": 30}, "uniqueid": "MTK2161:3A4TN5196LPZLWMOJMZ9XOLN1J4CHO", "dateTime": 1516760407132}, {"current_trial": 31, "trialdata": {"rt": -1000, "trial_type": "single-audio", "word": "patient", "stimulus": "/static/audio/wordpool/PATIENT.wav", "conditions": [18, 1200, "a", 18000], "internal_node_id": "0.0-22.0", "trial": 0, "time_elapsed": 273718, "serialpos": 10, "key_press": -1, "wordID": 1023, "type": "PRES_AUD", "trial_index": 31}, "uniqueid": "MTK2161:3A4TN5196LPZLWMOJMZ9XOLN1J4CHO", "dateTime": 1516760409153}, {"current_trial": 32, "trialdata": {"rt": -1000, "trial_type": "single-audio", "word": "champagne", "stimulus": "/static/audio/wordpool/CHAMPAGNE.wav", "conditions": [18, 1200, "a", 18000], "internal_node_id": "0.0-23.0", "trial": 0, "time_elapsed": 275970, "serialpos": 11, "key_press": -1, "wordID": 277, "type": "PRES_AUD", "trial_index": 32}, "uniqueid": "MTK2161:3A4TN5196LPZLWMOJMZ9XOLN1J4CHO", "dateTime": 1516760411405}, {"current_trial": 33, "trialdata": {"rt": -1000, "trial_type": "single-audio", "word": "pigment", "stimulus": "/static/audio/wordpool/PIGMENT.wav", "conditions": [18, 1200, "a", 18000], "internal_node_id": "0.0-24.0", "trial": 0, "time_elapsed": 278350, "serialpos": 12, "key_press": -1, "wordID": 1065, "type": "PRES_AUD", "trial_index": 33}, "uniqueid": "MTK2161:3A4TN5196LPZLWMOJMZ9XOLN1J4CHO", "dateTime": 1516760413785}, {"current_trial": 34, "trialdata": {"rt": -1000, "trial_type": "single-audio", "word": "item", "stimulus": "/static/audio/wordpool/ITEM.wav", "conditions": [18, 1200, "a", 18000], "internal_node_id": "0.0-25.0", "trial": 0, "time_elapsed": 280430, "serialpos": 13, "key_press": -1, "wordID": 745, "type": "PRES_AUD", "trial_index": 34}, "uniqueid": "MTK2161:3A4TN5196LPZLWMOJMZ9XOLN1J4CHO", "dateTime": 1516760415865}, {"current_trial": 35, "trialdata": {"rt": -1000, "trial_type": "single-audio", "word": "motel", "stimulus": "/static/audio/wordpool/MOTEL.wav", "conditions": [18, 1200, "a", 18000], "internal_node_id": "0.0-26.0", "trial": 0, "time_elapsed": 282673, "serialpos": 14, "key_press": -1, "wordID": 918, "type": "PRES_AUD", "trial_index": 35}, "uniqueid": "MTK2161:3A4TN5196LPZLWMOJMZ9XOLN1J4CHO", "dateTime": 1516760418108}, {"current_trial": 36, "trialdata": {"rt": -1000, "trial_type": "single-audio", "word": "queen", "stimulus": "/static/audio/wordpool/QUEEN.wav", "conditions": [18, 1200, "a", 18000], "internal_node_id": "0.0-27.0", "trial": 0, "time_elapsed": 284760, "serialpos": 15, "key_press": -1, "wordID": 1148, "type": "PRES_AUD", "trial_index": 36}, "uniqueid": "MTK2161:3A4TN5196LPZLWMOJMZ9XOLN1J4CHO", "dateTime": 1516760420195}, {"current_trial": 37, "trialdata": {"rt": -1000, "trial_type": "single-audio", "word": "frame", "stimulus": "/static/audio/wordpool/FRAME.wav", "conditions": [18, 1200, "a", 18000], "internal_node_id": "0.0-28.0", "trial": 0, "time_elapsed": 286770, "serialpos": 16, "key_press": -1, "wordID": 599, "type": "PRES_AUD", "trial_index": 37}, "uniqueid": "MTK2161:3A4TN5196LPZLWMOJMZ9XOLN1J4CHO", "dateTime": 1516760422206}, {"current_trial": 38, "trialdata": {"rt": -1000, "trial_type": "single-audio", "word": "flashlight", "stimulus": "/static/audio/wordpool/FLASHLIGHT.wav", "conditions": [18, 1200, "a", 18000], "internal_node_id": "0.0-29.0", "trial": 0, "time_elapsed": 289060, "serialpos": 17, "key_press": -1, "wordID": 574, "type": "PRES_AUD", "trial_index": 38}, "uniqueid": "MTK2161:3A4TN5196LPZLWMOJMZ9XOLN1J4CHO", "dateTime": 1516760424495}, {"current_trial": 39, "trialdata": {"rt": -1, "trial_type": "single-stim", "stimulus": "", "internal_node_id": "0.0-30.0-0.0", "time_elapsed": 290275, "key_press": -1, "type": "PRE_RECALL_DELAY", "trial_index": 39}, "uniqueid": "MTK2161:3A4TN5196LPZLWMOJMZ9XOLN1J4CHO", "dateTime": 1516760425710}, {"current_trial": 40, "trialdata": {"rt": -1000, "trial_type": "single-audio", "stimulus": "/static/audio/400Hz.wav", "internal_node_id": "0.0-31.0", "time_elapsed": 290776, "key_press": -1, "type": "PRE_RECALL_ALERT", "trial_index": 40}, "uniqueid": "MTK2161:3A4TN5196LPZLWMOJMZ9XOLN1J4CHO", "dateTime": 1516760426211}, {"current_trial": 41, "trialdata": {"rt": [2381, 4327, 6256, 8331, 11327, 13788, 16127, 18632, 24362, 31398, 59230], "recwords": ["blink", "creature", "pigment", "pecan", "monster", "motel", "flashlight", "pigment", "ocean", "item", ""], "key_times": [1442, 1534, 1772, 1890, 2035, 2381, 3151, 3404, 3498, 3641, 3763, 3932, 4016, 4101, 4327, 4995, 5143, 5364, 5533, 5670, 5789, 5922, 6256, 7423, 7549, 7770, 7848, 8017, 8331, 10420, 10525, 10656, 10714, 10870, 11025, 11101, 11327, 12895, 13022, 13179, 13287, 13421, 13788, 14420, 14584, 14684, 14786, 14976, 15319, 15527, 15666, 15782, 15916, 16127, 17069, 17229, 17412, 18008, 18151, 18272, 18360, 18632, 23619, 23699, 23926, 24023, 24066, 24362, 30570, 30720, 30821, 30949, 31398, 59230], "trial_type": "free-recall", "conditions": [18, 1200, "a", 18000], "internal_node_id": "0.0-32.0-0.0", "key_presses": [66, 76, 73, 78, 75, 13, 67, 82, 69, 65, 84, 85, 82, 69, 13, 80, 73, 71, 77, 69, 78, 84, 13, 80, 69, 67, 65, 78, 13, 77, 79, 78, 83, 84, 69, 82, 13, 77, 79, 84, 69, 76, 13, 70, 76, 65, 83, 72, 76, 73, 71, 72, 84, 13, 80, 73, 71, 77, 69, 78, 84, 13, 79, 67, 69, 65, 78, 13, 73, 84, 69, 77, 13, 13], "trial": 0, "time_elapsed": 350783, "type": "FREE_RECALL", "trial_index": 41}, "uniqueid": "MTK2161:3A4TN5196LPZLWMOJMZ9XOLN1J4CHO", "dateTime": 1516760486222}, {"current_trial": 42, "trialdata": {"rt": 3406, "trial_type": "text", "internal_node_id": "0.0-33.0", "time_elapsed": 356194, "key_press": 188, "type": "INSTRUCTIONS", "trial_index": 42}, "uniqueid": "MTK2161:3A4TN5196LPZLWMOJMZ9XOLN1J4CHO", "dateTime": 1516760491629}, {"current_trial": 43, "trialdata": {"rt": [6647, 8706, 11657, 13528, 15572], "trial_type": "math-distractor", "key_times": [6108, 6396, 6647, 8428, 8497, 8706, 11111, 11522, 11657, 13058, 13310, 13528, 14972, 15290, 15572, 17350, 17803], "responses": ["19", "12", "18", "16", "10"], "num2": [5, 2, 2, 4, 8, 8], "num3": [8, 8, 9, 8, 1, 2], "conditions": [18, 1200, "a", 18000], "internal_node_id": "0.0-34.0", "key_presses": [49, 57, 13, 49, 50, 13, 49, 56, 13, 49, 54, 13, 49, 48, 13, 49, 56], "trial": 1, "time_elapsed": 376204, "type": "DISTRACTOR", "trial_index": 43, "num1": [6, 2, 7, 4, 1, 8]}, "uniqueid": "MTK2161:3A4TN5196LPZLWMOJMZ9XOLN1J4CHO", "dateTime": 1516760511639}, {"current_trial": 44, "trialdata": {"rt": -1, "trial_type": "single-stim", "stimulus": "<p id=\"stim\">10</p>", "internal_node_id": "0.0-35.0-0.0", "time_elapsed": 379204, "key_press": -1, "trial_index": 44}, "uniqueid": "MTK2161:3A4TN5196LPZLWMOJMZ9XOLN1J4CHO", "dateTime": 1516760514640}, {"current_trial": 45, "trialdata": {"rt": -1, "trial_type": "single-stim", "stimulus": "<p id=\"stim\">9</p>", "internal_node_id": "0.0-35.0-1.0", "time_elapsed": 380205, "key_press": -1, "trial_index": 45}, "uniqueid": "MTK2161:3A4TN5196LPZLWMOJMZ9XOLN1J4CHO", "dateTime": 1516760515641}, {"current_trial": 46, "trialdata": {"rt": -1, "trial_type": "single-stim", "stimulus": "<p id=\"stim\">8</p>", "internal_node_id": "0.0-35.0-2.0", "time_elapsed": 381212, "key_press": -1, "trial_index": 46}, "uniqueid": "MTK2161:3A4TN5196LPZLWMOJMZ9XOLN1J4CHO", "dateTime": 1516760516648}, {"current_trial": 47, "trialdata": {"rt": -1, "trial_type": "single-stim", "stimulus": "<p id=\"stim\">7</p>", "internal_node_id": "0.0-35.0-3.0", "time_elapsed": 382213, "key_press": -1, "trial_index": 47}, "uniqueid": "MTK2161:3A4TN5196LPZLWMOJMZ9XOLN1J4CHO", "dateTime": 1516760517649}, {"current_trial": 48, "trialdata": {"rt": -1, "trial_type": "single-stim", "stimulus": "<p id=\"stim\">6</p>", "internal_node_id": "0.0-35.0-4.0", "time_elapsed": 383218, "key_press": -1, "trial_index": 48}, "uniqueid": "MTK2161:3A4TN5196LPZLWMOJMZ9XOLN1J4CHO", "dateTime": 1516760518654}, {"current_trial": 49, "trialdata": {"rt": -1, "trial_type": "single-stim", "stimulus": "<p id=\"stim\">5</p>", "internal_node_id": "0.0-35.0-5.0", "time_elapsed": 384219, "key_press": -1, "trial_index": 49}, "uniqueid": "MTK2161:3A4TN5196LPZLWMOJMZ9XOLN1J4CHO", "dateTime": 1516760519655}, {"current_trial": 50, "trialdata": {"rt": -1, "trial_type": "single-stim", "stimulus": "<p id=\"stim\">4</p>", "internal_node_id": "0.0-35.0-6.0", "time_elapsed": 385220, "key_press": -1, "trial_index": 50}, "uniqueid": "MTK2161:3A4TN5196LPZLWMOJMZ9XOLN1J4CHO", "dateTime": 1516760520656}, {"current_trial": 51, "trialdata": {"rt": -1, "trial_type": "single-stim", "stimulus": "<p id=\"stim\">3</p>", "internal_node_id": "0.0-35.0-7.0", "time_elapsed": 386222, "key_press": -1, "trial_index": 51}, "uniqueid": "MTK2161:3A4TN5196LPZLWMOJMZ9XOLN1J4CHO", "dateTime": 1516760521658}, {"current_trial": 52, "trialdata": {"rt": -1, "trial_type": "single-stim", "stimulus": "<p id=\"stim\">2</p>", "internal_node_id": "0.0-35.0-8.0", "time_elapsed": 387224, "key_press": -1, "trial_index": 52}, "uniqueid": "MTK2161:3A4TN5196LPZLWMOJMZ9XOLN1J4CHO", "dateTime": 1516760522660}, {"current_trial": 53, "trialdata": {"rt": -1, "trial_type": "single-stim", "stimulus": "<p id=\"stim\">1</p>", "internal_node_id": "0.0-35.0-9.0", "time_elapsed": 388225, "key_press": -1, "trial_index": 53}, "uniqueid": "MTK2161:3A4TN5196LPZLWMOJMZ9XOLN1J4CHO", "dateTime": 1516760523661}, {"current_trial": 54, "trialdata": {"rt": -1, "trial_type": "single-stim", "stimulus": "<p id=\"stim\">+</p>", "internal_node_id": "0.0-36.0-0.0", "time_elapsed": 389727, "key_press": -1, "type": "FIXATION", "trial_index": 54}, "uniqueid": "MTK2161:3A4TN5196LPZLWMOJMZ9XOLN1J4CHO", "dateTime": 1516760525162}, {"current_trial": 55, "trialdata": {"rt": -1000, "trial_type": "single-audio", "word": "dentist", "stimulus": "/static/audio/wordpool/DENTIST.wav", "conditions": [18, 1200, "a", 18000], "internal_node_id": "0.0-37.0", "trial": 1, "time_elapsed": 391918, "serialpos": 0, "key_press": -1, "wordID": 446, "type": "PRES_AUD", "trial_index": 55}, "uniqueid": "MTK2161:3A4TN5196LPZLWMOJMZ9XOLN1J4CHO", "dateTime": 1516760527353}, {"current_trial": 56, "trialdata": {"rt": -1000, "trial_type": "single-audio", "word": "apple", "stimulus": "/static/audio/wordpool/APPLE.wav", "conditions": [18, 1200, "a", 18000], "internal_node_id": "0.0-38.0", "trial": 1, "time_elapsed": 393952, "serialpos": 1, "key_press": -1, "wordID": 32, "type": "PRES_AUD", "trial_index": 56}, "uniqueid": "MTK2161:3A4TN5196LPZLWMOJMZ9XOLN1J4CHO", "dateTime": 1516760529387}, {"current_trial": 57, "trialdata": {"rt": -1000, "trial_type": "single-audio", "word": "relish", "stimulus": "/static/audio/wordpool/RELISH.wav", "conditions": [18, 1200, "a", 18000], "internal_node_id": "0.0-39.0", "trial": 1, "time_elapsed": 396278, "serialpos": 2, "key_press": -1, "wordID": 1182, "type": "PRES_AUD", "trial_index": 57}, "uniqueid": "MTK2161:3A4TN5196LPZLWMOJMZ9XOLN1J4CHO", "dateTime": 1516760531713}, {"current_trial": 58, "trialdata": {"rt": -1000, "trial_type": "single-audio", "word": "typist", "stimulus": "/static/audio/wordpool/TYPIST.wav", "conditions": [18, 1200, "a", 18000], "internal_node_id": "0.0-40.0", "trial": 1, "time_elapsed": 398471, "serialpos": 3, "key_press": -1, "wordID": 1531, "type": "PRES_AUD", "trial_index": 58}, "uniqueid": "MTK2161:3A4TN5196LPZLWMOJMZ9XOLN1J4CHO", "dateTime": 1516760533906}, {"current_trial": 59, "trialdata": {"rt": -1000, "trial_type": "single-audio", "word": "servant", "stimulus": "/static/audio/wordpool/SERVANT.wav", "conditions": [18, 1200, "a", 18000], "internal_node_id": "0.0-41.0", "trial": 1, "time_elapsed": 400688, "serialpos": 4, "key_press": -1, "wordID": 1270, "type": "PRES_AUD", "trial_index": 59}, "uniqueid": "MTK2161:3A4TN5196LPZLWMOJMZ9XOLN1J4CHO", "dateTime": 1516760536123}, {"current_trial": 60, "trialdata": {"rt": -1000, "trial_type": "single-audio", "word": "valve", "stimulus": "/static/audio/wordpool/VALVE.wav", "conditions": [18, 1200, "a", 18000], "internal_node_id": "0.0-42.0", "trial": 1, "time_elapsed": 402914, "serialpos": 5, "key_press": -1, "wordID": 1545, "type": "PRES_AUD", "trial_index": 60}, "uniqueid": "MTK2161:3A4TN5196LPZLWMOJMZ9XOLN1J4CHO", "dateTime": 1516760538350}, {"current_trial": 61, "trialdata": {"rt": -1000, "trial_type": "single-audio", "word": "seagull", "stimulus": "/static/audio/wordpool/SEAGULL.wav", "conditions": [18, 1200, "a", 18000], "internal_node_id": "0.0-43.0", "trial": 1, "time_elapsed": 404966, "serialpos": 6, "key_press": -1, "wordID": 1260, "type": "PRES_AUD", "trial_index": 61}, "uniqueid": "MTK2161:3A4TN5196LPZLWMOJMZ9XOLN1J4CHO", "dateTime": 1516760540401}, {"current_trial": 62, "trialdata": {"rt": -1000, "trial_type": "single-audio", "word": "cellar", "stimulus": "/static/audio/wordpool/CELLAR.wav", "conditions": [18, 1200, "a", 18000], "internal_node_id": "0.0-44.0", "trial": 1, "time_elapsed": 407044, "serialpos": 7, "key_press": -1, "wordID": 266, "type": "PRES_AUD", "trial_index": 62}, "uniqueid": "MTK2161:3A4TN5196LPZLWMOJMZ9XOLN1J4CHO", "dateTime": 1516760542479}, {"current_trial": 63, "trialdata": {"rt": -1000, "trial_type": "single-audio", "word": "antler", "stimulus": "/static/audio/wordpool/ANTLER.wav", "conditions": [18, 1200, "a", 18000], "internal_node_id": "0.0-45.0", "trial": 1, "time_elapsed": 409219, "serialpos": 8, "key_press": -1, "wordID": 28, "type": "PRES_AUD", "trial_index": 63}, "uniqueid": "MTK2161:3A4TN5196LPZLWMOJMZ9XOLN1J4CHO", "dateTime": 1516760544654}, {"current_trial": 64, "trialdata": {"rt": -1000, "trial_type": "single-audio", "word": "piano", "stimulus": "/static/audio/wordpool/PIANO.wav", "conditions": [18, 1200, "a", 18000], "internal_node_id": "0.0-46.0", "trial": 1, "time_elapsed": 411287, "serialpos": 9, "key_press": -1, "wordID": 1056, "type": "PRES_AUD", "trial_index": 64}, "uniqueid": "MTK2161:3A4TN5196LPZLWMOJMZ9XOLN1J4CHO", "dateTime": 1516760546722}, {"current_trial": 65, "trialdata": {"rt": -1000, "trial_type": "single-audio", "word": "marine", "stimulus": "/static/audio/wordpool/MARINE.wav", "conditions": [18, 1200, "a", 18000], "internal_node_id": "0.0-47.0", "trial": 1, "time_elapsed": 413677, "serialpos": 10, "key_press": -1, "wordID": 868, "type": "PRES_AUD", "trial_index": 65}, "uniqueid": "MTK2161:3A4TN5196LPZLWMOJMZ9XOLN1J4CHO", "dateTime": 1516760549112}, {"current_trial": 66, "trialdata": {"rt": -1000, "trial_type": "single-audio", "word": "omelet", "stimulus": "/static/audio/wordpool/OMELET.wav", "conditions": [18, 1200, "a", 18000], "internal_node_id": "0.0-48.0", "trial": 1, "time_elapsed": 415694, "serialpos": 11, "key_press": -1, "wordID": 975, "type": "PRES_AUD", "trial_index": 66}, "uniqueid": "MTK2161:3A4TN5196LPZLWMOJMZ9XOLN1J4CHO", "dateTime": 1516760551129}, {"current_trial": 67, "trialdata": {"rt": -1000, "trial_type": "single-audio", "word": "stomach", "stimulus": "/static/audio/wordpool/STOMACH.wav", "conditions": [18, 1200, "a", 18000], "internal_node_id": "0.0-49.0", "trial": 1, "time_elapsed": 417701, "serialpos": 12, "key_press": -1, "wordID": 1383, "type": "PRES_AUD", "trial_index": 67}, "uniqueid": "MTK2161:3A4TN5196LPZLWMOJMZ9XOLN1J4CHO", "dateTime": 1516760553136}, {"current_trial": 68, "trialdata": {"rt": -1000, "trial_type": "single-audio", "word": "student", "stimulus": "/static/audio/wordpool/STUDENT.wav", "conditions": [18, 1200, "a", 18000], "internal_node_id": "0.0-50.0", "trial": 1, "time_elapsed": 420064, "serialpos": 13, "key_press": -1, "wordID": 1394, "type": "PRES_AUD", "trial_index": 68}, "uniqueid": "MTK2161:3A4TN5196LPZLWMOJMZ9XOLN1J4CHO", "dateTime": 1516760555503}, {"current_trial": 69, "trialdata": {"rt": -1000, "trial_type": "single-audio", "word": "fungus", "stimulus": "/static/audio/wordpool/FUNGUS.wav", "conditions": [18, 1200, "a", 18000], "internal_node_id": "0.0-51.0", "trial": 1, "time_elapsed": 422319, "serialpos": 14, "key_press": -1, "wordID": 613, "type": "PRES_AUD", "trial_index": 69}, "uniqueid": "MTK2161:3A4TN5196LPZLWMOJMZ9XOLN1J4CHO", "dateTime": 1516760557754}, {"current_trial": 70, "trialdata": {"rt": -1000, "trial_type": "single-audio", "word": "scotch", "stimulus": "/static/audio/wordpool/SCOTCH.wav", "conditions": [18, 1200, "a", 18000], "internal_node_id": "0.0-52.0", "trial": 1, "time_elapsed": 424454, "serialpos": 15, "key_press": -1, "wordID": 1250, "type": "PRES_AUD", "trial_index": 70}, "uniqueid": "MTK2161:3A4TN5196LPZLWMOJMZ9XOLN1J4CHO", "dateTime": 1516760559889}, {"current_trial": 71, "trialdata": {"rt": -1000, "trial_type": "single-audio", "word": "receipt", "stimulus": "/static/audio/wordpool/RECEIPT.wav", "conditions": [18, 1200, "a", 18000], "internal_node_id": "0.0-53.0", "trial": 1, "time_elapsed": 426769, "serialpos": 16, "key_press": -1, "wordID": 1172, "type": "PRES_AUD", "trial_index": 71}, "uniqueid": "MTK2161:3A4TN5196LPZLWMOJMZ9XOLN1J4CHO", "dateTime": 1516760562204}, {"current_trial": 72, "trialdata": {"rt": -1000, "trial_type": "single-audio", "word": "suspect", "stimulus": "/static/audio/wordpool/SUSPECT.wav", "conditions": [18, 1200, "a", 18000], "internal_node_id": "0.0-54.0", "trial": 1, "time_elapsed": 428866, "serialpos": 17, "key_press": -1, "wordID": 1414, "type": "PRES_AUD", "trial_index": 72}, "uniqueid": "MTK2161:3A4TN5196LPZLWMOJMZ9XOLN1J4CHO", "dateTime": 1516760564301}, {"current_trial": 73, "trialdata": {"rt": -1, "trial_type": "single-stim", "stimulus": "", "internal_node_id": "0.0-55.0-0.0", "time_elapsed": 430238, "key_press": -1, "type": "PRE_RECALL_DELAY", "trial_index": 73}, "uniqueid": "MTK2161:3A4TN5196LPZLWMOJMZ9XOLN1J4CHO", "dateTime": 1516760565674}, {"current_trial": 74, "trialdata": {"rt": -1000, "trial_type": "single-audio", "stimulus": "/static/audio/400Hz.wav", "internal_node_id": "0.0-56.0", "time_elapsed": 430740, "key_press": -1, "type": "PRE_RECALL_ALERT", "trial_index": 74}, "uniqueid": "MTK2161:3A4TN5196LPZLWMOJMZ9XOLN1J4CHO", "dateTime": 1516760566175}, {"current_trial": 75, "trialdata": {"rt": [3558, 7272, 10881, 12375, 14779, 20983, 29799], "recwords": ["dentist", "typist", "scotch", "fungus", "receipt", "suspect", "apple"], "key_times": [1836, 2015, 2170, 2290, 2470, 2646, 2861, 3558, 4331, 4471, 4777, 4967, 5576, 5763, 7272, 9730, 9927, 10099, 10266, 10497, 10614, 10881, 11379, 11511, 11670, 11766, 11977, 12138, 12375, 13310, 13417, 13665, 13867, 14136, 14270, 14389, 14779, 19671, 19837, 19961, 20157, 20314, 20540, 20799, 20983, 28974, 29105, 29278, 29395, 29529, 29799], "trial_type": "free-recall", "conditions": [18, 1200, "a", 18000], "internal_node_id": "0.0-57.0-0.0", "key_presses": [68, 69, 78, 84, 73, 83, 84, 13, 84, 89, 80, 73, 83, 84, 13, 83, 67, 79, 84, 67, 72, 13, 70, 85, 78, 71, 85, 83, 13, 82, 69, 67, 69, 73, 80, 84, 13, 83, 85, 83, 80, 69, 67, 84, 13, 65, 80, 80, 76, 69, 13], "trial": 1, "time_elapsed": 490745, "type": "FREE_RECALL", "trial_index": 75}, "uniqueid": "MTK2161:3A4TN5196LPZLWMOJMZ9XOLN1J4CHO", "dateTime": 1516760626184}, {"current_trial": 76, "trialdata": {"rt": 2395, "trial_type": "text", "internal_node_id": "0.0-58.0", "time_elapsed": 495145, "key_press": 78, "type": "INSTRUCTIONS", "trial_index": 76}, "uniqueid": "MTK2161:3A4TN5196LPZLWMOJMZ9XOLN1J4CHO", "dateTime": 1516760630580}, {"current_trial": 77, "trialdata": {"rt": [3733, 7498, 10892, 12906, 16834, 20937, 23967], "trial_type": "math-distractor", "key_times": [3042, 3454, 3733, 6924, 7078, 7498, 10463, 10705, 10892, 12449, 12744, 12906, 15953, 16301, 16834, 20368, 20617, 20937, 23450, 23774, 23967], "responses": ["11", "20", "13", "15", "25", "20", "17"], "num2": [4, 4, 8, 6, 8, 6, 3, 6], "num3": [4, 7, 4, 5, 9, 7, 7, 6], "conditions": [24, 1600, "a", 24000], "internal_node_id": "0.0-59.0", "key_presses": [49, 49, 13, 50, 48, 13, 49, 51, 13, 49, 53, 13, 50, 53, 13, 50, 48, 13, 49, 55, 13], "trial": 2, "time_elapsed": 520149, "type": "DISTRACTOR", "trial_index": 77, "num1": [3, 9, 1, 4, 8, 7, 7, 4]}, "uniqueid": "MTK2161:3A4TN5196LPZLWMOJMZ9XOLN1J4CHO", "dateTime": 1516760655584}, {"current_trial": 78, "trialdata": {"rt": -1, "trial_type": "single-stim", "stimulus": "<p id=\"stim\">10</p>", "internal_node_id": "0.0-60.0-0.0", "time_elapsed": 523150, "key_press": -1, "trial_index": 78}, "uniqueid": "MTK2161:3A4TN5196LPZLWMOJMZ9XOLN1J4CHO", "dateTime": 1516760658586}, {"current_trial": 79, "trialdata": {"rt": -1, "trial_type": "single-stim", "stimulus": "<p id=\"stim\">9</p>", "internal_node_id": "0.0-60.0-1.0", "time_elapsed": 524152, "key_press": -1, "trial_index": 79}, "uniqueid": "MTK2161:3A4TN5196LPZLWMOJMZ9XOLN1J4CHO", "dateTime": 1516760659588}, {"current_trial": 80, "trialdata": {"rt": -1, "trial_type": "single-stim", "stimulus": "<p id=\"stim\">8</p>", "internal_node_id": "0.0-60.0-2.0", "time_elapsed": 525154, "key_press": -1, "trial_index": 80}, "uniqueid": "MTK2161:3A4TN5196LPZLWMOJMZ9XOLN1J4CHO", "dateTime": 1516760660589}, {"current_trial": 81, "trialdata": {"rt": -1, "trial_type": "single-stim", "stimulus": "<p id=\"stim\">7</p>", "internal_node_id": "0.0-60.0-3.0", "time_elapsed": 526155, "key_press": -1, "trial_index": 81}, "uniqueid": "MTK2161:3A4TN5196LPZLWMOJMZ9XOLN1J4CHO", "dateTime": 1516760661590}, {"current_trial": 82, "trialdata": {"rt": -1, "trial_type": "single-stim", "stimulus": "<p id=\"stim\">6</p>", "internal_node_id": "0.0-60.0-4.0", "time_elapsed": 527156, "key_press": -1, "trial_index": 82}, "uniqueid": "MTK2161:3A4TN5196LPZLWMOJMZ9XOLN1J4CHO", "dateTime": 1516760662591}, {"current_trial": 83, "trialdata": {"rt": -1, "trial_type": "single-stim", "stimulus": "<p id=\"stim\">5</p>", "internal_node_id": "0.0-60.0-5.0", "time_elapsed": 528157, "key_press": -1, "trial_index": 83}, "uniqueid": "MTK2161:3A4TN5196LPZLWMOJMZ9XOLN1J4CHO", "dateTime": 1516760663593}, {"current_trial": 84, "trialdata": {"rt": -1, "trial_type": "single-stim", "stimulus": "<p id=\"stim\">4</p>", "internal_node_id": "0.0-60.0-6.0", "time_elapsed": 529159, "key_press": -1, "trial_index": 84}, "uniqueid": "MTK2161:3A4TN5196LPZLWMOJMZ9XOLN1J4CHO", "dateTime": 1516760664595}, {"current_trial": 85, "trialdata": {"rt": -1, "trial_type": "single-stim", "stimulus": "<p id=\"stim\">3</p>", "internal_node_id": "0.0-60.0-7.0", "time_elapsed": 530161, "key_press": -1, "trial_index": 85}, "uniqueid": "MTK2161:3A4TN5196LPZLWMOJMZ9XOLN1J4CHO", "dateTime": 1516760665596}, {"current_trial": 86, "trialdata": {"rt": -1, "trial_type": "single-stim", "stimulus": "<p id=\"stim\">2</p>", "internal_node_id": "0.0-60.0-8.0", "time_elapsed": 531162, "key_press": -1, "trial_index": 86}, "uniqueid": "MTK2161:3A4TN5196LPZLWMOJMZ9XOLN1J4CHO", "dateTime": 1516760666597}, {"current_trial": 87, "trialdata": {"rt": -1, "trial_type": "single-stim", "stimulus": "<p id=\"stim\">1</p>", "internal_node_id": "0.0-60.0-9.0", "time_elapsed": 532165, "key_press": -1, "trial_index": 87}, "uniqueid": "MTK2161:3A4TN5196LPZLWMOJMZ9XOLN1J4CHO", "dateTime": 1516760667600}, {"current_trial": 88, "trialdata": {"rt": -1, "trial_type": "single-stim", "stimulus": "<p id=\"stim\">+</p>", "internal_node_id": "0.0-61.0-0.0", "time_elapsed": 533666, "key_press": -1, "type": "FIXATION", "trial_index": 88}, "uniqueid": "MTK2161:3A4TN5196LPZLWMOJMZ9XOLN1J4CHO", "dateTime": 1516760669101}, {"current_trial": 89, "trialdata": {"rt": -1000, "trial_type": "single-audio", "word": "match", "stimulus": "/static/audio/wordpool/MATCH.wav", "conditions": [24, 1600, "a", 24000], "internal_node_id": "0.0-62.0", "trial": 2, "time_elapsed": 536367, "serialpos": 0, "key_press": -1, "wordID": 877, "type": "PRES_AUD", "trial_index": 89}, "uniqueid": "MTK2161:3A4TN5196LPZLWMOJMZ9XOLN1J4CHO", "dateTime": 1516760671802}, {"current_trial": 90, "trialdata": {"rt": -1000, "trial_type": "single-audio", "word": "poison", "stimulus": "/static/audio/wordpool/POISON.wav", "conditions": [24, 1600, "a", 24000], "internal_node_id": "0.0-63.0", "trial": 2, "time_elapsed": 538984, "serialpos": 1, "key_press": -1, "wordID": 1095, "type": "PRES_AUD", "trial_index": 90}, "uniqueid": "MTK2161:3A4TN5196LPZLWMOJMZ9XOLN1J4CHO", "dateTime": 1516760674419}, {"current_trial": 91, "trialdata": {"rt": -1000, "trial_type": "single-audio", "word": "dress", "stimulus": "/static/audio/wordpool/DRESS.wav", "conditions": [24, 1600, "a", 24000], "internal_node_id": "0.0-64.0", "trial": 2, "time_elapsed": 541765, "serialpos": 2, "key_press": -1, "wordID": 494, "type": "PRES_AUD", "trial_index": 91}, "uniqueid": "MTK2161:3A4TN5196LPZLWMOJMZ9XOLN1J4CHO", "dateTime": 1516760677200}, {"current_trial": 92, "trialdata": {"rt": -1000, "trial_type": "single-audio", "word": "judge", "stimulus": "/static/audio/wordpool/JUDGE.wav", "conditions": [24, 1600, "a", 24000], "internal_node_id": "0.0-65.0", "trial": 2, "time_elapsed": 544392, "serialpos": 3, "key_press": -1, "wordID": 760, "type": "PRES_AUD", "trial_index": 92}, "uniqueid": "MTK2161:3A4TN5196LPZLWMOJMZ9XOLN1J4CHO", "dateTime": 1516760679827}, {"current_trial": 93, "trialdata": {"rt": -1000, "trial_type": "single-audio", "word": "shelf", "stimulus": "/static/audio/wordpool/SHELF.wav", "conditions": [24, 1600, "a", 24000], "internal_node_id": "0.0-66.0", "trial": 2, "time_elapsed": 546824, "serialpos": 4, "key_press": -1, "wordID": 1279, "type": "PRES_AUD", "trial_index": 93}, "uniqueid": "MTK2161:3A4TN5196LPZLWMOJMZ9XOLN1J4CHO", "dateTime": 1516760682259}, {"current_trial": 94, "trialdata": {"rt": -1000, "trial_type": "single-audio", "word": "turtle", "stimulus": "/static/audio/wordpool/TURTLE.wav", "conditions": [24, 1600, "a", 24000], "internal_node_id": "0.0-67.0", "trial": 2, "time_elapsed": 549484, "serialpos": 5, "key_press": -1, "wordID": 1521, "type": "PRES_AUD", "trial_index": 94}, "uniqueid": "MTK2161:3A4TN5196LPZLWMOJMZ9XOLN1J4CHO", "dateTime": 1516760684919}, {"current_trial": 95, "trialdata": {"rt": -1000, "trial_type": "single-audio", "word": "twister", "stimulus": "/static/audio/wordpool/TWISTER.wav", "conditions": [24, 1600, "a", 24000], "internal_node_id": "0.0-68.0", "trial": 2, "time_elapsed": 551959, "serialpos": 6, "key_press": -1, "wordID": 1529, "type": "PRES_AUD", "trial_index": 95}, "uniqueid": "MTK2161:3A4TN5196LPZLWMOJMZ9XOLN1J4CHO", "dateTime": 1516760687394}, {"current_trial": 96, "trialdata": {"rt": -1000, "trial_type": "single-audio", "word": "seal", "stimulus": "/static/audio/wordpool/SEAL.wav", "conditions": [24, 1600, "a", 24000], "internal_node_id": "0.0-69.0", "trial": 2, "time_elapsed": 554721, "serialpos": 7, "key_press": -1, "wordID": 1261, "type": "PRES_AUD", "trial_index": 96}, "uniqueid": "MTK2161:3A4TN5196LPZLWMOJMZ9XOLN1J4CHO", "dateTime": 1516760690156}, {"current_trial": 97, "trialdata": {"rt": -1000, "trial_type": "single-audio", "word": "lagoon", "stimulus": "/static/audio/wordpool/LAGOON.wav", "conditions": [24, 1600, "a", 24000], "internal_node_id": "0.0-70.0", "trial": 2, "time_elapsed": 557389, "serialpos": 8, "key_press": -1, "wordID": 794, "type": "PRES_AUD", "trial_index": 97}, "uniqueid": "MTK2161:3A4TN5196LPZLWMOJMZ9XOLN1J4CHO", "dateTime": 1516760692824}, {"current_trial": 98, "trialdata": {"rt": -1000, "trial_type": "single-audio", "word": "police", "stimulus": "/static/audio/wordpool/POLICE.wav", "conditions": [24, 1600, "a", 24000], "internal_node_id": "0.0-71.0", "trial": 2, "time_elapsed": 559902, "serialpos": 9, "key_press": -1, "wordID": 1097, "type": "PRES_AUD", "trial_index": 98}, "uniqueid": "MTK2161:3A4TN5196LPZLWMOJMZ9XOLN1J4CHO", "dateTime": 1516760695337}, {"current_trial": 99, "trialdata": {"rt": -1000, "trial_type": "single-audio", "word": "patrol", "stimulus": "/static/audio/wordpool/PATROL.wav", "conditions": [24, 1600, "a", 24000], "internal_node_id": "0.0-72.0", "trial": 2, "time_elapsed": 562694, "serialpos": 10, "key_press": -1, "wordID": 1026, "type": "PRES_AUD", "trial_index": 99}, "uniqueid": "MTK2161:3A4TN5196LPZLWMOJMZ9XOLN1J4CHO", "dateTime": 1516760698129}, {"current_trial": 100, "trialdata": {"rt": -1000, "trial_type": "single-audio", "word": "denim", "stimulus": "/static/audio/wordpool/DENIM.wav", "conditions": [24, 1600, "a", 24000], "internal_node_id": "0.0-73.0", "trial": 2, "time_elapsed": 565269, "serialpos": 11, "key_press": -1, "wordID": 445, "type": "PRES_AUD", "trial_index": 100}, "uniqueid": "MTK2161:3A4TN5196LPZLWMOJMZ9XOLN1J4CHO", "dateTime": 1516760700704}, {"current_trial": 101, "trialdata": {"rt": -1000, "trial_type": "single-audio", "word": "liver", "stimulus": "/static/audio/wordpool/LIVER.wav", "conditions": [24, 1600, "a", 24000], "internal_node_id": "0.0-74.0", "trial": 2, "time_elapsed": 568063, "serialpos": 12, "key_press": -1, "wordID": 832, "type": "PRES_AUD", "trial_index": 101}, "uniqueid": "MTK2161:3A4TN5196LPZLWMOJMZ9XOLN1J4CHO", "dateTime": 1516760703498}, {"current_trial": 102, "trialdata": {"rt": -1000, "trial_type": "single-audio", "word": "scalpel", "stimulus": "/static/audio/wordpool/SCALPEL.wav", "conditions": [24, 1600, "a", 24000], "internal_node_id": "0.0-75.0", "trial": 2, "time_elapsed": 570502, "serialpos": 13, "key_press": -1, "wordID": 1242, "type": "PRES_AUD", "trial_index": 102}, "uniqueid": "MTK2161:3A4TN5196LPZLWMOJMZ9XOLN1J4CHO", "dateTime": 1516760705938}, {"current_trial": 103, "trialdata": {"rt": -1000, "trial_type": "single-audio", "word": "clothes", "stimulus": "/static/audio/wordpool/CLOTHES.wav", "conditions": [24, 1600, "a", 24000], "internal_node_id": "0.0-76.0", "trial": 2, "time_elapsed": 573266, "serialpos": 14, "key_press": -1, "wordID": 326, "type": "PRES_AUD", "trial_index": 103}, "uniqueid": "MTK2161:3A4TN5196LPZLWMOJMZ9XOLN1J4CHO", "dateTime": 1516760708702}, {"current_trial": 104, "trialdata": {"rt": -1000, "trial_type": "single-audio", "word": "mop", "stimulus": "/static/audio/wordpool/MOP.wav", "conditions": [24, 1600, "a", 24000], "internal_node_id": "0.0-77.0", "trial": 2, "time_elapsed": 575815, "serialpos": 15, "key_press": -1, "wordID": 915, "type": "PRES_AUD", "trial_index": 104}, "uniqueid": "MTK2161:3A4TN5196LPZLWMOJMZ9XOLN1J4CHO", "dateTime": 1516760711250}, {"current_trial": 105, "trialdata": {"rt": -1000, "trial_type": "single-audio", "word": "iceberg", "stimulus": "/static/audio/wordpool/ICEBERG.wav", "conditions": [24, 1600, "a", 24000], "internal_node_id": "0.0-78.0", "trial": 2, "time_elapsed": 578461, "serialpos": 16, "key_press": -1, "wordID": 730, "type": "PRES_AUD", "trial_index": 105}, "uniqueid": "MTK2161:3A4TN5196LPZLWMOJMZ9XOLN1J4CHO", "dateTime": 1516760713896}, {"current_trial": 106, "trialdata": {"rt": -1000, "trial_type": "single-audio", "word": "sponge", "stimulus": "/static/audio/wordpool/SPONGE.wav", "conditions": [24, 1600, "a", 24000], "internal_node_id": "0.0-79.0", "trial": 2, "time_elapsed": 581207, "serialpos": 17, "key_press": -1, "wordID": 1354, "type": "PRES_AUD", "trial_index": 106}, "uniqueid": "MTK2161:3A4TN5196LPZLWMOJMZ9XOLN1J4CHO", "dateTime": 1516760716642}, {"current_trial": 107, "trialdata": {"rt": -1000, "trial_type": "single-audio", "word": "cross", "stimulus": "/static/audio/wordpool/CROSS.wav", "conditions": [24, 1600, "a", 24000], "internal_node_id": "0.0-80.0", "trial": 2, "time_elapsed": 583986, "serialpos": 18, "key_press": -1, "wordID": 412, "type": "PRES_AUD", "trial_index": 107}, "uniqueid": "MTK2161:3A4TN5196LPZLWMOJMZ9XOLN1J4CHO", "dateTime": 1516760719421}, {"current_trial": 108, "trialdata": {"rt": -1000, "trial_type": "single-audio", "word": "market", "stimulus": "/static/audio/wordpool/MARKET.wav", "conditions": [24, 1600, "a", 24000], "internal_node_id": "0.0-81.0", "trial": 2, "time_elapsed": 586506, "serialpos": 19, "key_press": -1, "wordID": 870, "type": "PRES_AUD", "trial_index": 108}, "uniqueid": "MTK2161:3A4TN5196LPZLWMOJMZ9XOLN1J4CHO", "dateTime": 1516760721941}, {"current_trial": 109, "trialdata": {"rt": -1000, "trial_type": "single-audio", "word": "custard", "stimulus": "/static/audio/wordpool/CUSTARD.wav", "conditions": [24, 1600, "a", 24000], "internal_node_id": "0.0-82.0", "trial": 2, "time_elapsed": 588938, "serialpos": 20, "key_press": -1, "wordID": 428, "type": "PRES_AUD", "trial_index": 109}, "uniqueid": "MTK2161:3A4TN5196LPZLWMOJMZ9XOLN1J4CHO", "dateTime": 1516760724373}, {"current_trial": 110, "trialdata": {"rt": -1000, "trial_type": "single-audio", "word": "shortcake", "stimulus": "/static/audio/wordpool/SHORTCAKE.wav", "conditions": [24, 1600, "a", 24000], "internal_node_id": "0.0-83.0", "trial": 2, "time_elapsed": 591379, "serialpos": 21, "key_press": -1, "wordID": 1291, "type": "PRES_AUD", "trial_index": 110}, "uniqueid": "MTK2161:3A4TN5196LPZLWMOJMZ9XOLN1J4CHO", "dateTime": 1516760726814}, {"current_trial": 111, "trialdata": {"rt": -1000, "trial_type": "single-audio", "word": "scissors", "stimulus": "/static/audio/wordpool/SCISSORS.wav", "conditions": [24, 1600, "a", 24000], "internal_node_id": "0.0-84.0", "trial": 2, "time_elapsed": 594099, "serialpos": 22, "key_press": -1, "wordID": 1249, "type": "PRES_AUD", "trial_index": 111}, "uniqueid": "MTK2161:3A4TN5196LPZLWMOJMZ9XOLN1J4CHO", "dateTime": 1516760729534}, {"current_trial": 112, "trialdata": {"rt": -1000, "trial_type": "single-audio", "word": "country", "stimulus": "/static/audio/wordpool/COUNTRY.wav", "conditions": [24, 1600, "a", 24000], "internal_node_id": "0.0-85.0", "trial": 2, "time_elapsed": 596803, "serialpos": 23, "key_press": -1, "wordID": 387, "type": "PRES_AUD", "trial_index": 112}, "uniqueid": "MTK2161:3A4TN5196LPZLWMOJMZ9XOLN1J4CHO", "dateTime": 1516760732238}, {"current_trial": 113, "trialdata": {"rt": -1, "trial_type": "single-stim", "stimulus": "", "internal_node_id": "0.0-86.0-0.0", "time_elapsed": 598050, "key_press": -1, "type": "PRE_RECALL_DELAY", "trial_index": 113}, "uniqueid": "MTK2161:3A4TN5196LPZLWMOJMZ9XOLN1J4CHO", "dateTime": 1516760733485}, {"current_trial": 114, "trialdata": {"rt": -1000, "trial_type": "single-audio", "stimulus": "/static/audio/400Hz.wav", "internal_node_id": "0.0-87.0", "time_elapsed": 598551, "key_press": -1, "type": "PRE_RECALL_ALERT", "trial_index": 114}, "uniqueid": "MTK2161:3A4TN5196LPZLWMOJMZ9XOLN1J4CHO", "dateTime": 1516760733986}, {"current_trial": 115, "trialdata": {"rt": [2929, 5932, 7883, 28146, 32408, 35513, 40830, 47063, 50878], "recwords": ["poison", "police", "custard", "patrol", "denim", "clothes", "shortcake", "liver", "scalpal"], "key_times": [1192, 1434, 1693, 1902, 2113, 2253, 2929, 4472, 4690, 5192, 5422, 5539, 5725, 5932, 6726, 6859, 6987, 7157, 7360, 7454, 7678, 7883, 8530, 8642, 8954, 9223, 9388, 9907, 10871, 11471, 13064, 14001, 28146, 31161, 31369, 31706, 31853, 32080, 32408, 32842, 32950, 33182, 33203, 34229, 34357, 34492, 35513, 38963, 39097, 39213, 39300, 39491, 39735, 39837, 40071, 40194, 40830, 45798, 46125, 46263, 46558, 46633, 47063, 47730, 48274, 48707, 49144, 49464, 49716, 49852, 50878], "trial_type": "free-recall", "conditions": [24, 1600, "a", 24000], "internal_node_id": "0.0-88.0-0.0", "key_presses": [80, 79, 73, 83, 79, 78, 13, 80, 79, 76, 73, 67, 69, 13, 67, 85, 83, 84, 65, 82, 68, 13, 80, 65, 84, 82, 79, 76, 69, 8, 76, 8, 13, 68, 69, 78, 73, 77, 13, 67, 76, 79, 84, 72, 69, 83, 13, 83, 72, 79, 82, 84, 67, 65, 75, 69, 13, 76, 73, 86, 69, 82, 13, 83, 67, 65, 76, 80, 65, 76, 13], "trial": 2, "time_elapsed": 658557, "type": "FREE_RECALL", "trial_index": 115}, "uniqueid": "MTK2161:3A4TN5196LPZLWMOJMZ9XOLN1J4CHO", "dateTime": 1516760793997}, {"current_trial": 116, "trialdata": {"rt": 3429, "trial_type": "text", "internal_node_id": "0.0-89.0", "time_elapsed": 663992, "key_press": 75, "type": "INSTRUCTIONS", "trial_index": 116}, "uniqueid": "MTK2161:3A4TN5196LPZLWMOJMZ9XOLN1J4CHO", "dateTime": 1516760799427}, {"current_trial": 117, "trialdata": {"rt": [3086, 6022, 8248, 10405], "trial_type": "math-distractor", "key_times": [2658, 2794, 3086, 5446, 5768, 6022, 7750, 8065, 8248, 9960, 10119, 10405], "responses": ["17", "15", "14", "15"], "num2": [7, 9, 8, 4, 4], "num3": [5, 2, 5, 6, 9], "conditions": [12, 1600, "a", 12000], "internal_node_id": "0.0-90.0", "key_presses": [49, 55, 13, 49, 53, 13, 49, 52, 13, 49, 53, 13], "trial": 3, "time_elapsed": 677996, "type": "DISTRACTOR", "trial_index": 117, "num1": [5, 4, 1, 5, 4]}, "uniqueid": "MTK2161:3A4TN5196LPZLWMOJMZ9XOLN1J4CHO", "dateTime": 1516760813431}, {"current_trial": 118, "trialdata": {"rt": -1, "trial_type": "single-stim", "stimulus": "<p id=\"stim\">10</p>", "internal_node_id": "0.0-91.0-0.0", "time_elapsed": 680996, "key_press": -1, "trial_index": 118}, "uniqueid": "MTK2161:3A4TN5196LPZLWMOJMZ9XOLN1J4CHO", "dateTime": 1516760816431}, {"current_trial": 119, "trialdata": {"rt": -1, "trial_type": "single-stim", "stimulus": "<p id=\"stim\">9</p>", "internal_node_id": "0.0-91.0-1.0", "time_elapsed": 681998, "key_press": -1, "trial_index": 119}, "uniqueid": "MTK2161:3A4TN5196LPZLWMOJMZ9XOLN1J4CHO", "dateTime": 1516760817434}, {"current_trial": 120, "trialdata": {"rt": -1, "trial_type": "single-stim", "stimulus": "<p id=\"stim\">8</p>", "internal_node_id": "0.0-91.0-2.0", "time_elapsed": 683000, "key_press": -1, "trial_index": 120}, "uniqueid": "MTK2161:3A4TN5196LPZLWMOJMZ9XOLN1J4CHO", "dateTime": 1516760818436}, {"current_trial": 121, "trialdata": {"rt": -1, "trial_type": "single-stim", "stimulus": "<p id=\"stim\">7</p>", "internal_node_id": "0.0-91.0-3.0", "time_elapsed": 684001, "key_press": -1, "trial_index": 121}, "uniqueid": "MTK2161:3A4TN5196LPZLWMOJMZ9XOLN1J4CHO", "dateTime": 1516760819437}, {"current_trial": 122, "trialdata": {"rt": -1, "trial_type": "single-stim", "stimulus": "<p id=\"stim\">6</p>", "internal_node_id": "0.0-91.0-4.0", "time_elapsed": 685003, "key_press": -1, "trial_index": 122}, "uniqueid": "MTK2161:3A4TN5196LPZLWMOJMZ9XOLN1J4CHO", "dateTime": 1516760820438}, {"current_trial": 123, "trialdata": {"rt": -1, "trial_type": "single-stim", "stimulus": "<p id=\"stim\">5</p>", "internal_node_id": "0.0-91.0-5.0", "time_elapsed": 686012, "key_press": -1, "trial_index": 123}, "uniqueid": "MTK2161:3A4TN5196LPZLWMOJMZ9XOLN1J4CHO", "dateTime": 1516760821448}, {"current_trial": 124, "trialdata": {"rt": -1, "trial_type": "single-stim", "stimulus": "<p id=\"stim\">4</p>", "internal_node_id": "0.0-91.0-6.0", "time_elapsed": 687014, "key_press": -1, "trial_index": 124}, "uniqueid": "MTK2161:3A4TN5196LPZLWMOJMZ9XOLN1J4CHO", "dateTime": 1516760822450}, {"current_trial": 125, "trialdata": {"rt": -1, "trial_type": "single-stim", "stimulus": "<p id=\"stim\">3</p>", "internal_node_id": "0.0-91.0-7.0", "time_elapsed": 688015, "key_press": -1, "trial_index": 125}, "uniqueid": "MTK2161:3A4TN5196LPZLWMOJMZ9XOLN1J4CHO", "dateTime": 1516760823451}, {"current_trial": 126, "trialdata": {"rt": -1, "trial_type": "single-stim", "stimulus": "<p id=\"stim\">2</p>", "internal_node_id": "0.0-91.0-8.0", "time_elapsed": 689017, "key_press": -1, "trial_index": 126}, "uniqueid": "MTK2161:3A4TN5196LPZLWMOJMZ9XOLN1J4CHO", "dateTime": 1516760824453}, {"current_trial": 127, "trialdata": {"rt": -1, "trial_type": "single-stim", "stimulus": "<p id=\"stim\">1</p>", "internal_node_id": "0.0-91.0-9.0", "time_elapsed": 690018, "key_press": -1, "trial_index": 127}, "uniqueid": "MTK2161:3A4TN5196LPZLWMOJMZ9XOLN1J4CHO", "dateTime": 1516760825453}, {"current_trial": 128, "trialdata": {"rt": -1, "trial_type": "single-stim", "stimulus": "<p id=\"stim\">+</p>", "internal_node_id": "0.0-92.0-0.0", "time_elapsed": 691519, "key_press": -1, "type": "FIXATION", "trial_index": 128}, "uniqueid": "MTK2161:3A4TN5196LPZLWMOJMZ9XOLN1J4CHO", "dateTime": 1516760826955}, {"current_trial": 129, "trialdata": {"rt": -1000, "trial_type": "single-audio", "word": "gallon", "stimulus": "/static/audio/wordpool/GALLON.wav", "conditions": [12, 1600, "a", 12000], "internal_node_id": "0.0-93.0", "trial": 3, "time_elapsed": 694163, "serialpos": 0, "key_press": -1, "wordID": 617, "type": "PRES_AUD", "trial_index": 129}, "uniqueid": "MTK2161:3A4TN5196LPZLWMOJMZ9XOLN1J4CHO", "dateTime": 1516760829598}, {"current_trial": 130, "trialdata": {"rt": -1000, "trial_type": "single-audio", "word": "doughnut", "stimulus": "/static/audio/wordpool/DOUGHNUT.wav", "conditions": [12, 1600, "a", 12000], "internal_node_id": "0.0-94.0", "trial": 3, "time_elapsed": 696945, "serialpos": 1, "key_press": -1, "wordID": 489, "type": "PRES_AUD", "trial_index": 130}, "uniqueid": "MTK2161:3A4TN5196LPZLWMOJMZ9XOLN1J4CHO", "dateTime": 1516760832381}, {"current_trial": 131, "trialdata": {"rt": -1000, "trial_type": "single-audio", "word": "friend", "stimulus": "/static/audio/wordpool/FRIEND.wav", "conditions": [12, 1600, "a", 12000], "internal_node_id": "0.0-95.0", "trial": 3, "time_elapsed": 699702, "serialpos": 2, "key_press": -1, "wordID": 605, "type": "PRES_AUD", "trial_index": 131}, "uniqueid": "MTK2161:3A4TN5196LPZLWMOJMZ9XOLN1J4CHO", "dateTime": 1516760835137}, {"current_trial": 132, "trialdata": {"rt": -1000, "trial_type": "single-audio", "word": "shoulder", "stimulus": "/static/audio/wordpool/SHOULDER.wav", "conditions": [12, 1600, "a", 12000], "internal_node_id": "0.0-96.0", "trial": 3, "time_elapsed": 702267, "serialpos": 3, "key_press": -1, "wordID": 1293, "type": "PRES_AUD", "trial_index": 132}, "uniqueid": "MTK2161:3A4TN5196LPZLWMOJMZ9XOLN1J4CHO", "dateTime": 1516760837702}, {"current_trial": 133, "trialdata": {"rt": -1000, "trial_type": "single-audio", "word": "fruit", "stimulus": "/static/audio/wordpool/FRUIT.wav", "conditions": [12, 1600, "a", 12000], "internal_node_id": "0.0-97.0", "trial": 3, "time_elapsed": 704669, "serialpos": 4, "key_press": -1, "wordID": 609, "type": "PRES_AUD", "trial_index": 133}, "uniqueid": "MTK2161:3A4TN5196LPZLWMOJMZ9XOLN1J4CHO", "dateTime": 1516760840104}, {"current_trial": 134, "trialdata": {"rt": -1000, "trial_type": "single-audio", "word": "lettuce", "stimulus": "/static/audio/wordpool/LETTUCE.wav", "conditions": [12, 1600, "a", 12000], "internal_node_id": "0.0-98.0", "trial": 3, "time_elapsed": 707445, "serialpos": 5, "key_press": -1, "wordID": 813, "type": "PRES_AUD", "trial_index": 134}, "uniqueid": "MTK2161:3A4TN5196LPZLWMOJMZ9XOLN1J4CHO", "dateTime": 1516760842880}, {"current_trial": 135, "trialdata": {"rt": -1000, "trial_type": "single-audio", "word": "ankle", "stimulus": "/static/audio/wordpool/ANKLE.wav", "conditions": [12, 1600, "a", 12000], "internal_node_id": "0.0-99.0", "trial": 3, "time_elapsed": 710165, "serialpos": 6, "key_press": -1, "wordID": 23, "type": "PRES_AUD", "trial_index": 135}, "uniqueid": "MTK2161:3A4TN5196LPZLWMOJMZ9XOLN1J4CHO", "dateTime": 1516760845600}, {"current_trial": 136, "trialdata": {"rt": -1000, "trial_type": "single-audio", "word": "crayon", "stimulus": "/static/audio/wordpool/CRAYON.wav", "conditions": [12, 1600, "a", 12000], "internal_node_id": "0.0-100.0", "trial": 3, "time_elapsed": 712777, "serialpos": 7, "key_press": -1, "wordID": 400, "type": "PRES_AUD", "trial_index": 136}, "uniqueid": "MTK2161:3A4TN5196LPZLWMOJMZ9XOLN1J4CHO", "dateTime": 1516760848212}, {"current_trial": 137, "trialdata": {"rt": -1000, "trial_type": "single-audio", "word": "padding", "stimulus": "/static/audio/wordpool/PADDING.wav", "conditions": [12, 1600, "a", 12000], "internal_node_id": "0.0-101.0", "trial": 3, "time_elapsed": 715516, "serialpos": 8, "key_press": -1, "wordID": 998, "type": "PRES_AUD", "trial_index": 137}, "uniqueid": "MTK2161:3A4TN5196LPZLWMOJMZ9XOLN1J4CHO", "dateTime": 1516760850951}, {"current_trial": 138, "trialdata": {"rt": -1000, "trial_type": "single-audio", "word": "gangster", "stimulus": "/static/audio/wordpool/GANGSTER.wav", "conditions": [12, 1600, "a", 12000], "internal_node_id": "0.0-102.0", "trial": 3, "time_elapsed": 718308, "serialpos": 9, "key_press": -1, "wordID": 619, "type": "PRES_AUD", "trial_index": 138}, "uniqueid": "MTK2161:3A4TN5196LPZLWMOJMZ9XOLN1J4CHO", "dateTime": 1516760853743}, {"current_trial": 139, "trialdata": {"rt": -1000, "trial_type": "single-audio", "word": "guitar", "stimulus": "/static/audio/wordpool/GUITAR.wav", "conditions": [12, 1600, "a", 12000], "internal_node_id": "0.0-103.0", "trial": 3, "time_elapsed": 720979, "serialpos": 10, "key_press": -1, "wordID": 669, "type": "PRES_AUD", "trial_index": 139}, "uniqueid": "MTK2161:3A4TN5196LPZLWMOJMZ9XOLN1J4CHO", "dateTime": 1516760856414}, {"current_trial": 140, "trialdata": {"rt": -1000, "trial_type": "single-audio", "word": "japan", "stimulus": "/static/audio/wordpool/JAPAN.wav", "conditions": [12, 1600, "a", 12000], "internal_node_id": "0.0-104.0", "trial": 3, "time_elapsed": 723464, "serialpos": 11, "key_press": -1, "wordID": 748, "type": "PRES_AUD", "trial_index": 140}, "uniqueid": "MTK2161:3A4TN5196LPZLWMOJMZ9XOLN1J4CHO", "dateTime": 1516760858899}, {"current_trial": 141, "trialdata": {"rt": -1, "trial_type": "single-stim", "stimulus": "", "internal_node_id": "0.0-105.0-0.0", "time_elapsed": 724852, "key_press": -1, "type": "PRE_RECALL_DELAY", "trial_index": 141}, "uniqueid": "MTK2161:3A4TN5196LPZLWMOJMZ9XOLN1J4CHO", "dateTime": 1516760860288}, {"current_trial": 142, "trialdata": {"rt": -1000, "trial_type": "single-audio", "stimulus": "/static/audio/400Hz.wav", "internal_node_id": "0.0-106.0", "time_elapsed": 725354, "key_press": -1, "type": "PRE_RECALL_ALERT", "trial_index": 142}, "uniqueid": "MTK2161:3A4TN5196LPZLWMOJMZ9XOLN1J4CHO", "dateTime": 1516760860789}, {"current_trial": 143, "trialdata": {"rt": [4137, 6065, 7311, 8820, 11724, 13471], "recwords": ["donut", "friend", "fruit", "shoulder", "gallon", "japan"], "key_times": [2868, 3003, 3283, 3500, 3673, 4137, 4743, 4951, 5093, 5200, 5354, 5465, 6065, 6462, 6679, 6829, 6953, 7101, 7311, 7481, 7683, 7887, 7986, 8159, 8257, 8479, 8545, 8820, 9680, 9794, 9869, 10017, 10207, 10654, 11062, 11219, 11724, 12349, 12485, 12610, 12751, 12927, 13471], "trial_type": "free-recall", "conditions": [12, 1600, "a", 12000], "internal_node_id": "0.0-107.0-0.0", "key_presses": [68, 79, 78, 85, 84, 13, 70, 82, 73, 69, 78, 68, 13, 70, 82, 85, 73, 84, 13, 83, 72, 79, 85, 76, 68, 69, 82, 13, 71, 65, 76, 76, 76, 8, 79, 78, 13, 74, 65, 80, 65, 78, 13], "trial": 3, "time_elapsed": 785357, "type": "FREE_RECALL", "trial_index": 143}, "uniqueid": "MTK2161:3A4TN5196LPZLWMOJMZ9XOLN1J4CHO", "dateTime": 1516760920797}, {"current_trial": 144, "trialdata": {"rt": 1193, "trial_type": "text", "internal_node_id": "0.0-108.0", "time_elapsed": 788556, "key_press": 74, "type": "INSTRUCTIONS", "trial_index": 144}, "uniqueid": "MTK2161:3A4TN5196LPZLWMOJMZ9XOLN1J4CHO", "dateTime": 1516760923991}, {"current_trial": 145, "trialdata": {"rt": [2430, 5286, 7072], "trial_type": "math-distractor", "key_times": [1989, 2215, 2430, 4932, 5099, 5286, 6790, 6951, 7072], "responses": ["14", "15", "11"], "num2": [4, 2, 1, 8], "num3": [5, 7, 8, 7], "conditions": [24, 1600, "a", 12000], "internal_node_id": "0.0-109.0", "key_presses": [49, 52, 13, 49, 53, 13, 49, 49, 13], "trial": 4, "time_elapsed": 802559, "type": "DISTRACTOR", "trial_index": 145, "num1": [5, 6, 2, 4]}, "uniqueid": "MTK2161:3A4TN5196LPZLWMOJMZ9XOLN1J4CHO", "dateTime": 1516760937994}, {"current_trial": 146, "trialdata": {"rt": -1, "trial_type": "single-stim", "stimulus": "<p id=\"stim\">10</p>", "internal_node_id": "0.0-110.0-0.0", "time_elapsed": 805560, "key_press": -1, "trial_index": 146}, "uniqueid": "MTK2161:3A4TN5196LPZLWMOJMZ9XOLN1J4CHO", "dateTime": 1516760940996}, {"current_trial": 147, "trialdata": {"rt": -1, "trial_type": "single-stim", "stimulus": "<p id=\"stim\">9</p>", "internal_node_id": "0.0-110.0-1.0", "time_elapsed": 806561, "key_press": -1, "trial_index": 147}, "uniqueid": "MTK2161:3A4TN5196LPZLWMOJMZ9XOLN1J4CHO", "dateTime": 1516760941997}, {"current_trial": 148, "trialdata": {"rt": -1, "trial_type": "single-stim", "stimulus": "<p id=\"stim\">8</p>", "internal_node_id": "0.0-110.0-2.0", "time_elapsed": 807564, "key_press": -1, "trial_index": 148}, "uniqueid": "MTK2161:3A4TN5196LPZLWMOJMZ9XOLN1J4CHO", "dateTime": 1516760942999}, {"current_trial": 149, "trialdata": {"rt": -1, "trial_type": "single-stim", "stimulus": "<p id=\"stim\">7</p>", "internal_node_id": "0.0-110.0-3.0", "time_elapsed": 808565, "key_press": -1, "trial_index": 149}, "uniqueid": "MTK2161:3A4TN5196LPZLWMOJMZ9XOLN1J4CHO", "dateTime": 1516760944000}, {"current_trial": 150, "trialdata": {"rt": -1, "trial_type": "single-stim", "stimulus": "<p id=\"stim\">6</p>", "internal_node_id": "0.0-110.0-4.0", "time_elapsed": 809565, "key_press": -1, "trial_index": 150}, "uniqueid": "MTK2161:3A4TN5196LPZLWMOJMZ9XOLN1J4CHO", "dateTime": 1516760945001}, {"current_trial": 151, "trialdata": {"rt": -1, "trial_type": "single-stim", "stimulus": "<p id=\"stim\">5</p>", "internal_node_id": "0.0-110.0-5.0", "time_elapsed": 810567, "key_press": -1, "trial_index": 151}, "uniqueid": "MTK2161:3A4TN5196LPZLWMOJMZ9XOLN1J4CHO", "dateTime": 1516760946002}, {"current_trial": 152, "trialdata": {"rt": -1, "trial_type": "single-stim", "stimulus": "<p id=\"stim\">4</p>", "internal_node_id": "0.0-110.0-6.0", "time_elapsed": 811569, "key_press": -1, "trial_index": 152}, "uniqueid": "MTK2161:3A4TN5196LPZLWMOJMZ9XOLN1J4CHO", "dateTime": 1516760947004}, {"current_trial": 153, "trialdata": {"rt": -1, "trial_type": "single-stim", "stimulus": "<p id=\"stim\">3</p>", "internal_node_id": "0.0-110.0-7.0", "time_elapsed": 812570, "key_press": -1, "trial_index": 153}, "uniqueid": "MTK2161:3A4TN5196LPZLWMOJMZ9XOLN1J4CHO", "dateTime": 1516760948005}, {"current_trial": 154, "trialdata": {"rt": -1, "trial_type": "single-stim", "stimulus": "<p id=\"stim\">2</p>", "internal_node_id": "0.0-110.0-8.0", "time_elapsed": 813572, "key_press": -1, "trial_index": 154}, "uniqueid": "MTK2161:3A4TN5196LPZLWMOJMZ9XOLN1J4CHO", "dateTime": 1516760949007}, {"current_trial": 155, "trialdata": {"rt": -1, "trial_type": "single-stim", "stimulus": "<p id=\"stim\">1</p>", "internal_node_id": "0.0-110.0-9.0", "time_elapsed": 814574, "key_press": -1, "trial_index": 155}, "uniqueid": "MTK2161:3A4TN5196LPZLWMOJMZ9XOLN1J4CHO", "dateTime": 1516760950009}, {"current_trial": 156, "trialdata": {"rt": -1, "trial_type": "single-stim", "stimulus": "<p id=\"stim\">+</p>", "internal_node_id": "0.0-111.0-0.0", "time_elapsed": 816075, "key_press": -1, "type": "FIXATION", "trial_index": 156}, "uniqueid": "MTK2161:3A4TN5196LPZLWMOJMZ9XOLN1J4CHO", "dateTime": 1516760951511}, {"current_trial": 157, "trialdata": {"rt": -1000, "trial_type": "single-audio", "word": "cattle", "stimulus": "/static/audio/wordpool/CATTLE.wav", "conditions": [24, 1600, "a", 12000], "internal_node_id": "0.0-112.0", "trial": 4, "time_elapsed": 818863, "serialpos": 0, "key_press": -1, "wordID": 260, "type": "PRES_AUD", "trial_index": 157}, "uniqueid": "MTK2161:3A4TN5196LPZLWMOJMZ9XOLN1J4CHO", "dateTime": 1516760954298}, {"current_trial": 158, "trialdata": {"rt": -1000, "trial_type": "single-audio", "word": "stallion", "stimulus": "/static/audio/wordpool/STALLION.wav", "conditions": [24, 1600, "a", 12000], "internal_node_id": "0.0-113.0", "trial": 4, "time_elapsed": 821356, "serialpos": 1, "key_press": -1, "wordID": 1368, "type": "PRES_AUD", "trial_index": 158}, "uniqueid": "MTK2161:3A4TN5196LPZLWMOJMZ9XOLN1J4CHO", "dateTime": 1516760956791}, {"current_trial": 159, "trialdata": {"rt": -1000, "trial_type": "single-audio", "word": "lake", "stimulus": "/static/audio/wordpool/LAKE.wav", "conditions": [24, 1600, "a", 12000], "internal_node_id": "0.0-114.0", "trial": 4, "time_elapsed": 824094, "serialpos": 2, "key_press": -1, "wordID": 795, "type": "PRES_AUD", "trial_index": 159}, "uniqueid": "MTK2161:3A4TN5196LPZLWMOJMZ9XOLN1J4CHO", "dateTime": 1516760959530}, {"current_trial": 160, "trialdata": {"rt": -1000, "trial_type": "single-audio", "word": "washer", "stimulus": "/static/audio/wordpool/WASHER.wav", "conditions": [24, 1600, "a", 12000], "internal_node_id": "0.0-115.0", "trial": 4, "time_elapsed": 826502, "serialpos": 3, "key_press": -1, "wordID": 1591, "type": "PRES_AUD", "trial_index": 160}, "uniqueid": "MTK2161:3A4TN5196LPZLWMOJMZ9XOLN1J4CHO", "dateTime": 1516760961937}, {"current_trial": 161, "trialdata": {"rt": -1000, "trial_type": "single-audio", "word": "ketchup", "stimulus": "/static/audio/wordpool/KETCHUP.wav", "conditions": [24, 1600, "a", 12000], "internal_node_id": "0.0-116.0", "trial": 4, "time_elapsed": 828945, "serialpos": 4, "key_press": -1, "wordID": 770, "type": "PRES_AUD", "trial_index": 161}, "uniqueid": "MTK2161:3A4TN5196LPZLWMOJMZ9XOLN1J4CHO", "dateTime": 1516760964380}, {"current_trial": 162, "trialdata": {"rt": -1000, "trial_type": "single-audio", "word": "carrot", "stimulus": "/static/audio/wordpool/CARROT.wav", "conditions": [24, 1600, "a", 12000], "internal_node_id": "0.0-117.0", "trial": 4, "time_elapsed": 831568, "serialpos": 5, "key_press": -1, "wordID": 248, "type": "PRES_AUD", "trial_index": 162}, "uniqueid": "MTK2161:3A4TN5196LPZLWMOJMZ9XOLN1J4CHO", "dateTime": 1516760967003}, {"current_trial": 163, "trialdata": {"rt": -1000, "trial_type": "single-audio", "word": "france", "stimulus": "/static/audio/wordpool/FRANCE.wav", "conditions": [24, 1600, "a", 12000], "internal_node_id": "0.0-118.0", "trial": 4, "time_elapsed": 834251, "serialpos": 6, "key_press": -1, "wordID": 600, "type": "PRES_AUD", "trial_index": 163}, "uniqueid": "MTK2161:3A4TN5196LPZLWMOJMZ9XOLN1J4CHO", "dateTime": 1516760969686}, {"current_trial": 164, "trialdata": {"rt": -1000, "trial_type": "single-audio", "word": "europe", "stimulus": "/static/audio/wordpool/EUROPE.wav", "conditions": [24, 1600, "a", 12000], "internal_node_id": "0.0-119.0", "trial": 4, "time_elapsed": 836782, "serialpos": 7, "key_press": -1, "wordID": 540, "type": "PRES_AUD", "trial_index": 164}, "uniqueid": "MTK2161:3A4TN5196LPZLWMOJMZ9XOLN1J4CHO", "dateTime": 1516760972217}, {"current_trial": 165, "trialdata": {"rt": -1000, "trial_type": "single-audio", "word": "knapsack", "stimulus": "/static/audio/wordpool/KNAPSACK.wav", "conditions": [24, 1600, "a", 12000], "internal_node_id": "0.0-120.0", "trial": 4, "time_elapsed": 839486, "serialpos": 8, "key_press": -1, "wordID": 782, "type": "PRES_AUD", "trial_index": 165}, "uniqueid": "MTK2161:3A4TN5196LPZLWMOJMZ9XOLN1J4CHO", "dateTime": 1516760974921}, {"current_trial": 166, "trialdata": {"rt": -1000, "trial_type": "single-audio", "word": "cook", "stimulus": "/static/audio/wordpool/COOK.wav", "conditions": [24, 1600, "a", 12000], "internal_node_id": "0.0-121.0", "trial": 4, "time_elapsed": 842005, "serialpos": 9, "key_press": -1, "wordID": 371, "type": "PRES_AUD", "trial_index": 166}, "uniqueid": "MTK2161:3A4TN5196LPZLWMOJMZ9XOLN1J4CHO", "dateTime": 1516760977440}, {"current_trial": 167, "trialdata": {"rt": -1000, "trial_type": "single-audio", "word": "lizard", "stimulus": "/static/audio/wordpool/LIZARD.wav", "conditions": [24, 1600, "a", 12000], "internal_node_id": "0.0-122.0", "trial": 4, "time_elapsed": 844456, "serialpos": 10, "key_press": -1, "wordID": 833, "type": "PRES_AUD", "trial_index": 167}, "uniqueid": "MTK2161:3A4TN5196LPZLWMOJMZ9XOLN1J4CHO", "dateTime": 1516760979893}, {"current_trial": 168, "trialdata": {"rt": -1000, "trial_type": "single-audio", "word": "suitcase", "stimulus": "/static/audio/wordpool/SUITCASE.wav", "conditions": [24, 1600, "a", 12000], "internal_node_id": "0.0-123.0", "trial": 4, "time_elapsed": 847009, "serialpos": 11, "key_press": -1, "wordID": 1402, "type": "PRES_AUD", "trial_index": 168}, "uniqueid": "MTK2161:3A4TN5196LPZLWMOJMZ9XOLN1J4CHO", "dateTime": 1516760982444}, {"current_trial": 169, "trialdata": {"rt": -1000, "trial_type": "single-audio", "word": "seafood", "stimulus": "/static/audio/wordpool/SEAFOOD.wav", "conditions": [24, 1600, "a", 12000], "internal_node_id": "0.0-124.0", "trial": 4, "time_elapsed": 849695, "serialpos": 12, "key_press": -1, "wordID": 1259, "type": "PRES_AUD", "trial_index": 169}, "uniqueid": "MTK2161:3A4TN5196LPZLWMOJMZ9XOLN1J4CHO", "dateTime": 1516760985130}, {"current_trial": 170, "trialdata": {"rt": -1000, "trial_type": "single-audio", "word": "nightgown", "stimulus": "/static/audio/wordpool/NIGHTGOWN.wav", "conditions": [24, 1600, "a", 12000], "internal_node_id": "0.0-125.0", "trial": 4, "time_elapsed": 852158, "serialpos": 13, "key_press": -1, "wordID": 952, "type": "PRES_AUD", "trial_index": 170}, "uniqueid": "MTK2161:3A4TN5196LPZLWMOJMZ9XOLN1J4CHO", "dateTime": 1516760987593}, {"current_trial": 171, "trialdata": {"rt": -1000, "trial_type": "single-audio", "word": "lily", "stimulus": "/static/audio/wordpool/LILY.wav", "conditions": [24, 1600, "a", 12000], "internal_node_id": "0.0-126.0", "trial": 4, "time_elapsed": 854720, "serialpos": 14, "key_press": -1, "wordID": 820, "type": "PRES_AUD", "trial_index": 171}, "uniqueid": "MTK2161:3A4TN5196LPZLWMOJMZ9XOLN1J4CHO", "dateTime": 1516760990155}, {"current_trial": 172, "trialdata": {"rt": -1000, "trial_type": "single-audio", "word": "fiddle", "stimulus": "/static/audio/wordpool/FIDDLE.wav", "conditions": [24, 1600, "a", 12000], "internal_node_id": "0.0-127.0", "trial": 4, "time_elapsed": 857391, "serialpos": 15, "key_press": -1, "wordID": 560, "type": "PRES_AUD", "trial_index": 172}, "uniqueid": "MTK2161:3A4TN5196LPZLWMOJMZ9XOLN1J4CHO", "dateTime": 1516760992826}, {"current_trial": 173, "trialdata": {"rt": -1000, "trial_type": "single-audio", "word": "salad", "stimulus": "/static/audio/wordpool/SALAD.wav", "conditions": [24, 1600, "a", 12000], "internal_node_id": "0.0-128.0", "trial": 4, "time_elapsed": 859899, "serialpos": 16, "key_press": -1, "wordID": 1223, "type": "PRES_AUD", "trial_index": 173}, "uniqueid": "MTK2161:3A4TN5196LPZLWMOJMZ9XOLN1J4CHO", "dateTime": 1516760995334}, {"current_trial": 174, "trialdata": {"rt": -1000, "trial_type": "single-audio", "word": "burglar", "stimulus": "/static/audio/wordpool/BURGLAR.wav", "conditions": [24, 1600, "a", 12000], "internal_node_id": "0.0-129.0", "trial": 4, "time_elapsed": 862380, "serialpos": 17, "key_press": -1, "wordID": 199, "type": "PRES_AUD", "trial_index": 174}, "uniqueid": "MTK2161:3A4TN5196LPZLWMOJMZ9XOLN1J4CHO", "dateTime": 1516760997815}, {"current_trial": 175, "trialdata": {"rt": -1000, "trial_type": "single-audio", "word": "preacher", "stimulus": "/static/audio/wordpool/PREACHER.wav", "conditions": [24, 1600, "a", 12000], "internal_node_id": "0.0-130.0", "trial": 4, "time_elapsed": 865056, "serialpos": 18, "key_press": -1, "wordID": 1118, "type": "PRES_AUD", "trial_index": 175}, "uniqueid": "MTK2161:3A4TN5196LPZLWMOJMZ9XOLN1J4CHO", "dateTime": 1516761000491}, {"current_trial": 176, "trialdata": {"rt": -1000, "trial_type": "single-audio", "word": "pork", "stimulus": "/static/audio/wordpool/PORK.wav", "conditions": [24, 1600, "a", 12000], "internal_node_id": "0.0-131.0", "trial": 4, "time_elapsed": 867509, "serialpos": 19, "key_press": -1, "wordID": 1107, "type": "PRES_AUD", "trial_index": 176}, "uniqueid": "MTK2161:3A4TN5196LPZLWMOJMZ9XOLN1J4CHO", "dateTime": 1516761002944}, {"current_trial": 177, "trialdata": {"rt": -1000, "trial_type": "single-audio", "word": "citrus", "stimulus": "/static/audio/wordpool/CITRUS.wav", "conditions": [24, 1600, "a", 12000], "internal_node_id": "0.0-132.0", "trial": 4, "time_elapsed": 870012, "serialpos": 20, "key_press": -1, "wordID": 312, "type": "PRES_AUD", "trial_index": 177}, "uniqueid": "MTK2161:3A4TN5196LPZLWMOJMZ9XOLN1J4CHO", "dateTime": 1516761005447}, {"current_trial": 178, "trialdata": {"rt": -1000, "trial_type": "single-audio", "word": "grape", "stimulus": "/static/audio/wordpool/GRAPE.wav", "conditions": [24, 1600, "a", 12000], "internal_node_id": "0.0-133.0", "trial": 4, "time_elapsed": 872470, "serialpos": 21, "key_press": -1, "wordID": 653, "type": "PRES_AUD", "trial_index": 178}, "uniqueid": "MTK2161:3A4TN5196LPZLWMOJMZ9XOLN1J4CHO", "dateTime": 1516761007905}, {"current_trial": 179, "trialdata": {"rt": -1000, "trial_type": "single-audio", "word": "cod", "stimulus": "/static/audio/wordpool/COD.wav", "conditions": [24, 1600, "a", 12000], "internal_node_id": "0.0-134.0", "trial": 4, "time_elapsed": 875163, "serialpos": 22, "key_press": -1, "wordID": 339, "type": "PRES_AUD", "trial_index": 179}, "uniqueid": "MTK2161:3A4TN5196LPZLWMOJMZ9XOLN1J4CHO", "dateTime": 1516761010598}, {"current_trial": 180, "trialdata": {"rt": -1000, "trial_type": "single-audio", "word": "saddle", "stimulus": "/static/audio/wordpool/SADDLE.wav", "conditions": [24, 1600, "a", 12000], "internal_node_id": "0.0-135.0", "trial": 4, "time_elapsed": 877720, "serialpos": 23, "key_press": -1, "wordID": 1220, "type": "PRES_AUD", "trial_index": 180}, "uniqueid": "MTK2161:3A4TN5196LPZLWMOJMZ9XOLN1J4CHO", "dateTime": 1516761013155}, {"current_trial": 181, "trialdata": {"rt": -1, "trial_type": "single-stim", "stimulus": "", "internal_node_id": "0.0-136.0-0.0", "time_elapsed": 879026, "key_press": -1, "type": "PRE_RECALL_DELAY", "trial_index": 181}, "uniqueid": "MTK2161:3A4TN5196LPZLWMOJMZ9XOLN1J4CHO", "dateTime": 1516761014461}, {"current_trial": 182, "trialdata": {"rt": -1000, "trial_type": "single-audio", "stimulus": "/static/audio/400Hz.wav", "internal_node_id": "0.0-137.0", "time_elapsed": 879526, "key_press": -1, "type": "PRE_RECALL_ALERT", "trial_index": 182}, "uniqueid": "MTK2161:3A4TN5196LPZLWMOJMZ9XOLN1J4CHO", "dateTime": 1516761014961}, {"current_trial": 183, "trialdata": {"rt": [2047, 4565, 5922, 8121, 12468, 14780, 16313, 20062, 21278, 35130, 37712, 44370], "recwords": ["cattle", "stallion", "saddle", "lake", "europe", "france", "cook", "seafood", "cod", "knapsack", "suitcase", "burglar"], "key_times": [912, 988, 1270, 1427, 1563, 1656, 2047, 2739, 3092, 3270, 3445, 3606, 3866, 4042, 4138, 4565, 4980, 5104, 5269, 5435, 5588, 5702, 5922, 7529, 7615, 7802, 7916, 8121, 11100, 11254, 11516, 11666, 11835, 11948, 12061, 12468, 13601, 13726, 13983, 14084, 14243, 14355, 14580, 14780, 15458, 15552, 15758, 15876, 16313, 18604, 18849, 18976, 19181, 19353, 19548, 19814, 20062, 20794, 20918, 21090, 21278, 29537, 30977, 32639, 32778, 34113, 34319, 34551, 34718, 35130, 35897, 36272, 36402, 36616, 36969, 37090, 37315, 37496, 37712, 41757, 41870, 42041, 42325, 42630, 42773, 42887, 44370], "trial_type": "free-recall", "conditions": [24, 1600, "a", 12000], "internal_node_id": "0.0-138.0-0.0", "key_presses": [67, 65, 84, 84, 76, 69, 13, 83, 84, 65, 76, 76, 73, 79, 78, 13, 83, 65, 68, 68, 76, 69, 13, 76, 65, 75, 69, 13, 16, 69, 85, 82, 79, 80, 69, 13, 16, 70, 82, 65, 78, 67, 69, 13, 67, 79, 79, 75, 13, 83, 69, 65, 70, 79, 79, 68, 13, 67, 79, 68, 13, 75, 78, 65, 80, 83, 65, 67, 75, 13, 83, 85, 73, 84, 67, 65, 83, 69, 13, 66, 85, 82, 71, 76, 65, 82, 13], "trial": 4, "time_elapsed": 939530, "type": "FREE_RECALL", "trial_index": 183}, "uniqueid": "MTK2161:3A4TN5196LPZLWMOJMZ9XOLN1J4CHO", "dateTime": 1516761074971}, {"current_trial": 184, "trialdata": {"rt": 841, "trial_type": "text", "internal_node_id": "0.0-139.0", "time_elapsed": 942379, "key_press": 74, "type": "INSTRUCTIONS", "trial_index": 184}, "uniqueid": "MTK2161:3A4TN5196LPZLWMOJMZ9XOLN1J4CHO", "dateTime": 1516761077814}, {"current_trial": 185, "trialdata": {"rt": [2998, 4621, 6839, 9066, 11016, 12439, 14214, 15986, 20245], "trial_type": "math-distractor", "key_times": [2550, 2716, 2998, 4234, 4374, 4621, 6486, 6684, 6839, 8579, 9066, 10687, 10840, 11016, 12047, 12218, 12439, 13868, 14010, 14214, 15618, 15776, 15986, 19895, 20017, 20245], "responses": ["19", "11", "14", "4", "11", "11", "14", "15", "24"], "num2": [7, 7, 2, 2, 4, 3, 7, 5, 8, 8], "num3": [6, 1, 5, 1, 4, 1, 1, 3, 7, 7], "conditions": [12, 800, "a", 24000], "internal_node_id": "0.0-140.0", "key_presses": [49, 57, 13, 49, 49, 13, 49, 52, 13, 52, 13, 49, 49, 13, 49, 49, 13, 49, 52, 13, 49, 53, 13, 50, 52, 13], "trial": 5, "time_elapsed": 968383, "type": "DISTRACTOR", "trial_index": 185, "num1": [6, 3, 7, 1, 3, 7, 6, 7, 9, 8]}, "uniqueid": "MTK2161:3A4TN5196LPZLWMOJMZ9XOLN1J4CHO", "dateTime": 1516761103818}, {"current_trial": 186, "trialdata": {"rt": -1, "trial_type": "single-stim", "stimulus": "<p id=\"stim\">10</p>", "internal_node_id": "0.0-141.0-0.0", "time_elapsed": 971385, "key_press": -1, "trial_index": 186}, "uniqueid": "MTK2161:3A4TN5196LPZLWMOJMZ9XOLN1J4CHO", "dateTime": 1516761106820}, {"current_trial": 187, "trialdata": {"rt": -1, "trial_type": "single-stim", "stimulus": "<p id=\"stim\">9</p>", "internal_node_id": "0.0-141.0-1.0", "time_elapsed": 972386, "key_press": -1, "trial_index": 187}, "uniqueid": "MTK2161:3A4TN5196LPZLWMOJMZ9XOLN1J4CHO", "dateTime": 1516761107822}, {"current_trial": 188, "trialdata": {"rt": -1, "trial_type": "single-stim", "stimulus": "<p id=\"stim\">8</p>", "internal_node_id": "0.0-141.0-2.0", "time_elapsed": 973387, "key_press": -1, "trial_index": 188}, "uniqueid": "MTK2161:3A4TN5196LPZLWMOJMZ9XOLN1J4CHO", "dateTime": 1516761108823}, {"current_trial": 189, "trialdata": {"rt": -1, "trial_type": "single-stim", "stimulus": "<p id=\"stim\">7</p>", "internal_node_id": "0.0-141.0-3.0", "time_elapsed": 974388, "key_press": -1, "trial_index": 189}, "uniqueid": "MTK2161:3A4TN5196LPZLWMOJMZ9XOLN1J4CHO", "dateTime": 1516761109824}, {"current_trial": 190, "trialdata": {"rt": -1, "trial_type": "single-stim", "stimulus": "<p id=\"stim\">6</p>", "internal_node_id": "0.0-141.0-4.0", "time_elapsed": 975391, "key_press": -1, "trial_index": 190}, "uniqueid": "MTK2161:3A4TN5196LPZLWMOJMZ9XOLN1J4CHO", "dateTime": 1516761110826}, {"current_trial": 191, "trialdata": {"rt": -1, "trial_type": "single-stim", "stimulus": "<p id=\"stim\">5</p>", "internal_node_id": "0.0-141.0-5.0", "time_elapsed": 976392, "key_press": -1, "trial_index": 191}, "uniqueid": "MTK2161:3A4TN5196LPZLWMOJMZ9XOLN1J4CHO", "dateTime": 1516761111828}, {"current_trial": 192, "trialdata": {"rt": -1, "trial_type": "single-stim", "stimulus": "<p id=\"stim\">4</p>", "internal_node_id": "0.0-141.0-6.0", "time_elapsed": 977393, "key_press": -1, "trial_index": 192}, "uniqueid": "MTK2161:3A4TN5196LPZLWMOJMZ9XOLN1J4CHO", "dateTime": 1516761112829}, {"current_trial": 193, "trialdata": {"rt": -1, "trial_type": "single-stim", "stimulus": "<p id=\"stim\">3</p>", "internal_node_id": "0.0-141.0-7.0", "time_elapsed": 978394, "key_press": -1, "trial_index": 193}, "uniqueid": "MTK2161:3A4TN5196LPZLWMOJMZ9XOLN1J4CHO", "dateTime": 1516761113830}, {"current_trial": 194, "trialdata": {"rt": -1, "trial_type": "single-stim", "stimulus": "<p id=\"stim\">2</p>", "internal_node_id": "0.0-141.0-8.0", "time_elapsed": 979396, "key_press": -1, "trial_index": 194}, "uniqueid": "MTK2161:3A4TN5196LPZLWMOJMZ9XOLN1J4CHO", "dateTime": 1516761114832}, {"current_trial": 195, "trialdata": {"rt": -1, "trial_type": "single-stim", "stimulus": "<p id=\"stim\">1</p>", "internal_node_id": "0.0-141.0-9.0", "time_elapsed": 980398, "key_press": -1, "trial_index": 195}, "uniqueid": "MTK2161:3A4TN5196LPZLWMOJMZ9XOLN1J4CHO", "dateTime": 1516761115834}, {"current_trial": 196, "trialdata": {"rt": -1, "trial_type": "single-stim", "stimulus": "<p id=\"stim\">+</p>", "internal_node_id": "0.0-142.0-0.0", "time_elapsed": 981899, "key_press": -1, "type": "FIXATION", "trial_index": 196}, "uniqueid": "MTK2161:3A4TN5196LPZLWMOJMZ9XOLN1J4CHO", "dateTime": 1516761117335}, {"current_trial": 197, "trialdata": {"rt": -1000, "trial_type": "single-audio", "word": "sheriff", "stimulus": "/static/audio/wordpool/SHERIFF.wav", "conditions": [12, 800, "a", 24000], "internal_node_id": "0.0-143.0", "trial": 5, "time_elapsed": 983557, "serialpos": 0, "key_press": -1, "wordID": 1283, "type": "PRES_AUD", "trial_index": 197}, "uniqueid": "MTK2161:3A4TN5196LPZLWMOJMZ9XOLN1J4CHO", "dateTime": 1516761118992}, {"current_trial": 198, "trialdata": {"rt": -1000, "trial_type": "single-audio", "word": "curtain", "stimulus": "/static/audio/wordpool/CURTAIN.wav", "conditions": [12, 800, "a", 24000], "internal_node_id": "0.0-144.0", "trial": 5, "time_elapsed": 985331, "serialpos": 1, "key_press": -1, "wordID": 426, "type": "PRES_AUD", "trial_index": 198}, "uniqueid": "MTK2161:3A4TN5196LPZLWMOJMZ9XOLN1J4CHO", "dateTime": 1516761120766}, {"current_trial": 199, "trialdata": {"rt": -1000, "trial_type": "single-audio", "word": "dresser", "stimulus": "/static/audio/wordpool/DRESSER.wav", "conditions": [12, 800, "a", 24000], "internal_node_id": "0.0-145.0", "trial": 5, "time_elapsed": 987103, "serialpos": 2, "key_press": -1, "wordID": 495, "type": "PRES_AUD", "trial_index": 199}, "uniqueid": "MTK2161:3A4TN5196LPZLWMOJMZ9XOLN1J4CHO", "dateTime": 1516761122538}, {"current_trial": 200, "trialdata": {"rt": -1000, "trial_type": "single-audio", "word": "wasp", "stimulus": "/static/audio/wordpool/WASP.wav", "conditions": [12, 800, "a", 24000], "internal_node_id": "0.0-146.0", "trial": 5, "time_elapsed": 988856, "serialpos": 3, "key_press": -1, "wordID": 1592, "type": "PRES_AUD", "trial_index": 200}, "uniqueid": "MTK2161:3A4TN5196LPZLWMOJMZ9XOLN1J4CHO", "dateTime": 1516761124291}, {"current_trial": 201, "trialdata": {"rt": -1000, "trial_type": "single-audio", "word": "spider", "stimulus": "/static/audio/wordpool/SPIDER.wav", "conditions": [12, 800, "a", 24000], "internal_node_id": "0.0-147.0", "trial": 5, "time_elapsed": 990830, "serialpos": 4, "key_press": -1, "wordID": 1350, "type": "PRES_AUD", "trial_index": 201}, "uniqueid": "MTK2161:3A4TN5196LPZLWMOJMZ9XOLN1J4CHO", "dateTime": 1516761126265}, {"current_trial": 202, "trialdata": {"rt": -1000, "trial_type": "single-audio", "word": "hand", "stimulus": "/static/audio/wordpool/HAND.wav", "conditions": [12, 800, "a", 24000], "internal_node_id": "0.0-148.0", "trial": 5, "time_elapsed": 992742, "serialpos": 5, "key_press": -1, "wordID": 682, "type": "PRES_AUD", "trial_index": 202}, "uniqueid": "MTK2161:3A4TN5196LPZLWMOJMZ9XOLN1J4CHO", "dateTime": 1516761128177}, {"current_trial": 203, "trialdata": {"rt": -1000, "trial_type": "single-audio", "word": "highway", "stimulus": "/static/audio/wordpool/HIGHWAY.wav", "conditions": [12, 800, "a", 24000], "internal_node_id": "0.0-149.0", "trial": 5, "time_elapsed": 994479, "serialpos": 6, "key_press": -1, "wordID": 706, "type": "PRES_AUD", "trial_index": 203}, "uniqueid": "MTK2161:3A4TN5196LPZLWMOJMZ9XOLN1J4CHO", "dateTime": 1516761129914}, {"current_trial": 204, "trialdata": {"rt": -1000, "trial_type": "single-audio", "word": "hiker", "stimulus": "/static/audio/wordpool/HIKER.wav", "conditions": [12, 800, "a", 24000], "internal_node_id": "0.0-150.0", "trial": 5, "time_elapsed": 996145, "serialpos": 7, "key_press": -1, "wordID": 707, "type": "PRES_AUD", "trial_index": 204}, "uniqueid": "MTK2161:3A4TN5196LPZLWMOJMZ9XOLN1J4CHO", "dateTime": 1516761131580}, {"current_trial": 205, "trialdata": {"rt": -1000, "trial_type": "single-audio", "word": "leg", "stimulus": "/static/audio/wordpool/LEG.wav", "conditions": [12, 800, "a", 24000], "internal_node_id": "0.0-151.0", "trial": 5, "time_elapsed": 997895, "serialpos": 8, "key_press": -1, "wordID": 808, "type": "PRES_AUD", "trial_index": 205}, "uniqueid": "MTK2161:3A4TN5196LPZLWMOJMZ9XOLN1J4CHO", "dateTime": 1516761133330}, {"current_trial": 206, "trialdata": {"rt": -1000, "trial_type": "single-audio", "word": "cupboard", "stimulus": "/static/audio/wordpool/CUPBOARD.wav", "conditions": [12, 800, "a", 24000], "internal_node_id": "0.0-152.0", "trial": 5, "time_elapsed": 999822, "serialpos": 9, "key_press": -1, "wordID": 424, "type": "PRES_AUD", "trial_index": 206}, "uniqueid": "MTK2161:3A4TN5196LPZLWMOJMZ9XOLN1J4CHO", "dateTime": 1516761135258}, {"current_trial": 207, "trialdata": {"rt": -1000, "trial_type": "single-audio", "word": "tractor", "stimulus": "/static/audio/wordpool/TRACTOR.wav", "conditions": [12, 800, "a", 24000], "internal_node_id": "0.0-153.0", "trial": 5, "time_elapsed": 1001639, "serialpos": 10, "key_press": -1, "wordID": 1492, "type": "PRES_AUD", "trial_index": 207}, "uniqueid": "MTK2161:3A4TN5196LPZLWMOJMZ9XOLN1J4CHO", "dateTime": 1516761137074}, {"current_trial": 208, "trialdata": {"rt": -1000, "trial_type": "single-audio", "word": "cabin", "stimulus": "/static/audio/wordpool/CABIN.wav", "conditions": [12, 800, "a", 24000], "internal_node_id": "0.0-154.0", "trial": 5, "time_elapsed": 1003534, "serialpos": 11, "key_press": -1, "wordID": 210, "type": "PRES_AUD", "trial_index": 208}, "uniqueid": "MTK2161:3A4TN5196LPZLWMOJMZ9XOLN1J4CHO", "dateTime": 1516761138969}, {"current_trial": 209, "trialdata": {"rt": -1, "trial_type": "single-stim", "stimulus": "", "internal_node_id": "0.0-155.0-0.0", "time_elapsed": 1004868, "key_press": -1, "type": "PRE_RECALL_DELAY", "trial_index": 209}, "uniqueid": "MTK2161:3A4TN5196LPZLWMOJMZ9XOLN1J4CHO", "dateTime": 1516761140303}, {"current_trial": 210, "trialdata": {"rt": -1000, "trial_type": "single-audio", "stimulus": "/static/audio/400Hz.wav", "internal_node_id": "0.0-156.0", "time_elapsed": 1005370, "key_press": -1, "type": "PRE_RECALL_ALERT", "trial_index": 210}, "uniqueid": "MTK2161:3A4TN5196LPZLWMOJMZ9XOLN1J4CHO", "dateTime": 1516761140805}, {"current_trial": 211, "trialdata": {"rt": [2149, 3152, 5280, 8210, 10721, 12761], "recwords": ["cabin", "leg", "curtain", "cupboard", "dresser", "cabin"], "key_times": [1119, 1192, 1428, 1623, 1795, 2149, 2617, 2666, 2871, 3152, 3803, 3996, 4144, 4438, 4635, 4788, 4916, 5280, 6140, 6475, 6764, 7004, 7284, 7383, 7527, 7755, 8210, 9161, 9387, 9464, 9672, 9849, 9954, 10061, 10721, 12083, 12153, 12302, 12410, 12519, 12761], "trial_type": "free-recall", "conditions": [12, 800, "a", 24000], "internal_node_id": "0.0-157.0-0.0", "key_presses": [67, 65, 66, 73, 78, 13, 76, 69, 71, 13, 67, 85, 82, 84, 65, 73, 78, 13, 67, 85, 80, 66, 79, 65, 82, 68, 13, 68, 82, 69, 83, 83, 69, 82, 13, 67, 65, 66, 73, 78, 13], "trial": 5, "time_elapsed": 1065374, "type": "FREE_RECALL", "trial_index": 211}, "uniqueid": "MTK2161:3A4TN5196LPZLWMOJMZ9XOLN1J4CHO", "dateTime": 1516761200817}, {"current_trial": 212, "trialdata": {"rt": 829, "trial_type": "text", "internal_node_id": "0.0-158.0", "time_elapsed": 1068212, "key_press": 75, "type": "INSTRUCTIONS", "trial_index": 212}, "uniqueid": "MTK2161:3A4TN5196LPZLWMOJMZ9XOLN1J4CHO", "dateTime": 1516761203647}, {"current_trial": 213, "trialdata": {"rt": [4408, 7982, 9951, 12166, 14047, 17078, 19717, 21552, 23213], "trial_type": "math-distractor", "key_times": [3833, 4038, 4408, 7611, 7766, 7982, 9600, 9730, 9951, 11828, 11917, 12166, 13755, 13860, 14047, 16773, 16927, 17078, 18807, 19167, 19717, 21419, 21552, 22694, 23020, 23213], "responses": ["20", "24", "12", "13", "12", "22", "15", "8", "16"], "num2": [4, 9, 2, 6, 3, 9, 3, 1, 3, 9], "num3": [9, 8, 5, 1, 8, 5, 5, 5, 6, 4], "conditions": [12, 800, "a", 24000], "internal_node_id": "0.0-159.0", "key_presses": [50, 48, 13, 50, 52, 13, 49, 50, 13, 49, 51, 13, 49, 50, 13, 50, 50, 13, 49, 53, 13, 56, 13, 49, 54, 13], "trial": 6, "time_elapsed": 1094215, "type": "DISTRACTOR", "trial_index": 213, "num1": [7, 7, 5, 6, 1, 8, 7, 2, 7, 7]}, "uniqueid": "MTK2161:3A4TN5196LPZLWMOJMZ9XOLN1J4CHO", "dateTime": 1516761229650}, {"current_trial": 214, "trialdata": {"rt": -1, "trial_type": "single-stim", "stimulus": "<p id=\"stim\">10</p>", "internal_node_id": "0.0-160.0-0.0", "time_elapsed": 1097215, "key_press": -1, "trial_index": 214}, "uniqueid": "MTK2161:3A4TN5196LPZLWMOJMZ9XOLN1J4CHO", "dateTime": 1516761232651}, {"current_trial": 215, "trialdata": {"rt": -1, "trial_type": "single-stim", "stimulus": "<p id=\"stim\">9</p>", "internal_node_id": "0.0-160.0-1.0", "time_elapsed": 1098217, "key_press": -1, "trial_index": 215}, "uniqueid": "MTK2161:3A4TN5196LPZLWMOJMZ9XOLN1J4CHO", "dateTime": 1516761233653}, {"current_trial": 216, "trialdata": {"rt": -1, "trial_type": "single-stim", "stimulus": "<p id=\"stim\">8</p>", "internal_node_id": "0.0-160.0-2.0", "time_elapsed": 1099219, "key_press": -1, "trial_index": 216}, "uniqueid": "MTK2161:3A4TN5196LPZLWMOJMZ9XOLN1J4CHO", "dateTime": 1516761234655}, {"current_trial": 217, "trialdata": {"rt": -1, "trial_type": "single-stim", "stimulus": "<p id=\"stim\">7</p>", "internal_node_id": "0.0-160.0-3.0", "time_elapsed": 1100221, "key_press": -1, "trial_index": 217}, "uniqueid": "MTK2161:3A4TN5196LPZLWMOJMZ9XOLN1J4CHO", "dateTime": 1516761235657}, {"current_trial": 218, "trialdata": {"rt": -1, "trial_type": "single-stim", "stimulus": "<p id=\"stim\">6</p>", "internal_node_id": "0.0-160.0-4.0", "time_elapsed": 1101223, "key_press": -1, "trial_index": 218}, "uniqueid": "MTK2161:3A4TN5196LPZLWMOJMZ9XOLN1J4CHO", "dateTime": 1516761236658}, {"current_trial": 219, "trialdata": {"rt": -1, "trial_type": "single-stim", "stimulus": "<p id=\"stim\">5</p>", "internal_node_id": "0.0-160.0-5.0", "time_elapsed": 1102223, "key_press": -1, "trial_index": 219}, "uniqueid": "MTK2161:3A4TN5196LPZLWMOJMZ9XOLN1J4CHO", "dateTime": 1516761237659}, {"current_trial": 220, "trialdata": {"rt": -1, "trial_type": "single-stim", "stimulus": "<p id=\"stim\">4</p>", "internal_node_id": "0.0-160.0-6.0", "time_elapsed": 1103225, "key_press": -1, "trial_index": 220}, "uniqueid": "MTK2161:3A4TN5196LPZLWMOJMZ9XOLN1J4CHO", "dateTime": 1516761238661}, {"current_trial": 221, "trialdata": {"rt": -1, "trial_type": "single-stim", "stimulus": "<p id=\"stim\">3</p>", "internal_node_id": "0.0-160.0-7.0", "time_elapsed": 1104228, "key_press": -1, "trial_index": 221}, "uniqueid": "MTK2161:3A4TN5196LPZLWMOJMZ9XOLN1J4CHO", "dateTime": 1516761239663}, {"current_trial": 222, "trialdata": {"rt": -1, "trial_type": "single-stim", "stimulus": "<p id=\"stim\">2</p>", "internal_node_id": "0.0-160.0-8.0", "time_elapsed": 1105228, "key_press": -1, "trial_index": 222}, "uniqueid": "MTK2161:3A4TN5196LPZLWMOJMZ9XOLN1J4CHO", "dateTime": 1516761240664}, {"current_trial": 223, "trialdata": {"rt": -1, "trial_type": "single-stim", "stimulus": "<p id=\"stim\">1</p>", "internal_node_id": "0.0-160.0-9.0", "time_elapsed": 1106229, "key_press": -1, "trial_index": 223}, "uniqueid": "MTK2161:3A4TN5196LPZLWMOJMZ9XOLN1J4CHO", "dateTime": 1516761241665}, {"current_trial": 224, "trialdata": {"rt": -1, "trial_type": "single-stim", "stimulus": "<p id=\"stim\">+</p>", "internal_node_id": "0.0-161.0-0.0", "time_elapsed": 1107731, "key_press": -1, "type": "FIXATION", "trial_index": 224}, "uniqueid": "MTK2161:3A4TN5196LPZLWMOJMZ9XOLN1J4CHO", "dateTime": 1516761243167}, {"current_trial": 225, "trialdata": {"rt": -1000, "trial_type": "single-audio", "word": "quail", "stimulus": "/static/audio/wordpool/QUAIL.wav", "conditions": [12, 800, "a", 24000], "internal_node_id": "0.0-162.0", "trial": 6, "time_elapsed": 1109377, "serialpos": 0, "key_press": -1, "wordID": 1146, "type": "PRES_AUD", "trial_index": 225}, "uniqueid": "MTK2161:3A4TN5196LPZLWMOJMZ9XOLN1J4CHO", "dateTime": 1516761244812}, {"current_trial": 226, "trialdata": {"rt": -1000, "trial_type": "single-audio", "word": "valley", "stimulus": "/static/audio/wordpool/VALLEY.wav", "conditions": [12, 800, "a", 24000], "internal_node_id": "0.0-163.0", "trial": 6, "time_elapsed": 1111247, "serialpos": 1, "key_press": -1, "wordID": 1544, "type": "PRES_AUD", "trial_index": 226}, "uniqueid": "MTK2161:3A4TN5196LPZLWMOJMZ9XOLN1J4CHO", "dateTime": 1516761246682}, {"current_trial": 227, "trialdata": {"rt": -1000, "trial_type": "single-audio", "word": "fleet", "stimulus": "/static/audio/wordpool/FLEET.wav", "conditions": [12, 800, "a", 24000], "internal_node_id": "0.0-164.0", "trial": 6, "time_elapsed": 1113205, "serialpos": 2, "key_press": -1, "wordID": 577, "type": "PRES_AUD", "trial_index": 227}, "uniqueid": "MTK2161:3A4TN5196LPZLWMOJMZ9XOLN1J4CHO", "dateTime": 1516761248640}, {"current_trial": 228, "trialdata": {"rt": -1000, "trial_type": "single-audio", "word": "swamp", "stimulus": "/static/audio/wordpool/SWAMP.wav", "conditions": [12, 800, "a", 24000], "internal_node_id": "0.0-165.0", "trial": 6, "time_elapsed": 1114978, "serialpos": 3, "key_press": -1, "wordID": 1415, "type": "PRES_AUD", "trial_index": 228}, "uniqueid": "MTK2161:3A4TN5196LPZLWMOJMZ9XOLN1J4CHO", "dateTime": 1516761250414}, {"current_trial": 229, "trialdata": {"rt": -1000, "trial_type": "single-audio", "word": "lamp", "stimulus": "/static/audio/wordpool/LAMP.wav", "conditions": [12, 800, "a", 24000], "internal_node_id": "0.0-166.0", "trial": 6, "time_elapsed": 1116761, "serialpos": 4, "key_press": -1, "wordID": 797, "type": "PRES_AUD", "trial_index": 229}, "uniqueid": "MTK2161:3A4TN5196LPZLWMOJMZ9XOLN1J4CHO", "dateTime": 1516761252196}, {"current_trial": 230, "trialdata": {"rt": -1000, "trial_type": "single-audio", "word": "silk", "stimulus": "/static/audio/wordpool/SILK.wav", "conditions": [12, 800, "a", 24000], "internal_node_id": "0.0-167.0", "trial": 6, "time_elapsed": 1118439, "serialpos": 5, "key_press": -1, "wordID": 1306, "type": "PRES_AUD", "trial_index": 230}, "uniqueid": "MTK2161:3A4TN5196LPZLWMOJMZ9XOLN1J4CHO", "dateTime": 1516761253875}, {"current_trial": 231, "trialdata": {"rt": -1000, "trial_type": "single-audio", "word": "hostess", "stimulus": "/static/audio/wordpool/HOSTESS.wav", "conditions": [12, 800, "a", 24000], "internal_node_id": "0.0-168.0", "trial": 6, "time_elapsed": 1120044, "serialpos": 6, "key_press": -1, "wordID": 722, "type": "PRES_AUD", "trial_index": 231}, "uniqueid": "MTK2161:3A4TN5196LPZLWMOJMZ9XOLN1J4CHO", "dateTime": 1516761255479}, {"current_trial": 232, "trialdata": {"rt": -1000, "trial_type": "single-audio", "word": "jungle", "stimulus": "/static/audio/wordpool/JUNGLE.wav", "conditions": [12, 800, "a", 24000], "internal_node_id": "0.0-169.0", "trial": 6, "time_elapsed": 1121899, "serialpos": 7, "key_press": -1, "wordID": 763, "type": "PRES_AUD", "trial_index": 232}, "uniqueid": "MTK2161:3A4TN5196LPZLWMOJMZ9XOLN1J4CHO", "dateTime": 1516761257334}, {"current_trial": 233, "trialdata": {"rt": -1000, "trial_type": "single-audio", "word": "milk", "stimulus": "/static/audio/wordpool/MILK.wav", "conditions": [12, 800, "a", 24000], "internal_node_id": "0.0-170.0", "trial": 6, "time_elapsed": 1123674, "serialpos": 8, "key_press": -1, "wordID": 894, "type": "PRES_AUD", "trial_index": 233}, "uniqueid": "MTK2161:3A4TN5196LPZLWMOJMZ9XOLN1J4CHO", "dateTime": 1516761259109}, {"current_trial": 234, "trialdata": {"rt": -1000, "trial_type": "single-audio", "word": "honey", "stimulus": "/static/audio/wordpool/HONEY.wav", "conditions": [12, 800, "a", 24000], "internal_node_id": "0.0-171.0", "trial": 6, "time_elapsed": 1125296, "serialpos": 9, "key_press": -1, "wordID": 712, "type": "PRES_AUD", "trial_index": 234}, "uniqueid": "MTK2161:3A4TN5196LPZLWMOJMZ9XOLN1J4CHO", "dateTime": 1516761260731}, {"current_trial": 235, "trialdata": {"rt": -1000, "trial_type": "single-audio", "word": "waitress", "stimulus": "/static/audio/wordpool/WAITRESS.wav", "conditions": [12, 800, "a", 24000], "internal_node_id": "0.0-172.0", "trial": 6, "time_elapsed": 1127273, "serialpos": 10, "key_press": -1, "wordID": 1580, "type": "PRES_AUD", "trial_index": 235}, "uniqueid": "MTK2161:3A4TN5196LPZLWMOJMZ9XOLN1J4CHO", "dateTime": 1516761262709}, {"current_trial": 236, "trialdata": {"rt": -1000, "trial_type": "single-audio", "word": "smog", "stimulus": "/static/audio/wordpool/SMOG.wav", "conditions": [12, 800, "a", 24000], "internal_node_id": "0.0-173.0", "trial": 6, "time_elapsed": 1128919, "serialpos": 11, "key_press": -1, "wordID": 1329, "type": "PRES_AUD", "trial_index": 236}, "uniqueid": "MTK2161:3A4TN5196LPZLWMOJMZ9XOLN1J4CHO", "dateTime": 1516761264354}, {"current_trial": 237, "trialdata": {"rt": -1, "trial_type": "single-stim", "stimulus": "", "internal_node_id": "0.0-174.0-0.0", "time_elapsed": 1130143, "key_press": -1, "type": "PRE_RECALL_DELAY", "trial_index": 237}, "uniqueid": "MTK2161:3A4TN5196LPZLWMOJMZ9XOLN1J4CHO", "dateTime": 1516761265578}, {"current_trial": 238, "trialdata": {"rt": -1000, "trial_type": "single-audio", "stimulus": "/static/audio/400Hz.wav", "internal_node_id": "0.0-175.0", "time_elapsed": 1130646, "key_press": -1, "type": "PRE_RECALL_ALERT", "trial_index": 238}, "uniqueid": "MTK2161:3A4TN5196LPZLWMOJMZ9XOLN1J4CHO", "dateTime": 1516761266081}, {"current_trial": 239, "trialdata": {"rt": [2411, 6317, 9333, 10928, 12859, 14112], "recwords": ["valley", "quail", "waitress", "milk", "honey", "smog"], "key_times": [1102, 1229, 1388, 1544, 1653, 1866, 2411, 5286, 5452, 5575, 5713, 5984, 6317, 7914, 8014, 8186, 8333, 8528, 8603, 8950, 9125, 9333, 9859, 10071, 10314, 10520, 10928, 11534, 11961, 12130, 12303, 12527, 12859, 13107, 13330, 13488, 13752, 14112], "trial_type": "free-recall", "conditions": [12, 800, "a", 24000], "internal_node_id": "0.0-176.0-0.0", "key_presses": [86, 65, 76, 76, 69, 89, 13, 81, 85, 65, 73, 76, 13, 87, 65, 73, 84, 82, 69, 83, 83, 13, 77, 73, 76, 75, 13, 72, 79, 78, 69, 89, 13, 83, 77, 79, 71, 13], "trial": 6, "time_elapsed": 1190651, "type": "FREE_RECALL", "trial_index": 239}, "uniqueid": "MTK2161:3A4TN5196LPZLWMOJMZ9XOLN1J4CHO", "dateTime": 1516761326100}, {"current_trial": 240, "trialdata": {"rt": 299, "trial_type": "text", "internal_node_id": "0.0-177.0", "time_elapsed": 1192964, "key_press": 74, "type": "INSTRUCTIONS", "trial_index": 240}, "uniqueid": "MTK2161:3A4TN5196LPZLWMOJMZ9XOLN1J4CHO", "dateTime": 1516761328399}, {"current_trial": 241, "trialdata": {"rt": [2376, 4862, 7533, 9811, 13827, 16565, 18657, 20426, 22087, 23917], "trial_type": "math-distractor", "key_times": [1768, 2214, 2376, 4391, 4609, 4862, 6869, 7317, 7533, 9655, 9811, 13145, 13578, 13827, 16324, 16565, 18166, 18449, 18657, 20276, 20426, 21924, 22087, 23471, 23785, 23917], "responses": ["20", "13", "19", "9", "23", "6", "15", "8", "8", "16"], "num2": [8, 3, 9, 4, 7, 1, 8, 1, 3, 1, 7], "num3": [4, 7, 7, 4, 9, 1, 1, 5, 1, 6, 1], "conditions": [24, 800, "a", 24000], "internal_node_id": "0.0-178.0", "key_presses": [50, 48, 13, 49, 51, 13, 49, 57, 13, 57, 13, 50, 51, 13, 54, 13, 49, 53, 13, 56, 13, 56, 13, 49, 54, 13], "trial": 7, "time_elapsed": 1218967, "type": "DISTRACTOR", "trial_index": 241, "num1": [8, 3, 3, 1, 7, 4, 6, 2, 4, 9, 7]}, "uniqueid": "MTK2161:3A4TN5196LPZLWMOJMZ9XOLN1J4CHO", "dateTime": 1516761354402}, {"current_trial": 242, "trialdata": {"rt": -1, "trial_type": "single-stim", "stimulus": "<p id=\"stim\">10</p>", "internal_node_id": "0.0-179.0-0.0", "time_elapsed": 1221967, "key_press": -1, "trial_index": 242}, "uniqueid": "MTK2161:3A4TN5196LPZLWMOJMZ9XOLN1J4CHO", "dateTime": 1516761357403}, {"current_trial": 243, "trialdata": {"rt": -1, "trial_type": "single-stim", "stimulus": "<p id=\"stim\">9</p>", "internal_node_id": "0.0-179.0-1.0", "time_elapsed": 1222968, "key_press": -1, "trial_index": 243}, "uniqueid": "MTK2161:3A4TN5196LPZLWMOJMZ9XOLN1J4CHO", "dateTime": 1516761358404}, {"current_trial": 244, "trialdata": {"rt": -1, "trial_type": "single-stim", "stimulus": "<p id=\"stim\">8</p>", "internal_node_id": "0.0-179.0-2.0", "time_elapsed": 1223969, "key_press": -1, "trial_index": 244}, "uniqueid": "MTK2161:3A4TN5196LPZLWMOJMZ9XOLN1J4CHO", "dateTime": 1516761359405}, {"current_trial": 245, "trialdata": {"rt": -1, "trial_type": "single-stim", "stimulus": "<p id=\"stim\">7</p>", "internal_node_id": "0.0-179.0-3.0", "time_elapsed": 1224970, "key_press": -1, "trial_index": 245}, "uniqueid": "MTK2161:3A4TN5196LPZLWMOJMZ9XOLN1J4CHO", "dateTime": 1516761360406}, {"current_trial": 246, "trialdata": {"rt": -1, "trial_type": "single-stim", "stimulus": "<p id=\"stim\">6</p>", "internal_node_id": "0.0-179.0-4.0", "time_elapsed": 1225971, "key_press": -1, "trial_index": 246}, "uniqueid": "MTK2161:3A4TN5196LPZLWMOJMZ9XOLN1J4CHO", "dateTime": 1516761361407}, {"current_trial": 247, "trialdata": {"rt": -1, "trial_type": "single-stim", "stimulus": "<p id=\"stim\">5</p>", "internal_node_id": "0.0-179.0-5.0", "time_elapsed": 1226972, "key_press": -1, "trial_index": 247}, "uniqueid": "MTK2161:3A4TN5196LPZLWMOJMZ9XOLN1J4CHO", "dateT