{"assignmentId": "37C0GNLMHGATTZ8LNZ3GK3EFGMW6DE", "workerId": "MTK2917", "questiondata": {"origin": "United States", "strat-rehearsal": "25", "marital": "Married/Domestic Partnership", "education": "Bachelor's degree", "ethnicity": "Not Hispanic", "color_depth": 24, "distracted": "No", "wrote-notes": "No", "strat-other": "similar starting letters or going through the alphabet to recall", "screen_width": 1366, "avail_screen_width": 1366, "avail_screen_height": 728, "strat-image": "85", "language": "English", "gender": "Female", "age": "29", "gender_other": "", "race": ["White"], "strat-categorize": "85", "pixel_depth": 24, "strat-spatial": "85", "strat-story": "25", "race_other": "", "screen_height": 768}, "bonus": 0, "hitId": "30Y6N4AHYP3KSY8BPL1C6E9RRXZDRO", "counterbalance": 2883, "useragent": "Mozilla/5.0 (Windows NT 6.1; Win64; x64) AppleWebKit/537.36 (KHTML, like Gecko) Chrome/63.0.3239.132 Safari/537.36", "eventdata": [{"eventtype": "initialized", "interval": 0, "value": null, "timestamp": 1519588187760}, {"eventtype": "window_resize", "interval": 0, "value": [1366, 678], "timestamp": 1519588187760}], "data": [{"current_trial": 0, "trialdata": {"rt": 191139, "trial_type": "text", "internal_node_id": "0.0-0.0", "time_elapsed": 191143, "key_press": 32, "type": "INSTRUCTIONS", "trial_index": 0}, "uniqueid": "MTK2917:37C0GNLMHGATTZ8LNZ3GK3EFGMW6DE", "dateTime": 1519588395255}, {"current_trial": 1, "trialdata": {"rt": 2871, "trial_type": "text", "internal_node_id": "0.0-1.0", "time_elapsed": 194019, "key_press": 175, "type": "INSTRUCTIONS", "trial_index": 1}, "uniqueid": "MTK2917:37C0GNLMHGATTZ8LNZ3GK3EFGMW6DE", "dateTime": 1519588398130}, {"current_trial": 2, "trialdata": {"rt": [12974], "trial_type": "audio-test", "responses": ["ocean"], "internal_node_id": "0.0-2.0", "time_elapsed": 207025, "type": "AUDIO_TEST", "trial_index": 2}, "uniqueid": "MTK2917:37C0GNLMHGATTZ8LNZ3GK3EFGMW6DE", "dateTime": 1519588411135}, {"current_trial": 3, "trialdata": {"rt": [5027], "trial_type": "audio-test", "responses": ["crystal"], "internal_node_id": "0.0-3.0", "time_elapsed": 212065, "type": "AUDIO_TEST", "trial_index": 3}, "uniqueid": "MTK2917:37C0GNLMHGATTZ8LNZ3GK3EFGMW6DE", "dateTime": 1519588416175}, {"current_trial": 4, "trialdata": {"rt": [5878], "trial_type": "audio-test", "responses": ["spice"], "internal_node_id": "0.0-4.0", "time_elapsed": 217954, "type": "AUDIO_TEST", "trial_index": 4}, "uniqueid": "MTK2917:37C0GNLMHGATTZ8LNZ3GK3EFGMW6DE", "dateTime": 1519588422065}, {"current_trial": 5, "trialdata": {"rt": 14710, "trial_type": "survey-text", "responses": "{\"Q0\":\"11:00\",\"Q1\":\"6:30\",\"Q2\":\"4\"}", "internal_node_id": "0.0-5.0", "time_elapsed": 233420, "type": "SLEEP_SURVEY", "trial_index": 5}, "uniqueid": "MTK2917:37C0GNLMHGATTZ8LNZ3GK3EFGMW6DE", "dateTime": 1519588437530}, {"current_trial": 6, "trialdata": {"rt": 46415, "trial_type": "text", "internal_node_id": "0.0-6.0", "time_elapsed": 280837, "key_press": 32, "type": "INSTRUCTIONS", "trial_index": 6}, "uniqueid": "MTK2917:37C0GNLMHGATTZ8LNZ3GK3EFGMW6DE", "dateTime": 1519588484947}, {"current_trial": 7, "trialdata": {"rt": 32406, "trial_type": "text", "internal_node_id": "0.0-7.0", "time_elapsed": 313744, "key_press": 175, "type": "INSTRUCTIONS", "trial_index": 7}, "uniqueid": "MTK2917:37C0GNLMHGATTZ8LNZ3GK3EFGMW6DE", "dateTime": 1519588517854}, {"current_trial": 8, "trialdata": {"rt": 150, "trial_type": "text", "internal_node_id": "0.0-8.0", "time_elapsed": 314396, "key_press": 175, "type": "INSTRUCTIONS", "trial_index": 8}, "uniqueid": "MTK2917:37C0GNLMHGATTZ8LNZ3GK3EFGMW6DE", "dateTime": 1519588518506}, {"current_trial": 9, "trialdata": {"rt": [4204, 6717, 8711, 10949, 12662, 14287, 15814, 17807], "trial_type": "math-distractor", "key_times": [2187, 4204, 6257, 6418, 6717, 8317, 8570, 8711, 9894, 10109, 10571, 10753, 10949, 12257, 12389, 12662, 14025, 14287, 15543, 15814, 17258, 17438, 17807], "responses": ["9", "15", "14", "16", "17", "9", "8", "16"], "num2": [4, 3, 3, 7, 1, 5, 3, 3, 7], "num3": [4, 7, 2, 6, 8, 1, 4, 6, 1], "conditions": [18, 1200, "a", 18000], "internal_node_id": "0.0-9.0", "key_presses": [57, 13, 49, 53, 13, 49, 52, 13, 49, 55, 8, 54, 13, 49, 55, 13, 57, 13, 56, 13, 49, 54, 13], "trial": 0, "time_elapsed": 333406, "type": "DISTRACTOR", "trial_index": 9, "num1": [1, 5, 9, 3, 8, 3, 1, 7, 1]}, "uniqueid": "MTK2917:37C0GNLMHGATTZ8LNZ3GK3EFGMW6DE", "dateTime": 1519588537516}, {"current_trial": 10, "trialdata": {"rt": -1, "trial_type": "single-stim", "stimulus": "<p id=\"stim\">10</p>", "internal_node_id": "0.0-10.0-0.0", "time_elapsed": 336408, "key_press": -1, "trial_index": 10}, "uniqueid": "MTK2917:37C0GNLMHGATTZ8LNZ3GK3EFGMW6DE", "dateTime": 1519588540519}, {"current_trial": 11, "trialdata": {"rt": -1, "trial_type": "single-stim", "stimulus": "<p id=\"stim\">9</p>", "internal_node_id": "0.0-10.0-1.0", "time_elapsed": 337410, "key_press": -1, "trial_index": 11}, "uniqueid": "MTK2917:37C0GNLMHGATTZ8LNZ3GK3EFGMW6DE", "dateTime": 1519588541520}, {"current_trial": 12, "trialdata": {"rt": -1, "trial_type": "single-stim", "stimulus": "<p id=\"stim\">8</p>", "internal_node_id": "0.0-10.0-2.0", "time_elapsed": 338411, "key_press": -1, "trial_index": 12}, "uniqueid": "MTK2917:37C0GNLMHGATTZ8LNZ3GK3EFGMW6DE", "dateTime": 1519588542521}, {"current_trial": 13, "trialdata": {"rt": -1, "trial_type": "single-stim", "stimulus": "<p id=\"stim\">7</p>", "internal_node_id": "0.0-10.0-3.0", "time_elapsed": 339412, "key_press": -1, "trial_index": 13}, "uniqueid": "MTK2917:37C0GNLMHGATTZ8LNZ3GK3EFGMW6DE", "dateTime": 1519588543522}, {"current_trial": 14, "trialdata": {"rt": 27, "trial_type": "single-stim", "stimulus": "<p id=\"stim\">6</p>", "internal_node_id": "0.0-10.0-4.0", "time_elapsed": 340413, "key_press": 175, "trial_index": 14}, "uniqueid": "MTK2917:37C0GNLMHGATTZ8LNZ3GK3EFGMW6DE", "dateTime": 1519588544523}, {"current_trial": 15, "trialdata": {"rt": -1, "trial_type": "single-stim", "stimulus": "<p id=\"stim\">5</p>", "internal_node_id": "0.0-10.0-5.0", "time_elapsed": 341415, "key_press": -1, "trial_index": 15}, "uniqueid": "MTK2917:37C0GNLMHGATTZ8LNZ3GK3EFGMW6DE", "dateTime": 1519588545525}, {"current_trial": 16, "trialdata": {"rt": -1, "trial_type": "single-stim", "stimulus": "<p id=\"stim\">4</p>", "internal_node_id": "0.0-10.0-6.0", "time_elapsed": 342416, "key_press": -1, "trial_index": 16}, "uniqueid": "MTK2917:37C0GNLMHGATTZ8LNZ3GK3EFGMW6DE", "dateTime": 1519588546526}, {"current_trial": 17, "trialdata": {"rt": -1, "trial_type": "single-stim", "stimulus": "<p id=\"stim\">3</p>", "internal_node_id": "0.0-10.0-7.0", "time_elapsed": 343419, "key_press": -1, "trial_index": 17}, "uniqueid": "MTK2917:37C0GNLMHGATTZ8LNZ3GK3EFGMW6DE", "dateTime": 1519588547530}, {"current_trial": 18, "trialdata": {"rt": -1, "trial_type": "single-stim", "stimulus": "<p id=\"stim\">2</p>", "internal_node_id": "0.0-10.0-8.0", "time_elapsed": 344421, "key_press": -1, "trial_index": 18}, "uniqueid": "MTK2917:37C0GNLMHGATTZ8LNZ3GK3EFGMW6DE", "dateTime": 1519588548531}, {"current_trial": 19, "trialdata": {"rt": -1, "trial_type": "single-stim", "stimulus": "<p id=\"stim\">1</p>", "internal_node_id": "0.0-10.0-9.0", "time_elapsed": 345422, "key_press": -1, "trial_index": 19}, "uniqueid": "MTK2917:37C0GNLMHGATTZ8LNZ3GK3EFGMW6DE", "dateTime": 1519588549532}, {"current_trial": 20, "trialdata": {"rt": -1, "trial_type": "single-stim", "stimulus": "<p id=\"stim\">+</p>", "internal_node_id": "0.0-11.0-0.0", "time_elapsed": 346923, "key_press": -1, "type": "FIXATION", "trial_index": 20}, "uniqueid": "MTK2917:37C0GNLMHGATTZ8LNZ3GK3EFGMW6DE", "dateTime": 1519588551033}, {"current_trial": 21, "trialdata": {"rt": -1000, "trial_type": "single-audio", "word": "hamper", "stimulus": "/static/audio/wordpool/HAMPER.wav", "conditions": [18, 1200, "a", 18000], "internal_node_id": "0.0-12.0", "trial": 0, "time_elapsed": 349203, "serialpos": 0, "key_press": -1, "wordID": 681, "type": "PRES_AUD", "trial_index": 21}, "uniqueid": "MTK2917:37C0GNLMHGATTZ8LNZ3GK3EFGMW6DE", "dateTime": 1519588553313}, {"current_trial": 22, "trialdata": {"rt": -1000, "trial_type": "single-audio", "word": "loft", "stimulus": "/static/audio/wordpool/LOFT.wav", "conditions": [18, 1200, "a", 18000], "internal_node_id": "0.0-13.0", "trial": 0, "time_elapsed": 351343, "serialpos": 1, "key_press": -1, "wordID": 839, "type": "PRES_AUD", "trial_index": 22}, "uniqueid": "MTK2917:37C0GNLMHGATTZ8LNZ3GK3EFGMW6DE", "dateTime": 1519588555453}, {"current_trial": 23, "trialdata": {"rt": -1000, "trial_type": "single-audio", "word": "guard", "stimulus": "/static/audio/wordpool/GUARD.wav", "conditions": [18, 1200, "a", 18000], "internal_node_id": "0.0-14.0", "trial": 0, "time_elapsed": 353363, "serialpos": 2, "key_press": -1, "wordID": 666, "type": "PRES_AUD", "trial_index": 23}, "uniqueid": "MTK2917:37C0GNLMHGATTZ8LNZ3GK3EFGMW6DE", "dateTime": 1519588557473}, {"current_trial": 24, "trialdata": {"rt": -1000, "trial_type": "single-audio", "word": "thief", "stimulus": "/static/audio/wordpool/THIEF.wav", "conditions": [18, 1200, "a", 18000], "internal_node_id": "0.0-15.0", "trial": 0, "time_elapsed": 355503, "serialpos": 3, "key_press": -1, "wordID": 1455, "type": "PRES_AUD", "trial_index": 24}, "uniqueid": "MTK2917:37C0GNLMHGATTZ8LNZ3GK3EFGMW6DE", "dateTime": 1519588559613}, {"current_trial": 25, "trialdata": {"rt": -1000, "trial_type": "single-audio", "word": "igloo", "stimulus": "/static/audio/wordpool/IGLOO.wav", "conditions": [18, 1200, "a", 18000], "internal_node_id": "0.0-16.0", "trial": 0, "time_elapsed": 357904, "serialpos": 4, "key_press": -1, "wordID": 733, "type": "PRES_AUD", "trial_index": 25}, "uniqueid": "MTK2917:37C0GNLMHGATTZ8LNZ3GK3EFGMW6DE", "dateTime": 1519588562014}, {"current_trial": 26, "trialdata": {"rt": -1000, "trial_type": "single-audio", "word": "laser", "stimulus": "/static/audio/wordpool/LASER.wav", "conditions": [18, 1200, "a", 18000], "internal_node_id": "0.0-17.0", "trial": 0, "time_elapsed": 359934, "serialpos": 5, "key_press": -1, "wordID": 800, "type": "PRES_AUD", "trial_index": 26}, "uniqueid": "MTK2917:37C0GNLMHGATTZ8LNZ3GK3EFGMW6DE", "dateTime": 1519588564044}, {"current_trial": 27, "trialdata": {"rt": -1000, "trial_type": "single-audio", "word": "wasp", "stimulus": "/static/audio/wordpool/WASP.wav", "conditions": [18, 1200, "a", 18000], "internal_node_id": "0.0-18.0", "trial": 0, "time_elapsed": 362248, "serialpos": 6, "key_press": -1, "wordID": 1592, "type": "PRES_AUD", "trial_index": 27}, "uniqueid": "MTK2917:37C0GNLMHGATTZ8LNZ3GK3EFGMW6DE", "dateTime": 1519588566358}, {"current_trial": 28, "trialdata": {"rt": -1000, "trial_type": "single-audio", "word": "kleenex", "stimulus": "/static/audio/wordpool/KLEENEX.wav", "conditions": [18, 1200, "a", 18000], "internal_node_id": "0.0-19.0", "trial": 0, "time_elapsed": 364508, "serialpos": 7, "key_press": -1, "wordID": 781, "type": "PRES_AUD", "trial_index": 28}, "uniqueid": "MTK2917:37C0GNLMHGATTZ8LNZ3GK3EFGMW6DE", "dateTime": 1519588568618}, {"current_trial": 29, "trialdata": {"rt": -1000, "trial_type": "single-audio", "word": "iceberg", "stimulus": "/static/audio/wordpool/ICEBERG.wav", "conditions": [18, 1200, "a", 18000], "internal_node_id": "0.0-20.0", "trial": 0, "time_elapsed": 366628, "serialpos": 8, "key_press": -1, "wordID": 730, "type": "PRES_AUD", "trial_index": 29}, "uniqueid": "MTK2917:37C0GNLMHGATTZ8LNZ3GK3EFGMW6DE", "dateTime": 1519588570738}, {"current_trial": 30, "trialdata": {"rt": -1000, "trial_type": "single-audio", "word": "highway", "stimulus": "/static/audio/wordpool/HIGHWAY.wav", "conditions": [18, 1200, "a", 18000], "internal_node_id": "0.0-21.0", "trial": 0, "time_elapsed": 368758, "serialpos": 9, "key_press": -1, "wordID": 706, "type": "PRES_AUD", "trial_index": 30}, "uniqueid": "MTK2917:37C0GNLMHGATTZ8LNZ3GK3EFGMW6DE", "dateTime": 1519588572868}, {"current_trial": 31, "trialdata": {"rt": -1000, "trial_type": "single-audio", "word": "sibling", "stimulus": "/static/audio/wordpool/SIBLING.wav", "conditions": [18, 1200, "a", 18000], "internal_node_id": "0.0-22.0", "trial": 0, "time_elapsed": 370898, "serialpos": 10, "key_press": -1, "wordID": 1300, "type": "PRES_AUD", "trial_index": 31}, "uniqueid": "MTK2917:37C0GNLMHGATTZ8LNZ3GK3EFGMW6DE", "dateTime": 1519588575008}, {"current_trial": 32, "trialdata": {"rt": -1000, "trial_type": "single-audio", "word": "gravel", "stimulus": "/static/audio/wordpool/GRAVEL.wav", "conditions": [18, 1200, "a", 18000], "internal_node_id": "0.0-23.0", "trial": 0, "time_elapsed": 373198, "serialpos": 11, "key_press": -1, "wordID": 658, "type": "PRES_AUD", "trial_index": 32}, "uniqueid": "MTK2917:37C0GNLMHGATTZ8LNZ3GK3EFGMW6DE", "dateTime": 1519588577308}, {"current_trial": 33, "trialdata": {"rt": -1000, "trial_type": "single-audio", "word": "chapel", "stimulus": "/static/audio/wordpool/CHAPEL.wav", "conditions": [18, 1200, "a", 18000], "internal_node_id": "0.0-24.0", "trial": 0, "time_elapsed": 375428, "serialpos": 12, "key_press": -1, "wordID": 279, "type": "PRES_AUD", "trial_index": 33}, "uniqueid": "MTK2917:37C0GNLMHGATTZ8LNZ3GK3EFGMW6DE", "dateTime": 1519588579538}, {"current_trial": 34, "trialdata": {"rt": -1000, "trial_type": "single-audio", "word": "pigeon", "stimulus": "/static/audio/wordpool/PIGEON.wav", "conditions": [18, 1200, "a", 18000], "internal_node_id": "0.0-25.0", "trial": 0, "time_elapsed": 377668, "serialpos": 13, "key_press": -1, "wordID": 1064, "type": "PRES_AUD", "trial_index": 34}, "uniqueid": "MTK2917:37C0GNLMHGATTZ8LNZ3GK3EFGMW6DE", "dateTime": 1519588581778}, {"current_trial": 35, "trialdata": {"rt": -1000, "trial_type": "single-audio", "word": "jungle", "stimulus": "/static/audio/wordpool/JUNGLE.wav", "conditions": [18, 1200, "a", 18000], "internal_node_id": "0.0-26.0", "trial": 0, "time_elapsed": 379820, "serialpos": 14, "key_press": -1, "wordID": 763, "type": "PRES_AUD", "trial_index": 35}, "uniqueid": "MTK2917:37C0GNLMHGATTZ8LNZ3GK3EFGMW6DE", "dateTime": 1519588583930}, {"current_trial": 36, "trialdata": {"rt": -1000, "trial_type": "single-audio", "word": "atlas", "stimulus": "/static/audio/wordpool/ATLAS.wav", "conditions": [18, 1200, "a", 18000], "internal_node_id": "0.0-27.0", "trial": 0, "time_elapsed": 381940, "serialpos": 15, "key_press": -1, "wordID": 52, "type": "PRES_AUD", "trial_index": 36}, "uniqueid": "MTK2917:37C0GNLMHGATTZ8LNZ3GK3EFGMW6DE", "dateTime": 1519588586050}, {"current_trial": 37, "trialdata": {"rt": -1000, "trial_type": "single-audio", "word": "rust", "stimulus": "/static/audio/wordpool/RUST.wav", "conditions": [18, 1200, "a", 18000], "internal_node_id": "0.0-28.0", "trial": 0, "time_elapsed": 384011, "serialpos": 16, "key_press": -1, "wordID": 1218, "type": "PRES_AUD", "trial_index": 37}, "uniqueid": "MTK2917:37C0GNLMHGATTZ8LNZ3GK3EFGMW6DE", "dateTime": 1519588588121}, {"current_trial": 38, "trialdata": {"rt": -1000, "trial_type": "single-audio", "word": "bunny", "stimulus": "/static/audio/wordpool/BUNNY.wav", "conditions": [18, 1200, "a", 18000], "internal_node_id": "0.0-29.0", "trial": 0, "time_elapsed": 386192, "serialpos": 17, "key_press": -1, "wordID": 197, "type": "PRES_AUD", "trial_index": 38}, "uniqueid": "MTK2917:37C0GNLMHGATTZ8LNZ3GK3EFGMW6DE", "dateTime": 1519588590302}, {"current_trial": 39, "trialdata": {"rt": -1, "trial_type": "single-stim", "stimulus": "", "internal_node_id": "0.0-30.0-0.0", "time_elapsed": 387536, "key_press": -1, "type": "PRE_RECALL_DELAY", "trial_index": 39}, "uniqueid": "MTK2917:37C0GNLMHGATTZ8LNZ3GK3EFGMW6DE", "dateTime": 1519588591646}, {"current_trial": 40, "trialdata": {"rt": -1000, "trial_type": "single-audio", "stimulus": "/static/audio/400Hz.wav", "internal_node_id": "0.0-31.0", "time_elapsed": 388036, "key_press": -1, "type": "PRE_RECALL_ALERT", "trial_index": 40}, "uniqueid": "MTK2917:37C0GNLMHGATTZ8LNZ3GK3EFGMW6DE", "dateTime": 1519588592147}, {"current_trial": 41, "trialdata": {"rt": [3672, 6104, 8744, 11183, 15464, 16736, 18780, 30447, 37484, 49223], "recwords": ["bunny", "jungle", "loft", "camper", "kleenex", "wasp", "igloo", "pigeon", "atlas", ""], "key_times": [2818, 3011, 3184, 3298, 3368, 3672, 5181, 5332, 5468, 5554, 5694, 5798, 6104, 8264, 8404, 8478, 8621, 8744, 8998, 9178, 9611, 9784, 9878, 10061, 10224, 10441, 10597, 10737, 10824, 11012, 11183, 13564, 13771, 13914, 14423, 14534, 14741, 14947, 15464, 15921, 16121, 16304, 16394, 16736, 17994, 18087, 18217, 18404, 18514, 18780, 28750, 29044, 29317, 29520, 29842, 29927, 30054, 30220, 30447, 36659, 36885, 37148, 37208, 37387, 37484, 49223], "trial_type": "free-recall", "conditions": [18, 1200, "a", 18000], "internal_node_id": "0.0-32.0-0.0", "key_presses": [66, 85, 78, 78, 89, 13, 74, 85, 78, 71, 76, 69, 13, 76, 79, 70, 84, 13, 67, 65, 77, 80, 84, 69, 82, 8, 8, 8, 69, 82, 13, 75, 76, 69, 69, 78, 69, 88, 13, 87, 65, 83, 80, 13, 73, 71, 76, 79, 79, 13, 80, 73, 71, 73, 8, 69, 79, 78, 13, 65, 84, 76, 65, 83, 13, 32], "trial": 0, "time_elapsed": 448041, "type": "FREE_RECALL", "trial_index": 41}, "uniqueid": "MTK2917:37C0GNLMHGATTZ8LNZ3GK3EFGMW6DE", "dateTime": 1519588652156}, {"current_trial": 42, "trialdata": {"rt": 1777, "trial_type": "text", "internal_node_id": "0.0-33.0", "time_elapsed": 451825, "key_press": 32, "type": "INSTRUCTIONS", "trial_index": 42}, "uniqueid": "MTK2917:37C0GNLMHGATTZ8LNZ3GK3EFGMW6DE", "dateTime": 1519588655935}, {"current_trial": 43, "trialdata": {"rt": [3080, 7513, 12136, 13502], "trial_type": "math-distractor", "key_times": [2706, 2801, 3080, 7049, 7163, 7513, 11856, 12030, 12136, 13144, 13385, 13502], "responses": ["15", "25", "22", "13"], "num2": [3, 9, 8, 7, 8], "num3": [9, 9, 5, 3, 9], "conditions": [18, 1200, "a", 18000], "internal_node_id": "0.0-34.0", "key_presses": [49, 53, 13, 50, 53, 13, 50, 50, 13, 49, 51, 13], "trial": 1, "time_elapsed": 471828, "type": "DISTRACTOR", "trial_index": 43, "num1": [3, 7, 9, 3, 7]}, "uniqueid": "MTK2917:37C0GNLMHGATTZ8LNZ3GK3EFGMW6DE", "dateTime": 1519588675938}, {"current_trial": 44, "trialdata": {"rt": -1, "trial_type": "single-stim", "stimulus": "<p id=\"stim\">10</p>", "internal_node_id": "0.0-35.0-0.0", "time_elapsed": 474830, "key_press": -1, "trial_index": 44}, "uniqueid": "MTK2917:37C0GNLMHGATTZ8LNZ3GK3EFGMW6DE", "dateTime": 1519588678940}, {"current_trial": 45, "trialdata": {"rt": -1, "trial_type": "single-stim", "stimulus": "<p id=\"stim\">9</p>", "internal_node_id": "0.0-35.0-1.0", "time_elapsed": 475831, "key_press": -1, "trial_index": 45}, "uniqueid": "MTK2917:37C0GNLMHGATTZ8LNZ3GK3EFGMW6DE", "dateTime": 1519588679941}, {"current_trial": 46, "trialdata": {"rt": -1, "trial_type": "single-stim", "stimulus": "<p id=\"stim\">8</p>", "internal_node_id": "0.0-35.0-2.0", "time_elapsed": 476831, "key_press": -1, "trial_index": 46}, "uniqueid": "MTK2917:37C0GNLMHGATTZ8LNZ3GK3EFGMW6DE", "dateTime": 1519588680942}, {"current_trial": 47, "trialdata": {"rt": -1, "trial_type": "single-stim", "stimulus": "<p id=\"stim\">7</p>", "internal_node_id": "0.0-35.0-3.0", "time_elapsed": 477833, "key_press": -1, "trial_index": 47}, "uniqueid": "MTK2917:37C0GNLMHGATTZ8LNZ3GK3EFGMW6DE", "dateTime": 1519588681943}, {"current_trial": 48, "trialdata": {"rt": -1, "trial_type": "single-stim", "stimulus": "<p id=\"stim\">6</p>", "internal_node_id": "0.0-35.0-4.0", "time_elapsed": 478834, "key_press": -1, "trial_index": 48}, "uniqueid": "MTK2917:37C0GNLMHGATTZ8LNZ3GK3EFGMW6DE", "dateTime": 1519588682944}, {"current_trial": 49, "trialdata": {"rt": -1, "trial_type": "single-stim", "stimulus": "<p id=\"stim\">5</p>", "internal_node_id": "0.0-35.0-5.0", "time_elapsed": 479835, "key_press": -1, "trial_index": 49}, "uniqueid": "MTK2917:37C0GNLMHGATTZ8LNZ3GK3EFGMW6DE", "dateTime": 1519588683945}, {"current_trial": 50, "trialdata": {"rt": -1, "trial_type": "single-stim", "stimulus": "<p id=\"stim\">4</p>", "internal_node_id": "0.0-35.0-6.0", "time_elapsed": 480836, "key_press": -1, "trial_index": 50}, "uniqueid": "MTK2917:37C0GNLMHGATTZ8LNZ3GK3EFGMW6DE", "dateTime": 1519588684946}, {"current_trial": 51, "trialdata": {"rt": -1, "trial_type": "single-stim", "stimulus": "<p id=\"stim\">3</p>", "internal_node_id": "0.0-35.0-7.0", "time_elapsed": 481837, "key_press": -1, "trial_index": 51}, "uniqueid": "MTK2917:37C0GNLMHGATTZ8LNZ3GK3EFGMW6DE", "dateTime": 1519588685948}, {"current_trial": 52, "trialdata": {"rt": -1, "trial_type": "single-stim", "stimulus": "<p id=\"stim\">2</p>", "internal_node_id": "0.0-35.0-8.0", "time_elapsed": 482839, "key_press": -1, "trial_index": 52}, "uniqueid": "MTK2917:37C0GNLMHGATTZ8LNZ3GK3EFGMW6DE", "dateTime": 1519588686949}, {"current_trial": 53, "trialdata": {"rt": -1, "trial_type": "single-stim", "stimulus": "<p id=\"stim\">1</p>", "internal_node_id": "0.0-35.0-9.0", "time_elapsed": 483841, "key_press": -1, "trial_index": 53}, "uniqueid": "MTK2917:37C0GNLMHGATTZ8LNZ3GK3EFGMW6DE", "dateTime": 1519588687953}, {"current_trial": 54, "trialdata": {"rt": -1, "trial_type": "single-stim", "stimulus": "<p id=\"stim\">+</p>", "internal_node_id": "0.0-36.0-0.0", "time_elapsed": 485343, "key_press": -1, "type": "FIXATION", "trial_index": 54}, "uniqueid": "MTK2917:37C0GNLMHGATTZ8LNZ3GK3EFGMW6DE", "dateTime": 1519588689454}, {"current_trial": 55, "trialdata": {"rt": -1000, "trial_type": "single-audio", "word": "burglar", "stimulus": "/static/audio/wordpool/BURGLAR.wav", "conditions": [18, 1200, "a", 18000], "internal_node_id": "0.0-37.0", "trial": 1, "time_elapsed": 487655, "serialpos": 0, "key_press": -1, "wordID": 199, "type": "PRES_AUD", "trial_index": 55}, "uniqueid": "MTK2917:37C0GNLMHGATTZ8LNZ3GK3EFGMW6DE", "dateTime": 1519588691765}, {"current_trial": 56, "trialdata": {"rt": -1000, "trial_type": "single-audio", "word": "treat", "stimulus": "/static/audio/wordpool/TREAT.wav", "conditions": [18, 1200, "a", 18000], "internal_node_id": "0.0-38.0", "trial": 1, "time_elapsed": 490055, "serialpos": 1, "key_press": -1, "wordID": 1500, "type": "PRES_AUD", "trial_index": 56}, "uniqueid": "MTK2917:37C0GNLMHGATTZ8LNZ3GK3EFGMW6DE", "dateTime": 1519588694165}, {"current_trial": 57, "trialdata": {"rt": -1000, "trial_type": "single-audio", "word": "mattress", "stimulus": "/static/audio/wordpool/MATTRESS.wav", "conditions": [18, 1200, "a", 18000], "internal_node_id": "0.0-39.0", "trial": 1, "time_elapsed": 492385, "serialpos": 2, "key_press": -1, "wordID": 878, "type": "PRES_AUD", "trial_index": 57}, "uniqueid": "MTK2917:37C0GNLMHGATTZ8LNZ3GK3EFGMW6DE", "dateTime": 1519588696495}, {"current_trial": 58, "trialdata": {"rt": -1000, "trial_type": "single-audio", "word": "yarn", "stimulus": "/static/audio/wordpool/YARN.wav", "conditions": [18, 1200, "a", 18000], "internal_node_id": "0.0-40.0", "trial": 1, "time_elapsed": 494595, "serialpos": 3, "key_press": -1, "wordID": 1630, "type": "PRES_AUD", "trial_index": 58}, "uniqueid": "MTK2917:37C0GNLMHGATTZ8LNZ3GK3EFGMW6DE", "dateTime": 1519588698705}, {"current_trial": 59, "trialdata": {"rt": -1000, "trial_type": "single-audio", "word": "coin", "stimulus": "/static/audio/wordpool/COIN.wav", "conditions": [18, 1200, "a", 18000], "internal_node_id": "0.0-41.0", "trial": 1, "time_elapsed": 496825, "serialpos": 4, "key_press": -1, "wordID": 342, "type": "PRES_AUD", "trial_index": 59}, "uniqueid": "MTK2917:37C0GNLMHGATTZ8LNZ3GK3EFGMW6DE", "dateTime": 1519588700935}, {"current_trial": 60, "trialdata": {"rt": -1000, "trial_type": "single-audio", "word": "lightning", "stimulus": "/static/audio/wordpool/LIGHTNING.wav", "conditions": [18, 1200, "a", 18000], "internal_node_id": "0.0-42.0", "trial": 1, "time_elapsed": 499205, "serialpos": 5, "key_press": -1, "wordID": 819, "type": "PRES_AUD", "trial_index": 60}, "uniqueid": "MTK2917:37C0GNLMHGATTZ8LNZ3GK3EFGMW6DE", "dateTime": 1519588703315}, {"current_trial": 61, "trialdata": {"rt": -1000, "trial_type": "single-audio", "word": "raft", "stimulus": "/static/audio/wordpool/RAFT.wav", "conditions": [18, 1200, "a", 18000], "internal_node_id": "0.0-43.0", "trial": 1, "time_elapsed": 501235, "serialpos": 6, "key_press": -1, "wordID": 1158, "type": "PRES_AUD", "trial_index": 61}, "uniqueid": "MTK2917:37C0GNLMHGATTZ8LNZ3GK3EFGMW6DE", "dateTime": 1519588705345}, {"current_trial": 62, "trialdata": {"rt": -1000, "trial_type": "single-audio", "word": "scarecrow", "stimulus": "/static/audio/wordpool/SCARECROW.wav", "conditions": [18, 1200, "a", 18000], "internal_node_id": "0.0-44.0", "trial": 1, "time_elapsed": 503255, "serialpos": 7, "key_press": -1, "wordID": 1244, "type": "PRES_AUD", "trial_index": 62}, "uniqueid": "MTK2917:37C0GNLMHGATTZ8LNZ3GK3EFGMW6DE", "dateTime": 1519588707365}, {"current_trial": 63, "trialdata": {"rt": -1000, "trial_type": "single-audio", "word": "skirt", "stimulus": "/static/audio/wordpool/SKIRT.wav", "conditions": [18, 1200, "a", 18000], "internal_node_id": "0.0-45.0", "trial": 1, "time_elapsed": 505455, "serialpos": 8, "key_press": -1, "wordID": 1318, "type": "PRES_AUD", "trial_index": 63}, "uniqueid": "MTK2917:37C0GNLMHGATTZ8LNZ3GK3EFGMW6DE", "dateTime": 1519588709565}, {"current_trial": 64, "trialdata": {"rt": -1000, "trial_type": "single-audio", "word": "fiddle", "stimulus": "/static/audio/wordpool/FIDDLE.wav", "conditions": [18, 1200, "a", 18000], "internal_node_id": "0.0-46.0", "trial": 1, "time_elapsed": 507655, "serialpos": 9, "key_press": -1, "wordID": 560, "type": "PRES_AUD", "trial_index": 64}, "uniqueid": "MTK2917:37C0GNLMHGATTZ8LNZ3GK3EFGMW6DE", "dateTime": 1519588711765}, {"current_trial": 65, "trialdata": {"rt": -1000, "trial_type": "single-audio", "word": "child", "stimulus": "/static/audio/wordpool/CHILD.wav", "conditions": [18, 1200, "a", 18000], "internal_node_id": "0.0-47.0", "trial": 1, "time_elapsed": 510025, "serialpos": 10, "key_press": -1, "wordID": 298, "type": "PRES_AUD", "trial_index": 65}, "uniqueid": "MTK2917:37C0GNLMHGATTZ8LNZ3GK3EFGMW6DE", "dateTime": 1519588714135}, {"current_trial": 66, "trialdata": {"rt": -1000, "trial_type": "single-audio", "word": "ghetto", "stimulus": "/static/audio/wordpool/GHETTO.wav", "conditions": [18, 1200, "a", 18000], "internal_node_id": "0.0-48.0", "trial": 1, "time_elapsed": 512035, "serialpos": 11, "key_press": -1, "wordID": 632, "type": "PRES_AUD", "trial_index": 66}, "uniqueid": "MTK2917:37C0GNLMHGATTZ8LNZ3GK3EFGMW6DE", "dateTime": 1519588716145}, {"current_trial": 67, "trialdata": {"rt": -1000, "trial_type": "single-audio", "word": "apron", "stimulus": "/static/audio/wordpool/APRON.wav", "conditions": [18, 1200, "a", 18000], "internal_node_id": "0.0-49.0", "trial": 1, "time_elapsed": 514075, "serialpos": 12, "key_press": -1, "wordID": 34, "type": "PRES_AUD", "trial_index": 67}, "uniqueid": "MTK2917:37C0GNLMHGATTZ8LNZ3GK3EFGMW6DE", "dateTime": 1519588718185}, {"current_trial": 68, "trialdata": {"rt": -1000, "trial_type": "single-audio", "word": "machine", "stimulus": "/static/audio/wordpool/MACHINE.wav", "conditions": [18, 1200, "a", 18000], "internal_node_id": "0.0-50.0", "trial": 1, "time_elapsed": 516425, "serialpos": 13, "key_press": -1, "wordID": 851, "type": "PRES_AUD", "trial_index": 68}, "uniqueid": "MTK2917:37C0GNLMHGATTZ8LNZ3GK3EFGMW6DE", "dateTime": 1519588720535}, {"current_trial": 69, "trialdata": {"rt": -1000, "trial_type": "single-audio", "word": "outdoors", "stimulus": "/static/audio/wordpool/OUTDOORS.wav", "conditions": [18, 1200, "a", 18000], "internal_node_id": "0.0-51.0", "trial": 1, "time_elapsed": 518755, "serialpos": 14, "key_press": -1, "wordID": 986, "type": "PRES_AUD", "trial_index": 69}, "uniqueid": "MTK2917:37C0GNLMHGATTZ8LNZ3GK3EFGMW6DE", "dateTime": 1519588722865}, {"current_trial": 70, "trialdata": {"rt": -1000, "trial_type": "single-audio", "word": "country", "stimulus": "/static/audio/wordpool/COUNTRY.wav", "conditions": [18, 1200, "a", 18000], "internal_node_id": "0.0-52.0", "trial": 1, "time_elapsed": 521045, "serialpos": 15, "key_press": -1, "wordID": 387, "type": "PRES_AUD", "trial_index": 70}, "uniqueid": "MTK2917:37C0GNLMHGATTZ8LNZ3GK3EFGMW6DE", "dateTime": 1519588725155}, {"current_trial": 71, "trialdata": {"rt": -1000, "trial_type": "single-audio", "word": "fruit", "stimulus": "/static/audio/wordpool/FRUIT.wav", "conditions": [18, 1200, "a", 18000], "internal_node_id": "0.0-53.0", "trial": 1, "time_elapsed": 523085, "serialpos": 16, "key_press": -1, "wordID": 609, "type": "PRES_AUD", "trial_index": 71}, "uniqueid": "MTK2917:37C0GNLMHGATTZ8LNZ3GK3EFGMW6DE", "dateTime": 1519588727195}, {"current_trial": 72, "trialdata": {"rt": -1000, "trial_type": "single-audio", "word": "survey", "stimulus": "/static/audio/wordpool/SURVEY.wav", "conditions": [18, 1200, "a", 18000], "internal_node_id": "0.0-54.0", "trial": 1, "time_elapsed": 525387, "serialpos": 17, "key_press": -1, "wordID": 1413, "type": "PRES_AUD", "trial_index": 72}, "uniqueid": "MTK2917:37C0GNLMHGATTZ8LNZ3GK3EFGMW6DE", "dateTime": 1519588729497}, {"current_trial": 73, "trialdata": {"rt": -1, "trial_type": "single-stim", "stimulus": "", "internal_node_id": "0.0-55.0-0.0", "time_elapsed": 526601, "key_press": -1, "type": "PRE_RECALL_DELAY", "trial_index": 73}, "uniqueid": "MTK2917:37C0GNLMHGATTZ8LNZ3GK3EFGMW6DE", "dateTime": 1519588730711}, {"current_trial": 74, "trialdata": {"rt": -1000, "trial_type": "single-audio", "stimulus": "/static/audio/400Hz.wav", "internal_node_id": "0.0-56.0", "time_elapsed": 527108, "key_press": -1, "type": "PRE_RECALL_ALERT", "trial_index": 74}, "uniqueid": "MTK2917:37C0GNLMHGATTZ8LNZ3GK3EFGMW6DE", "dateTime": 1519588731218}, {"current_trial": 75, "trialdata": {"rt": [1270, 2391, 3943, 5433, 7657, 17089, 18126, 19086], "recwords": ["fruit", "survey", "mattress", "burglar", "scarecrow", "child", "infant", "candy"], "key_times": [593, 797, 895, 1030, 1100, 1270, 1582, 1753, 1857, 1957, 2063, 2137, 2391, 2680, 2830, 2997, 3140, 3310, 3483, 3653, 3827, 3943, 4280, 4473, 4517, 4683, 5035, 5110, 5308, 5433, 5551, 5756, 5936, 6150, 6626, 7043, 7231, 7323, 7413, 7657, 16076, 16249, 16429, 16579, 16729, 17089, 17381, 17553, 17636, 17779, 17853, 17996, 18126, 18303, 18496, 18619, 18713, 18796, 19086], "trial_type": "free-recall", "conditions": [18, 1200, "a", 18000], "internal_node_id": "0.0-57.0-0.0", "key_presses": [70, 82, 85, 73, 84, 13, 83, 85, 82, 86, 69, 89, 13, 77, 65, 84, 84, 82, 69, 83, 83, 13, 66, 85, 82, 71, 76, 65, 82, 13, 83, 67, 65, 82, 69, 67, 82, 79, 87, 13, 67, 72, 73, 76, 68, 13, 73, 78, 70, 65, 78, 84, 13, 67, 65, 78, 68, 89, 13], "trial": 1, "time_elapsed": 587109, "type": "FREE_RECALL", "trial_index": 75}, "uniqueid": "MTK2917:37C0GNLMHGATTZ8LNZ3GK3EFGMW6DE", "dateTime": 1519588791224}, {"current_trial": 76, "trialdata": {"rt": 2055, "trial_type": "text", "internal_node_id": "0.0-58.0", "time_elapsed": 591171, "key_press": 32, "type": "INSTRUCTIONS", "trial_index": 76}, "uniqueid": "MTK2917:37C0GNLMHGATTZ8LNZ3GK3EFGMW6DE", "dateTime": 1519588795281}, {"current_trial": 77, "trialdata": {"rt": [5530, 6959, 9518, 11490, 14062, 17233, 18493, 19798, 23293], "trial_type": "math-distractor", "key_times": [5140, 5241, 5530, 6690, 6869, 6959, 8827, 9065, 9518, 11215, 11490, 13622, 13777, 14062, 16884, 16954, 17233, 18189, 18384, 18493, 19539, 19709, 19798, 22768, 22903, 23293], "responses": ["17", "12", "24", "7", "18", "19", "12", "12", "25"], "num2": [5, 9, 9, 1, 6, 8, 2, 8, 8, 9], "num3": [9, 2, 9, 4, 7, 3, 2, 2, 7, 9], "conditions": [12, 1600, "a", 24000], "internal_node_id": "0.0-59.0", "key_presses": [49, 55, 13, 49, 50, 13, 50, 52, 13, 55, 13, 49, 56, 13, 49, 57, 13, 49, 50, 13, 49, 50, 13, 50, 53, 13], "trial": 2, "time_elapsed": 616174, "type": "DISTRACTOR", "trial_index": 77, "num1": [3, 1, 6, 2, 5, 8, 8, 2, 9, 3]}, "uniqueid": "MTK2917:37C0GNLMHGATTZ8LNZ3GK3EFGMW6DE", "dateTime": 1519588820284}, {"current_trial": 78, "trialdata": {"rt": -1, "trial_type": "single-stim", "stimulus": "<p id=\"stim\">10</p>", "internal_node_id": "0.0-60.0-0.0", "time_elapsed": 619175, "key_press": -1, "trial_index": 78}, "uniqueid": "MTK2917:37C0GNLMHGATTZ8LNZ3GK3EFGMW6DE", "dateTime": 1519588823285}, {"current_trial": 79, "trialdata": {"rt": -1, "trial_type": "single-stim", "stimulus": "<p id=\"stim\">9</p>", "internal_node_id": "0.0-60.0-1.0", "time_elapsed": 620176, "key_press": -1, "trial_index": 79}, "uniqueid": "MTK2917:37C0GNLMHGATTZ8LNZ3GK3EFGMW6DE", "dateTime": 1519588824286}, {"current_trial": 80, "trialdata": {"rt": -1, "trial_type": "single-stim", "stimulus": "<p id=\"stim\">8</p>", "internal_node_id": "0.0-60.0-2.0", "time_elapsed": 621177, "key_press": -1, "trial_index": 80}, "uniqueid": "MTK2917:37C0GNLMHGATTZ8LNZ3GK3EFGMW6DE", "dateTime": 1519588825287}, {"current_trial": 81, "trialdata": {"rt": -1, "trial_type": "single-stim", "stimulus": "<p id=\"stim\">7</p>", "internal_node_id": "0.0-60.0-3.0", "time_elapsed": 622178, "key_press": -1, "trial_index": 81}, "uniqueid": "MTK2917:37C0GNLMHGATTZ8LNZ3GK3EFGMW6DE", "dateTime": 1519588826288}, {"current_trial": 82, "trialdata": {"rt": -1, "trial_type": "single-stim", "stimulus": "<p id=\"stim\">6</p>", "internal_node_id": "0.0-60.0-4.0", "time_elapsed": 623178, "key_press": -1, "trial_index": 82}, "uniqueid": "MTK2917:37C0GNLMHGATTZ8LNZ3GK3EFGMW6DE", "dateTime": 1519588827289}, {"current_trial": 83, "trialdata": {"rt": -1, "trial_type": "single-stim", "stimulus": "<p id=\"stim\">5</p>", "internal_node_id": "0.0-60.0-5.0", "time_elapsed": 624180, "key_press": -1, "trial_index": 83}, "uniqueid": "MTK2917:37C0GNLMHGATTZ8LNZ3GK3EFGMW6DE", "dateTime": 1519588828290}, {"current_trial": 84, "trialdata": {"rt": -1, "trial_type": "single-stim", "stimulus": "<p id=\"stim\">4</p>", "internal_node_id": "0.0-60.0-6.0", "time_elapsed": 625181, "key_press": -1, "trial_index": 84}, "uniqueid": "MTK2917:37C0GNLMHGATTZ8LNZ3GK3EFGMW6DE", "dateTime": 1519588829291}, {"current_trial": 85, "trialdata": {"rt": -1, "trial_type": "single-stim", "stimulus": "<p id=\"stim\">3</p>", "internal_node_id": "0.0-60.0-7.0", "time_elapsed": 626182, "key_press": -1, "trial_index": 85}, "uniqueid": "MTK2917:37C0GNLMHGATTZ8LNZ3GK3EFGMW6DE", "dateTime": 1519588830292}, {"current_trial": 86, "trialdata": {"rt": -1, "trial_type": "single-stim", "stimulus": "<p id=\"stim\">2</p>", "internal_node_id": "0.0-60.0-8.0", "time_elapsed": 627183, "key_press": -1, "trial_index": 86}, "uniqueid": "MTK2917:37C0GNLMHGATTZ8LNZ3GK3EFGMW6DE", "dateTime": 1519588831294}, {"current_trial": 87, "trialdata": {"rt": -1, "trial_type": "single-stim", "stimulus": "<p id=\"stim\">1</p>", "internal_node_id": "0.0-60.0-9.0", "time_elapsed": 628185, "key_press": -1, "trial_index": 87}, "uniqueid": "MTK2917:37C0GNLMHGATTZ8LNZ3GK3EFGMW6DE", "dateTime": 1519588832295}, {"current_trial": 88, "trialdata": {"rt": -1, "trial_type": "single-stim", "stimulus": "<p id=\"stim\">+</p>", "internal_node_id": "0.0-61.0-0.0", "time_elapsed": 629686, "key_press": -1, "type": "FIXATION", "trial_index": 88}, "uniqueid": "MTK2917:37C0GNLMHGATTZ8LNZ3GK3EFGMW6DE", "dateTime": 1519588833796}, {"current_trial": 89, "trialdata": {"rt": -1000, "trial_type": "single-audio", "word": "lagoon", "stimulus": "/static/audio/wordpool/LAGOON.wav", "conditions": [12, 1600, "a", 24000], "internal_node_id": "0.0-62.0", "trial": 2, "time_elapsed": 632417, "serialpos": 0, "key_press": -1, "wordID": 794, "type": "PRES_AUD", "trial_index": 89}, "uniqueid": "MTK2917:37C0GNLMHGATTZ8LNZ3GK3EFGMW6DE", "dateTime": 1519588836527}, {"current_trial": 90, "trialdata": {"rt": -1000, "trial_type": "single-audio", "word": "blouse", "stimulus": "/static/audio/wordpool/BLOUSE.wav", "conditions": [12, 1600, "a", 24000], "internal_node_id": "0.0-63.0", "trial": 2, "time_elapsed": 635037, "serialpos": 1, "key_press": -1, "wordID": 138, "type": "PRES_AUD", "trial_index": 90}, "uniqueid": "MTK2917:37C0GNLMHGATTZ8LNZ3GK3EFGMW6DE", "dateTime": 1519588839147}, {"current_trial": 91, "trialdata": {"rt": -1000, "trial_type": "single-audio", "word": "bacon", "stimulus": "/static/audio/wordpool/BACON.wav", "conditions": [12, 1600, "a", 24000], "internal_node_id": "0.0-64.0", "trial": 2, "time_elapsed": 637617, "serialpos": 2, "key_press": -1, "wordID": 66, "type": "PRES_AUD", "trial_index": 91}, "uniqueid": "MTK2917:37C0GNLMHGATTZ8LNZ3GK3EFGMW6DE", "dateTime": 1519588841727}, {"current_trial": 92, "trialdata": {"rt": -1000, "trial_type": "single-audio", "word": "mailbox", "stimulus": "/static/audio/wordpool/MAILBOX.wav", "conditions": [12, 1600, "a", 24000], "internal_node_id": "0.0-65.0", "trial": 2, "time_elapsed": 640267, "serialpos": 3, "key_press": -1, "wordID": 856, "type": "PRES_AUD", "trial_index": 92}, "uniqueid": "MTK2917:37C0GNLMHGATTZ8LNZ3GK3EFGMW6DE", "dateTime": 1519588844377}, {"current_trial": 93, "trialdata": {"rt": -1000, "trial_type": "single-audio", "word": "cross", "stimulus": "/static/audio/wordpool/CROSS.wav", "conditions": [12, 1600, "a", 24000], "internal_node_id": "0.0-66.0", "trial": 2, "time_elapsed": 643057, "serialpos": 4, "key_press": -1, "wordID": 412, "type": "PRES_AUD", "trial_index": 93}, "uniqueid": "MTK2917:37C0GNLMHGATTZ8LNZ3GK3EFGMW6DE", "dateTime": 1519588847167}, {"current_trial": 94, "trialdata": {"rt": -1000, "trial_type": "single-audio", "word": "robin", "stimulus": "/static/audio/wordpool/ROBIN.wav", "conditions": [12, 1600, "a", 24000], "internal_node_id": "0.0-67.0", "trial": 2, "time_elapsed": 645851, "serialpos": 5, "key_press": -1, "wordID": 1198, "type": "PRES_AUD", "trial_index": 94}, "uniqueid": "MTK2917:37C0GNLMHGATTZ8LNZ3GK3EFGMW6DE", "dateTime": 1519588849961}, {"current_trial": 95, "trialdata": {"rt": -1000, "trial_type": "single-audio", "word": "chemist", "stimulus": "/static/audio/wordpool/CHEMIST.wav", "conditions": [12, 1600, "a", 24000], "internal_node_id": "0.0-68.0", "trial": 2, "time_elapsed": 648409, "serialpos": 6, "key_press": -1, "wordID": 291, "type": "PRES_AUD", "trial_index": 95}, "uniqueid": "MTK2917:37C0GNLMHGATTZ8LNZ3GK3EFGMW6DE", "dateTime": 1519588852519}, {"current_trial": 96, "trialdata": {"rt": -1000, "trial_type": "single-audio", "word": "mailman", "stimulus": "/static/audio/wordpool/MAILMAN.wav", "conditions": [12, 1600, "a", 24000], "internal_node_id": "0.0-69.0", "trial": 2, "time_elapsed": 651189, "serialpos": 7, "key_press": -1, "wordID": 857, "type": "PRES_AUD", "trial_index": 96}, "uniqueid": "MTK2917:37C0GNLMHGATTZ8LNZ3GK3EFGMW6DE", "dateTime": 1519588855299}, {"current_trial": 97, "trialdata": {"rt": -1000, "trial_type": "single-audio", "word": "bison", "stimulus": "/static/audio/wordpool/BISON.wav", "conditions": [12, 1600, "a", 24000], "internal_node_id": "0.0-70.0", "trial": 2, "time_elapsed": 653919, "serialpos": 8, "key_press": -1, "wordID": 130, "type": "PRES_AUD", "trial_index": 97}, "uniqueid": "MTK2917:37C0GNLMHGATTZ8LNZ3GK3EFGMW6DE", "dateTime": 1519588858029}, {"current_trial": 98, "trialdata": {"rt": -1000, "trial_type": "single-audio", "word": "flute", "stimulus": "/static/audio/wordpool/FLUTE.wav", "conditions": [12, 1600, "a", 24000], "internal_node_id": "0.0-71.0", "trial": 2, "time_elapsed": 656702, "serialpos": 9, "key_press": -1, "wordID": 584, "type": "PRES_AUD", "trial_index": 98}, "uniqueid": "MTK2917:37C0GNLMHGATTZ8LNZ3GK3EFGMW6DE", "dateTime": 1519588860812}, {"current_trial": 99, "trialdata": {"rt": -1000, "trial_type": "single-audio", "word": "boyfriend", "stimulus": "/static/audio/wordpool/BOYFRIEND.wav", "conditions": [12, 1600, "a", 24000], "internal_node_id": "0.0-72.0", "trial": 2, "time_elapsed": 659503, "serialpos": 10, "key_press": -1, "wordID": 161, "type": "PRES_AUD", "trial_index": 99}, "uniqueid": "MTK2917:37C0GNLMHGATTZ8LNZ3GK3EFGMW6DE", "dateTime": 1519588863613}, {"current_trial": 100, "trialdata": {"rt": -1000, "trial_type": "single-audio", "word": "lover", "stimulus": "/static/audio/wordpool/LOVER.wav", "conditions": [12, 1600, "a", 24000], "internal_node_id": "0.0-73.0", "trial": 2, "time_elapsed": 661993, "serialpos": 11, "key_press": -1, "wordID": 845, "type": "PRES_AUD", "trial_index": 100}, "uniqueid": "MTK2917:37C0GNLMHGATTZ8LNZ3GK3EFGMW6DE", "dateTime": 1519588866103}, {"current_trial": 101, "trialdata": {"rt": -1, "trial_type": "single-stim", "stimulus": "", "internal_node_id": "0.0-74.0-0.0", "time_elapsed": 663382, "key_press": -1, "type": "PRE_RECALL_DELAY", "trial_index": 101}, "uniqueid": "MTK2917:37C0GNLMHGATTZ8LNZ3GK3EFGMW6DE", "dateTime": 1519588867492}, {"current_trial": 102, "trialdata": {"rt": -1000, "trial_type": "single-audio", "stimulus": "/static/audio/400Hz.wav", "internal_node_id": "0.0-75.0", "time_elapsed": 663886, "key_press": -1, "type": "PRE_RECALL_ALERT", "trial_index": 102}, "uniqueid": "MTK2917:37C0GNLMHGATTZ8LNZ3GK3EFGMW6DE", "dateTime": 1519588867996}, {"current_trial": 103, "trialdata": {"rt": [2077, 3046, 4453, 5653, 7066, 8962, 11982, 13845, 30364, 33571, 40815], "recwords": ["boyfriend", "lover", "burger", "lagoon", "blouse", "bacon", "chemist", "robin", "flute", "fiddle", "bison"], "key_times": [890, 1152, 1394, 1480, 1593, 1666, 1783, 1850, 1956, 2077, 2318, 2525, 2613, 2716, 2903, 3046, 3700, 3916, 4003, 4106, 4196, 4330, 4453, 4672, 4783, 4960, 5052, 5192, 5370, 5653, 6106, 6206, 6366, 6543, 6730, 6900, 7066, 7666, 7943, 8165, 8442, 8670, 8962, 11111, 11242, 11348, 11478, 11590, 11685, 11868, 11982, 13105, 13225, 13368, 13472, 13647, 13845, 29721, 29811, 30011, 30054, 30221, 30364, 32328, 32538, 32917, 33092, 33160, 33424, 33571, 40152, 40333, 40433, 40500, 40656, 40815], "trial_type": "free-recall", "conditions": [12, 1600, "a", 24000], "internal_node_id": "0.0-76.0-0.0", "key_presses": [66, 79, 89, 70, 82, 73, 69, 78, 68, 13, 76, 79, 86, 69, 82, 13, 66, 85, 82, 71, 69, 82, 13, 76, 65, 71, 79, 79, 78, 13, 66, 76, 79, 85, 83, 69, 13, 66, 65, 67, 79, 78, 13, 67, 72, 69, 77, 73, 83, 84, 13, 82, 79, 66, 73, 78, 13, 70, 76, 85, 84, 69, 13, 70, 73, 68, 68, 76, 69, 13, 66, 73, 83, 79, 78, 13], "trial": 2, "time_elapsed": 723887, "type": "FREE_RECALL", "trial_index": 103}, "uniqueid": "MTK2917:37C0GNLMHGATTZ8LNZ3GK3EFGMW6DE", "dateTime": 1519588928003}, {"current_trial": 104, "trialdata": {"rt": 99425, "trial_type": "text", "internal_node_id": "0.0-77.0", "time_elapsed": 825319, "key_press": 32, "type": "INSTRUCTIONS", "trial_index": 104}, "uniqueid": "MTK2917:37C0GNLMHGATTZ8LNZ3GK3EFGMW6DE", "dateTime": 1519589029429}, {"current_trial": 105, "trialdata": {"rt": [2231, 4233, 7151, 8696, 10189, 11781], "trial_type": "math-distractor", "key_times": [1933, 2116, 2231, 3935, 4233, 5862, 6072, 6742, 7010, 7151, 8333, 8556, 8696, 9841, 10060, 10189, 11449, 11781], "responses": ["12", "9", "16", "12", "13", "6"], "num2": [5, 2, 5, 3, 5, 1, 2], "num3": [4, 6, 2, 1, 6, 3, 9], "conditions": [12, 1600, "a", 12000], "internal_node_id": "0.0-78.0", "key_presses": [49, 50, 13, 57, 13, 49, 55, 8, 54, 13, 49, 50, 13, 49, 51, 13, 54, 13], "trial": 3, "time_elapsed": 839322, "type": "DISTRACTOR", "trial_index": 105, "num1": [3, 1, 9, 8, 2, 2, 3]}, "uniqueid": "MTK2917:37C0GNLMHGATTZ8LNZ3GK3EFGMW6DE", "dateTime": 1519589043432}, {"current_trial": 106, "trialdata": {"rt": -1, "trial_type": "single-stim", "stimulus": "<p id=\"stim\">10</p>", "internal_node_id": "0.0-79.0-0.0", "time_elapsed": 842324, "key_press": -1, "trial_index": 106}, "uniqueid": "MTK2917:37C0GNLMHGATTZ8LNZ3GK3EFGMW6DE", "dateTime": 1519589046434}, {"current_trial": 107, "trialdata": {"rt": -1, "trial_type": "single-stim", "stimulus": "<p id=\"stim\">9</p>", "internal_node_id": "0.0-79.0-1.0", "time_elapsed": 843325, "key_press": -1, "trial_index": 107}, "uniqueid": "MTK2917:37C0GNLMHGATTZ8LNZ3GK3EFGMW6DE", "dateTime": 1519589047435}, {"current_trial": 108, "trialdata": {"rt": -1, "trial_type": "single-stim", "stimulus": "<p id=\"stim\">8</p>", "internal_node_id": "0.0-79.0-2.0", "time_elapsed": 844325, "key_press": -1, "trial_index": 108}, "uniqueid": "MTK2917:37C0GNLMHGATTZ8LNZ3GK3EFGMW6DE", "dateTime": 1519589048436}, {"current_trial": 109, "trialdata": {"rt": -1, "trial_type": "single-stim", "stimulus": "<p id=\"stim\">7</p>", "internal_node_id": "0.0-79.0-3.0", "time_elapsed": 845326, "key_press": -1, "trial_index": 109}, "uniqueid": "MTK2917:37C0GNLMHGATTZ8LNZ3GK3EFGMW6DE", "dateTime": 1519589049437}, {"current_trial": 110, "trialdata": {"rt": -1, "trial_type": "single-stim", "stimulus": "<p id=\"stim\">6</p>", "internal_node_id": "0.0-79.0-4.0", "time_elapsed": 846328, "key_press": -1, "trial_index": 110}, "uniqueid": "MTK2917:37C0GNLMHGATTZ8LNZ3GK3EFGMW6DE", "dateTime": 1519589050438}, {"current_trial": 111, "trialdata": {"rt": -1, "trial_type": "single-stim", "stimulus": "<p id=\"stim\">5</p>", "internal_node_id": "0.0-79.0-5.0", "time_elapsed": 847330, "key_press": -1, "trial_index": 111}, "uniqueid": "MTK2917:37C0GNLMHGATTZ8LNZ3GK3EFGMW6DE", "dateTime": 1519589051440}, {"current_trial": 112, "trialdata": {"rt": -1, "trial_type": "single-stim", "stimulus": "<p id=\"stim\">4</p>", "internal_node_id": "0.0-79.0-6.0", "time_elapsed": 848331, "key_press": -1, "trial_index": 112}, "uniqueid": "MTK2917:37C0GNLMHGATTZ8LNZ3GK3EFGMW6DE", "dateTime": 1519589052441}, {"current_trial": 113, "trialdata": {"rt": -1, "trial_type": "single-stim", "stimulus": "<p id=\"stim\">3</p>", "internal_node_id": "0.0-79.0-7.0", "time_elapsed": 849331, "key_press": -1, "trial_index": 113}, "uniqueid": "MTK2917:37C0GNLMHGATTZ8LNZ3GK3EFGMW6DE", "dateTime": 1519589053442}, {"current_trial": 114, "trialdata": {"rt": -1, "trial_type": "single-stim", "stimulus": "<p id=\"stim\">2</p>", "internal_node_id": "0.0-79.0-8.0", "time_elapsed": 850333, "key_press": -1, "trial_index": 114}, "uniqueid": "MTK2917:37C0GNLMHGATTZ8LNZ3GK3EFGMW6DE", "dateTime": 1519589054443}, {"current_trial": 115, "trialdata": {"rt": -1, "trial_type": "single-stim", "stimulus": "<p id=\"stim\">1</p>", "internal_node_id": "0.0-79.0-9.0", "time_elapsed": 851334, "key_press": -1, "trial_index": 115}, "uniqueid": "MTK2917:37C0GNLMHGATTZ8LNZ3GK3EFGMW6DE", "dateTime": 1519589055444}, {"current_trial": 116, "trialdata": {"rt": -1, "trial_type": "single-stim", "stimulus": "<p id=\"stim\">+</p>", "internal_node_id": "0.0-80.0-0.0", "time_elapsed": 852835, "key_press": -1, "type": "FIXATION", "trial_index": 116}, "uniqueid": "MTK2917:37C0GNLMHGATTZ8LNZ3GK3EFGMW6DE", "dateTime": 1519589056945}, {"current_trial": 117, "trialdata": {"rt": -1000, "trial_type": "single-audio", "word": "crayon", "stimulus": "/static/audio/wordpool/CRAYON.wav", "conditions": [12, 1600, "a", 12000], "internal_node_id": "0.0-81.0", "trial": 3, "time_elapsed": 855415, "serialpos": 0, "key_press": -1, "wordID": 400, "type": "PRES_AUD", "trial_index": 117}, "uniqueid": "MTK2917:37C0GNLMHGATTZ8LNZ3GK3EFGMW6DE", "dateTime": 1519589059525}, {"current_trial": 118, "trialdata": {"rt": -1000, "trial_type": "single-audio", "word": "freckle", "stimulus": "/static/audio/wordpool/FRECKLE.wav", "conditions": [12, 1600, "a", 12000], "internal_node_id": "0.0-82.0", "trial": 3, "time_elapsed": 858185, "serialpos": 1, "key_press": -1, "wordID": 601, "type": "PRES_AUD", "trial_index": 118}, "uniqueid": "MTK2917:37C0GNLMHGATTZ8LNZ3GK3EFGMW6DE", "dateTime": 1519589062295}, {"current_trial": 119, "trialdata": {"rt": -1000, "trial_type": "single-audio", "word": "patrol", "stimulus": "/static/audio/wordpool/PATROL.wav", "conditions": [12, 1600, "a", 12000], "internal_node_id": "0.0-83.0", "trial": 3, "time_elapsed": 860785, "serialpos": 2, "key_press": -1, "wordID": 1026, "type": "PRES_AUD", "trial_index": 119}, "uniqueid": "MTK2917:37C0GNLMHGATTZ8LNZ3GK3EFGMW6DE", "dateTime": 1519589064895}, {"current_trial": 120, "trialdata": {"rt": -1000, "trial_type": "single-audio", "word": "ozone", "stimulus": "/static/audio/wordpool/OZONE.wav", "conditions": [12, 1600, "a", 12000], "internal_node_id": "0.0-84.0", "trial": 3, "time_elapsed": 863415, "serialpos": 3, "key_press": -1, "wordID": 995, "type": "PRES_AUD", "trial_index": 120}, "uniqueid": "MTK2917:37C0GNLMHGATTZ8LNZ3GK3EFGMW6DE", "dateTime": 1519589067525}, {"current_trial": 121, "trialdata": {"rt": -1000, "trial_type": "single-audio", "word": "twister", "stimulus": "/static/audio/wordpool/TWISTER.wav", "conditions": [12, 1600, "a", 12000], "internal_node_id": "0.0-85.0", "trial": 3, "time_elapsed": 866175, "serialpos": 4, "key_press": -1, "wordID": 1529, "type": "PRES_AUD", "trial_index": 121}, "uniqueid": "MTK2917:37C0GNLMHGATTZ8LNZ3GK3EFGMW6DE", "dateTime": 1519589070285}, {"current_trial": 122, "trialdata": {"rt": -1000, "trial_type": "single-audio", "word": "peach", "stimulus": "/static/audio/wordpool/PEACH.wav", "conditions": [12, 1600, "a", 12000], "internal_node_id": "0.0-86.0", "trial": 3, "time_elapsed": 868905, "serialpos": 5, "key_press": -1, "wordID": 1030, "type": "PRES_AUD", "trial_index": 122}, "uniqueid": "MTK2917:37C0GNLMHGATTZ8LNZ3GK3EFGMW6DE", "dateTime": 1519589073015}, {"current_trial": 123, "trialdata": {"rt": -1000, "trial_type": "single-audio", "word": "girl", "stimulus": "/static/audio/wordpool/GIRL.wav", "conditions": [12, 1600, "a", 12000], "internal_node_id": "0.0-87.0", "trial": 3, "time_elapsed": 871515, "serialpos": 6, "key_press": -1, "wordID": 636, "type": "PRES_AUD", "trial_index": 123}, "uniqueid": "MTK2917:37C0GNLMHGATTZ8LNZ3GK3EFGMW6DE", "dateTime": 1519589075625}, {"current_trial": 124, "trialdata": {"rt": -1000, "trial_type": "single-audio", "word": "princess", "stimulus": "/static/audio/wordpool/PRINCESS.wav", "conditions": [12, 1600, "a", 12000], "internal_node_id": "0.0-88.0", "trial": 3, "time_elapsed": 874095, "serialpos": 7, "key_press": -1, "wordID": 1124, "type": "PRES_AUD", "trial_index": 124}, "uniqueid": "MTK2917:37C0GNLMHGATTZ8LNZ3GK3EFGMW6DE", "dateTime": 1519589078205}, {"current_trial": 125, "trialdata": {"rt": -1000, "trial_type": "single-audio", "word": "pimple", "stimulus": "/static/audio/wordpool/PIMPLE.wav", "conditions": [12, 1600, "a", 12000], "internal_node_id": "0.0-89.0", "trial": 3, "time_elapsed": 876855, "serialpos": 8, "key_press": -1, "wordID": 1070, "type": "PRES_AUD", "trial_index": 125}, "uniqueid": "MTK2917:37C0GNLMHGATTZ8LNZ3GK3EFGMW6DE", "dateTime": 1519589080965}, {"current_trial": 126, "trialdata": {"rt": -1000, "trial_type": "single-audio", "word": "mask", "stimulus": "/static/audio/wordpool/MASK.wav", "conditions": [12, 1600, "a", 12000], "internal_node_id": "0.0-90.0", "trial": 3, "time_elapsed": 879515, "serialpos": 9, "key_press": -1, "wordID": 875, "type": "PRES_AUD", "trial_index": 126}, "uniqueid": "MTK2917:37C0GNLMHGATTZ8LNZ3GK3EFGMW6DE", "dateTime": 1519589083625}, {"current_trial": 127, "trialdata": {"rt": -1000, "trial_type": "single-audio", "word": "captive", "stimulus": "/static/audio/wordpool/CAPTIVE.wav", "conditions": [12, 1600, "a", 12000], "internal_node_id": "0.0-91.0", "trial": 3, "time_elapsed": 882055, "serialpos": 10, "key_press": -1, "wordID": 239, "type": "PRES_AUD", "trial_index": 127}, "uniqueid": "MTK2917:37C0GNLMHGATTZ8LNZ3GK3EFGMW6DE", "dateTime": 1519589086165}, {"current_trial": 128, "trialdata": {"rt": -1000, "trial_type": "single-audio", "word": "creature", "stimulus": "/static/audio/wordpool/CREATURE.wav", "conditions": [12, 1600, "a", 12000], "internal_node_id": "0.0-92.0", "trial": 3, "time_elapsed": 884585, "serialpos": 11, "key_press": -1, "wordID": 402, "type": "PRES_AUD", "trial_index": 128}, "uniqueid": "MTK2917:37C0GNLMHGATTZ8LNZ3GK3EFGMW6DE", "dateTime": 1519589088695}, {"current_trial": 129, "trialdata": {"rt": -1, "trial_type": "single-stim", "stimulus": "", "internal_node_id": "0.0-93.0-0.0", "time_elapsed": 885837, "key_press": -1, "type": "PRE_RECALL_DELAY", "trial_index": 129}, "uniqueid": "MTK2917:37C0GNLMHGATTZ8LNZ3GK3EFGMW6DE", "dateTime": 1519589089947}, {"current_trial": 130, "trialdata": {"rt": -1000, "trial_type": "single-audio", "stimulus": "/static/audio/400Hz.wav", "internal_node_id": "0.0-94.0", "time_elapsed": 886345, "key_press": -1, "type": "PRE_RECALL_ALERT", "trial_index": 130}, "uniqueid": "MTK2917:37C0GNLMHGATTZ8LNZ3GK3EFGMW6DE", "dateTime": 1519589090455}, {"current_trial": 131, "trialdata": {"rt": [2095, 4752, 6018, 7660, 8590, 10434, 12304, 17364, 18690, 22384], "recwords": ["creature", "captive", "crayon", "princess", "peach", "purple", "people", "patrol", "police", "freckle"], "key_times": [890, 1142, 1309, 1485, 1549, 1721, 1794, 1947, 2095, 2359, 2805, 3408, 3552, 3917, 4189, 4405, 4465, 4612, 4752, 4915, 5092, 5288, 5327, 5517, 5682, 6018, 6502, 6615, 6762, 6972, 7070, 7232, 7408, 7562, 7660, 7852, 7945, 8095, 8255, 8322, 8590, 8835, 9347, 9474, 10031, 10207, 10301, 10434, 10648, 10724, 10881, 11591, 11814, 11960, 12104, 12150, 12304, 16390, 16484, 16719, 16900, 16974, 17150, 17364, 17846, 18037, 18187, 18339, 18383, 18557, 18690, 21070, 21270, 21450, 21603, 21713, 21883, 21957, 22384], "trial_type": "free-recall", "conditions": [12, 1600, "a", 12000], "internal_node_id": "0.0-95.0-0.0", "key_presses": [67, 82, 69, 65, 84, 85, 82, 69, 13, 67, 65, 80, 84, 86, 8, 73, 86, 69, 13, 67, 82, 65, 89, 79, 78, 13, 80, 82, 73, 78, 67, 69, 83, 83, 13, 80, 69, 65, 67, 72, 13, 80, 85, 82, 80, 76, 69, 13, 80, 69, 65, 8, 79, 80, 76, 69, 13, 80, 65, 84, 82, 79, 76, 13, 80, 79, 76, 73, 67, 69, 13, 70, 82, 69, 67, 75, 76, 69, 13], "trial": 3, "time_elapsed": 946346, "type": "FREE_RECALL", "trial_index": 131}, "uniqueid": "MTK2917:37C0GNLMHGATTZ8LNZ3GK3EFGMW6DE", "dateTime": 1519589150464}, {"current_trial": 132, "trialdata": {"rt": 1198, "trial_type": "text", "internal_node_id": "0.0-96.0", "time_elapsed": 949554, "key_press": 32, "type": "INSTRUCTIONS", "trial_index": 132}, "uniqueid": "MTK2917:37C0GNLMHGATTZ8LNZ3GK3EFGMW6DE", "dateTime": 1519589153664}, {"current_trial": 133, "trialdata": {"rt": [1787, 7431, 9498, 11856, 13948, 16445, 18734, 20392, 22514, 23919], "trial_type": "math-distractor", "key_times": [1463, 1658, 1787, 4054, 4203, 5005, 7122, 7431, 9199, 9384, 9498, 11473, 11712, 11856, 13513, 13618, 13948, 16036, 16136, 16445, 18159, 18354, 18734, 19973, 20074, 20392, 22110, 22209, 22514, 23645, 23919], "responses": ["12", "23", "21", "14", "15", "19", "24", "17", "16", "6"], "num2": [2, 9, 7, 5, 8, 7, 9, 1, 5, 1, 6], "num3": [3, 8, 5, 3, 4, 7, 6, 9, 3, 3, 2], "conditions": [12, 1600, "a", 24000], "internal_node_id": "0.0-97.0", "key_presses": [49, 50, 13, 50, 50, 8, 51, 13, 50, 49, 13, 49, 52, 13, 49, 53, 13, 49, 57, 13, 50, 52, 13, 49, 55, 13, 49, 54, 13, 54, 13], "trial": 4, "time_elapsed": 975557, "type": "DISTRACTOR", "trial_index": 133, "num1": [7, 6, 9, 6, 3, 5, 9, 7, 8, 2, 2]}, "uniqueid": "MTK2917:37C0GNLMHGATTZ8LNZ3GK3EFGMW6DE", "dateTime": 1519589179667}, {"current_trial": 134, "trialdata": {"rt": -1, "trial_type": "single-stim", "stimulus": "<p id=\"stim\">10</p>", "internal_node_id": "0.0-98.0-0.0", "time_elapsed": 978558, "key_press": -1, "trial_index": 134}, "uniqueid": "MTK2917:37C0GNLMHGATTZ8LNZ3GK3EFGMW6DE", "dateTime": 1519589182668}, {"current_trial": 135, "trialdata": {"rt": -1, "trial_type": "single-stim", "stimulus": "<p id=\"stim\">9</p>", "internal_node_id": "0.0-98.0-1.0", "time_elapsed": 979559, "key_press": -1, "trial_index": 135}, "uniqueid": "MTK2917:37C0GNLMHGATTZ8LNZ3GK3EFGMW6DE", "dateTime": 1519589183669}, {"current_trial": 136, "trialdata": {"rt": -1, "trial_type": "single-stim", "stimulus": "<p id=\"stim\">8</p>", "internal_node_id": "0.0-98.0-2.0", "time_elapsed": 980559, "key_press": -1, "trial_index": 136}, "uniqueid": "MTK2917:37C0GNLMHGATTZ8LNZ3GK3EFGMW6DE", "dateTime": 1519589184670}, {"current_trial": 137, "trialdata": {"rt": -1, "trial_type": "single-stim", "stimulus": "<p id=\"stim\">7</p>", "internal_node_id": "0.0-98.0-3.0", "time_elapsed": 981561, "key_press": -1, "trial_index": 137}, "uniqueid": "MTK2917:37C0GNLMHGATTZ8LNZ3GK3EFGMW6DE", "dateTime": 1519589185671}, {"current_trial": 138, "trialdata": {"rt": -1, "trial_type": "single-stim", "stimulus": "<p id=\"stim\">6</p>", "internal_node_id": "0.0-98.0-4.0", "time_elapsed": 982562, "key_press": -1, "trial_index": 138}, "uniqueid": "MTK2917:37C0GNLMHGATTZ8LNZ3GK3EFGMW6DE", "dateTime": 1519589186672}, {"current_trial": 139, "trialdata": {"rt": -1, "trial_type": "single-stim", "stimulus": "<p id=\"stim\">5</p>", "internal_node_id": "0.0-98.0-5.0", "time_elapsed": 983563, "key_press": -1, "trial_index": 139}, "uniqueid": "MTK2917:37C0GNLMHGATTZ8LNZ3GK3EFGMW6DE", "dateTime": 1519589187673}, {"current_trial": 140, "trialdata": {"rt": -1, "trial_type": "single-stim", "stimulus": "<p id=\"stim\">4</p>", "internal_node_id": "0.0-98.0-6.0", "time_elapsed": 984564, "key_press": -1, "trial_index": 140}, "uniqueid": "MTK2917:37C0GNLMHGATTZ8LNZ3GK3EFGMW6DE", "dateTime": 1519589188674}, {"current_trial": 141, "trialdata": {"rt": -1, "trial_type": "single-stim", "stimulus": "<p id=\"stim\">3</p>", "internal_node_id": "0.0-98.0-7.0", "time_elapsed": 985565, "key_press": -1, "trial_index": 141}, "uniqueid": "MTK2917:37C0GNLMHGATTZ8LNZ3GK3EFGMW6DE", "dateTime": 1519589189675}, {"current_trial": 142, "trialdata": {"rt": -1, "trial_type": "single-stim", "stimulus": "<p id=\"stim\">2</p>", "internal_node_id": "0.0-98.0-8.0", "time_elapsed": 986566, "key_press": -1, "trial_index": 142}, "uniqueid": "MTK2917:37C0GNLMHGATTZ8LNZ3GK3EFGMW6DE", "dateTime": 1519589190676}, {"current_trial": 143, "trialdata": {"rt": -1, "trial_type": "single-stim", "stimulus": "<p id=\"stim\">1</p>", "internal_node_id": "0.0-98.0-9.0", "time_elapsed": 987567, "key_press": -1, "trial_index": 143}, "uniqueid": "MTK2917:37C0GNLMHGATTZ8LNZ3GK3EFGMW6DE", "dateTime": 1519589191677}, {"current_trial": 144, "trialdata": {"rt": -1, "trial_type": "single-stim", "stimulus": "<p id=\"stim\">+</p>", "internal_node_id": "0.0-99.0-0.0", "time_elapsed": 989068, "key_press": -1, "type": "FIXATION", "trial_index": 144}, "uniqueid": "MTK2917:37C0GNLMHGATTZ8LNZ3GK3EFGMW6DE", "dateTime": 1519589193178}, {"current_trial": 145, "trialdata": {"rt": -1000, "trial_type": "single-audio", "word": "shorts", "stimulus": "/static/audio/wordpool/SHORTS.wav", "conditions": [12, 1600, "a", 24000], "internal_node_id": "0.0-100.0", "trial": 4, "time_elapsed": 991814, "serialpos": 0, "key_press": -1, "wordID": 1292, "type": "PRES_AUD", "trial_index": 145}, "uniqueid": "MTK2917:37C0GNLMHGATTZ8LNZ3GK3EFGMW6DE", "dateTime": 1519589195924}, {"current_trial": 146, "trialdata": {"rt": -1000, "trial_type": "single-audio", "word": "pork", "stimulus": "/static/audio/wordpool/PORK.wav", "conditions": [12, 1600, "a", 24000], "internal_node_id": "0.0-101.0", "trial": 4, "time_elapsed": 994254, "serialpos": 1, "key_press": -1, "wordID": 1107, "type": "PRES_AUD", "trial_index": 146}, "uniqueid": "MTK2917:37C0GNLMHGATTZ8LNZ3GK3EFGMW6DE", "dateTime": 1519589198364}, {"current_trial": 147, "trialdata": {"rt": -1000, "trial_type": "single-audio", "word": "beaver", "stimulus": "/static/audio/wordpool/BEAVER.wav", "conditions": [12, 1600, "a", 24000], "internal_node_id": "0.0-102.0", "trial": 4, "time_elapsed": 996714, "serialpos": 2, "key_press": -1, "wordID": 108, "type": "PRES_AUD", "trial_index": 147}, "uniqueid": "MTK2917:37C0GNLMHGATTZ8LNZ3GK3EFGMW6DE", "dateTime": 1519589200824}, {"current_trial": 148, "trialdata": {"rt": -1000, "trial_type": "single-audio", "word": "canal", "stimulus": "/static/audio/wordpool/CANAL.wav", "conditions": [12, 1600, "a", 24000], "internal_node_id": "0.0-103.0", "trial": 4, "time_elapsed": 999184, "serialpos": 3, "key_press": -1, "wordID": 225, "type": "PRES_AUD", "trial_index": 148}, "uniqueid": "MTK2917:37C0GNLMHGATTZ8LNZ3GK3EFGMW6DE", "dateTime": 1519589203294}, {"current_trial": 149, "trialdata": {"rt": -1000, "trial_type": "single-audio", "word": "bank", "stimulus": "/static/audio/wordpool/BANK.wav", "conditions": [12, 1600, "a", 24000], "internal_node_id": "0.0-104.0", "trial": 4, "time_elapsed": 1001624, "serialpos": 4, "key_press": -1, "wordID": 82, "type": "PRES_AUD", "trial_index": 149}, "uniqueid": "MTK2917:37C0GNLMHGATTZ8LNZ3GK3EFGMW6DE", "dateTime": 1519589205734}, {"current_trial": 150, "trialdata": {"rt": -1000, "trial_type": "single-audio", "word": "washer", "stimulus": "/static/audio/wordpool/WASHER.wav", "conditions": [12, 1600, "a", 24000], "internal_node_id": "0.0-105.0", "trial": 4, "time_elapsed": 1004414, "serialpos": 5, "key_press": -1, "wordID": 1591, "type": "PRES_AUD", "trial_index": 150}, "uniqueid": "MTK2917:37C0GNLMHGATTZ8LNZ3GK3EFGMW6DE", "dateTime": 1519589208524}, {"current_trial": 151, "trialdata": {"rt": -1000, "trial_type": "single-audio", "word": "custard", "stimulus": "/static/audio/wordpool/CUSTARD.wav", "conditions": [12, 1600, "a", 24000], "internal_node_id": "0.0-106.0", "trial": 4, "time_elapsed": 1007154, "serialpos": 6, "key_press": -1, "wordID": 428, "type": "PRES_AUD", "trial_index": 151}, "uniqueid": "MTK2917:37C0GNLMHGATTZ8LNZ3GK3EFGMW6DE", "dateTime": 1519589211264}, {"current_trial": 152, "trialdata": {"rt": -1000, "trial_type": "single-audio", "word": "chipmunk", "stimulus": "/static/audio/wordpool/CHIPMUNK.wav", "conditions": [12, 1600, "a", 24000], "internal_node_id": "0.0-107.0", "trial": 4, "time_elapsed": 1009774, "serialpos": 7, "key_press": -1, "wordID": 303, "type": "PRES_AUD", "trial_index": 152}, "uniqueid": "MTK2917:37C0GNLMHGATTZ8LNZ3GK3EFGMW6DE", "dateTime": 1519589213884}, {"current_trial": 153, "trialdata": {"rt": -1000, "trial_type": "single-audio", "word": "razor", "stimulus": "/static/audio/wordpool/RAZOR.wav", "conditions": [12, 1600, "a", 24000], "internal_node_id": "0.0-108.0", "trial": 4, "time_elapsed": 1012214, "serialpos": 8, "key_press": -1, "wordID": 1170, "type": "PRES_AUD", "trial_index": 153}, "uniqueid": "MTK2917:37C0GNLMHGATTZ8LNZ3GK3EFGMW6DE", "dateTime": 1519589216324}, {"current_trial": 154, "trialdata": {"rt": -1000, "trial_type": "single-audio", "word": "knife", "stimulus": "/static/audio/wordpool/KNIFE.wav", "conditions": [12, 1600, "a", 24000], "internal_node_id": "0.0-109.0", "trial": 4, "time_elapsed": 1014634, "serialpos": 9, "key_press": -1, "wordID": 784, "type": "PRES_AUD", "trial_index": 154}, "uniqueid": "MTK2917:37C0GNLMHGATTZ8LNZ3GK3EFGMW6DE", "dateTime": 1519589218744}, {"current_trial": 155, "trialdata": {"rt": -1000, "trial_type": "single-audio", "word": "candy", "stimulus": "/static/audio/wordpool/CANDY.wav", "conditions": [12, 1600, "a", 24000], "internal_node_id": "0.0-110.0", "trial": 4, "time_elapsed": 1017374, "serialpos": 10, "key_press": -1, "wordID": 229, "type": "PRES_AUD", "trial_index": 155}, "uniqueid": "MTK2917:37C0GNLMHGATTZ8LNZ3GK3EFGMW6DE", "dateTime": 1519589221484}, {"current_trial": 156, "trialdata": {"rt": -1000, "trial_type": "single-audio", "word": "blueprint", "stimulus": "/static/audio/wordpool/BLUEPRINT.wav", "conditions": [12, 1600, "a", 24000], "internal_node_id": "0.0-111.0", "trial": 4, "time_elapsed": 1019824, "serialpos": 11, "key_press": -1, "wordID": 141, "type": "PRES_AUD", "trial_index": 156}, "uniqueid": "MTK2917:37C0GNLMHGATTZ8LNZ3GK3EFGMW6DE", "dateTime": 1519589223934}, {"current_trial": 157, "trialdata": {"rt": -1, "trial_type": "single-stim", "stimulus": "", "internal_node_id": "0.0-112.0-0.0", "time_elapsed": 1021034, "key_press": -1, "type": "PRE_RECALL_DELAY", "trial_index": 157}, "uniqueid": "MTK2917:37C0GNLMHGATTZ8LNZ3GK3EFGMW6DE", "dateTime": 1519589225144}, {"current_trial": 158, "trialdata": {"rt": -1000, "trial_type": "single-audio", "stimulus": "/static/audio/400Hz.wav", "internal_node_id": "0.0-113.0", "time_elapsed": 1021538, "key_press": -1, "type": "PRE_RECALL_ALERT", "trial_index": 158}, "uniqueid": "MTK2917:37C0GNLMHGATTZ8LNZ3GK3EFGMW6DE", "dateTime": 1519589225648}, {"current_trial": 159, "trialdata": {"rt": [1632, 3822, 4962, 7256, 9352, 10715, 16105, 19599, 34263, 49284], "recwords": ["blueprint", "chipmunk", "beaver", "bank", "knife", "razor", "candy", "short", "canal", "blueprint"], "key_times": [526, 634, 840, 884, 1060, 1167, 1244, 1370, 1444, 1632, 1903, 2016, 2222, 2412, 3049, 3239, 3389, 3576, 3822, 4131, 4232, 4392, 4446, 4586, 4759, 4962, 6646, 6749, 6829, 7002, 7256, 8682, 8849, 9016, 9067, 9212, 9352, 9611, 9832, 10049, 10245, 10495, 10715, 15285, 15519, 15622, 15742, 15801, 16105, 18392, 18478, 18694, 19055, 19282, 19358, 19485, 19599, 32851, 33539, 33706, 33844, 33998, 34263, 47300, 48088, 48319, 48438, 48617, 48743, 48817, 48977, 48994, 49284, 54032, 58855, 59260], "trial_type": "free-recall", "conditions": [12, 1600, "a", 24000], "internal_node_id": "0.0-114.0-0.0", "key_presses": [66, 76, 85, 69, 80, 82, 73, 78, 84, 13, 67, 72, 73, 80, 77, 85, 78, 75, 13, 66, 69, 65, 86, 69, 82, 13, 66, 65, 78, 75, 13, 75, 78, 73, 70, 69, 13, 82, 65, 90, 79, 82, 13, 67, 65, 78, 68, 89, 13, 83, 72, 82, 8, 79, 82, 84, 13, 67, 65, 78, 65, 76, 13, 66, 76, 85, 69, 80, 82, 73, 78, 84, 13, 87, 8, 87], "trial": 4, "time_elapsed": 1081539, "type": "FREE_RECALL", "trial_index": 159}, "uniqueid": "MTK2917:37C0GNLMHGATTZ8LNZ3GK3EFGMW6DE", "dateTime": 1519589285656}, {"current_trial": 160, "trialdata": {"rt": 926, "trial_type": "text", "internal_node_id": "0.0-115.0", "time_elapsed": 1084473, "key_press": 32, "type": "INSTRUCTIONS", "trial_index": 160}, "uniqueid": "MTK2917:37C0GNLMHGATTZ8LNZ3GK3EFGMW6DE", "dateTime": 1519589288583}, {"current_trial": 161, "trialdata": {"rt": [1553, 3056, 4404, 6103, 7967, 9778, 11490], "trial_type": "math-distractor", "key_times": [980, 1218, 1553, 2702, 2927, 3056, 4041, 4268, 4404, 5654, 5768, 6103, 7479, 7598, 7967, 9511, 9778, 10881, 11161, 11490], "responses": ["16", "13", "14", "17", "16", "9", "16"], "num2": [5, 7, 9, 5, 6, 7, 7, 8], "num3": [6, 5, 1, 8, 4, 1, 2, 9], "conditions": [12, 1600, "a", 12000], "internal_node_id": "0.0-116.0", "key_presses": [49, 54, 13, 49, 51, 13, 49, 52, 13, 49, 55, 13, 49, 54, 13, 57, 13, 49, 54, 13], "trial": 5, "time_elapsed": 1098477, "type": "DISTRACTOR", "trial_index": 161, "num1": [5, 1, 4, 4, 6, 3, 7, 4]}, "uniqueid": "MTK2917:37C0GNLMHGATTZ8LNZ3GK3EFGMW6DE", "dateTime": 1519589302587}, {"current_trial": 162, "trialdata": {"rt": -1, "trial_type": "single-stim", "stimulus": "<p id=\"stim\">10</p>", "internal_node_id": "0.0-117.0-0.0", "time_elapsed": 1101478, "key_press": -1, "trial_index": 162}, "uniqueid": "MTK2917:37C0GNLMHGATTZ8LNZ3GK3EFGMW6DE", "dateTime": 1519589305588}, {"current_trial": 163, "trialdata": {"rt": -1, "trial_type": "single-stim", "stimulus": "<p id=\"stim\">9</p>", "internal_node_id": "0.0-117.0-1.0", "time_elapsed": 1102479, "key_press": -1, "trial_index": 163}, "uniqueid": "MTK2917:37C0GNLMHGATTZ8LNZ3GK3EFGMW6DE", "dateTime": 1519589306589}, {"current_trial": 164, "trialdata": {"rt": -1, "trial_type": "single-stim", "stimulus": "<p id=\"stim\">8</p>", "internal_node_id": "0.0-117.0-2.0", "time_elapsed": 1103480, "key_press": -1, "trial_index": 164}, "uniqueid": "MTK2917:37C0GNLMHGATTZ8LNZ3GK3EFGMW6DE", "dateTime": 1519589307590}, {"current_trial": 165, "trialdata": {"rt": -1, "trial_type": "single-stim", "stimulus": "<p id=\"stim\">7</p>", "internal_node_id": "0.0-117.0-3.0", "time_elapsed": 1104481, "key_press": -1, "trial_index": 165}, "uniqueid": "MTK2917:37C0GNLMHGATTZ8LNZ3GK3EFGMW6DE", "dateTime": 1519589308591}, {"current_trial": 166, "trialdata": {"rt": -1, "trial_type": "single-stim", "stimulus": "<p id=\"stim\">6</p>", "internal_node_id": "0.0-117.0-4.0", "time_elapsed": 1105482, "key_press": -1, "trial_index": 166}, "uniqueid": "MTK2917:37C0GNLMHGATTZ8LNZ3GK3EFGMW6DE", "dateTime": 1519589309592}, {"current_trial": 167, "trialdata": {"rt": -1, "trial_type": "single-stim", "stimulus": "<p id=\"stim\">5</p>", "internal_node_id": "0.0-117.0-5.0", "time_elapsed": 1106483, "key_press": -1, "trial_index": 167}, "uniqueid": "MTK2917:37C0GNLMHGATTZ8LNZ3GK3EFGMW6DE", "dateTime": 1519589310594}, {"current_trial": 168, "trialdata": {"rt": -1, "trial_type": "single-stim", "stimulus": "<p id=\"stim\">4</p>", "internal_node_id": "0.0-117.0-6.0", "time_elapsed": 1107485, "key_press": -1, "trial_index": 168}, "uniqueid": "MTK2917:37C0GNLMHGATTZ8LNZ3GK3EFGMW6DE", "dateTime": 1519589311595}, {"current_trial": 169, "trialdata": {"rt": -1, "trial_type": "single-stim", "stimulus": "<p id=\"stim\">3</p>", "internal_node_id": "0.0-117.0-7.0", "time_elapsed": 1108486, "key_press": -1, "trial_index": 169}, "uniqueid": "MTK2917:37C0GNLMHGATTZ8LNZ3GK3EFGMW6DE", "dateTime": 1519589312596}, {"current_trial": 170, "trialdata": {"rt": -1, "trial_type": "single-stim", "stimulus": "<p id=\"stim\">2</p>", "internal_node_id": "0.0-117.0-8.0", "time_elapsed": 1109488, "key_press": -1, "trial_index": 170}, "uniqueid": "MTK2917:37C0GNLMHGATTZ8LNZ3GK3EFGMW6DE", "dateTime": 1519589313598}, {"current_trial": 171, "trialdata": {"rt": -1, "trial_type": "single-stim", "stimulus": "<p id=\"stim\">1</p>", "internal_node_id": "0.0-117.0-9.0", "time_elapsed": 1110488, "key_press": -1, "trial_index": 171}, "uniqueid": "MTK2917:37C0GNLMHGATTZ8LNZ3GK3EFGMW6DE", "dateTime": 1519589314599}, {"current_trial": 172, "trialdata": {"rt": -1, "trial_type": "single-stim", "stimulus": "<p id=\"stim\">+</p>", "internal_node_id": "0.0-118.0-0.0", "time_elapsed": 1111989, "key_press": -1, "type": "FIXATION", "trial_index": 172}, "uniqueid": "MTK2917:37C0GNLMHGATTZ8LNZ3GK3EFGMW6DE", "dateTime": 1519589316099}, {"current_trial": 173, "trialdata": {"rt": -1000, "trial_type": "single-audio", "word": "swimmer", "stimulus": "/static/audio/wordpool/SWIMMER.wav", "conditions": [12, 1600, "a", 12000], "internal_node_id": "0.0-119.0", "trial": 5, "time_elapsed": 1114474, "serialpos": 0, "key_press": -1, "wordID": 1419, "type": "PRES_AUD", "trial_index": 173}, "uniqueid": "MTK2917:37C0GNLMHGATTZ8LNZ3GK3EFGMW6DE", "dateTime": 1519589318584}, {"current_trial": 174, "trialdata": {"rt": -1000, "trial_type": "single-audio", "word": "sunset", "stimulus": "/static/audio/wordpool/SUNSET.wav", "conditions": [12, 1600, "a", 12000], "internal_node_id": "0.0-120.0", "trial": 5, "time_elapsed": 1116886, "serialpos": 1, "key_press": -1, "wordID": 1407, "type": "PRES_AUD", "trial_index": 174}, "uniqueid": "MTK2917:37C0GNLMHGATTZ8LNZ3GK3EFGMW6DE", "dateTime": 1519589320996}, {"current_trial": 175, "trialdata": {"rt": -1000, "trial_type": "single-audio", "word": "cattle", "stimulus": "/static/audio/wordpool/CATTLE.wav", "conditions": [12, 1600, "a", 12000], "internal_node_id": "0.0-121.0", "trial": 5, "time_elapsed": 1119408, "serialpos": 2, "key_press": -1, "wordID": 260, "type": "PRES_AUD", "trial_index": 175}, "uniqueid": "MTK2917:37C0GNLMHGATTZ8LNZ3GK3EFGMW6DE", "dateTime": 1519589323518}, {"current_trial": 176, "trialdata": {"rt": -1000, "trial_type": "single-audio", "word": "beef", "stimulus": "/static/audio/wordpool/BEEF.wav", "conditions": [12, 1600, "a", 12000], "internal_node_id": "0.0-122.0", "trial": 5, "time_elapsed": 1121878, "serialpos": 3, "key_press": -1, "wordID": 112, "type": "PRES_AUD", "trial_index": 176}, "uniqueid": "MTK2917:37C0GNLMHGATTZ8LNZ3GK3EFGMW6DE", "dateTime": 1519589325988}, {"current_trial": 177, "trialdata": {"rt": -1000, "trial_type": "single-audio", "word": "eyelash", "stimulus": "/static/audio/wordpool/EYELASH.wav", "conditions": [12, 1600, "a", 12000], "internal_node_id": "0.0-123.0", "trial": 5, "time_elapsed": 1124598, "serialpos": 4, "key_press": -1, "wordID": 545, "type": "PRES_AUD", "trial_index": 177}, "uniqueid": "MTK2917:37C0GNLMHGATTZ8LNZ3GK3EFGMW6DE", "dateTime": 1519589328708}, {"current_trial": 178, "trialdata": {"rt": -1000, "trial_type": "single-audio", "word": "brother", "stimulus": "/static/audio/wordpool/BROTHER.wav", "conditions": [12, 1600, "a", 12000], "internal_node_id": "0.0-124.0", "trial": 5, "time_elapsed": 1127117, "serialpos": 5, "key_press": -1, "wordID": 178, "type": "PRES_AUD", "trial_index": 178}, "uniqueid": "MTK2917:37C0GNLMHGATTZ8LNZ3GK3EFGMW6DE", "dateTime": 1519589331227}, {"current_trial": 179, "trialdata": {"rt": -1000, "trial_type": "single-audio", "word": "cocoon", "stimulus": "/static/audio/wordpool/COCOON.wav", "conditions": [12, 1600, "a", 12000], "internal_node_id": "0.0-125.0", "trial": 5, "time_elapsed": 1129717, "serialpos": 6, "key_press": -1, "wordID": 338, "type": "PRES_AUD", "trial_index": 179}, "uniqueid": "MTK2917:37C0GNLMHGATTZ8LNZ3GK3EFGMW6DE", "dateTime": 1519589333827}, {"current_trial": 180, "trialdata": {"rt": -1000, "trial_type": "single-audio", "word": "diver", "stimulus": "/static/audio/wordpool/DIVER.wav", "conditions": [12, 1600, "a", 12000], "internal_node_id": "0.0-126.0", "trial": 5, "time_elapsed": 1132147, "serialpos": 7, "key_press": -1, "wordID": 475, "type": "PRES_AUD", "trial_index": 180}, "uniqueid": "MTK2917:37C0GNLMHGATTZ8LNZ3GK3EFGMW6DE", "dateTime": 1519589336257}, {"current_trial": 181, "trialdata": {"rt": -1000, "trial_type": "single-audio", "word": "pistol", "stimulus": "/static/audio/wordpool/PISTOL.wav", "conditions": [12, 1600, "a", 12000], "internal_node_id": "0.0-127.0", "trial": 5, "time_elapsed": 1134747, "serialpos": 8, "key_press": -1, "wordID": 1074, "type": "PRES_AUD", "trial_index": 181}, "uniqueid": "MTK2917:37C0GNLMHGATTZ8LNZ3GK3EFGMW6DE", "dateTime": 1519589338857}, {"current_trial": 182, "trialdata": {"rt": -1000, "trial_type": "single-audio", "word": "lapel", "stimulus": "/static/audio/wordpool/LAPEL.wav", "conditions": [12, 1600, "a", 12000], "internal_node_id": "0.0-128.0", "trial": 5, "time_elapsed": 1137257, "serialpos": 9, "key_press": -1, "wordID": 799, "type": "PRES_AUD", "trial_index": 182}, "uniqueid": "MTK2917:37C0GNLMHGATTZ8LNZ3GK3EFGMW6DE", "dateTime": 1519589341367}, {"current_trial": 183, "trialdata": {"rt": -1000, "trial_type": "single-audio", "word": "pocket", "stimulus": "/static/audio/wordpool/POCKET.wav", "conditions": [12, 1600, "a", 12000], "internal_node_id": "0.0-129.0", "trial": 5, "time_elapsed": 1139917, "serialpos": 10, "key_press": -1, "wordID": 1092, "type": "PRES_AUD", "trial_index": 183}, "uniqueid": "MTK2917:37C0GNLMHGATTZ8LNZ3GK3EFGMW6DE", "dateTime": 1519589344027}, {"current_trial": 184, "trialdata": {"rt": -1000, "trial_type": "single-audio", "word": "glass", "stimulus": "/static/audio/wordpool/GLASS.wav", "conditions": [12, 1600, "a", 12000], "internal_node_id": "0.0-130.0", "trial": 5, "time_elapsed": 1142581, "serialpos": 11, "key_press": -1, "wordID": 638, "type": "PRES_AUD", "trial_index": 184}, "uniqueid": "MTK2917:37C0GNLMHGATTZ8LNZ3GK3EFGMW6DE", "dateTime": 1519589346691}, {"current_trial": 185, "trialdata": {"rt": -1, "trial_type": "single-stim", "stimulus": "", "internal_node_id": "0.0-131.0-0.0", "time_elapsed": 1143933, "key_press": -1, "type": "PRE_RECALL_DELAY", "trial_index": 185}, "uniqueid": "MTK2917:37C0GNLMHGATTZ8LNZ3GK3EFGMW6DE", "dateTime": 1519589348043}, {"current_trial": 186, "trialdata": {"rt": -1000, "trial_type": "single-audio", "stimulus": "/static/audio/400Hz.wav", "internal_node_id": "0.0-132.0", "time_elapsed": 1144439, "key_press": -1, "type": "PRE_RECALL_ALERT", "trial_index": 186}, "uniqueid": "MTK2917:37C0GNLMHGATTZ8LNZ3GK3EFGMW6DE", "dateTime": 1519589348549}, {"current_trial": 187, "trialdata": {"rt": [1811, 3358, 5467, 7571, 10137, 12613, 14292, 25991, 32778], "recwords": ["lapel", "glass", "cacoon", "swimmer", "sunset", "cattle", "eyelash", "beef", "swimmer"], "key_times": [604, 740, 1347, 1450, 1551, 1811, 2071, 2288, 2567, 2758, 2846, 3001, 3161, 3358, 4114, 4357, 4652, 4841, 4981, 5164, 5467, 6578, 6694, 6831, 7014, 7117, 7207, 7371, 7571, 8824, 8924, 9107, 9237, 9504, 9721, 10137, 11631, 11824, 12044, 12200, 12310, 12430, 12613, 12997, 13130, 13324, 13517, 13627, 13817, 13897, 14292, 24675, 24753, 24937, 25013, 25991, 31958, 32126, 32220, 32396, 32510, 32564, 32695, 32778], "trial_type": "free-recall", "conditions": [12, 1600, "a", 12000], "internal_node_id": "0.0-133.0-0.0", "key_presses": [76, 65, 80, 69, 76, 13, 71, 65, 8, 76, 65, 83, 83, 13, 67, 65, 67, 79, 79, 78, 13, 83, 87, 73, 77, 77, 69, 82, 13, 83, 85, 78, 83, 69, 84, 13, 67, 65, 84, 84, 76, 69, 13, 69, 89, 69, 76, 65, 83, 72, 13, 66, 69, 69, 70, 13, 83, 87, 73, 77, 77, 69, 82, 13], "trial": 5, "time_elapsed": 1204441, "type": "FREE_RECALL", "trial_index": 187}, "uniqueid": "MTK2917:37C0GNLMHGATTZ8LNZ3GK3EFGMW6DE", "dateTime": 1519589408559}, {"current_trial": 188, "trialdata": {"rt": 757, "trial_type": "text", "internal_node_id": "0.0-134.0", "time_elapsed": 1207208, "key_press": 32, "type": "INSTRUCTIONS", "trial_index": 188}, "uniqueid": "MTK2917:37C0GNLMHGATTZ8LNZ3GK3EFGMW6DE", "dateTime": 1519589411319}, {"current_trial": 189, "trialdata": {"rt": [1550, 3126, 4613, 6096, 8165, 11050], "trial_type": "math-distractor", "key_times": [1120, 1339, 1550, 2742, 2823, 3126, 4339, 4613, 5783, 6096, 7525, 7665, 8165, 9907, 10711, 11050], "responses": ["12", "17", "8", "7", "10", "18"], "num2": [4, 3, 4, 1, 1, 5, 7], "num3": [6, 9, 2, 5, 3, 6, 6], "conditions": [24, 800, "a", 12000], "internal_node_id": "0.0-135.0", "key_presses": [49, 50, 13, 49, 55, 13, 56, 13, 55, 13, 49, 48, 13, 49, 56, 13], "trial": 6, "time_elapsed": 1221213, "type": "DISTRACTOR", "trial_index": 189, "num1": [2, 5, 2, 1, 6, 7, 4]}, "uniqueid": "MTK2917:37C0GNLMHGATTZ8LNZ3GK3EFGMW6DE", "dateTime": 1519589425323}, {"current_trial": 190, "trialdata": {"rt": -1, "trial_type": "single-stim", "stimulus": "<p id=\"stim\">10</p>", "internal_node_id": "0.0-136.0-0.0", "time_elapsed": 1224215, "key_press": -1, "trial_index": 190}, "uniqueid": "MTK2917:37C0GNLMHGATTZ8LNZ3GK3EFGMW6DE", "dateTime": 1519589428325}, {"current_trial": 191, "trialdata": {"rt": -1, "trial_type": "single-stim", "stimulus": "<p id=\"stim\">9</p>", "internal_node_id": "0.0-136.0-1.0", "time_elapsed": 1225216, "key_press": -1, "trial_index": 191}, "uniqueid": "MTK2917:37C0GNLMHGATTZ8LNZ3GK3EFGMW6DE", "dateTime": 1519589429326}, {"current_trial": 192, "trialdata": {"rt": -1, "trial_type": "single-stim", "stimulus": "<p id=\"stim\">8</p>", "internal_node_id": "0.0-136.0-2.0", "time_elapsed": 1226217, "key_press": -1, "trial_index": 192}, "uniqueid": "MTK2917:37C0GNLMHGATTZ8LNZ3GK3EFGMW6DE", "dateTime": 1519589430327}, {"current_trial": 193, "trialdata": {"rt": -1, "trial_type": "single-stim", "stimulus": "<p id=\"stim\">7</p>", "internal_node_id": "0.0-136.0-3.0", "time_elapsed": 1227217, "key_press": -1, "trial_index": 193}, "uniqueid": "MTK2917:37C0GNLMHGATTZ8LNZ3GK3EFGMW6DE", "dateTime": 1519589431328}, {"current_trial": 194, "trialdata": {"rt": -1, "trial_type": "single-stim", "stimulus": "<p id=\"stim\">6</p>", "internal_node_id": "0.0-136.0-4.0", "time_elapsed": 1228219, "key_press": -1, "trial_index": 194}, "uniqueid": "MTK2917:37C0GNLMHGATTZ8LNZ3GK3EFGMW6DE", "dateTime": 1519589432329}, {"current_trial": 195, "trialdata": {"rt": -1, "trial_type": "single-stim", "stimulus": "<p id=\"stim\">5</p>", "internal_node_id": "0.0-136.0-5.0", "time_elapsed": 1229220, "key_press": -1, "trial_index": 195}, "uniqueid": "MTK2917:37C0GNLMHGATTZ8LNZ3GK3EFGMW6DE", "dateTime": 1519589433330}, {"current_trial": 196, "trialdata": {"rt": -1, "trial_type": "single-stim", "stimulus": "<p id=\"stim\">4</p>", "internal_node_id": "0.0-136.0-6.0", "time_elapsed": 1230221, "key_press": -1, "trial_index": 196}, "uniqueid": "MTK2917:37C0GNLMHGATTZ8LNZ3GK3EFGMW6DE", "dateTime": 1519589434331}, {"current_trial": 197, "trialdata": {"rt": -1, "trial_type": "single-stim", "stimulus": "<p id=\"stim\">3</p>", "internal_node_id": "0.0-136.0-7.0", "time_elapsed": 1231221, "key_press": -1, "trial_index": 197}, "uniqueid": "MTK2917:37C0GNLMHGATTZ8LNZ3GK3EFGMW6DE", "dateTime": 1519589435332}, {"current_trial": 198, "trialdata": {"rt": -1, "trial_type": "single-stim", "stimulus": "<p id=\"stim\">2</p>", "internal_node_id": "0.0-136.0-8.0", "time_elapsed": 1232223, "key_press": -1, "trial_index": 198}, "uniqueid": "MTK2917:37C0GNLMHGATTZ8LNZ3GK3EFGMW6DE", "dateTime": 1519589436333}, {"current_trial": 199, "trialdata": {"rt": -1, "trial_type": "single-stim", "stimulus": "<p id=\"stim\">1</p>", "internal_node_id": "0.0-136.0-9.0", "time_elapsed": 1233224, "key_press": -1, "trial_index": 199}, "uniqueid": "MTK2917:37C0GNLMHGATTZ8LNZ3GK3EFGMW6DE", "dateTime": 1519589437334}, {"current_trial": 200, "trialdata": {"rt": -1, "trial_type": "single-stim", "stimulus": "<p id=\"stim\">+</p>", "internal_node_id": "0.0-137.0-0.0", "time_elapsed": 1234725, "key_press": -1, "type": "FIXATION", "trial_index": 200}, "uniqueid": "MTK2917:37C0GNLMHGATTZ8LNZ3GK3EFGMW6DE", "dateTime": 1519589438835}, {"current_trial": 201, "trialdata": {"rt": -1000, "trial_type": "single-audio", "word": "braces", "stimulus": "/static/audio/wordpool/BRACES.wav", "conditions": [24, 800, "a", 12000], "internal_node_id": "0.0-138.0", "trial": 6, "time_elapsed": 1236700, "serialpos": 0, "key_press": -1, "wordID": 163, "type": "PRES_AUD", "trial_index": 201}, "uniqueid": "MTK2917:37C0GNLMHGATTZ8LNZ3GK3EFGMW6DE", "dateTime": 1519589440810}, {"current_trial": 202, "trialdata": {"rt": -1000, "trial_type": "single-audio", "word": "chest", "stimulus": "/static/audio/wordpool/CHEST.wav", "conditions": [24, 800, "a", 12000], "internal_node_id": "0.0-139.0", "trial": 6, "time_elapsed": 1238580, "serialpos": 1, "key_press": -1, "wordID": 294, "type": "PRES_AUD", "trial_index": 202}, "uniqueid": "MTK2917:37C0GNLMHGATTZ8LNZ3GK3EFGMW6DE", "dateTime": 1519589442690}, {"current_trial": 203, "trialdata": {"rt": -1000, "trial_type": "single-audio", "word": "puppy", "stimulus": "/static/audio/wordpool/PUPPY.wav", "conditions": [24, 800, "a", 12000], "internal_node_id": "0.0-140.0", "trial": 6, "time_elapsed": 1240440, "serialpos": 2, "key_press": -1, "wordID": 1143, "type": "PRES_AUD", "trial_index": 203}, "uniqueid": "MTK2917:37C0GNLMHGATTZ8LNZ3GK3EFGMW6DE", "dateTime": 1519589444550}, {"current_trial": 204, "trialdata": {"rt": -1000, "trial_type": "single-audio", "word": "nurse", "stimulus": "/static/audio/wordpool/NURSE.wav", "conditions": [24, 800, "a", 12000], "internal_node_id": "0.0-141.0", "trial": 6, "time_elapsed": 1242190, "serialpos": 3, "key_press": -1, "wordID": 962, "type": "PRES_AUD", "trial_index": 204}, "uniqueid": "MTK2917:37C0GNLMHGATTZ8LNZ3GK3EFGMW6DE", "dateTime": 1519589446300}, {"current_trial": 205, "trialdata": {"rt": -1000, "trial_type": "single-audio", "word": "patient", "stimulus": "/static/audio/wordpool/PATIENT.wav", "conditions": [24, 800, "a", 12000], "internal_node_id": "0.0-142.0", "trial": 6, "time_elapsed": 1243790, "serialpos": 4, "key_press": -1, "wordID": 1023, "type": "PRES_AUD", "trial_index": 205}, "uniqueid": "MTK2917:37C0GNLMHGATTZ8LNZ3GK3EFGMW6DE", "dateTime": 1519589447900}, {"current_trial": 206, "trialdata": {"rt": -1000, "trial_type": "single-audio", "word": "pasta", "stimulus": "/static/audio/wordpool/PASTA.wav", "conditions": [24, 800, "a", 12000], "internal_node_id": "0.0-143.0", "trial": 6, "time_elapsed": 1245552, "serialpos": 5, "key_press": -1, "wordID": 1020, "type": "PRES_AUD", "trial_index": 206}, "uniqueid": "MTK2917:37C0GNLMHGATTZ8LNZ3GK3EFGMW6DE", "dateTime": 1519589449662}, {"current_trial": 207, "trialdata": {"rt": -1000, "trial_type": "single-audio", "word": "turtle", "stimulus": "/static/audio/wordpool/TURTLE.wav", "conditions": [24, 800, "a", 12000], "internal_node_id": "0.0-144.0", "trial": 6, "time_elapsed": 1247272, "serialpos": 6, "key_press": -1, "wordID": 1521, "type": "PRES_AUD", "trial_index": 207}, "uniqueid": "MTK2917:37C0GNLMHGATTZ8LNZ3GK3EFGMW6DE", "dateTime": 1519589451382}, {"current_trial": 208, "trialdata": {"rt": -1000, "trial_type": "single-audio", "word": "cabbage", "stimulus": "/static/audio/wordpool/CABBAGE.wav", "conditions": [24, 800, "a", 12000], "internal_node_id": "0.0-145.0", "trial": 6, "time_elapsed": 1249242, "serialpos": 7, "key_press": -1, "wordID": 209, "type": "PRES_AUD", "trial_index": 208}, "uniqueid": "MTK2917:37C0GNLMHGATTZ8LNZ3GK3EFGMW6DE", "dateTime": 1519589453352}, {"current_trial": 209, "trialdata": {"rt": -1000, "trial_type": "single-audio", "word": "sausage", "stimulus": "/static/audio/wordpool/SAUSAGE.wav", "conditions": [24, 800, "a", 12000], "internal_node_id": "0.0-146.0", "trial": 6, "time_elapsed": 1250912, "serialpos": 8, "key_press": -1, "wordID": 1237, "type": "PRES_AUD", "trial_index": 209}, "uniqueid": "MTK2917:37C0GNLMHGATTZ8LNZ3GK3EFGMW6DE", "dateTime": 1519589455022}, {"current_trial": 210, "trialdata": {"rt": -1000, "trial_type": "single-audio", "word": "pudding", "stimulus": "/static/audio/wordpool/PUDDING.wav", "conditions": [24, 800, "a", 12000], "internal_node_id": "0.0-147.0", "trial": 6, "time_elapsed": 1252672, "serialpos": 9, "key_press": -1, "wordID": 1138, "type": "PRES_AUD", "trial_index": 210}, "uniqueid": "MTK2917:37C0GNLMHGATTZ8LNZ3GK3EFGMW6DE", "dateTime": 1519589456782}, {"current_trial": 211, "trialdata": {"rt": -1000, "trial_type": "single-audio", "word": "crutch", "stimulus": "/static/audio/wordpool/CRUTCH.wav", "conditions": [24, 800, "a", 12000], "internal_node_id": "0.0-148.0", "trial": 6, "time_elapsed": 1254522, "serialpos": 10, "key_press": -1, "wordID": 416, "type": "PRES_AUD", "trial_index": 211}, "uniqueid": "MTK2917:37C0GNLMHGATTZ8LNZ3GK3EFGMW6DE", "dateTime": 1519589458632}, {"current_trial": 212, "trialdata": {"rt": -1000, "trial_type": "single-audio", "word": "belly", "stimulus": "/static/audio/wordpool/BELLY.wav", "conditions": [24, 800, "a", 12000], "internal_node_id": "0.0-149.0", "trial": 6, "time_elapsed": 1256182, "serialpos": 11, "key_press": -1, "wordID": 118, "type": "PRES_AUD", "trial_index": 212}, "uniqueid": "MTK2917:37C0GNLMHGATTZ8LNZ3GK3EFGMW6DE", "dateTime": 1519589460292}, {"current_trial": 213, "trialdata": {"rt": -1000, "trial_type": "single-audio", "word": "typist", "stimulus": "/static/audio/wordpool/TYPIST.wav", "conditions": [24, 800, "a", 12000], "internal_node_id": "0.0-150.0", "trial": 6, "time_elapsed": 1258062, "serialpos": 12, "key_press": -1, "wordID": 1531, "type": "PRES_AUD", "trial_index": 213}, "uniqueid": "MTK2917:37C0GNLMHGATTZ8LNZ3GK3EFGMW6DE", "dateTime": 1519589462172}, {"current_trial": 214, "trialdata": {"rt": -1000, "trial_type": "single-audio", "word": "dorm", "stimulus": "/static/audio/wordpool/DORM.wav", "conditions": [24, 800, "a", 12000], "internal_node_id": "0.0-151.0", "trial": 6, "time_elapsed": 1259822, "serialpos": 13, "key_press": -1, "wordID": 487, "type": "PRES_AUD", "trial_index": 214}, "uniqueid": "MTK2917:37C0GNLMHGATTZ8LNZ3GK3EFGMW6DE", "dateTime": 1519589463932}, {"current_trial": 215, "trialdata": {"rt": -1000, "trial_type": "single-audio", "word": "rebel", "stimulus": "/static/audio/wordpool/REBEL.wav", "conditions": [24, 800, "a", 12000], "internal_node_id": "0.0-152.0", "trial": 6, "time_elapsed": 1261672, "serialpos": 14, "key_press": -1, "wordID": 1171, "type": "PRES_AUD", "trial_index": 215}, "uniqueid": "MTK2917:37C0GNLMHGATTZ8LNZ3GK3EFGMW6DE", "dateTime": 1519589465782}, {"current_trial": 216, "trialdata": {"rt": -1000, "trial_type": "single-audio", "word": "football", "stimulus": "/static/audio/wordpool/FOOTBALL.wav", "conditions": [24, 800, "a", 12000], "internal_node_id": "0.0-153.0", "trial": 6, "time_elapsed": 1263484, "serialpos": 15, "key_press": -1, "wordID": 590, "type": "PRES_AUD", "trial_index": 216}, "uniqueid": "MTK2917:37C0GNLMHGATTZ8LNZ3GK3EFGMW6DE", "dateTime": 1519589467594}, {"current_trial": 217, "trialdata": {"rt": -1000, "trial_type": "single-audio", "word": "bucket", "stimulus": "/static/audio/wordpool/BUCKET.wav", "conditions": [24, 800, "a", 12000], "internal_node_id": "0.0-154.0", "trial": 6, "time_elapsed": 1265474, "serialpos": 16, "key_press": -1, "wordID": 183, "type": "PRES_AUD", "trial_index": 217}, "uniqueid": "MTK2917:37C0GNLMHGATTZ8LNZ3GK3EFGMW6DE", "dateTime": 1519589469584}, {"current_trial": 218, "trialdata": {"rt": -1000, "trial_type": "single-audio", "word": "couch", "stimulus": "/static/audio/wordpool/COUCH.wav", "conditions": [24, 800, "a", 12000], "internal_node_id": "0.0-155.0", "trial": 6, "time_elapsed": 1267123, "serialpos": 17, "key_press": -1, "wordID": 385, "type": "PRES_AUD", "trial_index": 218}, "uniqueid": "MTK2917:37C0GNLMHGATTZ8LNZ3GK3EFGMW6DE", "dateTime": 1519589471233}, {"current_trial": 219, "trialdata": {"rt": -1000, "trial_type": "single-audio", "word": "wrist", "stimulus": "/static/audio/wordpool/WRIST.wav", "conditions": [24, 800, "a", 12000], "internal_node_id": "0.0-156.0", "trial": 6, "time_elapsed": 1268923, "serialpos": 18, "key_press": -1, "wordID": 1625, "type": "PRES_AUD", "trial_index": 219}, "uniqueid": "MTK2917:37C0GNLMHGATTZ8LNZ3GK3EFGMW6DE", "dateTime": 1519589473033}, {"current_trial": 220, "trialdata": {"rt": -1000, "trial_type": "single-audio", "word": "daisy", "stimulus": "/static/audio/wordpool/DAISY.wav", "conditions": [24, 800, "a", 12000], "internal_node_id": "0.0-157.0", "trial": 6, "time_elapsed": 1270672, "serialpos": 19, "key_press": -1, "wordID": 434, "type": "PRES_AUD", "trial_index": 220}, "uniqueid": "MTK2917:37C0GNLMHGATTZ8LNZ3GK3EFGMW6DE", "dateTime": 1519589474782}, {"current_trial": 221, "trialdata": {"rt": -1000, "trial_type": "single-audio", "word": "garlic", "stimulus": "/static/audio/wordpool/GARLIC.wav", "conditions": [24, 800, "a", 12000], "internal_node_id": "0.0-158.0", "trial": 6, "time_elapsed": 1272352, "serialpos": 20, "key_press": -1, "wordID": 623, "type": "PRES_AUD", "trial_index": 221}, "uniqueid": "MTK2917:37C0GNLMHGATTZ8LNZ3GK3EFGMW6DE", "dateTime": 1519589476462}, {"current_trial": 222, "trialdata": {"rt": -1000, "trial_type": "single-audio", "word": "pepper", "stimulus": "/static/audio/wordpool/PEPPER.wav", "conditions": [24, 800, "a", 12000], "internal_node_id": "0.0-159.0", "trial": 6, "time_elapsed": 1273973, "serialpos": 21, "key_press": -1, "wordID": 1046, "type": "PRES_AUD", "trial_index": 222}, "uniqueid": "MTK2917:37C0GNLMHGATTZ8LNZ3GK3EFGMW6DE", "dateTime": 1519589478083}, {"current_trial": 223, "trialdata": {"rt": -1000, "trial_type": "single-audio", "word": "keeper", "stimulus": "/static/audio/wordpool/KEEPER.wav", "conditions": [24, 800, "a", 12000], "internal_node_id": "0.0-160.0", "trial": 6, "time_elapsed": 1275634, "serialpos": 22, "key_press": -1, "wordID": 768, "type": "PRES_AUD", "trial_index": 223}, "uniqueid": "MTK2917:37C0GNLMHGATTZ8LNZ3GK3EFGMW6DE", "dateTime": 1519589479744}, {"current_trial": 224, "trialdata": {"rt": -1000, "trial_type": "single-audio", "word": "lily", "stimulus": "/static/audio/wordpool/LILY.wav", "conditions": [24, 800, "a", 12000], "internal_node_id": "0.0-161.0", "trial": 6, "time_elapsed": 1277424, "serialpos": 23, "key_press": -1, "wordID": 820, "type": "PRES_AUD", "trial_index": 224}, "uniqueid": "MTK2917:37C0GNLMHGATTZ8LNZ3GK3EFGMW6DE", "dateTime": 1519589481534}, {"current_trial": 225, "trialdata": {"rt": -1, "trial_type": "single-stim", "stimulus": "", "internal_node_id": "0.0-162.0-0.0", "time_elapsed": 1278758, "key_press": -1, "type": "PRE_RECALL_DELAY", "trial_index": 225}, "uniqueid": "MTK2917:37C0GNLMHGATTZ8LNZ3GK3EFGMW6DE", "dateTime": 1519589482868}, {"current_trial": 226, "trialdata": {"rt": -1000, "trial_type": "single-audio", "stimulus": "/static/audio/400Hz.wav", "internal_node_id": "0.0-163.0", "time_elapsed": 1279261, "key_press": -1, "type": "PRE_RECALL_ALERT", "trial_index": 226}, "uniqueid": "MTK2917:37C0GNLMHGATTZ8LNZ3GK3EFGMW6DE", "dateTime": 1519589483371}, {"current_trial": 227, "trialdata": {"rt": [1452, 2440, 4202, 5524, 7552, 8760, 10240, 20353, 21263, 22063, 41183], "recwords": ["lily", "keeper", "chest", "belly", "braces", "nurse", "crutches", "garlic", "pepper", "spice", "puppy"], "key_times": [507, 707, 887, 960, 1452, 1682, 1770, 1944, 2040, 2170, 2323, 2440, 3473, 3623, 3720, 3863, 3914, 4202, 4512, 4829, 5103, 5237, 5370, 5524, 6529, 6623, 6824, 7030, 7230, 7380, 7552, 8104, 8293, 8329, 8472, 8642, 8760, 8947, 9157, 9297, 9417, 9604, 9727, 9920, 10083, 10240, 19586, 19639, 19829, 19923, 20103, 20176, 20353, 20580, 20681, 20794, 20929, 20999, 21166, 21263, 21423, 21509, 21713, 21783, 21919, 22063, 40289, 40527, 40732, 40862, 40959, 41183], "trial_type": "free-recall", "conditions": [24, 800, "a", 12000], "internal_node_id": "0.0-164.0-0.0", "key_presses": [76, 73, 76, 89, 13, 75, 69, 69, 80, 69, 82, 13, 67, 72, 69, 83, 84, 13, 66, 69, 76, 76, 89, 13, 66, 82, 65, 67, 69, 83, 13, 78, 85, 82, 83, 69, 13, 67, 82, 85, 84, 67, 72, 69, 83, 13, 71, 65, 82, 76, 73, 67, 13, 80, 69, 80, 80, 69, 82, 13, 83, 80, 73, 67, 69, 13, 80, 85, 80, 80, 89, 13], "trial": 6, "time_elapsed": 1339262, "type": "FREE_RECALL", "trial_index": 227}, "uniqueid": "MTK2917:37C0GNLMHGATTZ8LNZ3GK3EFGMW6DE", "dateTime": 1519589543382}, {"current_trial": 228, "trialdata": {"rt": 1136, "trial_type": "text", "internal_node_id": "0.0-165.0", "time_elapsed": 1342409, "key_press": 32, "type": "INSTRUCTIONS", "trial_index": 228}, "uniqueid": "MTK2917:37C0GNLMHGATTZ8LNZ3GK3EFGMW6DE", "dateTime": 1519589546519}, {"current_trial": 229, "trialdata": {"rt": [2912, 5028, 6786, 8447, 10299, 11798], "trial_type": "math-distractor", "key_times": [2033, 2793, 2912, 4525, 4666, 5028, 6326, 6426, 6786, 8108, 8312, 8447, 9869, 9950, 10299, 11467, 11798], "responses": ["16", "20", "17", "21", "18", "7"], "num2": [6, 5, 6, 4, 2, 3, 6], "num3": [4, 7, 6, 8, 7, 2, 6], "conditions": [24, 1600, "a", 12000], "internal_node_id": "0.0-166.0", "key_presses": [49, 54, 13, 50, 48, 13, 49, 55, 13, 50, 49, 13, 49, 56, 13, 55, 13], "trial": 7, "time_elapsed": 1356412, "type": "DISTRACTOR", "trial_index": 229, "num1": [6, 8, 5, 9, 9, 2, 9]}, "uniqueid": "MTK2917:37C0GNLMHGATTZ8LNZ3GK3EFGMW6DE", "dateTime": 1519589560522}, {"current_trial": 230, "trialdata": {"rt": -1, "trial_type": "single-stim", "stimulus": "<p id=\"stim\">10</p>", "internal_node_id": "0.0-167.0-0.0", "time_elapsed": 1359414, "key_press": -1, "trial_index": 230}, "uniqueid": "MTK2917:37C0GNLMHGATTZ8LNZ3GK3EFGMW6DE", "dateTime": 1519589563524}, {"current_trial": 231, "trialdata": {"rt": -1, "trial_type": "single-stim", "stimulus": "<p id=\"stim\">9</p>", "internal_node_id": "0.0-167.0-1.0", "time_elapsed": 1360415, "key_press": -1, "trial_index": 231}, "uniqueid": "MTK2917:37C0GNLMHGATTZ8LNZ3GK3EFGMW6DE", "dateTime": 1519589564525}, {"current_trial": 232, "trialdata": {"rt": -1, "trial_type": "single-stim", "stimulus": "<p id=\"stim\">8</p>", "internal_node_id": "0.0-167.0-2.0", "time_elapsed": 1361416, "key_press": -1, "trial_index": 232}, "uniqueid": "MTK2917:37C0GNLMHGATTZ8LNZ3GK3EFGMW6DE", "dateTime": 1519589565526}, {"current_trial": 233, "trialdata": {"rt": -1, "trial_type": "single-stim", "stimulus": "<p id=\"stim\">7</p>", "internal_node_id": "0.0-167.0-3.0", "time_elapsed": 1362417, "key_press": -1, "trial_index": 233}, "uniqueid": "MTK2917:37C0GNLMHGATTZ8LNZ3GK3EFGMW6DE", "dateTime": 1519589566527}, {"current_trial": 234, "trialdata": {"rt": -1, "trial_type": "single-stim", "stimulus": "<p id=\"stim\">6</p>", "internal_node_id": "0.0-167.0-4.0", "time_elapsed": 1363418, "key_press": -1, "trial_index": 234}, "uniqueid": "MTK2917:37C0GNLMHGATTZ8LNZ3GK3EFGMW6DE", "dateTime": 1519589567528}, {"current_trial": 235, "trialdata": {"rt": -1, "trial_type": "single-stim", "stimulus": "<p id=\"stim\">5</p>", "internal_node_id": "0.0-167.0-5.0", "time_elapsed": 1364419, "key_press": -1, "trial_index": 235}, "uniqueid": "MTK2917:37C0GNLMHGATTZ8LNZ3GK3EFGMW6DE", "dateTime": 1519589568529}, {"current_trial": 236, "trialdata": {"rt": -1, "trial_type": "single-stim", "stimulus": "<p id=\"stim\">4</p>", "internal_node_id": "0.0-167.0-6.0", "time_elapsed": 1365420, "key_press": -1, "trial_index": 236}, "uniqueid": "MTK2917:37C0GNLMHGATTZ8LNZ3GK3EFGMW6DE", "dateTime": 1519589569530}, {"current_trial": 237, "trialdata": {"rt": -1, "trial_type": "single-stim", "stimulus": "<p id=\"stim\">3</p>", "internal_node_id": "0.0-167.0-7.0", "time_elapsed": 1366421, "key_press": -1, "trial_index": 237}, "uniqueid": "MTK2917:37C0GNLMHGATTZ8LNZ3GK3EFGMW6DE", "dateTime": 1519589570531}, {"current_trial": 238, "trialdata": {"rt": -1, "trial_type": "single-stim", "stimulus": "<p id=\"stim\">2</p>", "internal_node_id": "0.0-167.0-8.0", "time_elapsed": 1367422, "key_press": -1, "trial_index": 238}, "uniqueid": "MTK2917:37C0GNLMHGATTZ8LNZ3GK3EFGMW6DE", "dateTime": 1519589571532}, {"current_trial": 239, "trialdata": {"rt": -1, "trial_type": "single-stim", "stimulus": "<p id=\"stim\">1</p>", "internal_node_id": "0.0-167.0-9.0", "time_elapsed": 1368423, "key_press": -1, "trial_index": 239}, "uniqueid": "MTK2917:37C0GNLMHGATTZ8LNZ3GK3EFGMW6DE", "dateTime": 1519589572533}, {"current_trial": 240, "trialdata": {"rt": -1, "trial_type": "single-stim", "stimulus": "<p id=\"stim\">+</p>", "internal_node_id": "0.0-168.0-0.0", "time_elapsed": 1369924, "key_press": -1, "type": "FIXATION", "trial_index": 240}, "uniqueid": "MTK2917:37C0GNLMHGATTZ8LNZ3GK3EFGMW6DE", "dateTime": 1519589574034}, {"current_trial": 241, "trialdata": {"rt": -1000, "trial_type": "single-audio", "word": "dancer", "stimulus": "/static/audio/wordpool/DANCER.wav", "conditions": [24, 1600, "a", 12000], "internal_node_id": "0.0-169.0", "trial": 7, "time_elapsed": 1372436, "serialpos": 0, "key_press": -1, "wordID": 436, "type": "PRES_AUD", "trial_index": 241}, "uniqueid": "MTK2917:37C0GNLMHGATTZ8LNZ3GK3EFGMW6DE", "dateTime": 1519589576546}, {"current_trial": 242, "trialdata": {"rt": -1000, "trial_type": "single-audio", "word": "hook", "stimulus": "/static/audio/wordpool/HOOK.wav", "conditions": [24, 1600, "a", 12000], "internal_node_id": "0.0-170.0", "trial": 7, "time_elapsed": 1375225, "serialpos": 1, "key_press": -1, "wordID": 714, "type": "PRES_AUD", "trial_index": 242}, "uniqueid": "MTK2917:37C0GNLMHGATTZ8LNZ3GK3EFGMW6DE", "dateTime": 1519589579335}, {"current_trial": 243, "trialdata": {"rt": -1000, "trial_type": "single-audio", "word": "radish", "stimulus": "/static/audio/wordpool/RADISH.wav", "conditions": [24, 1600, "a", 12000], "internal_node_id": "0.0-171.0", "trial": 7, "time_elapsed": 1378025, "serialpos": 2, "key_press": -1, "wordID": 1157, "type": "PRES_AUD", "trial_index": 243}, "uniqueid": "MTK2917:37C0GNLMHGATTZ8LNZ3GK3EFGMW6DE", "dateTime": 1519589582135}, {"current_trial": 244, "trialdata": {"rt": -1000, "trial_type": "single-audio", "word": "paddle", "stimulus": "/static/audio/wordpool/PADDLE.wav", "conditions": [24, 1600, "a", 12000], "internal_node_id": "0.0-172.0", "trial": 7, "time_elapsed": 1380565, "serialpos": 3, "key_press": -1, "wordID": 999, "type": "PRES_AUD", "trial_index": 244}, "uniqueid": "MTK2917:37C0GNLMHGATTZ8LNZ3GK3EFGMW6DE", "dateTime": 1519589584675}, {"current_trial": 245, "trialdata": {"rt": -1000, "trial_type": "single-audio", "word": "cowboy", "stimulus": "/static/audio/wordpool/COWBOY.wav", "conditions": [24, 1600, "a", 12000], "internal_node_id": "0.0-173.0", "trial": 7, "time_elapsed": 1383025, "serialpos": 4, "key_press": -1, "wordID": 394, "type": "PRES_AUD", "trial_index": 245}, "uniqueid": "MTK2917:37C0GNLMHGATTZ8LNZ3GK3EFGMW6DE", "dateTime": 1519589587135}, {"current_trial": 246, "trialdata": {"rt": -1000, "trial_type": "single-audio", "word": "shark", "stimulus": "/static/audio/wordpool/SHARK.wav", "conditions": [24, 1600, "a", 12000], "internal_node_id": "0.0-174.0", "trial": 7, "time_elapsed": 1385455, "serialpos": 5, "key_press": -1, "wordID": 1274, "type": "PRES_AUD", "trial_index": 246}, "uniqueid": "MTK2917:37C0GNLMHGATTZ8LNZ3GK3EFGMW6DE", "dateTime": 1519589589565}, {"current_trial": 247, "trialdata": {"rt": -1000, "trial_type": "single-audio", "word": "statue", "stimulus": "/static/audio/wordpool/STATUE.wav", "conditions": [24, 1600, "a", 12000], "internal_node_id": "0.0-175.0", "trial": 7, "time_elapsed": 1387955, "serialpos": 6, "key_press": -1, "wordID": 1373, "type": "PRES_AUD", "trial_index": 247}, "uniqueid": "MTK2917:37C0GNLMHGATTZ8LNZ3GK3EFGMW6DE", "dateTime": 1519589592065}, {"current_trial": 248, "trialdata": {"rt": -1000, "trial_type": "single-audio", "word": "sculpture", "stimulus": "/static/audio/wordpool/SCULPTURE.wav", "conditions": [24, 1600, "a", 12000], "internal_node_id": "0.0-176.0", "trial": 7, "time_elapsed": 1390505, "serialpos": 7, "key_press": -1, "wordID": 1257, "type": "PRES_AUD", "trial_index": 248}, "uniqueid": "MTK2917:37C0GNLMHGATTZ8LNZ3GK3EFGMW6DE", "dateTime": 1519589594615}, {"current_trial": 249, "trialdata": {"rt": -1000, "trial_type": "single-audio", "word": "gymnast", "stimulus": "/static/audio/wordpool/GYMNAST.wav", "conditions": [24, 1600, "a", 12000], "internal_node_id": "0.0-177.0", "trial": 7, "time_ela