{"assignmentId": "3ON104KXQL3ENI4YL6FRFTJMR5KW44", "workerId": "MTK2756", "questiondata": {"avail_screen_height": 942, "color_depth": 24, "screen_width": 1680, "pixel_depth": 24, "avail_screen_width": 1680, "screen_height": 1050}, "bonus": 0, "hitId": "33IXYHIZB5P8GK5Q6QXVBOJ4FDQE21", "counterbalance": 1932, "useragent": "Mozilla/5.0 (Macintosh; Intel Mac OS X 10_10_5) AppleWebKit/537.36 (KHTML, like Gecko) Chrome/64.0.3282.167 Safari/537.36", "eventdata": [{"eventtype": "initialized", "interval": 0, "value": null, "timestamp": 1519325145983}, {"eventtype": "window_resize", "interval": 0, "value": [1680, 891], "timestamp": 1519325145983}, {"eventtype": "focus", "interval": 34368, "value": "off", "timestamp": 1519325180351}, {"eventtype": "focus", "interval": 2, "value": "on", "timestamp": 1519325180353}, {"eventtype": "window_resize", "interval": 5523, "value": [1680, 1022], "timestamp": 1519325185876}], "data": [{"current_trial": 0, "trialdata": {"rt": 2288, "trial_type": "text", "internal_node_id": "0.0-0.0", "time_elapsed": 2291, "key_press": 32, "type": "INSTRUCTIONS", "trial_index": 0}, "uniqueid": "MTK2756:3ON104KXQL3ENI4YL6FRFTJMR5KW44", "dateTime": 1519325182646}, {"current_trial": 1, "trialdata": {"rt": 19225, "trial_type": "text", "internal_node_id": "0.0-1.0", "time_elapsed": 21517, "key_press": 32, "type": "INSTRUCTIONS", "trial_index": 1}, "uniqueid": "MTK2756:3ON104KXQL3ENI4YL6FRFTJMR5KW44", "dateTime": 1519325201872}, {"current_trial": 2, "trialdata": {"rt": [7720], "trial_type": "audio-test", "responses": ["ocean"], "internal_node_id": "0.0-2.0", "time_elapsed": 29245, "type": "AUDIO_TEST", "trial_index": 2}, "uniqueid": "MTK2756:3ON104KXQL3ENI4YL6FRFTJMR5KW44", "dateTime": 1519325209600}, {"current_trial": 3, "trialdata": {"rt": [7175], "trial_type": "audio-test", "responses": ["crystal"], "internal_node_id": "0.0-3.0", "time_elapsed": 36422, "type": "AUDIO_TEST", "trial_index": 3}, "uniqueid": "MTK2756:3ON104KXQL3ENI4YL6FRFTJMR5KW44", "dateTime": 1519325216777}, {"current_trial": 4, "trialdata": {"rt": [6297], "trial_type": "audio-test", "responses": ["spice"], "internal_node_id": "0.0-4.0", "time_elapsed": 42723, "type": "AUDIO_TEST", "trial_index": 4}, "uniqueid": "MTK2756:3ON104KXQL3ENI4YL6FRFTJMR5KW44", "dateTime": 1519325223078}, {"current_trial": 5, "trialdata": {"rt": 33154, "trial_type": "survey-text", "responses": "{\"Q0\":\"11:30\",\"Q1\":\"7\",\"Q2\":\"5\"}", "internal_node_id": "0.0-5.0", "time_elapsed": 76631, "type": "SLEEP_SURVEY", "trial_index": 5}, "uniqueid": "MTK2756:3ON104KXQL3ENI4YL6FRFTJMR5KW44", "dateTime": 1519325256986}, {"current_trial": 6, "trialdata": {"rt": 52153, "trial_type": "text", "internal_node_id": "0.0-6.0", "time_elapsed": 129786, "key_press": 32, "type": "INSTRUCTIONS", "trial_index": 6}, "uniqueid": "MTK2756:3ON104KXQL3ENI4YL6FRFTJMR5KW44", "dateTime": 1519325310141}, {"current_trial": 7, "trialdata": {"rt": 13729, "trial_type": "text", "internal_node_id": "0.0-7.0", "time_elapsed": 144017, "key_press": 32, "type": "INSTRUCTIONS", "trial_index": 7}, "uniqueid": "MTK2756:3ON104KXQL3ENI4YL6FRFTJMR5KW44", "dateTime": 1519325324372}, {"current_trial": 8, "trialdata": {"rt": 9374, "trial_type": "text", "internal_node_id": "0.0-8.0", "time_elapsed": 153895, "key_press": 32, "type": "INSTRUCTIONS", "trial_index": 8}, "uniqueid": "MTK2756:3ON104KXQL3ENI4YL6FRFTJMR5KW44", "dateTime": 1519325334250}, {"current_trial": 9, "trialdata": {"rt": [3550, 6576, 9378, 11189, 13023], "trial_type": "math-distractor", "key_times": [2190, 2785, 3550, 6138, 6318, 6576, 8511, 9040, 9378, 10762, 10919, 11189, 12494, 12831, 13023], "responses": ["17", "22", "17", "11", "13"], "num2": [7, 9, 7, 8, 3, 9], "num3": [5, 9, 7, 2, 3, 6], "conditions": [18, 1200, "a", 18000], "internal_node_id": "0.0-9.0", "key_presses": [49, 55, 13, 50, 50, 13, 49, 55, 13, 49, 49, 13, 49, 51, 13], "trial": 0, "time_elapsed": 172903, "type": "DISTRACTOR", "trial_index": 9, "num1": [5, 4, 3, 1, 7, 7]}, "uniqueid": "MTK2756:3ON104KXQL3ENI4YL6FRFTJMR5KW44", "dateTime": 1519325353259}, {"current_trial": 10, "trialdata": {"rt": -1, "trial_type": "single-stim", "stimulus": "<p id=\"stim\">10</p>", "internal_node_id": "0.0-10.0-0.0", "time_elapsed": 175911, "key_press": -1, "trial_index": 10}, "uniqueid": "MTK2756:3ON104KXQL3ENI4YL6FRFTJMR5KW44", "dateTime": 1519325356266}, {"current_trial": 11, "trialdata": {"rt": -1, "trial_type": "single-stim", "stimulus": "<p id=\"stim\">9</p>", "internal_node_id": "0.0-10.0-1.0", "time_elapsed": 176914, "key_press": -1, "trial_index": 11}, "uniqueid": "MTK2756:3ON104KXQL3ENI4YL6FRFTJMR5KW44", "dateTime": 1519325357269}, {"current_trial": 12, "trialdata": {"rt": -1, "trial_type": "single-stim", "stimulus": "<p id=\"stim\">8</p>", "internal_node_id": "0.0-10.0-2.0", "time_elapsed": 177918, "key_press": -1, "trial_index": 12}, "uniqueid": "MTK2756:3ON104KXQL3ENI4YL6FRFTJMR5KW44", "dateTime": 1519325358273}, {"current_trial": 13, "trialdata": {"rt": -1, "trial_type": "single-stim", "stimulus": "<p id=\"stim\">7</p>", "internal_node_id": "0.0-10.0-3.0", "time_elapsed": 178922, "key_press": -1, "trial_index": 13}, "uniqueid": "MTK2756:3ON104KXQL3ENI4YL6FRFTJMR5KW44", "dateTime": 1519325359277}, {"current_trial": 14, "trialdata": {"rt": -1, "trial_type": "single-stim", "stimulus": "<p id=\"stim\">6</p>", "internal_node_id": "0.0-10.0-4.0", "time_elapsed": 179926, "key_press": -1, "trial_index": 14}, "uniqueid": "MTK2756:3ON104KXQL3ENI4YL6FRFTJMR5KW44", "dateTime": 1519325360281}, {"current_trial": 15, "trialdata": {"rt": -1, "trial_type": "single-stim", "stimulus": "<p id=\"stim\">5</p>", "internal_node_id": "0.0-10.0-5.0", "time_elapsed": 180929, "key_press": -1, "trial_index": 15}, "uniqueid": "MTK2756:3ON104KXQL3ENI4YL6FRFTJMR5KW44", "dateTime": 1519325361284}, {"current_trial": 16, "trialdata": {"rt": -1, "trial_type": "single-stim", "stimulus": "<p id=\"stim\">4</p>", "internal_node_id": "0.0-10.0-6.0", "time_elapsed": 181930, "key_press": -1, "trial_index": 16}, "uniqueid": "MTK2756:3ON104KXQL3ENI4YL6FRFTJMR5KW44", "dateTime": 1519325362285}, {"current_trial": 17, "trialdata": {"rt": -1, "trial_type": "single-stim", "stimulus": "<p id=\"stim\">3</p>", "internal_node_id": "0.0-10.0-7.0", "time_elapsed": 182931, "key_press": -1, "trial_index": 17}, "uniqueid": "MTK2756:3ON104KXQL3ENI4YL6FRFTJMR5KW44", "dateTime": 1519325363287}, {"current_trial": 18, "trialdata": {"rt": -1, "trial_type": "single-stim", "stimulus": "<p id=\"stim\">2</p>", "internal_node_id": "0.0-10.0-8.0", "time_elapsed": 183934, "key_press": -1, "trial_index": 18}, "uniqueid": "MTK2756:3ON104KXQL3ENI4YL6FRFTJMR5KW44", "dateTime": 1519325364289}, {"current_trial": 19, "trialdata": {"rt": -1, "trial_type": "single-stim", "stimulus": "<p id=\"stim\">1</p>", "internal_node_id": "0.0-10.0-9.0", "time_elapsed": 184936, "key_press": -1, "trial_index": 19}, "uniqueid": "MTK2756:3ON104KXQL3ENI4YL6FRFTJMR5KW44", "dateTime": 1519325365291}, {"current_trial": 20, "trialdata": {"rt": -1, "trial_type": "single-stim", "stimulus": "<p id=\"stim\">+</p>", "internal_node_id": "0.0-11.0-0.0", "time_elapsed": 186439, "key_press": -1, "type": "FIXATION", "trial_index": 20}, "uniqueid": "MTK2756:3ON104KXQL3ENI4YL6FRFTJMR5KW44", "dateTime": 1519325366794}, {"current_trial": 21, "trialdata": {"rt": -1000, "trial_type": "single-audio", "word": "sparrow", "stimulus": "/static/audio/wordpool/SPARROW.wav", "conditions": [18, 1200, "a", 18000], "internal_node_id": "0.0-12.0", "trial": 0, "time_elapsed": 188737, "serialpos": 0, "key_press": -1, "wordID": 1346, "type": "PRES_AUD", "trial_index": 21}, "uniqueid": "MTK2756:3ON104KXQL3ENI4YL6FRFTJMR5KW44", "dateTime": 1519325369092}, {"current_trial": 22, "trialdata": {"rt": -1000, "trial_type": "single-audio", "word": "lipstick", "stimulus": "/static/audio/wordpool/LIPSTICK.wav", "conditions": [18, 1200, "a", 18000], "internal_node_id": "0.0-13.0", "trial": 0, "time_elapsed": 191076, "serialpos": 1, "key_press": -1, "wordID": 828, "type": "PRES_AUD", "trial_index": 22}, "uniqueid": "MTK2756:3ON104KXQL3ENI4YL6FRFTJMR5KW44", "dateTime": 1519325371431}, {"current_trial": 23, "trialdata": {"rt": -1000, "trial_type": "single-audio", "word": "badge", "stimulus": "/static/audio/wordpool/BADGE.wav", "conditions": [18, 1200, "a", 18000], "internal_node_id": "0.0-14.0", "trial": 0, "time_elapsed": 193310, "serialpos": 2, "key_press": -1, "wordID": 67, "type": "PRES_AUD", "trial_index": 23}, "uniqueid": "MTK2756:3ON104KXQL3ENI4YL6FRFTJMR5KW44", "dateTime": 1519325373665}, {"current_trial": 24, "trialdata": {"rt": -1000, "trial_type": "single-audio", "word": "gravel", "stimulus": "/static/audio/wordpool/GRAVEL.wav", "conditions": [18, 1200, "a", 18000], "internal_node_id": "0.0-15.0", "trial": 0, "time_elapsed": 195343, "serialpos": 3, "key_press": -1, "wordID": 658, "type": "PRES_AUD", "trial_index": 24}, "uniqueid": "MTK2756:3ON104KXQL3ENI4YL6FRFTJMR5KW44", "dateTime": 1519325375698}, {"current_trial": 25, "trialdata": {"rt": -1000, "trial_type": "single-audio", "word": "flask", "stimulus": "/static/audio/wordpool/FLASK.wav", "conditions": [18, 1200, "a", 18000], "internal_node_id": "0.0-16.0", "trial": 0, "time_elapsed": 197462, "serialpos": 4, "key_press": -1, "wordID": 575, "type": "PRES_AUD", "trial_index": 25}, "uniqueid": "MTK2756:3ON104KXQL3ENI4YL6FRFTJMR5KW44", "dateTime": 1519325377817}, {"current_trial": 26, "trialdata": {"rt": -1000, "trial_type": "single-audio", "word": "relish", "stimulus": "/static/audio/wordpool/RELISH.wav", "conditions": [18, 1200, "a", 18000], "internal_node_id": "0.0-17.0", "trial": 0, "time_elapsed": 199778, "serialpos": 5, "key_press": -1, "wordID": 1182, "type": "PRES_AUD", "trial_index": 26}, "uniqueid": "MTK2756:3ON104KXQL3ENI4YL6FRFTJMR5KW44", "dateTime": 1519325380133}, {"current_trial": 27, "trialdata": {"rt": -1000, "trial_type": "single-audio", "word": "mustard", "stimulus": "/static/audio/wordpool/MUSTARD.wav", "conditions": [18, 1200, "a", 18000], "internal_node_id": "0.0-18.0", "trial": 0, "time_elapsed": 201905, "serialpos": 6, "key_press": -1, "wordID": 934, "type": "PRES_AUD", "trial_index": 27}, "uniqueid": "MTK2756:3ON104KXQL3ENI4YL6FRFTJMR5KW44", "dateTime": 1519325382260}, {"current_trial": 28, "trialdata": {"rt": -1000, "trial_type": "single-audio", "word": "saddle", "stimulus": "/static/audio/wordpool/SADDLE.wav", "conditions": [18, 1200, "a", 18000], "internal_node_id": "0.0-19.0", "trial": 0, "time_elapsed": 204243, "serialpos": 7, "key_press": -1, "wordID": 1220, "type": "PRES_AUD", "trial_index": 28}, "uniqueid": "MTK2756:3ON104KXQL3ENI4YL6FRFTJMR5KW44", "dateTime": 1519325384598}, {"current_trial": 29, "trialdata": {"rt": -1000, "trial_type": "single-audio", "word": "forest", "stimulus": "/static/audio/wordpool/FOREST.wav", "conditions": [18, 1200, "a", 18000], "internal_node_id": "0.0-20.0", "trial": 0, "time_elapsed": 206529, "serialpos": 8, "key_press": -1, "wordID": 592, "type": "PRES_AUD", "trial_index": 29}, "uniqueid": "MTK2756:3ON104KXQL3ENI4YL6FRFTJMR5KW44", "dateTime": 1519325386885}, {"current_trial": 30, "trialdata": {"rt": -1000, "trial_type": "single-audio", "word": "tribe", "stimulus": "/static/audio/wordpool/TRIBE.wav", "conditions": [18, 1200, "a", 18000], "internal_node_id": "0.0-21.0", "trial": 0, "time_elapsed": 208619, "serialpos": 9, "key_press": -1, "wordID": 1504, "type": "PRES_AUD", "trial_index": 30}, "uniqueid": "MTK2756:3ON104KXQL3ENI4YL6FRFTJMR5KW44", "dateTime": 1519325388974}, {"current_trial": 31, "trialdata": {"rt": -1000, "trial_type": "single-audio", "word": "fireplace", "stimulus": "/static/audio/wordpool/FIREPLACE.wav", "conditions": [18, 1200, "a", 18000], "internal_node_id": "0.0-22.0", "trial": 0, "time_elapsed": 210878, "serialpos": 10, "key_press": -1, "wordID": 569, "type": "PRES_AUD", "trial_index": 31}, "uniqueid": "MTK2756:3ON104KXQL3ENI4YL6FRFTJMR5KW44", "dateTime": 1519325391233}, {"current_trial": 32, "trialdata": {"rt": -1000, "trial_type": "single-audio", "word": "stove", "stimulus": "/static/audio/wordpool/STOVE.wav", "conditions": [18, 1200, "a", 18000], "internal_node_id": "0.0-23.0", "trial": 0, "time_elapsed": 213118, "serialpos": 11, "key_press": -1, "wordID": 1387, "type": "PRES_AUD", "trial_index": 32}, "uniqueid": "MTK2756:3ON104KXQL3ENI4YL6FRFTJMR5KW44", "dateTime": 1519325393473}, {"current_trial": 33, "trialdata": {"rt": -1000, "trial_type": "single-audio", "word": "termite", "stimulus": "/static/audio/wordpool/TERMITE.wav", "conditions": [18, 1200, "a", 18000], "internal_node_id": "0.0-24.0", "trial": 0, "time_elapsed": 215423, "serialpos": 12, "key_press": -1, "wordID": 1450, "type": "PRES_AUD", "trial_index": 33}, "uniqueid": "MTK2756:3ON104KXQL3ENI4YL6FRFTJMR5KW44", "dateTime": 1519325395778}, {"current_trial": 34, "trialdata": {"rt": -1000, "trial_type": "single-audio", "word": "cupboard", "stimulus": "/static/audio/wordpool/CUPBOARD.wav", "conditions": [18, 1200, "a", 18000], "internal_node_id": "0.0-25.0", "trial": 0, "time_elapsed": 217821, "serialpos": 13, "key_press": -1, "wordID": 424, "type": "PRES_AUD", "trial_index": 34}, "uniqueid": "MTK2756:3ON104KXQL3ENI4YL6FRFTJMR5KW44", "dateTime": 1519325398176}, {"current_trial": 35, "trialdata": {"rt": -1000, "trial_type": "single-audio", "word": "loft", "stimulus": "/static/audio/wordpool/LOFT.wav", "conditions": [18, 1200, "a", 18000], "internal_node_id": "0.0-26.0", "trial": 0, "time_elapsed": 219946, "serialpos": 14, "key_press": -1, "wordID": 839, "type": "PRES_AUD", "trial_index": 35}, "uniqueid": "MTK2756:3ON104KXQL3ENI4YL6FRFTJMR5KW44", "dateTime": 1519325400301}, {"current_trial": 36, "trialdata": {"rt": -1000, "trial_type": "single-audio", "word": "window", "stimulus": "/static/audio/wordpool/WINDOW.wav", "conditions": [18, 1200, "a", 18000], "internal_node_id": "0.0-27.0", "trial": 0, "time_elapsed": 222273, "serialpos": 15, "key_press": -1, "wordID": 1610, "type": "PRES_AUD", "trial_index": 36}, "uniqueid": "MTK2756:3ON104KXQL3ENI4YL6FRFTJMR5KW44", "dateTime": 1519325402628}, {"current_trial": 37, "trialdata": {"rt": -1000, "trial_type": "single-audio", "word": "critic", "stimulus": "/static/audio/wordpool/CRITIC.wav", "conditions": [18, 1200, "a", 18000], "internal_node_id": "0.0-28.0", "trial": 0, "time_elapsed": 224421, "serialpos": 16, "key_press": -1, "wordID": 409, "type": "PRES_AUD", "trial_index": 37}, "uniqueid": "MTK2756:3ON104KXQL3ENI4YL6FRFTJMR5KW44", "dateTime": 1519325404776}, {"current_trial": 38, "trialdata": {"rt": -1000, "trial_type": "single-audio", "word": "powder", "stimulus": "/static/audio/wordpool/POWDER.wav", "conditions": [18, 1200, "a", 18000], "internal_node_id": "0.0-29.0", "trial": 0, "time_elapsed": 226697, "serialpos": 17, "key_press": -1, "wordID": 1116, "type": "PRES_AUD", "trial_index": 38}, "uniqueid": "MTK2756:3ON104KXQL3ENI4YL6FRFTJMR5KW44", "dateTime": 1519325407052}, {"current_trial": 39, "trialdata": {"rt": -1, "trial_type": "single-stim", "stimulus": "", "internal_node_id": "0.0-30.0-0.0", "time_elapsed": 228078, "key_press": -1, "type": "PRE_RECALL_DELAY", "trial_index": 39}, "uniqueid": "MTK2756:3ON104KXQL3ENI4YL6FRFTJMR5KW44", "dateTime": 1519325408433}, {"current_trial": 40, "trialdata": {"rt": -1000, "trial_type": "single-audio", "stimulus": "/static/audio/400Hz.wav", "internal_node_id": "0.0-31.0", "time_elapsed": 228580, "key_press": -1, "type": "PRE_RECALL_ALERT", "trial_index": 40}, "uniqueid": "MTK2756:3ON104KXQL3ENI4YL6FRFTJMR5KW44", "dateTime": 1519325408935}, {"current_trial": 41, "trialdata": {"rt": [2983, 5682, 7843, 9845, 11770, 13152, 13311, 16651, 21298, 23604, 26597, 33875, 56893], "recwords": ["powder", "critic", "loft", "window", "stove", "spe", "", "spell", "lipstick", "badge", "fireplace", "saddle", "fire"], "key_times": [1262, 1464, 1757, 1993, 2195, 2420, 2983, 3681, 3973, 4187, 4345, 4490, 4862, 5682, 6313, 6493, 6774, 6999, 7843, 8562, 8709, 8900, 9137, 9238, 9610, 9845, 10217, 10408, 10610, 10903, 11082, 11770, 12467, 12725, 12905, 13152, 13311, 14716, 14863, 15054, 15774, 15932, 16651, 18237, 18452, 18721, 18879, 19093, 19307, 19577, 19790, 21298, 22018, 22153, 22434, 22828, 22963, 23604, 24572, 24786, 24909, 25044, 25359, 25561, 25651, 25910, 26192, 26597, 30815, 31502, 31727, 31929, 32413, 32559, 32998, 33189, 33875, 55948, 56286, 56432, 56601, 56893], "trial_type": "free-recall", "conditions": [18, 1200, "a", 18000], "internal_node_id": "0.0-32.0-0.0", "key_presses": [80, 79, 87, 68, 69, 82, 13, 67, 82, 73, 84, 73, 67, 13, 76, 79, 70, 84, 13, 87, 73, 78, 68, 79, 87, 13, 83, 84, 79, 86, 69, 13, 83, 80, 69, 13, 13, 83, 80, 69, 76, 76, 13, 76, 73, 80, 83, 84, 73, 67, 75, 13, 66, 65, 68, 71, 69, 13, 70, 73, 82, 69, 80, 76, 65, 67, 69, 13, 68, 8, 83, 65, 68, 68, 76, 69, 13, 70, 73, 82, 69, 13], "trial": 0, "time_elapsed": 288588, "type": "FREE_RECALL", "trial_index": 41}, "uniqueid": "MTK2756:3ON104KXQL3ENI4YL6FRFTJMR5KW44", "dateTime": 1519325468944}, {"current_trial": 42, "trialdata": {"rt": 1611, "trial_type": "text", "internal_node_id": "0.0-33.0", "time_elapsed": 292202, "key_press": 32, "type": "INSTRUCTIONS", "trial_index": 42}, "uniqueid": "MTK2756:3ON104KXQL3ENI4YL6FRFTJMR5KW44", "dateTime": 1519325472557}, {"current_trial": 43, "trialdata": {"rt": [2584, 5408, 8435, 10741, 13069, 15994], "trial_type": "math-distractor", "key_times": [1910, 2281, 2584, 4576, 5138, 5408, 7557, 8007, 8435, 10302, 10493, 10741, 12519, 12833, 13069, 15421, 15612, 15994], "responses": ["14", "10", "10", "12", "13", "11"], "num2": [4, 4, 3, 4, 4, 4, 5], "num3": [7, 4, 5, 4, 8, 4, 9], "conditions": [18, 1200, "a", 18000], "internal_node_id": "0.0-34.0", "key_presses": [49, 52, 13, 49, 48, 13, 49, 48, 13, 49, 50, 13, 49, 51, 13, 49, 49, 13], "trial": 1, "time_elapsed": 312208, "type": "DISTRACTOR", "trial_index": 43, "num1": [3, 2, 2, 4, 1, 3, 7]}, "uniqueid": "MTK2756:3ON104KXQL3ENI4YL6FRFTJMR5KW44", "dateTime": 1519325492564}, {"current_trial": 44, "trialdata": {"rt": -1, "trial_type": "single-stim", "stimulus": "<p id=\"stim\">10</p>", "internal_node_id": "0.0-35.0-0.0", "time_elapsed": 315218, "key_press": -1, "trial_index": 44}, "uniqueid": "MTK2756:3ON104KXQL3ENI4YL6FRFTJMR5KW44", "dateTime": 1519325495573}, {"current_trial": 45, "trialdata": {"rt": -1, "trial_type": "single-stim", "stimulus": "<p id=\"stim\">9</p>", "internal_node_id": "0.0-35.0-1.0", "time_elapsed": 316222, "key_press": -1, "trial_index": 45}, "uniqueid": "MTK2756:3ON104KXQL3ENI4YL6FRFTJMR5KW44", "dateTime": 1519325496577}, {"current_trial": 46, "trialdata": {"rt": -1, "trial_type": "single-stim", "stimulus": "<p id=\"stim\">8</p>", "internal_node_id": "0.0-35.0-2.0", "time_elapsed": 317226, "key_press": -1, "trial_index": 46}, "uniqueid": "MTK2756:3ON104KXQL3ENI4YL6FRFTJMR5KW44", "dateTime": 1519325497581}, {"current_trial": 47, "trialdata": {"rt": -1, "trial_type": "single-stim", "stimulus": "<p id=\"stim\">7</p>", "internal_node_id": "0.0-35.0-3.0", "time_elapsed": 318231, "key_press": -1, "trial_index": 47}, "uniqueid": "MTK2756:3ON104KXQL3ENI4YL6FRFTJMR5KW44", "dateTime": 1519325498586}, {"current_trial": 48, "trialdata": {"rt": -1, "trial_type": "single-stim", "stimulus": "<p id=\"stim\">6</p>", "internal_node_id": "0.0-35.0-4.0", "time_elapsed": 319234, "key_press": -1, "trial_index": 48}, "uniqueid": "MTK2756:3ON104KXQL3ENI4YL6FRFTJMR5KW44", "dateTime": 1519325499589}, {"current_trial": 49, "trialdata": {"rt": -1, "trial_type": "single-stim", "stimulus": "<p id=\"stim\">5</p>", "internal_node_id": "0.0-35.0-5.0", "time_elapsed": 320238, "key_press": -1, "trial_index": 49}, "uniqueid": "MTK2756:3ON104KXQL3ENI4YL6FRFTJMR5KW44", "dateTime": 1519325500593}, {"current_trial": 50, "trialdata": {"rt": -1, "trial_type": "single-stim", "stimulus": "<p id=\"stim\">4</p>", "internal_node_id": "0.0-35.0-6.0", "time_elapsed": 321243, "key_press": -1, "trial_index": 50}, "uniqueid": "MTK2756:3ON104KXQL3ENI4YL6FRFTJMR5KW44", "dateTime": 1519325501598}, {"current_trial": 51, "trialdata": {"rt": -1, "trial_type": "single-stim", "stimulus": "<p id=\"stim\">3</p>", "internal_node_id": "0.0-35.0-7.0", "time_elapsed": 322247, "key_press": -1, "trial_index": 51}, "uniqueid": "MTK2756:3ON104KXQL3ENI4YL6FRFTJMR5KW44", "dateTime": 1519325502602}, {"current_trial": 52, "trialdata": {"rt": -1, "trial_type": "single-stim", "stimulus": "<p id=\"stim\">2</p>", "internal_node_id": "0.0-35.0-8.0", "time_elapsed": 323251, "key_press": -1, "trial_index": 52}, "uniqueid": "MTK2756:3ON104KXQL3ENI4YL6FRFTJMR5KW44", "dateTime": 1519325503606}, {"current_trial": 53, "trialdata": {"rt": -1, "trial_type": "single-stim", "stimulus": "<p id=\"stim\">1</p>", "internal_node_id": "0.0-35.0-9.0", "time_elapsed": 324255, "key_press": -1, "trial_index": 53}, "uniqueid": "MTK2756:3ON104KXQL3ENI4YL6FRFTJMR5KW44", "dateTime": 1519325504610}, {"current_trial": 54, "trialdata": {"rt": -1, "trial_type": "single-stim", "stimulus": "<p id=\"stim\">+</p>", "internal_node_id": "0.0-36.0-0.0", "time_elapsed": 325758, "key_press": -1, "type": "FIXATION", "trial_index": 54}, "uniqueid": "MTK2756:3ON104KXQL3ENI4YL6FRFTJMR5KW44", "dateTime": 1519325506113}, {"current_trial": 55, "trialdata": {"rt": -1000, "trial_type": "single-audio", "word": "honey", "stimulus": "/static/audio/wordpool/HONEY.wav", "conditions": [18, 1200, "a", 18000], "internal_node_id": "0.0-37.0", "trial": 1, "time_elapsed": 327947, "serialpos": 0, "key_press": -1, "wordID": 712, "type": "PRES_AUD", "trial_index": 55}, "uniqueid": "MTK2756:3ON104KXQL3ENI4YL6FRFTJMR5KW44", "dateTime": 1519325508302}, {"current_trial": 56, "trialdata": {"rt": -1000, "trial_type": "single-audio", "word": "diner", "stimulus": "/static/audio/wordpool/DINER.wav", "conditions": [18, 1200, "a", 18000], "internal_node_id": "0.0-38.0", "trial": 1, "time_elapsed": 330324, "serialpos": 1, "key_press": -1, "wordID": 466, "type": "PRES_AUD", "trial_index": 56}, "uniqueid": "MTK2756:3ON104KXQL3ENI4YL6FRFTJMR5KW44", "dateTime": 1519325510679}, {"current_trial": 57, "trialdata": {"rt": -1000, "trial_type": "single-audio", "word": "turkey", "stimulus": "/static/audio/wordpool/TURKEY.wav", "conditions": [18, 1200, "a", 18000], "internal_node_id": "0.0-39.0", "trial": 1, "time_elapsed": 332605, "serialpos": 2, "key_press": -1, "wordID": 1519, "type": "PRES_AUD", "trial_index": 57}, "uniqueid": "MTK2756:3ON104KXQL3ENI4YL6FRFTJMR5KW44", "dateTime": 1519325512960}, {"current_trial": 58, "trialdata": {"rt": -1000, "trial_type": "single-audio", "word": "sausage", "stimulus": "/static/audio/wordpool/SAUSAGE.wav", "conditions": [18, 1200, "a", 18000], "internal_node_id": "0.0-40.0", "trial": 1, "time_elapsed": 334742, "serialpos": 3, "key_press": -1, "wordID": 1237, "type": "PRES_AUD", "trial_index": 58}, "uniqueid": "MTK2756:3ON104KXQL3ENI4YL6FRFTJMR5KW44", "dateTime": 1519325515097}, {"current_trial": 59, "trialdata": {"rt": -1000, "trial_type": "single-audio", "word": "jelly", "stimulus": "/static/audio/wordpool/JELLY.wav", "conditions": [18, 1200, "a", 18000], "internal_node_id": "0.0-41.0", "trial": 1, "time_elapsed": 336901, "serialpos": 4, "key_press": -1, "wordID": 754, "type": "PRES_AUD", "trial_index": 59}, "uniqueid": "MTK2756:3ON104KXQL3ENI4YL6FRFTJMR5KW44", "dateTime": 1519325517256}, {"current_trial": 60, "trialdata": {"rt": -1000, "trial_type": "single-audio", "word": "country", "stimulus": "/static/audio/wordpool/COUNTRY.wav", "conditions": [18, 1200, "a", 18000], "internal_node_id": "0.0-42.0", "trial": 1, "time_elapsed": 338968, "serialpos": 5, "key_press": -1, "wordID": 387, "type": "PRES_AUD", "trial_index": 60}, "uniqueid": "MTK2756:3ON104KXQL3ENI4YL6FRFTJMR5KW44", "dateTime": 1519325519323}, {"current_trial": 61, "trialdata": {"rt": -1000, "trial_type": "single-audio", "word": "bank", "stimulus": "/static/audio/wordpool/BANK.wav", "conditions": [18, 1200, "a", 18000], "internal_node_id": "0.0-43.0", "trial": 1, "time_elapsed": 341334, "serialpos": 6, "key_press": -1, "wordID": 82, "type": "PRES_AUD", "trial_index": 61}, "uniqueid": "MTK2756:3ON104KXQL3ENI4YL6FRFTJMR5KW44", "dateTime": 1519325521689}, {"current_trial": 62, "trialdata": {"rt": -1000, "trial_type": "single-audio", "word": "highway", "stimulus": "/static/audio/wordpool/HIGHWAY.wav", "conditions": [18, 1200, "a", 18000], "internal_node_id": "0.0-44.0", "trial": 1, "time_elapsed": 343485, "serialpos": 7, "key_press": -1, "wordID": 706, "type": "PRES_AUD", "trial_index": 62}, "uniqueid": "MTK2756:3ON104KXQL3ENI4YL6FRFTJMR5KW44", "dateTime": 1519325523840}, {"current_trial": 63, "trialdata": {"rt": -1000, "trial_type": "single-audio", "word": "spool", "stimulus": "/static/audio/wordpool/SPOOL.wav", "conditions": [18, 1200, "a", 18000], "internal_node_id": "0.0-45.0", "trial": 1, "time_elapsed": 345551, "serialpos": 8, "key_press": -1, "wordID": 1355, "type": "PRES_AUD", "trial_index": 63}, "uniqueid": "MTK2756:3ON104KXQL3ENI4YL6FRFTJMR5KW44", "dateTime": 1519325525907}, {"current_trial": 64, "trialdata": {"rt": -1000, "trial_type": "single-audio", "word": "glass", "stimulus": "/static/audio/wordpool/GLASS.wav", "conditions": [18, 1200, "a", 18000], "internal_node_id": "0.0-46.0", "trial": 1, "time_elapsed": 347606, "serialpos": 9, "key_press": -1, "wordID": 638, "type": "PRES_AUD", "trial_index": 64}, "uniqueid": "MTK2756:3ON104KXQL3ENI4YL6FRFTJMR5KW44", "dateTime": 1519325527961}, {"current_trial": 65, "trialdata": {"rt": -1000, "trial_type": "single-audio", "word": "cashier", "stimulus": "/static/audio/wordpool/CASHIER.wav", "conditions": [18, 1200, "a", 18000], "internal_node_id": "0.0-47.0", "trial": 1, "time_elapsed": 349903, "serialpos": 10, "key_press": -1, "wordID": 253, "type": "PRES_AUD", "trial_index": 65}, "uniqueid": "MTK2756:3ON104KXQL3ENI4YL6FRFTJMR5KW44", "dateTime": 1519325530258}, {"current_trial": 66, "trialdata": {"rt": -1000, "trial_type": "single-audio", "word": "goblin", "stimulus": "/static/audio/wordpool/GOBLIN.wav", "conditions": [18, 1200, "a", 18000], "internal_node_id": "0.0-48.0", "trial": 1, "time_elapsed": 352059, "serialpos": 11, "key_press": -1, "wordID": 644, "type": "PRES_AUD", "trial_index": 66}, "uniqueid": "MTK2756:3ON104KXQL3ENI4YL6FRFTJMR5KW44", "dateTime": 1519325532414}, {"current_trial": 67, "trialdata": {"rt": -1000, "trial_type": "single-audio", "word": "shoulder", "stimulus": "/static/audio/wordpool/SHOULDER.wav", "conditions": [18, 1200, "a", 18000], "internal_node_id": "0.0-49.0", "trial": 1, "time_elapsed": 354306, "serialpos": 12, "key_press": -1, "wordID": 1293, "type": "PRES_AUD", "trial_index": 67}, "uniqueid": "MTK2756:3ON104KXQL3ENI4YL6FRFTJMR5KW44", "dateTime": 1519325534661}, {"current_trial": 68, "trialdata": {"rt": -1000, "trial_type": "single-audio", "word": "jungle", "stimulus": "/static/audio/wordpool/JUNGLE.wav", "conditions": [18, 1200, "a", 18000], "internal_node_id": "0.0-50.0", "trial": 1, "time_elapsed": 356442, "serialpos": 13, "key_press": -1, "wordID": 763, "type": "PRES_AUD", "trial_index": 68}, "uniqueid": "MTK2756:3ON104KXQL3ENI4YL6FRFTJMR5KW44", "dateTime": 1519325536797}, {"current_trial": 69, "trialdata": {"rt": -1000, "trial_type": "single-audio", "word": "star", "stimulus": "/static/audio/wordpool/STAR.wav", "conditions": [18, 1200, "a", 18000], "internal_node_id": "0.0-51.0", "trial": 1, "time_elapsed": 358841, "serialpos": 14, "key_press": -1, "wordID": 1372, "type": "PRES_AUD", "trial_index": 69}, "uniqueid": "MTK2756:3ON104KXQL3ENI4YL6FRFTJMR5KW44", "dateTime": 1519325539196}, {"current_trial": 70, "trialdata": {"rt": -1000, "trial_type": "single-audio", "word": "police", "stimulus": "/static/audio/wordpool/POLICE.wav", "conditions": [18, 1200, "a", 18000], "internal_node_id": "0.0-52.0", "trial": 1, "time_elapsed": 360906, "serialpos": 15, "key_press": -1, "wordID": 1097, "type": "PRES_AUD", "trial_index": 70}, "uniqueid": "MTK2756:3ON104KXQL3ENI4YL6FRFTJMR5KW44", "dateTime": 1519325541261}, {"current_trial": 71, "trialdata": {"rt": -1000, "trial_type": "single-audio", "word": "cross", "stimulus": "/static/audio/wordpool/CROSS.wav", "conditions": [18, 1200, "a", 18000], "internal_node_id": "0.0-53.0", "trial": 1, "time_elapsed": 363013, "serialpos": 16, "key_press": -1, "wordID": 412, "type": "PRES_AUD", "trial_index": 71}, "uniqueid": "MTK2756:3ON104KXQL3ENI4YL6FRFTJMR5KW44", "dateTime": 1519325543368}, {"current_trial": 72, "trialdata": {"rt": -1000, "trial_type": "single-audio", "word": "heart", "stimulus": "/static/audio/wordpool/HEART.wav", "conditions": [18, 1200, "a", 18000], "internal_node_id": "0.0-54.0", "trial": 1, "time_elapsed": 365056, "serialpos": 17, "key_press": -1, "wordID": 696, "type": "PRES_AUD", "trial_index": 72}, "uniqueid": "MTK2756:3ON104KXQL3ENI4YL6FRFTJMR5KW44", "dateTime": 1519325545411}, {"current_trial": 73, "trialdata": {"rt": -1, "trial_type": "single-stim", "stimulus": "", "internal_node_id": "0.0-55.0-0.0", "time_elapsed": 366444, "key_press": -1, "type": "PRE_RECALL_DELAY", "trial_index": 73}, "uniqueid": "MTK2756:3ON104KXQL3ENI4YL6FRFTJMR5KW44", "dateTime": 1519325546799}, {"current_trial": 74, "trialdata": {"rt": -1000, "trial_type": "single-audio", "stimulus": "/static/audio/400Hz.wav", "internal_node_id": "0.0-56.0", "time_elapsed": 366946, "key_press": -1, "type": "PRE_RECALL_ALERT", "trial_index": 74}, "uniqueid": "MTK2756:3ON104KXQL3ENI4YL6FRFTJMR5KW44", "dateTime": 1519325547301}, {"current_trial": 75, "trialdata": {"rt": [2351, 4129, 5389, 7887, 10970, 13455, 14985, 16863, 18012, 20048, 24019, 26055, 35359, 38340, 44831, 54079], "recwords": ["heart", "honey", "diner", "turkey", "sausage", "shoulder", "police", "jungle", "star", "heart", "goblin", "country", "cross", "highway", "cashier", "night"], "key_times": [889, 1024, 1215, 1541, 1856, 2351, 3038, 3251, 3442, 3611, 3769, 4129, 4387, 4534, 4804, 4973, 5074, 5389, 6457, 6739, 6885, 7144, 7324, 7538, 7887, 8527, 8708, 8910, 9361, 9484, 9810, 10046, 10970, 11509, 11599, 12162, 12363, 12622, 12847, 13073, 13185, 13455, 13827, 14007, 14175, 14378, 14456, 14737, 14985, 15480, 15661, 15840, 16392, 16537, 16661, 16863, 17066, 17246, 17415, 17550, 18012, 18619, 18721, 18866, 18967, 19260, 20048, 22276, 22444, 22725, 22928, 23142, 23355, 24019, 24502, 24626, 24772, 24987, 25155, 25380, 25527, 26055, 33672, 33975, 34245, 34504, 34684, 35359, 36000, 36214, 36405, 36506, 36866, 37080, 37282, 38340, 42908, 43121, 43470, 43673, 43853, 43988, 44145, 44831, 53044, 53269, 53460, 53527, 53742, 54079], "trial_type": "free-recall", "conditions": [18, 1200, "a", 18000], "internal_node_id": "0.0-57.0-0.0", "key_presses": [72, 69, 65, 82, 84, 13, 72, 79, 78, 69, 89, 13, 68, 73, 78, 69, 82, 13, 84, 85, 82, 75, 69, 89, 13, 83, 65, 85, 83, 65, 71, 69, 13, 83, 72, 79, 85, 76, 68, 69, 82, 13, 80, 79, 76, 73, 67, 69, 13, 74, 85, 78, 71, 76, 69, 13, 83, 84, 65, 82, 13, 72, 69, 65, 82, 84, 13, 71, 79, 66, 76, 73, 78, 13, 67, 79, 85, 78, 84, 82, 89, 13, 67, 82, 79, 83, 83, 13, 72, 73, 71, 72, 87, 65, 89, 13, 67, 65, 83, 72, 73, 69, 82, 13, 78, 73, 71, 72, 84, 13], "trial": 1, "time_elapsed": 426952, "type": "FREE_RECALL", "trial_index": 75}, "uniqueid": "MTK2756:3ON104KXQL3ENI4YL6FRFTJMR5KW44", "dateTime": 1519325607308}, {"current_trial": 76, "trialdata": {"rt": 2138, "trial_type": "text", "internal_node_id": "0.0-58.0", "time_elapsed": 431094, "key_press": 32, "type": "INSTRUCTIONS", "trial_index": 76}, "uniqueid": "MTK2756:3ON104KXQL3ENI4YL6FRFTJMR5KW44", "dateTime": 1519325611449}, {"current_trial": 77, "trialdata": {"rt": [3958, 5927, 8682, 11349, 14207, 16659, 19213, 22138, 23949], "trial_type": "math-distractor", "key_times": [2777, 2957, 3958, 5139, 5702, 5927, 7884, 8447, 8682, 10618, 11146, 11349, 13532, 14027, 14207, 15882, 16434, 16659, 18741, 18932, 19213, 21734, 21913, 22138, 23375, 23747, 23949], "responses": ["22", "15", "19", "10", "16", "19", "12", "21", "13"], "num2": [7, 5, 9, 3, 9, 5, 6, 6, 9, 6], "num3": [9, 1, 2, 4, 4, 9, 3, 8, 1, 2], "conditions": [24, 1600, "a", 24000], "internal_node_id": "0.0-59.0", "key_presses": [50, 50, 13, 49, 53, 13, 49, 57, 13, 49, 48, 13, 49, 54, 13, 49, 57, 13, 49, 50, 13, 50, 49, 13, 49, 51, 13], "trial": 2, "time_elapsed": 456103, "type": "DISTRACTOR", "trial_index": 77, "num1": [6, 9, 8, 3, 3, 5, 3, 7, 3, 4]}, "uniqueid": "MTK2756:3ON104KXQL3ENI4YL6FRFTJMR5KW44", "dateTime": 1519325636458}, {"current_trial": 78, "trialdata": {"rt": -1, "trial_type": "single-stim", "stimulus": "<p id=\"stim\">10</p>", "internal_node_id": "0.0-60.0-0.0", "time_elapsed": 459109, "key_press": -1, "trial_index": 78}, "uniqueid": "MTK2756:3ON104KXQL3ENI4YL6FRFTJMR5KW44", "dateTime": 1519325639464}, {"current_trial": 79, "trialdata": {"rt": -1, "trial_type": "single-stim", "stimulus": "<p id=\"stim\">9</p>", "internal_node_id": "0.0-60.0-1.0", "time_elapsed": 460113, "key_press": -1, "trial_index": 79}, "uniqueid": "MTK2756:3ON104KXQL3ENI4YL6FRFTJMR5KW44", "dateTime": 1519325640468}, {"current_trial": 80, "trialdata": {"rt": -1, "trial_type": "single-stim", "stimulus": "<p id=\"stim\">8</p>", "internal_node_id": "0.0-60.0-2.0", "time_elapsed": 461118, "key_press": -1, "trial_index": 80}, "uniqueid": "MTK2756:3ON104KXQL3ENI4YL6FRFTJMR5KW44", "dateTime": 1519325641473}, {"current_trial": 81, "trialdata": {"rt": -1, "trial_type": "single-stim", "stimulus": "<p id=\"stim\">7</p>", "internal_node_id": "0.0-60.0-3.0", "time_elapsed": 462122, "key_press": -1, "trial_index": 81}, "uniqueid": "MTK2756:3ON104KXQL3ENI4YL6FRFTJMR5KW44", "dateTime": 1519325642477}, {"current_trial": 82, "trialdata": {"rt": -1, "trial_type": "single-stim", "stimulus": "<p id=\"stim\">6</p>", "internal_node_id": "0.0-60.0-4.0", "time_elapsed": 463126, "key_press": -1, "trial_index": 82}, "uniqueid": "MTK2756:3ON104KXQL3ENI4YL6FRFTJMR5KW44", "dateTime": 1519325643481}, {"current_trial": 83, "trialdata": {"rt": -1, "trial_type": "single-stim", "stimulus": "<p id=\"stim\">5</p>", "internal_node_id": "0.0-60.0-5.0", "time_elapsed": 464130, "key_press": -1, "trial_index": 83}, "uniqueid": "MTK2756:3ON104KXQL3ENI4YL6FRFTJMR5KW44", "dateTime": 1519325644485}, {"current_trial": 84, "trialdata": {"rt": -1, "trial_type": "single-stim", "stimulus": "<p id=\"stim\">4</p>", "internal_node_id": "0.0-60.0-6.0", "time_elapsed": 465134, "key_press": -1, "trial_index": 84}, "uniqueid": "MTK2756:3ON104KXQL3ENI4YL6FRFTJMR5KW44", "dateTime": 1519325645490}, {"current_trial": 85, "trialdata": {"rt": -1, "trial_type": "single-stim", "stimulus": "<p id=\"stim\">3</p>", "internal_node_id": "0.0-60.0-7.0", "time_elapsed": 466139, "key_press": -1, "trial_index": 85}, "uniqueid": "MTK2756:3ON104KXQL3ENI4YL6FRFTJMR5KW44", "dateTime": 1519325646494}, {"current_trial": 86, "trialdata": {"rt": -1, "trial_type": "single-stim", "stimulus": "<p id=\"stim\">2</p>", "internal_node_id": "0.0-60.0-8.0", "time_elapsed": 467142, "key_press": -1, "trial_index": 86}, "uniqueid": "MTK2756:3ON104KXQL3ENI4YL6FRFTJMR5KW44", "dateTime": 1519325647497}, {"current_trial": 87, "trialdata": {"rt": -1, "trial_type": "single-stim", "stimulus": "<p id=\"stim\">1</p>", "internal_node_id": "0.0-60.0-9.0", "time_elapsed": 468146, "key_press": -1, "trial_index": 87}, "uniqueid": "MTK2756:3ON104KXQL3ENI4YL6FRFTJMR5KW44", "dateTime": 1519325648501}, {"current_trial": 88, "trialdata": {"rt": -1, "trial_type": "single-stim", "stimulus": "<p id=\"stim\">+</p>", "internal_node_id": "0.0-61.0-0.0", "time_elapsed": 469650, "key_press": -1, "type": "FIXATION", "trial_index": 88}, "uniqueid": "MTK2756:3ON104KXQL3ENI4YL6FRFTJMR5KW44", "dateTime": 1519325650005}, {"current_trial": 89, "trialdata": {"rt": -1000, "trial_type": "single-audio", "word": "radish", "stimulus": "/static/audio/wordpool/RADISH.wav", "conditions": [24, 1600, "a", 24000], "internal_node_id": "0.0-62.0", "trial": 2, "time_elapsed": 472208, "serialpos": 0, "key_press": -1, "wordID": 1157, "type": "PRES_AUD", "trial_index": 89}, "uniqueid": "MTK2756:3ON104KXQL3ENI4YL6FRFTJMR5KW44", "dateTime": 1519325652563}, {"current_trial": 90, "trialdata": {"rt": -1000, "trial_type": "single-audio", "word": "office", "stimulus": "/static/audio/wordpool/OFFICE.wav", "conditions": [24, 1600, "a", 24000], "internal_node_id": "0.0-63.0", "trial": 2, "time_elapsed": 474761, "serialpos": 1, "key_press": -1, "wordID": 971, "type": "PRES_AUD", "trial_index": 90}, "uniqueid": "MTK2756:3ON104KXQL3ENI4YL6FRFTJMR5KW44", "dateTime": 1519325655116}, {"current_trial": 91, "trialdata": {"rt": -1000, "trial_type": "single-audio", "word": "hamper", "stimulus": "/static/audio/wordpool/HAMPER.wav", "conditions": [24, 1600, "a", 24000], "internal_node_id": "0.0-64.0", "trial": 2, "time_elapsed": 477421, "serialpos": 2, "key_press": -1, "wordID": 681, "type": "PRES_AUD", "trial_index": 91}, "uniqueid": "MTK2756:3ON104KXQL3ENI4YL6FRFTJMR5KW44", "dateTime": 1519325657776}, {"current_trial": 92, "trialdata": {"rt": -1000, "trial_type": "single-audio", "word": "icing", "stimulus": "/static/audio/wordpool/ICING.wav", "conditions": [24, 1600, "a", 24000], "internal_node_id": "0.0-65.0", "trial": 2, "time_elapsed": 480114, "serialpos": 3, "key_press": -1, "wordID": 731, "type": "PRES_AUD", "trial_index": 92}, "uniqueid": "MTK2756:3ON104KXQL3ENI4YL6FRFTJMR5KW44", "dateTime": 1519325660469}, {"current_trial": 93, "trialdata": {"rt": -1000, "trial_type": "single-audio", "word": "clamp", "stimulus": "/static/audio/wordpool/CLAMP.wav", "conditions": [24, 1600, "a", 24000], "internal_node_id": "0.0-66.0", "trial": 2, "time_elapsed": 482807, "serialpos": 4, "key_press": -1, "wordID": 315, "type": "PRES_AUD", "trial_index": 93}, "uniqueid": "MTK2756:3ON104KXQL3ENI4YL6FRFTJMR5KW44", "dateTime": 1519325663162}, {"current_trial": 94, "trialdata": {"rt": -1000, "trial_type": "single-audio", "word": "belly", "stimulus": "/static/audio/wordpool/BELLY.wav", "conditions": [24, 1600, "a", 24000], "internal_node_id": "0.0-67.0", "trial": 2, "time_elapsed": 485606, "serialpos": 5, "key_press": -1, "wordID": 118, "type": "PRES_AUD", "trial_index": 94}, "uniqueid": "MTK2756:3ON104KXQL3ENI4YL6FRFTJMR5KW44", "dateTime": 1519325665961}, {"current_trial": 95, "trialdata": {"rt": -1000, "trial_type": "single-audio", "word": "pizza", "stimulus": "/static/audio/wordpool/PIZZA.wav", "conditions": [24, 1600, "a", 24000], "internal_node_id": "0.0-68.0", "trial": 2, "time_elapsed": 488344, "serialpos": 6, "key_press": -1, "wordID": 1078, "type": "PRES_AUD", "trial_index": 95}, "uniqueid": "MTK2756:3ON104KXQL3ENI4YL6FRFTJMR5KW44", "dateTime": 1519325668699}, {"current_trial": 96, "trialdata": {"rt": -1000, "trial_type": "single-audio", "word": "guitar", "stimulus": "/static/audio/wordpool/GUITAR.wav", "conditions": [24, 1600, "a", 24000], "internal_node_id": "0.0-69.0", "trial": 2, "time_elapsed": 490848, "serialpos": 7, "key_press": -1, "wordID": 669, "type": "PRES_AUD", "trial_index": 96}, "uniqueid": "MTK2756:3ON104KXQL3ENI4YL6FRFTJMR5KW44", "dateTime": 1519325671203}, {"current_trial": 97, "trialdata": {"rt": -1000, "trial_type": "single-audio", "word": "trombone", "stimulus": "/static/audio/wordpool/TROMBONE.wav", "conditions": [24, 1600, "a", 24000], "internal_node_id": "0.0-70.0", "trial": 2, "time_elapsed": 493311, "serialpos": 8, "key_press": -1, "wordID": 1507, "type": "PRES_AUD", "trial_index": 97}, "uniqueid": "MTK2756:3ON104KXQL3ENI4YL6FRFTJMR5KW44", "dateTime": 1519325673666}, {"current_trial": 98, "trialdata": {"rt": -1000, "trial_type": "single-audio", "word": "dorm", "stimulus": "/static/audio/wordpool/DORM.wav", "conditions": [24, 1600, "a", 24000], "internal_node_id": "0.0-71.0", "trial": 2, "time_elapsed": 496043, "serialpos": 9, "key_press": -1, "wordID": 487, "type": "PRES_AUD", "trial_index": 98}, "uniqueid": "MTK2756:3ON104KXQL3ENI4YL6FRFTJMR5KW44", "dateTime": 1519325676398}, {"current_trial": 99, "trialdata": {"rt": -1000, "trial_type": "single-audio", "word": "pasta", "stimulus": "/static/audio/wordpool/PASTA.wav", "conditions": [24, 1600, "a", 24000], "internal_node_id": "0.0-72.0", "trial": 2, "time_elapsed": 498569, "serialpos": 10, "key_press": -1, "wordID": 1020, "type": "PRES_AUD", "trial_index": 99}, "uniqueid": "MTK2756:3ON104KXQL3ENI4YL6FRFTJMR5KW44", "dateTime": 1519325678924}, {"current_trial": 100, "trialdata": {"rt": -1000, "trial_type": "single-audio", "word": "stamp", "stimulus": "/static/audio/wordpool/STAMP.wav", "conditions": [24, 1600, "a", 24000], "internal_node_id": "0.0-73.0", "trial": 2, "time_elapsed": 501193, "serialpos": 11, "key_press": -1, "wordID": 1369, "type": "PRES_AUD", "trial_index": 100}, "uniqueid": "MTK2756:3ON104KXQL3ENI4YL6FRFTJMR5KW44", "dateTime": 1519325681548}, {"current_trial": 101, "trialdata": {"rt": -1000, "trial_type": "single-audio", "word": "xerox", "stimulus": "/static/audio/wordpool/XEROX.wav", "conditions": [24, 1600, "a", 24000], "internal_node_id": "0.0-74.0", "trial": 2, "time_elapsed": 503893, "serialpos": 12, "key_press": -1, "wordID": 1627, "type": "PRES_AUD", "trial_index": 101}, "uniqueid": "MTK2756:3ON104KXQL3ENI4YL6FRFTJMR5KW44", "dateTime": 1519325684248}, {"current_trial": 102, "trialdata": {"rt": -1000, "trial_type": "single-audio", "word": "label", "stimulus": "/static/audio/wordpool/LABEL.wav", "conditions": [24, 1600, "a", 24000], "internal_node_id": "0.0-75.0", "trial": 2, "time_elapsed": 506360, "serialpos": 13, "key_press": -1, "wordID": 789, "type": "PRES_AUD", "trial_index": 102}, "uniqueid": "MTK2756:3ON104KXQL3ENI4YL6FRFTJMR5KW44", "dateTime": 1519325686715}, {"current_trial": 103, "trialdata": {"rt": -1000, "trial_type": "single-audio", "word": "record", "stimulus": "/static/audio/wordpool/RECORD.wav", "conditions": [24, 1600, "a", 24000], "internal_node_id": "0.0-76.0", "trial": 2, "time_elapsed": 508948, "serialpos": 14, "key_press": -1, "wordID": 1175, "type": "PRES_AUD", "trial_index": 103}, "uniqueid": "MTK2756:3ON104KXQL3ENI4YL6FRFTJMR5KW44", "dateTime": 1519325689304}, {"current_trial": 104, "trialdata": {"rt": -1000, "trial_type": "single-audio", "word": "kitchen", "stimulus": "/static/audio/wordpool/KITCHEN.wav", "conditions": [24, 1600, "a", 24000], "internal_node_id": "0.0-77.0", "trial": 2, "time_elapsed": 511416, "serialpos": 15, "key_press": -1, "wordID": 777, "type": "PRES_AUD", "trial_index": 104}, "uniqueid": "MTK2756:3ON104KXQL3ENI4YL6FRFTJMR5KW44", "dateTime": 1519325691771}, {"current_trial": 105, "trialdata": {"rt": -1000, "trial_type": "single-audio", "word": "paddle", "stimulus": "/static/audio/wordpool/PADDLE.wav", "conditions": [24, 1600, "a", 24000], "internal_node_id": "0.0-78.0", "trial": 2, "time_elapsed": 513982, "serialpos": 16, "key_press": -1, "wordID": 999, "type": "PRES_AUD", "trial_index": 105}, "uniqueid": "MTK2756:3ON104KXQL3ENI4YL6FRFTJMR5KW44", "dateTime": 1519325694337}, {"current_trial": 106, "trialdata": {"rt": -1000, "trial_type": "single-audio", "word": "friend", "stimulus": "/static/audio/wordpool/FRIEND.wav", "conditions": [24, 1600, "a", 24000], "internal_node_id": "0.0-79.0", "trial": 2, "time_elapsed": 516412, "serialpos": 17, "key_press": -1, "wordID": 605, "type": "PRES_AUD", "trial_index": 106}, "uniqueid": "MTK2756:3ON104KXQL3ENI4YL6FRFTJMR5KW44", "dateTime": 1519325696767}, {"current_trial": 107, "trialdata": {"rt": -1000, "trial_type": "single-audio", "word": "basement", "stimulus": "/static/audio/wordpool/BASEMENT.wav", "conditions": [24, 1600, "a", 24000], "internal_node_id": "0.0-80.0", "trial": 2, "time_elapsed": 518963, "serialpos": 18, "key_press": -1, "wordID": 93, "type": "PRES_AUD", "trial_index": 107}, "uniqueid": "MTK2756:3ON104KXQL3ENI4YL6FRFTJMR5KW44", "dateTime": 1519325699318}, {"current_trial": 108, "trialdata": {"rt": -1000, "trial_type": "single-audio", "word": "lake", "stimulus": "/static/audio/wordpool/LAKE.wav", "conditions": [24, 1600, "a", 24000], "internal_node_id": "0.0-81.0", "trial": 2, "time_elapsed": 521505, "serialpos": 19, "key_press": -1, "wordID": 795, "type": "PRES_AUD", "trial_index": 108}, "uniqueid": "MTK2756:3ON104KXQL3ENI4YL6FRFTJMR5KW44", "dateTime": 1519325701860}, {"current_trial": 109, "trialdata": {"rt": -1000, "trial_type": "single-audio", "word": "antler", "stimulus": "/static/audio/wordpool/ANTLER.wav", "conditions": [24, 1600, "a", 24000], "internal_node_id": "0.0-82.0", "trial": 2, "time_elapsed": 524216, "serialpos": 20, "key_press": -1, "wordID": 28, "type": "PRES_AUD", "trial_index": 109}, "uniqueid": "MTK2756:3ON104KXQL3ENI4YL6FRFTJMR5KW44", "dateTime": 1519325704571}, {"current_trial": 110, "trialdata": {"rt": -1000, "trial_type": "single-audio", "word": "daisy", "stimulus": "/static/audio/wordpool/DAISY.wav", "conditions": [24, 1600, "a", 24000], "internal_node_id": "0.0-83.0", "trial": 2, "time_elapsed": 526724, "serialpos": 21, "key_press": -1, "wordID": 434, "type": "PRES_AUD", "trial_index": 110}, "uniqueid": "MTK2756:3ON104KXQL3ENI4YL6FRFTJMR5KW44", "dateTime": 1519325707080}, {"current_trial": 111, "trialdata": {"rt": -1000, "trial_type": "single-audio", "word": "onion", "stimulus": "/static/audio/wordpool/ONION.wav", "conditions": [24, 1600, "a", 24000], "internal_node_id": "0.0-84.0", "trial": 2, "time_elapsed": 529145, "serialpos": 22, "key_press": -1, "wordID": 976, "type": "PRES_AUD", "trial_index": 111}, "uniqueid": "MTK2756:3ON104KXQL3ENI4YL6FRFTJMR5KW44", "dateTime": 1519325709500}, {"current_trial": 112, "trialdata": {"rt": -1000, "trial_type": "single-audio", "word": "parsley", "stimulus": "/static/audio/wordpool/PARSLEY.wav", "conditions": [24, 1600, "a", 24000], "internal_node_id": "0.0-85.0", "trial": 2, "time_elapsed": 531798, "serialpos": 23, "key_press": -1, "wordID": 1015, "type": "PRES_AUD", "trial_index": 112}, "uniqueid": "MTK2756:3ON104KXQL3ENI4YL6FRFTJMR5KW44", "dateTime": 1519325712153}, {"current_trial": 113, "trialdata": {"rt": -1, "trial_type": "single-stim", "stimulus": "", "internal_node_id": "0.0-86.0-0.0", "time_elapsed": 533075, "key_press": -1, "type": "PRE_RECALL_DELAY", "trial_index": 113}, "uniqueid": "MTK2756:3ON104KXQL3ENI4YL6FRFTJMR5KW44", "dateTime": 1519325713430}, {"current_trial": 114, "trialdata": {"rt": -1000, "trial_type": "single-audio", "stimulus": "/static/audio/400Hz.wav", "internal_node_id": "0.0-87.0", "time_elapsed": 533575, "key_press": -1, "type": "PRE_RECALL_ALERT", "trial_index": 114}, "uniqueid": "MTK2756:3ON104KXQL3ENI4YL6FRFTJMR5KW44", "dateTime": 1519325713930}, {"current_trial": 115, "trialdata": {"rt": [2862, 4629, 7047, 9185, 10985, 12638, 14573, 16857, 18005, 19715, 21605, 27297, 30054, 32495, 35083, 38761, 41225, 45365], "recwords": ["onion", "radish", "parsley", "pizza", "pasta", "office", "antler", "paddle", "lake", "camper", "icing", "label", "record", "dorm", "guitar", "trombone", "kitchen", "stamp"], "key_times": [1547, 1816, 2053, 2255, 2468, 2862, 3368, 3515, 3819, 3953, 4089, 4246, 4629, 5012, 5157, 5360, 6001, 6193, 6439, 6699, 7047, 7396, 7667, 8037, 8218, 8487, 9185, 9781, 9961, 10175, 10512, 10658, 10985, 11368, 11592, 11739, 11942, 12076, 12380, 12638, 12965, 13078, 13325, 13539, 13730, 13910, 14573, 15676, 15811, 16025, 16171, 16352, 16486, 16857, 17240, 17375, 17555, 17735, 18005, 18387, 18544, 18680, 19017, 19187, 19344, 19715, 20345, 20502, 20603, 20828, 21121, 21605, 21942, 22134, 23348, 23574, 25757, 25948, 26150, 26375, 26521, 27297, 27657, 27736, 28006, 28130, 28378, 28726, 30054, 30763, 30942, 31190, 31460, 32495, 33417, 33598, 33913, 34295, 34464, 34711, 35083, 35622, 35858, 36208, 36781, 37175, 37445, 37715, 37985, 38761, 39132, 39323, 39538, 39818, 39931, 40145, 40291, 41225, 44116, 44307, 44477, 44589, 44892, 45365], "trial_type": "free-recall", "conditions": [24, 1600, "a", 24000], "internal_node_id": "0.0-88.0-0.0", "key_presses": [79, 78, 73, 79, 78, 13, 82, 65, 68, 73, 83, 72, 13, 80, 65, 82, 83, 76, 69, 89, 13, 80, 73, 90, 90, 65, 13, 80, 65, 83, 84, 65, 13, 79, 70, 70, 73, 67, 69, 13, 65, 78, 84, 76, 69, 82, 13, 80, 65, 68, 68, 76, 69, 13, 76, 65, 75, 69, 13, 67, 65, 77, 80, 69, 82, 13, 73, 67, 73, 78, 71, 13, 79, 78, 8, 8, 76, 65, 66, 69, 76, 13, 82, 69, 67, 79, 82, 68, 13, 68, 79, 82, 77, 13, 71, 85, 73, 84, 65, 82, 13, 84, 82, 79, 77, 66, 79, 78, 69, 13, 75, 73, 84, 67, 72, 69, 78, 13, 83, 84, 65, 77, 80, 13], "trial": 2, "time_elapsed": 593580, "type": "FREE_RECALL", "trial_index": 115}, "uniqueid": "MTK2756:3ON104KXQL3ENI4YL6FRFTJMR5KW44", "dateTime": 1519325773935}, {"current_trial": 116, "trialdata": {"rt": 1731, "trial_type": "text", "internal_node_id": "0.0-89.0", "time_elapsed": 597312, "key_press": 32, "type": "INSTRUCTIONS", "trial_index": 116}, "uniqueid": "MTK2756:3ON104KXQL3ENI4YL6FRFTJMR5KW44", "dateTime": 1519325777668}, {"current_trial": 117, "trialdata": {"rt": [2453, 5142, 7144, 10665, 13658, 15424, 17674, 20937, 23154], "trial_type": "math-distractor", "key_times": [1576, 2093, 2453, 4444, 4906, 5142, 6436, 6886, 7144, 9114, 10464, 10665, 12589, 13410, 13658, 14693, 15098, 15424, 16853, 17416, 17674, 20273, 20712, 20937, 22490, 22950, 23154], "responses": ["16", "20", "17", "16", "19", "13", "17", "17", "14"], "num2": [5, 3, 7, 7, 9, 5, 5, 2, 5, 2], "num3": [6, 8, 3, 8, 8, 5, 5, 6, 1, 4], "conditions": [24, 1600, "a", 24000], "internal_node_id": "0.0-90.0", "key_presses": [49, 54, 13, 50, 48, 13, 49, 55, 13, 49, 54, 13, 49, 57, 13, 49, 51, 13, 49, 55, 13, 49, 55, 13, 49, 52, 13], "trial": 3, "time_elapsed": 623320, "type": "DISTRACTOR", "trial_index": 117, "num1": [5, 9, 7, 1, 2, 3, 7, 9, 8, 6]}, "uniqueid": "MTK2756:3ON104KXQL3ENI4YL6FRFTJMR5KW44", "dateTime": 1519325803675}, {"current_trial": 118, "trialdata": {"rt": -1, "trial_type": "single-stim", "stimulus": "<p id=\"stim\">10</p>", "internal_node_id": "0.0-91.0-0.0", "time_elapsed": 626326, "key_press": -1, "trial_index": 118}, "uniqueid": "MTK2756:3ON104KXQL3ENI4YL6FRFTJMR5KW44", "dateTime": 1519325806681}, {"current_trial": 119, "trialdata": {"rt": -1, "trial_type": "single-stim", "stimulus": "<p id=\"stim\">9</p>", "internal_node_id": "0.0-91.0-1.0", "time_elapsed": 627331, "key_press": -1, "trial_index": 119}, "uniqueid": "MTK2756:3ON104KXQL3ENI4YL6FRFTJMR5KW44", "dateTime": 1519325807686}, {"current_trial": 120, "trialdata": {"rt": -1, "trial_type": "single-stim", "stimulus": "<p id=\"stim\">8</p>", "internal_node_id": "0.0-91.0-2.0", "time_elapsed": 628334, "key_press": -1, "trial_index": 120}, "uniqueid": "MTK2756:3ON104KXQL3ENI4YL6FRFTJMR5KW44", "dateTime": 1519325808689}, {"current_trial": 121, "trialdata": {"rt": -1, "trial_type": "single-stim", "stimulus": "<p id=\"stim\">7</p>", "internal_node_id": "0.0-91.0-3.0", "time_elapsed": 629339, "key_press": -1, "trial_index": 121}, "uniqueid": "MTK2756:3ON104KXQL3ENI4YL6FRFTJMR5KW44", "dateTime": 1519325809694}, {"current_trial": 122, "trialdata": {"rt": -1, "trial_type": "single-stim", "stimulus": "<p id=\"stim\">6</p>", "internal_node_id": "0.0-91.0-4.0", "time_elapsed": 630343, "key_press": -1, "trial_index": 122}, "uniqueid": "MTK2756:3ON104KXQL3ENI4YL6FRFTJMR5KW44", "dateTime": 1519325810698}, {"current_trial": 123, "trialdata": {"rt": -1, "trial_type": "single-stim", "stimulus": "<p id=\"stim\">5</p>", "internal_node_id": "0.0-91.0-5.0", "time_elapsed": 631347, "key_press": -1, "trial_index": 123}, "uniqueid": "MTK2756:3ON104KXQL3ENI4YL6FRFTJMR5KW44", "dateTime": 1519325811702}, {"current_trial": 124, "trialdata": {"rt": -1, "trial_type": "single-stim", "stimulus": "<p id=\"stim\">4</p>", "internal_node_id": "0.0-91.0-6.0", "time_elapsed": 632351, "key_press": -1, "trial_index": 124}, "uniqueid": "MTK2756:3ON104KXQL3ENI4YL6FRFTJMR5KW44", "dateTime": 1519325812706}, {"current_trial": 125, "trialdata": {"rt": -1, "trial_type": "single-stim", "stimulus": "<p id=\"stim\">3</p>", "internal_node_id": "0.0-91.0-7.0", "time_elapsed": 633356, "key_press": -1, "trial_index": 125}, "uniqueid": "MTK2756:3ON104KXQL3ENI4YL6FRFTJMR5KW44", "dateTime": 1519325813711}, {"current_trial": 126, "trialdata": {"rt": -1, "trial_type": "single-stim", "stimulus": "<p id=\"stim\">2</p>", "internal_node_id": "0.0-91.0-8.0", "time_elapsed": 634360, "key_press": -1, "trial_index": 126}, "uniqueid": "MTK2756:3ON104KXQL3ENI4YL6FRFTJMR5KW44", "dateTime": 1519325814715}, {"current_trial": 127, "trialdata": {"rt": -1, "trial_type": "single-stim", "stimulus": "<p id=\"stim\">1</p>", "internal_node_id": "0.0-91.0-9.0", "time_elapsed": 635363, "key_press": -1, "trial_index": 127}, "uniqueid": "MTK2756:3ON104KXQL3ENI4YL6FRFTJMR5KW44", "dateTime": 1519325815718}, {"current_trial": 128, "trialdata": {"rt": -1, "trial_type": "single-stim", "stimulus": "<p id=\"stim\">+</p>", "internal_node_id": "0.0-92.0-0.0", "time_elapsed": 636867, "key_press": -1, "type": "FIXATION", "trial_index": 128}, "uniqueid": "MTK2756:3ON104KXQL3ENI4YL6FRFTJMR5KW44", "dateTime": 1519325817222}, {"current_trial": 129, "trialdata": {"rt": -1000, "trial_type": "single-audio", "word": "widow", "stimulus": "/static/audio/wordpool/WIDOW.wav", "conditions": [24, 1600, "a", 24000], "internal_node_id": "0.0-93.0", "trial": 3, "time_elapsed": 639276, "serialpos": 0, "key_press": -1, "wordID": 1607, "type": "PRES_AUD", "trial_index": 129}, "uniqueid": "MTK2756:3ON104KXQL3ENI4YL6FRFTJMR5KW44", "dateTime": 1519325819631}, {"current_trial": 130, "trialdata": {"rt": -1000, "trial_type": "single-audio", "word": "harp", "stimulus": "/static/audio/wordpool/HARP.wav", "conditions": [24, 1600, "a", 24000], "internal_node_id": "0.0-94.0", "trial": 3, "time_elapsed": 641823, "serialpos": 1, "key_press": -1, "wordID": 688, "type": "PRES_AUD", "trial_index": 130}, "uniqueid": "MTK2756:3ON104KXQL3ENI4YL6FRFTJMR5KW44", "dateTime": 1519325822178}, {"current_trial": 131, "trialdata": {"rt": -1000, "trial_type": "single-audio", "word": "peach", "stimulus": "/static/audio/wordpool/PEACH.wav", "conditions": [24, 1600, "a", 24000], "internal_node_id": "0.0-95.0", "trial": 3, "time_elapsed": 644230, "serialpos": 2, "key_press": -1, "wordID": 1030, "type": "PRES_AUD", "trial_index": 131}, "uniqueid": "MTK2756:3ON104KXQL3ENI4YL6FRFTJMR5KW44", "dateTime": 1519325824585}, {"current_trial": 132, "trialdata": {"rt": -1000, "trial_type": "single-audio", "word": "omelet", "stimulus": "/static/audio/wordpool/OMELET.wav", "conditions": [24, 1600, "a", 24000], "internal_node_id": "0.0-96.0", "trial": 3, "time_elapsed": 646902, "serialpos": 3, "key_press": -1, "wordID": 975, "type": "PRES_AUD", "trial_index": 132}, "uniqueid": "MTK2756:3ON104KXQL3ENI4YL6FRFTJMR5KW44", "dateTime": 1519325827257}, {"current_trial": 133, "trialdata": {"rt": -1000, "trial_type": "single-audio", "word": "tile", "stimulus": "/static/audio/wordpool/TILE.wav", "conditions": [24, 1600, "a", 24000], "internal_node_id": "0.0-97.0", "trial": 3, "time_elapsed": 649468, "serialpos": 4, "key_press": -1, "wordID": 1467, "type": "PRES_AUD", "trial_index": 133}, "uniqueid": "MTK2756:3ON104KXQL3ENI4YL6FRFTJMR5KW44", "dateTime": 1519325829823}, {"current_trial": 134, "trialdata": {"rt": -1000, "trial_type": "single-audio", "word": "fireman", "stimulus": "/static/audio/wordpool/FIREMAN.wav", "conditions": [24, 1600, "a", 24000], "internal_node_id": "0.0-98.0", "trial": 3, "time_elapsed": 651873, "serialpos": 5, "key_press": -1, "wordID": 568, "type": "PRES_AUD", "trial_index": 134}, "uniqueid": "MTK2756:3ON104KXQL3ENI4YL6FRFTJMR5KW44", "dateTime": 1519325832228}, {"current_trial": 135, "trialdata": {"rt": -1000, "trial_type": "single-audio", "word": "judge", "stimulus": "/static/audio/wordpool/JUDGE.wav", "conditions": [24, 1600, "a", 24000], "internal_node_id": "0.0-99.0", "trial": 3, "time_elapsed": 654643, "serialpos": 6, "key_press": -1, "wordID": 760, "type": "PRES_AUD", "trial_index": 135}, "uniqueid": "MTK2756:3ON104KXQL3ENI4YL6FRFTJMR5KW44", "dateTime": 1519325834998}, {"current_trial": 136, "trialdata": {"rt": -1000, "trial_type": "single-audio", "word": "jury", "stimulus": "/static/audio/wordpool/JURY.wav", "conditions": [24, 1600, "a", 24000], "internal_node_id": "0.0-100.0", "trial": 3, "time_elapsed": 657317, "serialpos": 7, "key_press": -1, "wordID": 765, "type": "PRES_AUD", "trial_index": 136}, "uniqueid": "MTK2756:3ON104KXQL3ENI4YL6FRFTJMR5KW44", "dateTime": 1519325837672}, {"current_trial": 137, "trialdata": {"rt": -1000, "trial_type": "single-audio", "word": "turtle", "stimulus": "/static/audio/wordpool/TURTLE.wav", "conditions": [24, 1600, "a", 24000], "internal_node_id": "0.0-101.0", "trial": 3, "time_elapsed": 659895, "serialpos": 8, "key_press": -1, "wordID": 1521, "type": "PRES_AUD", "trial_index": 137}, "uniqueid": "MTK2756:3ON104KXQL3ENI4YL6FRFTJMR5KW44", "dateTime": 1519325840250}, {"current_trial": 138, "trialdata": {"rt": -1000, "trial_type": "single-audio", "word": "lion", "stimulus": "/static/audio/wordpool/LION.wav", "conditions": [24, 1600, "a", 24000], "internal_node_id": "0.0-102.0", "trial": 3, "time_elapsed": 662449, "serialpos": 9, "key_press": -1, "wordID": 826, "type": "PRES_AUD", "trial_index": 138}, "uniqueid": "MTK2756:3ON104KXQL3ENI4YL6FRFTJMR5KW44", "dateTime": 1519325842804}, {"current_trial": 139, "trialdata": {"rt": -1000, "trial_type": "single-audio", "word": "sandwich", "stimulus": "/static/audio/wordpool/SANDWICH.wav", "conditions": [24, 1600, "a", 24000], "internal_node_id": "0.0-103.0", "trial": 3, "time_elapsed": 664904, "serialpos": 10, "key_press": -1, "wordID": 1231, "type": "PRES_AUD", "trial_index": 139}, "uniqueid": "MTK2756:3ON104KXQL3ENI4YL6FRFTJMR5KW44", "dateTime": 1519325845259}, {"current_trial": 140, "trialdata": {"rt": -1000, "trial_type": "single-audio", "word": "driver", "stimulus": "/static/audio/wordpool/DRIVER.wav", "conditions": [24, 1600, "a", 24000], "internal_node_id": "0.0-104.0", "trial": 3, "time_elapsed": 667650, "serialpos": 11, "key_press": -1, "wordID": 498, "type": "PRES_AUD", "trial_index": 140}, "uniqueid": "MTK2756:3ON104KXQL3ENI4YL6FRFTJMR5KW44", "dateTime": 1519325848005}, {"current_trial": 141, "trialdata": {"rt": -1000, "trial_type": "single-audio", "word": "braces", "stimulus": "/static/audio/wordpool/BRACES.wav", "conditions": [24, 1600, "a", 24000], "internal_node_id": "0.0-105.0", "trial": 3, "time_elapsed": 670355, "serialpos": 12, "key_press": -1, "wordID": 163, "type": "PRES_AUD", "trial_index": 141}, "uniqueid": "MTK2756:3ON104KXQL3ENI4YL6FRFTJMR5KW44", "dateTime": 1519325850710}, {"current_trial": 142, "trialdata": {"rt": -1000, "trial_type": "single-audio", "word": "egypt", "stimulus": "/static/audio/wordpool/EGYPT.wav", "conditions": [24, 1600, "a", 24000], "internal_node_id": "0.0-106.0", "trial": 3, "time_elapsed": 672968, "serialpos": 13, "key_press": -1, "wordID": 518, "type": "PRES_AUD", "trial_index": 142}, "uniqueid": "MTK2756:3ON104KXQL3ENI4YL6FRFTJMR5KW44", "dateTime": 1519325853323}, {"current_trial": 143, "trialdata": {"rt": -1000, "trial_type": "single-audio", "word": "europe", "stimulus": "/static/audio/wordpool/EUROPE.wav", "conditions": [24, 1600, "a", 24000], "internal_node_id": "0.0-107.0", "trial": 3, "time_elapsed": 675470, "serialpos": 14, "key_press": -1, "wordID": 540, "type": "PRES_AUD", "trial_index": 143}, "uniqueid": "MTK2756:3ON104KXQL3ENI4YL6FRFTJMR5KW44", "dateTime": 1519325855825}, {"current_trial": 144, "trialdata": {"rt": -1000, "trial_type": "single-audio", "word": "razor", "stimulus": "/static/audio/wordpool/RAZOR.wav", "conditions": [24, 1600, "a", 24000], "internal_node_id": "0.0-108.0", "trial": 3, "time_elapsed": 677932, "serialpos": 15, "key_press": -1, "wordID": 1170, "type": "PRES_AUD", "trial_index": 144}, "uniqueid": "MTK2756:3ON104KXQL3ENI4YL6FRFTJMR5KW44", "dateTime": 1519325858287}, {"current_trial": 145, "trialdata": {"rt": -1000, "trial_type": "single-audio", "word": "perch", "stimulus": "/static/audio/wordpool/PERCH.wav", "conditions": [24, 1600, "a", 24000], "internal_node_id": "0.0-109.0", "trial": 3, "time_elapsed": 680671, "serialpos": 16, "key_press": -1, "wordID": 1047, "type": "PRES_AUD", "trial_index": 145}, "uniqueid": "MTK2756:3ON104KXQL3ENI4YL6FRFTJMR5KW44", "dateTime": 1519325861026}, {"current_trial": 146, "trialdata": {"rt": -1000, "trial_type": "single-audio", "word": "suitcase", "stimulus": "/static/audio/wordpool/SUITCASE.wav", "conditions": [24, 1600, "a", 24000], "internal_node_id": "0.0-110.0", "trial": 3, "time_elapsed": 683348, "serialpos": 17, "key_press": -1, "wordID": 1402, "type": "PRES_AUD", "trial_index": 146}, "uniqueid": "MTK2756:3ON104KXQL3ENI4YL6FRFTJMR5KW44", "dateTime": 1519325863703}, {"current_trial": 147, "trialdata": {"rt": -1000, "trial_type": "single-audio", "word": "wife", "stimulus": "/static/audio/wordpool/WIFE.wav", "conditions": [24, 1600, "a", 24000], "internal_node_id": "0.0-111.0", "trial": 3, "time_elapsed": 685897, "serialpos": 18, "key_press": -1, "wordID": 1608, "type": "PRES_AUD", "trial_index": 147}, "uniqueid": "MTK2756:3ON104KXQL3ENI4YL6FRFTJMR5KW44", "dateTime": 1519325866252}, {"current_trial": 148, "trialdata": {"rt": -1000, "trial_type": "single-audio", "word": "scissors", "stimulus": "/static/audio/wordpool/SCISSORS.wav", "conditions": [24, 1600, "a", 24000], "internal_node_id": "0.0-112.0", "trial": 3, "time_elapsed": 688694, "serialpos": 19, "key_press": -1, "wordID": 1249, "type": "PRES_AUD", "trial_index": 148}, "uniqueid": "MTK2756:3ON104KXQL3ENI4YL6FRFTJMR5KW44", "dateTime": 1519325869049}, {"current_trial": 149, "trialdata": {"rt": -1000, "trial_type": "single-audio", "word": "lumber", "stimulus": "/static/audio/wordpool/LUMBER.wav", "conditions": [24, 1600, "a", 24000], "internal_node_id": "0.0-113.0", "trial": 3, "time_elapsed": 691428, "serialpos": 20, "key_press": -1, "wordID": 847, "type": "PRES_AUD", "trial_index": 149}, "uniqueid": "MTK2756:3ON104KXQL3ENI4YL6FRFTJMR5KW44", "dateTime": 1519325871783}, {"current_trial": 150, "trialdata": {"rt": -1000, "trial_type": "single-audio", "word": "woman", "stimulus": "/static/audio/wordpool/WOMAN.wav", "conditions": [24, 1600, "a", 24000], "internal_node_id": "0.0-114.0", "trial": 3, "time_elapsed": 693924, "serialpos": 21, "key_press": -1, "wordID": 1619, "type": "PRES_AUD", "trial_index": 150}, "uniqueid": "MTK2756:3ON104KXQL3ENI4YL6FRFTJMR5KW44", "dateTime": 1519325874279}, {"current_trial": 151, "trialdata": {"rt": -1000, "trial_type": "single-audio", "word": "frame", "stimulus": "/static/audio/wordpool/FRAME.wav", "conditions": [24, 1600, "a", 24000], "internal_node_id": "0.0-115.0", "trial": 3, "time_elapsed": 696473, "serialpos": 22, "key_press": -1, "wordID": 599, "type": "PRES_AUD", "trial_index": 151}, "uniqueid": "MTK2756:3ON104KXQL3ENI4YL6FRFTJMR5KW44", "dateTime": 1519325876828}, {"current_trial": 152, "trialdata": {"rt": -1000, "trial_type": "single-audio", "word": "denim", "stimulus": "/static/audio/wordpool/DENIM.wav", "conditions": [24, 1600, "a", 24000], "internal_node_id": "0.0-116.0", "trial": 3, "time_elapsed": 699178, "serialpos": 23, "key_press": -1, "wordID": 445, "type": "PRES_AUD", "trial_index": 152}, "uniqueid": "MTK2756:3ON104KXQL3ENI4YL6FRFTJMR5KW44", "dateTime": 1519325879533}, {"current_trial": 153, "trialdata": {"rt": -1, "trial_type": "single-stim", "stimulus": "", "internal_node_id": "0.0-117.0-0.0", "time_elapsed": 700462, "key_press": -1, "type": "PRE_RECALL_DELAY", "trial_index": 153}, "uniqueid": "MTK2756:3ON104KXQL3ENI4YL6FRFTJMR5KW44", "dateTime": 1519325880817}, {"current_trial": 154, "trialdata": {"rt": -1000, "trial_type": "single-audio", "stimulus": "/static/audio/400Hz.wav", "internal_node_id": "0.0-118.0", "time_elapsed": 700962, "key_press": -1, "type": "PRE_RECALL_ALERT", "trial_index": 154}, "uniqueid": "MTK2756:3ON104KXQL3ENI4YL6FRFTJMR5KW44", "dateTime": 1519325881317}, {"current_trial": 155, "trialdata": {"rt": [3415, 5575, 7510, 10053, 11707, 13957, 16093, 18096, 20752, 22203, 24655, 30551, 33621, 36940, 49473], "recwords": ["woman", "denim", "lumber", "scissors", "peach", "sandwich", "suitcase", "perch", "harp", "tile", "driver", "egypt", "europe", "bird", "hair"], "key_times": [1840, 2043, 2279, 2460, 2651, 3415, 3977, 4202, 4372, 4607, 4945, 5575, 6003, 6262, 6655, 7016, 7161, 7240, 7510, 7747, 7994, 8174, 8343, 8501, 8657, 8871, 9186, 10053, 10592, 10727, 10897, 11178, 11369, 11707, 11875, 11999, 12212, 12517, 12787, 13034, 13450, 13586, 13957, 14271, 14474, 14676, 14856, 15149, 15261, 15464, 15655, 16093, 16476, 16600, 16713, 17039, 17174, 18096, 19818, 19975, 20133, 20448, 20752, 21033, 21190, 21415, 21607, 22203, 22562, 22788, 22990, 23182, 23440, 23541, 24655, 27333, 27614, 28132, 28829, 29246, 30551, 31428, 31597, 31923, 32193, 32407, 32744, 33621, 35703, 35939, 36153, 36445, 36940, 47639, 47774, 47976, 48246, 49473, 59587, 59811], "trial_type": "free-recall", "conditions": [24, 1600, "a", 24000], "internal_node_id": "0.0-119.0-0.0", "key_presses": [87, 79, 77, 65, 78, 13, 68, 69, 78, 73, 77, 13, 76, 85, 77, 66, 69, 82, 13, 83, 67, 73, 83, 83, 79, 82, 83, 13, 80, 69, 65, 67, 72, 13, 83, 65, 78, 68, 87, 73, 67, 72, 13, 83, 85, 73, 84, 67, 65, 83, 69, 13, 80, 69, 82, 67, 72, 13, 72, 65, 82, 80, 13, 84, 73, 76, 69, 13, 68, 82, 73, 86, 69, 82, 13, 69, 71, 89, 80, 84, 13, 69, 85, 82, 79, 80, 69, 13, 66, 73, 82, 68, 13, 72, 65, 73, 82, 13, 79, 77], "trial": 3, "time_elapsed": 760971, "type": "FREE_RECALL", "trial_index": 155}, "uniqueid": "MTK2756:3ON104KXQL3ENI4YL6FRFTJMR5KW44", "dateTime": 1519325941328}, {"current_trial": 156, "trialdata": {"rt": 1098, "trial_type": "text", "internal_node_id": "0.0-120.0", "time_elapsed": 764072, "key_press": 32, "type": "INSTRUCTIONS", "trial_index": 156}, "uniqueid": "MTK2756:3ON104KXQL3ENI4YL6FRFTJMR5KW44", "dateTime": 1519325944427}, {"current_trial": 157, "trialdata": {"rt": [3858, 5636, 7807, 10034], "trial_type": "math-distractor", "key_times": [2936, 3566, 3858, 5017, 5377, 5636, 7525, 7807, 9539, 9821, 10034, 11576, 11902], "responses": ["20", "13", "9", "13"], "num2": [6, 5, 1, 4, 3], "num3": [6, 3, 6, 2, 6], "conditions": [24, 800, "a", 12000], "internal_node_id": "0.0-121.0", "key_presses": [50, 48, 13, 49, 51, 13, 57, 13, 49, 51, 13, 49, 51], "trial": 4, "time_elapsed": 778077, "type": "DISTRACTOR", "trial_index": 157, "num1": [8, 5, 2, 7, 4]}, "uniqueid": "MTK2756:3ON104KXQL3ENI4YL6FRFTJMR5KW44", "dateTime": 1519325958432}, {"current_trial": 158, "trialdata": {"rt": -1, "trial_type": "single-stim", "stimulus": "<p id=\"stim\">10</p>", "internal_node_id": "0.0-122.0-0.0", "time_elapsed": 781083, "key_press": -1, "trial_index": 158}, "uniqueid": "MTK2756:3ON104KXQL3ENI4YL6FRFTJMR5KW44", "dateTime": 1519325961438}, {"current_trial": 159, "trialdata": {"rt": -1, "trial_type": "single-stim", "stimulus": "<p id=\"stim\">9</p>", "internal_node_id": "0.0-122.0-1.0", "time_elapsed": 782086, "key_press": -1, "trial_index": 159}, "uniqueid": "MTK2756:3ON104KXQL3ENI4YL6FRFTJMR5KW44", "dateTime": 1519325962442}, {"current_trial": 160, "trialdata": {"rt": -1, "trial_type": "single-stim", "stimulus": "<p id=\"stim\">8</p>", "internal_node_id": "0.0-122.0-2.0", "time_elapsed": 783091, "key_press": -1, "trial_index": 160}, "uniqueid": "MTK2756:3ON104KXQL3ENI4YL6FRFTJMR5KW44", "dateTime": 1519325963446}, {"current_trial": 161, "trialdata": {"rt": -1, "trial_type": "single-stim", "stimulus": "<p id=\"stim\">7</p>", "internal_node_id": "0.0-122.0-3.0", "time_elapsed": 784095, "key_press": -1, "trial_index": 161}, "uniqueid": "MTK2756:3ON104KXQL3ENI4YL6FRFTJMR5KW44", "dateTime": 1519325964450}, {"current_trial": 162, "trialdata": {"rt": -1, "trial_type": "single-stim", "stimulus": "<p id=\"stim\">6</p>", "internal_node_id": "0.0-122.0-4.0", "time_elapsed": 785099, "key_press": -1, "trial_index": 162}, "uniqueid": "MTK2756:3ON104KXQL3ENI4YL6FRFTJMR5KW44", "dateTime": 1519325965454}, {"current_trial": 163, "trialdata": {"rt": -1, "trial_type": "single-stim", "stimulus": "<p id=\"stim\">5</p>", "internal_node_id": "0.0-122.0-5.0", "time_elapsed": 786103, "key_press": -1, "trial_index": 163}, "uniqueid": "MTK2756:3ON104KXQL3ENI4YL6FRFTJMR5KW44", "dateTime": 1519325966458}, {"current_trial": 164, "trialdata": {"rt": -1, "trial_type": "single-stim", "stimulus": "<p id=\"stim\">4</p>", "internal_node_id": "0.0-122.0-6.0", "time_elapsed": 787108, "key_press": -1, "trial_index": 164}, "uniqueid": "MTK2756:3ON104KXQL3ENI4YL6FRFTJMR5KW44", "dateTime": 1519325967463}, {"current_trial": 165, "trialdata": {"rt": -1, "trial_type": "single-stim", "stimulus": "<p id=\"stim\">3</p>", "internal_node_id": "0.0-122.0-7.0", "time_elapsed": 788111, "key_press": -1, "trial_index": 165}, "uniqueid": "MTK2756:3ON104KXQL3ENI4YL6FRFTJMR5KW44", "dateTime": 1519325968466}, {"current_trial": 166, "trialdata": {"rt": -1, "trial_type": "single-stim", "stimulus": "<p id=\"stim\">2</p>", "internal_node_id": "0.0-122.0-8.0", "time_elapsed": 789115, "key_press": -1, "trial_index": 166}, "uniqueid": "MTK2756:3ON104KXQL3ENI4YL6FRFTJMR5KW44", "dateTime": 1519325969470}, {"current_trial": 167, "trialdata": {"rt": -1, "trial_type": "single-stim", "stimulus": "<p id=\"stim\">1</p>", "internal_node_id": "0.0-122.0-9.0", "time_elapsed": 790120, "key_press": -1, "trial_index": 167}, "uniqueid": "MTK2756:3ON104KXQL3ENI4YL6FRFTJMR5KW44", "dateTime": 1519325970475}, {"current_trial": 168, "trialdata": {"rt": -1, "trial_type": "single-stim", "stimulus": "<p id=\"stim\">+</p>", "internal_node_id": "0.0-123.0-0.0", "time_elapsed": 791626, "key_press": -1, "type": "FIXATION", "trial_index": 168}, "uniqueid": "MTK2756:3ON104KXQL3ENI4YL6FRFTJMR5KW44", "dateTime": 1519325971981}, {"current_trial": 169, "trialdata": {"rt": -1000, "trial_type": "single-audio", "word": "bug", "stimulus": "/static/audio/wordpool/BUG.wav", "conditions": [24, 800, "a", 12000], "internal_node_id": "0.0-124.0", "trial": 4, "time_elapsed": 793334, "serialpos": 0, "key_press": -1, "wordID": 186, "type": "PRES_AUD", "trial_index": 169}, "uniqueid": "MTK2756:3ON104KXQL3ENI4YL6FRFTJMR5KW44", "dateTime": 1519325973689}, {"current_trial": 170, "trialdata": {"rt": -1000, "trial_type": "single-audio", "word": "bouquet", "stimulus": "/static/audio/wordpool/BOUQUET.wav", "conditions": [24, 800, "a", 12000], "internal_node_id": "0.0-125.0", "trial": 4, "time_elapsed": 795058, "serialpos": 1, "key_press": -1, "wordID": 156, "type": "PRES_AUD", "trial_index": 170}, "uniqueid": "MTK2756:3ON104KXQL3ENI4YL6FRFTJMR5KW44", "dateTime": 1519325975413}, {"current_trial": 171, "trialdata": {"rt": -1000, "trial_type": "single-audio", "word": "muffin", "stimulus": "/static/audio/wordpool/MUFFIN.wav", "conditions": [24, 800, "a", 12000], "internal_node_id": "0.0-126.0", "trial": 4, "time_elapsed": 796954, "serialpos": 2, "key_press": -1, "wordID": 928, "type": "PRES_AUD", "trial_index": 171}, "uniqueid": "MTK2756:3ON104KXQL3ENI4YL6FRFTJMR5KW44", "dateTime": 1519325977309}, {"current_trial": 172, "trialdata": {"rt": -1000, "trial_type": "single-audio", "word": "world", "stimulus": "/static/audio/wordpool/WORLD.wav", "conditions": [24, 800, "a", 12000], "internal_node_id": "0.0-127.0", "trial": 4, "time_elapsed": 798936, "serialpos": 3, "key_press": -1, "wordID": 1621, "type": "PRES_AUD", "trial_index": 172}, "uniqueid": "MTK2756:3ON104KXQL3ENI4YL6FRFTJMR5KW44", "dateTime": 1519325979291}, {"current_trial": 173, "trialdata": {"rt": -1000, "trial_type": "single-audio", "word": "monster", "stimulus": "/static/audio/wordpool/MONSTER.wav", "conditions": [24, 800, "a", 12000], "internal_node_id": "0.0-128.0", "trial": 4, "time_elapsed": 800869, "serialpos": 4, "key_press": -1, "wordID": 911, "type": "PRES_AUD", "trial_index": 173}, "uniqueid": "MTK2756:3ON104KXQL3ENI4YL6FRFTJMR5KW44", "dateTime": 1519325981224}, {"current_trial": 174, "trialdata": {"rt": -1000, "trial_type": "single-audio", "word": "smog", "stimulus": "/static/audio/wordpool/SMOG.wav", "conditions": [24, 800, "a", 12000], "internal_node_id": "0.0-129.0", "trial": 4, "time_elapsed": 802699, "serialpos": 5, "key_press": -1, "wordID": 1329, "type": "PRES_AUD", "trial_index": 174}, "uniqueid": "MTK2756:3ON104KXQL3ENI4YL6FRFTJMR5KW44", "dateTime": 1519325983054}, {"current_trial": 175, "trialdata": {"rt": -1000, "trial_type": "single-audio", "word": "ozone", "stimulus": "/static/audio/wordpool/OZONE.wav", "conditions": [24, 800, "a", 12000], "internal_node_id": "0.0-130.0", "trial": 4, "time_elapsed": 804602, "serialpos": 6, "key_press": -1, "wordID": 995, "type": "PRES_AUD", "trial_index": 175}, "uniqueid": "MTK2756:3ON104KXQL3ENI4YL6FRFTJMR5KW44", "dateTime": 1519325984957}, {"current_trial": 176, "trialdata": {"rt": -1000, "trial_type": "single-audio", "word": "wrench", "stimulus": "/static/audio/wordpool/WRENCH.wav", "conditions": [24, 800, "a", 12000], "internal_node_id": "0.0-131.0", "trial": 4, "time_elapsed": 806524, "serialpos": 7, "key_press": -1, "wordID": 1624, "type": "PRES_AUD", "trial_index": 176}, "uniqueid": "MTK2756:3ON104KXQL3ENI4YL6FRFTJMR5KW44", "dateTime": 1519325986879}, {"current_trial": 177, "trialdata": {"rt": -1000, "trial_type": "single-audio", "word": "slide", "stimulus": "/static/audio/wordpool/SLIDE.wav", "conditions": [24, 800, "a", 12000], "internal_node_id": "0.0-132.0", "trial": 4, "time_elapsed": 808340, "serialpos": 8, "key_press": -1, "wordID": 1325, "type": "PRES_AUD", "trial_index": 177}, "uniqueid": "MTK2756:3ON104KXQL3ENI4YL6FRFTJMR5KW44", "dateTime": 1519325988695}, {"current_trial": 178, "trialdata": {"rt": -1000, "trial_type": "single-audio", "word": "globe", "stimulus": "/static/audio/wordpool/GLOBE.wav", "conditions": [24, 800, "a", 12000], "internal_node_id": "0.0-133.0", "trial": 4, "time_elapsed": 810273, "serialpos": 9, "key_press": -1, "wordID": 640, "type": "PRES_AUD", "trial_index": 178}, "uniqueid": "MTK2756:3ON104KXQL3ENI4YL6FRFTJMR5KW44", "dateTime": 1519325990628}, {"current_trial": 179, "trialdata": {"rt": -1000, "trial_type": "single-audio", "word": "award", "stimulus": "/static/audio/wordpool/AWARD.wav", "conditions": [24, 800, "a", 12000], "internal_node_id": "0.0-134.0", "trial": 4, "time_elapsed": 811945, "serialpos": 10, "key_press": -1, "wordID": 62, "type": "PRES_AUD", "trial_index": 179}, "uniqueid": "MTK2756:3ON104KXQL3ENI4YL6FRFTJMR5KW44", "dateTime": 1519325992300}, {"current_trial": 180, "trialdata": {"rt": -1000, "trial_type": "single-audio", "word": "child", "stimulus": "/static/audio/wordpool/CHILD.wav", "conditions": [24, 800, "a", 12000], "internal_node_id": "0.0-135.0", "trial": 4, "time_elapsed": 813681, "serialpos": 11, "key_press": -1, "wordID": 298, "type": "PRES_AUD", "trial_index": 180}, "uniqueid": "MTK2756:3ON104KXQL3ENI4YL6FRFTJMR5KW44", "dateTime": 1519325994036}, {"current_trial": 181, "trialdata": {"rt": -1000, "trial_type": "single-audio", "word": "liver", "stimulus": "/static/audio/wordpool/LIVER.wav", "conditions": [24, 800, "a", 12000], "internal_node_id": "0.0-136.0", "trial": 4, "time_elapsed": 815562, "serialpos": 12, "key_press": -1, "wordID": 832, "type": "PRES_AUD", "trial_index": 181}, "uniqueid": "MTK2756:3ON104KXQL3ENI4YL6FRFTJMR5KW44", "dateTime": 1519325995917}, {"current_trial": 182, "trialdata": {"rt": -1000, "trial_type": "single-audio", "word": "skillet", "stimulus": "/static/audio/wordpool/SKILLET.wav", "conditions": [24, 800, "a", 12000], "internal_node_id": "0.0-137.0", "trial": 4, "time_elapsed": 817430, "serialpos": 13, "key_press": -1, "wordID": 1316, "type": "PRES_AUD", "trial_index": 182}, "uniqueid": "MTK2756:3ON104KXQL3ENI4YL6FRFTJMR5KW44", "dateTime": 1519325997785}, {"current_trial": 183, "trialdata": {"rt": -1000, "trial_type": "single-audio", "word": "grill", "stimulus": "/static/audio/wordpool/GRILL.wav", "conditions": [24, 800, "a", 12000], "internal_node_id": "0.0-138.0", "trial": 4, "time_elapsed": 819374, "serialpos": 14, "key_press": -1, "wordID": 660, "type": "PRES_AUD", "trial_index": 183}, "uniqueid": "MTK2756:3ON104KXQL3ENI4YL6FRFTJMR5KW44", "dateTime": 1519325999729}, {"current_trial": 184, "trialdata": {"rt": -1000, "trial_type": "single-audio", "word": "tortoise", "stimulus": "/static/audio/wordpool/TORTOISE.wav", "conditions": [24, 800, "a", 12000], "internal_node_id": "0.0-139.0", "trial": 4, "time_elapsed": 820978, "serialpos": 15, "key_press": -1, "wordID": 1485, "type": "PRES_AUD", "trial_index": 184}, "uniqueid": "MTK2756:3ON104KXQL3ENI4YL6FRFTJMR5KW44", "dateTime": 1519326001333}, {"current_trial": 185, "trialdata": {"rt": -1000, "trial_type": "single-audio", "word": "cattle", "stimulus": "/static/audio/wordpool/CATTLE.wav", "conditions": [24, 800, "a", 12000], "internal_node_id": "0.0-140.0", "trial": 4, "time_elapsed": 822859, "serialpos": 16, "key_press": -1, "wordID": 260, "type": "PRES_AUD", "trial_index": 185}, "uniqueid": "MTK2756:3ON104KXQL3ENI4YL6FRFTJMR5KW44", "dateTime": 1519326003214}, {"current_trial": 186, "trialdata": {"rt": -1000, "trial_type": "single-audio", "word": "cyclone", "stimulus": "/static/audio/wordpool/CYCLONE.wav", "conditions": [24, 800, "a", 12000], "internal_node_id": "0.0-141.0", "trial": 4, "time_elapsed": 824717, "serialpos": 17, "key_press": -1, "wordID": 430, "type": "PRES_AUD", "trial_index": 186}, "uniqueid": "MTK2756:3ON104KXQL3ENI4YL6FRFTJMR5KW44", "dateTime": 1519326005072}, {"current_trial": 187, "trialdata": {"rt": -1000, "trial_type": "single-audio", "word": "fruit", "stimulus": "/static/audio/wordpool/FRUIT.wav", "conditions": [24, 800, "a", 12000], "internal_node_id": "0.0-142.0", "trial": 4, "time_elapsed": 826690, "serialpos": 18, "key_press": -1, "wordID": 609, "type": "PRES_AUD", "trial_index": 187}, "uniqueid": "MTK2756:3ON104KXQL3ENI4YL6FRFTJMR5KW44", "dateTime": 1519326007046}, {"current_trial": 188, "trialdata": {"rt": -1000, "trial_type": "single-audio", "word": "mailman", "stimulus": "/static/audio/wordpool/MAILMAN.wav", "conditions": [24, 800, "a", 12000], "internal_node_id": "0.0-143.0", "trial": 4, "time_elapsed": 828491, "serialpos": 19, "key_press": -1, "wordID": 857, "type": "PRES_AUD", "trial_index": 188}, "uniqueid": "MTK2756:3ON104KXQL3ENI4YL6FRFTJMR5KW44", "dateTime": 1519326008846}, {"current_trial": 189, "trialdata": {"rt": -1000, "trial_type": "single-audio", "word": "trench", "stimulus": "/static/audio/wordpool/TRENCH.wav", "conditions": [24, 800, "a", 12000], "internal_node_id": "0.0-144.0", "trial": 4, "time_elapsed": 830330, "serialpos": 20, "key_press": -1, "wordID": 1502, "type": "PRES_AUD", "trial_index": 189}, "uniqueid": "MTK2756:3ON104KXQL3ENI4YL6FRFTJMR5KW44", "dateTime": 1519326010685}, {"current_trial": 190, "trialdata": {"rt": -1000, "trial_type": "single-audio", "word": "marsh", "stimulus": "/static/audio/wordpool/MARSH.wav", "conditions": [24, 800, "a", 12000], "internal_node_id": "0.0-145.0", "trial": 4, "time_elapsed": 832229, "serialpos": 21, "key_press": -1, "wordID": 873, "type": "PRES_AUD", "trial_index": 190}, "uniqueid": "MTK2756:3ON104KXQL3ENI4YL6FRFTJMR5KW44", "dateTime": 1519326012584}, {"current_trial": 191, "trialdata": {"rt": -1000, "trial_type": "single-audio", "word": "mailbox", "stimulus": "/static/audio/wordpool/MAILBOX.wav", "conditions": [24, 800, "a", 12000], "internal_node_id": "0.0-146.0", "trial": 4, "time_elapsed": 833883, "serialpos": 22, "key_press": -1, "wordID": 856, "type": "PRES_AUD", "trial_index": 191}, "uniqueid": "MTK2756:3ON104KXQL3ENI4YL6FRFTJMR5KW44", "dateTime": 1519326014238}, {"current_trial": 192, "trialdata": {"rt": -1000, "trial_type": "single-audio", "word": "puddle", "stimulus": "/static/audio/wordpool/PUDDLE.wav", "conditions": [24, 800, "a", 12000], "internal_node_id": "0.0-147.0", "trial": 4, "time_elapsed": 835550, "serialpos": 23, "key_press": -1, "wordID": 1139, "type": "PRES_AUD", "trial_index": 192}, "uniqueid": "MTK2756:3ON104KXQL3ENI4YL6FRFTJMR5KW44", "dateTime": 1519326015905}, {"current_trial": 193, "trialdata": {"rt": -1, "trial_type": "single-stim", "stimulus": "", "internal_node_id": "0.0-148.0-0.0", "time_elapsed": 836762, "key_press": -1, "type": "PRE_RECALL_DELAY", "trial_index": 193}, "uniqueid": "MTK2756:3ON104KXQL3ENI4YL6FRFTJMR5KW44", "dateTime": 1519326017117}, {"current_trial": 194, "trialdata": {"rt": -1000, "trial_type": "single-audio", "stimulus": "/static/audio/400Hz.wav", "internal_node_id": "0.0-149.0", "time_elapsed": 837263, "key_press": -1, "type": "PRE_RECALL_ALERT", "trial_index": 194}, "uniqueid": "MTK2756:3ON104KXQL3ENI4YL6FRFTJMR5KW44", "dateTime": 1519326017618}, {"current_trial": 195, "trialdata": {"rt": [3880, 6457, 8470, 10799, 15029, 17301, 21138, 32040, 38902, 53369], "recwords": ["mailbox", "puddle", "bug", "smug", "bouquet", "world", "monster", "turtle", "ozone", "mailman"], "key_times": [1721, 1799, 2036, 2485, 2834, 3205, 3554, 3880, 4218, 4487, 4679, 4848, 5286, 5624, 6457, 6918, 7233, 8054, 8470, 8695, 8921, 9212, 9562, 10799, 12824, 13060, 13195, 13691, 14241, 14478, 14635, 15029, 15333, 15547, 15749, 15997, 16266, 17301, 19102, 19282, 19462, 19642, 19923, 20159, 20272, 21138, 29857, 30038, 30273, 30870, 31037, 31229, 32040, 37169, 37484, 37699, 38115, 38361, 38902, 49612, 49758, 49971, 50332, 50602, 50770, 50973, 53369, 59253, 59421, 59714, 59995], "trial_type": "free-recall", "conditions": [24, 800, "a", 12000], "internal_node_id": "0.0-150.0-0.0", "key_presses": [77, 65, 73, 76, 66, 79, 88, 13, 80, 85, 68, 68, 76, 69, 13, 66, 85, 71, 13, 83, 77, 85, 71, 13, 66, 79, 85, 81, 85, 69, 84, 13, 87, 79, 82, 76, 68, 13, 77, 79, 78, 83, 84, 69, 82, 13, 84, 85, 82, 84, 76, 69, 13, 79, 90, 79, 78, 69, 13, 77, 65, 73, 76, 77, 65, 78, 13, 83, 77, 85, 71], "trial": 4, "time_elapsed": 897269, "type": "FREE_RECALL", "trial_index": 195}, "uniqueid": "MTK2756:3ON104KXQL3ENI4YL6FRFTJMR5KW44", "dateTime": 1519326077625}, {"current_trial": 196, "trialdata": {"rt": 2147, "trial_type": "text", "internal_node_id": "0.0-151.0", "time_elapsed": 901422, "key_press": 32, "type": "INSTRUCTIONS", "trial_index": 196}, "uniqueid": "MTK2756:3ON104KXQL3ENI4YL6FRFTJMR5KW44", "dateTime": 1519326081777}, {"current_trial": 197, "trialdata": {"rt": [2092, 4454, 6592, 9990], "trial_type": "math-distractor", "key_times": [1529, 1878, 2092, 3679, 4173, 4454, 5838, 6333, 6592, 9550, 9742, 9990, 11868], "responses": ["13", "17", "18", "12"], "num2": [4, 1, 6, 3, 1], "num3": [6, 7, 8, 4, 5], "conditions": [12, 800, "a", 12000], "internal_node_id": "0.0-152.0", "key_presses": [49, 51, 13, 49, 55, 13, 49, 56, 13, 49, 50, 13, 49], "trial": 5, "time_elapsed": 915429, "type": "DISTRACTOR", "trial_index": 197, "num1": [3, 9, 4, 5, 4]}, "uniqueid": "MTK2756:3ON104KXQL3ENI4YL6FRFTJMR5KW44", "dateTime": 1519326095784}, {"current_trial": 198, "trialdata": {"rt": -1, "trial_type": "single-stim", "stimulus": "<p id=\"stim\">10</p>", "internal_node_id": "0.0-153.0-0.0", "time_elapsed": 918435, "key_press": -1, "trial_index": 198}, "uniqueid": "MTK2756:3ON104KXQL3ENI4YL6FRFTJMR5KW44", "dateTime": 1519326098790}, {"current_trial": 199, "trialdata": {"rt": -1, "trial_type": "single-stim", "stimulus": "<p id=\"stim\">9</p>", "internal_node_id": "0.0-153.0-1.0", "time_elapsed": 919439, "key_press": -1, "trial_index": 199}, "uniqueid": "MTK2756:3ON104KXQL3ENI4YL6FRFTJMR5KW44", "dateTime": 1519326099794}, {"current_trial": 200, "trialdata": {"rt": -1, "trial_type": "single-stim", "stimulus": "<p id=\"stim\">8</p>", "internal_node_id": "0.0-153.0-2.0", "time_elapsed": 920443, "key_press": -1, "trial_index": 200}, "uniqueid": "MTK2756:3ON104KXQL3ENI4YL6FRFTJMR5KW44", "dateTime": 1519326100798}, {"current_trial": 201, "trialdata": {"rt": -1, "trial_type": "single-stim", "stimulus": "<p id=\"stim\">7</p>", "internal_node_id": "0.0-153.0-3.0", "time_elapsed": 921447, "key_press": -1, "trial_index": 201}, "uniqueid": "MTK2756:3ON104KXQL3ENI4YL6FRFTJMR5KW44", "dateTime": 1519326101802}, {"current_trial": 202, "trialdata": {"rt": -1, "trial_type": "single-stim", "stimulus": "<p id=\"stim\">6</p>", "internal_node_id": "0.0-153.0-4.0", "time_elapsed": 922451, "key_press": -1, "trial_index": 202}, "uniqueid": "MTK2756:3ON104KXQL3ENI4YL6FRFTJMR5KW44", "dateTime": 1519326102806}, {"current_trial": 203, "trialdata": {"rt": -1, "trial_type": "single-stim", "stimulus": "<p id=\"stim\">5</p>", "internal_node_id": "0.0-153.0-5.0", "time_elapsed": 923455, "key_press": -1, "trial_index": 203}, "uniqueid": "MTK2756:3ON104KXQL3ENI4YL6FRFTJMR5KW44", "dateTime": 1519326103810}, {"current_trial": 204, "trialdata": {"rt": -1, "trial_type": "single-stim", "stimulus": "<p id=\"stim\">4</p>", "internal_node_id": "0.0-153.0-6.0", "time_elapsed": 924459, "key_press": -1, "trial_index": 204}, "uniqueid": "MTK2756:3ON104KXQL3ENI4YL6FRFTJMR5KW44", "dateTime": 1519326104814}, {"current_trial": 205, "trialdata": {"rt": -1, "trial_type": "single-stim", "stimulus": "<p id=\"stim\">3</p>", "internal_node_id": "0.0-153.0-7.0", "time_elapsed": 925463, "key_press": -1, "trial_index": 205}, "uniqueid": "MTK2756:3ON104KXQL3ENI4YL6FRFTJMR5KW44", "dateTime": 1519326105818}, {"current_trial": 206, "trialdata": {"rt": -1, "trial_type": "single-stim", "stimulus": "<p id=\"stim\">2</p>", "internal_node_id": "0.0-153.0-8.0", "time_elapsed": 926468, "key_press": -1, "trial_index": 206}, "uniqueid": "MTK2756:3ON104KXQL3ENI4YL6FRFTJMR5KW44", "dateTime": 1519326106823}, {"current_trial": 207, "trialdata": {"rt": -1, "trial_type": "single-stim", "stimulus": "<p id=\"stim\">1</p>", "internal_node_id": "0.0-153.0-9.0", "time_elapsed": 927472, "key_press": -1, "trial_index": 207}, "uniqueid": "MTK2756:3ON104KXQL3ENI4YL6FRFTJMR5KW44", "dateTime": 1519326107828}, {"current_trial": 208, "trialdata": {"rt": -1, "trial_type": "single-stim", "stimulus": "<p id=\"stim\">+</p>", "internal_node_id": "0.0-154.0-0.0", "time_elapsed": 928975, "key_press": -1, "type": "FIXATION", "trial_index": 208}, "uniqueid": "MTK2756:3ON104KXQL3ENI4YL6FRFTJMR5KW44", "dateTime": 1519326109330}, {"current_trial": 209, "trialdata": {"rt": -1000, "trial_type": "single-audio", "word": "girl", "stimulus": "/static/audio/wordpool/GIRL.wav", "conditions": [12, 800, "a", 12000], "internal_node_id": "0.0-155.0", "trial": 5, "time_elapsed": 930582, "serialpos": 0, "key_press": -1, "wordID": 636, "type": "PRES_AUD", "trial_index": 209}, "uniqueid": "MTK2756:3ON104KXQL3ENI4YL6FRFTJMR5KW44", "dateTime": 1519326110937}, {"current_trial": 210, "trialdata": {"rt": -1000, "trial_type": "single-audio", "word": "hiker", "stimulus": "/static/audio/wordpool/HIKER.wav", "conditions": [12, 800, "a", 12000], "internal_node_id": "0.0-156.0", "trial": 5, "time_elapsed": 932218, "serialpos": 1, "key_press": -1, "wordID": 707, "type": "PRES_AUD", "trial_index": 210}, "uniqueid": "MTK2756:3ON104KXQL3ENI4YL6FRFTJMR5KW44", "dateTime": 1519326112573}, {"current_trial": 211, "trialdata": {"rt": -1000, "trial_type": "single-audio", "word": "taxi", "stimulus": "/static/audio/wordpool/TAXI.wav", "conditions": [12, 800, "a", 12000], "internal_node_id": "0.0-157.0", "trial": 5, "time_elapsed": 933925, "serialpos": 2, "key_press": -1, "wordID": 1437, "type": "PRES_AUD", "trial_index": 211}, "uniqueid": "MTK2756:3ON104KXQL3ENI4YL6FRFTJMR5KW44", "dateTime": 1519326114280}, {"current_trial": 212, "trialdata": {"rt": -1000, "trial_type": "single-audio", "word": "pocket", "stimulus": "/static/audio/wordpool/POCKET.wav", "conditions": [12, 800, "a", 12000], "internal_node_id": "0.0-158.0", "trial": 5, "time_elapsed": 935626, "serialpos": 3, "key_press": -1, "wordID": 1092, "type": "PRES_AUD", "trial_index": 212}, "uniqueid": "MTK2756:3ON104KXQL3ENI4YL6FRFTJMR5KW44", "dateTime": 1519326115981}, {"current_trial": 213, "trialdata": {"rt": -1000, "trial_type": "single-audio", "word": "gymnast", "stimulus": "/static/audio/wordpool/GYMNAST.wav", "conditions": [12, 800, "a", 12000], "internal_node_id": "0.0-159.0", "trial": 5, "time_elapsed": 937595, "serialpos": 4, "key_press": -1, "wordID": 674, "type": "PRES_AUD", "trial_index": 213}, "uniqueid": "MTK2756:3ON104KXQL3ENI4YL6FRFTJMR5KW44", "dateTime": 1519326117950}, {"current_trial": 214, "trialdata": {"rt": -1000, "trial_type": "single-audio", "word": "dancer", "stimulus": "/static/audio/wordpool/DANCER.wav", "conditions": [12, 800, "a", 12000], "internal_node_id": "0.0-160.0", "trial": 5, "time_elapsed": 939243, "serialpos": 5, "key_press": -1, "wordID": 436, "type": "PRES_AUD", "trial_index": 214}, "uniqueid": "MTK2756:3ON104KXQL3ENI4YL6FRFTJMR5KW44", "dateTime": 1519326119598}, {"current_trial": 215, "trialdata": {"rt": -1000, "trial_type": "single-audio", "word": "dashboard", "stimulus": "/static/audio/wordpool/DASHBOARD.wav", "conditions": [12, 800, "a", 12000], "internal_node_id": "0.0-161.0", "trial": 5, "time_elapsed": 940973, "serialpos": 6, "key_press": -1, "wordID": 440, "type": "PRES_AUD", "trial_index": 215}, "uniqueid": "MTK2756:3ON104KXQL3ENI4YL6FRFTJMR5KW44", "dateTime": 1519326121328}, {"current_trial": 216, "trialdata": {"rt": -1000, "trial_type": "single-audio", "word": "skirt", "stimulus": "/static/audio/wordpool/SKIRT.wav", "conditions": [12, 800, "a", 12000], "internal_node_id": "0.0-162.0", "trial": 5, "time_elapsed": 942970, "serialpos": 7, "key_press": -1, "wordID": 1318, "type": "PRES_AUD", "trial_index": 216}, "uniqueid": "MTK2756:3ON104KXQL3ENI4YL6FRFTJMR5KW44", "dateTime": 1519326123325}, {"current_trial": 217, "trialdata": {"rt": -1000, "trial_type": "single-audio", "word": "coffee", "stimulus": "/static/audio/wordpool/COFFEE.wav", "conditions": [12, 800, "a", 12000], "internal_node_id": "0.0-163.0", "trial": 5, "time_elapsed": 944973, "serialpos": 8, "key_press": -1, "wordID": 340, "type": "PRES_AUD", "trial_index": 217}, "uniqueid": "MTK2756:3ON104KXQL3ENI4YL6FRFTJMR5KW44", "dateTime": 1519326125328}, {"current_trial": 218, "trialdata": {"rt": -1000, "trial_type": "single-audio", "word": "convict", "stimulus": "/static/audio/wordpool/CONVICT.wav", "conditions": [12, 800, "a", 12000], "internal_node_id": "0.0-164.0", "trial": 5, "time_elapsed": 946581, "serialpos": 9, "key_press": -1, "wordID": 370, "type": "PRES_AUD", "trial_index": 218}, "uniqueid": "MTK2756:3ON104KXQL3ENI4YL6FRFTJMR5KW44", "dateTime": 1519326126936}, {"current_trial": 219, "trialdata": {"rt": -1000, "trial_type": "single-audio", "word": "blouse", "stimulus": "/static/audio/wordpool/BLOUSE.wav", "conditions": [12, 800, "a", 12000], "internal_node_id": "0.0-165.0", "trial": 5, "time_elapsed": 948527, "serialpos": 10, "key_press": -1, "wordID": 138, "type": "PRES_AUD", "trial_index": 219}, "uniqueid": "MTK2756:3ON104KXQL3ENI4YL6FRFTJMR5KW44", "dateTime": 1519326128882}, {"current_trial": 220, "trialdata": {"rt": -1000, "trial_type": "single-audio", "word": "leg", "stimulus": "/static/audio/wordpool/LEG.wav", "conditions": [12, 800, "a", 12000], "internal_node_id": "0.0-166.0", "trial": 5, "time_elapsed": 950320, "serialpos": 11, "key_press": -1, "wordID": 808, "type": "PRES_AUD", "trial_index": 220}, "uniqueid": "MTK2756:3ON104KXQL3ENI4YL6FRFTJMR5KW44", "dateTime": 1519326130675}, {"current_trial": 221, "trialdata": {"rt": -1, "trial_type": "single-stim", "stimulus": "", "internal_node_id": "0.0-167.0-0.0", "time_elapsed": 951654, "key_press": -1, "type": "PRE_RECALL_DELAY", "trial_index": 221}, "uniqueid": "MTK2756:3ON104KXQL3ENI4YL6FRFTJMR5KW44", "dateTime": 1519326132009}, {"current_trial": 222, "trialdata": {"rt": -1000, "trial_type": "single-audio", "stimulus": "/static/audio/400Hz.wav", "internal_node_id": "0.0-168.0", "time_elapsed": 952155, "key_press": -1, "type": "PRE_RECALL_ALERT", "trial_index": 222}, "uniqueid": "MTK2756:3ON104KXQL3ENI4YL6FRFTJMR5KW44", "dateTime": 1519326132510}, {"current_trial": 223, "trialdata": {"rt": [5144, 6135, 8013, 9453, 11164, 13998, 15596, 17902, 22335, 25068, 30727, 36610], "recwords": ["blouse", "leg", "skirt", "girl", "taxi", "dashboar", "hiker", "girl", "coffee", "convict", "hail", "pocket"], "key_times": [1128, 1398, 2242, 2568, 2906, 3300, 3490, 3638, 4335, 4537, 4683, 4840, 5144, 5493, 5629, 5898, 6135, 6349, 6741, 6945, 7192, 7439, 8013, 8497, 8655, 8835, 9149, 9453, 9700, 9825, 10421, 10635, 11164, 11614, 12187, 12434, 12805, 13008, 13244, 13447, 13582, 13998, 14381, 14539, 14808, 15056, 15090, 15596, 15922, 16091, 16237, 16508, 17902, 20343, 20535, 20928, 21649, 21974, 22143, 22335, 22739, 22930, 23144, 23449, 23650, 23830, 24281, 25068, 29850, 29973, 30075, 30423, 30727, 35340, 35520, 35677, 35790, 35970, 36161, 36610], "trial_type": "free-recall", "conditions": [12, 800, "a", 12000], "internal_node_id": "0.0-169.0-0.0", "key_presses": [66, 76, 85, 83, 69, 8, 8, 8, 79, 85, 83, 69, 13, 76, 69, 71, 13, 83, 75, 73, 82, 84, 13, 71, 73, 82, 76, 13, 84, 65, 88, 73, 13, 68, 65, 83, 72, 66, 79, 65, 82, 13, 72, 73, 75, 69, 82, 13, 71, 73, 82, 76, 13, 67, 79, 70, 70, 69, 69, 13, 67, 79, 78, 86, 73, 67, 84, 13, 72, 65, 73, 76, 13, 80, 79, 67, 75, 69, 84, 13], "trial": 5, "time_elapsed": 1012164, "type": "FREE_RECALL", "trial_index": 223}, "uniqueid": "MTK2756:3ON104KXQL3ENI4YL6FRFTJMR5KW44", "dateTime": 1519326192521}, {"current_trial": 224, "trialdata": {"rt": 1262, "trial_type": "text", "internal_node_id": "0.0-170.0", "time_elapsed": 1015429, "key_press": 32, "type": "INSTRUCTIONS", "trial_index": 224}, "uniqueid": "MTK2756:3ON104KXQL3ENI4YL6FRFTJMR5KW44", "dateTime": 1519326195785}, {"current_trial": 225, "trialdata": {"rt": [2945, 5678, 9458], "trial_type": "math-distractor", "key_times": [2033, 2528, 2945, 5217, 5442, 5678, 8682, 9200, 9458, 11674], "responses": ["18", "21", "20"], "num2": [6, 4, 5, 6], "num3": [3, 9, 7, 7], "conditions": [12, 1600, "a", 12000], "internal_node_id": "0.0-171.0", "key_presses": [49, 56, 13, 50, 49, 13, 50, 48, 13, 49], "trial": 6, "time_elapsed": 1029438, "type": "DISTRACTOR", "trial_index": 225, "num1": [9, 7, 8, 2]}, "uniqueid": "MTK2756:3ON104KXQL3ENI4YL6FRFTJMR5KW44", "dateTime": 1519326209793}, {"current_trial": 226, "trialdata": {"rt": -1, "trial_type": "single-stim", "stimulus": "<p id=\"stim\">10</p>", "internal_node_id": "0.0-172.0-0.0", "time_elapsed": 1032446, "key_press": -1, "trial_index": 226}, "uniqueid": "MTK2756:3ON104KXQL3ENI4YL6FRFTJMR5KW44", "dateTime": 1519326212801}, {"current_trial": 227, "trialdata": {"rt": -1, "trial_type": "single-stim", "stimulus": "<p id=\"stim\">9</p>", "internal_node_id": "0.0-172.0-1.0", "time_elapsed": 1033448, "key_press": -1, "trial_index": 227}, "uniqueid": "MTK2756:3ON104KXQL3ENI4YL6FRFTJMR5KW44", "dateTime": 1519326213803}, {"current_trial": 228, "trialdata": {"rt": -1, "trial_type": "single-stim", "stimulus": "<p id=\"stim\">8</p>", "internal_node_id": "0.0-172.0-2.0", "time_elapsed": 1034453, "key_press": -1, "trial_index": 228}, "uniqueid": "MTK2756:3ON104KXQL3ENI4YL6FRFTJMR5KW44", "dateTime": 1519326214808}, {"current_trial": 229, "trialdata": {"rt": -1, "trial_type": "single-stim", "stimulus": "<p id=\"stim\">7</p>", "internal_node_id": "0.0-172.0-3.0", "time_elapsed": 1035457, "key_press": -1, "trial_index": 229}, "uniqueid": "MTK2756:3ON104KXQL3ENI4YL6FRFTJMR5KW44", "dateTime": 1519326215812}, {"current_trial": 230, "trialdata": {"rt": -1, "trial_type": "single-stim", "stimulus": "<p id=\"stim\">6</p>", "internal_node_id": "0.0-172.0-4.0", "time_elapsed": 1036460, "key_press": -1, "trial_index": 230}, "uniqueid": "MTK2756:3ON104KXQL3ENI4YL6FRFTJMR5KW44", "dateTime": 1519326216815}, {"current_trial": 231, "trialdata": {"rt": -1, "trial_type": "single-stim", "stimulus": "<p id=\"stim\">5</p>", "internal_node_id": "0.0-172.0-5.0", "time_elapsed": 1037465, "key_press": -1, "trial_index": 231}, "uniqueid": "MTK2756:3ON104KXQL3ENI4YL6FRFTJMR5KW44", "dateTime": 1519326217820}, {"current_trial": 232, "trialdata": {"rt": -1, "trial_type": "single-stim", "stimulus": "<p id=\"stim\">4</p>", "internal_node_id": "0.0-172.0-6.0", "time_elapsed": 1038469, "key_press": -1, "trial_index": 232}, "uniqueid": "MTK2756:3ON104KXQL3ENI4YL6FRFTJMR5KW44", "dateTime": 1519326218824}, {"current_trial": 233, "trialdata": {"rt": -1, "trial_type": "single-stim", "stimulus": "<p id=\"stim\">3</p>", "internal_node_id": "0.0-172.0-7.0", "time_elapsed": 1039473, "key_press": -1, "trial_index": 233}, "uniqueid": "MTK2756:3ON104KXQL3ENI4YL6FRFTJMR5KW44", "dateTime": 1519326219828}, {"current_trial": 234, "trialdata": {"rt": -1, "trial_type": "single-stim", "stimulus": "<p id=\"stim\">2</p>", "internal_node_id": "0.0-172.0-8.0", "time_elapsed": 1040477, "key_press": -1, "trial_index": 234}, "uniqueid": "MTK2756:3ON104KXQL3ENI4YL6FRFTJMR5KW44", "dateTime": 1519326220833}, {"current_trial": 235, "trialdata": {"rt": -1, "trial_type": "single-stim", "stimulus": "<p id=\"stim\">1</p>", "internal_node_id": "0.0-172.0-9.0", "time_elapsed": 1041481, "key_press": -1, "trial_index": 235}, "uniqueid": "MTK2756:3ON104KXQL3ENI4YL6FRFTJMR5KW44", "dateTime": 1519326221836}, {"current_trial": 236, "trialdata": {"rt": -1, "trial_type": "single-stim", "stimulus": "<p id=\"stim\">+</p>", "internal_node_id": "0.0-173.0-0.0", "time_elapsed": 1042985, "key_press": -1, "type": "FIXATION", "trial_index": 236}, "uniqueid": "MTK2756:3ON104KXQL3ENI4YL6FRFTJMR5KW44", "dateTime": 1519326223340}, {"current_trial": 237, "trialdata": {"rt": -1000, "trial_type": "single-audio", "word": "money", "stimulus": "/static/audio/wordpool/MONEY.wav", "conditions": [12, 1600, "a", 12000], "internal_node_id": "0.0-174.0", "trial": 6, "time_elapsed": 1045566, "serialpos": 0, "key_press": -1, "wordID": 907, "type": "PRES_AUD", "trial_index": 237}, "uniqueid": "MTK2756:3ON104KXQL3ENI4YL6FRFTJMR5KW44", "dateTime": 1519326225921}, {"current_trial": 238, "trialdata": {"rt": -1000, "trial_type": "single-audio", "word": "canyon", "stimulus": "/static/audio/wordpool/CANYON.wav", "conditions": [12, 1600, "a", 12000], "internal_node_id": "0.0-175.0", "trial": 6, "time_elapsed": 1048007, "serialpos": 1, "key_press": -1, "wordID": 234, "type": "PRES_AUD", "trial_index": 238}, "uniqueid": "MTK2756:3ON104KXQL3ENI4YL6FRFTJMR5KW44", "dateTime": 1519326228362}, {"current_trial": 239, "trialdata": {"rt": -1000, "trial_type": "single-audio", "word": "ketchup", "stimulus": "/static/audio/wordpool/KETCHUP.wav", "conditions": [12, 1600, "a", 12000], "internal_node_id": "0.0-176.0", "trial": 6, "time_elapsed": 1050610, "serialpos": 2, "key_press": -1, "wordID": 770, "type": "PRES_AUD", "trial_index": 239}, "uniqueid": "MTK2756:3ON104KXQL3ENI4YL6FRFTJMR5KW44", "dateTime": 1519326230965}, {"current_trial": 240, "trialdata": {"rt": -1000, "trial_type": "single-audio", "word": "farmer", "stimulus": "/static/audio/wordpool/FARMER.wav", "conditions": [12, 1600, "a", 12000], "internal_node_id": "0.0-177.0", "trial": 6, "time_elapsed": 1053328, "serialpos": 3, "key_press": -1, "wordID": 552, "type": "PRES_AUD", "trial_index": 240}, "uniqueid": "MTK2756:3ON104KXQL3ENI4YL6FRFTJMR5KW44", "dateTime": 1519326233683}, {"current_trial": 241, "trialdata": {"rt": -1000, "trial_type": "single-audio", "word": "garlic", "stimulus": "/static/audio/wordpool/GARLIC.wav", "conditions": [12, 1600, "a", 12000], "internal_node_id": "0.0-178.0", "trial": 6, "time_elapsed": 1056103, "serialpos": 4, "key_press": -1, "wordID": 623, "type": "PRES_AUD", "trial_index": 241}, "uniqueid": "MTK2756:3ON104KXQL3ENI4YL6FRFTJMR5KW44", "dateTime": 1519326236458}, {"current_trial": 242, "trialdata": {"rt": -1000, "trial_type": "single-audio", "word": "salad", "stimulus": "/static/audio/wordpool/SALAD.wav", "conditions": [12, 1600, "a", 12000], "internal_node_id": "0.0-179.0", "trial": 6, "time_elapsed": 1058855, "serialpos": 5, "key_press": -1, "wordID": 1223, "type": "PRES_AUD", "trial_index": 242}, "uniqueid": "MTK2756:3ON104KXQL3ENI4YL6FRFTJMR5KW44", "dateTime": 1519326239210}, {"current_trial": 243, "trialdata": {"rt": -1000, "trial_type": "single-audio", "word": "lagoon", "stimulus": "/static/audio/wordpool/LAGOON.wav", "conditions": [12, 1600, "a", 12000], "internal_node_id": "0.0-180.0", "trial": 6, "time_elapsed": 1061420, "serialpos": 6, "key_press": -1, "wordID": 794, "type": "PRES_AUD", "trial_index": 243}, "uniqueid": "MTK2756:3ON104KXQL3ENI4YL6FRFTJMR5KW44", "dateTime": 1519326241776}, {"current_trial": 244, "trialdata": {"rt": -1000, "trial_type": "single-audio", "word": "tunnel", "stimulus": "/static/audio/wordpool/TUNNEL.wav", "conditions": [12, 1600, "a", 12000], "internal_node_id": "0.0-181.0", "trial": 6, "time_elapsed": 1064039, "serialpos": 7, "key_press": -1, "wordID": 1518, "type": "PRES_AUD", "trial_inde