{"assignmentId": "3L4D84MIL0ZMTASUTEGVKSYIUG0JHP", "workerId": "MTK2811", "questiondata": {"avail_screen_height": 1040, "color_depth": 24, "screen_width": 1920, "pixel_depth": 24, "avail_screen_width": 1920, "screen_height": 1080}, "bonus": 0, "hitId": "3UY4PIS8QRS5L507GL00WS381001NL", "counterbalance": 2634, "useragent": "Mozilla/5.0 (Windows NT 10.0; Win64; x64) AppleWebKit/537.36 (KHTML, like Gecko) Chrome/63.0.3239.132 Safari/537.36", "eventdata": [{"eventtype": "initialized", "interval": 0, "value": null, "timestamp": 1519402805507}, {"eventtype": "window_resize", "interval": 1, "value": [1920, 1033], "timestamp": 1519402805508}, {"eventtype": "focus", "interval": 348402, "value": "off", "timestamp": 1519403153910}, {"eventtype": "focus", "interval": 50193, "value": "on", "timestamp": 1519403204103}, {"eventtype": "focus", "interval": 145528, "value": "off", "timestamp": 1519403349631}, {"eventtype": "focus", "interval": 1927, "value": "on", "timestamp": 1519403351558}, {"eventtype": "focus", "interval": 1, "value": "on", "timestamp": 1519403351559}, {"eventtype": "focus", "interval": 288326, "value": "off", "timestamp": 1519403639885}, {"eventtype": "focus", "interval": 37264, "value": "on", "timestamp": 1519403677149}, {"eventtype": "focus", "interval": 50371, "value": "off", "timestamp": 1519403727520}, {"eventtype": "focus", "interval": 16622, "value": "on", "timestamp": 1519403744142}, {"eventtype": "focus", "interval": 724705, "value": "off", "timestamp": 1519404468847}, {"eventtype": "focus", "interval": 1865, "value": "on", "timestamp": 1519404470712}, {"eventtype": "focus", "interval": 106021, "value": "off", "timestamp": 1519404576733}, {"eventtype": "focus", "interval": 16764, "value": "on", "timestamp": 1519404593497}], "data": [{"current_trial": 0, "trialdata": {"rt": 2989, "trial_type": "text", "internal_node_id": "0.0-0.0", "time_elapsed": 2994, "key_press": 32, "type": "INSTRUCTIONS", "trial_index": 0}, "uniqueid": "MTK2811:3L4D84MIL0ZMTASUTEGVKSYIUG0JHP", "dateTime": 1519402808899}, {"current_trial": 1, "trialdata": {"rt": 27545, "trial_type": "text", "internal_node_id": "0.0-1.0", "time_elapsed": 30544, "key_press": 32, "type": "INSTRUCTIONS", "trial_index": 1}, "uniqueid": "MTK2811:3L4D84MIL0ZMTASUTEGVKSYIUG0JHP", "dateTime": 1519402836448}, {"current_trial": 2, "trialdata": {"rt": [11966], "trial_type": "audio-test", "responses": ["ocean"], "internal_node_id": "0.0-2.0", "time_elapsed": 42534, "type": "AUDIO_TEST", "trial_index": 2}, "uniqueid": "MTK2811:3L4D84MIL0ZMTASUTEGVKSYIUG0JHP", "dateTime": 1519402848437}, {"current_trial": 3, "trialdata": {"rt": [8605], "trial_type": "audio-test", "responses": ["crystal"], "internal_node_id": "0.0-3.0", "time_elapsed": 51142, "type": "AUDIO_TEST", "trial_index": 3}, "uniqueid": "MTK2811:3L4D84MIL0ZMTASUTEGVKSYIUG0JHP", "dateTime": 1519402857045}, {"current_trial": 4, "trialdata": {"rt": [8270], "trial_type": "audio-test", "responses": ["spice"], "internal_node_id": "0.0-4.0", "time_elapsed": 59414, "type": "AUDIO_TEST", "trial_index": 4}, "uniqueid": "MTK2811:3L4D84MIL0ZMTASUTEGVKSYIUG0JHP", "dateTime": 1519402865317}, {"current_trial": 5, "trialdata": {"rt": 28669, "trial_type": "survey-text", "responses": "{\"Q0\":\"9:00 pm\",\"Q1\":\"6:00 am\",\"Q2\":\"4\"}", "internal_node_id": "0.0-5.0", "time_elapsed": 88838, "type": "SLEEP_SURVEY", "trial_index": 5}, "uniqueid": "MTK2811:3L4D84MIL0ZMTASUTEGVKSYIUG0JHP", "dateTime": 1519402894741}, {"current_trial": 6, "trialdata": {"rt": 59909, "trial_type": "text", "internal_node_id": "0.0-6.0", "time_elapsed": 149749, "key_press": 13, "type": "INSTRUCTIONS", "trial_index": 6}, "uniqueid": "MTK2811:3L4D84MIL0ZMTASUTEGVKSYIUG0JHP", "dateTime": 1519402955652}, {"current_trial": 7, "trialdata": {"rt": 20402, "trial_type": "text", "internal_node_id": "0.0-7.0", "time_elapsed": 170653, "key_press": 13, "type": "INSTRUCTIONS", "trial_index": 7}, "uniqueid": "MTK2811:3L4D84MIL0ZMTASUTEGVKSYIUG0JHP", "dateTime": 1519402976556}, {"current_trial": 8, "trialdata": {"rt": 9449, "trial_type": "text", "internal_node_id": "0.0-8.0", "time_elapsed": 180605, "key_press": 13, "type": "INSTRUCTIONS", "trial_index": 8}, "uniqueid": "MTK2811:3L4D84MIL0ZMTASUTEGVKSYIUG0JHP", "dateTime": 1519402986508}, {"current_trial": 9, "trialdata": {"rt": [2314, 4058, 6466, 10266, 11706, 13499, 15491, 17979], "trial_type": "math-distractor", "key_times": [1812, 1940, 2314, 3643, 3851, 4058, 6147, 6291, 6466, 9974, 10060, 10266, 11515, 11706, 13181, 13340, 13499, 15132, 15292, 15491, 17572, 17756, 17979], "responses": ["19", "20", "22", "13", "8", "14", "18", "18"], "num2": [5, 9, 9, 5, 4, 2, 5, 7, 6], "num3": [8, 2, 4, 4, 1, 9, 5, 7, 9], "conditions": [18, 1200, "v", 18000], "internal_node_id": "0.0-9.0", "key_presses": [97, 105, 13, 98, 96, 13, 98, 98, 13, 97, 99, 13, 104, 13, 97, 100, 13, 97, 104, 13, 97, 104, 13], "trial": 0, "time_elapsed": 199627, "type": "DISTRACTOR", "trial_index": 9, "num1": [6, 9, 9, 4, 3, 3, 8, 6, 6]}, "uniqueid": "MTK2811:3L4D84MIL0ZMTASUTEGVKSYIUG0JHP", "dateTime": 1519403005530}, {"current_trial": 10, "trialdata": {"rt": -1, "trial_type": "single-stim", "stimulus": "<p id=\"stim\">10</p>", "internal_node_id": "0.0-10.0-0.0", "time_elapsed": 202634, "key_press": -1, "trial_index": 10}, "uniqueid": "MTK2811:3L4D84MIL0ZMTASUTEGVKSYIUG0JHP", "dateTime": 1519403008537}, {"current_trial": 11, "trialdata": {"rt": -1, "trial_type": "single-stim", "stimulus": "<p id=\"stim\">9</p>", "internal_node_id": "0.0-10.0-1.0", "time_elapsed": 203637, "key_press": -1, "trial_index": 11}, "uniqueid": "MTK2811:3L4D84MIL0ZMTASUTEGVKSYIUG0JHP", "dateTime": 1519403009540}, {"current_trial": 12, "trialdata": {"rt": -1, "trial_type": "single-stim", "stimulus": "<p id=\"stim\">8</p>", "internal_node_id": "0.0-10.0-2.0", "time_elapsed": 204640, "key_press": -1, "trial_index": 12}, "uniqueid": "MTK2811:3L4D84MIL0ZMTASUTEGVKSYIUG0JHP", "dateTime": 1519403010543}, {"current_trial": 13, "trialdata": {"rt": -1, "trial_type": "single-stim", "stimulus": "<p id=\"stim\">7</p>", "internal_node_id": "0.0-10.0-3.0", "time_elapsed": 205641, "key_press": -1, "trial_index": 13}, "uniqueid": "MTK2811:3L4D84MIL0ZMTASUTEGVKSYIUG0JHP", "dateTime": 1519403011544}, {"current_trial": 14, "trialdata": {"rt": -1, "trial_type": "single-stim", "stimulus": "<p id=\"stim\">6</p>", "internal_node_id": "0.0-10.0-4.0", "time_elapsed": 206643, "key_press": -1, "trial_index": 14}, "uniqueid": "MTK2811:3L4D84MIL0ZMTASUTEGVKSYIUG0JHP", "dateTime": 1519403012546}, {"current_trial": 15, "trialdata": {"rt": -1, "trial_type": "single-stim", "stimulus": "<p id=\"stim\">5</p>", "internal_node_id": "0.0-10.0-5.0", "time_elapsed": 207645, "key_press": -1, "trial_index": 15}, "uniqueid": "MTK2811:3L4D84MIL0ZMTASUTEGVKSYIUG0JHP", "dateTime": 1519403013548}, {"current_trial": 16, "trialdata": {"rt": -1, "trial_type": "single-stim", "stimulus": "<p id=\"stim\">4</p>", "internal_node_id": "0.0-10.0-6.0", "time_elapsed": 208647, "key_press": -1, "trial_index": 16}, "uniqueid": "MTK2811:3L4D84MIL0ZMTASUTEGVKSYIUG0JHP", "dateTime": 1519403014550}, {"current_trial": 17, "trialdata": {"rt": -1, "trial_type": "single-stim", "stimulus": "<p id=\"stim\">3</p>", "internal_node_id": "0.0-10.0-7.0", "time_elapsed": 209651, "key_press": -1, "trial_index": 17}, "uniqueid": "MTK2811:3L4D84MIL0ZMTASUTEGVKSYIUG0JHP", "dateTime": 1519403015554}, {"current_trial": 18, "trialdata": {"rt": -1, "trial_type": "single-stim", "stimulus": "<p id=\"stim\">2</p>", "internal_node_id": "0.0-10.0-8.0", "time_elapsed": 210653, "key_press": -1, "trial_index": 18}, "uniqueid": "MTK2811:3L4D84MIL0ZMTASUTEGVKSYIUG0JHP", "dateTime": 1519403016557}, {"current_trial": 19, "trialdata": {"rt": -1, "trial_type": "single-stim", "stimulus": "<p id=\"stim\">1</p>", "internal_node_id": "0.0-10.0-9.0", "time_elapsed": 211655, "key_press": -1, "trial_index": 19}, "uniqueid": "MTK2811:3L4D84MIL0ZMTASUTEGVKSYIUG0JHP", "dateTime": 1519403017559}, {"current_trial": 20, "trialdata": {"rt": -1, "trial_type": "single-stim", "stimulus": "<p id=\"stim\">+</p>", "internal_node_id": "0.0-11.0-0.0", "time_elapsed": 213157, "key_press": -1, "type": "FIXATION", "trial_index": 20}, "uniqueid": "MTK2811:3L4D84MIL0ZMTASUTEGVKSYIUG0JHP", "dateTime": 1519403019061}, {"current_trial": 21, "trialdata": {"rt": -1, "trial_type": "single-stim", "word": "widow", "stimulus": "<p id=\"stim\">WIDOW</p>", "conditions": [18, 1200, "v", 18000], "internal_node_id": "0.0-12.0", "trial": 0, "time_elapsed": 214360, "serialpos": 0, "key_press": -1, "wordID": 1607, "type": "PRES_VIS", "trial_index": 21}, "uniqueid": "MTK2811:3L4D84MIL0ZMTASUTEGVKSYIUG0JHP", "dateTime": 1519403020263}, {"current_trial": 22, "trialdata": {"rt": -1, "trial_type": "single-stim", "word": "captive", "stimulus": "<p id=\"stim\">CAPTIVE</p>", "conditions": [18, 1200, "v", 18000], "internal_node_id": "0.0-13.0", "trial": 0, "time_elapsed": 216558, "serialpos": 1, "key_press": -1, "wordID": 239, "type": "PRES_VIS", "trial_index": 22}, "uniqueid": "MTK2811:3L4D84MIL0ZMTASUTEGVKSYIUG0JHP", "dateTime": 1519403022461}, {"current_trial": 23, "trialdata": {"rt": -1, "trial_type": "single-stim", "word": "transplant", "stimulus": "<p id=\"stim\">TRANSPLANT</p>", "conditions": [18, 1200, "v", 18000], "internal_node_id": "0.0-14.0", "trial": 0, "time_elapsed": 218901, "serialpos": 2, "key_press": -1, "wordID": 1495, "type": "PRES_VIS", "trial_index": 23}, "uniqueid": "MTK2811:3L4D84MIL0ZMTASUTEGVKSYIUG0JHP", "dateTime": 1519403024804}, {"current_trial": 24, "trialdata": {"rt": -1, "trial_type": "single-stim", "word": "hero", "stimulus": "<p id=\"stim\">HERO</p>", "conditions": [18, 1200, "v", 18000], "internal_node_id": "0.0-15.0", "trial": 0, "time_elapsed": 221257, "serialpos": 3, "key_press": -1, "wordID": 705, "type": "PRES_VIS", "trial_index": 24}, "uniqueid": "MTK2811:3L4D84MIL0ZMTASUTEGVKSYIUG0JHP", "dateTime": 1519403027160}, {"current_trial": 25, "trialdata": {"rt": -1, "trial_type": "single-stim", "word": "wife", "stimulus": "<p id=\"stim\">WIFE</p>", "conditions": [18, 1200, "v", 18000], "internal_node_id": "0.0-16.0", "trial": 0, "time_elapsed": 223557, "serialpos": 4, "key_press": -1, "wordID": 1608, "type": "PRES_VIS", "trial_index": 25}, "uniqueid": "MTK2811:3L4D84MIL0ZMTASUTEGVKSYIUG0JHP", "dateTime": 1519403029461}, {"current_trial": 26, "trialdata": {"rt": -1, "trial_type": "single-stim", "word": "jungle", "stimulus": "<p id=\"stim\">JUNGLE</p>", "conditions": [18, 1200, "v", 18000], "internal_node_id": "0.0-17.0", "trial": 0, "time_elapsed": 225816, "serialpos": 5, "key_press": -1, "wordID": 763, "type": "PRES_VIS", "trial_index": 26}, "uniqueid": "MTK2811:3L4D84MIL0ZMTASUTEGVKSYIUG0JHP", "dateTime": 1519403031719}, {"current_trial": 27, "trialdata": {"rt": -1, "trial_type": "single-stim", "word": "beaver", "stimulus": "<p id=\"stim\">BEAVER</p>", "conditions": [18, 1200, "v", 18000], "internal_node_id": "0.0-18.0", "trial": 0, "time_elapsed": 228086, "serialpos": 6, "key_press": -1, "wordID": 108, "type": "PRES_VIS", "trial_index": 27}, "uniqueid": "MTK2811:3L4D84MIL0ZMTASUTEGVKSYIUG0JHP", "dateTime": 1519403033989}, {"current_trial": 28, "trialdata": {"rt": -1, "trial_type": "single-stim", "word": "victim", "stimulus": "<p id=\"stim\">VICTIM</p>", "conditions": [18, 1200, "v", 18000], "internal_node_id": "0.0-19.0", "trial": 0, "time_elapsed": 230134, "serialpos": 7, "key_press": -1, "wordID": 1561, "type": "PRES_VIS", "trial_index": 28}, "uniqueid": "MTK2811:3L4D84MIL0ZMTASUTEGVKSYIUG0JHP", "dateTime": 1519403036038}, {"current_trial": 29, "trialdata": {"rt": -1, "trial_type": "single-stim", "word": "brook", "stimulus": "<p id=\"stim\">BROOK</p>", "conditions": [18, 1200, "v", 18000], "internal_node_id": "0.0-20.0", "trial": 0, "time_elapsed": 232236, "serialpos": 8, "key_press": -1, "wordID": 176, "type": "PRES_VIS", "trial_index": 29}, "uniqueid": "MTK2811:3L4D84MIL0ZMTASUTEGVKSYIUG0JHP", "dateTime": 1519403038140}, {"current_trial": 30, "trialdata": {"rt": -1, "trial_type": "single-stim", "word": "softball", "stimulus": "<p id=\"stim\">SOFTBALL</p>", "conditions": [18, 1200, "v", 18000], "internal_node_id": "0.0-21.0", "trial": 0, "time_elapsed": 234322, "serialpos": 9, "key_press": -1, "wordID": 1342, "type": "PRES_VIS", "trial_index": 30}, "uniqueid": "MTK2811:3L4D84MIL0ZMTASUTEGVKSYIUG0JHP", "dateTime": 1519403040226}, {"current_trial": 31, "trialdata": {"rt": -1, "trial_type": "single-stim", "word": "gift", "stimulus": "<p id=\"stim\">GIFT</p>", "conditions": [18, 1200, "v", 18000], "internal_node_id": "0.0-22.0", "trial": 0, "time_elapsed": 236702, "serialpos": 10, "key_press": -1, "wordID": 634, "type": "PRES_VIS", "trial_index": 31}, "uniqueid": "MTK2811:3L4D84MIL0ZMTASUTEGVKSYIUG0JHP", "dateTime": 1519403042605}, {"current_trial": 32, "trialdata": {"rt": -1, "trial_type": "single-stim", "word": "rod", "stimulus": "<p id=\"stim\">ROD</p>", "conditions": [18, 1200, "v", 18000], "internal_node_id": "0.0-23.0", "trial": 0, "time_elapsed": 239053, "serialpos": 11, "key_press": -1, "wordID": 1202, "type": "PRES_VIS", "trial_index": 32}, "uniqueid": "MTK2811:3L4D84MIL0ZMTASUTEGVKSYIUG0JHP", "dateTime": 1519403044957}, {"current_trial": 33, "trialdata": {"rt": -1, "trial_type": "single-stim", "word": "report", "stimulus": "<p id=\"stim\">REPORT</p>", "conditions": [18, 1200, "v", 18000], "internal_node_id": "0.0-24.0", "trial": 0, "time_elapsed": 241220, "serialpos": 12, "key_press": -1, "wordID": 1183, "type": "PRES_VIS", "trial_index": 33}, "uniqueid": "MTK2811:3L4D84MIL0ZMTASUTEGVKSYIUG0JHP", "dateTime": 1519403047124}, {"current_trial": 34, "trialdata": {"rt": -1, "trial_type": "single-stim", "word": "island", "stimulus": "<p id=\"stim\">ISLAND</p>", "conditions": [18, 1200, "v", 18000], "internal_node_id": "0.0-25.0", "trial": 0, "time_elapsed": 243267, "serialpos": 13, "key_press": -1, "wordID": 744, "type": "PRES_VIS", "trial_index": 34}, "uniqueid": "MTK2811:3L4D84MIL0ZMTASUTEGVKSYIUG0JHP", "dateTime": 1519403049171}, {"current_trial": 35, "trialdata": {"rt": -1, "trial_type": "single-stim", "word": "lamp", "stimulus": "<p id=\"stim\">LAMP</p>", "conditions": [18, 1200, "v", 18000], "internal_node_id": "0.0-26.0", "trial": 0, "time_elapsed": 245589, "serialpos": 14, "key_press": -1, "wordID": 797, "type": "PRES_VIS", "trial_index": 35}, "uniqueid": "MTK2811:3L4D84MIL0ZMTASUTEGVKSYIUG0JHP", "dateTime": 1519403051492}, {"current_trial": 36, "trialdata": {"rt": -1, "trial_type": "single-stim", "word": "pecan", "stimulus": "<p id=\"stim\">PECAN</p>", "conditions": [18, 1200, "v", 18000], "internal_node_id": "0.0-27.0", "trial": 0, "time_elapsed": 247958, "serialpos": 15, "key_press": -1, "wordID": 1035, "type": "PRES_VIS", "trial_index": 36}, "uniqueid": "MTK2811:3L4D84MIL0ZMTASUTEGVKSYIUG0JHP", "dateTime": 1519403053861}, {"current_trial": 37, "trialdata": {"rt": -1, "trial_type": "single-stim", "word": "farmer", "stimulus": "<p id=\"stim\">FARMER</p>", "conditions": [18, 1200, "v", 18000], "internal_node_id": "0.0-28.0", "trial": 0, "time_elapsed": 250079, "serialpos": 16, "key_press": -1, "wordID": 552, "type": "PRES_VIS", "trial_index": 37}, "uniqueid": "MTK2811:3L4D84MIL0ZMTASUTEGVKSYIUG0JHP", "dateTime": 1519403055982}, {"current_trial": 38, "trialdata": {"rt": -1, "trial_type": "single-stim", "word": "lapel", "stimulus": "<p id=\"stim\">LAPEL</p>", "conditions": [18, 1200, "v", 18000], "internal_node_id": "0.0-29.0", "trial": 0, "time_elapsed": 252450, "serialpos": 17, "key_press": -1, "wordID": 799, "type": "PRES_VIS", "trial_index": 38}, "uniqueid": "MTK2811:3L4D84MIL0ZMTASUTEGVKSYIUG0JHP", "dateTime": 1519403058354}, {"current_trial": 39, "trialdata": {"rt": -1, "trial_type": "single-stim", "stimulus": "", "internal_node_id": "0.0-30.0-0.0", "time_elapsed": 254717, "key_press": -1, "type": "PRE_RECALL_DELAY", "trial_index": 39}, "uniqueid": "MTK2811:3L4D84MIL0ZMTASUTEGVKSYIUG0JHP", "dateTime": 1519403060621}, {"current_trial": 40, "trialdata": {"rt": -1000, "trial_type": "single-audio", "stimulus": "/static/audio/400Hz.wav", "internal_node_id": "0.0-31.0", "time_elapsed": 255222, "key_press": -1, "type": "PRE_RECALL_ALERT", "trial_index": 40}, "uniqueid": "MTK2811:3L4D84MIL0ZMTASUTEGVKSYIUG0JHP", "dateTime": 1519403061125}, {"current_trial": 41, "trialdata": {"rt": [2932, 4732, 6412, 8772, 10141, 12148, 15612, 20085, 22004, 25548, 39436, 46268], "recwords": ["lapel", "farmer", "widow", "transplant", "wife", "softball", "report", "island", "rod", "gift", "organ", "beaver"], "key_times": [1655, 1965, 2182, 2388, 2557, 2932, 3421, 3709, 3765, 3926, 4173, 4237, 4732, 5285, 5485, 5669, 5812, 6141, 6412, 6757, 6981, 7149, 7317, 7509, 7837, 8045, 8173, 8278, 8565, 8772, 8957, 9100, 9308, 9533, 10141, 10596, 10689, 10861, 11062, 11461, 11637, 11749, 11901, 12148, 14693, 14757, 14901, 15085, 15189, 15376, 15612, 19252, 19365, 19533, 19676, 19805, 19973, 20085, 21388, 21494, 21773, 22004, 23261, 23350, 23517, 23973, 24124, 24269, 24797, 24860, 25109, 25324, 25548, 26388, 26853, 38654, 38821, 38996, 39100, 39228, 39436, 45335, 45517, 45621, 45766, 45933, 46021, 46268], "trial_type": "free-recall", "conditions": [18, 1200, "v", 18000], "internal_node_id": "0.0-32.0-0.0", "key_presses": [76, 65, 80, 69, 76, 13, 70, 65, 82, 77, 69, 82, 13, 87, 73, 68, 79, 87, 13, 84, 82, 65, 78, 83, 80, 76, 65, 78, 84, 13, 87, 73, 70, 69, 13, 83, 79, 70, 84, 66, 65, 76, 76, 13, 82, 69, 80, 79, 82, 84, 13, 73, 83, 76, 65, 78, 68, 13, 82, 79, 68, 13, 70, 73, 71, 8, 8, 8, 71, 73, 70, 84, 13, 76, 8, 79, 82, 71, 65, 78, 13, 66, 69, 65, 86, 69, 82, 13], "trial": 0, "time_elapsed": 315228, "type": "FREE_RECALL", "trial_index": 41}, "uniqueid": "MTK2811:3L4D84MIL0ZMTASUTEGVKSYIUG0JHP", "dateTime": 1519403121135}, {"current_trial": 42, "trialdata": {"rt": 1795, "trial_type": "text", "internal_node_id": "0.0-33.0", "time_elapsed": 319029, "key_press": 13, "type": "INSTRUCTIONS", "trial_index": 42}, "uniqueid": "MTK2811:3L4D84MIL0ZMTASUTEGVKSYIUG0JHP", "dateTime": 1519403124932}, {"current_trial": 43, "trialdata": {"rt": [2653, 3965, 5749, 7381, 9662, 11597, 13021, 15005, 16789], "trial_type": "math-distractor", "key_times": [2294, 2469, 2653, 3775, 3965, 5455, 5598, 5749, 6950, 7157, 7381, 9326, 9518, 9662, 11302, 11374, 11597, 12701, 12862, 13021, 14822, 15005, 16453, 16558, 16789], "responses": ["14", "9", "16", "17", "10", "15", "11", "8", "16"], "num2": [1, 4, 4, 3, 3, 3, 3, 3, 2, 9], "num3": [7, 1, 8, 7, 6, 8, 5, 3, 8, 2], "conditions": [18, 1200, "v", 18000], "internal_node_id": "0.0-34.0", "key_presses": [97, 100, 13, 105, 13, 97, 102, 13, 97, 103, 13, 97, 96, 13, 97, 101, 13, 97, 97, 13, 104, 13, 97, 102, 13], "trial": 1, "time_elapsed": 339034, "type": "DISTRACTOR", "trial_index": 43, "num1": [6, 4, 4, 7, 1, 4, 3, 2, 6, 3]}, "uniqueid": "MTK2811:3L4D84MIL0ZMTASUTEGVKSYIUG0JHP", "dateTime": 1519403144937}, {"current_trial": 44, "trialdata": {"rt": -1, "trial_type": "single-stim", "stimulus": "<p id=\"stim\">10</p>", "internal_node_id": "0.0-35.0-0.0", "time_elapsed": 342037, "key_press": -1, "trial_index": 44}, "uniqueid": "MTK2811:3L4D84MIL0ZMTASUTEGVKSYIUG0JHP", "dateTime": 1519403147940}, {"current_trial": 45, "trialdata": {"rt": -1, "trial_type": "single-stim", "stimulus": "<p id=\"stim\">9</p>", "internal_node_id": "0.0-35.0-1.0", "time_elapsed": 343040, "key_press": -1, "trial_index": 45}, "uniqueid": "MTK2811:3L4D84MIL0ZMTASUTEGVKSYIUG0JHP", "dateTime": 1519403148943}, {"current_trial": 46, "trialdata": {"rt": -1, "trial_type": "single-stim", "stimulus": "<p id=\"stim\">8</p>", "internal_node_id": "0.0-35.0-2.0", "time_elapsed": 344043, "key_press": -1, "trial_index": 46}, "uniqueid": "MTK2811:3L4D84MIL0ZMTASUTEGVKSYIUG0JHP", "dateTime": 1519403149946}, {"current_trial": 47, "trialdata": {"rt": -1, "trial_type": "single-stim", "stimulus": "<p id=\"stim\">7</p>", "internal_node_id": "0.0-35.0-3.0", "time_elapsed": 345045, "key_press": -1, "trial_index": 47}, "uniqueid": "MTK2811:3L4D84MIL0ZMTASUTEGVKSYIUG0JHP", "dateTime": 1519403150948}, {"current_trial": 48, "trialdata": {"rt": -1, "trial_type": "single-stim", "stimulus": "<p id=\"stim\">6</p>", "internal_node_id": "0.0-35.0-4.0", "time_elapsed": 346048, "key_press": -1, "trial_index": 48}, "uniqueid": "MTK2811:3L4D84MIL0ZMTASUTEGVKSYIUG0JHP", "dateTime": 1519403151951}, {"current_trial": 49, "trialdata": {"rt": -1, "trial_type": "single-stim", "stimulus": "<p id=\"stim\">5</p>", "internal_node_id": "0.0-35.0-5.0", "time_elapsed": 347049, "key_press": -1, "trial_index": 49}, "uniqueid": "MTK2811:3L4D84MIL0ZMTASUTEGVKSYIUG0JHP", "dateTime": 1519403152953}, {"current_trial": 50, "trialdata": {"rt": -1, "trial_type": "single-stim", "stimulus": "<p id=\"stim\">4</p>", "internal_node_id": "0.0-35.0-6.0", "time_elapsed": 348051, "key_press": -1, "trial_index": 50}, "uniqueid": "MTK2811:3L4D84MIL0ZMTASUTEGVKSYIUG0JHP", "dateTime": 1519403153954}, {"current_trial": 51, "trialdata": {"rt": -1, "trial_type": "single-stim", "stimulus": "<p id=\"stim\">3</p>", "internal_node_id": "0.0-35.0-7.0", "time_elapsed": 349053, "key_press": -1, "trial_index": 51}, "uniqueid": "MTK2811:3L4D84MIL0ZMTASUTEGVKSYIUG0JHP", "dateTime": 1519403154956}, {"current_trial": 52, "trialdata": {"rt": -1, "trial_type": "single-stim", "stimulus": "<p id=\"stim\">2</p>", "internal_node_id": "0.0-35.0-8.0", "time_elapsed": 350054, "key_press": -1, "trial_index": 52}, "uniqueid": "MTK2811:3L4D84MIL0ZMTASUTEGVKSYIUG0JHP", "dateTime": 1519403155957}, {"current_trial": 53, "trialdata": {"rt": -1, "trial_type": "single-stim", "stimulus": "<p id=\"stim\">1</p>", "internal_node_id": "0.0-35.0-9.0", "time_elapsed": 351056, "key_press": -1, "trial_index": 53}, "uniqueid": "MTK2811:3L4D84MIL0ZMTASUTEGVKSYIUG0JHP", "dateTime": 1519403156959}, {"current_trial": 54, "trialdata": {"rt": -1, "trial_type": "single-stim", "stimulus": "<p id=\"stim\">+</p>", "internal_node_id": "0.0-36.0-0.0", "time_elapsed": 352559, "key_press": -1, "type": "FIXATION", "trial_index": 54}, "uniqueid": "MTK2811:3L4D84MIL0ZMTASUTEGVKSYIUG0JHP", "dateTime": 1519403158462}, {"current_trial": 55, "trialdata": {"rt": -1, "trial_type": "single-stim", "word": "hood", "stimulus": "<p id=\"stim\">HOOD</p>", "conditions": [18, 1200, "v", 18000], "internal_node_id": "0.0-37.0", "trial": 1, "time_elapsed": 353760, "serialpos": 0, "key_press": -1, "wordID": 713, "type": "PRES_VIS", "trial_index": 55}, "uniqueid": "MTK2811:3L4D84MIL0ZMTASUTEGVKSYIUG0JHP", "dateTime": 1519403159664}, {"current_trial": 56, "trialdata": {"rt": -1, "trial_type": "single-stim", "word": "lady", "stimulus": "<p id=\"stim\">LADY</p>", "conditions": [18, 1200, "v", 18000], "internal_node_id": "0.0-38.0", "trial": 1, "time_elapsed": 355848, "serialpos": 1, "key_press": -1, "wordID": 793, "type": "PRES_VIS", "trial_index": 56}, "uniqueid": "MTK2811:3L4D84MIL0ZMTASUTEGVKSYIUG0JHP", "dateTime": 1519403161751}, {"current_trial": 57, "trialdata": {"rt": -1, "trial_type": "single-stim", "word": "table", "stimulus": "<p id=\"stim\">TABLE</p>", "conditions": [18, 1200, "v", 18000], "internal_node_id": "0.0-39.0", "trial": 1, "time_elapsed": 357924, "serialpos": 2, "key_press": -1, "wordID": 1425, "type": "PRES_VIS", "trial_index": 57}, "uniqueid": "MTK2811:3L4D84MIL0ZMTASUTEGVKSYIUG0JHP", "dateTime": 1519403163828}, {"current_trial": 58, "trialdata": {"rt": -1, "trial_type": "single-stim", "word": "eyelash", "stimulus": "<p id=\"stim\">EYELASH</p>", "conditions": [18, 1200, "v", 18000], "internal_node_id": "0.0-40.0", "trial": 1, "time_elapsed": 360274, "serialpos": 3, "key_press": -1, "wordID": 545, "type": "PRES_VIS", "trial_index": 58}, "uniqueid": "MTK2811:3L4D84MIL0ZMTASUTEGVKSYIUG0JHP", "dateTime": 1519403166177}, {"current_trial": 59, "trialdata": {"rt": -1, "trial_type": "single-stim", "word": "atom", "stimulus": "<p id=\"stim\">ATOM</p>", "conditions": [18, 1200, "v", 18000], "internal_node_id": "0.0-41.0", "trial": 1, "time_elapsed": 362560, "serialpos": 4, "key_press": -1, "wordID": 54, "type": "PRES_VIS", "trial_index": 59}, "uniqueid": "MTK2811:3L4D84MIL0ZMTASUTEGVKSYIUG0JHP", "dateTime": 1519403168463}, {"current_trial": 60, "trialdata": {"rt": -1, "trial_type": "single-stim", "word": "daughter", "stimulus": "<p id=\"stim\">DAUGHTER</p>", "conditions": [18, 1200, "v", 18000], "internal_node_id": "0.0-42.0", "trial": 1, "time_elapsed": 364795, "serialpos": 5, "key_press": -1, "wordID": 441, "type": "PRES_VIS", "trial_index": 60}, "uniqueid": "MTK2811:3L4D84MIL0ZMTASUTEGVKSYIUG0JHP", "dateTime": 1519403170698}, {"current_trial": 61, "trialdata": {"rt": -1, "trial_type": "single-stim", "word": "actress", "stimulus": "<p id=\"stim\">ACTRESS</p>", "conditions": [18, 1200, "v", 18000], "internal_node_id": "0.0-43.0", "trial": 1, "time_elapsed": 367002, "serialpos": 6, "key_press": -1, "wordID": 5, "type": "PRES_VIS", "trial_index": 61}, "uniqueid": "MTK2811:3L4D84MIL0ZMTASUTEGVKSYIUG0JHP", "dateTime": 1519403172906}, {"current_trial": 62, "trialdata": {"rt": -1, "trial_type": "single-stim", "word": "tuba", "stimulus": "<p id=\"stim\">TUBA</p>", "conditions": [18, 1200, "v", 18000], "internal_node_id": "0.0-44.0", "trial": 1, "time_elapsed": 369394, "serialpos": 7, "key_press": -1, "wordID": 1514, "type": "PRES_VIS", "trial_index": 62}, "uniqueid": "MTK2811:3L4D84MIL0ZMTASUTEGVKSYIUG0JHP", "dateTime": 1519403175297}, {"current_trial": 63, "trialdata": {"rt": -1, "trial_type": "single-stim", "word": "picture", "stimulus": "<p id=\"stim\">PICTURE</p>", "conditions": [18, 1200, "v", 18000], "internal_node_id": "0.0-45.0", "trial": 1, "time_elapsed": 371544, "serialpos": 8, "key_press": -1, "wordID": 1060, "type": "PRES_VIS", "trial_index": 63}, "uniqueid": "MTK2811:3L4D84MIL0ZMTASUTEGVKSYIUG0JHP", "dateTime": 1519403177447}, {"current_trial": 64, "trialdata": {"rt": -1, "trial_type": "single-stim", "word": "shovel", "stimulus": "<p id=\"stim\">SHOVEL</p>", "conditions": [18, 1200, "v", 18000], "internal_node_id": "0.0-46.0", "trial": 1, "time_elapsed": 373851, "serialpos": 9, "key_press": -1, "wordID": 1294, "type": "PRES_VIS", "trial_index": 64}, "uniqueid": "MTK2811:3L4D84MIL0ZMTASUTEGVKSYIUG0JHP", "dateTime": 1519403179754}, {"current_trial": 65, "trialdata": {"rt": -1, "trial_type": "single-stim", "word": "sticker", "stimulus": "<p id=\"stim\">STICKER</p>", "conditions": [18, 1200, "v", 18000], "internal_node_id": "0.0-47.0", "trial": 1, "time_elapsed": 376186, "serialpos": 10, "key_press": -1, "wordID": 1381, "type": "PRES_VIS", "trial_index": 65}, "uniqueid": "MTK2811:3L4D84MIL0ZMTASUTEGVKSYIUG0JHP", "dateTime": 1519403182089}, {"current_trial": 66, "trialdata": {"rt": -1, "trial_type": "single-stim", "word": "carrot", "stimulus": "<p id=\"stim\">CARROT</p>", "conditions": [18, 1200, "v", 18000], "internal_node_id": "0.0-48.0", "trial": 1, "time_elapsed": 378340, "serialpos": 11, "key_press": -1, "wordID": 248, "type": "PRES_VIS", "trial_index": 66}, "uniqueid": "MTK2811:3L4D84MIL0ZMTASUTEGVKSYIUG0JHP", "dateTime": 1519403184243}, {"current_trial": 67, "trialdata": {"rt": -1, "trial_type": "single-stim", "word": "clamp", "stimulus": "<p id=\"stim\">CLAMP</p>", "conditions": [18, 1200, "v", 18000], "internal_node_id": "0.0-49.0", "trial": 1, "time_elapsed": 380441, "serialpos": 12, "key_press": -1, "wordID": 315, "type": "PRES_VIS", "trial_index": 67}, "uniqueid": "MTK2811:3L4D84MIL0ZMTASUTEGVKSYIUG0JHP", "dateTime": 1519403186344}, {"current_trial": 68, "trialdata": {"rt": -1, "trial_type": "single-stim", "word": "dust", "stimulus": "<p id=\"stim\">DUST</p>", "conditions": [18, 1200, "v", 18000], "internal_node_id": "0.0-50.0", "trial": 1, "time_elapsed": 382470, "serialpos": 13, "key_press": -1, "wordID": 507, "type": "PRES_VIS", "trial_index": 68}, "uniqueid": "MTK2811:3L4D84MIL0ZMTASUTEGVKSYIUG0JHP", "dateTime": 1519403188379}, {"current_trial": 69, "trialdata": {"rt": -1, "trial_type": "single-stim", "word": "whistle", "stimulus": "<p id=\"stim\">WHISTLE</p>", "conditions": [18, 1200, "v", 18000], "internal_node_id": "0.0-51.0", "trial": 1, "time_elapsed": 384768, "serialpos": 14, "key_press": -1, "wordID": 1605, "type": "PRES_VIS", "trial_index": 69}, "uniqueid": "MTK2811:3L4D84MIL0ZMTASUTEGVKSYIUG0JHP", "dateTime": 1519403190671}, {"current_trial": 70, "trialdata": {"rt": -1, "trial_type": "single-stim", "word": "convict", "stimulus": "<p id=\"stim\">CONVICT</p>", "conditions": [18, 1200, "v", 18000], "internal_node_id": "0.0-52.0", "trial": 1, "time_elapsed": 387005, "serialpos": 15, "key_press": -1, "wordID": 370, "type": "PRES_VIS", "trial_index": 70}, "uniqueid": "MTK2811:3L4D84MIL0ZMTASUTEGVKSYIUG0JHP", "dateTime": 1519403192908}, {"current_trial": 71, "trialdata": {"rt": -1, "trial_type": "single-stim", "word": "fruit", "stimulus": "<p id=\"stim\">FRUIT</p>", "conditions": [18, 1200, "v", 18000], "internal_node_id": "0.0-53.0", "trial": 1, "time_elapsed": 389027, "serialpos": 16, "key_press": -1, "wordID": 609, "type": "PRES_VIS", "trial_index": 71}, "uniqueid": "MTK2811:3L4D84MIL0ZMTASUTEGVKSYIUG0JHP", "dateTime": 1519403194930}, {"current_trial": 72, "trialdata": {"rt": -1, "trial_type": "single-stim", "word": "trout", "stimulus": "<p id=\"stim\">TROUT</p>", "conditions": [18, 1200, "v", 18000], "internal_node_id": "0.0-54.0", "trial": 1, "time_elapsed": 391250, "serialpos": 17, "key_press": -1, "wordID": 1510, "type": "PRES_VIS", "trial_index": 72}, "uniqueid": "MTK2811:3L4D84MIL0ZMTASUTEGVKSYIUG0JHP", "dateTime": 1519403197153}, {"current_trial": 73, "trialdata": {"rt": -1, "trial_type": "single-stim", "stimulus": "", "internal_node_id": "0.0-55.0-0.0", "time_elapsed": 393547, "key_press": -1, "type": "PRE_RECALL_DELAY", "trial_index": 73}, "uniqueid": "MTK2811:3L4D84MIL0ZMTASUTEGVKSYIUG0JHP", "dateTime": 1519403199450}, {"current_trial": 74, "trialdata": {"rt": -1000, "trial_type": "single-audio", "stimulus": "/static/audio/400Hz.wav", "internal_node_id": "0.0-56.0", "time_elapsed": 394049, "key_press": -1, "type": "PRE_RECALL_ALERT", "trial_index": 74}, "uniqueid": "MTK2811:3L4D84MIL0ZMTASUTEGVKSYIUG0JHP", "dateTime": 1519403199953}, {"current_trial": 75, "trialdata": {"rt": [6825, 8506, 9529, 10513, 13449, 20321, 25553], "recwords": ["whistle", "convict", "fruit", "trout", "daughter", "tuba", "eyelash"], "key_times": [4781, 4956, 5035, 5139, 5242, 5516, 5626, 5956, 6074, 6314, 6442, 6825, 7220, 7258, 7426, 7586, 7908, 8138, 8361, 8506, 8642, 8842, 8898, 9051, 9170, 9529, 9802, 9963, 10010, 10124, 10306, 10513, 10690, 11003, 11117, 11266, 11482, 11553, 12098, 12218, 12504, 12994, 13154, 13234, 13449, 19851, 19931, 20081, 20178, 20321, 24587, 24747, 24874, 24978, 25123, 25322, 25422, 25553], "trial_type": "free-recall", "conditions": [18, 1200, "v", 18000], "internal_node_id": "0.0-57.0-0.0", "key_presses": [87, 72, 73, 83, 84, 69, 76, 8, 8, 76, 69, 13, 67, 79, 78, 86, 73, 67, 84, 32, 70, 82, 85, 73, 84, 13, 84, 82, 79, 85, 84, 13, 68, 65, 85, 71, 69, 82, 8, 8, 72, 84, 69, 82, 13, 84, 85, 66, 65, 13, 69, 89, 69, 76, 65, 83, 72, 13], "trial": 1, "time_elapsed": 454055, "type": "FREE_RECALL", "trial_index": 75}, "uniqueid": "MTK2811:3L4D84MIL0ZMTASUTEGVKSYIUG0JHP", "dateTime": 1519403259962}, {"current_trial": 76, "trialdata": {"rt": 2584, "trial_type": "text", "internal_node_id": "0.0-58.0", "time_elapsed": 458647, "key_press": 32, "type": "INSTRUCTIONS", "trial_index": 76}, "uniqueid": "MTK2811:3L4D84MIL0ZMTASUTEGVKSYIUG0JHP", "dateTime": 1519403264550}, {"current_trial": 77, "trialdata": {"rt": [2210, 4866, 6531, 8372, 9803, 11802, 13282, 16675, 18978, 21562, 23634], "trial_type": "math-distractor", "key_times": [1716, 1892, 2210, 4492, 4635, 4866, 6140, 6316, 6531, 8204, 8372, 9508, 9643, 9803, 11603, 11802, 12955, 13115, 13282, 16291, 16475, 16675, 18676, 18788, 18978, 21196, 21371, 21562, 23203, 23411, 23634], "responses": ["19", "20", "18", "6", "11", "8", "10", "24", "15", "14", "19"], "num2": [6, 6, 2, 2, 1, 2, 6, 9, 6, 7, 7, 2], "num3": [4, 8, 9, 3, 2, 2, 1, 6, 7, 6, 3, 4], "conditions": [24, 800, "v", 24000], "internal_node_id": "0.0-59.0", "key_presses": [97, 105, 13, 98, 96, 13, 97, 104, 13, 102, 13, 97, 97, 13, 104, 13, 97, 96, 13, 98, 100, 13, 97, 101, 13, 97, 100, 13, 97, 105, 13], "trial": 2, "time_elapsed": 483652, "type": "DISTRACTOR", "trial_index": 77, "num1": [9, 6, 7, 1, 8, 4, 3, 9, 2, 1, 9, 9]}, "uniqueid": "MTK2811:3L4D84MIL0ZMTASUTEGVKSYIUG0JHP", "dateTime": 1519403289555}, {"current_trial": 78, "trialdata": {"rt": -1, "trial_type": "single-stim", "stimulus": "<p id=\"stim\">10</p>", "internal_node_id": "0.0-60.0-0.0", "time_elapsed": 486655, "key_press": -1, "trial_index": 78}, "uniqueid": "MTK2811:3L4D84MIL0ZMTASUTEGVKSYIUG0JHP", "dateTime": 1519403292558}, {"current_trial": 79, "trialdata": {"rt": -1, "trial_type": "single-stim", "stimulus": "<p id=\"stim\">9</p>", "internal_node_id": "0.0-60.0-1.0", "time_elapsed": 487658, "key_press": -1, "trial_index": 79}, "uniqueid": "MTK2811:3L4D84MIL0ZMTASUTEGVKSYIUG0JHP", "dateTime": 1519403293561}, {"current_trial": 80, "trialdata": {"rt": -1, "trial_type": "single-stim", "stimulus": "<p id=\"stim\">8</p>", "internal_node_id": "0.0-60.0-2.0", "time_elapsed": 488659, "key_press": -1, "trial_index": 80}, "uniqueid": "MTK2811:3L4D84MIL0ZMTASUTEGVKSYIUG0JHP", "dateTime": 1519403294563}, {"current_trial": 81, "trialdata": {"rt": -1, "trial_type": "single-stim", "stimulus": "<p id=\"stim\">7</p>", "internal_node_id": "0.0-60.0-3.0", "time_elapsed": 489662, "key_press": -1, "trial_index": 81}, "uniqueid": "MTK2811:3L4D84MIL0ZMTASUTEGVKSYIUG0JHP", "dateTime": 1519403295565}, {"current_trial": 82, "trialdata": {"rt": -1, "trial_type": "single-stim", "stimulus": "<p id=\"stim\">6</p>", "internal_node_id": "0.0-60.0-4.0", "time_elapsed": 490664, "key_press": -1, "trial_index": 82}, "uniqueid": "MTK2811:3L4D84MIL0ZMTASUTEGVKSYIUG0JHP", "dateTime": 1519403296567}, {"current_trial": 83, "trialdata": {"rt": -1, "trial_type": "single-stim", "stimulus": "<p id=\"stim\">5</p>", "internal_node_id": "0.0-60.0-5.0", "time_elapsed": 491665, "key_press": -1, "trial_index": 83}, "uniqueid": "MTK2811:3L4D84MIL0ZMTASUTEGVKSYIUG0JHP", "dateTime": 1519403297568}, {"current_trial": 84, "trialdata": {"rt": -1, "trial_type": "single-stim", "stimulus": "<p id=\"stim\">4</p>", "internal_node_id": "0.0-60.0-6.0", "time_elapsed": 492667, "key_press": -1, "trial_index": 84}, "uniqueid": "MTK2811:3L4D84MIL0ZMTASUTEGVKSYIUG0JHP", "dateTime": 1519403298570}, {"current_trial": 85, "trialdata": {"rt": -1, "trial_type": "single-stim", "stimulus": "<p id=\"stim\">3</p>", "internal_node_id": "0.0-60.0-7.0", "time_elapsed": 493670, "key_press": -1, "trial_index": 85}, "uniqueid": "MTK2811:3L4D84MIL0ZMTASUTEGVKSYIUG0JHP", "dateTime": 1519403299573}, {"current_trial": 86, "trialdata": {"rt": -1, "trial_type": "single-stim", "stimulus": "<p id=\"stim\">2</p>", "internal_node_id": "0.0-60.0-8.0", "time_elapsed": 494672, "key_press": -1, "trial_index": 86}, "uniqueid": "MTK2811:3L4D84MIL0ZMTASUTEGVKSYIUG0JHP", "dateTime": 1519403300575}, {"current_trial": 87, "trialdata": {"rt": -1, "trial_type": "single-stim", "stimulus": "<p id=\"stim\">1</p>", "internal_node_id": "0.0-60.0-9.0", "time_elapsed": 495674, "key_press": -1, "trial_index": 87}, "uniqueid": "MTK2811:3L4D84MIL0ZMTASUTEGVKSYIUG0JHP", "dateTime": 1519403301577}, {"current_trial": 88, "trialdata": {"rt": -1, "trial_type": "single-stim", "stimulus": "<p id=\"stim\">+</p>", "internal_node_id": "0.0-61.0-0.0", "time_elapsed": 497176, "key_press": -1, "type": "FIXATION", "trial_index": 88}, "uniqueid": "MTK2811:3L4D84MIL0ZMTASUTEGVKSYIUG0JHP", "dateTime": 1519403303080}, {"current_trial": 89, "trialdata": {"rt": -1, "trial_type": "single-stim", "word": "uncle", "stimulus": "<p id=\"stim\">UNCLE</p>", "conditions": [24, 800, "v", 24000], "internal_node_id": "0.0-62.0", "trial": 2, "time_elapsed": 497979, "serialpos": 0, "key_press": -1, "wordID": 1535, "type": "PRES_VIS", "trial_index": 89}, "uniqueid": "MTK2811:3L4D84MIL0ZMTASUTEGVKSYIUG0JHP", "dateTime": 1519403303883}, {"current_trial": 90, "trialdata": {"rt": -1, "trial_type": "single-stim", "word": "cousin", "stimulus": "<p id=\"stim\">COUSIN</p>", "conditions": [24, 800, "v", 24000], "internal_node_id": "0.0-63.0", "trial": 2, "time_elapsed": 499742, "serialpos": 1, "key_press": -1, "wordID": 391, "type": "PRES_VIS", "trial_index": 90}, "uniqueid": "MTK2811:3L4D84MIL0ZMTASUTEGVKSYIUG0JHP", "dateTime": 1519403305646}, {"current_trial": 91, "trialdata": {"rt": -1, "trial_type": "single-stim", "word": "asia", "stimulus": "<p id=\"stim\">ASIA</p>", "conditions": [24, 800, "v", 24000], "internal_node_id": "0.0-64.0", "trial": 2, "time_elapsed": 501529, "serialpos": 2, "key_press": -1, "wordID": 45, "type": "PRES_VIS", "trial_index": 91}, "uniqueid": "MTK2811:3L4D84MIL0ZMTASUTEGVKSYIUG0JHP", "dateTime": 1519403307432}, {"current_trial": 92, "trialdata": {"rt": -1, "trial_type": "single-stim", "word": "yacht", "stimulus": "<p id=\"stim\">YACHT</p>", "conditions": [24, 800, "v", 24000], "internal_node_id": "0.0-65.0", "trial": 2, "time_elapsed": 503433, "serialpos": 3, "key_press": -1, "wordID": 1628, "type": "PRES_VIS", "trial_index": 92}, "uniqueid": "MTK2811:3L4D84MIL0ZMTASUTEGVKSYIUG0JHP", "dateTime": 1519403309336}, {"current_trial": 93, "trialdata": {"rt": -1, "trial_type": "single-stim", "word": "banker", "stimulus": "<p id=\"stim\">BANKER</p>", "conditions": [24, 800, "v", 24000], "internal_node_id": "0.0-66.0", "trial": 2, "time_elapsed": 505180, "serialpos": 4, "key_press": -1, "wordID": 83, "type": "PRES_VIS", "trial_index": 93}, "uniqueid": "MTK2811:3L4D84MIL0ZMTASUTEGVKSYIUG0JHP", "dateTime": 1519403311083}, {"current_trial": 94, "trialdata": {"rt": -1, "trial_type": "single-stim", "word": "plate", "stimulus": "<p id=\"stim\">PLATE</p>", "conditions": [24, 800, "v", 24000], "internal_node_id": "0.0-67.0", "trial": 2, "time_elapsed": 506786, "serialpos": 5, "key_press": -1, "wordID": 1085, "type": "PRES_VIS", "trial_index": 94}, "uniqueid": "MTK2811:3L4D84MIL0ZMTASUTEGVKSYIUG0JHP", "dateTime": 1519403312689}, {"current_trial": 95, "trialdata": {"rt": -1, "trial_type": "single-stim", "word": "tutu", "stimulus": "<p id=\"stim\">TUTU</p>", "conditions": [24, 800, "v", 24000], "internal_node_id": "0.0-68.0", "trial": 2, "time_elapsed": 508456, "serialpos": 6, "key_press": -1, "wordID": 1523, "type": "PRES_VIS", "trial_index": 95}, "uniqueid": "MTK2811:3L4D84MIL0ZMTASUTEGVKSYIUG0JHP", "dateTime": 1519403314359}, {"current_trial": 96, "trialdata": {"rt": -1, "trial_type": "single-stim", "word": "switch", "stimulus": "<p id=\"stim\">SWITCH</p>", "conditions": [24, 800, "v", 24000], "internal_node_id": "0.0-69.0", "trial": 2, "time_elapsed": 510280, "serialpos": 7, "key_press": -1, "wordID": 1421, "type": "PRES_VIS", "trial_index": 96}, "uniqueid": "MTK2811:3L4D84MIL0ZMTASUTEGVKSYIUG0JHP", "dateTime": 1519403316183}, {"current_trial": 97, "trialdata": {"rt": -1, "trial_type": "single-stim", "word": "radish", "stimulus": "<p id=\"stim\">RADISH</p>", "conditions": [24, 800, "v", 24000], "internal_node_id": "0.0-70.0", "trial": 2, "time_elapsed": 512251, "serialpos": 8, "key_press": -1, "wordID": 1157, "type": "PRES_VIS", "trial_index": 97}, "uniqueid": "MTK2811:3L4D84MIL0ZMTASUTEGVKSYIUG0JHP", "dateTime": 1519403318154}, {"current_trial": 98, "trialdata": {"rt": -1, "trial_type": "single-stim", "word": "novel", "stimulus": "<p id=\"stim\">NOVEL</p>", "conditions": [24, 800, "v", 24000], "internal_node_id": "0.0-71.0", "trial": 2, "time_elapsed": 513997, "serialpos": 9, "key_press": -1, "wordID": 959, "type": "PRES_VIS", "trial_index": 98}, "uniqueid": "MTK2811:3L4D84MIL0ZMTASUTEGVKSYIUG0JHP", "dateTime": 1519403319901}, {"current_trial": 99, "trialdata": {"rt": -1, "trial_type": "single-stim", "word": "world", "stimulus": "<p id=\"stim\">WORLD</p>", "conditions": [24, 800, "v", 24000], "internal_node_id": "0.0-72.0", "trial": 2, "time_elapsed": 515980, "serialpos": 10, "key_press": -1, "wordID": 1621, "type": "PRES_VIS", "trial_index": 99}, "uniqueid": "MTK2811:3L4D84MIL0ZMTASUTEGVKSYIUG0JHP", "dateTime": 1519403321883}, {"current_trial": 100, "trialdata": {"rt": -1, "trial_type": "single-stim", "word": "costume", "stimulus": "<p id=\"stim\">COSTUME</p>", "conditions": [24, 800, "v", 24000], "internal_node_id": "0.0-73.0", "trial": 2, "time_elapsed": 517617, "serialpos": 11, "key_press": -1, "wordID": 382, "type": "PRES_VIS", "trial_index": 100}, "uniqueid": "MTK2811:3L4D84MIL0ZMTASUTEGVKSYIUG0JHP", "dateTime": 1519403323521}, {"current_trial": 101, "trialdata": {"rt": -1, "trial_type": "single-stim", "word": "basement", "stimulus": "<p id=\"stim\">BASEMENT</p>", "conditions": [24, 800, "v", 24000], "internal_node_id": "0.0-74.0", "trial": 2, "time_elapsed": 519402, "serialpos": 12, "key_press": -1, "wordID": 93, "type": "PRES_VIS", "trial_index": 101}, "uniqueid": "MTK2811:3L4D84MIL0ZMTASUTEGVKSYIUG0JHP", "dateTime": 1519403325305}, {"current_trial": 102, "trialdata": {"rt": -1, "trial_type": "single-stim", "word": "kitchen", "stimulus": "<p id=\"stim\">KITCHEN</p>", "conditions": [24, 800, "v", 24000], "internal_node_id": "0.0-75.0", "trial": 2, "time_elapsed": 521089, "serialpos": 13, "key_press": -1, "wordID": 777, "type": "PRES_VIS", "trial_index": 102}, "uniqueid": "MTK2811:3L4D84MIL0ZMTASUTEGVKSYIUG0JHP", "dateTime": 1519403326993}, {"current_trial": 103, "trialdata": {"rt": -1, "trial_type": "single-stim", "word": "dress", "stimulus": "<p id=\"stim\">DRESS</p>", "conditions": [24, 800, "v", 24000], "internal_node_id": "0.0-76.0", "trial": 2, "time_elapsed": 523062, "serialpos": 14, "key_press": -1, "wordID": 494, "type": "PRES_VIS", "trial_index": 103}, "uniqueid": "MTK2811:3L4D84MIL0ZMTASUTEGVKSYIUG0JHP", "dateTime": 1519403328965}, {"current_trial": 104, "trialdata": {"rt": -1, "trial_type": "single-stim", "word": "army", "stimulus": "<p id=\"stim\">ARMY</p>", "conditions": [24, 800, "v", 24000], "internal_node_id": "0.0-77.0", "trial": 2, "time_elapsed": 524827, "serialpos": 15, "key_press": -1, "wordID": 38, "type": "PRES_VIS", "trial_index": 104}, "uniqueid": "MTK2811:3L4D84MIL0ZMTASUTEGVKSYIUG0JHP", "dateTime": 1519403330731}, {"current_trial": 105, "trialdata": {"rt": -1, "trial_type": "single-stim", "word": "rebel", "stimulus": "<p id=\"stim\">REBEL</p>", "conditions": [24, 800, "v", 24000], "internal_node_id": "0.0-78.0", "trial": 2, "time_elapsed": 526504, "serialpos": 16, "key_press": -1, "wordID": 1171, "type": "PRES_VIS", "trial_index": 105}, "uniqueid": "MTK2811:3L4D84MIL0ZMTASUTEGVKSYIUG0JHP", "dateTime": 1519403332407}, {"current_trial": 106, "trialdata": {"rt": -1, "trial_type": "single-stim", "word": "lace", "stimulus": "<p id=\"stim\">LACE</p>", "conditions": [24, 800, "v", 24000], "internal_node_id": "0.0-79.0", "trial": 2, "time_elapsed": 528268, "serialpos": 17, "key_press": -1, "wordID": 791, "type": "PRES_VIS", "trial_index": 106}, "uniqueid": "MTK2811:3L4D84MIL0ZMTASUTEGVKSYIUG0JHP", "dateTime": 1519403334171}, {"current_trial": 107, "trialdata": {"rt": -1, "trial_type": "single-stim", "word": "coffee", "stimulus": "<p id=\"stim\">COFFEE</p>", "conditions": [24, 800, "v", 24000], "internal_node_id": "0.0-80.0", "trial": 2, "time_elapsed": 530004, "serialpos": 18, "key_press": -1, "wordID": 340, "type": "PRES_VIS", "trial_index": 107}, "uniqueid": "MTK2811:3L4D84MIL0ZMTASUTEGVKSYIUG0JHP", "dateTime": 1519403335908}, {"current_trial": 108, "trialdata": {"rt": -1, "trial_type": "single-stim", "word": "garden", "stimulus": "<p id=\"stim\">GARDEN</p>", "conditions": [24, 800, "v", 24000], "internal_node_id": "0.0-81.0", "trial": 2, "time_elapsed": 531631, "serialpos": 19, "key_press": -1, "wordID": 622, "type": "PRES_VIS", "trial_index": 108}, "uniqueid": "MTK2811:3L4D84MIL0ZMTASUTEGVKSYIUG0JHP", "dateTime": 1519403337534}, {"current_trial": 109, "trialdata": {"rt": -1, "trial_type": "single-stim", "word": "globe", "stimulus": "<p id=\"stim\">GLOBE</p>", "conditions": [24, 800, "v", 24000], "internal_node_id": "0.0-82.0", "trial": 2, "time_elapsed": 533282, "serialpos": 20, "key_press": -1, "wordID": 640, "type": "PRES_VIS", "trial_index": 109}, "uniqueid": "MTK2811:3L4D84MIL0ZMTASUTEGVKSYIUG0JHP", "dateTime": 1519403339186}, {"current_trial": 110, "trialdata": {"rt": -1, "trial_type": "single-stim", "word": "razor", "stimulus": "<p id=\"stim\">RAZOR</p>", "conditions": [24, 800, "v", 24000], "internal_node_id": "0.0-83.0", "trial": 2, "time_elapsed": 534938, "serialpos": 21, "key_press": -1, "wordID": 1170, "type": "PRES_VIS", "trial_index": 110}, "uniqueid": "MTK2811:3L4D84MIL0ZMTASUTEGVKSYIUG0JHP", "dateTime": 1519403340841}, {"current_trial": 111, "trialdata": {"rt": -1, "trial_type": "single-stim", "word": "leopard", "stimulus": "<p id=\"stim\">LEOPARD</p>", "conditions": [24, 800, "v", 24000], "internal_node_id": "0.0-84.0", "trial": 2, "time_elapsed": 536838, "serialpos": 22, "key_press": -1, "wordID": 811, "type": "PRES_VIS", "trial_index": 111}, "uniqueid": "MTK2811:3L4D84MIL0ZMTASUTEGVKSYIUG0JHP", "dateTime": 1519403342741}, {"current_trial": 112, "trialdata": {"rt": -1, "trial_type": "single-stim", "word": "snail", "stimulus": "<p id=\"stim\">SNAIL</p>", "conditions": [24, 800, "v", 24000], "internal_node_id": "0.0-85.0", "trial": 2, "time_elapsed": 538676, "serialpos": 23, "key_press": -1, "wordID": 1331, "type": "PRES_VIS", "trial_index": 112}, "uniqueid": "MTK2811:3L4D84MIL0ZMTASUTEGVKSYIUG0JHP", "dateTime": 1519403344579}, {"current_trial": 113, "trialdata": {"rt": -1, "trial_type": "single-stim", "stimulus": "", "internal_node_id": "0.0-86.0-0.0", "time_elapsed": 540926, "key_press": -1, "type": "PRE_RECALL_DELAY", "trial_index": 113}, "uniqueid": "MTK2811:3L4D84MIL0ZMTASUTEGVKSYIUG0JHP", "dateTime": 1519403346829}, {"current_trial": 114, "trialdata": {"rt": -1000, "trial_type": "single-audio", "stimulus": "/static/audio/400Hz.wav", "internal_node_id": "0.0-87.0", "time_elapsed": 541428, "key_press": -1, "type": "PRE_RECALL_ALERT", "trial_index": 114}, "uniqueid": "MTK2811:3L4D84MIL0ZMTASUTEGVKSYIUG0JHP", "dateTime": 1519403347331}, {"current_trial": 115, "trialdata": {"rt": [5925, 6949, 8757, 10621, 11957, 12909, 20789], "recwords": ["uncle", "snail", "razor", "basement", "kitchen", "world", "tutu"], "key_times": [2295, 5008, 5174, 5317, 5414, 5605, 5925, 6254, 6335, 6470, 6599, 6766, 6949, 7142, 7278, 7560, 7710, 8054, 8189, 8318, 8414, 8595, 8757, 9110, 9293, 9477, 9606, 9750, 10230, 10350, 10470, 10621, 10831, 10982, 11102, 11333, 11422, 11558, 11694, 11957, 12182, 12238, 12399, 12494, 12709, 12909, 14327, 14799, 20167, 20279, 20415, 20494, 20789], "trial_type": "free-recall", "conditions": [24, 800, "v", 24000], "internal_node_id": "0.0-88.0-0.0", "key_presses": [9, 85, 78, 67, 76, 69, 13, 83, 78, 65, 73, 76, 13, 82, 65, 88, 79, 8, 8, 90, 79, 82, 13, 66, 65, 83, 69, 77, 69, 78, 84, 13, 75, 73, 84, 67, 72, 69, 78, 13, 87, 79, 82, 76, 68, 13, 83, 8, 84, 85, 84, 85, 13], "trial": 2, "time_elapsed": 601433, "type": "FREE_RECALL", "trial_index": 115}, "uniqueid": "MTK2811:3L4D84MIL0ZMTASUTEGVKSYIUG0JHP", "dateTime": 1519403407342}, {"current_trial": 116, "trialdata": {"rt": 1100, "trial_type": "text", "internal_node_id": "0.0-89.0", "time_elapsed": 604540, "key_press": 13, "type": "INSTRUCTIONS", "trial_index": 116}, "uniqueid": "MTK2811:3L4D84MIL0ZMTASUTEGVKSYIUG0JHP", "dateTime": 1519403410443}, {"current_trial": 117, "trialdata": {"rt": [2182, 3998, 6430, 8342, 10246], "trial_type": "math-distractor", "key_times": [1806, 1975, 2182, 3671, 3831, 3998, 5839, 6008, 6430, 7919, 8175, 8342, 9927, 10055, 10246], "responses": ["17", "13", "13", "19", "15"], "num2": [8, 5, 1, 6, 4, 3], "num3": [8, 7, 9, 7, 3, 1], "conditions": [12, 1600, "v", 12000], "internal_node_id": "0.0-90.0", "key_presses": [97, 103, 13, 97, 99, 13, 97, 99, 13, 97, 105, 13, 97, 101, 13], "trial": 3, "time_elapsed": 618544, "type": "DISTRACTOR", "trial_index": 117, "num1": [1, 1, 3, 6, 8, 9]}, "uniqueid": "MTK2811:3L4D84MIL0ZMTASUTEGVKSYIUG0JHP", "dateTime": 1519403424447}, {"current_trial": 118, "trialdata": {"rt": -1, "trial_type": "single-stim", "stimulus": "<p id=\"stim\">10</p>", "internal_node_id": "0.0-91.0-0.0", "time_elapsed": 621547, "key_press": -1, "trial_index": 118}, "uniqueid": "MTK2811:3L4D84MIL0ZMTASUTEGVKSYIUG0JHP", "dateTime": 1519403427450}, {"current_trial": 119, "trialdata": {"rt": -1, "trial_type": "single-stim", "stimulus": "<p id=\"stim\">9</p>", "internal_node_id": "0.0-91.0-1.0", "time_elapsed": 622549, "key_press": -1, "trial_index": 119}, "uniqueid": "MTK2811:3L4D84MIL0ZMTASUTEGVKSYIUG0JHP", "dateTime": 1519403428452}, {"current_trial": 120, "trialdata": {"rt": -1, "trial_type": "single-stim", "stimulus": "<p id=\"stim\">8</p>", "internal_node_id": "0.0-91.0-2.0", "time_elapsed": 623550, "key_press": -1, "trial_index": 120}, "uniqueid": "MTK2811:3L4D84MIL0ZMTASUTEGVKSYIUG0JHP", "dateTime": 1519403429454}, {"current_trial": 121, "trialdata": {"rt": -1, "trial_type": "single-stim", "stimulus": "<p id=\"stim\">7</p>", "internal_node_id": "0.0-91.0-3.0", "time_elapsed": 624552, "key_press": -1, "trial_index": 121}, "uniqueid": "MTK2811:3L4D84MIL0ZMTASUTEGVKSYIUG0JHP", "dateTime": 1519403430455}, {"current_trial": 122, "trialdata": {"rt": -1, "trial_type": "single-stim", "stimulus": "<p id=\"stim\">6</p>", "internal_node_id": "0.0-91.0-4.0", "time_elapsed": 625554, "key_press": -1, "trial_index": 122}, "uniqueid": "MTK2811:3L4D84MIL0ZMTASUTEGVKSYIUG0JHP", "dateTime": 1519403431457}, {"current_trial": 123, "trialdata": {"rt": -1, "trial_type": "single-stim", "stimulus": "<p id=\"stim\">5</p>", "internal_node_id": "0.0-91.0-5.0", "time_elapsed": 626555, "key_press": -1, "trial_index": 123}, "uniqueid": "MTK2811:3L4D84MIL0ZMTASUTEGVKSYIUG0JHP", "dateTime": 1519403432458}, {"current_trial": 124, "trialdata": {"rt": -1, "trial_type": "single-stim", "stimulus": "<p id=\"stim\">4</p>", "internal_node_id": "0.0-91.0-6.0", "time_elapsed": 627557, "key_press": -1, "trial_index": 124}, "uniqueid": "MTK2811:3L4D84MIL0ZMTASUTEGVKSYIUG0JHP", "dateTime": 1519403433460}, {"current_trial": 125, "trialdata": {"rt": -1, "trial_type": "single-stim", "stimulus": "<p id=\"stim\">3</p>", "internal_node_id": "0.0-91.0-7.0", "time_elapsed": 628558, "key_press": -1, "trial_index": 125}, "uniqueid": "MTK2811:3L4D84MIL0ZMTASUTEGVKSYIUG0JHP", "dateTime": 1519403434461}, {"current_trial": 126, "trialdata": {"rt": -1, "trial_type": "single-stim", "stimulus": "<p id=\"stim\">2</p>", "internal_node_id": "0.0-91.0-8.0", "time_elapsed": 629560, "key_press": -1, "trial_index": 126}, "uniqueid": "MTK2811:3L4D84MIL0ZMTASUTEGVKSYIUG0JHP", "dateTime": 1519403435464}, {"current_trial": 127, "trialdata": {"rt": -1, "trial_type": "single-stim", "stimulus": "<p id=\"stim\">1</p>", "internal_node_id": "0.0-91.0-9.0", "time_elapsed": 630562, "key_press": -1, "trial_index": 127}, "uniqueid": "MTK2811:3L4D84MIL0ZMTASUTEGVKSYIUG0JHP", "dateTime": 1519403436465}, {"current_trial": 128, "trialdata": {"rt": -1, "trial_type": "single-stim", "stimulus": "<p id=\"stim\">+</p>", "internal_node_id": "0.0-92.0-0.0", "time_elapsed": 632064, "key_press": -1, "type": "FIXATION", "trial_index": 128}, "uniqueid": "MTK2811:3L4D84MIL0ZMTASUTEGVKSYIUG0JHP", "dateTime": 1519403437968}, {"current_trial": 129, "trialdata": {"rt": -1, "trial_type": "single-stim", "word": "brandy", "stimulus": "<p id=\"stim\">BRANDY</p>", "conditions": [12, 1600, "v", 12000], "internal_node_id": "0.0-93.0", "trial": 3, "time_elapsed": 633668, "serialpos": 0, "key_press": -1, "wordID": 168, "type": "PRES_VIS", "trial_index": 129}, "uniqueid": "MTK2811:3L4D84MIL0ZMTASUTEGVKSYIUG0JHP", "dateTime": 1519403439571}, {"current_trial": 130, "trialdata": {"rt": -1, "trial_type": "single-stim", "word": "chemist", "stimulus": "<p id=\"stim\">CHEMIST</p>", "conditions": [12, 1600, "v", 12000], "internal_node_id": "0.0-94.0", "trial": 3, "time_elapsed": 636178, "serialpos": 1, "key_press": -1, "wordID": 291, "type": "PRES_VIS", "trial_index": 130}, "uniqueid": "MTK2811:3L4D84MIL0ZMTASUTEGVKSYIUG0JHP", "dateTime": 1519403442082}, {"current_trial": 131, "trialdata": {"rt": -1, "trial_type": "single-stim", "word": "dragon", "stimulus": "<p id=\"stim\">DRAGON</p>", "conditions": [12, 1600, "v", 12000], "internal_node_id": "0.0-95.0", "trial": 3, "time_elapsed": 638937, "serialpos": 2, "key_press": -1, "wordID": 491, "type": "PRES_VIS", "trial_index": 131}, "uniqueid": "MTK2811:3L4D84MIL0ZMTASUTEGVKSYIUG0JHP", "dateTime": 1519403444840}, {"current_trial": 132, "trialdata": {"rt": -1, "trial_type": "single-stim", "word": "bug", "stimulus": "<p id=\"stim\">BUG</p>", "conditions": [12, 1600, "v", 12000], "internal_node_id": "0.0-96.0", "trial": 3, "time_elapsed": 641515, "serialpos": 3, "key_press": -1, "wordID": 186, "type": "PRES_VIS", "trial_index": 132}, "uniqueid": "MTK2811:3L4D84MIL0ZMTASUTEGVKSYIUG0JHP", "dateTime": 1519403447418}, {"current_trial": 133, "trialdata": {"rt": -1, "trial_type": "single-stim", "word": "virus", "stimulus": "<p id=\"stim\">VIRUS</p>", "conditions": [12, 1600, "v", 12000], "internal_node_id": "0.0-97.0", "trial": 3, "time_elapsed": 644239, "serialpos": 4, "key_press": -1, "wordID": 1571, "type": "PRES_VIS", "trial_index": 133}, "uniqueid": "MTK2811:3L4D84MIL0ZMTASUTEGVKSYIUG0JHP", "dateTime": 1519403450142}, {"current_trial": 134, "trialdata": {"rt": -1, "trial_type": "single-stim", "word": "pimple", "stimulus": "<p id=\"stim\">PIMPLE</p>", "conditions": [12, 1600, "v", 12000], "internal_node_id": "0.0-98.0", "trial": 3, "time_elapsed": 646812, "serialpos": 5, "key_press": -1, "wordID": 1070, "type": "PRES_VIS", "trial_index": 134}, "uniqueid": "MTK2811:3L4D84MIL0ZMTASUTEGVKSYIUG0JHP", "dateTime": 1519403452715}, {"current_trial": 135, "trialdata": {"rt": -1, "trial_type": "single-stim", "word": "crutch", "stimulus": "<p id=\"stim\">CRUTCH</p>", "conditions": [12, 1600, "v", 12000], "internal_node_id": "0.0-99.0", "trial": 3, "time_elapsed": 649477, "serialpos": 6, "key_press": -1, "wordID": 416, "type": "PRES_VIS", "trial_index": 135}, "uniqueid": "MTK2811:3L4D84MIL0ZMTASUTEGVKSYIUG0JHP", "dateTime": 1519403455380}, {"current_trial": 136, "trialdata": {"rt": -1, "trial_type": "single-stim", "word": "marine", "stimulus": "<p id=\"stim\">MARINE</p>", "conditions": [12, 1600, "v", 12000], "internal_node_id": "0.0-100.0", "trial": 3, "time_elapsed": 652152, "serialpos": 7, "key_press": -1, "wordID": 868, "type": "PRES_VIS", "trial_index": 136}, "uniqueid": "MTK2811:3L4D84MIL0ZMTASUTEGVKSYIUG0JHP", "dateTime": 1519403458055}, {"current_trial": 137, "trialdata": {"rt": -1, "trial_type": "single-stim", "word": "worker", "stimulus": "<p id=\"stim\">WORKER</p>", "conditions": [12, 1600, "v", 12000], "internal_node_id": "0.0-101.0", "trial": 3, "time_elapsed": 654725, "serialpos": 8, "key_press": -1, "wordID": 1620, "type": "PRES_VIS", "trial_index": 137}, "uniqueid": "MTK2811:3L4D84MIL0ZMTASUTEGVKSYIUG0JHP", "dateTime": 1519403460628}, {"current_trial": 138, "trialdata": {"rt": -1, "trial_type": "single-stim", "word": "police", "stimulus": "<p id=\"stim\">POLICE</p>", "conditions": [12, 1600, "v", 12000], "internal_node_id": "0.0-102.0", "trial": 3, "time_elapsed": 657518, "serialpos": 9, "key_press": -1, "wordID": 1097, "type": "PRES_VIS", "trial_index": 138}, "uniqueid": "MTK2811:3L4D84MIL0ZMTASUTEGVKSYIUG0JHP", "dateTime": 1519403463421}, {"current_trial": 139, "trialdata": {"rt": -1, "trial_type": "single-stim", "word": "badge", "stimulus": "<p id=\"stim\">BADGE</p>", "conditions": [12, 1600, "v", 12000], "internal_node_id": "0.0-103.0", "trial": 3, "time_elapsed": 660068, "serialpos": 10, "key_press": -1, "wordID": 67, "type": "PRES_VIS", "trial_index": 139}, "uniqueid": "MTK2811:3L4D84MIL0ZMTASUTEGVKSYIUG0JHP", "dateTime": 1519403465971}, {"current_trial": 140, "trialdata": {"rt": -1, "trial_type": "single-stim", "word": "freckle", "stimulus": "<p id=\"stim\">FRECKLE</p>", "conditions": [12, 1600, "v", 12000], "internal_node_id": "0.0-104.0", "trial": 3, "time_elapsed": 662740, "serialpos": 11, "key_press": -1, "wordID": 601, "type": "PRES_VIS", "trial_index": 140}, "uniqueid": "MTK2811:3L4D84MIL0ZMTASUTEGVKSYIUG0JHP", "dateTime": 1519403468643}, {"current_trial": 141, "trialdata": {"rt": -1, "trial_type": "single-stim", "stimulus": "", "internal_node_id": "0.0-105.0-0.0", "time_elapsed": 665136, "key_press": -1, "type": "PRE_RECALL_DELAY", "trial_index": 141}, "uniqueid": "MTK2811:3L4D84MIL0ZMTASUTEGVKSYIUG0JHP", "dateTime": 1519403471039}, {"current_trial": 142, "trialdata": {"rt": -1000, "trial_type": "single-audio", "stimulus": "/static/audio/400Hz.wav", "internal_node_id": "0.0-106.0", "time_elapsed": 665638, "key_press": -1, "type": "PRE_RECALL_ALERT", "trial_index": 142}, "uniqueid": "MTK2811:3L4D84MIL0ZMTASUTEGVKSYIUG0JHP", "dateTime": 1519403471542}, {"current_trial": 143, "trialdata": {"rt": [2667, 4899, 6595, 8059, 9339, 22908], "recwords": ["brandy", "chemist", "marine", "worker", "badge", "trout"], "key_times": [1445, 1757, 1876, 2044, 2211, 2403, 2667, 2971, 3075, 3251, 3339, 3531, 3955, 4259, 4379, 4502, 4899, 5420, 5684, 5846, 5989, 6148, 6332, 6595, 6980, 7061, 7235, 7372, 7588, 7659, 8059, 8307, 8379, 8604, 8868, 9036, 9339, 22244, 22459, 22532, 22596, 22772, 22908, 30867, 31572], "trial_type": "free-recall", "conditions": [12, 1600, "v", 12000], "internal_node_id": "0.0-107.0-0.0", "key_presses": [66, 82, 65, 78, 68, 89, 13, 67, 72, 69, 77, 73, 67, 8, 83, 84, 13, 77, 65, 82, 73, 78, 69, 13, 87, 79, 82, 75, 69, 82, 13, 66, 65, 68, 71, 69, 13, 84, 82, 79, 85, 84, 13, 77, 8], "trial": 3, "time_elapsed": 725644, "type": "FREE_RECALL", "trial_index": 143}, "uniqueid": "MTK2811:3L4D84MIL0ZMTASUTEGVKSYIUG0JHP", "dateTime": 1519403531553}, {"current_trial": 144, "trialdata": {"rt": 5073, "trial_type": "text", "internal_node_id": "0.0-108.0", "time_elapsed": 732724, "key_press": 13, "type": "INSTRUCTIONS", "trial_index": 144}, "uniqueid": "MTK2811:3L4D84MIL0ZMTASUTEGVKSYIUG0JHP", "dateTime": 1519403538627}, {"current_trial": 145, "trialdata": {"rt": [3357, 6725, 9293, 11285, 12853, 14365, 16093, 18605, 21454, 23181], "trial_type": "math-distractor", "key_times": [2855, 3167, 3357, 6214, 6422, 6725, 8869, 9062, 9293, 10526, 10694, 11285, 12534, 12637, 12853, 14078, 14182, 14365, 15711, 15885, 16093, 18142, 18342, 18605, 21246, 21454, 22894, 23022, 23181], "responses": ["12", "23", "17", "19", "12", "15", "19", "13", "9", "12"], "num2": [2, 6, 3, 8, 7, 6, 8, 4, 5, 1, 5], "num3": [3, 8, 8, 9, 3, 5, 4, 1, 3, 2, 7], "conditions": [12, 1600, "v", 24000], "internal_node_id": "0.0-109.0", "key_presses": [97, 98, 13, 98, 99, 13, 97, 103, 13, 97, 105, 13, 97, 98, 13, 97, 101, 13, 97, 105, 13, 97, 99, 13, 105, 13, 97, 98, 13], "trial": 4, "time_elapsed": 758729, "type": "DISTRACTOR", "trial_index": 145, "num1": [7, 9, 6, 2, 2, 4, 7, 8, 1, 9, 7]}, "uniqueid": "MTK2811:3L4D84MIL0ZMTASUTEGVKSYIUG0JHP", "dateTime": 1519403564633}, {"current_trial": 146, "trialdata": {"rt": -1, "trial_type": "single-stim", "stimulus": "<p id=\"stim\">10</p>", "internal_node_id": "0.0-110.0-0.0", "time_elapsed": 761733, "key_press": -1, "trial_index": 146}, "uniqueid": "MTK2811:3L4D84MIL0ZMTASUTEGVKSYIUG0JHP", "dateTime": 1519403567636}, {"current_trial": 147, "trialdata": {"rt": -1, "trial_type": "single-stim", "stimulus": "<p id=\"stim\">9</p>", "internal_node_id": "0.0-110.0-1.0", "time_elapsed": 762736, "key_press": -1, "trial_index": 147}, "uniqueid": "MTK2811:3L4D84MIL0ZMTASUTEGVKSYIUG0JHP", "dateTime": 1519403568639}, {"current_trial": 148, "trialdata": {"rt": -1, "trial_type": "single-stim", "stimulus": "<p id=\"stim\">8</p>", "internal_node_id": "0.0-110.0-2.0", "time_elapsed": 763738, "key_press": -1, "trial_index": 148}, "uniqueid": "MTK2811:3L4D84MIL0ZMTASUTEGVKSYIUG0JHP", "dateTime": 1519403569642}, {"current_trial": 149, "trialdata": {"rt": -1, "trial_type": "single-stim", "stimulus": "<p id=\"stim\">7</p>", "internal_node_id": "0.0-110.0-3.0", "time_elapsed": 764740, "key_press": -1, "trial_index": 149}, "uniqueid": "MTK2811:3L4D84MIL0ZMTASUTEGVKSYIUG0JHP", "dateTime": 1519403570643}, {"current_trial": 150, "trialdata": {"rt": -1, "trial_type": "single-stim", "stimulus": "<p id=\"stim\">6</p>", "internal_node_id": "0.0-110.0-4.0", "time_elapsed": 765742, "key_press": -1, "trial_index": 150}, "uniqueid": "MTK2811:3L4D84MIL0ZMTASUTEGVKSYIUG0JHP", "dateTime": 1519403571645}, {"current_trial": 151, "trialdata": {"rt": -1, "trial_type": "single-stim", "stimulus": "<p id=\"stim\">5</p>", "internal_node_id": "0.0-110.0-5.0", "time_elapsed": 766744, "key_press": -1, "trial_index": 151}, "uniqueid": "MTK2811:3L4D84MIL0ZMTASUTEGVKSYIUG0JHP", "dateTime": 1519403572647}, {"current_trial": 152, "trialdata": {"rt": -1, "trial_type": "single-stim", "stimulus": "<p id=\"stim\">4</p>", "internal_node_id": "0.0-110.0-6.0", "time_elapsed": 767745, "key_press": -1, "trial_index": 152}, "uniqueid": "MTK2811:3L4D84MIL0ZMTASUTEGVKSYIUG0JHP", "dateTime": 1519403573648}, {"current_trial": 153, "trialdata": {"rt": -1, "trial_type": "single-stim", "stimulus": "<p id=\"stim\">3</p>", "internal_node_id": "0.0-110.0-7.0", "time_elapsed": 768747, "key_press": -1, "trial_index": 153}, "uniqueid": "MTK2811:3L4D84MIL0ZMTASUTEGVKSYIUG0JHP", "dateTime": 1519403574650}, {"current_trial": 154, "trialdata": {"rt": -1, "trial_type": "single-stim", "stimulus": "<p id=\"stim\">2</p>", "internal_node_id": "0.0-110.0-8.0", "time_elapsed": 769750, "key_press": -1, "trial_index": 154}, "uniqueid": "MTK2811:3L4D84MIL0ZMTASUTEGVKSYIUG0JHP", "dateTime": 1519403575653}, {"current_trial": 155, "trialdata": {"rt": -1, "trial_type": "single-stim", "stimulus": "<p id=\"stim\">1</p>", "internal_node_id": "0.0-110.0-9.0", "time_elapsed": 770751, "key_press": -1, "trial_index": 155}, "uniqueid": "MTK2811:3L4D84MIL0ZMTASUTEGVKSYIUG0JHP", "dateTime": 1519403576655}, {"current_trial": 156, "trialdata": {"rt": -1, "trial_type": "single-stim", "stimulus": "<p id=\"stim\">+</p>", "internal_node_id": "0.0-111.0-0.0", "time_elapsed": 772254, "key_press": -1, "type": "FIXATION", "trial_index": 156}, "uniqueid": "MTK2811:3L4D84MIL0ZMTASUTEGVKSYIUG0JHP", "dateTime": 1519403578157}, {"current_trial": 157, "trialdata": {"rt": -1, "trial_type": "single-stim", "word": "bouquet", "stimulus": "<p id=\"stim\">BOUQUET</p>", "conditions": [12, 1600, "v", 24000], "internal_node_id": "0.0-112.0", "trial": 4, "time_elapsed": 773855, "serialpos": 0, "key_press": -1, "wordID": 156, "type": "PRES_VIS", "trial_index": 157}, "uniqueid": "MTK2811:3L4D84MIL0ZMTASUTEGVKSYIUG0JHP", "dateTime": 1519403579758}, {"current_trial": 158, "trialdata": {"rt": -1, "trial_type": "single-stim", "word": "grape", "stimulus": "<p id=\"stim\">GRAPE</p>", "conditions": [12, 1600, "v", 24000], "internal_node_id": "0.0-113.0", "trial": 4, "time_elapsed": 776475, "serialpos": 1, "key_press": -1, "wordID": 653, "type": "PRES_VIS", "trial_index": 158}, "uniqueid": "MTK2811:3L4D84MIL0ZMTASUTEGVKSYIUG0JHP", "dateTime": 1519403582379}, {"current_trial": 159, "trialdata": {"rt": -1, "trial_type": "single-stim", "word": "barley", "stimulus": "<p id=\"stim\">BARLEY</p>", "conditions": [12, 1600, "v", 24000], "internal_node_id": "0.0-114.0", "trial": 4, "time_elapsed": 778940, "serialpos": 2, "key_press": -1, "wordID": 87, "type": "PRES_VIS", "trial_index": 159}, "uniqueid": "MTK2811:3L4D84MIL0ZMTASUTEGVKSYIUG0JHP", "dateTime": 1519403584843}, {"current_trial": 160, "trialdata": {"rt": -1, "trial_type": "single-stim", "word": "lion", "stimulus": "<p id=\"stim\">LION</p>", "conditions": [12, 1600, "v", 24000], "internal_node_id": "0.0-115.0", "trial": 4, "time_elapsed": 781697, "serialpos": 3, "key_press": -1, "wordID": 826, "type": "PRES_VIS", "trial_index": 160}, "uniqueid": "MTK2811:3L4D84MIL0ZMTASUTEGVKSYIUG0JHP", "dateTime": 1519403587600}, {"current_trial": 161, "trialdata": {"rt": -1, "trial_type": "single-stim", "word": "flower", "stimulus": "<p id=\"stim\">FLOWER</p>", "conditions": [12, 1600, "v", 24000], "internal_node_id": "0.0-116.0", "trial": 4, "time_elapsed": 784453, "serialpos": 4, "key_press": -1, "wordID": 583, "type": "PRES_VIS", "trial_index": 161}, "uniqueid": "MTK2811:3L4D84MIL0ZMTASUTEGVKSYIUG0JHP", "dateTime": 1519403590356}, {"current_trial": 162, "trialdata": {"rt": -1, "trial_type": "single-stim", "word": "beef", "stimulus": "<p id=\"stim\">BEEF</p>", "conditions": [12, 1600, "v", 24000], "internal_node_id": "0.0-117.0", "trial": 4, "time_elapsed": 787210, "serialpos": 5, "key_press": -1, "wordID": 112, "type": "PRES_VIS", "trial_index": 162}, "uniqueid": "MTK2811:3L4D84MIL0ZMTASUTEGVKSYIUG0JHP", "dateTime": 1519403593113}, {"current_trial": 163, "trialdata": {"rt": -1, "trial_type": "single-stim", "word": "balloon", "stimulus": "<p id=\"stim\">BALLOON</p>", "conditions": [12, 1600, "v", 24000], "internal_node_id": "0.0-118.0", "trial": 4, "time_elapsed": 789881, "serialpos": 6, "key_press": -1, "wordID": 74, "type": "PRES_VIS", "trial_index": 163}, "uniqueid": "MTK2811:3L4D84MIL0ZMTASUTEGVKSYIUG0JHP", "dateTime": 1519403595784}, {"current_trial": 164, "trialdata": {"rt": -1, "trial_type": "single-stim", "word": "kleenex", "stimulus": "<p id=\"stim\">KLEENEX</p>", "conditions": [12, 1600, "v", 24000], "internal_node_id": "0.0-119.0", "trial": 4, "time_elapsed": 792560, "serialpos": 7, "key_press": -1, "wordID": 781, "type": "PRES_VIS", "trial_index": 164}, "uniqueid": "MTK2811:3L4D84MIL0ZMTASUTEGVKSYIUG0JHP", "dateTime": 1519403598464}, {"current_trial": 165, "trialdata": {"rt": -1, "trial_type": "single-stim", "word": "cattle", "stimulus": "<p id=\"stim\">CATTLE</p>", "conditions": [12, 1600, "v", 24000], "internal_node_id": "0.0-120.0", "trial": 4, "time_elapsed": 795153, "serialpos": 8, "key_press": -1, "wordID": 260, "type": "PRES_VIS", "trial_index": 165}, "uniqueid": "MTK2811:3L4D84MIL0ZMTASUTEGVKSYIUG0JHP", "dateTime": 1519403601056}, {"current_trial": 166, "trialdata": {"rt": -1, "trial_type": "single-stim", "word": "scotch", "stimulus": "<p id=\"stim\">SCOTCH</p>", "conditions": [12, 1600, "v", 24000], "internal_node_id": "0.0-121.0", "trial": 4, "time_elapsed": 797868, "serialpos": 9, "key_press": -1, "wordID": 1250, "type": "PRES_VIS", "trial_index": 166}, "uniqueid": "MTK2811:3L4D84MIL0ZMTASUTEGVKSYIUG0JHP", "dateTime": 1519403603771}, {"current_trial": 167, "trialdata": {"rt": -1, "trial_type": "single-stim", "word": "lover", "stimulus": "<p id=\"stim\">LOVER</p>", "conditions": [12, 1600, "v", 24000], "internal_node_id": "0.0-122.0", "trial": 4, "time_elapsed": 800601, "serialpos": 10, "key_press": -1, "wordID": 845, "type": "PRES_VIS", "trial_index": 167}, "uniqueid": "MTK2811:3L4D84MIL0ZMTASUTEGVKSYIUG0JHP", "dateTime": 1519403606504}, {"current_trial": 168, "trialdata": {"rt": -1, "trial_type": "single-stim", "word": "star", "stimulus": "<p id=\"stim\">STAR</p>", "conditions": [12, 1600, "v", 24000], "internal_node_id": "0.0-123.0", "trial": 4, "time_elapsed": 803190, "serialpos": 11, "key_press": -1, "wordID": 1372, "type": "PRES_VIS", "trial_index": 168}, "uniqueid": "MTK2811:3L4D84MIL0ZMTASUTEGVKSYIUG0JHP", "dateTime": 1519403609093}, {"current_trial": 169, "trialdata": {"rt": -1, "trial_type": "single-stim", "stimulus": "", "internal_node_id": "0.0-124.0-0.0", "time_elapsed": 805404, "key_press": -1, "type": "PRE_RECALL_DELAY", "trial_index": 169}, "uniqueid": "MTK2811:3L4D84MIL0ZMTASUTEGVKSYIUG0JHP", "dateTime": 1519403611308}, {"current_trial": 170, "trialdata": {"rt": -1000, "trial_type": "single-audio", "stimulus": "/static/audio/400Hz.wav", "internal_node_id": "0.0-125.0", "time_elapsed": 805906, "key_press": -1, "type": "PRE_RECALL_ALERT", "trial_index": 170}, "uniqueid": "MTK2811:3L4D84MIL0ZMTASUTEGVKSYIUG0JHP", "dateTime": 1519403611809}, {"current_trial": 171, "trialdata": {"rt": [3536, 4736, 6208, 8424, 10017, 11424, 14928], "recwords": ["bouquet", "barley", "balloon", "scotch", "lover", "star", "kleene"], "key_times": [1930, 2065, 2200, 2576, 2720, 2856, 3056, 3536, 3777, 3993, 4111, 4209, 4385, 4522, 4736, 4896, 4988, 5121, 5272, 5713, 5865, 6017, 6208, 6497, 6737, 6833, 7056, 7257, 7857, 8121, 8217, 8424, 8617, 8793, 9377, 9608, 9681, 10017, 10513, 10664, 10913, 11010, 11424, 13312, 13680, 13905, 14097, 14169, 14291, 14392, 14569, 14928], "trial_type": "free-recall", "conditions": [12, 1600, "v", 24000], "internal_node_id": "0.0-126.0-0.0", "key_presses": [66, 79, 85, 81, 85, 69, 84, 13, 66, 65, 82, 76, 69, 89, 13, 66, 65, 76, 76, 79, 79, 78, 13, 83, 67, 79, 84, 89, 8, 67, 72, 13, 76, 79, 86, 69, 82, 32, 83, 84, 65, 82, 13, 76, 8, 75, 76, 69, 69, 78, 69, 13], "trial": 4, "time_elapsed": 865911, "type": "FREE_RECALL", "trial_index": 171}, "uniqueid": "MTK2811:3L4D84MIL0ZMTASUTEGVKSYIUG0JHP", "dateTime": 1519403671820}, {"current_trial": 172, "trialdata": {"rt": 4086, "trial_type": "text", "internal_node_id": "0.0-127.0", "time_elapsed": 872004, "key_press": 13, "type": "INSTRUCTIONS", "trial_index": 172}, "uniqueid": "MTK2811:3L4D84MIL0ZMTASUTEGVKSYIUG0JHP", "dateTime": 1519403677907}, {"current_trial": 173, "trialdata": {"rt": [2285, 3725, 5029, 6669, 8732, 10133, 11949, 13709, 15172, 17397, 19197], "trial_type": "math-distractor", "key_times": [1949, 2070, 2285, 3438, 3613, 3725, 4861, 5029, 6365, 6510, 6669, 8414, 8574, 8732, 9981, 10133, 11574, 11949, 13465, 13573, 13709, 14805, 14966, 15172, 17077, 17238, 17397, 18894, 19046, 19197], "responses": ["11", "10", "9", "19", "17", "5", "9", "11", "19", "19", "15"], "num2": [6, 2, 4, 8, 6, 1, 5, 1, 9, 5, 7, 6], "num3": [3, 1, 4, 3, 6, 2, 2, 8, 1, 9, 4, 6], "conditions": [12, 800, "v", 24000], "internal_node_id": "0.0-128.0", "key_presses": [97, 97, 13, 97, 96, 13, 105, 13, 97, 105, 13, 97, 103, 13, 101, 13, 105, 13, 97, 97, 13, 97, 105, 13, 97, 105, 13, 97, 101, 13], "trial": 5, "time_elapsed": 898009, "type": "DISTRACTOR", "trial_index": 173, "num1": [2, 7, 1, 8, 5, 2, 2, 2, 9, 5, 4, 9]}, "uniqueid": "MTK2811:3L4D84MIL0ZMTASUTEGVKSYIUG0JHP", "dateTime": 1519403703912}, {"current_trial": 174, "trialdata": {"rt": -1, "trial_type": "single-stim", "stimulus": "<p id=\"stim\">10</p>", "internal_node_id": "0.0-129.0-0.0", "time_elapsed": 901011, "key_press": -1, "trial_index": 174}, "uniqueid": "MTK2811:3L4D84MIL0ZMTASUTEGVKSYIUG0JHP", "dateTime": 1519403706915}, {"current_trial": 175, "trialdata": {"rt": -1, "trial_type": "single-stim", "stimulus": "<p id=\"stim\">9</p>", "internal_node_id": "0.0-129.0-1.0", "time_elapsed": 902013, "key_press": -1, "trial_index": 175}, "uniqueid": "MTK2811:3L4D84MIL0ZMTASUTEGVKSYIUG0JHP", "dateTime": 1519403707916}, {"current_trial": 176, "trialdata": {"rt": -1, "trial_type": "single-stim", "stimulus": "<p id=\"stim\">8</p>", "internal_node_id": "0.0-129.0-2.0", "time_elapsed": 903014, "key_press": -1, "trial_index": 176}, "uniqueid": "MTK2811:3L4D84MIL0ZMTASUTEGVKSYIUG0JHP", "dateTime": 1519403708918}, {"current_trial": 177, "trialdata": {"rt": -1, "trial_type": "single-stim", "stimulus": "<p id=\"stim\">7</p>", "internal_node_id": "0.0-129.0-3.0", "time_elapsed": 904016, "key_press": -1, "trial_index": 177}, "uniqueid": "MTK2811:3L4D84MIL0ZMTASUTEGVKSYIUG0JHP", "dateTime": 1519403709919}, {"current_trial": 178, "trialdata": {"rt": -1, "trial_type": "single-stim", "stimulus": "<p id=\"stim\">6</p>", "internal_node_id": "0.0-129.0-4.0", "time_elapsed": 905018, "key_press": -1, "trial_index": 178}, "uniqueid": "MTK2811:3L4D84MIL0ZMTASUTEGVKSYIUG0JHP", "dateTime": 1519403710921}, {"current_trial": 179, "trialdata": {"rt": -1, "trial_type": "single-stim", "stimulus": "<p id=\"stim\">5</p>", "internal_node_id": "0.0-129.0-5.0", "time_elapsed": 906019, "key_press": -1, "trial_index": 179}, "uniqueid": "MTK2811:3L4D84MIL0ZMTASUTEGVKSYIUG0JHP", "dateTime": 1519403711922}, {"current_trial": 180, "trialdata": {"rt": -1, "trial_type": "single-stim", "stimulus": "<p id=\"stim\">4</p>", "internal_node_id": "0.0-129.0-6.0", "time_elapsed": 907022, "key_press": -1, "trial_index": 180}, "uniqueid": "MTK2811:3L4D84MIL0ZMTASUTEGVKSYIUG0JHP", "dateTime": 1519403712925}, {"current_trial": 181, "trialdata": {"rt": -1, "trial_type": "single-stim", "stimulus": "<p id=\"stim\">3</p>", "internal_node_id": "0.0-129.0-7.0", "time_elapsed": 908023, "key_press": -1, "trial_index": 181}, "uniqueid": "MTK2811:3L4D84MIL0ZMTASUTEGVKSYIUG0JHP", "dateTime": 1519403713927}, {"current_trial": 182, "trialdata": {"rt": -1, "trial_type": "single-stim", "stimulus": "<p id=\"stim\">2</p>", "internal_node_id": "0.0-129.0-8.0", "time_elapsed": 909027, "key_press": -1, "trial_index": 182}, "uniqueid": "MTK2811:3L4D84MIL0ZMTASUTEGVKSYIUG0JHP", "dateTime": 1519403714930}, {"current_trial": 183, "trialdata": {"rt": -1, "trial_type": "single-stim", "stimulus": "<p id=\"stim\">1</p>", "internal_node_id": "0.0-129.0-9.0", "time_elapsed": 910029, "key_press": -1, "trial_index": 183}, "uniqueid": "MTK2811:3L4D84MIL0ZMTASUTEGVKSYIUG0JHP", "dateTime": 1519403715932}, {"current_trial": 184, "trialdata": {"rt": -1, "trial_type": "single-stim", "stimulus": "<p id=\"stim\">+</p>", "internal_node_id": "0.0-130.0-0.0", "time_elapsed": 911530, "key_press": -1, "type": "FIXATION", "trial_index": 184}, "uniqueid": "MTK2811:3L4D84MIL0ZMTASUTEGVKSYIUG0JHP", "dateTime": 1519403717433}, {"current_trial": 185, "trialdata": {"rt": -1, "trial_type": "single-stim", "word": "bubble", "stimulus": "<p id=\"stim\">BUBBLE</p>", "conditions": [12, 800, "v", 24000], "internal_node_id": "0.0-131.0", "trial": 5, "time_elapsed": 912331, "serialpos": 0, "key_press": -1, "wordID": 182, "type": "PRES_VIS", "trial_index": 185}, "uniqueid": "MTK2811:3L4D84MIL0ZMTASUTEGVKSYIUG0JHP", "dateTime": 1519403718235}, {"current_trial": 186, "trialdata": {"rt": -1, "trial_type": "single-stim", "word": "silk", "stimulus": "<p id=\"stim\">SILK</p>", "conditions": [12, 800, "v", 24000], "internal_node_id": "0.0-132.0", "trial": 5, "time_elapsed": 914302, "serialpos": 1, "key_press": -1, "wordID": 1306, "type": "PRES_VIS", "trial_index": 186}, "uniqueid": "MTK2811:3L4D84MIL0ZMTASUTEGVKSYIUG0JHP", "dateTime": 1519403720206}, {"current_trial": 187, "trialdata": {"rt": -1, "trial_type": "single-stim", "word": "hound", "stimulus": "<p id=\"stim\">HOUND</p>", "conditions": [12, 800, "v", 24000], "internal_node_id": "0.0-133.0", "trial": 5, "time_elapsed": 916122, "serialpos": 2, "key_press": -1, "wordID": 723, "type": "PRES_VIS", "trial_index": 187}, "uniqueid": "MTK2811:3L4D84MIL0ZMTASUTEGVKSYIUG0JHP", "dateTime": 1519403722025}, {"current_trial": 188, "trialdata": {"rt": -1, "trial_type": "single-stim", "word": "quail", "stimulus": "<p id=\"stim\">QUAIL</p>", "conditions": [12, 800, "v", 24000], "internal_node_id": "0.0-134.0", "trial": 5, "time_elapsed": 918021, "serialpos": 3, "key_press": -1, "wordID": 1146, "type": "PRES_VIS", "trial_index": 188}, "uniqueid": "MTK2811:3L4D84MIL0ZMTASUTEGVKSYIUG0JHP", "dateTime": 1519403723924}, {"current_trial": 189, "trialdata": {"rt": -1, "trial_type": "single-stim", "word": "crab", "stimulus": "<p id=\"stim\">CRAB</p>", "conditions": [12, 800, "v", 24000], "internal_node_id": "0.0-135.0", "trial": 5, "time_elapsed": 919663, "serialpos": 4, "key_press": -1, "wordID": 396, "type": "PRES_VIS", "trial_index": 189}, "uniqueid": "MTK2811:3L4D84MIL0ZMTASUTEGVKSYIUG0JHP", "dateTime": 1519403725566}, {"current_trial": 190, "trialdata": {"rt": -1, "trial_type": "single-stim", "word": "oyster", "stimulus": "<p id=\"stim\">OYSTER</p>", "conditions": [12, 800, "v", 24000], "internal_node_id": "0.0-136.0", "trial": 5, "time_elapsed": 921601, "serialpos": 5, "key_press": -1, "wordID": 994, "type": "PRES_VIS", "trial_index": 190}, "uniqueid": "MTK2811:3L4D84MIL0ZMTASUTEGVKSYIUG0JHP", "dateTime": 1519403727504}, {"current_trial": 191, "trialdata": {"rt": -1, "trial_type": "single-stim", "word": "knife", "stimulus": "<p id=\"stim\">KNIFE</p>", "conditions": [12, 800, "v", 24000], "internal_node_id": "0.0-137.0", "trial": 5, "time_elapsed": 923240, "serialpos": 6, "key_press": -1, "wordID": 784, "type": "PRES_VIS", "trial_index": 191}, "uniqueid": "MTK2811:3L4D84MIL0ZMTASUTEGVKSYIUG0JHP", "dateTime": 1519403729143}, {"current_trial": 192, "trialdata": {"rt": -1, "trial_type": "single-stim", "word": "crown", "stimulus": "<p id=\"stim\">CROWN</p>", "conditions": [12, 800, "v", 24000], "internal_node_id": "0.0-138.0", "trial": 5, "time_elapsed": 925079, "serialpos": 7, "key_press": -1, "wordID": 414, "type": "PRES_VIS", "trial_index": 192}, "uniqueid": "MTK2811:3L4D84MIL0ZMTASUTEGVKSYIUG0JHP", "dateTime": 1519403730984}, {"current_trial": 193, "trialdata": {"rt": -1, "trial_type": "single-stim", "word": "tortoise", "stimulus": "<p id=\"stim\">TORTOISE</p>", "conditions": [12, 800, "v", 24000], "internal_node_id": "0.0-139.0", "trial": 5, "time_elapsed": 926951, "serialpos": 8, "key_press": -1, "wordID": 1485, "type": "PRES_VIS", "trial_index": 193}, "uniqueid": "MTK2811:3L4D84MIL0ZMTASUTEGVKSYIUG0JHP", "dateTime": 1519403732854}, {"current_trial": 194, "trialdata": {"rt": -1, "trial_type": "single-stim", "word": "pistol", "stimulus": "<p id=\"stim\">PISTOL</p>", "conditions": [12, 800, "v", 24000], "internal_node_id": "0.0-140.0", "trial": 5, "time_elapsed": 928601, "serialpos": 9, "key_press": -1, "wordID": 1074, "type": "PRES_VIS", "trial_index": 194}, "uniqueid": "MTK2811:3L4D84MIL0ZMTASUTEGVKSYIUG0JHP", "dateTime": 1519403734505}, {"current_trial": 195, "trialdata": {"rt": -1, "trial_type": "single-stim", "word": "notebook", "stimulus": "<p id=\"stim\">NOTEBOOK</p>", "conditions": [12, 800, "v", 24000], "internal_node_id": "0.0-141.0", "trial": 5, "time_elapsed": 930545, "serialpos": 10, "key_press": -1, "wordID": 958, "type": "PRES_VIS", "trial_index": 195}, "uniqueid": "MTK2811:3L4D84MIL0ZMTASUTEGVKSYIUG0JHP", "dateTime": 1519403736448}, {"current_trial": 196, "trialdata": {"rt": -1, "trial_type": "single-stim", "word": "box", "stimulus": "<p id=\"stim\">BOX</p>", "conditions": [12, 800, "v", 24000], "internal_node_id": "0.0-142.0", "trial": 5, "time_elapsed": 932354, "serialpos": 11, "key_press": -1, "wordID": 158, "type": "PRES_VIS", "trial_index": 196}, "uniqueid": "MTK2811:3L4D84MIL0ZMTASUTEGVKSYIUG0JHP", "dateTime": 1519403738257}, {"current_trial": 197, "trialdata": {"rt": -1, "trial_type": "single-stim", "stimulus": "", "internal_node_id": "0.0-143.0-0.0", "time_elapsed": 934678, "key_press": -1, "type": "PRE_RECALL_DELAY", "trial_index": 197}, "uniqueid": "MTK2811:3L4D84MIL0ZMTASUTEGVKSYIUG0JHP", "dateTime": 1519403740581}, {"current_trial": 198, "trialdata": {"rt": -1000, "trial_type": "single-audio", "stimulus": "/static/audio/400Hz.wav", "internal_node_id": "0.0-144.0", "time_elapsed": 935180, "key_press": -1, "type": "PRE_RECALL_ALERT", "trial_index": 198}, "uniqueid": "MTK2811:3L4D84MIL0ZMTASUTEGVKSYIUG0JHP", "dateTime": 1519403741083}, {"current_trial": 199, "trialdata": {"rt": [4733, 6405, 7941, 9414, 11229], "recwords": ["bubble", "silk", "hound", "quail", "notebook"], "key_times": [3727, 3877, 4078, 4205, 4311, 4471, 4733, 4934, 5031, 5214, 5526, 6405, 6630, 6774, 6861, 7334, 7447, 7941, 8246, 8336, 8670, 9045, 9213, 9414, 9589, 9702, 9830, 9982, 10206, 10311, 10486, 10926, 11229], "trial_type": "free-recall", "conditions": [12, 800, "v", 24000], "internal_node_id": "0.0-145.0-0.0", "key_presses": [66, 85, 66, 66, 76, 69, 13, 83, 73, 76, 75, 13, 72, 79, 85, 78, 68, 13, 81, 85, 65, 73, 76, 13, 78, 79, 84, 69, 66, 79, 79, 75, 13], "trial": 5, "time_elapsed": 995183, "type": "FREE_RECALL", "trial_index": 199}, "uniqueid": "MTK2811:3L4D84MIL0ZMTASUTEGVKSYIUG0JHP", "dateTime": 1519403801093}, {"current_trial": 200, "trialdata": {"rt": 1701, "trial_type": "text", "internal_node_id": "0.0-146.0", "time_elapsed": 998892, "key_press": 13, "type": "INSTRUCTIONS", "trial_index": 200}, "uniqueid": "MTK2811:3L4D84MIL0ZMTASUTEGVKSYIUG0JHP", "dateTime": 1519403804795}, {"current_trial": 201, "trialdata": {"rt": [3029, 4436, 6004, 7293, 8933, 10460, 13365, 14692, 16124, 17973, 19357, 23828], "trial_type": "math-distractor", "key_times": [2718, 2758, 3029, 4182, 4214, 4436, 5646, 5758, 6004, 6997, 7094, 7293, 8606, 8742, 8933, 10175, 10294, 10460, 12357, 13213, 13365, 14397, 14573, 14692, 15950, 16124, 17357, 17735, 17973, 19046, 19198, 19357, 23486, 23613, 23828], "responses": ["15", "16", "13", "13", "18", "14", "13", "10", "7", "12", "14", "22"], "num2": [5, 7, 7, 4, 5, 2, 2, 3, 1, 4, 1, 6, 1], "num3": [8, 7, 3, 3, 5, 6, 5, 6, 5, 3, 5, 9, 3], "conditions": [24, 1600, "v", 24000], "internal_node_id": "0.0-147.0", "key_presses": [97, 101, 13, 97, 102, 13, 97, 99, 13, 97, 99, 13, 97, 104, 13, 97, 100, 13, 97, 99, 13, 97, 96, 13, 103, 13, 97, 98, 13, 97, 100, 13, 98, 98, 13], "trial": 6, "time_elapsed": 1024896, "type": "DISTRACTOR", "trial_index": 201, "num1": [2, 2, 3, 6, 8, 6, 6, 1, 1, 5, 8, 7, 4]}, "uniqueid": "MTK2811:3L4D84MIL0ZMTASUTEGVKSYIUG0JHP", "dateTime": 1519403830799}, {"current_trial": 202, "trialdata": {"rt": -1, "trial_type": "single-stim", "stimulus": "<p id=\"stim\">10</p>", "internal_node_id": "0.0-148.0-0.0", "time_elapsed": 1027900, "key_press": -1, "trial_index": 202}, "uniqueid": "MTK2811:3L4D84MIL0ZMTASUTEGVKSYIUG0JHP", "dateTime": 1519403833803}, {"current_trial": 203, "trialdata": {"rt": -1, "trial_type": "single-stim", "stimulus": "<p id=\"stim\">9</p>", "internal_node_id": "0.0-148.0-1.0", "time_elapsed": 1028902, "key_press": -1, "trial_index": 203}, "uniqueid": "MTK2811:3L4D84MIL0ZMTASUTEGVKSYIUG0JHP", "dateTime": 1519403834805}, {"current_trial": 204, "trialdata": {"rt": -1, "trial_type": "single-stim", "stimulus": "<p id=\"stim\">8</p>", "internal_node_id": "0.0-148.0-2.0", "time_elapsed": 1029903, "key_press": -1, "trial_index": 204}, "uniqueid": "MTK2811:3L4D84MIL0ZMTASUTEGVKSYIUG0JHP", "dateTime": 1519403835806}, {"current_trial": 205, "trialdata": {"rt": -1, "trial_type": "single-stim", "stimulus": "<p id=\"stim\">7</p>", "internal_node_id": "0.0-148.0-3.0", "time_elapsed": 1030904, "key_press": -1, "trial_index": 205}, "uniqueid": "MTK2811:3L4D84MIL0ZMTASUTEGVKSYIUG0JHP", "dateTime": 1519403836807}, {"current_trial": 206, "trialdata": {"rt": -1, "trial_type": "single-stim", "stimulus": "<p id=\"stim\">6</p>", "internal_node_id": "0.0-148.0-4.0", "time_elapsed": 1031906, "key_press": -1, "trial_index": 206}, "uniqueid": "MTK2811:3L4D84MIL0ZMTASUTEGVKSYIUG0JHP", "dateTime": 1519403837809}, {"current_trial": 207, "trialdata": {"rt": -1, "trial_type": "single-stim", "stimulus": "<p id=\"stim\">5</p>", "internal_node_id": "0.0-148.0-5.0", "time_elapsed": 1032909, "key_press": -1, "trial_index": 207}, "uniqueid": "MTK2811:3L4D84MIL0ZMTASUTEGVKSYIUG0JHP", "dateTime": 1519403838812}, {"current_trial": 208, "trialdata": {"rt": -1, "trial_type": "single-stim", "stimulus": "<p id=\"stim\">4</p>", "internal_node_id": "0.0-148.0-6.0", "time_elapsed": 1033910, "key_press": -1, "trial_index": 208}, "uniqueid": "MTK2811:3L4D84MIL0ZMTASUTEGVKSYIUG0JHP", "dateTime": 1519403839814}, {"current_trial": 209, "trialdata": {"rt": -1, "trial_type": "single-stim", "stimulus": "<p id=\"stim\">3</p>", "internal_node_id": "0.0-148.0-7.0", "time_elapsed": 1034912, "key_press": -1, "trial_index": 209}, "uniqueid": "MTK2811:3L4D84MIL0ZMTASUTEGVKSYIUG0JHP", "dateTime": 1519403840815}, {"current_trial": 210, "trialdata": {"rt": -1, "trial_type": "single-stim", "stimulus": "<p id=\"stim\">2</p>", "internal_node_id": "0.0-148.0-8.0", "time_elapsed": 1035915, "key_press": -1, "trial_index": 210}, "uniqueid": "MTK2811:3L4D84MIL0ZMTASUTEGVKSYIUG0JHP", "dateTime": 1519403841818}, {"current_trial": 211, "trialdata": {"rt": -1, "trial_type": "single-stim", "stimulus": "<p id=\"stim\">1</p>", "internal_node_id": "0.0-148.0-9.0", "time_elapsed": 1036917, "key_press": -1, "trial_index": 211}, "uniqueid": "MTK2811:3L4D84MIL0ZMTASUTEGVKSYIUG0JHP", "dateTime": 1519403842820}, {"current_trial": 212, "trialdata": {"rt": -1, "trial_type": "single-stim", "stimulus": "<p id=\"stim\">+</p>", "internal_node_id": "0.0-149.0-0.0", "time_elapsed": 1038419, "key_press": -1, "type": "FIXATION", "trial_index": 212}, "uniqueid": "MTK2811:3L4D84MIL0ZMTASUTEGVKSYIUG0JHP", "dateTime": 1519403844322}, {"current_trial": 213, "trialdata": {"rt": -1, "trial_type": "single-stim", "word": "knapsack", "stimulus": "<p id=\"stim\">KNAPSACK</p>", "conditions": [24, 1600, "v", 24000], "internal_node_id": "0.0-150.0", "trial": 6, "time_elapsed": 1040022, "serialpos": 0, "key_press": -1, "wordID": 782, "type": "PRES_VIS", "trial_index": 213}, "uniqueid": "MTK2811:3L4D84MIL0ZMTASUTEGVKSYIUG0JHP", "dateTime": 1519403845925}, {"current_trial": 214, "trialdata": {"rt": -1, "trial_type": "single-stim", "word": "ankle", "stimulus": "<p id=\"stim\">ANKLE</p>", "conditions": [24, 1600, "v", 24000], "internal_node_id": "0.0-151.0", "trial": 6, "time_elapsed": 1042721, "serialpos": 1, "key_press": -1, "wordID": 23, "type": "PRES_VIS", "trial_index": 214}, "uniqueid": "MTK2811:3L4D84MIL0ZMTASUTEGVKSYIUG0JHP", "dateTime": 1519403848624}, {"current_trial": 215, "trialdata": {"rt": -1, "trial_type": "single-stim", "word": "suitcase", "stimulus": "<p id=\"stim\">SUITCASE</p>", "conditions": [24, 1600, "v", 24000], "internal_node_id": "0.0-152.0", "trial": 6, "time_elapsed": 1045363, "serialpos": 2, "key_press": -1, "wordID": 1402, "type": "PRES_VIS", "trial_index": 215}, "uniqueid": "MTK2811:3L4D84MIL0ZMTASUTEGVKSYIUG0JHP", "dateTime": 1519403851266}, {"current_trial": 216, "trialdata": {"rt": -1, "trial_type": "single-stim", "word": "luggage", "stimulus": "<p id=\"stim\">LUGGAGE</p>", "conditions": [24, 1600, "v", 24000], "internal_node_id": "0.0-153.0", "trial": 6, "time_elapsed": 1047931, "serialpos": 3, "key_press": -1, "wordID": 846, "type": "PRES_VIS", "trial_index": 216}, "uniqueid": "MTK2811:3L4D84MIL0ZMTASUTEGVKSYIUG0JHP", "dateTime": 1519403853834}, {"current_trial": 217, "trialdata": {"rt": -1, "trial_type": "single-stim", "word": "pigment", "stimulus": "<p id=\"stim\">PIGMENT</p>", "conditions": [24, 1600, "v", 24000], "internal_node_id": "0.0-154.0", "trial": 6, "time_elapsed": 1050399, "serialpos": 4, "key_press": -1, "wordID": 1065, "type": "PRES_VIS", "trial_index": 217}, "uniqueid": "MTK2811:3L4D84MIL0ZMTASUTEGVKSYIUG0JHP", "dateTime": 1519403856302}, {"current_trial": 218, "trialdata": {"rt": -1, "trial_type": "single-stim", "word": "briefcase", "stimulus": "<p id=\"stim\">BRIEFCASE</p>", "conditions": [24, 1600, "v", 24000], "internal_node_id": "0.0-155.0", "trial": 6, "time_elapsed": 1053005, "serialpos": 5, "key_press": -1, "wordID": 174, "type": "PRES_VIS", "trial_index": 218}, "uniqueid": "MTK2811:3L4D84MIL0ZMTASUTEGVKSYIUG0JHP", "dateTime": 1519403858909}, {"current_trial": 219, "trialdata": {"rt": -1, "trial_type": "single-stim", "word": "perfume", "stimulus": "<p id=\"stim\">PERFUME</p>", "conditions": [24, 1600, "v", 24000], "internal_node_id": "0.0-156.0", "trial": 6, "time_elapsed": 1055464, "serialpos": 6, "key_press": -1, "wordID": 1048, "type": "PRES_VIS", "trial_index": 219}, "uniqueid": "MTK2811:3L4D84MIL0ZMTASUTEGVKSYIUG0JHP", "dateTime": 1519403861367}, {"current_trial": 220, "trialdata": {"rt": -1, "trial_type": "single-stim", "word": "stamp", "stimulus": "<p id=\"stim\">STAMP</p>", "conditions": [24, 1600, "v", 24000], "internal_node_id": "0.0-157.0", "trial": 6, "time_elapsed": 1058059, "serialpos": 7, "key_press": -1, "wordID": 1369, "type": "PRES_VIS", "trial_index": 220}, "uniqueid": "MTK2811:3L4D84MIL0ZMTASUTEGVKSYIUG0JHP", "dateTime": 1519403863962}, {"current_trial": 221, "trialdata": {"rt": -1, "trial_type": "single-stim", "word": "portrait", "stimulus": "<p id=\"stim\">PORTRAIT</p>", "conditions": [24, 1600, "v", 24000], "internal_node_id": "0.0-158.0", "trial": 6, "time_elapsed": 1060740, "serialpos": 8, "key_press": -1, "wordID": 1110, "type": "PRES_VIS", "trial_index": 221}, "uniqueid": "MTK2811:3L4D84MIL0ZMTASUTEGVKSYIUG0JHP", "dateTime": 1519403866643}, {"current_trial": 222, "trialdata": {"rt": -1, "trial_type": "single-stim", "word": "critic", "stimulus": "<p id=\"stim\">CRITIC</p>", "conditions": [24, 1600, "v", 24000], "internal_node_id": "0.0-159.0", "trial": 6, "time_elapsed": 1063397, "serialpos": 9, "key_press": -1, "wordID": 409, "type": "PRES_VIS", "trial_index": 222}, "uniqueid": "MTK2811:3L4D84MIL0ZMTASUTEGVKSYIUG0JHP", "dateTime": 1519403869300}, {"current_trial": 223, "trialdata": {"rt": -1, "trial_type": "single-stim", "word": "shelf", "stimulus": "<p id=\"stim\">SHELF</p>", "conditions": [24, 1600, "v", 24000], "internal_node_id": "0.0-160.0", "trial": 6, "time_elapsed": 1066120, "serialpos": 10, "key_press": -1, "wordID": 1279, "type": "PRES_VIS", "trial_index": 223}, "uniqueid": "MTK2811:3L4D84MIL0ZMTASUTEGVKSYIUG0JHP", "dateTime": 1519403872023}, {"current_trial": 224, "trialdata": {"rt": -1, "trial_type": "single-stim", "word": "cashew", "stimulus": "<p id=\"stim\">CASHEW</p>", "conditions": [24, 1600, "v", 24000], "internal_node_id": "0.0-161.0", "trial": 6, "time_elapsed": 1068853, "serialpos": 11, "key_press": -1, "wordID": 252, "type": "PRES_VIS", "trial_index": 224}, "uniqueid": "MTK2811:3L4D84MIL0ZMTASUTEGVKSYIUG0JHP", "dateTime": 1519403874756}, {"current_trial": 225, "trialdata": {"rt": -1, "trial_type": "single-stim", "word": "donkey", "stimulus": "<p id=\"stim\">DONKEY</p>", "conditions": [24, 1600, "v", 24000], "internal_node_id": "0.0-162.0", "trial": 6, "time_elapsed": 1071640, "serialpos": 12, "key_press": -1, "wordID": 483, "type": "PRES_VIS", "trial_index": 225}, "uniqueid": "MTK2811:3L4D84MIL0ZMTASUTEGVKSYIUG0JHP", "dateTime": 1519403877543}, {"current_trial": 226, "trialdata": {"rt": -1, "trial_type": "single-stim", "word": "student", "stimulus": "<p id=\"stim\">STUDENT</p>", "conditions": [24, 1600, "v", 24000], "internal_node_id": "0.0-163.0", "trial": 6, "time_elapsed": 1074249, "serialpos": 13, "key_press": -1, "wordID": 1394, "type": "PRES_VIS", "trial_index": 226}, "uniqueid": "MTK2811:3L4D84MIL0ZMTASUTEGVKSYIUG0JHP", "dateTime": 1519403880152}, {"current_trial": 227, "trialdata": {"rt": -1, "trial_type": "single-stim", "word": "stomach", "stimulus": "<p id=\"stim\">STOMACH</p>", "conditions": [24, 1600, "v", 24000], "internal_node_id": "0.0-164.0", "trial": 6, "time_elapsed": 1077035, "serialpos": 14, "key_press": -1, "wordID": 1383, "type": "PRES_VIS", "trial_index": 227}, "uniqueid": "MTK2811:3L4D84MIL0ZMTASUTEGVKSYIUG0JHP", "dateTime": 1519403882938}, {"current_trial": 228, "trialdata": {"rt": -1, "trial_type": "single-stim", "word": "sidewalk", "stimulus": "<p id=\"stim\">SIDEWALK</p>", "conditions": [24, 1600, "v", 24000], "internal_node_id": "0.0-165.0", "trial": 6, "time_elapsed": 1079511, "serialpos": 15, "key_press": -1, "wordID": 1302, "type": "PRES_VIS", "trial_index": 228}, "uniqueid": "MTK2811:3L4D84MIL0ZMTASUTEGVKSYIUG0JHP", "dateTime": 1519403885414}, {"current_trial": 229, "trialdata": {"rt": -1, "trial_type": "single-stim", "word": "plaza", "stimulus": "<p id=\"stim\">PLAZA</p>", "conditions": [24, 1600, "v", 24000], "internal_node_id": "0.0-166.0", "trial": 6, "time_elapsed": 1082233, "serialpos": 16, "key_press": -1, "wordID": 1087, "type": "PRES_VIS", "trial_index": 229}, "uniqueid": "MTK2811:3L4D84MIL0ZMTASUTEGVKSYIUG0JHP", "dateTime": 1519403888136}, {"current_trial": 230, "trialdata": {"rt": -1, "trial_type": "single-stim", "word": "college", "stimulus": "<p id=\"stim\">COLLEGE</p>", "conditions": [24, 1600, "v", 24000], "internal_node_id": "0.0-167.0", "trial": 6, "time_elapsed": 1084878, "serialpos": 17, "key_press": -1, "wordID": 345, "type": "PRES_VIS", "trial_index": 230}, "uniqueid": "MTK2811:3L4D84MIL0ZMTASUTEGVKSYIUG0JHP", "dateTime": 1519403890783}, {"current_trial": 231, "trialdata": {"rt": -1, "trial_type": "single-stim", "word": "stone", "stimulus": "<p id=\"stim\">STONE</p>", "conditions": [24, 1600, "v", 24000], "internal_node_id": "0.0-168.0", "trial": 6, "time_elapsed": 1087363, "serialpos": 18, "key_press": -1, "wordID": 1384, "type": "PRES_VIS", "trial_index": 231}, "uniqueid": "MTK2811:3L4D84MIL0ZMTASUTEGVKSYIUG0JHP", "dateTime": 1519403893266}, {"current_trial": 232, "trialdata": {"rt": -1, "trial_type": "single-stim", "word": "garbage", "stimulus": "<p id=\"stim\">GARBAGE</p>", "conditions": [24, 1600, "v", 24000], "internal_node_id": "0.0-169.0", "trial": 6, "time_elapsed": 1089841, "serialpos": 19, "key_press": -1, "wordID": 621, "type": "PRES_VIS", "trial_index": 232}, "uniqueid": "MTK2811:3L4D84MIL0ZMTASUTEGVKSYIUG0JHP", "dateTime": 1519403895744}, {"current_trial": 233, "trialdata": {"rt": -1, "trial_type": "single-stim", "word": "cellar", "stimulus": "<p id=\"stim\">CELLAR</p>", "conditions": [24, 1600, "v", 24000], "internal_node_id": "0.0-170.0", "trial": 6, "time_elapsed": 1092255, "serialpos": 20, "key_press": -1, "wordID": 266, "type": "PRES_VIS", "trial_index": 233}, "uniqueid": "MTK2811:3L4D84MIL0ZMTASUTEGVKSYIUG0JHP", "dateTime": 1519403898158}, {"current_trial": 234, "trialdata": {"rt": -1, "trial_type": "single-stim", "word": "seagull", "stimulus": "<p id=\"stim\">SEAGULL</p>", "conditions": [24, 1600, "v", 24000], "internal_node_id": "0.0-171.0", "trial": 6, "time_elapsed": 1094953, "serialpos": 21, "key_press": -1, "wordID": 1260, "type": "PRES_VIS", "trial_index": 234}, "uniqueid": "MTK2811:3L4D84MIL0ZMTASUTEGVKSYIUG0JHP", "dateTime": 1519403900856}, {"current_trial": 235, "trialdata": {"rt": -1, "trial_type": "single-stim", "word": "vagrant", "stimulus": "<p id=\"stim\">VAGRANT</p>", "conditions": [24, 1600, "v", 24000], "internal_node_id": "0.0-172.0", "trial": 6, "time_elapsed": 1097595, "serialpos": 22, "key_press": -1, "wordID": 1543, "type": "PRES_VIS", "trial_index": 235}, "uniqueid": "MTK2811:3L4D84MIL0ZMTASUTEGVKSYIUG0JHP", "dateTime": 1519403903498}, {"current_trial": 236, "trialdata": {"rt": -1, "trial_type": "single-stim", "word": "chauffeur", "stimulus": "<p id=\"stim\">CHAUFFEUR</p>", "conditions": [24, 1600, "v", 24000], "internal_node_id": "0.0-173.0", "trial": 6, "time_elapsed": 1100361, "serialpos": 23, "key_press": -1, "wordID": 282, "type": "PRES_VIS", "trial_index": 236}, "uniqueid": "MTK2811:3L4D84MIL0ZMTASUTEGVKSYIUG0JHP", "dateTime": 1519403906264}, {"current_trial": 237, "trialdata": {"rt": -1, "trial_type": "single-stim", "stimulus": "", "internal_node_id": "0.0-174.0-0.0", "time_elapsed": 1102792, "key_press": -1, "type": "PRE_RECALL_DELAY", "trial_index": 237}, "uniqueid": "MTK2811:3L4D84MIL0ZMTASUTEGVKSYIUG0JHP", "dateTime": 1519403908696}, {"current_trial": 238, "trialdata": {"rt": -1000, "trial_type": "single-audio", "stimulus": "/static/audio/400Hz.wav", "internal_node_id": "0.0-175.0", "time_elapsed": 1103294, "key_press": -1, "type": "PRE_RECALL_ALERT", "trial_index": 238}, "uniqueid": "MTK2811:3L4D84MIL0ZMTASUTEGVKSYIUG0JHP", "dateTime": 1519403909197}, {"current_trial": 239, "trialdata": {"rt": [4884, 8644, 10588, 12844, 14876, 17292, 19644, 21220, 29548, 41196], "recwords": ["knapsack", "chauffeur", "plaza", "sidewalk", "vagrant", "luggage", "suitcase", "seagull", "stone", "critic"], "key_times": [3206, 3551, 3725, 3869, 4013, 4245, 4429, 4565, 4884, 5156, 5364, 5478, 5716, 5981, 6133, 6292, 6373, 6588, 6981, 7101, 7413, 7885, 8093, 8317, 8644, 9124, 9405, 9623, 9797, 9900, 10149, 10381, 10588, 10926, 11013, 11285, 11485, 12013, 12172, 12428, 12637, 12844, 13021, 13133, 13381, 13693, 13765, 13948, 14036, 14180, 14612, 14876, 15389, 16133, 16373, 16485, 16669, 16812, 17061, 17292, 17447, 17525, 17773, 17934, 18573, 18726, 19269, 19340, 19644, 19877, 20071, 20157, 20589, 20685, 20901, 21045, 21220, 28606, 28743, 28854, 29005, 29437, 29548, 40158, 40413, 40494, 40622, 40718, 41045, 41196], "trial_type": "free-recall", "conditions": [24, 1600, "v", 24000], "internal_node_id": "0.0-176.0-0.0", "key_presses": [75, 78, 65, 80, 83, 65, 67, 75, 13, 67, 72, 65, 85, 70, 70, 69, 82, 85, 8, 8, 82, 8, 85, 82, 13, 76, 8, 80, 76, 65, 90, 65, 13, 83, 73, 68, 69, 87, 65, 76, 75, 13, 86, 65, 67, 8, 71, 82, 65, 78, 84, 13, 76, 85, 71, 71, 65, 71, 69, 13, 83, 85, 73, 84, 67, 65, 83, 69, 13, 83, 69, 65, 71, 85, 76, 76, 13, 83, 84, 79, 78, 69, 13, 67, 82, 73, 84, 73, 67, 13], "trial": 6, "time_elapsed": 1163298, "type": "FREE_RECALL", "trial_index": 239}, "uniqueid": "MTK2811:3L4D84MIL0ZMTASUTEGVKSYIUG0JHP", "dateTime": 1519403969210}, {"current_trial": 240, "trialdata": {"rt": 69144, "trial_type": "text", "internal_node_id": "0.0-177.0", "time_elapsed": 1234452, "key_press": 32, "type": "INSTRUCTIONS", "trial_index": 240}, "uniqueid": "MTK2811:3L4D84MIL0ZMTASUTEGVKSYIUG0JHP", "dateTime": 1519404040355}, {"current_trial": 241, "trialdata": {"rt": [1988, 3892, 5340, 6828, 8532, 9940], "trial_type": "math-distractor", "key_times": [1701, 1773, 1988, 3614, 3735, 3892, 5165, 5340, 6487, 6661, 6828, 8340, 8532, 9613, 9773, 9940], "responses": ["15", "19", "8", "10", "6", "10"], "num2": [5, 9, 5, 2, 1, 1, 9], "num3": [7, 1, 1, 6, 3, 4, 8], "conditions": [24, 800, "v", 12000], "internal_node_id": "0.0-178.0", "key_presses": [97, 101, 13, 97, 105, 13, 104, 13, 97, 96, 13, 102, 13, 97, 96, 13], "trial": 7, "time_elapsed": 1248458, "type": "DISTRACTOR", "trial_index": 241, "num1": [3, 9, 2, 2, 2, 5, 9]}, "uniqueid": "MTK2811:3L4D84MIL0ZMTASUTEGVKSYIUG0JHP", "dateTime": 1519404054361}, {"current_trial": 242, "trialdata": {"rt": -1, "trial_type": "single-stim", "stimulus": "<p id=\"stim\">10</p>", "internal_node_id": "0.0-179.0-0.0", "time_elapsed": 1251460, "key_press": -1, "trial_index": 242}, "uniqueid": "MTK2811:3L4D84MIL0ZMTASUTEGVKSYIUG0JHP", "dateTime": 1519404057363}, {"current_trial": 243, "trialdata": {"rt": -1, "trial_type": "single-stim", "stimulus": "<p id=\"stim\">9</p>", "internal_node_id": "0.0-179.0-1.0", "time_elapsed": 1252462, "key_press": -1, "trial_index": 243}, "uniqueid": "MTK2811:3L4D84MIL0ZMTASUTEGVKSYIUG0JHP", "dateTime": 1519404058365}, {"current_trial": 244, "trialdata": {"rt": -1, "trial_type": "single-stim", "stimulus": "<p id=\"stim\">8</p>", "internal_node_id": "0.0-179.0-2.0", "time_elapsed": 1253463, "key_press": -1, "trial_index": 244}, "uniqueid": "MTK2811:3L4D84MIL0ZMTASUTEGVKSYIUG0JHP", "dateTime": 1519404059366}, {"current_trial": 245, "trialdata": {"rt": -1, "trial_type": "single-stim", "stimulus": "<p id=\"stim\">7</p>", "internal_node_id": "0.0-179.0-3.0", "time_elapsed": 1254465, "key_press": -1, "trial_index": 245}, "uniqueid": "MTK2811:3L4D84MIL0ZMTASUTEGVKSYIUG0JHP", "dateTime": 1519404060368}, {"current_trial": 246, "trialdata": {"rt": -1, "trial_type": "single-stim", "stimulus": "<p id=\"stim\">6</p>", "internal_node_id": "0.0-179.0-4.0", "time_elapsed": 1255467, "key_press": -1, "trial_index": 246}, "uniqueid": "MTK2811:3L4D84MIL0ZMTASUTEGVKSYIUG0JHP", "dateTime": 1519404061370}, {"current_trial": 247, "trialdata": {"rt": -1, "trial_type": "single-stim", "stimulus": "<p id=\"stim\">5</p>", "internal_node_id": "0.0-179.0-5.0", "time_elapsed": 1256469, "key_press": -1, "trial_index": 247}, "uniqueid": "MTK2811:3L4D84MIL0ZMTASUTEGVKSYIUG0JHP", "dateTime": 1519404062372}, {"current_trial": 248, "trialdata": {"rt": -1, "trial_type": "single-stim", "stimulus": "<p id=\"stim\">4</p>", "internal_node_id": "0.0-179.0-6.0", "time_elapsed": 1257470, "key_press": -1, "trial_index": 248}, "uniqueid": "MTK2811:3L4D84MIL0ZMTASUTEGVKSYIUG0JHP", "dateTime": 1519404063373}, {"current_trial": 249, "trialdata": {"rt": -1, "trial_type": "single-stim", "stimulus": "<p id=\"stim\">3</p>", "internal_node_id": "0.0-179.0-7.0", "time_elapsed": 1258472, "key_press": -1, "trial_index": 249}, "uniqueid": "MTK2811:3L4D84MIL0ZMTASUTEGVKSYIUG0JHP", "dateTime": 1519404064375}, {"current_trial": 250, "trialdata": {"rt": -1, "trial_type": "single-stim", "stimulus": "<p id=\"stim\">2</p>", "internal_node_id": "0.0-179.0-8.0", "time_elapsed": 1259472, "key_press": -1, "trial_index": 250}, "uniqueid": "MTK2811:3L4D84MIL0ZMTASUTEGVKSYIUG0JHP", "dateTime": 1519404065375}, {"current_trial": 251, "trialdata": {"rt": -1, "trial_type": "single-stim", "stimulus": "<p id=\"stim\">1</p>", "internal_node_id": "0.0-179.0-9.0", "time_elapsed":