{"assignmentId": "3PWWM24LHT5TU3TTJPGX8YJ2PR6824", "workerId": "MTK2975", "questiondata": {"origin": "United States", "strat-rehearsal": "58", "marital": "Married/Domestic Partnership", "education": "Some college", "ethnicity": "Not Hispanic", "color_depth": 24, "distracted": "No", "wrote-notes": "Yes", "strat-other": "", "screen_width": 1360, "avail_screen_width": 1360, "avail_screen_height": 728, "strat-image": "20", "language": "English", "gender": "Female", "age": "38", "gender_other": "", "race": ["White"], "strat-categorize": "86", "pixel_depth": 24, "strat-spatial": "0", "strat-story": "0", "race_other": "", "screen_height": 768}, "bonus": 0, "hitId": "37SDSEDIN99KIYD3AJBHEVDDC8918B", "counterbalance": 2815, "useragent": "Mozilla/5.0 (Windows NT 10.0; Win64; x64) AppleWebKit/537.36 (KHTML, like Gecko) Chrome/64.0.3282.167 Safari/537.36", "eventdata": [{"eventtype": "initialized", "interval": 0, "value": null, "timestamp": 1519609056736}, {"eventtype": "window_resize", "interval": 0, "value": [1360, 728], "timestamp": 1519609056736}, {"eventtype": "focus", "interval": 6518, "value": "off", "timestamp": 1519609063254}, {"eventtype": "focus", "interval": 2794, "value": "on", "timestamp": 1519609066048}, {"eventtype": "window_resize", "interval": 2997, "value": [1511, 808], "timestamp": 1519609069045}, {"eventtype": "window_resize", "interval": 10606, "value": [1700, 910], "timestamp": 1519609079651}, {"eventtype": "window_resize", "interval": 774, "value": [2040, 1092], "timestamp": 1519609080425}, {"eventtype": "window_resize", "interval": 27950, "value": [1700, 910], "timestamp": 1519609108375}, {"eventtype": "window_resize", "interval": 3377, "value": [1360, 728], "timestamp": 1519609111752}], "data": [{"current_trial": 0, "trialdata": {"rt": 2160, "trial_type": "text", "internal_node_id": "0.0-0.0", "time_elapsed": 2161, "key_press": 32, "type": "INSTRUCTIONS", "trial_index": 0}, "uniqueid": "MTK2975:3PWWM24LHT5TU3TTJPGX8YJ2PR6824", "dateTime": 1519609059459}, {"current_trial": 1, "trialdata": {"rt": 9198, "trial_type": "text", "internal_node_id": "0.0-1.0", "time_elapsed": 11361, "key_press": 17, "type": "INSTRUCTIONS", "trial_index": 1}, "uniqueid": "MTK2975:3PWWM24LHT5TU3TTJPGX8YJ2PR6824", "dateTime": 1519609068659}, {"current_trial": 2, "trialdata": {"rt": [15452], "trial_type": "audio-test", "responses": ["ocean"], "internal_node_id": "0.0-2.0", "time_elapsed": 26817, "type": "AUDIO_TEST", "trial_index": 2}, "uniqueid": "MTK2975:3PWWM24LHT5TU3TTJPGX8YJ2PR6824", "dateTime": 1519609084115}, {"current_trial": 3, "trialdata": {"rt": [5917], "trial_type": "audio-test", "responses": ["crystal"], "internal_node_id": "0.0-3.0", "time_elapsed": 32737, "type": "AUDIO_TEST", "trial_index": 3}, "uniqueid": "MTK2975:3PWWM24LHT5TU3TTJPGX8YJ2PR6824", "dateTime": 1519609090035}, {"current_trial": 4, "trialdata": {"rt": [5608], "trial_type": "audio-test", "responses": ["spice"], "internal_node_id": "0.0-4.0", "time_elapsed": 38345, "type": "AUDIO_TEST", "trial_index": 4}, "uniqueid": "MTK2975:3PWWM24LHT5TU3TTJPGX8YJ2PR6824", "dateTime": 1519609095643}, {"current_trial": 5, "trialdata": {"rt": 17764, "trial_type": "survey-text", "responses": "{\"Q0\":\"11pm\",\"Q1\":\"7:30am\",\"Q2\":\"5\"}", "internal_node_id": "0.0-5.0", "time_elapsed": 56860, "type": "SLEEP_SURVEY", "trial_index": 5}, "uniqueid": "MTK2975:3PWWM24LHT5TU3TTJPGX8YJ2PR6824", "dateTime": 1519609114158}, {"current_trial": 6, "trialdata": {"rt": 33050, "trial_type": "text", "internal_node_id": "0.0-6.0", "time_elapsed": 90912, "key_press": 32, "type": "INSTRUCTIONS", "trial_index": 6}, "uniqueid": "MTK2975:3PWWM24LHT5TU3TTJPGX8YJ2PR6824", "dateTime": 1519609148210}, {"current_trial": 7, "trialdata": {"rt": 33019, "trial_type": "text", "internal_node_id": "0.0-7.0", "time_elapsed": 124431, "key_press": 13, "type": "INSTRUCTIONS", "trial_index": 7}, "uniqueid": "MTK2975:3PWWM24LHT5TU3TTJPGX8YJ2PR6824", "dateTime": 1519609181730}, {"current_trial": 8, "trialdata": {"rt": 137500, "trial_type": "text", "internal_node_id": "0.0-8.0", "time_elapsed": 262432, "key_press": 13, "type": "INSTRUCTIONS", "trial_index": 8}, "uniqueid": "MTK2975:3PWWM24LHT5TU3TTJPGX8YJ2PR6824", "dateTime": 1519609319730}, {"current_trial": 9, "trialdata": {"rt": [4668, 7893, 9541, 11933, 16204], "trial_type": "math-distractor", "key_times": [3781, 3861, 4668, 7516, 7597, 7893, 9237, 9316, 9541, 11628, 11709, 11933, 15829, 15949, 16204], "responses": ["15", "15", "12", "13", "20"], "num2": [7, 4, 2, 7, 6, 8], "num3": [5, 8, 5, 4, 6, 2], "conditions": [18, 1200, "v", 18000], "internal_node_id": "0.0-9.0", "key_presses": [97, 101, 13, 97, 101, 13, 97, 98, 13, 97, 99, 13, 98, 96, 13], "trial": 0, "time_elapsed": 281437, "type": "DISTRACTOR", "trial_index": 9, "num1": [3, 3, 5, 2, 8, 9]}, "uniqueid": "MTK2975:3PWWM24LHT5TU3TTJPGX8YJ2PR6824", "dateTime": 1519609338736}, {"current_trial": 10, "trialdata": {"rt": -1, "trial_type": "single-stim", "stimulus": "<p id=\"stim\">10</p>", "internal_node_id": "0.0-10.0-0.0", "time_elapsed": 284439, "key_press": -1, "trial_index": 10}, "uniqueid": "MTK2975:3PWWM24LHT5TU3TTJPGX8YJ2PR6824", "dateTime": 1519609341737}, {"current_trial": 11, "trialdata": {"rt": -1, "trial_type": "single-stim", "stimulus": "<p id=\"stim\">9</p>", "internal_node_id": "0.0-10.0-1.0", "time_elapsed": 285440, "key_press": -1, "trial_index": 11}, "uniqueid": "MTK2975:3PWWM24LHT5TU3TTJPGX8YJ2PR6824", "dateTime": 1519609342738}, {"current_trial": 12, "trialdata": {"rt": -1, "trial_type": "single-stim", "stimulus": "<p id=\"stim\">8</p>", "internal_node_id": "0.0-10.0-2.0", "time_elapsed": 286442, "key_press": -1, "trial_index": 12}, "uniqueid": "MTK2975:3PWWM24LHT5TU3TTJPGX8YJ2PR6824", "dateTime": 1519609343740}, {"current_trial": 13, "trialdata": {"rt": -1, "trial_type": "single-stim", "stimulus": "<p id=\"stim\">7</p>", "internal_node_id": "0.0-10.0-3.0", "time_elapsed": 287444, "key_press": -1, "trial_index": 13}, "uniqueid": "MTK2975:3PWWM24LHT5TU3TTJPGX8YJ2PR6824", "dateTime": 1519609344742}, {"current_trial": 14, "trialdata": {"rt": -1, "trial_type": "single-stim", "stimulus": "<p id=\"stim\">6</p>", "internal_node_id": "0.0-10.0-4.0", "time_elapsed": 288445, "key_press": -1, "trial_index": 14}, "uniqueid": "MTK2975:3PWWM24LHT5TU3TTJPGX8YJ2PR6824", "dateTime": 1519609345743}, {"current_trial": 15, "trialdata": {"rt": -1, "trial_type": "single-stim", "stimulus": "<p id=\"stim\">5</p>", "internal_node_id": "0.0-10.0-5.0", "time_elapsed": 289446, "key_press": -1, "trial_index": 15}, "uniqueid": "MTK2975:3PWWM24LHT5TU3TTJPGX8YJ2PR6824", "dateTime": 1519609346744}, {"current_trial": 16, "trialdata": {"rt": -1, "trial_type": "single-stim", "stimulus": "<p id=\"stim\">4</p>", "internal_node_id": "0.0-10.0-6.0", "time_elapsed": 290447, "key_press": -1, "trial_index": 16}, "uniqueid": "MTK2975:3PWWM24LHT5TU3TTJPGX8YJ2PR6824", "dateTime": 1519609347745}, {"current_trial": 17, "trialdata": {"rt": -1, "trial_type": "single-stim", "stimulus": "<p id=\"stim\">3</p>", "internal_node_id": "0.0-10.0-7.0", "time_elapsed": 291448, "key_press": -1, "trial_index": 17}, "uniqueid": "MTK2975:3PWWM24LHT5TU3TTJPGX8YJ2PR6824", "dateTime": 1519609348746}, {"current_trial": 18, "trialdata": {"rt": -1, "trial_type": "single-stim", "stimulus": "<p id=\"stim\">2</p>", "internal_node_id": "0.0-10.0-8.0", "time_elapsed": 292450, "key_press": -1, "trial_index": 18}, "uniqueid": "MTK2975:3PWWM24LHT5TU3TTJPGX8YJ2PR6824", "dateTime": 1519609349749}, {"current_trial": 19, "trialdata": {"rt": -1, "trial_type": "single-stim", "stimulus": "<p id=\"stim\">1</p>", "internal_node_id": "0.0-10.0-9.0", "time_elapsed": 293451, "key_press": -1, "trial_index": 19}, "uniqueid": "MTK2975:3PWWM24LHT5TU3TTJPGX8YJ2PR6824", "dateTime": 1519609350749}, {"current_trial": 20, "trialdata": {"rt": -1, "trial_type": "single-stim", "stimulus": "<p id=\"stim\">+</p>", "internal_node_id": "0.0-11.0-0.0", "time_elapsed": 294952, "key_press": -1, "type": "FIXATION", "trial_index": 20}, "uniqueid": "MTK2975:3PWWM24LHT5TU3TTJPGX8YJ2PR6824", "dateTime": 1519609352250}, {"current_trial": 21, "trialdata": {"rt": -1, "trial_type": "single-stim", "word": "canyon", "stimulus": "<p id=\"stim\">CANYON</p>", "conditions": [18, 1200, "v", 18000], "internal_node_id": "0.0-12.0", "trial": 0, "time_elapsed": 296153, "serialpos": 0, "key_press": -1, "wordID": 234, "type": "PRES_VIS", "trial_index": 21}, "uniqueid": "MTK2975:3PWWM24LHT5TU3TTJPGX8YJ2PR6824", "dateTime": 1519609353451}, {"current_trial": 22, "trialdata": {"rt": -1, "trial_type": "single-stim", "word": "fleet", "stimulus": "<p id=\"stim\">FLEET</p>", "conditions": [18, 1200, "v", 18000], "internal_node_id": "0.0-13.0", "trial": 0, "time_elapsed": 298193, "serialpos": 1, "key_press": -1, "wordID": 577, "type": "PRES_VIS", "trial_index": 22}, "uniqueid": "MTK2975:3PWWM24LHT5TU3TTJPGX8YJ2PR6824", "dateTime": 1519609355491}, {"current_trial": 23, "trialdata": {"rt": -1, "trial_type": "single-stim", "word": "actor", "stimulus": "<p id=\"stim\">ACTOR</p>", "conditions": [18, 1200, "v", 18000], "internal_node_id": "0.0-14.0", "trial": 0, "time_elapsed": 300307, "serialpos": 2, "key_press": -1, "wordID": 4, "type": "PRES_VIS", "trial_index": 23}, "uniqueid": "MTK2975:3PWWM24LHT5TU3TTJPGX8YJ2PR6824", "dateTime": 1519609357605}, {"current_trial": 24, "trialdata": {"rt": -1, "trial_type": "single-stim", "word": "flashlight", "stimulus": "<p id=\"stim\">FLASHLIGHT</p>", "conditions": [18, 1200, "v", 18000], "internal_node_id": "0.0-15.0", "trial": 0, "time_elapsed": 302671, "serialpos": 3, "key_press": -1, "wordID": 574, "type": "PRES_VIS", "trial_index": 24}, "uniqueid": "MTK2975:3PWWM24LHT5TU3TTJPGX8YJ2PR6824", "dateTime": 1519609359969}, {"current_trial": 25, "trialdata": {"rt": -1, "trial_type": "single-stim", "word": "sketch", "stimulus": "<p id=\"stim\">SKETCH</p>", "conditions": [18, 1200, "v", 18000], "internal_node_id": "0.0-16.0", "trial": 0, "time_elapsed": 304757, "serialpos": 4, "key_press": -1, "wordID": 1314, "type": "PRES_VIS", "trial_index": 25}, "uniqueid": "MTK2975:3PWWM24LHT5TU3TTJPGX8YJ2PR6824", "dateTime": 1519609362055}, {"current_trial": 26, "trialdata": {"rt": -1, "trial_type": "single-stim", "word": "hound", "stimulus": "<p id=\"stim\">HOUND</p>", "conditions": [18, 1200, "v", 18000], "internal_node_id": "0.0-17.0", "trial": 0, "time_elapsed": 307050, "serialpos": 5, "key_press": -1, "wordID": 723, "type": "PRES_VIS", "trial_index": 26}, "uniqueid": "MTK2975:3PWWM24LHT5TU3TTJPGX8YJ2PR6824", "dateTime": 1519609364348}, {"current_trial": 27, "trialdata": {"rt": -1, "trial_type": "single-stim", "word": "hook", "stimulus": "<p id=\"stim\">HOOK</p>", "conditions": [18, 1200, "v", 18000], "internal_node_id": "0.0-18.0", "trial": 0, "time_elapsed": 309287, "serialpos": 6, "key_press": -1, "wordID": 714, "type": "PRES_VIS", "trial_index": 27}, "uniqueid": "MTK2975:3PWWM24LHT5TU3TTJPGX8YJ2PR6824", "dateTime": 1519609366585}, {"current_trial": 28, "trialdata": {"rt": -1, "trial_type": "single-stim", "word": "pastry", "stimulus": "<p id=\"stim\">PASTRY</p>", "conditions": [18, 1200, "v", 18000], "internal_node_id": "0.0-19.0", "trial": 0, "time_elapsed": 311351, "serialpos": 7, "key_press": -1, "wordID": 1021, "type": "PRES_VIS", "trial_index": 28}, "uniqueid": "MTK2975:3PWWM24LHT5TU3TTJPGX8YJ2PR6824", "dateTime": 1519609368649}, {"current_trial": 29, "trialdata": {"rt": -1, "trial_type": "single-stim", "word": "wagon", "stimulus": "<p id=\"stim\">WAGON</p>", "conditions": [18, 1200, "v", 18000], "internal_node_id": "0.0-20.0", "trial": 0, "time_elapsed": 313352, "serialpos": 8, "key_press": -1, "wordID": 1577, "type": "PRES_VIS", "trial_index": 29}, "uniqueid": "MTK2975:3PWWM24LHT5TU3TTJPGX8YJ2PR6824", "dateTime": 1519609370651}, {"current_trial": 30, "trialdata": {"rt": -1, "trial_type": "single-stim", "word": "expert", "stimulus": "<p id=\"stim\">EXPERT</p>", "conditions": [18, 1200, "v", 18000], "internal_node_id": "0.0-21.0", "trial": 0, "time_elapsed": 315701, "serialpos": 9, "key_press": -1, "wordID": 542, "type": "PRES_VIS", "trial_index": 30}, "uniqueid": "MTK2975:3PWWM24LHT5TU3TTJPGX8YJ2PR6824", "dateTime": 1519609372999}, {"current_trial": 31, "trialdata": {"rt": -1, "trial_type": "single-stim", "word": "puppy", "stimulus": "<p id=\"stim\">PUPPY</p>", "conditions": [18, 1200, "v", 18000], "internal_node_id": "0.0-22.0", "trial": 0, "time_elapsed": 318010, "serialpos": 10, "key_press": -1, "wordID": 1143, "type": "PRES_VIS", "trial_index": 31}, "uniqueid": "MTK2975:3PWWM24LHT5TU3TTJPGX8YJ2PR6824", "dateTime": 1519609375308}, {"current_trial": 32, "trialdata": {"rt": -1, "trial_type": "single-stim", "word": "spouse", "stimulus": "<p id=\"stim\">SPOUSE</p>", "conditions": [18, 1200, "v", 18000], "internal_node_id": "0.0-23.0", "trial": 0, "time_elapsed": 320084, "serialpos": 11, "key_press": -1, "wordID": 1357, "type": "PRES_VIS", "trial_index": 32}, "uniqueid": "MTK2975:3PWWM24LHT5TU3TTJPGX8YJ2PR6824", "dateTime": 1519609377382}, {"current_trial": 33, "trialdata": {"rt": -1, "trial_type": "single-stim", "word": "garbage", "stimulus": "<p id=\"stim\">GARBAGE</p>", "conditions": [18, 1200, "v", 18000], "internal_node_id": "0.0-24.0", "trial": 0, "time_elapsed": 322239, "serialpos": 12, "key_press": -1, "wordID": 621, "type": "PRES_VIS", "trial_index": 33}, "uniqueid": "MTK2975:3PWWM24LHT5TU3TTJPGX8YJ2PR6824", "dateTime": 1519609379537}, {"current_trial": 34, "trialdata": {"rt": -1, "trial_type": "single-stim", "word": "shelter", "stimulus": "<p id=\"stim\">SHELTER</p>", "conditions": [18, 1200, "v", 18000], "internal_node_id": "0.0-25.0", "trial": 0, "time_elapsed": 324552, "serialpos": 13, "key_press": -1, "wordID": 1281, "type": "PRES_VIS", "trial_index": 34}, "uniqueid": "MTK2975:3PWWM24LHT5TU3TTJPGX8YJ2PR6824", "dateTime": 1519609381850}, {"current_trial": 35, "trialdata": {"rt": -1, "trial_type": "single-stim", "word": "orchid", "stimulus": "<p id=\"stim\">ORCHID</p>", "conditions": [18, 1200, "v", 18000], "internal_node_id": "0.0-26.0", "trial": 0, "time_elapsed": 326823, "serialpos": 14, "key_press": -1, "wordID": 981, "type": "PRES_VIS", "trial_index": 35}, "uniqueid": "MTK2975:3PWWM24LHT5TU3TTJPGX8YJ2PR6824", "dateTime": 1519609384121}, {"current_trial": 36, "trialdata": {"rt": -1, "trial_type": "single-stim", "word": "radish", "stimulus": "<p id=\"stim\">RADISH</p>", "conditions": [18, 1200, "v", 18000], "internal_node_id": "0.0-27.0", "trial": 0, "time_elapsed": 328978, "serialpos": 15, "key_press": -1, "wordID": 1157, "type": "PRES_VIS", "trial_index": 36}, "uniqueid": "MTK2975:3PWWM24LHT5TU3TTJPGX8YJ2PR6824", "dateTime": 1519609386276}, {"current_trial": 37, "trialdata": {"rt": -1, "trial_type": "single-stim", "word": "pepper", "stimulus": "<p id=\"stim\">PEPPER</p>", "conditions": [18, 1200, "v", 18000], "internal_node_id": "0.0-28.0", "trial": 0, "time_elapsed": 331113, "serialpos": 16, "key_press": -1, "wordID": 1046, "type": "PRES_VIS", "trial_index": 37}, "uniqueid": "MTK2975:3PWWM24LHT5TU3TTJPGX8YJ2PR6824", "dateTime": 1519609388411}, {"current_trial": 38, "trialdata": {"rt": -1, "trial_type": "single-stim", "word": "doughnut", "stimulus": "<p id=\"stim\">DOUGHNUT</p>", "conditions": [18, 1200, "v", 18000], "internal_node_id": "0.0-29.0", "trial": 0, "time_elapsed": 333167, "serialpos": 17, "key_press": -1, "wordID": 489, "type": "PRES_VIS", "trial_index": 38}, "uniqueid": "MTK2975:3PWWM24LHT5TU3TTJPGX8YJ2PR6824", "dateTime": 1519609390466}, {"current_trial": 39, "trialdata": {"rt": -1, "trial_type": "single-stim", "stimulus": "", "internal_node_id": "0.0-30.0-0.0", "time_elapsed": 335604, "key_press": -1, "type": "PRE_RECALL_DELAY", "trial_index": 39}, "uniqueid": "MTK2975:3PWWM24LHT5TU3TTJPGX8YJ2PR6824", "dateTime": 1519609392902}, {"current_trial": 40, "trialdata": {"rt": -1000, "trial_type": "single-audio", "stimulus": "/static/audio/400Hz.wav", "internal_node_id": "0.0-31.0", "time_elapsed": 336106, "key_press": -1, "type": "PRE_RECALL_ALERT", "trial_index": 40}, "uniqueid": "MTK2975:3PWWM24LHT5TU3TTJPGX8YJ2PR6824", "dateTime": 1519609393404}, {"current_trial": 41, "trialdata": {"rt": [3852, 6900, 8852, 12028, 15020, 17300, 21035, 24052, 26732, 30884, 33668, 39291], "recwords": ["canyon", "fleet", "spouse", "doughnut", "pastry", "expert", "flashlight", "radish", "garbage", "actor", "hound", "hook"], "key_times": [1773, 2339, 2532, 2756, 2932, 3148, 3852, 4755, 5124, 5436, 5587, 5820, 6900, 7364, 7579, 7868, 8100, 8316, 8491, 8852, 9459, 9619, 9740, 9987, 10108, 10571, 10916, 11036, 12028, 12676, 12844, 13475, 13948, 14131, 14276, 15020, 15332, 15588, 15820, 15955, 16164, 16355, 17300, 18412, 18596, 18819, 19011, 19252, 19483, 19684, 19963, 20043, 20228, 21035, 22148, 22268, 22468, 22636, 22796, 22916, 24052, 25195, 25276, 25436, 25724, 25820, 26140, 26204, 26732, 28380, 28635, 28932, 29116, 29300, 30884, 32204, 32308, 32427, 32708, 33523, 33668, 38203, 38508, 38651, 38732, 39291], "trial_type": "free-recall", "conditions": [18, 1200, "v", 18000], "internal_node_id": "0.0-32.0-0.0", "key_presses": [67, 65, 78, 89, 79, 78, 13, 70, 76, 69, 69, 84, 13, 83, 80, 79, 85, 83, 69, 13, 68, 79, 85, 71, 72, 78, 85, 84, 13, 80, 65, 83, 84, 82, 89, 13, 69, 88, 80, 69, 82, 84, 13, 70, 76, 65, 83, 72, 76, 73, 71, 72, 84, 13, 82, 65, 68, 73, 83, 72, 13, 71, 65, 82, 66, 65, 71, 69, 13, 65, 67, 84, 79, 82, 13, 72, 79, 85, 78, 68, 13, 72, 79, 79, 75, 13], "trial": 0, "time_elapsed": 396109, "type": "FREE_RECALL", "trial_index": 41}, "uniqueid": "MTK2975:3PWWM24LHT5TU3TTJPGX8YJ2PR6824", "dateTime": 1519609453408}, {"current_trial": 42, "trialdata": {"rt": 1753, "trial_type": "text", "internal_node_id": "0.0-33.0", "time_elapsed": 399864, "key_press": 32, "type": "INSTRUCTIONS", "trial_index": 42}, "uniqueid": "MTK2975:3PWWM24LHT5TU3TTJPGX8YJ2PR6824", "dateTime": 1519609457162}, {"current_trial": 43, "trialdata": {"rt": [3703, 5647, 8262, 9974, 11910, 13815, 16311], "trial_type": "math-distractor", "key_times": [3358, 3462, 3703, 5238, 5422, 5647, 7935, 8039, 8262, 9630, 9767, 9974, 11623, 11703, 11910, 13502, 13670, 13815, 16013, 16158, 16311, 17830, 17966], "responses": ["15", "18", "15", "13", "13", "10", "20"], "num2": [6, 5, 5, 9, 2, 3, 8, 6], "num3": [2, 8, 3, 1, 9, 5, 7, 1], "conditions": [18, 1200, "v", 18000], "internal_node_id": "0.0-34.0", "key_presses": [97, 101, 13, 97, 104, 13, 97, 101, 13, 97, 99, 13, 97, 99, 13, 97, 96, 13, 98, 96, 13, 97, 97], "trial": 1, "time_elapsed": 419866, "type": "DISTRACTOR", "trial_index": 43, "num1": [7, 5, 7, 3, 2, 2, 5, 4]}, "uniqueid": "MTK2975:3PWWM24LHT5TU3TTJPGX8YJ2PR6824", "dateTime": 1519609477164}, {"current_trial": 44, "trialdata": {"rt": -1, "trial_type": "single-stim", "stimulus": "<p id=\"stim\">10</p>", "internal_node_id": "0.0-35.0-0.0", "time_elapsed": 422868, "key_press": -1, "trial_index": 44}, "uniqueid": "MTK2975:3PWWM24LHT5TU3TTJPGX8YJ2PR6824", "dateTime": 1519609480166}, {"current_trial": 45, "trialdata": {"rt": -1, "trial_type": "single-stim", "stimulus": "<p id=\"stim\">9</p>", "internal_node_id": "0.0-35.0-1.0", "time_elapsed": 423869, "key_press": -1, "trial_index": 45}, "uniqueid": "MTK2975:3PWWM24LHT5TU3TTJPGX8YJ2PR6824", "dateTime": 1519609481167}, {"current_trial": 46, "trialdata": {"rt": -1, "trial_type": "single-stim", "stimulus": "<p id=\"stim\">8</p>", "internal_node_id": "0.0-35.0-2.0", "time_elapsed": 424870, "key_press": -1, "trial_index": 46}, "uniqueid": "MTK2975:3PWWM24LHT5TU3TTJPGX8YJ2PR6824", "dateTime": 1519609482168}, {"current_trial": 47, "trialdata": {"rt": -1, "trial_type": "single-stim", "stimulus": "<p id=\"stim\">7</p>", "internal_node_id": "0.0-35.0-3.0", "time_elapsed": 425872, "key_press": -1, "trial_index": 47}, "uniqueid": "MTK2975:3PWWM24LHT5TU3TTJPGX8YJ2PR6824", "dateTime": 1519609483170}, {"current_trial": 48, "trialdata": {"rt": -1, "trial_type": "single-stim", "stimulus": "<p id=\"stim\">6</p>", "internal_node_id": "0.0-35.0-4.0", "time_elapsed": 426873, "key_press": -1, "trial_index": 48}, "uniqueid": "MTK2975:3PWWM24LHT5TU3TTJPGX8YJ2PR6824", "dateTime": 1519609484171}, {"current_trial": 49, "trialdata": {"rt": -1, "trial_type": "single-stim", "stimulus": "<p id=\"stim\">5</p>", "internal_node_id": "0.0-35.0-5.0", "time_elapsed": 427875, "key_press": -1, "trial_index": 49}, "uniqueid": "MTK2975:3PWWM24LHT5TU3TTJPGX8YJ2PR6824", "dateTime": 1519609485173}, {"current_trial": 50, "trialdata": {"rt": -1, "trial_type": "single-stim", "stimulus": "<p id=\"stim\">4</p>", "internal_node_id": "0.0-35.0-6.0", "time_elapsed": 428876, "key_press": -1, "trial_index": 50}, "uniqueid": "MTK2975:3PWWM24LHT5TU3TTJPGX8YJ2PR6824", "dateTime": 1519609486174}, {"current_trial": 51, "trialdata": {"rt": -1, "trial_type": "single-stim", "stimulus": "<p id=\"stim\">3</p>", "internal_node_id": "0.0-35.0-7.0", "time_elapsed": 429878, "key_press": -1, "trial_index": 51}, "uniqueid": "MTK2975:3PWWM24LHT5TU3TTJPGX8YJ2PR6824", "dateTime": 1519609487176}, {"current_trial": 52, "trialdata": {"rt": -1, "trial_type": "single-stim", "stimulus": "<p id=\"stim\">2</p>", "internal_node_id": "0.0-35.0-8.0", "time_elapsed": 430879, "key_press": -1, "trial_index": 52}, "uniqueid": "MTK2975:3PWWM24LHT5TU3TTJPGX8YJ2PR6824", "dateTime": 1519609488177}, {"current_trial": 53, "trialdata": {"rt": -1, "trial_type": "single-stim", "stimulus": "<p id=\"stim\">1</p>", "internal_node_id": "0.0-35.0-9.0", "time_elapsed": 431880, "key_press": -1, "trial_index": 53}, "uniqueid": "MTK2975:3PWWM24LHT5TU3TTJPGX8YJ2PR6824", "dateTime": 1519609489178}, {"current_trial": 54, "trialdata": {"rt": -1, "trial_type": "single-stim", "stimulus": "<p id=\"stim\">+</p>", "internal_node_id": "0.0-36.0-0.0", "time_elapsed": 433381, "key_press": -1, "type": "FIXATION", "trial_index": 54}, "uniqueid": "MTK2975:3PWWM24LHT5TU3TTJPGX8YJ2PR6824", "dateTime": 1519609490679}, {"current_trial": 55, "trialdata": {"rt": -1, "trial_type": "single-stim", "word": "parsley", "stimulus": "<p id=\"stim\">PARSLEY</p>", "conditions": [18, 1200, "v", 18000], "internal_node_id": "0.0-37.0", "trial": 1, "time_elapsed": 434582, "serialpos": 0, "key_press": -1, "wordID": 1015, "type": "PRES_VIS", "trial_index": 55}, "uniqueid": "MTK2975:3PWWM24LHT5TU3TTJPGX8YJ2PR6824", "dateTime": 1519609491881}, {"current_trial": 56, "trialdata": {"rt": -1, "trial_type": "single-stim", "word": "lava", "stimulus": "<p id=\"stim\">LAVA</p>", "conditions": [18, 1200, "v", 18000], "internal_node_id": "0.0-38.0", "trial": 1, "time_elapsed": 436848, "serialpos": 1, "key_press": -1, "wordID": 803, "type": "PRES_VIS", "trial_index": 56}, "uniqueid": "MTK2975:3PWWM24LHT5TU3TTJPGX8YJ2PR6824", "dateTime": 1519609494146}, {"current_trial": 57, "trialdata": {"rt": -1, "trial_type": "single-stim", "word": "river", "stimulus": "<p id=\"stim\">RIVER</p>", "conditions": [18, 1200, "v", 18000], "internal_node_id": "0.0-39.0", "trial": 1, "time_elapsed": 438998, "serialpos": 2, "key_press": -1, "wordID": 1193, "type": "PRES_VIS", "trial_index": 57}, "uniqueid": "MTK2975:3PWWM24LHT5TU3TTJPGX8YJ2PR6824", "dateTime": 1519609496296}, {"current_trial": 58, "trialdata": {"rt": -1, "trial_type": "single-stim", "word": "viking", "stimulus": "<p id=\"stim\">VIKING</p>", "conditions": [18, 1200, "v", 18000], "internal_node_id": "0.0-40.0", "trial": 1, "time_elapsed": 441368, "serialpos": 3, "key_press": -1, "wordID": 1564, "type": "PRES_VIS", "trial_index": 58}, "uniqueid": "MTK2975:3PWWM24LHT5TU3TTJPGX8YJ2PR6824", "dateTime": 1519609498667}, {"current_trial": 59, "trialdata": {"rt": -1, "trial_type": "single-stim", "word": "lake", "stimulus": "<p id=\"stim\">LAKE</p>", "conditions": [18, 1200, "v", 18000], "internal_node_id": "0.0-41.0", "trial": 1, "time_elapsed": 443486, "serialpos": 4, "key_press": -1, "wordID": 795, "type": "PRES_VIS", "trial_index": 59}, "uniqueid": "MTK2975:3PWWM24LHT5TU3TTJPGX8YJ2PR6824", "dateTime": 1519609500784}, {"current_trial": 60, "trialdata": {"rt": -1, "trial_type": "single-stim", "word": "donor", "stimulus": "<p id=\"stim\">DONOR</p>", "conditions": [18, 1200, "v", 18000], "internal_node_id": "0.0-42.0", "trial": 1, "time_elapsed": 445628, "serialpos": 5, "key_press": -1, "wordID": 484, "type": "PRES_VIS", "trial_index": 60}, "uniqueid": "MTK2975:3PWWM24LHT5TU3TTJPGX8YJ2PR6824", "dateTime": 1519609502926}, {"current_trial": 61, "trialdata": {"rt": -1, "trial_type": "single-stim", "word": "waitress", "stimulus": "<p id=\"stim\">WAITRESS</p>", "conditions": [18, 1200, "v", 18000], "internal_node_id": "0.0-43.0", "trial": 1, "time_elapsed": 447711, "serialpos": 6, "key_press": -1, "wordID": 1580, "type": "PRES_VIS", "trial_index": 61}, "uniqueid": "MTK2975:3PWWM24LHT5TU3TTJPGX8YJ2PR6824", "dateTime": 1519609505009}, {"current_trial": 62, "trialdata": {"rt": -1, "trial_type": "single-stim", "word": "raft", "stimulus": "<p id=\"stim\">RAFT</p>", "conditions": [18, 1200, "v", 18000], "internal_node_id": "0.0-44.0", "trial": 1, "time_elapsed": 449808, "serialpos": 7, "key_press": -1, "wordID": 1158, "type": "PRES_VIS", "trial_index": 62}, "uniqueid": "MTK2975:3PWWM24LHT5TU3TTJPGX8YJ2PR6824", "dateTime": 1519609507106}, {"current_trial": 63, "trialdata": {"rt": -1, "trial_type": "single-stim", "word": "hostess", "stimulus": "<p id=\"stim\">HOSTESS</p>", "conditions": [18, 1200, "v", 18000], "internal_node_id": "0.0-45.0", "trial": 1, "time_elapsed": 452179, "serialpos": 8, "key_press": -1, "wordID": 722, "type": "PRES_VIS", "trial_index": 63}, "uniqueid": "MTK2975:3PWWM24LHT5TU3TTJPGX8YJ2PR6824", "dateTime": 1519609509477}, {"current_trial": 64, "trialdata": {"rt": -1, "trial_type": "single-stim", "word": "zebra", "stimulus": "<p id=\"stim\">ZEBRA</p>", "conditions": [18, 1200, "v", 18000], "internal_node_id": "0.0-46.0", "trial": 1, "time_elapsed": 454194, "serialpos": 9, "key_press": -1, "wordID": 1634, "type": "PRES_VIS", "trial_index": 64}, "uniqueid": "MTK2975:3PWWM24LHT5TU3TTJPGX8YJ2PR6824", "dateTime": 1519609511492}, {"current_trial": 65, "trialdata": {"rt": -1, "trial_type": "single-stim", "word": "bacon", "stimulus": "<p id=\"stim\">BACON</p>", "conditions": [18, 1200, "v", 18000], "internal_node_id": "0.0-47.0", "trial": 1, "time_elapsed": 456425, "serialpos": 10, "key_press": -1, "wordID": 66, "type": "PRES_VIS", "trial_index": 65}, "uniqueid": "MTK2975:3PWWM24LHT5TU3TTJPGX8YJ2PR6824", "dateTime": 1519609513723}, {"current_trial": 66, "trialdata": {"rt": -1, "trial_type": "single-stim", "word": "stove", "stimulus": "<p id=\"stim\">STOVE</p>", "conditions": [18, 1200, "v", 18000], "internal_node_id": "0.0-48.0", "trial": 1, "time_elapsed": 458766, "serialpos": 11, "key_press": -1, "wordID": 1387, "type": "PRES_VIS", "trial_index": 66}, "uniqueid": "MTK2975:3PWWM24LHT5TU3TTJPGX8YJ2PR6824", "dateTime": 1519609516064}, {"current_trial": 67, "trialdata": {"rt": -1, "trial_type": "single-stim", "word": "shorts", "stimulus": "<p id=\"stim\">SHORTS</p>", "conditions": [18, 1200, "v", 18000], "internal_node_id": "0.0-49.0", "trial": 1, "time_elapsed": 461123, "serialpos": 12, "key_press": -1, "wordID": 1292, "type": "PRES_VIS", "trial_index": 67}, "uniqueid": "MTK2975:3PWWM24LHT5TU3TTJPGX8YJ2PR6824", "dateTime": 1519609518422}, {"current_trial": 68, "trialdata": {"rt": -1, "trial_type": "single-stim", "word": "turnip", "stimulus": "<p id=\"stim\">TURNIP</p>", "conditions": [18, 1200, "v", 18000], "internal_node_id": "0.0-50.0", "trial": 1, "time_elapsed": 463462, "serialpos": 13, "key_press": -1, "wordID": 1520, "type": "PRES_VIS", "trial_index": 68}, "uniqueid": "MTK2975:3PWWM24LHT5TU3TTJPGX8YJ2PR6824", "dateTime": 1519609520761}, {"current_trial": 69, "trialdata": {"rt": -1, "trial_type": "single-stim", "word": "wife", "stimulus": "<p id=\"stim\">WIFE</p>", "conditions": [18, 1200, "v", 18000], "internal_node_id": "0.0-51.0", "trial": 1, "time_elapsed": 465594, "serialpos": 14, "key_press": -1, "wordID": 1608, "type": "PRES_VIS", "trial_index": 69}, "uniqueid": "MTK2975:3PWWM24LHT5TU3TTJPGX8YJ2PR6824", "dateTime": 1519609522893}, {"current_trial": 70, "trialdata": {"rt": -1, "trial_type": "single-stim", "word": "brick", "stimulus": "<p id=\"stim\">BRICK</p>", "conditions": [18, 1200, "v", 18000], "internal_node_id": "0.0-52.0", "trial": 1, "time_elapsed": 467951, "serialpos": 15, "key_press": -1, "wordID": 171, "type": "PRES_VIS", "trial_index": 70}, "uniqueid": "MTK2975:3PWWM24LHT5TU3TTJPGX8YJ2PR6824", "dateTime": 1519609525249}, {"current_trial": 71, "trialdata": {"rt": -1, "trial_type": "single-stim", "word": "orange", "stimulus": "<p id=\"stim\">ORANGE</p>", "conditions": [18, 1200, "v", 18000], "internal_node_id": "0.0-53.0", "trial": 1, "time_elapsed": 470231, "serialpos": 16, "key_press": -1, "wordID": 979, "type": "PRES_VIS", "trial_index": 71}, "uniqueid": "MTK2975:3PWWM24LHT5TU3TTJPGX8YJ2PR6824", "dateTime": 1519609527529}, {"current_trial": 72, "trialdata": {"rt": -1, "trial_type": "single-stim", "word": "pliers", "stimulus": "<p id=\"stim\">PLIERS</p>", "conditions": [18, 1200, "v", 18000], "internal_node_id": "0.0-54.0", "trial": 1, "time_elapsed": 472592, "serialpos": 17, "key_press": -1, "wordID": 1088, "type": "PRES_VIS", "trial_index": 72}, "uniqueid": "MTK2975:3PWWM24LHT5TU3TTJPGX8YJ2PR6824", "dateTime": 1519609529890}, {"current_trial": 73, "trialdata": {"rt": -1, "trial_type": "single-stim", "stimulus": "", "internal_node_id": "0.0-55.0-0.0", "time_elapsed": 474735, "key_press": -1, "type": "PRE_RECALL_DELAY", "trial_index": 73}, "uniqueid": "MTK2975:3PWWM24LHT5TU3TTJPGX8YJ2PR6824", "dateTime": 1519609532033}, {"current_trial": 74, "trialdata": {"rt": -1000, "trial_type": "single-audio", "stimulus": "/static/audio/400Hz.wav", "internal_node_id": "0.0-56.0", "time_elapsed": 475236, "key_press": -1, "type": "PRE_RECALL_ALERT", "trial_index": 74}, "uniqueid": "MTK2975:3PWWM24LHT5TU3TTJPGX8YJ2PR6824", "dateTime": 1519609532534}, {"current_trial": 75, "trialdata": {"rt": [4050, 6610, 8227, 10650, 13426, 15682, 17882, 19570, 22290, 25618, 31370, 34962], "recwords": ["pliers", "orange", "wife", "shorts", "zebra", "lava", "river", "lake", "raft", "waitress", "stove", "bacon"], "key_times": [2259, 2403, 2619, 2834, 3027, 3538, 4050, 4531, 4674, 4954, 5075, 5283, 5338, 6610, 7195, 7331, 7474, 7643, 8227, 8994, 9138, 9331, 9451, 9699, 9850, 10650, 12034, 12259, 12507, 12603, 12818, 13426, 13946, 14050, 14410, 14995, 15682, 16627, 16731, 16979, 17067, 17107, 17882, 18363, 18443, 18571, 18675, 19570, 21379, 21587, 21667, 21746, 22290, 23003, 23419, 23610, 23810, 24482, 24603, 24826, 25042, 25243, 25403, 25618, 27251, 27698, 27866, 28291, 28331, 31370, 33842, 33946, 34154, 34250, 34417, 34962], "trial_type": "free-recall", "conditions": [18, 1200, "v", 18000], "internal_node_id": "0.0-57.0-0.0", "key_presses": [80, 76, 73, 69, 82, 83, 13, 79, 82, 65, 78, 71, 69, 13, 87, 73, 70, 69, 13, 83, 72, 79, 82, 84, 83, 13, 90, 69, 66, 82, 65, 13, 76, 65, 86, 65, 13, 82, 73, 86, 69, 82, 13, 76, 65, 75, 69, 13, 82, 65, 70, 84, 13, 65, 8, 87, 65, 73, 84, 82, 69, 83, 83, 13, 83, 84, 79, 86, 69, 13, 66, 65, 67, 79, 78, 13], "trial": 1, "time_elapsed": 535239, "type": "FREE_RECALL", "trial_index": 75}, "uniqueid": "MTK2975:3PWWM24LHT5TU3TTJPGX8YJ2PR6824", "dateTime": 1519609592538}, {"current_trial": 76, "trialdata": {"rt": 10670, "trial_type": "text", "internal_node_id": "0.0-58.0", "time_elapsed": 547911, "key_press": 13, "type": "INSTRUCTIONS", "trial_index": 76}, "uniqueid": "MTK2975:3PWWM24LHT5TU3TTJPGX8YJ2PR6824", "dateTime": 1519609605209}, {"current_trial": 77, "trialdata": {"rt": [2935, 5110, 8559, 11678], "trial_type": "math-distractor", "key_times": [2062, 2182, 2935, 4703, 5110, 8215, 8367, 8559, 11391, 11471, 11678], "responses": ["16", "9", "16", "13"], "num2": [6, 1, 5, 2, 2], "num3": [6, 2, 4, 4, 4], "conditions": [12, 800, "v", 12000], "internal_node_id": "0.0-59.0", "key_presses": [97, 102, 13, 105, 13, 97, 102, 13, 97, 99, 13], "trial": 2, "time_elapsed": 560913, "type": "DISTRACTOR", "trial_index": 77, "num1": [4, 6, 7, 7, 3]}, "uniqueid": "MTK2975:3PWWM24LHT5TU3TTJPGX8YJ2PR6824", "dateTime": 1519609618212}, {"current_trial": 78, "trialdata": {"rt": -1, "trial_type": "single-stim", "stimulus": "<p id=\"stim\">10</p>", "internal_node_id": "0.0-60.0-0.0", "time_elapsed": 563916, "key_press": -1, "trial_index": 78}, "uniqueid": "MTK2975:3PWWM24LHT5TU3TTJPGX8YJ2PR6824", "dateTime": 1519609621214}, {"current_trial": 79, "trialdata": {"rt": -1, "trial_type": "single-stim", "stimulus": "<p id=\"stim\">9</p>", "internal_node_id": "0.0-60.0-1.0", "time_elapsed": 564917, "key_press": -1, "trial_index": 79}, "uniqueid": "MTK2975:3PWWM24LHT5TU3TTJPGX8YJ2PR6824", "dateTime": 1519609622215}, {"current_trial": 80, "trialdata": {"rt": -1, "trial_type": "single-stim", "stimulus": "<p id=\"stim\">8</p>", "internal_node_id": "0.0-60.0-2.0", "time_elapsed": 565920, "key_press": -1, "trial_index": 80}, "uniqueid": "MTK2975:3PWWM24LHT5TU3TTJPGX8YJ2PR6824", "dateTime": 1519609623218}, {"current_trial": 81, "trialdata": {"rt": -1, "trial_type": "single-stim", "stimulus": "<p id=\"stim\">7</p>", "internal_node_id": "0.0-60.0-3.0", "time_elapsed": 566921, "key_press": -1, "trial_index": 81}, "uniqueid": "MTK2975:3PWWM24LHT5TU3TTJPGX8YJ2PR6824", "dateTime": 1519609624219}, {"current_trial": 82, "trialdata": {"rt": -1, "trial_type": "single-stim", "stimulus": "<p id=\"stim\">6</p>", "internal_node_id": "0.0-60.0-4.0", "time_elapsed": 567923, "key_press": -1, "trial_index": 82}, "uniqueid": "MTK2975:3PWWM24LHT5TU3TTJPGX8YJ2PR6824", "dateTime": 1519609625221}, {"current_trial": 83, "trialdata": {"rt": -1, "trial_type": "single-stim", "stimulus": "<p id=\"stim\">5</p>", "internal_node_id": "0.0-60.0-5.0", "time_elapsed": 568924, "key_press": -1, "trial_index": 83}, "uniqueid": "MTK2975:3PWWM24LHT5TU3TTJPGX8YJ2PR6824", "dateTime": 1519609626222}, {"current_trial": 84, "trialdata": {"rt": -1, "trial_type": "single-stim", "stimulus": "<p id=\"stim\">4</p>", "internal_node_id": "0.0-60.0-6.0", "time_elapsed": 569925, "key_press": -1, "trial_index": 84}, "uniqueid": "MTK2975:3PWWM24LHT5TU3TTJPGX8YJ2PR6824", "dateTime": 1519609627223}, {"current_trial": 85, "trialdata": {"rt": -1, "trial_type": "single-stim", "stimulus": "<p id=\"stim\">3</p>", "internal_node_id": "0.0-60.0-7.0", "time_elapsed": 570927, "key_press": -1, "trial_index": 85}, "uniqueid": "MTK2975:3PWWM24LHT5TU3TTJPGX8YJ2PR6824", "dateTime": 1519609628225}, {"current_trial": 86, "trialdata": {"rt": -1, "trial_type": "single-stim", "stimulus": "<p id=\"stim\">2</p>", "internal_node_id": "0.0-60.0-8.0", "time_elapsed": 571928, "key_press": -1, "trial_index": 86}, "uniqueid": "MTK2975:3PWWM24LHT5TU3TTJPGX8YJ2PR6824", "dateTime": 1519609629226}, {"current_trial": 87, "trialdata": {"rt": -1, "trial_type": "single-stim", "stimulus": "<p id=\"stim\">1</p>", "internal_node_id": "0.0-60.0-9.0", "time_elapsed": 572930, "key_press": -1, "trial_index": 87}, "uniqueid": "MTK2975:3PWWM24LHT5TU3TTJPGX8YJ2PR6824", "dateTime": 1519609630228}, {"current_trial": 88, "trialdata": {"rt": -1, "trial_type": "single-stim", "stimulus": "<p id=\"stim\">+</p>", "internal_node_id": "0.0-61.0-0.0", "time_elapsed": 574430, "key_press": -1, "type": "FIXATION", "trial_index": 88}, "uniqueid": "MTK2975:3PWWM24LHT5TU3TTJPGX8YJ2PR6824", "dateTime": 1519609631729}, {"current_trial": 89, "trialdata": {"rt": -1, "trial_type": "single-stim", "word": "dust", "stimulus": "<p id=\"stim\">DUST</p>", "conditions": [12, 800, "v", 12000], "internal_node_id": "0.0-62.0", "trial": 2, "time_elapsed": 575231, "serialpos": 0, "key_press": -1, "wordID": 507, "type": "PRES_VIS", "trial_index": 89}, "uniqueid": "MTK2975:3PWWM24LHT5TU3TTJPGX8YJ2PR6824", "dateTime": 1519609632529}, {"current_trial": 90, "trialdata": {"rt": -1, "trial_type": "single-stim", "word": "piston", "stimulus": "<p id=\"stim\">PISTON</p>", "conditions": [12, 800, "v", 12000], "internal_node_id": "0.0-63.0", "trial": 2, "time_elapsed": 577110, "serialpos": 1, "key_press": -1, "wordID": 1075, "type": "PRES_VIS", "trial_index": 90}, "uniqueid": "MTK2975:3PWWM24LHT5TU3TTJPGX8YJ2PR6824", "dateTime": 1519609634408}, {"current_trial": 91, "trialdata": {"rt": -1, "trial_type": "single-stim", "word": "dentist", "stimulus": "<p id=\"stim\">DENTIST</p>", "conditions": [12, 800, "v", 12000], "internal_node_id": "0.0-64.0", "trial": 2, "time_elapsed": 578988, "serialpos": 2, "key_press": -1, "wordID": 446, "type": "PRES_VIS", "trial_index": 91}, "uniqueid": "MTK2975:3PWWM24LHT5TU3TTJPGX8YJ2PR6824", "dateTime": 1519609636287}, {"current_trial": 92, "trialdata": {"rt": -1, "trial_type": "single-stim", "word": "elbow", "stimulus": "<p id=\"stim\">ELBOW</p>", "conditions": [12, 800, "v", 12000], "internal_node_id": "0.0-65.0", "trial": 2, "time_elapsed": 580948, "serialpos": 3, "key_press": -1, "wordID": 519, "type": "PRES_VIS", "trial_index": 92}, "uniqueid": "MTK2975:3PWWM24LHT5TU3TTJPGX8YJ2PR6824", "dateTime": 1519609638246}, {"current_trial": 93, "trialdata": {"rt": -1, "trial_type": "single-stim", "word": "valve", "stimulus": "<p id=\"stim\">VALVE</p>", "conditions": [12, 800, "v", 12000], "internal_node_id": "0.0-66.0", "trial": 2, "time_elapsed": 582879, "serialpos": 4, "key_press": -1, "wordID": 1545, "type": "PRES_VIS", "trial_index": 93}, "uniqueid": "MTK2975:3PWWM24LHT5TU3TTJPGX8YJ2PR6824", "dateTime": 1519609640177}, {"current_trial": 94, "trialdata": {"rt": -1, "trial_type": "single-stim", "word": "wrist", "stimulus": "<p id=\"stim\">WRIST</p>", "conditions": [12, 800, "v", 12000], "internal_node_id": "0.0-67.0", "trial": 2, "time_elapsed": 584584, "serialpos": 5, "key_press": -1, "wordID": 1625, "type": "PRES_VIS", "trial_index": 94}, "uniqueid": "MTK2975:3PWWM24LHT5TU3TTJPGX8YJ2PR6824", "dateTime": 1519609641882}, {"current_trial": 95, "trialdata": {"rt": -1, "trial_type": "single-stim", "word": "finger", "stimulus": "<p id=\"stim\">FINGER</p>", "conditions": [12, 800, "v", 12000], "internal_node_id": "0.0-68.0", "trial": 2, "time_elapsed": 586428, "serialpos": 6, "key_press": -1, "wordID": 566, "type": "PRES_VIS", "trial_index": 95}, "uniqueid": "MTK2975:3PWWM24LHT5TU3TTJPGX8YJ2PR6824", "dateTime": 1519609643726}, {"current_trial": 96, "trialdata": {"rt": -1, "trial_type": "single-stim", "word": "boyfriend", "stimulus": "<p id=\"stim\">BOYFRIEND</p>", "conditions": [12, 800, "v", 12000], "internal_node_id": "0.0-69.0", "trial": 2, "time_elapsed": 588339, "serialpos": 7, "key_press": -1, "wordID": 161, "type": "PRES_VIS", "trial_index": 96}, "uniqueid": "MTK2975:3PWWM24LHT5TU3TTJPGX8YJ2PR6824", "dateTime": 1519609645637}, {"current_trial": 97, "trialdata": {"rt": -1, "trial_type": "single-stim", "word": "sidewalk", "stimulus": "<p id=\"stim\">SIDEWALK</p>", "conditions": [12, 800, "v", 12000], "internal_node_id": "0.0-70.0", "trial": 2, "time_elapsed": 590139, "serialpos": 8, "key_press": -1, "wordID": 1302, "type": "PRES_VIS", "trial_index": 97}, "uniqueid": "MTK2975:3PWWM24LHT5TU3TTJPGX8YJ2PR6824", "dateTime": 1519609647437}, {"current_trial": 98, "trialdata": {"rt": -1, "trial_type": "single-stim", "word": "pizza", "stimulus": "<p id=\"stim\">PIZZA</p>", "conditions": [12, 800, "v", 12000], "internal_node_id": "0.0-71.0", "trial": 2, "time_elapsed": 591925, "serialpos": 9, "key_press": -1, "wordID": 1078, "type": "PRES_VIS", "trial_index": 98}, "uniqueid": "MTK2975:3PWWM24LHT5TU3TTJPGX8YJ2PR6824", "dateTime": 1519609649223}, {"current_trial": 99, "trialdata": {"rt": -1, "trial_type": "single-stim", "word": "scarf", "stimulus": "<p id=\"stim\">SCARF</p>", "conditions": [12, 800, "v", 12000], "internal_node_id": "0.0-72.0", "trial": 2, "time_elapsed": 593616, "serialpos": 10, "key_press": -1, "wordID": 1245, "type": "PRES_VIS", "trial_index": 99}, "uniqueid": "MTK2975:3PWWM24LHT5TU3TTJPGX8YJ2PR6824", "dateTime": 1519609650915}, {"current_trial": 100, "trialdata": {"rt": -1, "trial_type": "single-stim", "word": "leopard", "stimulus": "<p id=\"stim\">LEOPARD</p>", "conditions": [12, 800, "v", 12000], "internal_node_id": "0.0-73.0", "trial": 2, "time_elapsed": 595219, "serialpos": 11, "key_press": -1, "wordID": 811, "type": "PRES_VIS", "trial_index": 100}, "uniqueid": "MTK2975:3PWWM24LHT5TU3TTJPGX8YJ2PR6824", "dateTime": 1519609652517}, {"current_trial": 101, "trialdata": {"rt": -1, "trial_type": "single-stim", "stimulus": "", "internal_node_id": "0.0-74.0-0.0", "time_elapsed": 597588, "key_press": -1, "type": "PRE_RECALL_DELAY", "trial_index": 101}, "uniqueid": "MTK2975:3PWWM24LHT5TU3TTJPGX8YJ2PR6824", "dateTime": 1519609654886}, {"current_trial": 102, "trialdata": {"rt": -1000, "trial_type": "single-audio", "stimulus": "/static/audio/400Hz.wav", "internal_node_id": "0.0-75.0", "time_elapsed": 598089, "key_press": -1, "type": "PRE_RECALL_ALERT", "trial_index": 102}, "uniqueid": "MTK2975:3PWWM24LHT5TU3TTJPGX8YJ2PR6824", "dateTime": 1519609655387}, {"current_trial": 103, "trialdata": {"rt": [2781, 7101, 10509, 13126, 15549, 18557, 25141], "recwords": ["scarf", "sidewalk", "boyfriend", "valve", "dust", "dentist", "wrist"], "key_times": [1382, 1581, 1781, 2005, 2221, 2781, 3822, 3965, 4454, 4541, 4957, 5158, 5309, 5461, 7101, 7525, 7717, 7925, 8181, 8326, 8509, 8693, 9077, 9173, 10509, 11261, 11429, 11638, 12046, 12325, 13126, 13693, 13814, 13941, 14093, 15549, 16780, 16965, 17061, 17197, 17349, 17549, 17750, 18557, 23293, 23581, 24021, 24286, 24430, 25141], "trial_type": "free-recall", "conditions": [12, 800, "v", 12000], "internal_node_id": "0.0-76.0-0.0", "key_presses": [83, 67, 65, 82, 70, 13, 83, 73, 68, 69, 87, 65, 76, 75, 13, 66, 79, 89, 70, 82, 73, 69, 78, 68, 13, 86, 65, 76, 86, 69, 13, 68, 85, 83, 84, 13, 68, 69, 78, 84, 73, 83, 84, 13, 87, 82, 73, 83, 84, 13], "trial": 2, "time_elapsed": 658092, "type": "FREE_RECALL", "trial_index": 103}, "uniqueid": "MTK2975:3PWWM24LHT5TU3TTJPGX8YJ2PR6824", "dateTime": 1519609715391}, {"current_trial": 104, "trialdata": {"rt": 42701, "trial_type": "text", "internal_node_id": "0.0-77.0", "time_elapsed": 702795, "key_press": 13, "type": "INSTRUCTIONS", "trial_index": 104}, "uniqueid": "MTK2975:3PWWM24LHT5TU3TTJPGX8YJ2PR6824", "dateTime": 1519609760093}, {"current_trial": 105, "trialdata": {"rt": [2394, 4196, 5692, 7219, 8835, 11644, 13355, 14859, 16603, 18459, 22187], "trial_type": "math-distractor", "key_times": [2100, 2235, 2394, 3971, 4196, 5403, 5555, 5692, 6940, 7067, 7219, 8476, 8643, 8835, 11308, 11476, 11644, 13099, 13355, 14531, 14684, 14859, 16267, 16436, 16603, 18155, 18244, 18459, 21836, 21947, 22187, 23932], "responses": ["11", "8", "11", "11", "19", "14", "8", "13", "10", "12", "22"], "num2": [3, 1, 1, 3, 9, 3, 3, 1, 3, 5, 9, 6], "num3": [4, 3, 7, 7, 1, 6, 4, 6, 1, 3, 8, 3], "conditions": [24, 1600, "v", 24000], "internal_node_id": "0.0-78.0", "key_presses": [97, 97, 13, 104, 13, 97, 97, 13, 97, 97, 13, 97, 105, 13, 97, 100, 13, 104, 13, 97, 99, 13, 97, 96, 13, 97, 98, 13, 98, 98, 13, 97], "trial": 3, "time_elapsed": 728797, "type": "DISTRACTOR", "trial_index": 105, "num1": [4, 4, 3, 1, 9, 5, 1, 6, 6, 4, 5, 7]}, "uniqueid": "MTK2975:3PWWM24LHT5TU3TTJPGX8YJ2PR6824", "dateTime": 1519609786095}, {"current_trial": 106, "trialdata": {"rt": -1, "trial_type": "single-stim", "stimulus": "<p id=\"stim\">10</p>", "internal_node_id": "0.0-79.0-0.0", "time_elapsed": 731799, "key_press": -1, "trial_index": 106}, "uniqueid": "MTK2975:3PWWM24LHT5TU3TTJPGX8YJ2PR6824", "dateTime": 1519609789097}, {"current_trial": 107, "trialdata": {"rt": -1, "trial_type": "single-stim", "stimulus": "<p id=\"stim\">9</p>", "internal_node_id": "0.0-79.0-1.0", "time_elapsed": 732800, "key_press": -1, "trial_index": 107}, "uniqueid": "MTK2975:3PWWM24LHT5TU3TTJPGX8YJ2PR6824", "dateTime": 1519609790098}, {"current_trial": 108, "trialdata": {"rt": -1, "trial_type": "single-stim", "stimulus": "<p id=\"stim\">8</p>", "internal_node_id": "0.0-79.0-2.0", "time_elapsed": 733801, "key_press": -1, "trial_index": 108}, "uniqueid": "MTK2975:3PWWM24LHT5TU3TTJPGX8YJ2PR6824", "dateTime": 1519609791099}, {"current_trial": 109, "trialdata": {"rt": -1, "trial_type": "single-stim", "stimulus": "<p id=\"stim\">7</p>", "internal_node_id": "0.0-79.0-3.0", "time_elapsed": 734802, "key_press": -1, "trial_index": 109}, "uniqueid": "MTK2975:3PWWM24LHT5TU3TTJPGX8YJ2PR6824", "dateTime": 1519609792100}, {"current_trial": 110, "trialdata": {"rt": -1, "trial_type": "single-stim", "stimulus": "<p id=\"stim\">6</p>", "internal_node_id": "0.0-79.0-4.0", "time_elapsed": 735804, "key_press": -1, "trial_index": 110}, "uniqueid": "MTK2975:3PWWM24LHT5TU3TTJPGX8YJ2PR6824", "dateTime": 1519609793102}, {"current_trial": 111, "trialdata": {"rt": -1, "trial_type": "single-stim", "stimulus": "<p id=\"stim\">5</p>", "internal_node_id": "0.0-79.0-5.0", "time_elapsed": 736805, "key_press": -1, "trial_index": 111}, "uniqueid": "MTK2975:3PWWM24LHT5TU3TTJPGX8YJ2PR6824", "dateTime": 1519609794103}, {"current_trial": 112, "trialdata": {"rt": -1, "trial_type": "single-stim", "stimulus": "<p id=\"stim\">4</p>", "internal_node_id": "0.0-79.0-6.0", "time_elapsed": 737805, "key_press": -1, "trial_index": 112}, "uniqueid": "MTK2975:3PWWM24LHT5TU3TTJPGX8YJ2PR6824", "dateTime": 1519609795103}, {"current_trial": 113, "trialdata": {"rt": -1, "trial_type": "single-stim", "stimulus": "<p id=\"stim\">3</p>", "internal_node_id": "0.0-79.0-7.0", "time_elapsed": 738807, "key_press": -1, "trial_index": 113}, "uniqueid": "MTK2975:3PWWM24LHT5TU3TTJPGX8YJ2PR6824", "dateTime": 1519609796105}, {"current_trial": 114, "trialdata": {"rt": -1, "trial_type": "single-stim", "stimulus": "<p id=\"stim\">2</p>", "internal_node_id": "0.0-79.0-8.0", "time_elapsed": 739807, "key_press": -1, "trial_index": 114}, "uniqueid": "MTK2975:3PWWM24LHT5TU3TTJPGX8YJ2PR6824", "dateTime": 1519609797105}, {"current_trial": 115, "trialdata": {"rt": -1, "trial_type": "single-stim", "stimulus": "<p id=\"stim\">1</p>", "internal_node_id": "0.0-79.0-9.0", "time_elapsed": 740809, "key_press": -1, "trial_index": 115}, "uniqueid": "MTK2975:3PWWM24LHT5TU3TTJPGX8YJ2PR6824", "dateTime": 1519609798107}, {"current_trial": 116, "trialdata": {"rt": -1, "trial_type": "single-stim", "stimulus": "<p id=\"stim\">+</p>", "internal_node_id": "0.0-80.0-0.0", "time_elapsed": 742309, "key_press": -1, "type": "FIXATION", "trial_index": 116}, "uniqueid": "MTK2975:3PWWM24LHT5TU3TTJPGX8YJ2PR6824", "dateTime": 1519609799607}, {"current_trial": 117, "trialdata": {"rt": -1, "trial_type": "single-stim", "word": "wrench", "stimulus": "<p id=\"stim\">WRENCH</p>", "conditions": [24, 1600, "v", 24000], "internal_node_id": "0.0-81.0", "trial": 3, "time_elapsed": 743911, "serialpos": 0, "key_press": -1, "wordID": 1624, "type": "PRES_VIS", "trial_index": 117}, "uniqueid": "MTK2975:3PWWM24LHT5TU3TTJPGX8YJ2PR6824", "dateTime": 1519609801209}, {"current_trial": 118, "trialdata": {"rt": -1, "trial_type": "single-stim", "word": "playground", "stimulus": "<p id=\"stim\">PLAYGROUND</p>", "conditions": [24, 1600, "v", 24000], "internal_node_id": "0.0-82.0", "trial": 3, "time_elapsed": 746697, "serialpos": 1, "key_press": -1, "wordID": 1086, "type": "PRES_VIS", "trial_index": 118}, "uniqueid": "MTK2975:3PWWM24LHT5TU3TTJPGX8YJ2PR6824", "dateTime": 1519609803995}, {"current_trial": 119, "trialdata": {"rt": -1, "trial_type": "single-stim", "word": "lamp", "stimulus": "<p id=\"stim\">LAMP</p>", "conditions": [24, 1600, "v", 24000], "internal_node_id": "0.0-83.0", "trial": 3, "time_elapsed": 749279, "serialpos": 2, "key_press": -1, "wordID": 797, "type": "PRES_VIS", "trial_index": 119}, "uniqueid": "MTK2975:3PWWM24LHT5TU3TTJPGX8YJ2PR6824", "dateTime": 1519609806578}, {"current_trial": 120, "trialdata": {"rt": -1, "trial_type": "single-stim", "word": "daughter", "stimulus": "<p id=\"stim\">DAUGHTER</p>", "conditions": [24, 1600, "v", 24000], "internal_node_id": "0.0-84.0", "trial": 3, "time_elapsed": 752060, "serialpos": 3, "key_press": -1, "wordID": 441, "type": "PRES_VIS", "trial_index": 120}, "uniqueid": "MTK2975:3PWWM24LHT5TU3TTJPGX8YJ2PR6824", "dateTime": 1519609809358}, {"current_trial": 121, "trialdata": {"rt": -1, "trial_type": "single-stim", "word": "body", "stimulus": "<p id=\"stim\">BODY</p>", "conditions": [24, 1600, "v", 24000], "internal_node_id": "0.0-85.0", "trial": 3, "time_elapsed": 754500, "serialpos": 4, "key_press": -1, "wordID": 144, "type": "PRES_VIS", "trial_index": 121}, "uniqueid": "MTK2975:3PWWM24LHT5TU3TTJPGX8YJ2PR6824", "dateTime": 1519609811798}, {"current_trial": 122, "trialdata": {"rt": -1, "trial_type": "single-stim", "word": "match", "stimulus": "<p id=\"stim\">MATCH</p>", "conditions": [24, 1600, "v", 24000], "internal_node_id": "0.0-86.0", "trial": 3, "time_elapsed": 757074, "serialpos": 5, "key_press": -1, "wordID": 877, "type": "PRES_VIS", "trial_index": 122}, "uniqueid": "MTK2975:3PWWM24LHT5TU3TTJPGX8YJ2PR6824", "dateTime": 1519609814372}, {"current_trial": 123, "trialdata": {"rt": -1, "trial_type": "single-stim", "word": "flask", "stimulus": "<p id=\"stim\">FLASK</p>", "conditions": [24, 1600, "v", 24000], "internal_node_id": "0.0-87.0", "trial": 3, "time_elapsed": 759874, "serialpos": 6, "key_press": -1, "wordID": 575, "type": "PRES_VIS", "trial_index": 123}, "uniqueid": "MTK2975:3PWWM24LHT5TU3TTJPGX8YJ2PR6824", "dateTime": 1519609817172}, {"current_trial": 124, "trialdata": {"rt": -1, "trial_type": "single-stim", "word": "rattle", "stimulus": "<p id=\"stim\">RATTLE</p>", "conditions": [24, 1600, "v", 24000], "internal_node_id": "0.0-88.0", "trial": 3, "time_elapsed": 762400, "serialpos": 7, "key_press": -1, "wordID": 1169, "type": "PRES_VIS", "trial_index": 124}, "uniqueid": "MTK2975:3PWWM24LHT5TU3TTJPGX8YJ2PR6824", "dateTime": 1519609819698}, {"current_trial": 125, "trialdata": {"rt": -1, "trial_type": "single-stim", "word": "peach", "stimulus": "<p id=\"stim\">PEACH</p>", "conditions": [24, 1600, "v", 24000], "internal_node_id": "0.0-89.0", "trial": 3, "time_elapsed": 765091, "serialpos": 8, "key_press": -1, "wordID": 1030, "type": "PRES_VIS", "trial_index": 125}, "uniqueid": "MTK2975:3PWWM24LHT5TU3TTJPGX8YJ2PR6824", "dateTime": 1519609822389}, {"current_trial": 126, "trialdata": {"rt": -1, "trial_type": "single-stim", "word": "beaker", "stimulus": "<p id=\"stim\">BEAKER</p>", "conditions": [24, 1600, "v", 24000], "internal_node_id": "0.0-90.0", "trial": 3, "time_elapsed": 767612, "serialpos": 9, "key_press": -1, "wordID": 103, "type": "PRES_VIS", "trial_index": 126}, "uniqueid": "MTK2975:3PWWM24LHT5TU3TTJPGX8YJ2PR6824", "dateTime": 1519609824910}, {"current_trial": 127, "trialdata": {"rt": -1, "trial_type": "single-stim", "word": "cod", "stimulus": "<p id=\"stim\">COD</p>", "conditions": [24, 1600, "v", 24000], "internal_node_id": "0.0-91.0", "trial": 3, "time_elapsed": 770198, "serialpos": 10, "key_press": -1, "wordID": 339, "type": "PRES_VIS", "trial_index": 127}, "uniqueid": "MTK2975:3PWWM24LHT5TU3TTJPGX8YJ2PR6824", "dateTime": 1519609827496}, {"current_trial": 128, "trialdata": {"rt": -1, "trial_type": "single-stim", "word": "seafood", "stimulus": "<p id=\"stim\">SEAFOOD</p>", "conditions": [24, 1600, "v", 24000], "internal_node_id": "0.0-92.0", "trial": 3, "time_elapsed": 772928, "serialpos": 11, "key_press": -1, "wordID": 1259, "type": "PRES_VIS", "trial_index": 128}, "uniqueid": "MTK2975:3PWWM24LHT5TU3TTJPGX8YJ2PR6824", "dateTime": 1519609830227}, {"current_trial": 129, "trialdata": {"rt": -1, "trial_type": "single-stim", "word": "grave", "stimulus": "<p id=\"stim\">GRAVE</p>", "conditions": [24, 1600, "v", 24000], "internal_node_id": "0.0-93.0", "trial": 3, "time_elapsed": 775375, "serialpos": 12, "key_press": -1, "wordID": 657, "type": "PRES_VIS", "trial_index": 129}, "uniqueid": "MTK2975:3PWWM24LHT5TU3TTJPGX8YJ2PR6824", "dateTime": 1519609832673}, {"current_trial": 130, "trialdata": {"rt": -1, "trial_type": "single-stim", "word": "chapel", "stimulus": "<p id=\"stim\">CHAPEL</p>", "conditions": [24, 1600, "v", 24000], "internal_node_id": "0.0-94.0", "trial": 3, "time_elapsed": 778058, "serialpos": 13, "key_press": -1, "wordID": 279, "type": "PRES_VIS", "trial_index": 130}, "uniqueid": "MTK2975:3PWWM24LHT5TU3TTJPGX8YJ2PR6824", "dateTime": 1519609835356}, {"current_trial": 131, "trialdata": {"rt": -1, "trial_type": "single-stim", "word": "cattle", "stimulus": "<p id=\"stim\">CATTLE</p>", "conditions": [24, 1600, "v", 24000], "internal_node_id": "0.0-95.0", "trial": 3, "time_elapsed": 780683, "serialpos": 14, "key_press": -1, "wordID": 260, "type": "PRES_VIS", "trial_index": 131}, "uniqueid": "MTK2975:3PWWM24LHT5TU3TTJPGX8YJ2PR6824", "dateTime": 1519609837982}, {"current_trial": 132, "trialdata": {"rt": -1, "trial_type": "single-stim", "word": "pimple", "stimulus": "<p id=\"stim\">PIMPLE</p>", "conditions": [24, 1600, "v", 24000], "internal_node_id": "0.0-96.0", "trial": 3, "time_elapsed": 783358, "serialpos": 15, "key_press": -1, "wordID": 1070, "type": "PRES_VIS", "trial_index": 132}, "uniqueid": "MTK2975:3PWWM24LHT5TU3TTJPGX8YJ2PR6824", "dateTime": 1519609840656}, {"current_trial": 133, "trialdata": {"rt": -1, "trial_type": "single-stim", "word": "rabbit", "stimulus": "<p id=\"stim\">RABBIT</p>", "conditions": [24, 1600, "v", 24000], "internal_node_id": "0.0-97.0", "trial": 3, "time_elapsed": 785841, "serialpos": 16, "key_press": -1, "wordID": 1151, "type": "PRES_VIS", "trial_index": 133}, "uniqueid": "MTK2975:3PWWM24LHT5TU3TTJPGX8YJ2PR6824", "dateTime": 1519609843139}, {"current_trial": 134, "trialdata": {"rt": -1, "trial_type": "single-stim", "word": "pigeon", "stimulus": "<p id=\"stim\">PIGEON</p>", "conditions": [24, 1600, "v", 24000], "internal_node_id": "0.0-98.0", "trial": 3, "time_elapsed": 788340, "serialpos": 17, "key_press": -1, "wordID": 1064, "type": "PRES_VIS", "trial_index": 134}, "uniqueid": "MTK2975:3PWWM24LHT5TU3TTJPGX8YJ2PR6824", "dateTime": 1519609845640}, {"current_trial": 135, "trialdata": {"rt": -1, "trial_type": "single-stim", "word": "bunny", "stimulus": "<p id=\"stim\">BUNNY</p>", "conditions": [24, 1600, "v", 24000], "internal_node_id": "0.0-99.0", "trial": 3, "time_elapsed": 791024, "serialpos": 18, "key_press": -1, "wordID": 197, "type": "PRES_VIS", "trial_index": 135}, "uniqueid": "MTK2975:3PWWM24LHT5TU3TTJPGX8YJ2PR6824", "dateTime": 1519609848322}, {"current_trial": 136, "trialdata": {"rt": -1, "trial_type": "single-stim", "word": "freckle", "stimulus": "<p id=\"stim\">FRECKLE</p>", "conditions": [24, 1600, "v", 24000], "internal_node_id": "0.0-100.0", "trial": 3, "time_elapsed": 793750, "serialpos": 19, "key_press": -1, "wordID": 601, "type": "PRES_VIS", "trial_index": 136}, "uniqueid": "MTK2975:3PWWM24LHT5TU3TTJPGX8YJ2PR6824", "dateTime": 1519609851048}, {"current_trial": 137, "trialdata": {"rt": -1, "trial_type": "single-stim", "word": "cottage", "stimulus": "<p id=\"stim\">COTTAGE</p>", "conditions": [24, 1600, "v", 24000], "internal_node_id": "0.0-101.0", "trial": 3, "time_elapsed": 796290, "serialpos": 20, "key_press": -1, "wordID": 383, "type": "PRES_VIS", "trial_index": 137}, "uniqueid": "MTK2975:3PWWM24LHT5TU3TTJPGX8YJ2PR6824", "dateTime": 1519609853588}, {"current_trial": 138, "trialdata": {"rt": -1, "trial_type": "single-stim", "word": "swimmer", "stimulus": "<p id=\"stim\">SWIMMER</p>", "conditions": [24, 1600, "v", 24000], "internal_node_id": "0.0-102.0", "trial": 3, "time_elapsed": 798765, "serialpos": 21, "key_press": -1, "wordID": 1419, "type": "PRES_VIS", "trial_index": 138}, "uniqueid": "MTK2975:3PWWM24LHT5TU3TTJPGX8YJ2PR6824", "dateTime": 1519609856063}, {"current_trial": 139, "trialdata": {"rt": -1, "trial_type": "single-stim", "word": "marker", "stimulus": "<p id=\"stim\">MARKER</p>", "conditions": [24, 1600, "v", 24000], "internal_node_id": "0.0-103.0", "trial": 3, "time_elapsed": 801494, "serialpos": 22, "key_press": -1, "wordID": 869, "type": "PRES_VIS", "trial_index": 139}, "uniqueid": "MTK2975:3PWWM24LHT5TU3TTJPGX8YJ2PR6824", "dateTime": 1519609858792}, {"current_trial": 140, "trialdata": {"rt": -1, "trial_type": "single-stim", "word": "shirt", "stimulus": "<p id=\"stim\">SHIRT</p>", "conditions": [24, 1600, "v", 24000], "internal_node_id": "0.0-104.0", "trial": 3, "time_elapsed": 804065, "serialpos": 23, "key_press": -1, "wordID": 1286, "type": "PRES_VIS", "trial_index": 140}, "uniqueid": "MTK2975:3PWWM24LHT5TU3TTJPGX8YJ2PR6824", "dateTime": 1519609861363}, {"current_trial": 141, "trialdata": {"rt": -1, "trial_type": "single-stim", "stimulus": "", "internal_node_id": "0.0-105.0-0.0", "time_elapsed": 806350, "key_press": -1, "type": "PRE_RECALL_DELAY", "trial_index": 141}, "uniqueid": "MTK2975:3PWWM24LHT5TU3TTJPGX8YJ2PR6824", "dateTime": 1519609863648}, {"current_trial": 142, "trialdata": {"rt": -1000, "trial_type": "single-audio", "stimulus": "/static/audio/400Hz.wav", "internal_node_id": "0.0-106.0", "time_elapsed": 806852, "key_press": -1, "type": "PRE_RECALL_ALERT", "trial_index": 142}, "uniqueid": "MTK2975:3PWWM24LHT5TU3TTJPGX8YJ2PR6824", "dateTime": 1519609864150}, {"current_trial": 143, "trialdata": {"rt": [4834, 6890, 8866, 10394, 12563, 15386, 17938, 20779, 23482, 28218, 29779, 32866, 35114, 41921], "recwords": ["marker", "shirt", "grave", "cod", "wrench", "lamp", "body", "rattle", "swimmer", "freckle", "cattle", "peach", "chapel", "beaker"], "key_times": [1770, 1890, 2082, 2633, 3162, 3186, 3634, 4322, 4482, 4666, 4834, 5225, 5450, 5595, 5874, 5977, 6890, 7602, 7794, 7922, 8386, 8523, 8866, 9082, 9282, 9411, 10394, 10922, 11130, 11306, 11433, 11641, 11770, 12563, 13283, 13363, 13554, 13714, 15386, 16394, 16602, 16890, 16995, 17938, 18745, 18834, 19065, 19210, 19882, 19922, 20779, 22298, 22466, 22594, 22794, 22946, 23065, 23226, 23482, 25090, 25979, 26186, 26626, 26962, 27146, 27338, 28218, 28802, 28922, 29026, 29138, 29538, 29618, 29779, 31313, 31489, 31715, 31938, 32266, 32866, 33162, 33306, 33434, 33714, 33962, 34058, 35114, 40610, 40882, 41066, 41370, 41554, 41722, 41921], "trial_type": "free-recall", "conditions": [24, 1600, "v", 24000], "internal_node_id": "0.0-107.0-0.0", "key_presses": [77, 65, 82, 69, 8, 187, 8, 75, 69, 82, 13, 83, 72, 73, 82, 84, 13, 71, 82, 65, 86, 69, 13, 67, 79, 68, 13, 87, 82, 69, 78, 67, 72, 13, 76, 65, 77, 80, 13, 66, 79, 68, 89, 13, 82, 65, 84, 84, 76, 69, 13, 83, 87, 73, 77, 77, 69, 82, 13, 70, 82, 69, 67, 75, 76, 69, 13, 67, 65, 84, 84, 76, 69, 13, 80, 69, 65, 67, 72, 13, 67, 72, 65, 80, 69, 76, 13, 66, 69, 65, 75, 69, 82, 13], "trial": 3, "time_elapsed": 866854, "type": "FREE_RECALL", "trial_index": 143}, "uniqueid": "MTK2975:3PWWM24LHT5TU3TTJPGX8YJ2PR6824", "dateTime": 1519609924152}, {"current_trial": 144, "trialdata": {"rt": 1072, "trial_type": "text", "internal_node_id": "0.0-108.0", "time_elapsed": 869928, "key_press": 13, "type": "INSTRUCTIONS", "trial_index": 144}, "uniqueid": "MTK2975:3PWWM24LHT5TU3TTJPGX8YJ2PR6824", "dateTime": 1519609927226}, {"current_trial": 145, "trialdata": {"rt": [1581, 3277, 4637, 7149, 11501, 13973, 15590, 18413, 20550, 22741], "trial_type": "math-distractor", "key_times": [1381, 1581, 2981, 3134, 3277, 4453, 4637, 6390, 6589, 7149, 11166, 11317, 11501, 13629, 13773, 13973, 15237, 15413, 15590, 18069, 18214, 18413, 20237, 20381, 20550, 22389, 22549, 22741], "responses": ["6", "11", "5", "17", "21", "13", "10", "16", "13", "15"], "num2": [2, 3, 1, 7, 6, 2, 7, 1, 3, 8, 6], "num3": [1, 2, 1, 3, 7, 3, 2, 7, 4, 5, 2], "conditions": [12, 800, "v", 24000], "internal_node_id": "0.0-109.0", "key_presses": [102, 13, 97, 97, 13, 101, 13, 97, 103, 13, 98, 97, 13, 97, 99, 13, 97, 96, 13, 97, 102, 13, 97, 99, 13, 97, 101, 13], "trial": 4, "time_elapsed": 895931, "type": "DISTRACTOR", "trial_index": 145, "num1": [3, 6, 3, 9, 8, 8, 1, 8, 6, 2, 1]}, "uniqueid": "MTK2975:3PWWM24LHT5TU3TTJPGX8YJ2PR6824", "dateTime": 1519609953229}, {"current_trial": 146, "trialdata": {"rt": -1, "trial_type": "single-stim", "stimulus": "<p id=\"stim\">10</p>", "internal_node_id": "0.0-110.0-0.0", "time_elapsed": 898934, "key_press": -1, "trial_index": 146}, "uniqueid": "MTK2975:3PWWM24LHT5TU3TTJPGX8YJ2PR6824", "dateTime": 1519609956232}, {"current_trial": 147, "trialdata": {"rt": -1, "trial_type": "single-stim", "stimulus": "<p id=\"stim\">9</p>", "internal_node_id": "0.0-110.0-1.0", "time_elapsed": 899935, "key_press": -1, "trial_index": 147}, "uniqueid": "MTK2975:3PWWM24LHT5TU3TTJPGX8YJ2PR6824", "dateTime": 1519609957233}, {"current_trial": 148, "trialdata": {"rt": -1, "trial_type": "single-stim", "stimulus": "<p id=\"stim\">8</p>", "internal_node_id": "0.0-110.0-2.0", "time_elapsed": 900936, "key_press": -1, "trial_index": 148}, "uniqueid": "MTK2975:3PWWM24LHT5TU3TTJPGX8YJ2PR6824", "dateTime": 1519609958234}, {"current_trial": 149, "trialdata": {"rt": -1, "trial_type": "single-stim", "stimulus": "<p id=\"stim\">7</p>", "internal_node_id": "0.0-110.0-3.0", "time_elapsed": 901937, "key_press": -1, "trial_index": 149}, "uniqueid": "MTK2975:3PWWM24LHT5TU3TTJPGX8YJ2PR6824", "dateTime": 1519609959235}, {"current_trial": 150, "trialdata": {"rt": -1, "trial_type": "single-stim", "stimulus": "<p id=\"stim\">6</p>", "internal_node_id": "0.0-110.0-4.0", "time_elapsed": 902938, "key_press": -1, "trial_index": 150}, "uniqueid": "MTK2975:3PWWM24LHT5TU3TTJPGX8YJ2PR6824", "dateTime": 1519609960236}, {"current_trial": 151, "trialdata": {"rt": -1, "trial_type": "single-stim", "stimulus": "<p id=\"stim\">5</p>", "internal_node_id": "0.0-110.0-5.0", "time_elapsed": 903940, "key_press": -1, "trial_index": 151}, "uniqueid": "MTK2975:3PWWM24LHT5TU3TTJPGX8YJ2PR6824", "dateTime": 1519609961238}, {"current_trial": 152, "trialdata": {"rt": -1, "trial_type": "single-stim", "stimulus": "<p id=\"stim\">4</p>", "internal_node_id": "0.0-110.0-6.0", "time_elapsed": 904941, "key_press": -1, "trial_index": 152}, "uniqueid": "MTK2975:3PWWM24LHT5TU3TTJPGX8YJ2PR6824", "dateTime": 1519609962239}, {"current_trial": 153, "trialdata": {"rt": -1, "trial_type": "single-stim", "stimulus": "<p id=\"stim\">3</p>", "internal_node_id": "0.0-110.0-7.0", "time_elapsed": 905943, "key_press": -1, "trial_index": 153}, "uniqueid": "MTK2975:3PWWM24LHT5TU3TTJPGX8YJ2PR6824", "dateTime": 1519609963241}, {"current_trial": 154, "trialdata": {"rt": -1, "trial_type": "single-stim", "stimulus": "<p id=\"stim\">2</p>", "internal_node_id": "0.0-110.0-8.0", "time_elapsed": 906945, "key_press": -1, "trial_index": 154}, "uniqueid": "MTK2975:3PWWM24LHT5TU3TTJPGX8YJ2PR6824", "dateTime": 1519609964243}, {"current_trial": 155, "trialdata": {"rt": -1, "trial_type": "single-stim", "stimulus": "<p id=\"stim\">1</p>", "internal_node_id": "0.0-110.0-9.0", "time_elapsed": 907945, "key_press": -1, "trial_index": 155}, "uniqueid": "MTK2975:3PWWM24LHT5TU3TTJPGX8YJ2PR6824", "dateTime": 1519609965243}, {"current_trial": 156, "trialdata": {"rt": -1, "trial_type": "single-stim", "stimulus": "<p id=\"stim\">+</p>", "internal_node_id": "0.0-111.0-0.0", "time_elapsed": 909447, "key_press": -1, "type": "FIXATION", "trial_index": 156}, "uniqueid": "MTK2975:3PWWM24LHT5TU3TTJPGX8YJ2PR6824", "dateTime": 1519609966745}, {"current_trial": 157, "trialdata": {"rt": -1, "trial_type": "single-stim", "word": "lunch", "stimulus": "<p id=\"stim\">LUNCH</p>", "conditions": [12, 800, "v", 24000], "internal_node_id": "0.0-112.0", "trial": 4, "time_elapsed": 910248, "serialpos": 0, "key_press": -1, "wordID": 848, "type": "PRES_VIS", "trial_index": 157}, "uniqueid": "MTK2975:3PWWM24LHT5TU3TTJPGX8YJ2PR6824", "dateTime": 1519609967546}, {"current_trial": 158, "trialdata": {"rt": -1, "trial_type": "single-stim", "word": "supper", "stimulus": "<p id=\"stim\">SUPPER</p>", "conditions": [12, 800, "v", 24000], "internal_node_id": "0.0-113.0", "trial": 4, "time_elapsed": 912176, "serialpos": 1, "key_press": -1, "wordID": 1410, "type": "PRES_VIS", "trial_index": 158}, "uniqueid": "MTK2975:3PWWM24LHT5TU3TTJPGX8YJ2PR6824", "dateTime": 1519609969474}, {"current_trial": 159, "trialdata": {"rt": -1, "trial_type": "single-stim", "word": "jury", "stimulus": "<p id=\"stim\">JURY</p>", "conditions": [12, 800, "v", 24000], "internal_node_id": "0.0-114.0", "trial": 4, "time_elapsed": 913793, "serialpos": 2, "key_press": -1, "wordID": 765, "type": "PRES_VIS", "trial_index": 159}, "uniqueid": "MTK2975:3PWWM24LHT5TU3TTJPGX8YJ2PR6824", "dateTime": 1519609971091}, {"current_trial": 160, "trialdata": {"rt": -1, "trial_type": "single-stim", "word": "princess", "stimulus": "<p id=\"stim\">PRINCESS</p>", "conditions": [12, 800, "v", 24000], "internal_node_id": "0.0-115.0", "trial": 4, "time_elapsed": 915771, "serialpos": 3, "key_press": -1, "wordID": 1124, "type": "PRES_VIS", "trial_index": 160}, "uniqueid": "MTK2975:3PWWM24LHT5TU3TTJPGX8YJ2PR6824", "dateTime": 1519609973069}, {"current_trial": 161, "trialdata": {"rt": -1, "trial_type": "single-stim", "word": "ointment", "stimulus": "<p id=\"stim\">OINTMENT</p>", "conditions": [12, 800, "v", 24000], "internal_node_id": "0.0-116.0", "trial": 4, "time_elapsed": 917586, "serialpos": 4, "key_press": -1, "wordID": 973, "type": "PRES_VIS", "trial_index": 161}, "uniqueid": "MTK2975:3PWWM24LHT5TU3TTJPGX8YJ2PR6824", "dateTime": 1519609974884}, {"current_trial": 162, "trialdata": {"rt": -1, "trial_type": "single-stim", "word": "barley", "stimulus": "<p id=\"stim\">BARLEY</p>", "conditions": [12, 800, "v", 24000], "internal_node_id": "0.0-117.0", "trial": 4, "time_elapsed": 919560, "serialpos": 5, "key_press": -1, "wordID": 87, "type": "PRES_VIS", "trial_index": 162}, "uniqueid": "MTK2975:3PWWM24LHT5TU3TTJPGX8YJ2PR6824", "dateTime": 1519609976858}, {"current_trial": 163, "trialdata": {"rt": -1, "trial_type": "single-stim", "word": "flower", "stimulus": "<p id=\"stim\">FLOWER</p>", "conditions": [12, 800, "v", 24000], "internal_node_id": "0.0-118.0", "trial": 4, "time_elapsed": 921196, "serialpos": 6, "key_press": -1, "wordID": 583, "type": "PRES_VIS", "trial_index": 163}, "uniqueid": "MTK2975:3PWWM24LHT5TU3TTJPGX8YJ2PR6824", "dateTime": 1519609978495}, {"current_trial": 164, "trialdata": {"rt": -1, "trial_type": "single-stim", "word": "diner", "stimulus": "<p id=\"stim\">DINER</p>", "conditions": [12, 800, "v", 24000], "internal_node_id": "0.0-119.0", "trial": 4, "time_elapsed": 922873, "serialpos": 7, "key_press": -1, "wordID": 466, "type": "PRES_VIS", "trial_index": 164}, "uniqueid": "MTK2975:3PWWM24LHT5TU3TTJPGX8YJ2PR6824", "dateTime": 1519609980171}, {"current_trial": 165, "trialdata": {"rt": -1, "trial_type": "single-stim", "word": "bucket", "stimulus": "<p id=\"stim\">BUCKET</p>", "conditions": [12, 800, "v", 24000], "internal_node_id": "0.0-120.0", "trial": 4, "time_elapsed": 924595, "serialpos": 8, "key_press": -1, "wordID": 183, "type": "PRES_VIS", "trial_index": 165}, "uniqueid": "MTK2975:3PWWM24LHT5TU3TTJPGX8YJ2PR6824", "dateTime": 1519609981893}, {"current_trial": 166, "trialdata": {"rt": -1, "trial_type": "single-stim", "word": "robber", "stimulus": "<p id=\"stim\">ROBBER</p>", "conditions": [12, 800, "v", 24000], "internal_node_id": "0.0-121.0", "trial": 4, "time_elapsed": 926590, "serialpos": 9, "key_press": -1, "wordID": 1196, "type": "PRES_VIS", "trial_index": 166}, "uniqueid": "MTK2975:3PWWM24LHT5TU3TTJPGX8YJ2PR6824", "dateTime": 1519609983888}, {"current_trial": 167, "trialdata": {"rt": -1, "trial_type": "single-stim", "word": "sandwich", "stimulus": "<p id=\"stim\">SANDWICH</p>", "conditions": [12, 800, "v", 24000], "internal_node_id": "0.0-122.0", "trial": 4, "time_elapsed": 928532, "serialpos": 10, "key_press": -1, "wordID": 1231, "type": "PRES_VIS", "trial_index": 167}, "uniqueid": "MTK2975:3PWWM24LHT5TU3TTJPGX8YJ2PR6824", "dateTime": 1519609985831}, {"current_trial": 168, "trialdata": {"rt": -1, "trial_type": "single-stim", "word": "student", "stimulus": "<p id=\"stim\">STUDENT</p>", "conditions": [12, 800, "v", 24000], "internal_node_id": "0.0-123.0", "trial": 4, "time_elapsed": 930237, "serialpos": 11, "key_press": -1, "wordID": 1394, "type": "PRES_VIS", "trial_index": 168}, "uniqueid": "MTK2975:3PWWM24LHT5TU3TTJPGX8YJ2PR6824", "dateTime": 1519609987535}, {"current_trial": 169, "trialdata": {"rt": -1, "trial_type": "single-stim", "stimulus": "", "internal_node_id": "0.0-124.0-0.0", "time_elapsed": 932606, "key_press": -1, "type": "PRE_RECALL_DELAY", "trial_index": 169}, "uniqueid": "MTK2975:3PWWM24LHT5TU3TTJPGX8YJ2PR6824", "dateTime": 1519609989904}, {"current_trial": 170, "trialdata": {"rt": -1000, "trial_type": "single-audio", "stimulus": "/static/audio/400Hz.wav", "internal_node_id": "0.0-125.0", "time_elapsed": 933107, "key_press": -1, "type": "PRE_RECALL_ALERT", "trial_index": 170}, "uniqueid": "MTK2975:3PWWM24LHT5TU3TTJPGX8YJ2PR6824", "dateTime": 1519609990405}, {"current_trial": 171, "trialdata": {"rt": [2995, 6395, 9162, 11516, 14171, 16195, 21747, 26187, 30468, 32316], "recwords": ["sandwich", "robber", "diner", "lunch", "jury", "princess", "ointment", "supper", "dinner", "lunch"], "key_times": [699, 899, 1018, 1212, 1507, 1667, 1947, 2155, 2995, 4523, 4651, 4915, 5076, 5195, 5372, 6395, 7211, 7356, 7515, 7635, 7828, 9162, 9603, 9812, 10018, 10315, 10451, 11516, 12036, 12219, 12555, 12755, 14171, 14707, 14899, 15107, 15243, 15507, 15731, 15939, 16099, 16195, 16962, 17147, 17355, 17779, 18084, 18899, 19555, 19803, 20171, 20371, 20875, 21035, 21747, 25155, 25283, 25571, 25707, 25811, 25994, 26187, 29555, 29692, 29876, 29994, 30098, 30275, 30468, 31123, 31323, 31523, 31779, 31884, 32316], "trial_type": "free-recall", "conditions": [12, 800, "v", 24000], "internal_node_id": "0.0-126.0-0.0", "key_presses": [83, 65, 78, 68, 87, 73, 67, 72, 13, 82, 79, 66, 66, 69, 82, 13, 68, 73, 78, 69, 82, 13, 76, 85, 78, 67, 72, 13, 74, 85, 82, 89, 13, 80, 82, 73, 78, 67, 69, 83, 83, 13, 79, 73, 78, 84, 69, 8, 77, 78, 8, 69, 78, 84, 13, 83, 85, 80, 80, 69, 82, 13, 68, 73, 78, 78, 69, 82, 13, 76, 85, 78, 67, 72, 13], "trial": 4, "time_elapsed": 993109, "type": "FREE_RECALL", "trial_index": 171}, "uniqueid": "MTK2975:3PWWM24LHT5TU3TTJPGX8YJ2PR6824", "dateTime": 1519610050409}, {"current_trial": 172, "trialdata": {"rt": 4855, "trial_type": "text", "internal_node_id": "0.0-127.0", "time_elapsed": 999968, "key_press": 13, "type": "INSTRUCTIONS", "trial_index": 172}, "uniqueid": "MTK2975:3PWWM24LHT5TU3TTJPGX8YJ2PR6824", "dateTime": 1519610057266}, {"current_trial": 173, "trialdata": {"rt": [3958, 5582, 10430], "trial_type": "math-distractor", "key_times": [3566, 3751, 3958, 5230, 5413, 5582, 9614, 9846, 10430, 11982], "responses": ["23", "10", "17"], "num2": [6, 1, 6, 5], "num3": [8, 2, 4, 3], "conditions": [12, 800, "v", 12000], "internal_node_id": "0.0-128.0", "key_presses": [98, 99, 13, 97, 96, 13, 97, 103, 13, 97], "trial": 5, "time_elapsed": 1013969, "type": "DISTRACTOR", "trial_index": 173, "num1": [9, 7, 7, 7]}, "uniqueid": "MTK2975:3PWWM24LHT5TU3TTJPGX8YJ2PR6824", "dateTime": 1519610071267}, {"current_trial": 174, "trialdata": {"rt": -1, "trial_type": "single-stim", "stimulus": "<p id=\"stim\">10</p>", "internal_node_id": "0.0-129.0-0.0", "time_elapsed": 1016972, "key_press": -1, "trial_index": 174}, "uniqueid": "MTK2975:3PWWM24LHT5TU3TTJPGX8YJ2PR6824", "dateTime": 1519610074270}, {"current_trial": 175, "trialdata": {"rt": -1, "trial_type": "single-stim", "stimulus": "<p id=\"stim\">9</p>", "internal_node_id": "0.0-129.0-1.0", "time_elapsed": 1017973, "key_press": -1, "trial_index": 175}, "uniqueid": "MTK2975:3PWWM24LHT5TU3TTJPGX8YJ2PR6824", "dateTime": 1519610075271}, {"current_trial": 176, "trialdata": {"rt": -1, "trial_type": "single-stim", "stimulus": "<p id=\"stim\">8</p>", "internal_node_id": "0.0-129.0-2.0", "time_elapsed": 1018975, "key_press": -1, "trial_index": 176}, "uniqueid": "MTK2975:3PWWM24LHT5TU3TTJPGX8YJ2PR6824", "dateTime": 1519610076273}, {"current_trial": 177, "trialdata": {"rt": -1, "trial_type": "single-stim", "stimulus": "<p id=\"stim\">7</p>", "internal_node_id": "0.0-129.0-3.0", "time_elapsed": 1019976, "key_press": -1, "trial_index": 177}, "uniqueid": "MTK2975:3PWWM24LHT5TU3TTJPGX8YJ2PR6824", "dateTime": 1519610077274}, {"current_trial": 178, "trialdata": {"rt": -1, "trial_type": "single-stim", "stimulus": "<p id=\"stim\">6</p>", "internal_node_id": "0.0-129.0-4.0", "time_elapsed": 1020976, "key_press": -1, "trial_index": 178}, "uniqueid": "MTK2975:3PWWM24LHT5TU3TTJPGX8YJ2PR6824", "dateTime": 1519610078274}, {"current_trial": 179, "trialdata": {"rt": -1, "trial_type": "single-stim", "stimulus": "<p id=\"stim\">5</p>", "internal_node_id": "0.0-129.0-5.0", "time_elapsed": 1021977, "key_press": -1, "trial_index": 179}, "uniqueid": "MTK2975:3PWWM24LHT5TU3TTJPGX8YJ2PR6824", "dateTime": 1519610079275}, {"current_trial": 180, "trialdata": {"rt": -1, "trial_type": "single-stim", "stimulus": "<p id=\"stim\">4</p>", "internal_node_id": "0.0-129.0-6.0", "time_elapsed": 1022977, "key_press": -1, "trial_index": 180}, "uniqueid": "MTK2975:3PWWM24LHT5TU3TTJPGX8YJ2PR6824", "dateTime": 1519610080276}, {"current_trial": 181, "trialdata": {"rt": -1, "trial_type": "single-stim", "stimulus": "<p id=\"stim\">3</p>", "internal_node_id": "0.0-129.0-7.0", "time_elapsed": 1023978, "key_press": -1, "trial_index": 181}, "uniqueid": "MTK2975:3PWWM24LHT5TU3TTJPGX8YJ2PR6824", "dateTime": 1519610081276}, {"current_trial": 182, "trialdata": {"rt": -1, "trial_type": "single-stim", "stimulus": "<p id=\"stim\">2</p>", "internal_node_id": "0.0-129.0-8.0", "time_elapsed": 1024979, "key_press": -1, "trial_index": 182}, "uniqueid": "MTK2975:3PWWM24LHT5TU3TTJPGX8YJ2PR6824", "dateTime": 1519610082277}, {"current_trial": 183, "trialdata": {"rt": -1, "trial_type": "single-stim", "stimulus": "<p id=\"stim\">1</p>", "internal_node_id": "0.0-129.0-9.0", "time_elapsed": 1025981, "key_press": -1, "trial_index": 183}, "uniqueid": "MTK2975:3PWWM24LHT5TU3TTJPGX8YJ2PR6824", "dateTime": 1519610083279}, {"current_trial": 184, "trialdata": {"rt": -1, "trial_type": "single-stim", "stimulus": "<p id=\"stim\">+</p>", "internal_node_id": "0.0-130.0-0.0", "time_elapsed": 1027482, "key_press": -1, "type": "FIXATION", "trial_index": 184}, "uniqueid": "MTK2975:3PWWM24LHT5TU3TTJPGX8YJ2PR6824", "dateTime": 1519610084780}, {"current_trial": 185, "trialdata": {"rt": -1, "trial_type": "single-stim", "word": "heart", "stimulus": "<p id=\"stim\">HEART</p>", "conditions": [12, 800, "v", 12000], "internal_node_id": "0.0-131.0", "trial": 5, "time_elapsed": 1028283, "serialpos": 0, "key_press": -1, "wordID": 696, "type": "PRES_VIS", "trial_index": 185}, "uniqueid": "MTK2975:3PWWM24LHT5TU3TTJPGX8YJ2PR6824", "dateTime": 1519610085581}, {"current_trial": 186, "trialdata": {"rt": -1, "trial_type": "single-stim", "word": "scalpel", "stimulus": "<p id=\"stim\">SCALPEL</p>", "conditions": [12, 800, "v", 12000], "internal_node_id": "0.0-132.0", "trial": 5, "time_elapsed": 1030023, "serialpos": 1, "key_press": -1, "wordID": 1242, "type": "PRES_VIS", "trial_index": 186}, "uniqueid": "MTK2975:3PWWM24LHT5TU3TTJPGX8YJ2PR6824", "dateTime": 1519610087321}, {"current_trial": 187, "trialdata": {"rt": -1, "trial_type": "single-stim", "word": "rod", "stimulus": "<p id=\"stim\">ROD</p>", "conditions": [12, 800, "v", 12000], "internal_node_id": "0.0-133.0", "trial": 5, "time_elapsed": 1031942, "serialpos": 2, "key_press": -1, "wordID": 1202, "type": "PRES_VIS", "trial_index": 187}, "uniqueid": "MTK2975:3PWWM24LHT5TU3TTJPGX8YJ2PR6824", "dateTime": 1519610089240}, {"current_trial": 188, "trialdata": {"rt": -1, "trial_type": "single-stim", "word": "comet", "stimulus": "<p id=\"stim\">COMET</p>", "conditions": [12, 800, "v", 12000], "internal_node_id": "0.0-134.0", "trial": 5, "time_elapsed": 1033692, "serialpos": 3, "key_press": -1, "wordID": 352, "type": "PRES_VIS", "trial_index": 188}, "uniqueid": "MTK2975:3PWWM24LHT5TU3TTJPGX8YJ2PR6824", "dateTime": 1519610090990}, {"current_trial": 189, "trialdata": {"rt": -1, "trial_type": "single-stim", "word": "igloo", "stimulus": "<p id=\"stim\">IGLOO</p>", "conditions": [12, 800, "v", 12000], "internal_node_id": "0.0-135.0", "trial": 5, "time_elapsed": 1035644, "serialpos": 4, "key_press": -1, "wordID": 733, "type": "PRES_VIS", "trial_index": 189}, "uniqueid": "MTK2975:3PWWM24LHT5TU3TTJPGX8YJ2PR6824", "dateTime": 1519610092943}, {"current_trial": 190, "trialdata": {"rt": -1, "trial_type": "single-stim", "word": "snail", "stimulus": "<p id=\"stim\">SNAIL</p>", "conditions": [12, 800, "v", 12000], "internal_node_id": "0.0-136.0", "trial": 5, "time_elapsed": 1037322, "serialpos": 5, "key_press": -1, "wordID": 1331, "type": "PRES_VIS", "trial_index": 190}, "uniqueid": "MTK2975:3PWWM24LHT5TU3TTJPGX8YJ2PR6824", "dateTime": 1519610094621}, {"current_trial": 191, "trialdata": {"rt": -1, "trial_type": "single-stim", "word": "sunrise", "stimulus": "<p id=\"stim\">SUNRISE</p>", "conditions": [12, 800, "v", 12000], "internal_node_id": "0.0-137.0", "trial": 5, "time_elapsed": 1039184, "serialpos": 6, "key_press": -1, "wordID": 1406, "type": "PRES_VIS", "trial_index": 191}, "uniqueid": "MTK2975:3PWWM24LHT5TU3TTJPGX8YJ2PR6824", "dateTime": 1519610096482}, {"current_trial": 192, "trialdata": {"rt": -1, "trial_type": "single-stim", "word": "sunset", "stimulus": "<p id=\"stim\">SUNSET</p>", "conditions": [12, 800, "v", 12000], "internal_node_id": "0.0-138.0", "trial": 5, "time_elapsed": 1041009, "serialpos": 7, "key_press": -1, "wordID": 1407, "type": "PRES_VIS", "trial_index": 192}, "uniqueid": "MTK2975:3PWWM24LHT5TU3TTJPGX8YJ2PR6824", "dateTime": 1519610098307}, {"current_trial": 193, "trialdata": {"rt": -1, "trial_type": "single-stim", "word": "notebook", "stimulus": "<p id=\"stim\">NOTEBOOK</p>", "conditions": [12, 800, "v", 12000], "internal_node_id": "0.0-139.0", "trial": 5, "time_elapsed": 1042845, "serialpos": 8, "key_press": -1, "wordID": 958, "type": "PRES_VIS", "trial_index": 193}, "uniqueid": "MTK2975:3PWWM24LHT5TU3TTJPGX8YJ2PR6824", "dateTime": 1519610100143}, {"current_trial": 194, "trialdata": {"rt": -1, "trial_type": "single-stim", "word": "wardrobe", "stimulus": "<p id=\"stim\">WARDROBE</p>", "conditions": [12, 800, "v", 12000], "internal_node_id": "0.0-140.0", "trial": 5, "time_elapsed": 1044502, "serialpos": 9, "key_press": -1, "wordID": 1586, "type": "PRES_VIS", "trial_index": 194}, "uniqueid": "MTK2975:3PWWM24LHT5TU3TTJPGX8YJ2PR6824", "dateTime": 1519610101800}, {"current_trial": 195, "trialdata": {"rt": -1, "trial_type": "single-stim", "word": "spool", "stimulus": "<p id=\"stim\">SPOOL</p>", "conditions": [12, 800, "v", 12000], "internal_node_id": "0.0-141.0", "trial": 5, "time_elapsed": 1046445, "serialpos": 10, "key_press": -1, "wordID": 1355, "type": "PRES_VIS", "trial_index": 195}, "uniqueid": "MTK2975:3PWWM24LHT5TU3TTJPGX8YJ2PR6824", "dateTime": 1519610103743}, {"current_trial": 196, "trialdata": {"rt": -1, "trial_type": "single-stim", "word": "portrait", "stimulus": "<p id=\"stim\">PORTRAIT</p>", "conditions": [12, 800, "v", 12000], "internal_node_id": "0.0-142.0", "trial": 5, "time_elapsed": 1048361, "serialpos": 11, "key_press": -1, "wordID": 1110, "type": "PRES_VIS", "trial_index": 196}, "uniqueid": "MTK2975:3PWWM24LHT5TU3TTJPGX8YJ2PR6824", "dateTime": 1519610105659}, {"current_trial": 197, "trialdata": {"rt": -1, "trial_type": "single-stim", "stimulus": "", "internal_node_id": "0.0-143.0-0.0", "time_elapsed": 1050828, "key_press": -1, "type": "PRE_RECALL_DELAY", "trial_index": 197}, "uniqueid": "MTK2975:3PWWM24LHT5TU3TTJPGX8YJ2PR6824", "dateTime": 1519610108126}, {"current_trial": 198, "trialdata": {"rt": -1000, "trial_type": "single-audio", "stimulus": "/static/audio/400Hz.wav", "internal_node_id": "0.0-144.0", "time_elapsed": 1051330, "key_press": -1, "type": "PRE_RECALL_ALERT", "trial_index": 198}, "uniqueid": "MTK2975:3PWWM24LHT5TU3TTJPGX8YJ2PR6824", "dateTime": 1519610108628}, {"current_trial": 199, "trialdata": {"rt": [3348, 6076, 8556, 10204, 12859, 15261, 17364, 21515], "recwords": ["portrait", "sunrise", "sunset", "heart", "scalpel", "rod", "snail", "comet"], "key_times": [996, 1172, 1347, 1636, 1860, 2092, 2300, 2940, 3348, 3900, 4100, 4268, 4588, 4739, 4972, 5124, 5220, 5852, 6076, 6772, 6948, 7116, 7396, 7604, 7915, 8556, 9148, 9268, 9484, 9604, 9772, 10204, 10508, 10700, 10988, 11156, 11332, 11459, 11692, 12859, 14116, 14300, 14532, 15261, 15740, 15900, 16004, 16124, 16276, 17364, 20613, 20739, 20908, 21052, 21268, 21515], "trial_type": "free-recall", "conditions": [12, 800, "v", 12000], "internal_node_id": "0.0-145.0-0.0", "key_presses": [80, 79, 82, 84, 82, 65, 73, 84, 13, 83, 85, 78, 82, 73, 83, 69, 69, 8, 13, 83, 85, 78, 83, 69, 84, 13, 72, 69, 65, 82, 84, 13, 83, 67, 65, 76, 80, 69, 76, 13, 82, 79, 68, 13, 83, 78, 65, 73, 76, 13, 67, 79, 77, 69, 84, 13], "trial": 5, "time_elapsed": 1111332, "type": "FREE_RECALL", "trial_index": 199}, "uniqueid": "MTK2975:3PWWM24LHT5TU3TTJPGX8YJ2PR6824", "dateTime": 1519610168632}, {"current_trial": 200, "trialdata": {"rt": 601521, "trial_type": "text", "internal_node_id": "0.0-146.0", "time_elapsed": 1714855, "key_press": 13, "type": "INSTRUCTIONS", "trial_index": 200}, "uniqueid": "MTK2975:3PWWM24LHT5TU3TTJPGX8YJ2PR6824", "dateTime": 1519610772153}, {"current_trial": 201, "trialdata": {"rt": [3095, 5639, 8094, 11094, 12735, 15502, 17614, 20982, 23862], "trial_type": "math-distractor", "key_times": [1983, 2878, 3095, 5414, 5639, 7703, 7879, 8094, 10750, 10902, 11094, 12406, 12581, 12735, 15206, 15262, 15502, 17207, 17391, 17614, 20590, 20735, 20982, 23486, 23646, 23862], "responses": ["18", "9", "19", "22", "11", "21", "18", "15", "19"], "num2": [2, 2, 3, 7, 6, 6, 3, 8, 7, 9], "num3": [9, 5, 8, 7, 4, 8, 7, 1, 4, 5], "conditions": [12, 800, "v", 24000], "internal_node_id": "0.0-147.0", "key_presses": [97, 104, 13, 105, 13, 97, 105, 13, 98, 98, 13, 97, 97, 13, 98, 97, 13, 97, 104, 13, 97, 101, 13, 97, 105, 13], "trial": 6, "time_elapsed": 1740857, "type": "DISTRACTOR", "trial_index": 201, "num1": [7, 2, 8, 8, 1, 7, 8, 6, 8, 1]}, "uniqueid": "MTK2975:3PWWM24LHT5TU3TTJPGX8YJ2PR6824", "dateTime": 1519610798156}, {"current_trial": 202, "trialdata": {"rt": -1, "trial_type": "single-stim", "stimulus": "<p id=\"stim\">10</p>", "internal_node_id": "0.0-148.0-0.0", "time_elapsed": 1743859, "key_press": -1, "trial_index": 202}, "uniqueid": "MTK2975:3PWWM24LHT5TU3TTJPGX8YJ2PR6824", "dateTime": 1519610801157}, {"current_trial": 203, "trialdata": {"rt": -1, "trial_type": "single-stim", "stimulus": "<p id=\"stim\">9</p>", "internal_node_id": "0.0-148.0-1.0", "time_elapsed": 1744860, "key_press": -1, "trial_index": 203}, "uniqueid": "MTK2975:3PWWM24LHT5TU3TTJPGX8YJ2PR6824", "dateTime": 1519610802158}, {"current_trial": 204, "trialdata": {"rt": -1, "trial_type": "single-stim", "stimulus": "<p id=\"stim\">8</p>", "internal_node_id": "0.0-148.0-2.0", "time_elapsed": 1745861, "key_press": -1, "trial_index": 204}, "uniqueid": "MTK2975:3PWWM24LHT5TU3TTJPGX8YJ2PR6824", "dateTime": 1519610803159}, {"current_trial": 205, "trialdata": {"rt": -1, "trial_type": "single-stim", "stimulus": "<p id=\"stim\">7</p>", "internal_node_id": "0.0-148.0-3.0", "time_elapsed": 1746862, "key_press": -1, "trial_index": 205}, "uniqueid": "MTK2975:3PWWM24LHT5TU3TTJPGX8YJ2PR6824", "dateTime": 1519610804160}, {"current_trial": 206, "trialdata": {"rt": -1, "trial_type": "single-stim", "stimulus": "<p id=\"stim\">6</p>", "internal_node_id": "0.0-148.0-4.0", "time_elapsed": 1747863, "key_press": -1, "trial_index": 206}, "uniqueid": "MTK2975:3PWWM24LHT5TU3TTJPGX8YJ2PR6824", "dateTime": 1519610805161}, {"current_trial": 207, "trialdata": {"rt": -1, "trial_type": "single-stim", "stimulus": "<p id=\"stim\">5</p>", "internal_node_id": "0.0-148.0-5.0", "time_elapsed": 1748865, "key_press": -1, "trial_index": 207}, "uniqueid": "MTK2975:3PWWM24LHT5TU3TTJPGX8YJ2PR6824", "dateTime": 1519610806163}, {"current_trial": 208, "trialdata": {"rt": -1, "trial_type": "single-stim", "stimulus": "<p id=\"stim\">4</p>", "internal_node_id": "0.0-148.0-6.0", "time_elapsed": 1749865, "key_press": -1, "trial_index": 208}, "uniqueid": "MTK2975:3PWWM24LHT5TU3TTJPGX8YJ2PR6824", "dateTime": 1519610807163}, {"current_trial": 209, "trialdata": {"rt": -1, "trial_type": "single-stim", "stimulus": "<p id=\"stim\">3</p>", "internal_node_id": "0.0-148.0-7.0", "time_elapsed": 1750866, "key_press": -1, "trial_index": 209}, "uniqueid": "MTK2975:3PWWM24LHT5TU3TTJPGX8YJ2PR6824", "dateTime": 1519610808164}, {"current_trial": 210, "trialdata": {"rt": -1, "trial_type": "single-stim", "stimulus": "<p id=\"stim\">2</p>", "internal_node_id": "0.0-148.0-8.0", "time_elapsed": 1751868, "key_press": -1, "trial_index": 210}, "uniqueid": "MTK2975:3PWWM24LHT5TU3TTJPGX8YJ2PR6824", "dateTime": 1519610809166}, {"current_trial": 211, "trialdata": {"rt": -1, "trial_type": "single-stim", "stimulus": "<p id=\"stim\">1</p>", "internal_node_id": "0.0-148.0-9.0", "time_elapsed": 1752869, "key_press": -1, "trial_index": 211}, "uniqueid": "MTK2975:3PWWM24LHT5TU3TTJPGX8YJ2PR6824", "dateTime": 1519610810167}, {"current_trial": 212, "trialdata": {"rt": -1, "trial_type": "single-stim", "stimulus": "<p id=\"stim\">+</p>", "internal_node_id": "0.0-149.0-0.0", "time_elapsed": 1754369, "key_press": -1, "type": "FIXATION", "trial_index": 212}, "uniqueid": "MTK2975:3PWWM24LHT5TU3TTJPGX8YJ2PR6824", "dateTime": 1519610811667}, {"current_trial": 213, "trialdata": {"rt": -1, "trial_type": "single-stim", "word": "monster", "stimulus": "<p id=\"stim\">MONSTER</p>", "conditions": [12, 800, "v", 24000], "internal_node_id": "0.0-150.0", "trial": 6, "time_elapsed": 1755171, "serialpos": 0, "key_press": -1, "wordID": 911, "type": "PRES_VIS", "trial_index": 213}, "uniqueid": "MTK2975:3PWWM24LHT5TU3TTJPGX8YJ2PR6824", "dateTime": 1519610812469}, {"current_trial": 214, "trialdata": {"rt": -1, "trial_type": "single-stim", "word": "muffin", "stimulus": "<p id=\"stim\">MUFFIN</p>", "conditions": [12, 800, "v", 24000], "internal_node_id": "0.0-151.0", "trial": 6, "time_elapsed": 1756958, "serialpos": 1, "key_press": -1, "wordID": 928, "type": "PRES_VIS", "trial_index": 214}, "uniqueid": "MTK2975:3PWWM24LHT5TU3TTJPGX8YJ2PR6824", "dateTime": 1519610814256}, {"current_trial": 215, "trialdata": {"rt": -1, "trial_type": "single-stim", "word": "marsh", "stimulus": "<p id=\"stim\">MARSH</p>", "conditions": [12, 800, "v", 24000], "internal_node_id": "0.0-152.0", "trial": 6, "time_elapsed": 1758902, "serialpos": 2, "key_press": -1, "wordID": 873, "type": "PRES_VIS", "trial_index": 215}, "uniqueid": "MTK2975:3PWWM24LHT5TU3TTJPGX8YJ2PR6824", "dateTime": 1519610816200}, {"current_trial": 216, "trialdata": {"rt": -1, "trial_type": "single-stim", "word": "handbag", "stimulus": "<p id=\"stim\">HANDBAG</p>", "conditions": [12, 800, "v", 24000], "internal_node_id": "0.0-153.0", "trial": 6, "time_elapsed": 1760639, "serialpos": 3, "key_press": -1, "wordID": 683, "type": "PRES_VIS", "trial_index": 216}, "uniqueid": "MTK2975:3PWWM24LHT5TU3TTJPGX8YJ2PR6824", "dateTime": 1519610817938}, {"current_trial": 217, "trialdata": {"rt": -1, "trial_type": "single-stim", "word": "necklace", "stimulus": "<p id=\"stim\">NECKLACE</p>", "conditions": [12, 800, "v", 24000], "internal_node_id": "0.0-154.0", "trial": 6, "time_elapsed": 1762252, "serialpos": 4, "key_press": -1, "wordID": 939, "type": "PRES_VIS", "trial_index": 217}, "uniqueid": "MTK2975:3PWWM24LHT5TU3TTJPGX8YJ2PR6824", "dateTime": 1519610819550}, {"current_trial": 218, "trialdata": {"rt": -1, "trial_type": "single-stim", "word": "barrel", "stimulus": "<p id=\"stim\">BARREL</p>", "conditions": [12, 800, "v", 24000], "internal_node_id": "0.0-155.0", "trial": 6, "time_elapsed": 1764145, "serialpos": 5, "key_press": -1, "wordID": 90, "type": "PRES_VIS", "trial_index": 218}, "uniqueid": "MTK2975:3PWWM24LHT5TU3TTJPGX8YJ2PR6824", "dateTime": 1519610821443}, {"current_trial": 219, "trialdata": {"rt": -1, "trial_type": "single-stim", "word": "slug", "stimulus": "<p id=\"stim\">SLUG</p>", "conditions": [12, 800, "v", 24000], "internal_node_id": "0.0-156.0", "trial": 6, "time_elapsed": 1765863, "serialpos": 6, "key_press": -1, "wordID": 1328, "type": "PRES_VIS", "trial_index": 219}, "uniqueid": "MTK2975:3PWWM24LHT5TU3TTJPGX8YJ2PR6824", "dateTime": 1519610823161}, {"current_trial": 220, "trialdata": {"rt": -1, "trial_type": "single-stim", "word": "mattress", "stimulus": "<p id=\"stim\">MATTRESS</p>", "conditions": [12, 800, "v", 24000], "internal_node_id": "0.0-157.0", "trial": 6, "time_elapsed": 1767787, "serialpos": 7, "key_press": -1, "wordID": 878, "type": "PRES_VIS", "trial_index": 220}, "uniqueid": "MTK2975:3PWWM24LHT5TU3TTJPGX8YJ2PR6824", "dateTime": 1519610825085}, {"current_trial": 221, "trialdata": {"rt": -1, "trial_type": "single-stim", "word": "primate", "stimulus": "<p id=\"stim\">PRIMATE</p>", "conditions": [12, 800, "v", 24000], "internal_node_id": "0.0-158.0", "trial": 6, "time_elapsed": 1769461, "serialpos": 8, "key_press": -1, "wordID": 1122, "type": "PRES_VIS", "trial_index": 221}, "uniqueid": "MTK2975:3PWWM24LHT5TU3TTJPGX8YJ2PR6824", "dateTime": 1519610826759}, {"current_trial": 222, "trialdata": {"rt": -1, "trial_type": "single-stim", "word": "beast", "stimulus": "<p id=\"stim\">BEAST</p>", "conditions": [12, 800, "v", 24000], "internal_node_id": "0.0-159.0", "trial": 6, "time_elapsed": 1771441, "serialpos": 9, "key_press": -1, "wordID": 107, "type": "PRES_VIS", "trial_index": 222}, "uniqueid": "MTK2975:3PWWM24LHT5TU3TTJPGX8YJ2PR6824", "dateTime": 1519610828739}, {"current_trial": 223, "trialdata": {"rt": -1, "trial_type": "single-stim", "word": "pork", "stimulus": "<p id=\"stim\">PORK</p>", "conditions": [12, 800, "v", 24000], "internal_node_id": "0.0-160.0", "trial": 6, "time_elapsed": 1773091, "serialpos": 10, "key_press": -1, "wordID": 1107, "type": "PRES_VIS", "trial_index": 223}, "uniqueid": "MTK2975:3PWWM24LHT5TU3TTJPGX8YJ2PR6824", "dateTime": 1519610830389}, {"current_trial": 224, "trialdata": {"rt": -1, "trial_type": "single-stim", "word": "cabbage", "stimulus": "<p id=\"stim\">CABBAGE</p>", "conditions": [12, 800, "v", 24000], "internal_node_id": "0.0-161.0", "trial": 6, "time_elapsed": 1775052, "serialpos": 11, "key_press": -1, "wordID": 209, "type": "PRES_VIS", "trial_index": 224}, "uniqueid": "MTK2975:3PWWM24LHT5TU3TTJPGX8YJ2PR6824", "dateTime": 1519610832350}, {"current_trial": 225, "trialdata": {"rt": -1, "trial_type": "single-stim", "stimulus": "", "internal_node_id": "0.0-162.0-0.0", "time_elapsed": 1777337, "key_press": -1, "type": "PRE_RECALL_DELAY", "trial_index": 225}, "uniqueid": "MTK2975:3PWWM24LHT5TU3TTJPGX8YJ2PR6824", "dateTime": 1519610834635}, {"current_trial": 226, "trialdata": {"rt": -1000, "trial_type": "single-audio", "stimulus": "/static/audio/400Hz.wav", "internal_node_id": "0.0-163.0", "time_elapsed": 1777837, "key_press": -1, "type": "PRE_RECALL_ALERT", "trial_index": 226}, "uniqueid": "MTK2975:3PWWM24LHT5TU3TTJPGX8YJ2PR6824", "dateTime": 1519610835135}, {"current_trial": 227, "trialdata": {"rt": [2592, 5224, 7928, 10432, 12673, 15593, 19929], "recwords": ["cabbage", "pork", "beast", "slug", "barrell", "muffin", "mattress"], "key_times": [1049, 1208, 1344, 1497, 1592, 1728, 1872, 2592, 4361, 4440, 4864, 5024, 5224, 6192, 6337, 6560, 6753, 6857, 7928, 9297, 9521, 9761, 9945, 10432, 10904, 11024, 11192, 11328, 11520, 11793, 11928, 12673, 13737, 13937, 14240, 14408, 14505, 14624, 15593, 18192, 18272, 18456, 18601, 18760, 18880, 19096, 19248, 19929], "trial_type": "free-recall", "conditions": [12, 800, "v", 24000], "internal_node_id": "0.0-164.0-0.0", "key_presses": [67, 65, 66, 66, 65, 71, 69, 13, 80, 79, 82, 75, 13, 66, 69, 65, 83, 84, 13, 83, 76, 85, 71, 13, 66, 65, 82, 82, 69, 76, 76, 13, 77, 85, 70, 70, 73, 78, 13, 77, 65, 84, 84, 82, 69, 83, 83, 13], "trial": 6, "time_elapsed": 1837839, "type": "FREE_RECALL", "trial_index": 227}, "uniqueid": "MTK2975:3PWWM24LHT5TU3TTJPGX8YJ2PR6824", "dateTime": 1519610895139}, {"current_trial": 228, "trialdata": {"rt": 90556, "trial_type": "text", "internal_node_id": "0.0-165.0", "time_elapsed": 1930397, "key_press": 13, "type": "INSTRUCTIONS", "trial_index": 228}, "uniqueid": "MTK2975:3PWWM24LHT5TU3TTJPGX8YJ2PR6824", "dateTime": 1519610987696}, {"current_trial": 229, "trialdata": {"rt": [3399, 6383], "trial_type": "math-distractor", "key_times": [2983, 3199, 3399, 5607, 5726, 6383, 11607, 11822], "responses": ["17", "13"], "num2": [4, 4, 9], "num3": [7, 8, 8], "conditions": [24, 1600, "v", 12000], "internal_node_id": "0.0-166.0", "key_presses": [97, 103, 13, 97, 99, 13, 98, 99], "trial": 7, "time_elapsed": 1944400, "type": "DISTRACTOR", "trial_index": 229, "num1": [6, 1, 6]}, "uniqueid": "MTK2975:3PWWM24LHT5TU3TTJPGX8YJ2PR6824", "dateTime": 1519611001698}, {"current_trial": 230, "trialdata": {"rt": -1, "trial_type": "single-stim", "stimulus": "<p id=\"stim\">10</p>", "internal_node_id": "0.0-167.0-0.0", "time_elapsed": 1947403, "key_press": -1, "trial_index": 230}, "uniqueid": "MTK2975:3PWWM24LHT5TU3TTJPGX8YJ2PR6824", "dateTime": 1519611004701}, {"current_trial": 231, "trialdata": {"rt": -1, "trial_type": "single-stim", "stimulus": "<p id=\"stim\">9</p>", "internal_node_id": "0.0-167.0-1.0", "time_elapsed": 1948405, "key_press": -1, "trial_index": 231}, "uniqueid": "MTK2975:3PWWM24LHT5TU3TTJPGX8YJ2PR6824", "dateTime": 1519611005703}, {"current_trial": 232, "trialdata": {"rt": -1, "trial_type": "single-stim", "stimulus": "<p id=\"stim\">8</p>", "internal_node_id": "0.0-167.0-2.0", "time_elapsed": 1949407, "key_press": -1, "trial_index": 232}, "uniqueid": "MTK2975:3PWWM24LHT5TU3TTJPGX8YJ2PR6824", "dateTime": 1519611006705}, {"current_trial": 233, "trialdata": {"rt": -1, "trial_type": "single-stim", "stimulus": "<p id=\"stim\">7</p>", "internal_node_id": "0.0-167.0-3.0", "time_elapsed": 1950407, "key_press": -1, "trial_index": 233}, "uniqueid": "MTK2975:3PWWM24LHT5TU3TTJPGX8YJ2PR6824", "dateTime": 1519611007705}, {"current_trial": 234, "trialdata": {"rt": -1, "trial_type": "single-stim", "stimulus": "<p id=\"stim\">6</p>", "internal_node_id": "0.0-167.0-4.0", "time_elapsed": 1951409, "key_press": -1, "trial_index": 234}, "uniqueid": "MTK2975:3PWWM24LHT5TU3TTJPGX8YJ2PR6824", "dateTime": 1519611008708}, {"current_trial": 235, "trialdata": {"rt": -1, "trial_type": "single-stim", "stimulus": "<p id=\"stim\">5</p>", "internal_node_id": "0.0-167.0-5.0", "time_elapsed": 1952412, "key_press": -1, "trial_index": 235}, "uniqueid": "MTK2975:3PWWM24LHT5TU3TTJPGX8YJ2PR6824", "dateTime": 1519611009710}, {"current_trial": 236, "trialdata": {"rt": -1, "trial_type": "single-stim", "stimulus": "<p id=\"stim\">4</p>", "internal_node_id": "0.0-167.0-6.0", "time_elapsed": 1953414, "key_press": -1, "trial_index": 236}, "uniqueid": "MTK2975:3PWWM24LHT5TU3TTJPGX8YJ2PR6824", "dateTime": 1519611010712}, {"current_trial": 237, "trialdata": {"rt": -1, "trial_type": "single-stim", "stimulus": "<p id=\"stim\">3</p>", "internal_node_id": "0.0-167.0-7.0", "time_elapsed": 1954415, "key_press": -1, "trial_index": 237}, "uniqueid": "MTK2975:3PWWM24LHT5TU3TTJPGX8YJ2PR6824", "dateTime": 1519611011713}, {"current_trial": 238, "trialdata": {"rt": -1, "trial_type": "single-stim", "stimulus": "<p id=\"stim\">2</p>", "internal_node_id": "0.0-167.0-8.0", "time_elapsed": 1955416, "key_press": -1, "trial_index": 238}, "uniqueid": "MTK2975:3PWWM24LHT5TU3TTJPGX8YJ2PR6824", "dateTime": 1519611012714}, {"current_trial": 239, "trialdata": {"rt": -1, "trial_type": "single-stim", "stimulus": "<p id=\"stim\">1</p>", "internal_node_id": "0.0-167.0-9.0", "time_elapsed": 1956417, "key_press": -1, "trial_index": 239}, "uniqueid": "MTK2975:3PWWM24LHT5TU3TTJPGX8YJ2PR6824", "dateTime": 1519611013715}, {"current_trial": 240, "trialdata": {"rt": -1, "trial_type": "single-stim", "stimulus": "<p id=\"stim\">+</p>", "internal_node_id": "0.0-168.0-0.0", "time_elapsed": 1957918, "key_press": -1, "type": "FIXATION", "trial_index": 240}, "uniqueid": "MTK2975:3PWWM24LHT5TU3TTJPGX8YJ2PR6824", "dateTime": 1519611015217}, {"current_trial": 241, "trialdata": {"rt": -1, "trial_type": "single-stim", "word": "gravel", "stimulus": "<p id=\"stim\">GRAVEL</p>", "conditions": [24, 1600, "v", 12000], "internal_node_id": "0.0-169.0", "trial": 7, "time_elapsed": 1959520, "serialpos": 0, "key_press": -1, "wordID": 658, "type": "PRES_VIS", "trial_index": 241}, "uniqueid": "MTK2975:3PWWM24LHT5TU3TTJPGX8YJ2PR6824", "dateTime": 1519611016818}, {"current_trial": 242, "trialdata": {"rt": -1, "trial_type": "single-stim", "word": "shrub", "stimulus": "<p id=\"stim\">SHRUB</p>", "conditions": [24, 1600, "v", 12000], "internal_node_id": "0.0-170.0", "trial": 7, "time_elapsed": 1962162, "serialpos": 1, "key_press": -1, "wordID": 1298, "type": "PRES_VIS", "trial_index": 242}, "uniqueid": "MTK2975:3PWWM24LHT5TU3TTJPGX8YJ2PR6824", "dateTime": 1519611019460}, {"current_trial": 243, "trialdata": {"rt": -1, "trial_type": "single-stim", "word": "leg", "stimulus": "<p id=\"stim\">LEG</p>", "conditions": [24, 1600, "v", 12000], "internal_node_id": "0.0-171.0", "trial": 7, "time_elapsed": 1964657, "serialpos": 2, "key_press": -1, "wordID": 808, "type": "PRES_VIS", "trial_index": 243}, "uniqueid": "MTK2975:3PWWM24LHT5TU3TTJPGX8YJ2PR6824", "dateTime": 1519611021955}, {"current_trial": 244, "trialdata": {"rt": -1, "trial_type": "single-stim", "word": "cousin", "stimulus": "<p id=\"stim\">COUSIN</p>", "conditions": [24, 1600, "v", 12000], "internal_node_id": "0.0-172.0", "trial": 7, "time_elapsed": 1967203, "serialpos": 3, "key_press": -1, "wordID": 391, "type": "PRES_VIS", "trial_index": 244}, "uniqueid": "MTK2975:3PWWM24LHT5TU3TTJPGX8YJ2PR6824", "dateTime": 1519611024501}, {"current_trial": 245, "trialdata": {"rt": -1, "trial_type": "single-stim", "word": "fruit", "stimulus": "<p id=\"stim\">FRUIT</p>", "conditions": [24, 1600, "v", 12000], "internal_node_id": "0.0-173.0", "trial": 7, "time_elapsed": 1969697, "serialpos": 4, "key_press": -1, "wordID": 609, "type": "PRES_VIS", "trial_index": 245}, "uniqueid": "MTK2975:3PWWM24LHT5TU3TTJPGX8YJ2PR6824", "dateTime": 1519611026995}, {"current_trial": 246, "trialdata": {"rt": -1, "trial_type": "single-stim", "word": "apple", "stimulus": "<p id=\"stim\">APPLE</p>", "conditions": [24, 1600, "v", 12000], "internal_node_id": "0.0-174.0", "trial": 7, "time_elapsed": 1972376, "serialpos": 5, "key_press": -1, "wordID": 32, "type": "PRES_VIS", "trial_index": 246}, "uniqueid": "MTK2975:3PWWM24LHT5TU3TTJPGX8YJ2PR6824", "dateTime": 1519611029674}, {"current_trial": 247, "trialdata": {"rt": -1, "trial_type": "single-stim", "word": "tortoise", "stimulus": "<p id=\"stim\">TORTOISE</p>", "conditions": [24, 1600, "v", 12000], "internal_node_id": "0.0-175.0", "trial": 7, "time_elapsed": 1974981, "serialpos": 6, "key_press": -1, "wordID": 1485, "type": "PRES_VIS", "trial_index": 247}, "uniqueid": "MTK2975:3PWWM24LHT5TU3TTJPGX8YJ2PR6824", "dateTime": 1519611032279}, {"current_trial": 248, "trialdata": {"rt": -1, "trial_type": "single-stim", "word": "fragrance", "stimulus": "<p id=\"stim\">FRAGRANCE</p>", "conditions": [24, 1600, "v", 12000], "internal_node_id": "0.0-176.0", "trial": 7, "time_elapsed": 1977643, "serialpos": 7, "key_press": -1, "wordID": 598, "type": "PRES_VIS", "trial_index": 248}, "uniqueid": "MTK2975:3PWWM24LHT5TU3TTJPGX8YJ2PR6824", "dateTime": 1519611034942}, {"current_trial": 249, "trialdata": {"rt": -1, "trial_type": "single-stim", "word": "bubble", "stimulus": "<p id=\"stim\">BUBBLE</p>", "conditions": [24, 1600, "v", 12000], "internal_node_id": "0.0-177.0", "trial": 7, "time_elapsed": 1980063, "serialpos": 8, "key_press": -1, "wordID": 182, "type": "PRES_VIS", "trial_index": 249}, "uniqueid": "MTK2975:3PWWM24LHT5TU3TTJPGX8YJ2PR6824", "dateTime": 1519611037361}, {"current_trial": 250, "trialdata": {"rt": -1, "trial_type": "single-stim", "word": "kidney", "stimulus": "<p id=\"stim\">KIDNEY</p>", "conditions": [24, 1600, "v", 12000], "internal_node_id": "0.0-178.0", "trial": 7, "time_elapsed": 1982711, "serialpos": 9, "key_press": -1, "wordID": 775, "type": "PRES_VIS", "trial_index": 250}, "uniqueid": "MTK2975:3PWWM24LHT5TU3TTJPGX8YJ2PR6824", "dateTime": 1519611040009}, {"current_trial": 251, "trialdata": {"rt": -1, "trial_type": "single-stim", "word": "lizard", "stimulus": "<p id=\"stim\">LIZARD</p>", "conditions": [24, 1600, "v", 12000], "internal_node_id": "0.0-179.0", "trial": 7, "time_elapsed": 1985182, "serialpos": 10, "key_press": -1, "wordID": 833, "type": "PRES_VIS", "trial_index": 251}