{"assignmentId": "3XUHV3NRVL5EMBD94CC1JIFDCGHH5F", "workerId": "MTK2834", "questiondata": {"origin": "United States", "strat-rehearsal": "48", "marital": "Single", "education": "Some college", "ethnicity": "Not Hispanic", "color_depth": 24, "distracted": "No", "wrote-notes": "No", "strat-other": "", "screen_width": 1920, "avail_screen_width": 1920, "avail_screen_height": 1040, "strat-image": "100", "language": "English", "gender": "Female", "age": "32", "gender_other": "", "race": ["White"], "strat-categorize": "83", "pixel_depth": 24, "strat-spatial": "36", "strat-story": "91", "race_other": "", "screen_height": 1080}, "bonus": 0, "hitId": "3GL25Y684317TO00BD67EMI91P4XM8", "counterbalance": 2744, "useragent": "Mozilla/5.0 (Windows NT 10.0; Win64; x64) AppleWebKit/537.36 (KHTML, like Gecko) Chrome/61.0.3153.0 Safari/537.36", "eventdata": [{"eventtype": "initialized", "interval": 0, "value": null, "timestamp": 1519411412337}, {"eventtype": "window_resize", "interval": 0, "value": [1920, 989], "timestamp": 1519411412337}, {"eventtype": "focus", "interval": 1018, "value": "off", "timestamp": 1519411413355}, {"eventtype": "focus", "interval": 1694, "value": "on", "timestamp": 1519411415049}, {"eventtype": "focus", "interval": 92112, "value": "off", "timestamp": 1519411507161}, {"eventtype": "focus", "interval": 3925, "value": "on", "timestamp": 1519411511086}, {"eventtype": "focus", "interval": 178928, "value": "off", "timestamp": 1519411690014}, {"eventtype": "focus", "interval": 2222, "value": "on", "timestamp": 1519411692236}, {"eventtype": "focus", "interval": 113339, "value": "off", "timestamp": 1519411805575}, {"eventtype": "focus", "interval": 9163, "value": "on", "timestamp": 1519411814738}, {"eventtype": "focus", "interval": 169119, "value": "off", "timestamp": 1519411983857}, {"eventtype": "focus", "interval": 27166, "value": "on", "timestamp": 1519412011023}, {"eventtype": "focus", "interval": 270125, "value": "off", "timestamp": 1519412281148}, {"eventtype": "focus", "interval": 3143, "value": "on", "timestamp": 1519412284291}, {"eventtype": "focus", "interval": 29732, "value": "off", "timestamp": 1519412314023}, {"eventtype": "focus", "interval": 2902, "value": "on", "timestamp": 1519412316925}, {"eventtype": "focus", "interval": 450443, "value": "off", "timestamp": 1519412767368}, {"eventtype": "focus", "interval": 32167, "value": "on", "timestamp": 1519412799535}, {"eventtype": "focus", "interval": 2725, "value": "off", "timestamp": 1519412802260}, {"eventtype": "focus", "interval": 5470, "value": "on", "timestamp": 1519412807730}, {"eventtype": "focus", "interval": 415730, "value": "off", "timestamp": 1519413223460}, {"eventtype": "focus", "interval": 11262, "value": "on", "timestamp": 1519413234722}, {"eventtype": "focus", "interval": 203281, "value": "off", "timestamp": 1519413438003}, {"eventtype": "focus", "interval": 3632, "value": "on", "timestamp": 1519413441635}, {"eventtype": "focus", "interval": 139437, "value": "off", "timestamp": 1519413581072}, {"eventtype": "focus", "interval": 700, "value": "on", "timestamp": 1519413581772}, {"eventtype": "focus", "interval": 666, "value": "off", "timestamp": 1519413582438}, {"eventtype": "focus", "interval": 14806, "value": "on", "timestamp": 1519413597244}, {"eventtype": "focus", "interval": 216908, "value": "off", "timestamp": 1519413814152}, {"eventtype": "focus", "interval": 46407, "value": "on", "timestamp": 1519413860559}, {"eventtype": "focus", "interval": 168564, "value": "off", "timestamp": 1519414029123}, {"eventtype": "focus", "interval": 4633, "value": "on", "timestamp": 1519414033756}], "data": [{"current_trial": 0, "trialdata": {"rt": 4288, "trial_type": "text", "internal_node_id": "0.0-0.0", "time_elapsed": 4289, "key_press": 75, "type": "INSTRUCTIONS", "trial_index": 0}, "uniqueid": "MTK2834:3XUHV3NRVL5EMBD94CC1JIFDCGHH5F", "dateTime": 1519411417533}, {"current_trial": 1, "trialdata": {"rt": 19216, "trial_type": "text", "internal_node_id": "0.0-1.0", "time_elapsed": 23507, "key_press": 74, "type": "INSTRUCTIONS", "trial_index": 1}, "uniqueid": "MTK2834:3XUHV3NRVL5EMBD94CC1JIFDCGHH5F", "dateTime": 1519411436750}, {"current_trial": 2, "trialdata": {"rt": [9249], "trial_type": "audio-test", "responses": ["ocean"], "internal_node_id": "0.0-2.0", "time_elapsed": 32761, "type": "AUDIO_TEST", "trial_index": 2}, "uniqueid": "MTK2834:3XUHV3NRVL5EMBD94CC1JIFDCGHH5F", "dateTime": 1519411446004}, {"current_trial": 3, "trialdata": {"rt": [8439], "trial_type": "audio-test", "responses": ["crystal"], "internal_node_id": "0.0-3.0", "time_elapsed": 41203, "type": "AUDIO_TEST", "trial_index": 3}, "uniqueid": "MTK2834:3XUHV3NRVL5EMBD94CC1JIFDCGHH5F", "dateTime": 1519411454446}, {"current_trial": 4, "trialdata": {"rt": [3979], "trial_type": "audio-test", "responses": ["spice"], "internal_node_id": "0.0-4.0", "time_elapsed": 45185, "type": "AUDIO_TEST", "trial_index": 4}, "uniqueid": "MTK2834:3XUHV3NRVL5EMBD94CC1JIFDCGHH5F", "dateTime": 1519411458428}, {"current_trial": 5, "trialdata": {"rt": 21311, "trial_type": "survey-text", "responses": "{\"Q0\":\"3:00am\",\"Q1\":\"10:00am\",\"Q2\":\"4\"}", "internal_node_id": "0.0-5.0", "time_elapsed": 67248, "type": "SLEEP_SURVEY", "trial_index": 5}, "uniqueid": "MTK2834:3XUHV3NRVL5EMBD94CC1JIFDCGHH5F", "dateTime": 1519411480491}, {"current_trial": 6, "trialdata": {"rt": 19482, "trial_type": "text", "internal_node_id": "0.0-6.0", "time_elapsed": 87733, "key_press": 32, "type": "INSTRUCTIONS", "trial_index": 6}, "uniqueid": "MTK2834:3XUHV3NRVL5EMBD94CC1JIFDCGHH5F", "dateTime": 1519411500976}, {"current_trial": 7, "trialdata": {"rt": 17393, "trial_type": "text", "internal_node_id": "0.0-7.0", "time_elapsed": 105628, "key_press": 32, "type": "INSTRUCTIONS", "trial_index": 7}, "uniqueid": "MTK2834:3XUHV3NRVL5EMBD94CC1JIFDCGHH5F", "dateTime": 1519411518871}, {"current_trial": 8, "trialdata": {"rt": 9994, "trial_type": "text", "internal_node_id": "0.0-8.0", "time_elapsed": 116123, "key_press": 32, "type": "INSTRUCTIONS", "trial_index": 8}, "uniqueid": "MTK2834:3XUHV3NRVL5EMBD94CC1JIFDCGHH5F", "dateTime": 1519411529367}, {"current_trial": 9, "trialdata": {"rt": [], "trial_type": "math-distractor", "key_times": [7096, 7162, 13172, 13329, 16020, 16110, 16985, 17521, 17597], "responses": [], "num2": [9], "num3": [6], "conditions": [18, 1200, "v", 18000], "internal_node_id": "0.0-9.0", "key_presses": [40, 34, 40, 34, 40, 34, 144, 98, 99], "trial": 0, "time_elapsed": 135131, "type": "DISTRACTOR", "trial_index": 9, "num1": [8]}, "uniqueid": "MTK2834:3XUHV3NRVL5EMBD94CC1JIFDCGHH5F", "dateTime": 1519411548374}, {"current_trial": 10, "trialdata": {"rt": -1, "trial_type": "single-stim", "stimulus": "<p id=\"stim\">10</p>", "internal_node_id": "0.0-10.0-0.0", "time_elapsed": 138133, "key_press": -1, "trial_index": 10}, "uniqueid": "MTK2834:3XUHV3NRVL5EMBD94CC1JIFDCGHH5F", "dateTime": 1519411551376}, {"current_trial": 11, "trialdata": {"rt": -1, "trial_type": "single-stim", "stimulus": "<p id=\"stim\">9</p>", "internal_node_id": "0.0-10.0-1.0", "time_elapsed": 139134, "key_press": -1, "trial_index": 11}, "uniqueid": "MTK2834:3XUHV3NRVL5EMBD94CC1JIFDCGHH5F", "dateTime": 1519411552377}, {"current_trial": 12, "trialdata": {"rt": -1, "trial_type": "single-stim", "stimulus": "<p id=\"stim\">8</p>", "internal_node_id": "0.0-10.0-2.0", "time_elapsed": 140135, "key_press": -1, "trial_index": 12}, "uniqueid": "MTK2834:3XUHV3NRVL5EMBD94CC1JIFDCGHH5F", "dateTime": 1519411553378}, {"current_trial": 13, "trialdata": {"rt": -1, "trial_type": "single-stim", "stimulus": "<p id=\"stim\">7</p>", "internal_node_id": "0.0-10.0-3.0", "time_elapsed": 141137, "key_press": -1, "trial_index": 13}, "uniqueid": "MTK2834:3XUHV3NRVL5EMBD94CC1JIFDCGHH5F", "dateTime": 1519411554380}, {"current_trial": 14, "trialdata": {"rt": -1, "trial_type": "single-stim", "stimulus": "<p id=\"stim\">6</p>", "internal_node_id": "0.0-10.0-4.0", "time_elapsed": 142138, "key_press": -1, "trial_index": 14}, "uniqueid": "MTK2834:3XUHV3NRVL5EMBD94CC1JIFDCGHH5F", "dateTime": 1519411555382}, {"current_trial": 15, "trialdata": {"rt": -1, "trial_type": "single-stim", "stimulus": "<p id=\"stim\">5</p>", "internal_node_id": "0.0-10.0-5.0", "time_elapsed": 143140, "key_press": -1, "trial_index": 15}, "uniqueid": "MTK2834:3XUHV3NRVL5EMBD94CC1JIFDCGHH5F", "dateTime": 1519411556383}, {"current_trial": 16, "trialdata": {"rt": -1, "trial_type": "single-stim", "stimulus": "<p id=\"stim\">4</p>", "internal_node_id": "0.0-10.0-6.0", "time_elapsed": 144141, "key_press": -1, "trial_index": 16}, "uniqueid": "MTK2834:3XUHV3NRVL5EMBD94CC1JIFDCGHH5F", "dateTime": 1519411557384}, {"current_trial": 17, "trialdata": {"rt": -1, "trial_type": "single-stim", "stimulus": "<p id=\"stim\">3</p>", "internal_node_id": "0.0-10.0-7.0", "time_elapsed": 145142, "key_press": -1, "trial_index": 17}, "uniqueid": "MTK2834:3XUHV3NRVL5EMBD94CC1JIFDCGHH5F", "dateTime": 1519411558385}, {"current_trial": 18, "trialdata": {"rt": -1, "trial_type": "single-stim", "stimulus": "<p id=\"stim\">2</p>", "internal_node_id": "0.0-10.0-8.0", "time_elapsed": 146143, "key_press": -1, "trial_index": 18}, "uniqueid": "MTK2834:3XUHV3NRVL5EMBD94CC1JIFDCGHH5F", "dateTime": 1519411559386}, {"current_trial": 19, "trialdata": {"rt": -1, "trial_type": "single-stim", "stimulus": "<p id=\"stim\">1</p>", "internal_node_id": "0.0-10.0-9.0", "time_elapsed": 147143, "key_press": -1, "trial_index": 19}, "uniqueid": "MTK2834:3XUHV3NRVL5EMBD94CC1JIFDCGHH5F", "dateTime": 1519411560386}, {"current_trial": 20, "trialdata": {"rt": -1, "trial_type": "single-stim", "stimulus": "<p id=\"stim\">+</p>", "internal_node_id": "0.0-11.0-0.0", "time_elapsed": 148645, "key_press": -1, "type": "FIXATION", "trial_index": 20}, "uniqueid": "MTK2834:3XUHV3NRVL5EMBD94CC1JIFDCGHH5F", "dateTime": 1519411561888}, {"current_trial": 21, "trialdata": {"rt": -1, "trial_type": "single-stim", "word": "bubble", "stimulus": "<p id=\"stim\">BUBBLE</p>", "conditions": [18, 1200, "v", 18000], "internal_node_id": "0.0-12.0", "trial": 0, "time_elapsed": 149846, "serialpos": 0, "key_press": -1, "wordID": 182, "type": "PRES_VIS", "trial_index": 21}, "uniqueid": "MTK2834:3XUHV3NRVL5EMBD94CC1JIFDCGHH5F", "dateTime": 1519411563089}, {"current_trial": 22, "trialdata": {"rt": -1, "trial_type": "single-stim", "word": "picture", "stimulus": "<p id=\"stim\">PICTURE</p>", "conditions": [18, 1200, "v", 18000], "internal_node_id": "0.0-13.0", "trial": 0, "time_elapsed": 152098, "serialpos": 1, "key_press": -1, "wordID": 1060, "type": "PRES_VIS", "trial_index": 22}, "uniqueid": "MTK2834:3XUHV3NRVL5EMBD94CC1JIFDCGHH5F", "dateTime": 1519411565341}, {"current_trial": 23, "trialdata": {"rt": -1, "trial_type": "single-stim", "word": "author", "stimulus": "<p id=\"stim\">AUTHOR</p>", "conditions": [18, 1200, "v", 18000], "internal_node_id": "0.0-14.0", "trial": 0, "time_elapsed": 154438, "serialpos": 2, "key_press": -1, "wordID": 60, "type": "PRES_VIS", "trial_index": 23}, "uniqueid": "MTK2834:3XUHV3NRVL5EMBD94CC1JIFDCGHH5F", "dateTime": 1519411567681}, {"current_trial": 24, "trialdata": {"rt": -1, "trial_type": "single-stim", "word": "thief", "stimulus": "<p id=\"stim\">THIEF</p>", "conditions": [18, 1200, "v", 18000], "internal_node_id": "0.0-15.0", "trial": 0, "time_elapsed": 156797, "serialpos": 3, "key_press": -1, "wordID": 1455, "type": "PRES_VIS", "trial_index": 24}, "uniqueid": "MTK2834:3XUHV3NRVL5EMBD94CC1JIFDCGHH5F", "dateTime": 1519411570040}, {"current_trial": 25, "trialdata": {"rt": -1, "trial_type": "single-stim", "word": "lodge", "stimulus": "<p id=\"stim\">LODGE</p>", "conditions": [18, 1200, "v", 18000], "internal_node_id": "0.0-16.0", "trial": 0, "time_elapsed": 158956, "serialpos": 4, "key_press": -1, "wordID": 838, "type": "PRES_VIS", "trial_index": 25}, "uniqueid": "MTK2834:3XUHV3NRVL5EMBD94CC1JIFDCGHH5F", "dateTime": 1519411572199}, {"current_trial": 26, "trialdata": {"rt": -1, "trial_type": "single-stim", "word": "blockade", "stimulus": "<p id=\"stim\">BLOCKADE</p>", "conditions": [18, 1200, "v", 18000], "internal_node_id": "0.0-17.0", "trial": 0, "time_elapsed": 161161, "serialpos": 5, "key_press": -1, "wordID": 136, "type": "PRES_VIS", "trial_index": 26}, "uniqueid": "MTK2834:3XUHV3NRVL5EMBD94CC1JIFDCGHH5F", "dateTime": 1519411574404}, {"current_trial": 27, "trialdata": {"rt": -1, "trial_type": "single-stim", "word": "cricket", "stimulus": "<p id=\"stim\">CRICKET</p>", "conditions": [18, 1200, "v", 18000], "internal_node_id": "0.0-18.0", "trial": 0, "time_elapsed": 163329, "serialpos": 6, "key_press": -1, "wordID": 407, "type": "PRES_VIS", "trial_index": 27}, "uniqueid": "MTK2834:3XUHV3NRVL5EMBD94CC1JIFDCGHH5F", "dateTime": 1519411576573}, {"current_trial": 28, "trialdata": {"rt": -1, "trial_type": "single-stim", "word": "flower", "stimulus": "<p id=\"stim\">FLOWER</p>", "conditions": [18, 1200, "v", 18000], "internal_node_id": "0.0-19.0", "trial": 0, "time_elapsed": 165362, "serialpos": 7, "key_press": -1, "wordID": 583, "type": "PRES_VIS", "trial_index": 28}, "uniqueid": "MTK2834:3XUHV3NRVL5EMBD94CC1JIFDCGHH5F", "dateTime": 1519411578605}, {"current_trial": 29, "trialdata": {"rt": -1, "trial_type": "single-stim", "word": "barrel", "stimulus": "<p id=\"stim\">BARREL</p>", "conditions": [18, 1200, "v", 18000], "internal_node_id": "0.0-20.0", "trial": 0, "time_elapsed": 167716, "serialpos": 8, "key_press": -1, "wordID": 90, "type": "PRES_VIS", "trial_index": 29}, "uniqueid": "MTK2834:3XUHV3NRVL5EMBD94CC1JIFDCGHH5F", "dateTime": 1519411580959}, {"current_trial": 30, "trialdata": {"rt": -1, "trial_type": "single-stim", "word": "gymnast", "stimulus": "<p id=\"stim\">GYMNAST</p>", "conditions": [18, 1200, "v", 18000], "internal_node_id": "0.0-21.0", "trial": 0, "time_elapsed": 169938, "serialpos": 9, "key_press": -1, "wordID": 674, "type": "PRES_VIS", "trial_index": 30}, "uniqueid": "MTK2834:3XUHV3NRVL5EMBD94CC1JIFDCGHH5F", "dateTime": 1519411583181}, {"current_trial": 31, "trialdata": {"rt": -1, "trial_type": "single-stim", "word": "couch", "stimulus": "<p id=\"stim\">COUCH</p>", "conditions": [18, 1200, "v", 18000], "internal_node_id": "0.0-22.0", "trial": 0, "time_elapsed": 171966, "serialpos": 10, "key_press": -1, "wordID": 385, "type": "PRES_VIS", "trial_index": 31}, "uniqueid": "MTK2834:3XUHV3NRVL5EMBD94CC1JIFDCGHH5F", "dateTime": 1519411585209}, {"current_trial": 32, "trialdata": {"rt": -1, "trial_type": "single-stim", "word": "airplane", "stimulus": "<p id=\"stim\">AIRPLANE</p>", "conditions": [18, 1200, "v", 18000], "internal_node_id": "0.0-23.0", "trial": 0, "time_elapsed": 174056, "serialpos": 11, "key_press": -1, "wordID": 11, "type": "PRES_VIS", "trial_index": 32}, "uniqueid": "MTK2834:3XUHV3NRVL5EMBD94CC1JIFDCGHH5F", "dateTime": 1519411587299}, {"current_trial": 33, "trialdata": {"rt": -1, "trial_type": "single-stim", "word": "convict", "stimulus": "<p id=\"stim\">CONVICT</p>", "conditions": [18, 1200, "v", 18000], "internal_node_id": "0.0-24.0", "trial": 0, "time_elapsed": 176448, "serialpos": 12, "key_press": -1, "wordID": 370, "type": "PRES_VIS", "trial_index": 33}, "uniqueid": "MTK2834:3XUHV3NRVL5EMBD94CC1JIFDCGHH5F", "dateTime": 1519411589691}, {"current_trial": 34, "trialdata": {"rt": -1, "trial_type": "single-stim", "word": "brook", "stimulus": "<p id=\"stim\">BROOK</p>", "conditions": [18, 1200, "v", 18000], "internal_node_id": "0.0-25.0", "trial": 0, "time_elapsed": 178634, "serialpos": 13, "key_press": -1, "wordID": 176, "type": "PRES_VIS", "trial_index": 34}, "uniqueid": "MTK2834:3XUHV3NRVL5EMBD94CC1JIFDCGHH5F", "dateTime": 1519411591877}, {"current_trial": 35, "trialdata": {"rt": -1, "trial_type": "single-stim", "word": "dragon", "stimulus": "<p id=\"stim\">DRAGON</p>", "conditions": [18, 1200, "v", 18000], "internal_node_id": "0.0-26.0", "trial": 0, "time_elapsed": 180807, "serialpos": 14, "key_press": -1, "wordID": 491, "type": "PRES_VIS", "trial_index": 35}, "uniqueid": "MTK2834:3XUHV3NRVL5EMBD94CC1JIFDCGHH5F", "dateTime": 1519411594050}, {"current_trial": 36, "trialdata": {"rt": -1, "trial_type": "single-stim", "word": "kleenex", "stimulus": "<p id=\"stim\">KLEENEX</p>", "conditions": [18, 1200, "v", 18000], "internal_node_id": "0.0-27.0", "trial": 0, "time_elapsed": 182864, "serialpos": 15, "key_press": -1, "wordID": 781, "type": "PRES_VIS", "trial_index": 36}, "uniqueid": "MTK2834:3XUHV3NRVL5EMBD94CC1JIFDCGHH5F", "dateTime": 1519411596107}, {"current_trial": 37, "trialdata": {"rt": -1, "trial_type": "single-stim", "word": "island", "stimulus": "<p id=\"stim\">ISLAND</p>", "conditions": [18, 1200, "v", 18000], "internal_node_id": "0.0-28.0", "trial": 0, "time_elapsed": 185050, "serialpos": 16, "key_press": -1, "wordID": 744, "type": "PRES_VIS", "trial_index": 37}, "uniqueid": "MTK2834:3XUHV3NRVL5EMBD94CC1JIFDCGHH5F", "dateTime": 1519411598293}, {"current_trial": 38, "trialdata": {"rt": -1, "trial_type": "single-stim", "word": "denim", "stimulus": "<p id=\"stim\">DENIM</p>", "conditions": [18, 1200, "v", 18000], "internal_node_id": "0.0-29.0", "trial": 0, "time_elapsed": 187132, "serialpos": 17, "key_press": -1, "wordID": 445, "type": "PRES_VIS", "trial_index": 38}, "uniqueid": "MTK2834:3XUHV3NRVL5EMBD94CC1JIFDCGHH5F", "dateTime": 1519411600375}, {"current_trial": 39, "trialdata": {"rt": -1, "trial_type": "single-stim", "stimulus": "", "internal_node_id": "0.0-30.0-0.0", "time_elapsed": 189340, "key_press": -1, "type": "PRE_RECALL_DELAY", "trial_index": 39}, "uniqueid": "MTK2834:3XUHV3NRVL5EMBD94CC1JIFDCGHH5F", "dateTime": 1519411602583}, {"current_trial": 40, "trialdata": {"rt": -1000, "trial_type": "single-audio", "stimulus": "/static/audio/400Hz.wav", "internal_node_id": "0.0-31.0", "time_elapsed": 189843, "key_press": -1, "type": "PRE_RECALL_ALERT", "trial_index": 40}, "uniqueid": "MTK2834:3XUHV3NRVL5EMBD94CC1JIFDCGHH5F", "dateTime": 1519411603086}, {"current_trial": 41, "trialdata": {"rt": [4619, 6412, 7851, 9832, 13013, 16793, 18329, 21018, 27248, 34287, 40074], "recwords": ["bubble", "brook", "denim", "dragon", "island", "picture", "thief", "convict", "flower", "plane", "kleenex"], "key_times": [2847, 2972, 3295, 3675, 4077, 4295, 4619, 5094, 5445, 5813, 5933, 6036, 6412, 6849, 7045, 7205, 7373, 7631, 7851, 8573, 8711, 8888, 9124, 9224, 9467, 9832, 10658, 10795, 10797, 11332, 11453, 11804, 12133, 12227, 12444, 12629, 13013, 14716, 14853, 14970, 15769, 15906, 16089, 16207, 16793, 17453, 17538, 17646, 17953, 18074, 18329, 18890, 19750, 20020, 20343, 20465, 20599, 20878, 21018, 26539, 26635, 26843, 26947, 26974, 27056, 27248, 33598, 33685, 33815, 33949, 34078, 34287, 38861, 39115, 39232, 39381, 39548, 39663, 39908, 40074], "trial_type": "free-recall", "conditions": [18, 1200, "v", 18000], "internal_node_id": "0.0-32.0-0.0", "key_presses": [66, 85, 66, 66, 76, 69, 32, 66, 82, 79, 79, 75, 32, 68, 69, 78, 73, 77, 32, 68, 82, 65, 71, 79, 78, 32, 73, 68, 83, 8, 8, 83, 76, 65, 78, 68, 32, 80, 73, 67, 84, 85, 82, 69, 13, 84, 72, 73, 69, 70, 13, 67, 79, 78, 86, 73, 67, 84, 13, 70, 76, 79, 87, 69, 82, 13, 80, 76, 65, 78, 69, 13, 75, 76, 69, 69, 78, 69, 88, 13], "trial": 0, "time_elapsed": 249848, "type": "FREE_RECALL", "trial_index": 41}, "uniqueid": "MTK2834:3XUHV3NRVL5EMBD94CC1JIFDCGHH5F", "dateTime": 1519411663092}, {"current_trial": 42, "trialdata": {"rt": 1495, "trial_type": "text", "internal_node_id": "0.0-33.0", "time_elapsed": 253345, "key_press": 32, "type": "INSTRUCTIONS", "trial_index": 42}, "uniqueid": "MTK2834:3XUHV3NRVL5EMBD94CC1JIFDCGHH5F", "dateTime": 1519411666588}, {"current_trial": 43, "trialdata": {"rt": [6813, 10063, 12345, 15782], "trial_type": "math-distractor", "key_times": [5421, 5476, 6813, 9177, 10063, 11586, 11760, 12345, 14803, 14998, 15782, 17890], "responses": ["15", "8", "10", "12"], "num2": [5, 1, 1, 4, 2], "num3": [6, 2, 1, 5, 9], "conditions": [18, 1200, "v", 18000], "internal_node_id": "0.0-34.0", "key_presses": [97, 101, 13, 104, 13, 97, 96, 13, 97, 98, 13, 97], "trial": 1, "time_elapsed": 273349, "type": "DISTRACTOR", "trial_index": 43, "num1": [4, 5, 8, 3, 3]}, "uniqueid": "MTK2834:3XUHV3NRVL5EMBD94CC1JIFDCGHH5F", "dateTime": 1519411686592}, {"current_trial": 44, "trialdata": {"rt": -1, "trial_type": "single-stim", "stimulus": "<p id=\"stim\">10</p>", "internal_node_id": "0.0-35.0-0.0", "time_elapsed": 276350, "key_press": -1, "trial_index": 44}, "uniqueid": "MTK2834:3XUHV3NRVL5EMBD94CC1JIFDCGHH5F", "dateTime": 1519411689593}, {"current_trial": 45, "trialdata": {"rt": -1, "trial_type": "single-stim", "stimulus": "<p id=\"stim\">9</p>", "internal_node_id": "0.0-35.0-1.0", "time_elapsed": 277352, "key_press": -1, "trial_index": 45}, "uniqueid": "MTK2834:3XUHV3NRVL5EMBD94CC1JIFDCGHH5F", "dateTime": 1519411690595}, {"current_trial": 46, "trialdata": {"rt": -1, "trial_type": "single-stim", "stimulus": "<p id=\"stim\">8</p>", "internal_node_id": "0.0-35.0-2.0", "time_elapsed": 278353, "key_press": -1, "trial_index": 46}, "uniqueid": "MTK2834:3XUHV3NRVL5EMBD94CC1JIFDCGHH5F", "dateTime": 1519411691596}, {"current_trial": 47, "trialdata": {"rt": -1, "trial_type": "single-stim", "stimulus": "<p id=\"stim\">7</p>", "internal_node_id": "0.0-35.0-3.0", "time_elapsed": 279355, "key_press": -1, "trial_index": 47}, "uniqueid": "MTK2834:3XUHV3NRVL5EMBD94CC1JIFDCGHH5F", "dateTime": 1519411692598}, {"current_trial": 48, "trialdata": {"rt": -1, "trial_type": "single-stim", "stimulus": "<p id=\"stim\">6</p>", "internal_node_id": "0.0-35.0-4.0", "time_elapsed": 280356, "key_press": -1, "trial_index": 48}, "uniqueid": "MTK2834:3XUHV3NRVL5EMBD94CC1JIFDCGHH5F", "dateTime": 1519411693599}, {"current_trial": 49, "trialdata": {"rt": -1, "trial_type": "single-stim", "stimulus": "<p id=\"stim\">5</p>", "internal_node_id": "0.0-35.0-5.0", "time_elapsed": 281357, "key_press": -1, "trial_index": 49}, "uniqueid": "MTK2834:3XUHV3NRVL5EMBD94CC1JIFDCGHH5F", "dateTime": 1519411694600}, {"current_trial": 50, "trialdata": {"rt": -1, "trial_type": "single-stim", "stimulus": "<p id=\"stim\">4</p>", "internal_node_id": "0.0-35.0-6.0", "time_elapsed": 282358, "key_press": -1, "trial_index": 50}, "uniqueid": "MTK2834:3XUHV3NRVL5EMBD94CC1JIFDCGHH5F", "dateTime": 1519411695601}, {"current_trial": 51, "trialdata": {"rt": -1, "trial_type": "single-stim", "stimulus": "<p id=\"stim\">3</p>", "internal_node_id": "0.0-35.0-7.0", "time_elapsed": 283359, "key_press": -1, "trial_index": 51}, "uniqueid": "MTK2834:3XUHV3NRVL5EMBD94CC1JIFDCGHH5F", "dateTime": 1519411696602}, {"current_trial": 52, "trialdata": {"rt": -1, "trial_type": "single-stim", "stimulus": "<p id=\"stim\">2</p>", "internal_node_id": "0.0-35.0-8.0", "time_elapsed": 284361, "key_press": -1, "trial_index": 52}, "uniqueid": "MTK2834:3XUHV3NRVL5EMBD94CC1JIFDCGHH5F", "dateTime": 1519411697604}, {"current_trial": 53, "trialdata": {"rt": -1, "trial_type": "single-stim", "stimulus": "<p id=\"stim\">1</p>", "internal_node_id": "0.0-35.0-9.0", "time_elapsed": 285361, "key_press": -1, "trial_index": 53}, "uniqueid": "MTK2834:3XUHV3NRVL5EMBD94CC1JIFDCGHH5F", "dateTime": 1519411698604}, {"current_trial": 54, "trialdata": {"rt": -1, "trial_type": "single-stim", "stimulus": "<p id=\"stim\">+</p>", "internal_node_id": "0.0-36.0-0.0", "time_elapsed": 286862, "key_press": -1, "type": "FIXATION", "trial_index": 54}, "uniqueid": "MTK2834:3XUHV3NRVL5EMBD94CC1JIFDCGHH5F", "dateTime": 1519411700105}, {"current_trial": 55, "trialdata": {"rt": -1, "trial_type": "single-stim", "word": "palace", "stimulus": "<p id=\"stim\">PALACE</p>", "conditions": [18, 1200, "v", 18000], "internal_node_id": "0.0-37.0", "trial": 1, "time_elapsed": 288064, "serialpos": 0, "key_press": -1, "wordID": 1005, "type": "PRES_VIS", "trial_index": 55}, "uniqueid": "MTK2834:3XUHV3NRVL5EMBD94CC1JIFDCGHH5F", "dateTime": 1519411701307}, {"current_trial": 56, "trialdata": {"rt": -1, "trial_type": "single-stim", "word": "witness", "stimulus": "<p id=\"stim\">WITNESS</p>", "conditions": [18, 1200, "v", 18000], "internal_node_id": "0.0-38.0", "trial": 1, "time_elapsed": 290106, "serialpos": 1, "key_press": -1, "wordID": 1617, "type": "PRES_VIS", "trial_index": 56}, "uniqueid": "MTK2834:3XUHV3NRVL5EMBD94CC1JIFDCGHH5F", "dateTime": 1519411703349}, {"current_trial": 57, "trialdata": {"rt": -1, "trial_type": "single-stim", "word": "poison", "stimulus": "<p id=\"stim\">POISON</p>", "conditions": [18, 1200, "v", 18000], "internal_node_id": "0.0-39.0", "trial": 1, "time_elapsed": 292127, "serialpos": 2, "key_press": -1, "wordID": 1095, "type": "PRES_VIS", "trial_index": 57}, "uniqueid": "MTK2834:3XUHV3NRVL5EMBD94CC1JIFDCGHH5F", "dateTime": 1519411705370}, {"current_trial": 58, "trialdata": {"rt": -1, "trial_type": "single-stim", "word": "silk", "stimulus": "<p id=\"stim\">SILK</p>", "conditions": [18, 1200, "v", 18000], "internal_node_id": "0.0-40.0", "trial": 1, "time_elapsed": 294471, "serialpos": 3, "key_press": -1, "wordID": 1306, "type": "PRES_VIS", "trial_index": 58}, "uniqueid": "MTK2834:3XUHV3NRVL5EMBD94CC1JIFDCGHH5F", "dateTime": 1519411707714}, {"current_trial": 59, "trialdata": {"rt": -1, "trial_type": "single-stim", "word": "cafe", "stimulus": "<p id=\"stim\">CAFE</p>", "conditions": [18, 1200, "v", 18000], "internal_node_id": "0.0-41.0", "trial": 1, "time_elapsed": 296757, "serialpos": 4, "key_press": -1, "wordID": 215, "type": "PRES_VIS", "trial_index": 59}, "uniqueid": "MTK2834:3XUHV3NRVL5EMBD94CC1JIFDCGHH5F", "dateTime": 1519411710000}, {"current_trial": 60, "trialdata": {"rt": -1, "trial_type": "single-stim", "word": "drill", "stimulus": "<p id=\"stim\">DRILL</p>", "conditions": [18, 1200, "v", 18000], "internal_node_id": "0.0-42.0", "trial": 1, "time_elapsed": 298798, "serialpos": 5, "key_press": -1, "wordID": 496, "type": "PRES_VIS", "trial_index": 60}, "uniqueid": "MTK2834:3XUHV3NRVL5EMBD94CC1JIFDCGHH5F", "dateTime": 1519411712041}, {"current_trial": 61, "trialdata": {"rt": -1, "trial_type": "single-stim", "word": "jelly", "stimulus": "<p id=\"stim\">JELLY</p>", "conditions": [18, 1200, "v", 18000], "internal_node_id": "0.0-43.0", "trial": 1, "time_elapsed": 300902, "serialpos": 6, "key_press": -1, "wordID": 754, "type": "PRES_VIS", "trial_index": 61}, "uniqueid": "MTK2834:3XUHV3NRVL5EMBD94CC1JIFDCGHH5F", "dateTime": 1519411714145}, {"current_trial": 62, "trialdata": {"rt": -1, "trial_type": "single-stim", "word": "body", "stimulus": "<p id=\"stim\">BODY</p>", "conditions": [18, 1200, "v", 18000], "internal_node_id": "0.0-44.0", "trial": 1, "time_elapsed": 303055, "serialpos": 7, "key_press": -1, "wordID": 144, "type": "PRES_VIS", "trial_index": 62}, "uniqueid": "MTK2834:3XUHV3NRVL5EMBD94CC1JIFDCGHH5F", "dateTime": 1519411716298}, {"current_trial": 63, "trialdata": {"rt": -1, "trial_type": "single-stim", "word": "lightning", "stimulus": "<p id=\"stim\">LIGHTNING</p>", "conditions": [18, 1200, "v", 18000], "internal_node_id": "0.0-45.0", "trial": 1, "time_elapsed": 305434, "serialpos": 8, "key_press": -1, "wordID": 819, "type": "PRES_VIS", "trial_index": 63}, "uniqueid": "MTK2834:3XUHV3NRVL5EMBD94CC1JIFDCGHH5F", "dateTime": 1519411718677}, {"current_trial": 64, "trialdata": {"rt": -1, "trial_type": "single-stim", "word": "motel", "stimulus": "<p id=\"stim\">MOTEL</p>", "conditions": [18, 1200, "v", 18000], "internal_node_id": "0.0-46.0", "trial": 1, "time_elapsed": 307517, "serialpos": 9, "key_press": -1, "wordID": 918, "type": "PRES_VIS", "trial_index": 64}, "uniqueid": "MTK2834:3XUHV3NRVL5EMBD94CC1JIFDCGHH5F", "dateTime": 1519411720761}, {"current_trial": 65, "trialdata": {"rt": -1, "trial_type": "single-stim", "word": "shortcake", "stimulus": "<p id=\"stim\">SHORTCAKE</p>", "conditions": [18, 1200, "v", 18000], "internal_node_id": "0.0-47.0", "trial": 1, "time_elapsed": 309583, "serialpos": 10, "key_press": -1, "wordID": 1291, "type": "PRES_VIS", "trial_index": 65}, "uniqueid": "MTK2834:3XUHV3NRVL5EMBD94CC1JIFDCGHH5F", "dateTime": 1519411722826}, {"current_trial": 66, "trialdata": {"rt": -1, "trial_type": "single-stim", "word": "cabbage", "stimulus": "<p id=\"stim\">CABBAGE</p>", "conditions": [18, 1200, "v", 18000], "internal_node_id": "0.0-48.0", "trial": 1, "time_elapsed": 311736, "serialpos": 11, "key_press": -1, "wordID": 209, "type": "PRES_VIS", "trial_index": 66}, "uniqueid": "MTK2834:3XUHV3NRVL5EMBD94CC1JIFDCGHH5F", "dateTime": 1519411724979}, {"current_trial": 67, "trialdata": {"rt": -1, "trial_type": "single-stim", "word": "onion", "stimulus": "<p id=\"stim\">ONION</p>", "conditions": [18, 1200, "v", 18000], "internal_node_id": "0.0-49.0", "trial": 1, "time_elapsed": 314115, "serialpos": 12, "key_press": -1, "wordID": 976, "type": "PRES_VIS", "trial_index": 67}, "uniqueid": "MTK2834:3XUHV3NRVL5EMBD94CC1JIFDCGHH5F", "dateTime": 1519411727359}, {"current_trial": 68, "trialdata": {"rt": -1, "trial_type": "single-stim", "word": "banquet", "stimulus": "<p id=\"stim\">BANQUET</p>", "conditions": [18, 1200, "v", 18000], "internal_node_id": "0.0-50.0", "trial": 1, "time_elapsed": 316198, "serialpos": 13, "key_press": -1, "wordID": 85, "type": "PRES_VIS", "trial_index": 68}, "uniqueid": "MTK2834:3XUHV3NRVL5EMBD94CC1JIFDCGHH5F", "dateTime": 1519411729441}, {"current_trial": 69, "trialdata": {"rt": -1, "trial_type": "single-stim", "word": "piston", "stimulus": "<p id=\"stim\">PISTON</p>", "conditions": [18, 1200, "v", 18000], "internal_node_id": "0.0-51.0", "trial": 1, "time_elapsed": 318546, "serialpos": 14, "key_press": -1, "wordID": 1075, "type": "PRES_VIS", "trial_index": 69}, "uniqueid": "MTK2834:3XUHV3NRVL5EMBD94CC1JIFDCGHH5F", "dateTime": 1519411731790}, {"current_trial": 70, "trialdata": {"rt": -1, "trial_type": "single-stim", "word": "globe", "stimulus": "<p id=\"stim\">GLOBE</p>", "conditions": [18, 1200, "v", 18000], "internal_node_id": "0.0-52.0", "trial": 1, "time_elapsed": 320884, "serialpos": 15, "key_press": -1, "wordID": 640, "type": "PRES_VIS", "trial_index": 70}, "uniqueid": "MTK2834:3XUHV3NRVL5EMBD94CC1JIFDCGHH5F", "dateTime": 1519411734128}, {"current_trial": 71, "trialdata": {"rt": -1, "trial_type": "single-stim", "word": "server", "stimulus": "<p id=\"stim\">SERVER</p>", "conditions": [18, 1200, "v", 18000], "internal_node_id": "0.0-53.0", "trial": 1, "time_elapsed": 323222, "serialpos": 16, "key_press": -1, "wordID": 1271, "type": "PRES_VIS", "trial_index": 71}, "uniqueid": "MTK2834:3XUHV3NRVL5EMBD94CC1JIFDCGHH5F", "dateTime": 1519411736465}, {"current_trial": 72, "trialdata": {"rt": -1, "trial_type": "single-stim", "word": "jury", "stimulus": "<p id=\"stim\">JURY</p>", "conditions": [18, 1200, "v", 18000], "internal_node_id": "0.0-54.0", "trial": 1, "time_elapsed": 325515, "serialpos": 17, "key_press": -1, "wordID": 765, "type": "PRES_VIS", "trial_index": 72}, "uniqueid": "MTK2834:3XUHV3NRVL5EMBD94CC1JIFDCGHH5F", "dateTime": 1519411738758}, {"current_trial": 73, "trialdata": {"rt": -1, "trial_type": "single-stim", "stimulus": "", "internal_node_id": "0.0-55.0-0.0", "time_elapsed": 327785, "key_press": -1, "type": "PRE_RECALL_DELAY", "trial_index": 73}, "uniqueid": "MTK2834:3XUHV3NRVL5EMBD94CC1JIFDCGHH5F", "dateTime": 1519411741028}, {"current_trial": 74, "trialdata": {"rt": -1000, "trial_type": "single-audio", "stimulus": "/static/audio/400Hz.wav", "internal_node_id": "0.0-56.0", "time_elapsed": 328286, "key_press": -1, "type": "PRE_RECALL_ALERT", "trial_index": 74}, "uniqueid": "MTK2834:3XUHV3NRVL5EMBD94CC1JIFDCGHH5F", "dateTime": 1519411741529}, {"current_trial": 75, "trialdata": {"rt": [2905, 4421, 5457, 6952, 10241, 12094, 13579, 25324, 26716], "recwords": ["cafe", "piston", "server", "jury", "palace", "silk", "body", "onion", "cabbage"], "key_times": [2129, 2210, 2513, 2617, 2905, 3678, 3753, 3830, 4005, 4077, 4254, 4421, 4564, 4626, 4686, 4936, 5156, 5192, 5457, 6061, 6204, 6381, 6904, 6952, 8728, 8864, 8964, 9110, 9323, 10185, 10241, 11272, 11345, 11837, 11888, 12094, 12771, 12867, 13206, 13515, 13579, 23683, 24639, 24812, 24917, 25041, 25324, 25950, 26038, 26234, 26352, 26402, 26612, 26650, 26716], "trial_type": "free-recall", "conditions": [18, 1200, "v", 18000], "internal_node_id": "0.0-57.0-0.0", "key_presses": [67, 65, 70, 69, 13, 80, 73, 83, 84, 79, 78, 13, 83, 69, 82, 86, 69, 82, 13, 74, 85, 82, 89, 13, 80, 65, 76, 65, 67, 69, 13, 83, 73, 76, 75, 13, 66, 79, 68, 89, 13, 79, 78, 73, 79, 78, 13, 67, 65, 66, 66, 65, 71, 69, 13], "trial": 1, "time_elapsed": 388289, "type": "FREE_RECALL", "trial_index": 75}, "uniqueid": "MTK2834:3XUHV3NRVL5EMBD94CC1JIFDCGHH5F", "dateTime": 1519411801534}, {"current_trial": 76, "trialdata": {"rt": 12472, "trial_type": "text", "internal_node_id": "0.0-58.0", "time_elapsed": 402763, "key_press": 32, "type": "INSTRUCTIONS", "trial_index": 76}, "uniqueid": "MTK2834:3XUHV3NRVL5EMBD94CC1JIFDCGHH5F", "dateTime": 1519411816006}, {"current_trial": 77, "trialdata": {"rt": [4063, 7650, 11285, 14385, 16883, 19849, 23849], "trial_type": "math-distractor", "key_times": [2848, 2963, 4063, 7044, 7336, 7650, 10844, 11034, 11285, 13058, 14144, 14385, 16615, 16684, 16883, 19500, 19662, 19849, 23146, 23650, 23849], "responses": ["11", "17", "17", "18", "12", "14", "16"], "num2": [2, 2, 7, 1, 8, 8, 4, 8], "num3": [3, 6, 9, 8, 3, 2, 6, 1], "conditions": [24, 1600, "v", 24000], "internal_node_id": "0.0-59.0", "key_presses": [97, 97, 13, 97, 103, 13, 97, 103, 13, 97, 104, 13, 97, 98, 13, 97, 100, 13, 97, 102, 13], "trial": 2, "time_elapsed": 427765, "type": "DISTRACTOR", "trial_index": 77, "num1": [6, 9, 1, 9, 1, 4, 6, 4]}, "uniqueid": "MTK2834:3XUHV3NRVL5EMBD94CC1JIFDCGHH5F", "dateTime": 1519411841008}, {"current_trial": 78, "trialdata": {"rt": -1, "trial_type": "single-stim", "stimulus": "<p id=\"stim\">10</p>", "internal_node_id": "0.0-60.0-0.0", "time_elapsed": 430767, "key_press": -1, "trial_index": 78}, "uniqueid": "MTK2834:3XUHV3NRVL5EMBD94CC1JIFDCGHH5F", "dateTime": 1519411844011}, {"current_trial": 79, "trialdata": {"rt": -1, "trial_type": "single-stim", "stimulus": "<p id=\"stim\">9</p>", "internal_node_id": "0.0-60.0-1.0", "time_elapsed": 431769, "key_press": -1, "trial_index": 79}, "uniqueid": "MTK2834:3XUHV3NRVL5EMBD94CC1JIFDCGHH5F", "dateTime": 1519411845012}, {"current_trial": 80, "trialdata": {"rt": -1, "trial_type": "single-stim", "stimulus": "<p id=\"stim\">8</p>", "internal_node_id": "0.0-60.0-2.0", "time_elapsed": 432770, "key_press": -1, "trial_index": 80}, "uniqueid": "MTK2834:3XUHV3NRVL5EMBD94CC1JIFDCGHH5F", "dateTime": 1519411846013}, {"current_trial": 81, "trialdata": {"rt": -1, "trial_type": "single-stim", "stimulus": "<p id=\"stim\">7</p>", "internal_node_id": "0.0-60.0-3.0", "time_elapsed": 433771, "key_press": -1, "trial_index": 81}, "uniqueid": "MTK2834:3XUHV3NRVL5EMBD94CC1JIFDCGHH5F", "dateTime": 1519411847015}, {"current_trial": 82, "trialdata": {"rt": -1, "trial_type": "single-stim", "stimulus": "<p id=\"stim\">6</p>", "internal_node_id": "0.0-60.0-4.0", "time_elapsed": 434772, "key_press": -1, "trial_index": 82}, "uniqueid": "MTK2834:3XUHV3NRVL5EMBD94CC1JIFDCGHH5F", "dateTime": 1519411848015}, {"current_trial": 83, "trialdata": {"rt": -1, "trial_type": "single-stim", "stimulus": "<p id=\"stim\">5</p>", "internal_node_id": "0.0-60.0-5.0", "time_elapsed": 435774, "key_press": -1, "trial_index": 83}, "uniqueid": "MTK2834:3XUHV3NRVL5EMBD94CC1JIFDCGHH5F", "dateTime": 1519411849017}, {"current_trial": 84, "trialdata": {"rt": -1, "trial_type": "single-stim", "stimulus": "<p id=\"stim\">4</p>", "internal_node_id": "0.0-60.0-6.0", "time_elapsed": 436776, "key_press": -1, "trial_index": 84}, "uniqueid": "MTK2834:3XUHV3NRVL5EMBD94CC1JIFDCGHH5F", "dateTime": 1519411850019}, {"current_trial": 85, "trialdata": {"rt": -1, "trial_type": "single-stim", "stimulus": "<p id=\"stim\">3</p>", "internal_node_id": "0.0-60.0-7.0", "time_elapsed": 437777, "key_press": -1, "trial_index": 85}, "uniqueid": "MTK2834:3XUHV3NRVL5EMBD94CC1JIFDCGHH5F", "dateTime": 1519411851020}, {"current_trial": 86, "trialdata": {"rt": -1, "trial_type": "single-stim", "stimulus": "<p id=\"stim\">2</p>", "internal_node_id": "0.0-60.0-8.0", "time_elapsed": 438778, "key_press": -1, "trial_index": 86}, "uniqueid": "MTK2834:3XUHV3NRVL5EMBD94CC1JIFDCGHH5F", "dateTime": 1519411852021}, {"current_trial": 87, "trialdata": {"rt": -1, "trial_type": "single-stim", "stimulus": "<p id=\"stim\">1</p>", "internal_node_id": "0.0-60.0-9.0", "time_elapsed": 439780, "key_press": -1, "trial_index": 87}, "uniqueid": "MTK2834:3XUHV3NRVL5EMBD94CC1JIFDCGHH5F", "dateTime": 1519411853023}, {"current_trial": 88, "trialdata": {"rt": -1, "trial_type": "single-stim", "stimulus": "<p id=\"stim\">+</p>", "internal_node_id": "0.0-61.0-0.0", "time_elapsed": 441281, "key_press": -1, "type": "FIXATION", "trial_index": 88}, "uniqueid": "MTK2834:3XUHV3NRVL5EMBD94CC1JIFDCGHH5F", "dateTime": 1519411854524}, {"current_trial": 89, "trialdata": {"rt": -1, "trial_type": "single-stim", "word": "doughnut", "stimulus": "<p id=\"stim\">DOUGHNUT</p>", "conditions": [24, 1600, "v", 24000], "internal_node_id": "0.0-62.0", "trial": 2, "time_elapsed": 442882, "serialpos": 0, "key_press": -1, "wordID": 489, "type": "PRES_VIS", "trial_index": 89}, "uniqueid": "MTK2834:3XUHV3NRVL5EMBD94CC1JIFDCGHH5F", "dateTime": 1519411856125}, {"current_trial": 90, "trialdata": {"rt": -1, "trial_type": "single-stim", "word": "friend", "stimulus": "<p id=\"stim\">FRIEND</p>", "conditions": [24, 1600, "v", 24000], "internal_node_id": "0.0-63.0", "trial": 2, "time_elapsed": 445299, "serialpos": 1, "key_press": -1, "wordID": 605, "type": "PRES_VIS", "trial_index": 90}, "uniqueid": "MTK2834:3XUHV3NRVL5EMBD94CC1JIFDCGHH5F", "dateTime": 1519411858542}, {"current_trial": 91, "trialdata": {"rt": -1, "trial_type": "single-stim", "word": "concert", "stimulus": "<p id=\"stim\">CONCERT</p>", "conditions": [24, 1600, "v", 24000], "internal_node_id": "0.0-64.0", "trial": 2, "time_elapsed": 447902, "serialpos": 2, "key_press": -1, "wordID": 359, "type": "PRES_VIS", "trial_index": 91}, "uniqueid": "MTK2834:3XUHV3NRVL5EMBD94CC1JIFDCGHH5F", "dateTime": 1519411861145}, {"current_trial": 92, "trialdata": {"rt": -1, "trial_type": "single-stim", "word": "wagon", "stimulus": "<p id=\"stim\">WAGON</p>", "conditions": [24, 1600, "v", 24000], "internal_node_id": "0.0-65.0", "trial": 2, "time_elapsed": 450626, "serialpos": 3, "key_press": -1, "wordID": 1577, "type": "PRES_VIS", "trial_index": 92}, "uniqueid": "MTK2834:3XUHV3NRVL5EMBD94CC1JIFDCGHH5F", "dateTime": 1519411863869}, {"current_trial": 93, "trialdata": {"rt": -1, "trial_type": "single-stim", "word": "maple", "stimulus": "<p id=\"stim\">MAPLE</p>", "conditions": [24, 1600, "v", 24000], "internal_node_id": "0.0-66.0", "trial": 2, "time_elapsed": 453082, "serialpos": 4, "key_press": -1, "wordID": 865, "type": "PRES_VIS", "trial_index": 93}, "uniqueid": "MTK2834:3XUHV3NRVL5EMBD94CC1JIFDCGHH5F", "dateTime": 1519411866325}, {"current_trial": 94, "trialdata": {"rt": -1, "trial_type": "single-stim", "word": "princess", "stimulus": "<p id=\"stim\">PRINCESS</p>", "conditions": [24, 1600, "v", 24000], "internal_node_id": "0.0-67.0", "trial": 2, "time_elapsed": 455732, "serialpos": 5, "key_press": -1, "wordID": 1124, "type": "PRES_VIS", "trial_index": 94}, "uniqueid": "MTK2834:3XUHV3NRVL5EMBD94CC1JIFDCGHH5F", "dateTime": 1519411868975}, {"current_trial": 95, "trialdata": {"rt": -1, "trial_type": "single-stim", "word": "bacon", "stimulus": "<p id=\"stim\">BACON</p>", "conditions": [24, 1600, "v", 24000], "internal_node_id": "0.0-68.0", "trial": 2, "time_elapsed": 458463, "serialpos": 6, "key_press": -1, "wordID": 66, "type": "PRES_VIS", "trial_index": 95}, "uniqueid": "MTK2834:3XUHV3NRVL5EMBD94CC1JIFDCGHH5F", "dateTime": 1519411871707}, {"current_trial": 96, "trialdata": {"rt": -1, "trial_type": "single-stim", "word": "dime", "stimulus": "<p id=\"stim\">DIME</p>", "conditions": [24, 1600, "v", 24000], "internal_node_id": "0.0-69.0", "trial": 2, "time_elapsed": 461210, "serialpos": 7, "key_press": -1, "wordID": 465, "type": "PRES_VIS", "trial_index": 96}, "uniqueid": "MTK2834:3XUHV3NRVL5EMBD94CC1JIFDCGHH5F", "dateTime": 1519411874453}, {"current_trial": 97, "trialdata": {"rt": -1, "trial_type": "single-stim", "word": "trombone", "stimulus": "<p id=\"stim\">TROMBONE</p>", "conditions": [24, 1600, "v", 24000], "internal_node_id": "0.0-70.0", "trial": 2, "time_elapsed": 463807, "serialpos": 8, "key_press": -1, "wordID": 1507, "type": "PRES_VIS", "trial_index": 97}, "uniqueid": "MTK2834:3XUHV3NRVL5EMBD94CC1JIFDCGHH5F", "dateTime": 1519411877050}, {"current_trial": 98, "trialdata": {"rt": -1, "trial_type": "single-stim", "word": "tuba", "stimulus": "<p id=\"stim\">TUBA</p>", "conditions": [24, 1600, "v", 24000], "internal_node_id": "0.0-71.0", "trial": 2, "time_elapsed": 466513, "serialpos": 9, "key_press": -1, "wordID": 1514, "type": "PRES_VIS", "trial_index": 98}, "uniqueid": "MTK2834:3XUHV3NRVL5EMBD94CC1JIFDCGHH5F", "dateTime": 1519411879757}, {"current_trial": 99, "trialdata": {"rt": -1, "trial_type": "single-stim", "word": "wife", "stimulus": "<p id=\"stim\">WIFE</p>", "conditions": [24, 1600, "v", 24000], "internal_node_id": "0.0-72.0", "trial": 2, "time_elapsed": 469099, "serialpos": 10, "key_press": -1, "wordID": 1608, "type": "PRES_VIS", "trial_index": 99}, "uniqueid": "MTK2834:3XUHV3NRVL5EMBD94CC1JIFDCGHH5F", "dateTime": 1519411882342}, {"current_trial": 100, "trialdata": {"rt": -1, "trial_type": "single-stim", "word": "dancer", "stimulus": "<p id=\"stim\">DANCER</p>", "conditions": [24, 1600, "v", 24000], "internal_node_id": "0.0-73.0", "trial": 2, "time_elapsed": 471635, "serialpos": 11, "key_press": -1, "wordID": 436, "type": "PRES_VIS", "trial_index": 100}, "uniqueid": "MTK2834:3XUHV3NRVL5EMBD94CC1JIFDCGHH5F", "dateTime": 1519411884879}, {"current_trial": 101, "trialdata": {"rt": -1, "trial_type": "single-stim", "word": "razor", "stimulus": "<p id=\"stim\">RAZOR</p>", "conditions": [24, 1600, "v", 24000], "internal_node_id": "0.0-74.0", "trial": 2, "time_elapsed": 474354, "serialpos": 12, "key_press": -1, "wordID": 1170, "type": "PRES_VIS", "trial_index": 101}, "uniqueid": "MTK2834:3XUHV3NRVL5EMBD94CC1JIFDCGHH5F", "dateTime": 1519411887597}, {"current_trial": 102, "trialdata": {"rt": -1, "trial_type": "single-stim", "word": "blouse", "stimulus": "<p id=\"stim\">BLOUSE</p>", "conditions": [24, 1600, "v", 24000], "internal_node_id": "0.0-75.0", "trial": 2, "time_elapsed": 477129, "serialpos": 13, "key_press": -1, "wordID": 138, "type": "PRES_VIS", "trial_index": 102}, "uniqueid": "MTK2834:3XUHV3NRVL5EMBD94CC1JIFDCGHH5F", "dateTime": 1519411890372}, {"current_trial": 103, "trialdata": {"rt": -1, "trial_type": "single-stim", "word": "nightgown", "stimulus": "<p id=\"stim\">NIGHTGOWN</p>", "conditions": [24, 1600, "v", 24000], "internal_node_id": "0.0-76.0", "trial": 2, "time_elapsed": 479768, "serialpos": 14, "key_press": -1, "wordID": 952, "type": "PRES_VIS", "trial_index": 103}, "uniqueid": "MTK2834:3XUHV3NRVL5EMBD94CC1JIFDCGHH5F", "dateTime": 1519411893012}, {"current_trial": 104, "trialdata": {"rt": -1, "trial_type": "single-stim", "word": "mailman", "stimulus": "<p id=\"stim\">MAILMAN</p>", "conditions": [24, 1600, "v", 24000], "internal_node_id": "0.0-77.0", "trial": 2, "time_elapsed": 482201, "serialpos": 15, "key_press": -1, "wordID": 857, "type": "PRES_VIS", "trial_index": 104}, "uniqueid": "MTK2834:3XUHV3NRVL5EMBD94CC1JIFDCGHH5F", "dateTime": 1519411895444}, {"current_trial": 105, "trialdata": {"rt": -1, "trial_type": "single-stim", "word": "mask", "stimulus": "<p id=\"stim\">MASK</p>", "conditions": [24, 1600, "v", 24000], "internal_node_id": "0.0-78.0", "trial": 2, "time_elapsed": 484967, "serialpos": 16, "key_press": -1, "wordID": 875, "type": "PRES_VIS", "trial_index": 105}, "uniqueid": "MTK2834:3XUHV3NRVL5EMBD94CC1JIFDCGHH5F", "dateTime": 1519411898210}, {"current_trial": 106, "trialdata": {"rt": -1, "trial_type": "single-stim", "word": "headband", "stimulus": "<p id=\"stim\">HEADBAND</p>", "conditions": [24, 1600, "v", 24000], "internal_node_id": "0.0-79.0", "trial": 2, "time_elapsed": 487451, "serialpos": 17, "key_press": -1, "wordID": 695, "type": "PRES_VIS", "trial_index": 106}, "uniqueid": "MTK2834:3XUHV3NRVL5EMBD94CC1JIFDCGHH5F", "dateTime": 1519411900694}, {"current_trial": 107, "trialdata": {"rt": -1, "trial_type": "single-stim", "word": "tractor", "stimulus": "<p id=\"stim\">TRACTOR</p>", "conditions": [24, 1600, "v", 24000], "internal_node_id": "0.0-80.0", "trial": 2, "time_elapsed": 489945, "serialpos": 18, "key_press": -1, "wordID": 1492, "type": "PRES_VIS", "trial_index": 107}, "uniqueid": "MTK2834:3XUHV3NRVL5EMBD94CC1JIFDCGHH5F", "dateTime": 1519411903188}, {"current_trial": 108, "trialdata": {"rt": -1, "trial_type": "single-stim", "word": "scalpel", "stimulus": "<p id=\"stim\">SCALPEL</p>", "conditions": [24, 1600, "v", 24000], "internal_node_id": "0.0-81.0", "trial": 2, "time_elapsed": 492481, "serialpos": 19, "key_press": -1, "wordID": 1242, "type": "PRES_VIS", "trial_index": 108}, "uniqueid": "MTK2834:3XUHV3NRVL5EMBD94CC1JIFDCGHH5F", "dateTime": 1519411905725}, {"current_trial": 109, "trialdata": {"rt": -1, "trial_type": "single-stim", "word": "branch", "stimulus": "<p id=\"stim\">BRANCH</p>", "conditions": [24, 1600, "v", 24000], "internal_node_id": "0.0-82.0", "trial": 2, "time_elapsed": 495130, "serialpos": 20, "key_press": -1, "wordID": 167, "type": "PRES_VIS", "trial_index": 109}, "uniqueid": "MTK2834:3XUHV3NRVL5EMBD94CC1JIFDCGHH5F", "dateTime": 1519411908373}, {"current_trial": 110, "trialdata": {"rt": -1, "trial_type": "single-stim", "word": "tortoise", "stimulus": "<p id=\"stim\">TORTOISE</p>", "conditions": [24, 1600, "v", 24000], "internal_node_id": "0.0-83.0", "trial": 2, "time_elapsed": 497920, "serialpos": 21, "key_press": -1, "wordID": 1485, "type": "PRES_VIS", "trial_index": 110}, "uniqueid": "MTK2834:3XUHV3NRVL5EMBD94CC1JIFDCGHH5F", "dateTime": 1519411911163}, {"current_trial": 111, "trialdata": {"rt": -1, "trial_type": "single-stim", "word": "marker", "stimulus": "<p id=\"stim\">MARKER</p>", "conditions": [24, 1600, "v", 24000], "internal_node_id": "0.0-84.0", "trial": 2, "time_elapsed": 500672, "serialpos": 22, "key_press": -1, "wordID": 869, "type": "PRES_VIS", "trial_index": 111}, "uniqueid": "MTK2834:3XUHV3NRVL5EMBD94CC1JIFDCGHH5F", "dateTime": 1519411913915}, {"current_trial": 112, "trialdata": {"rt": -1, "trial_type": "single-stim", "word": "airport", "stimulus": "<p id=\"stim\">AIRPORT</p>", "conditions": [24, 1600, "v", 24000], "internal_node_id": "0.0-85.0", "trial": 2, "time_elapsed": 503276, "serialpos": 23, "key_press": -1, "wordID": 12, "type": "PRES_VIS", "trial_index": 112}, "uniqueid": "MTK2834:3XUHV3NRVL5EMBD94CC1JIFDCGHH5F", "dateTime": 1519411916519}, {"current_trial": 113, "trialdata": {"rt": -1, "trial_type": "single-stim", "stimulus": "", "internal_node_id": "0.0-86.0-0.0", "time_elapsed": 505409, "key_press": -1, "type": "PRE_RECALL_DELAY", "trial_index": 113}, "uniqueid": "MTK2834:3XUHV3NRVL5EMBD94CC1JIFDCGHH5F", "dateTime": 1519411918652}, {"current_trial": 114, "trialdata": {"rt": -1000, "trial_type": "single-audio", "stimulus": "/static/audio/400Hz.wav", "internal_node_id": "0.0-87.0", "time_elapsed": 505909, "key_press": -1, "type": "PRE_RECALL_ALERT", "trial_index": 114}, "uniqueid": "MTK2834:3XUHV3NRVL5EMBD94CC1JIFDCGHH5F", "dateTime": 1519411919153}, {"current_trial": 115, "trialdata": {"rt": [4057, 5821, 6635, 8245, 9166, 12160, 15264, 17080, 18395, 20887, 23018, 26102, 27591, 33701], "recwords": ["airport", "friend", "wife", "wagon", "maple", "tortoise", "branch", "nightgown", "mask", "scalpel", "razor", "princess", "dime", "dancer"], "key_times": [1866, 1958, 2125, 2657, 2763, 3082, 3301, 3311, 3870, 4057, 4859, 5065, 5191, 5322, 5483, 5611, 5821, 6178, 6272, 6422, 6477, 6635, 7321, 7368, 7802, 7850, 8062, 8245, 8449, 8507, 8830, 8884, 9063, 9166, 9902, 10078, 10339, 10685, 10861, 10994, 11869, 11895, 12160, 12504, 12505, 12566, 12974, 13074, 13160, 13850, 14024, 14112, 14214, 14359, 14703, 15264, 15724, 15881, 15943, 16046, 16153, 16371, 16441, 16713, 16811, 17080, 17820, 17908, 18172, 18237, 18395, 19849, 19966, 20052, 20219, 20414, 20622, 20690, 20887, 22153, 22227, 22449, 22564, 22987, 23018, 24543, 24892, 25058, 25303, 25489, 25730, 25785, 25956, 26102, 26594, 26670, 26690, 27219, 27414, 27480, 27591, 32266, 32325, 32368, 32877, 32980, 33093, 33208, 33321, 33568, 33635, 33701], "trial_type": "free-recall", "conditions": [24, 1600, "v", 24000], "internal_node_id": "0.0-88.0-0.0", "key_presses": [65, 73, 82, 80, 79, 82, 84, 89, 8, 13, 70, 82, 73, 69, 78, 68, 13, 87, 73, 70, 69, 13, 87, 65, 71, 79, 78, 13, 77, 65, 80, 76, 69, 13, 84, 79, 82, 84, 79, 73, 83, 69, 13, 78, 72, 82, 8, 8, 8, 66, 82, 65, 78, 67, 72, 13, 78, 73, 71, 72, 84, 71, 79, 87, 78, 13, 77, 65, 83, 75, 13, 83, 67, 65, 76, 80, 69, 76, 13, 82, 65, 90, 79, 82, 13, 80, 82, 73, 78, 67, 69, 83, 83, 13, 68, 73, 79, 8, 77, 69, 13, 68, 70, 65, 8, 8, 65, 78, 67, 69, 82, 13], "trial": 2, "time_elapsed": 565913, "type": "FREE_RECALL", "trial_index": 115}, "uniqueid": "MTK2834:3XUHV3NRVL5EMBD94CC1JIFDCGHH5F", "dateTime": 1519411979157}, {"current_trial": 116, "trialdata": {"rt": 32200, "trial_type": "text", "internal_node_id": "0.0-89.0", "time_elapsed": 600115, "key_press": 32, "type": "INSTRUCTIONS", "trial_index": 116}, "uniqueid": "MTK2834:3XUHV3NRVL5EMBD94CC1JIFDCGHH5F", "dateTime": 1519412013358}, {"current_trial": 117, "trialdata": {"rt": [3436, 7528, 10786, 15304, 17403, 21253, 23659], "trial_type": "math-distractor", "key_times": [2969, 3188, 3436, 6784, 7018, 7528, 10164, 10401, 10786, 14843, 15052, 15304, 16988, 17162, 17403, 20495, 20707, 21253, 23382, 23454, 23659], "responses": ["20", "17", "19", "17", "10", "10", "12"], "num2": [8, 3, 9, 8, 7, 2, 7, 8], "num3": [3, 8, 2, 5, 1, 7, 1, 8], "conditions": [24, 800, "v", 24000], "internal_node_id": "0.0-90.0", "key_presses": [98, 96, 13, 97, 103, 13, 97, 105, 13, 97, 103, 13, 97, 96, 13, 97, 96, 13, 97, 98, 13], "trial": 3, "time_elapsed": 626118, "type": "DISTRACTOR", "trial_index": 117, "num1": [9, 6, 8, 4, 2, 1, 4, 1]}, "uniqueid": "MTK2834:3XUHV3NRVL5EMBD94CC1JIFDCGHH5F", "dateTime": 1519412039361}, {"current_trial": 118, "trialdata": {"rt": -1, "trial_type": "single-stim", "stimulus": "<p id=\"stim\">10</p>", "internal_node_id": "0.0-91.0-0.0", "time_elapsed": 629119, "key_press": -1, "trial_index": 118}, "uniqueid": "MTK2834:3XUHV3NRVL5EMBD94CC1JIFDCGHH5F", "dateTime": 1519412042362}, {"current_trial": 119, "trialdata": {"rt": -1, "trial_type": "single-stim", "stimulus": "<p id=\"stim\">9</p>", "internal_node_id": "0.0-91.0-1.0", "time_elapsed": 630120, "key_press": -1, "trial_index": 119}, "uniqueid": "MTK2834:3XUHV3NRVL5EMBD94CC1JIFDCGHH5F", "dateTime": 1519412043363}, {"current_trial": 120, "trialdata": {"rt": -1, "trial_type": "single-stim", "stimulus": "<p id=\"stim\">8</p>", "internal_node_id": "0.0-91.0-2.0", "time_elapsed": 631123, "key_press": -1, "trial_index": 120}, "uniqueid": "MTK2834:3XUHV3NRVL5EMBD94CC1JIFDCGHH5F", "dateTime": 1519412044366}, {"current_trial": 121, "trialdata": {"rt": -1, "trial_type": "single-stim", "stimulus": "<p id=\"stim\">7</p>", "internal_node_id": "0.0-91.0-3.0", "time_elapsed": 632124, "key_press": -1, "trial_index": 121}, "uniqueid": "MTK2834:3XUHV3NRVL5EMBD94CC1JIFDCGHH5F", "dateTime": 1519412045367}, {"current_trial": 122, "trialdata": {"rt": -1, "trial_type": "single-stim", "stimulus": "<p id=\"stim\">6</p>", "internal_node_id": "0.0-91.0-4.0", "time_elapsed": 633126, "key_press": -1, "trial_index": 122}, "uniqueid": "MTK2834:3XUHV3NRVL5EMBD94CC1JIFDCGHH5F", "dateTime": 1519412046369}, {"current_trial": 123, "trialdata": {"rt": -1, "trial_type": "single-stim", "stimulus": "<p id=\"stim\">5</p>", "internal_node_id": "0.0-91.0-5.0", "time_elapsed": 634128, "key_press": -1, "trial_index": 123}, "uniqueid": "MTK2834:3XUHV3NRVL5EMBD94CC1JIFDCGHH5F", "dateTime": 1519412047371}, {"current_trial": 124, "trialdata": {"rt": -1, "trial_type": "single-stim", "stimulus": "<p id=\"stim\">4</p>", "internal_node_id": "0.0-91.0-6.0", "time_elapsed": 635129, "key_press": -1, "trial_index": 124}, "uniqueid": "MTK2834:3XUHV3NRVL5EMBD94CC1JIFDCGHH5F", "dateTime": 1519412048372}, {"current_trial": 125, "trialdata": {"rt": -1, "trial_type": "single-stim", "stimulus": "<p id=\"stim\">3</p>", "internal_node_id": "0.0-91.0-7.0", "time_elapsed": 636130, "key_press": -1, "trial_index": 125}, "uniqueid": "MTK2834:3XUHV3NRVL5EMBD94CC1JIFDCGHH5F", "dateTime": 1519412049373}, {"current_trial": 126, "trialdata": {"rt": -1, "trial_type": "single-stim", "stimulus": "<p id=\"stim\">2</p>", "internal_node_id": "0.0-91.0-8.0", "time_elapsed": 637131, "key_press": -1, "trial_index": 126}, "uniqueid": "MTK2834:3XUHV3NRVL5EMBD94CC1JIFDCGHH5F", "dateTime": 1519412050374}, {"current_trial": 127, "trialdata": {"rt": -1, "trial_type": "single-stim", "stimulus": "<p id=\"stim\">1</p>", "internal_node_id": "0.0-91.0-9.0", "time_elapsed": 638132, "key_press": -1, "trial_index": 127}, "uniqueid": "MTK2834:3XUHV3NRVL5EMBD94CC1JIFDCGHH5F", "dateTime": 1519412051375}, {"current_trial": 128, "trialdata": {"rt": -1, "trial_type": "single-stim", "stimulus": "<p id=\"stim\">+</p>", "internal_node_id": "0.0-92.0-0.0", "time_elapsed": 639633, "key_press": -1, "type": "FIXATION", "trial_index": 128}, "uniqueid": "MTK2834:3XUHV3NRVL5EMBD94CC1JIFDCGHH5F", "dateTime": 1519412052876}, {"current_trial": 129, "trialdata": {"rt": -1, "trial_type": "single-stim", "word": "bison", "stimulus": "<p id=\"stim\">BISON</p>", "conditions": [24, 800, "v", 24000], "internal_node_id": "0.0-93.0", "trial": 3, "time_elapsed": 640436, "serialpos": 0, "key_press": -1, "wordID": 130, "type": "PRES_VIS", "trial_index": 129}, "uniqueid": "MTK2834:3XUHV3NRVL5EMBD94CC1JIFDCGHH5F", "dateTime": 1519412053679}, {"current_trial": 130, "trialdata": {"rt": -1, "trial_type": "single-stim", "word": "pork", "stimulus": "<p id=\"stim\">PORK</p>", "conditions": [24, 800, "v", 24000], "internal_node_id": "0.0-94.0", "trial": 3, "time_elapsed": 642234, "serialpos": 1, "key_press": -1, "wordID": 1107, "type": "PRES_VIS", "trial_index": 130}, "uniqueid": "MTK2834:3XUHV3NRVL5EMBD94CC1JIFDCGHH5F", "dateTime": 1519412055477}, {"current_trial": 131, "trialdata": {"rt": -1, "trial_type": "single-stim", "word": "costume", "stimulus": "<p id=\"stim\">COSTUME</p>", "conditions": [24, 800, "v", 24000], "internal_node_id": "0.0-95.0", "trial": 3, "time_elapsed": 644186, "serialpos": 2, "key_press": -1, "wordID": 382, "type": "PRES_VIS", "trial_index": 131}, "uniqueid": "MTK2834:3XUHV3NRVL5EMBD94CC1JIFDCGHH5F", "dateTime": 1519412057429}, {"current_trial": 132, "trialdata": {"rt": -1, "trial_type": "single-stim", "word": "cobra", "stimulus": "<p id=\"stim\">COBRA</p>", "conditions": [24, 800, "v", 24000], "internal_node_id": "0.0-96.0", "trial": 3, "time_elapsed": 645858, "serialpos": 3, "key_press": -1, "wordID": 335, "type": "PRES_VIS", "trial_index": 132}, "uniqueid": "MTK2834:3XUHV3NRVL5EMBD94CC1JIFDCGHH5F", "dateTime": 1519412059101}, {"current_trial": 133, "trialdata": {"rt": -1, "trial_type": "single-stim", "word": "honey", "stimulus": "<p id=\"stim\">HONEY</p>", "conditions": [24, 800, "v", 24000], "internal_node_id": "0.0-97.0", "trial": 3, "time_elapsed": 647613, "serialpos": 4, "key_press": -1, "wordID": 712, "type": "PRES_VIS", "trial_index": 133}, "uniqueid": "MTK2834:3XUHV3NRVL5EMBD94CC1JIFDCGHH5F", "dateTime": 1519412060856}, {"current_trial": 134, "trialdata": {"rt": -1, "trial_type": "single-stim", "word": "seafood", "stimulus": "<p id=\"stim\">SEAFOOD</p>", "conditions": [24, 800, "v", 24000], "internal_node_id": "0.0-98.0", "trial": 3, "time_elapsed": 649244, "serialpos": 5, "key_press": -1, "wordID": 1259, "type": "PRES_VIS", "trial_index": 134}, "uniqueid": "MTK2834:3XUHV3NRVL5EMBD94CC1JIFDCGHH5F", "dateTime": 1519412062487}, {"current_trial": 135, "trialdata": {"rt": -1, "trial_type": "single-stim", "word": "shrub", "stimulus": "<p id=\"stim\">SHRUB</p>", "conditions": [24, 800, "v", 24000], "internal_node_id": "0.0-99.0", "trial": 3, "time_elapsed": 651211, "serialpos": 6, "key_press": -1, "wordID": 1298, "type": "PRES_VIS", "trial_index": 135}, "uniqueid": "MTK2834:3XUHV3NRVL5EMBD94CC1JIFDCGHH5F", "dateTime": 1519412064454}, {"current_trial": 136, "trialdata": {"rt": -1, "trial_type": "single-stim", "word": "turkey", "stimulus": "<p id=\"stim\">TURKEY</p>", "conditions": [24, 800, "v", 24000], "internal_node_id": "0.0-100.0", "trial": 3, "time_elapsed": 652960, "serialpos": 7, "key_press": -1, "wordID": 1519, "type": "PRES_VIS", "trial_index": 136}, "uniqueid": "MTK2834:3XUHV3NRVL5EMBD94CC1JIFDCGHH5F", "dateTime": 1519412066204}, {"current_trial": 137, "trialdata": {"rt": -1, "trial_type": "single-stim", "word": "quail", "stimulus": "<p id=\"stim\">QUAIL</p>", "conditions": [24, 800, "v", 24000], "internal_node_id": "0.0-101.0", "trial": 3, "time_elapsed": 654686, "serialpos": 8, "key_press": -1, "wordID": 1146, "type": "PRES_VIS", "trial_index": 137}, "uniqueid": "MTK2834:3XUHV3NRVL5EMBD94CC1JIFDCGHH5F", "dateTime": 1519412067929}, {"current_trial": 138, "trialdata": {"rt": -1, "trial_type": "single-stim", "word": "dustpan", "stimulus": "<p id=\"stim\">DUSTPAN</p>", "conditions": [24, 800, "v", 24000], "internal_node_id": "0.0-102.0", "trial": 3, "time_elapsed": 656494, "serialpos": 9, "key_press": -1, "wordID": 508, "type": "PRES_VIS", "trial_index": 138}, "uniqueid": "MTK2834:3XUHV3NRVL5EMBD94CC1JIFDCGHH5F", "dateTime": 1519412069737}, {"current_trial": 139, "trialdata": {"rt": -1, "trial_type": "single-stim", "word": "drug", "stimulus": "<p id=\"stim\">DRUG</p>", "conditions": [24, 800, "v", 24000], "internal_node_id": "0.0-103.0", "trial": 3, "time_elapsed": 658314, "serialpos": 10, "key_press": -1, "wordID": 500, "type": "PRES_VIS", "trial_index": 139}, "uniqueid": "MTK2834:3XUHV3NRVL5EMBD94CC1JIFDCGHH5F", "dateTime": 1519412071557}, {"current_trial": 140, "trialdata": {"rt": -1, "trial_type": "single-stim", "word": "record", "stimulus": "<p id=\"stim\">RECORD</p>", "conditions": [24, 800, "v", 24000], "internal_node_id": "0.0-104.0", "trial": 3, "time_elapsed": 660268, "serialpos": 11, "key_press": -1, "wordID": 1175, "type": "PRES_VIS", "trial_index": 140}, "uniqueid": "MTK2834:3XUHV3NRVL5EMBD94CC1JIFDCGHH5F", "dateTime": 1519412073511}, {"current_trial": 141, "trialdata": {"rt": -1, "trial_type": "single-stim", "word": "army", "stimulus": "<p id=\"stim\">ARMY</p>", "conditions": [24, 800, "v", 24000], "internal_node_id": "0.0-105.0", "trial": 3, "time_elapsed": 662028, "serialpos": 12, "key_press": -1, "wordID": 38, "type": "PRES_VIS", "trial_index": 141}, "uniqueid": "MTK2834:3XUHV3NRVL5EMBD94CC1JIFDCGHH5F", "dateTime": 1519412075271}, {"current_trial": 142, "trialdata": {"rt": -1, "trial_type": "single-stim", "word": "muffin", "stimulus": "<p id=\"stim\">MUFFIN</p>", "conditions": [24, 800, "v", 24000], "internal_node_id": "0.0-106.0", "trial": 3, "time_elapsed": 663677, "serialpos": 13, "key_press": -1, "wordID": 928, "type": "PRES_VIS", "trial_index": 142}, "uniqueid": "MTK2834:3XUHV3NRVL5EMBD94CC1JIFDCGHH5F", "dateTime": 1519412076920}, {"current_trial": 143, "trialdata": {"rt": -1, "trial_type": "single-stim", "word": "clock", "stimulus": "<p id=\"stim\">CLOCK</p>", "conditions": [24, 800, "v", 24000], "internal_node_id": "0.0-107.0", "trial": 3, "time_elapsed": 665283, "serialpos": 14, "key_press": -1, "wordID": 324, "type": "PRES_VIS", "trial_index": 143}, "uniqueid": "MTK2834:3XUHV3NRVL5EMBD94CC1JIFDCGHH5F", "dateTime": 1519412078526}, {"current_trial": 144, "trialdata": {"rt": -1, "trial_type": "single-stim", "word": "bucket", "stimulus": "<p id=\"stim\">BUCKET</p>", "conditions": [24, 800, "v", 24000], "internal_node_id": "0.0-108.0", "trial": 3, "time_elapsed": 667019, "serialpos": 15, "key_press": -1, "wordID": 183, "type": "PRES_VIS", "trial_index": 144}, "uniqueid": "MTK2834:3XUHV3NRVL5EMBD94CC1JIFDCGHH5F", "dateTime": 1519412080262}, {"current_trial": 145, "trialdata": {"rt": -1, "trial_type": "single-stim", "word": "switch", "stimulus": "<p id=\"stim\">SWITCH</p>", "conditions": [24, 800, "v", 24000], "internal_node_id": "0.0-109.0", "trial": 3, "time_elapsed": 668877, "serialpos": 16, "key_press": -1, "wordID": 1421, "type": "PRES_VIS", "trial_index": 145}, "uniqueid": "MTK2834:3XUHV3NRVL5EMBD94CC1JIFDCGHH5F", "dateTime": 1519412082120}, {"current_trial": 146, "trialdata": {"rt": -1, "trial_type": "single-stim", "word": "match", "stimulus": "<p id=\"stim\">MATCH</p>", "conditions": [24, 800, "v", 24000], "internal_node_id": "0.0-110.0", "trial": 3, "time_elapsed": 670878, "serialpos": 17, "key_press": -1, "wordID": 877, "type": "PRES_VIS", "trial_index": 146}, "uniqueid": "MTK2834:3XUHV3NRVL5EMBD94CC1JIFDCGHH5F", "dateTime": 1519412084121}, {"current_trial": 147, "trialdata": {"rt": -1, "trial_type": "single-stim", "word": "leopard", "stimulus": "<p id=\"stim\">LEOPARD</p>", "conditions": [24, 800, "v", 24000], "internal_node_id": "0.0-111.0", "trial": 3, "time_elapsed": 672751, "serialpos": 18, "key_press": -1, "wordID": 811, "type": "PRES_VIS", "trial_index": 147}, "uniqueid": "MTK2834:3XUHV3NRVL5EMBD94CC1JIFDCGHH5F", "dateTime": 1519412085994}, {"current_trial": 148, "trialdata": {"rt": -1, "trial_type": "single-stim", "word": "pistol", "stimulus": "<p id=\"stim\">PISTOL</p>", "conditions": [24, 800, "v", 24000], "internal_node_id": "0.0-112.0", "trial": 3, "time_elapsed": 674742, "serialpos": 19, "key_press": -1, "wordID": 1074, "type": "PRES_VIS", "trial_index": 148}, "uniqueid": "MTK2834:3XUHV3NRVL5EMBD94CC1JIFDCGHH5F", "dateTime": 1519412087985}, {"current_trial": 149, "trialdata": {"rt": -1, "trial_type": "single-stim", "word": "piano", "stimulus": "<p id=\"stim\">PIANO</p>", "conditions": [24, 800, "v", 24000], "internal_node_id": "0.0-113.0", "trial": 3, "time_elapsed": 676454, "serialpos": 20, "key_press": -1, "wordID": 1056, "type": "PRES_VIS", "trial_index": 149}, "uniqueid": "MTK2834:3XUHV3NRVL5EMBD94CC1JIFDCGHH5F", "dateTime": 1519412089697}, {"current_trial": 150, "trialdata": {"rt": -1, "trial_type": "single-stim", "word": "guitar", "stimulus": "<p id=\"stim\">GUITAR</p>", "conditions": [24, 800, "v", 24000], "internal_node_id": "0.0-114.0", "trial": 3, "time_elapsed": 678157, "serialpos": 21, "key_press": -1, "wordID": 669, "type": "PRES_VIS", "trial_index": 150}, "uniqueid": "MTK2834:3XUHV3NRVL5EMBD94CC1JIFDCGHH5F", "dateTime": 1519412091401}, {"current_trial": 151, "trialdata": {"rt": -1, "trial_type": "single-stim", "word": "country", "stimulus": "<p id=\"stim\">COUNTRY</p>", "conditions": [24, 800, "v", 24000], "internal_node_id": "0.0-115.0", "trial": 3, "time_elapsed": 679782, "serialpos": 22, "key_press": -1, "wordID": 387, "type": "PRES_VIS", "trial_index": 151}, "uniqueid": "MTK2834:3XUHV3NRVL5EMBD94CC1JIFDCGHH5F", "dateTime": 1519412093026}, {"current_trial": 152, "trialdata": {"rt": -1, "trial_type": "single-stim", "word": "knife", "stimulus": "<p id=\"stim\">KNIFE</p>", "conditions": [24, 800, "v", 24000], "internal_node_id": "0.0-116.0", "trial": 3, "time_elapsed": 681524, "serialpos": 23, "key_press": -1, "wordID": 784, "type": "PRES_VIS", "trial_index": 152}, "uniqueid": "MTK2834:3XUHV3NRVL5EMBD94CC1JIFDCGHH5F", "dateTime": 1519412094767}, {"current_trial": 153, "trialdata": {"rt": -1, "trial_type": "single-stim", "stimulus": "", "internal_node_id": "0.0-117.0-0.0", "time_elapsed": 683800, "key_press": -1, "type": "PRE_RECALL_DELAY", "trial_index": 153}, "uniqueid": "MTK2834:3XUHV3NRVL5EMBD94CC1JIFDCGHH5F", "dateTime": 1519412097043}, {"current_trial": 154, "trialdata": {"rt": -1000, "trial_type": "single-audio", "stimulus": "/static/audio/400Hz.wav", "internal_node_id": "0.0-118.0", "time_elapsed": 684301, "key_press": -1, "type": "PRE_RECALL_ALERT", "trial_index": 154}, "uniqueid": "MTK2834:3XUHV3NRVL5EMBD94CC1JIFDCGHH5F", "dateTime": 1519412097544}, {"current_trial": 155, "trialdata": {"rt": [2487, 4470, 5839, 6853, 9083, 11345, 13231, 14808, 25438, 33568, 37167], "recwords": ["knife", "pistol", "switch", "match", "bison", "turkey", "quail", "pork", "shrub", "guitar", "piano"], "key_times": [1712, 1762, 2026, 2127, 2191, 2487, 3154, 3289, 3704, 3976, 4030, 4238, 4470, 4995, 5212, 5299, 5386, 5606, 5649, 5839, 6129, 6212, 6347, 6548, 6618, 6853, 8359, 8442, 8627, 8718, 8908, 9083, 9808, 9893, 10059, 10174, 10911, 11112, 11345, 11989, 12048, 12237, 12368, 12673, 13231, 13851, 13940, 14525, 14557, 14808, 24391, 24476, 24725, 24860, 25133, 25438, 32538, 32596, 32801, 32905, 33094, 33177, 33568, 36131, 36356, 36496, 36581, 37013, 37167], "trial_type": "free-recall", "conditions": [24, 800, "v", 24000], "internal_node_id": "0.0-119.0-0.0", "key_presses": [75, 78, 73, 70, 69, 13, 80, 73, 83, 84, 79, 76, 13, 83, 87, 73, 84, 67, 72, 13, 77, 65, 84, 67, 72, 13, 66, 73, 83, 79, 78, 13, 84, 85, 82, 75, 69, 89, 13, 81, 85, 65, 73, 76, 13, 80, 79, 82, 75, 13, 83, 72, 82, 85, 66, 13, 71, 85, 73, 84, 65, 82, 13, 80, 73, 65, 78, 79, 13], "trial": 3, "time_elapsed": 744304, "type": "FREE_RECALL", "trial_index": 155}, "uniqueid": "MTK2834:3XUHV3NRVL5EMBD94CC1JIFDCGHH5F", "dateTime": 1519412157548}, {"current_trial": 156, "trialdata": {"rt": 10531, "trial_type": "text", "internal_node_id": "0.0-120.0", "time_elapsed": 756837, "key_press": 32, "type": "INSTRUCTIONS", "trial_index": 156}, "uniqueid": "MTK2834:3XUHV3NRVL5EMBD94CC1JIFDCGHH5F", "dateTime": 1519412170080}, {"current_trial": 157, "trialdata": {"rt": [4557, 8147, 12455, 15212, 19473, 21597], "trial_type": "math-distractor", "key_times": [2395, 3532, 4081, 4557, 7792, 7934, 8147, 12141, 12292, 12455, 15012, 15053, 15212, 18768, 19273, 19473, 21261, 21407, 21597], "responses": ["9", "14", "21", "12", "19", "18"], "num2": [6, 5, 5, 5, 4, 1, 7], "num3": [2, 6, 9, 3, 9, 9, 2], "conditions": [12, 800, "v", 24000], "internal_node_id": "0.0-121.0", "key_presses": [104, 8, 105, 13, 97, 100, 13, 98, 97, 13, 97, 98, 13, 97, 105, 13, 97, 104, 13], "trial": 4, "time_elapsed": 782840, "type": "DISTRACTOR", "trial_index": 157, "num1": [1, 3, 7, 4, 6, 8, 8]}, "uniqueid": "MTK2834:3XUHV3NRVL5EMBD94CC1JIFDCGHH5F", "dateTime": 1519412196083}, {"current_trial": 158, "trialdata": {"rt": -1, "trial_type": "single-stim", "stimulus": "<p id=\"stim\">10</p>", "internal_node_id": "0.0-122.0-0.0", "time_elapsed": 785843, "key_press": -1, "trial_index": 158}, "uniqueid": "MTK2834:3XUHV3NRVL5EMBD94CC1JIFDCGHH5F", "dateTime": 1519412199086}, {"current_trial": 159, "trialdata": {"rt": -1, "trial_type": "single-stim", "stimulus": "<p id=\"stim\">9</p>", "internal_node_id": "0.0-122.0-1.0", "time_elapsed": 786844, "key_press": -1, "trial_index": 159}, "uniqueid": "MTK2834:3XUHV3NRVL5EMBD94CC1JIFDCGHH5F", "dateTime": 1519412200087}, {"current_trial": 160, "trialdata": {"rt": -1, "trial_type": "single-stim", "stimulus": "<p id=\"stim\">8</p>", "internal_node_id": "0.0-122.0-2.0", "time_elapsed": 787845, "key_press": -1, "trial_index": 160}, "uniqueid": "MTK2834:3XUHV3NRVL5EMBD94CC1JIFDCGHH5F", "dateTime": 1519412201089}, {"current_trial": 161, "trialdata": {"rt": -1, "trial_type": "single-stim", "stimulus": "<p id=\"stim\">7</p>", "internal_node_id": "0.0-122.0-3.0", "time_elapsed": 788846, "key_press": -1, "trial_index": 161}, "uniqueid": "MTK2834:3XUHV3NRVL5EMBD94CC1JIFDCGHH5F", "dateTime": 1519412202089}, {"current_trial": 162, "trialdata": {"rt": -1, "trial_type": "single-stim", "stimulus": "<p id=\"stim\">6</p>", "internal_node_id": "0.0-122.0-4.0", "time_elapsed": 789848, "key_press": -1, "trial_index": 162}, "uniqueid": "MTK2834:3XUHV3NRVL5EMBD94CC1JIFDCGHH5F", "dateTime": 1519412203091}, {"current_trial": 163, "trialdata": {"rt": -1, "trial_type": "single-stim", "stimulus": "<p id=\"stim\">5</p>", "internal_node_id": "0.0-122.0-5.0", "time_elapsed": 790849, "key_press": -1, "trial_index": 163}, "uniqueid": "MTK2834:3XUHV3NRVL5EMBD94CC1JIFDCGHH5F", "dateTime": 1519412204092}, {"current_trial": 164, "trialdata": {"rt": -1, "trial_type": "single-stim", "stimulus": "<p id=\"stim\">4</p>", "internal_node_id": "0.0-122.0-6.0", "time_elapsed": 791851, "key_press": -1, "trial_index": 164}, "uniqueid": "MTK2834:3XUHV3NRVL5EMBD94CC1JIFDCGHH5F", "dateTime": 1519412205094}, {"current_trial": 165, "trialdata": {"rt": -1, "trial_type": "single-stim", "stimulus": "<p id=\"stim\">3</p>", "internal_node_id": "0.0-122.0-7.0", "time_elapsed": 792851, "key_press": -1, "trial_index": 165}, "uniqueid": "MTK2834:3XUHV3NRVL5EMBD94CC1JIFDCGHH5F", "dateTime": 1519412206094}, {"current_trial": 166, "trialdata": {"rt": -1, "trial_type": "single-stim", "stimulus": "<p id=\"stim\">2</p>", "internal_node_id": "0.0-122.0-8.0", "time_elapsed": 793852, "key_press": -1, "trial_index": 166}, "uniqueid": "MTK2834:3XUHV3NRVL5EMBD94CC1JIFDCGHH5F", "dateTime": 1519412207095}, {"current_trial": 167, "trialdata": {"rt": -1, "trial_type": "single-stim", "stimulus": "<p id=\"stim\">1</p>", "internal_node_id": "0.0-122.0-9.0", "time_elapsed": 794854, "key_press": -1, "trial_index": 167}, "uniqueid": "MTK2834:3XUHV3NRVL5EMBD94CC1JIFDCGHH5F", "dateTime": 1519412208097}, {"current_trial": 168, "trialdata": {"rt": -1, "trial_type": "single-stim", "stimulus": "<p id=\"stim\">+</p>", "internal_node_id": "0.0-123.0-0.0", "time_elapsed": 796354, "key_press": -1, "type": "FIXATION", "trial_index": 168}, "uniqueid": "MTK2834:3XUHV3NRVL5EMBD94CC1JIFDCGHH5F", "dateTime": 1519412209597}, {"current_trial": 169, "trialdata": {"rt": -1, "trial_type": "single-stim", "word": "pecan", "stimulus": "<p id=\"stim\">PECAN</p>", "conditions": [12, 800, "v", 24000], "internal_node_id": "0.0-124.0", "trial": 4, "time_elapsed": 797156, "serialpos": 0, "key_press": -1, "wordID": 1035, "type": "PRES_VIS", "trial_index": 169}, "uniqueid": "MTK2834:3XUHV3NRVL5EMBD94CC1JIFDCGHH5F", "dateTime": 1519412210399}, {"current_trial": 170, "trialdata": {"rt": -1, "trial_type": "single-stim", "word": "farmer", "stimulus": "<p id=\"stim\">FARMER</p>", "conditions": [12, 800, "v", 24000], "internal_node_id": "0.0-125.0", "trial": 4, "time_elapsed": 798908, "serialpos": 1, "key_press": -1, "wordID": 552, "type": "PRES_VIS", "trial_index": 170}, "uniqueid": "MTK2834:3XUHV3NRVL5EMBD94CC1JIFDCGHH5F", "dateTime": 1519412212151}, {"current_trial": 171, "trialdata": {"rt": -1, "trial_type": "single-stim", "word": "washer", "stimulus": "<p id=\"stim\">WASHER</p>", "conditions": [12, 800, "v", 24000], "internal_node_id": "0.0-126.0", "trial": 4, "time_elapsed": 800520, "serialpos": 2, "key_press": -1, "wordID": 1591, "type": "PRES_VIS", "trial_index": 171}, "uniqueid": "MTK2834:3XUHV3NRVL5EMBD94CC1JIFDCGHH5F", "dateTime": 1519412213763}, {"current_trial": 172, "trialdata": {"rt": -1, "trial_type": "single-stim", "word": "bike", "stimulus": "<p id=\"stim\">BIKE</p>", "conditions": [12, 800, "v", 24000], "internal_node_id": "0.0-127.0", "trial": 4, "time_elapsed": 802125, "serialpos": 3, "key_press": -1, "wordID": 124, "type": "PRES_VIS", "trial_index": 172}, "uniqueid": "MTK2834:3XUHV3NRVL5EMBD94CC1JIFDCGHH5F", "dateTime": 1519412215368}, {"current_trial": 173, "trialdata": {"rt": -1, "trial_type": "single-stim", "word": "peanut", "stimulus": "<p id=\"stim\">PEANUT</p>", "conditions": [12, 800, "v", 24000], "internal_node_id": "0.0-128.0", "trial": 4, "time_elapsed": 803737, "serialpos": 4, "key_press": -1, "wordID": 1031, "type": "PRES_VIS", "trial_index": 173}, "uniqueid": "MTK2834:3XUHV3NRVL5EMBD94CC1JIFDCGHH5F", "dateTime": 1519412216980}, {"current_trial": 174, "trialdata": {"rt": -1, "trial_type": "single-stim", "word": "briefcase", "stimulus": "<p id=\"stim\">BRIEFCASE</p>", "conditions": [12, 800, "v", 24000], "internal_node_id": "0.0-129.0", "trial": 4, "time_elapsed": 805445, "serialpos": 5, "key_press": -1, "wordID": 174, "type": "PRES_VIS", "trial_index": 174}, "uniqueid": "MTK2834:3XUHV3NRVL5EMBD94CC1JIFDCGHH5F", "dateTime": 1519412218688}, {"current_trial": 175, "trialdata": {"rt": -1, "trial_type": "single-stim", "word": "wrist", "stimulus": "<p id=\"stim\">WRIST</p>", "conditions": [12, 800, "v", 24000], "internal_node_id": "0.0-130.0", "trial": 4, "time_elapsed": 807168, "serialpos": 6, "key_press": -1, "wordID": 1625, "type": "PRES_VIS", "trial_index": 175}, "uniqueid": "MTK2834:3XUHV3NRVL5EMBD94CC1JIFDCGHH5F", "dateTime": 1519412220412}, {"current_trial": 176, "trialdata": {"rt": -1, "trial_type": "single-stim", "word": "dress", "stimulus": "<p id=\"stim\">DRESS</p>", "conditions": [12, 800, "v", 24000], "internal_node_id": "0.0-131.0", "trial": 4, "time_elapsed": 808868, "serialpos": 7, "key_press": -1, "wordID": 494, "type": "PRES_VIS", "trial_index": 176}, "uniqueid": "MTK2834:3XUHV3NRVL5EMBD94CC1JIFDCGHH5F", "dateTime": 1519412222111}, {"current_trial": 177, "trialdata": {"rt": -1, "trial_type": "single-stim", "word": "tutu", "stimulus": "<p id=\"stim\">TUTU</p>", "conditions": [12, 800, "v", 24000], "internal_node_id": "0.0-132.0", "trial": 4, "time_elapsed": 810740, "serialpos": 8, "key_press": -1, "wordID": 1523, "type": "PRES_VIS", "trial_index": 177}, "uniqueid": "MTK2834:3XUHV3NRVL5EMBD94CC1JIFDCGHH5F", "dateTime": 1519412223983}, {"current_trial": 178, "trialdata": {"rt": -1, "trial_type": "single-stim", "word": "sandwich", "stimulus": "<p id=\"stim\">SANDWICH</p>", "conditions": [12, 800, "v", 24000], "internal_node_id": "0.0-133.0", "trial": 4, "time_elapsed": 812387, "serialpos": 9, "key_press": -1, "wordID": 1231, "type": "PRES_VIS", "trial_index": 178}, "uniqueid": "MTK2834:3XUHV3NRVL5EMBD94CC1JIFDCGHH5F", "dateTime": 1519412225630}, {"current_trial": 179, "trialdata": {"rt": -1, "trial_type": "single-stim", "word": "ankle", "stimulus": "<p id=\"stim\">ANKLE</p>", "conditions": [12, 800, "v", 24000], "internal_node_id": "0.0-134.0", "trial": 4, "time_elapsed": 814319, "serialpos": 10, "key_press": -1, "wordID": 23, "type": "PRES_VIS", "trial_index": 179}, "uniqueid": "MTK2834:3XUHV3NRVL5EMBD94CC1JIFDCGHH5F", "dateTime": 1519412227562}, {"current_trial": 180, "trialdata": {"rt": -1, "trial_type": "single-stim", "word": "taxi", "stimulus": "<p id=\"stim\">TAXI</p>", "conditions": [12, 800, "v", 24000], "internal_node_id": "0.0-135.0", "trial": 4, "time_elapsed": 816067, "serialpos": 11, "key_press": -1, "wordID": 1437, "type": "PRES_VIS", "trial_index": 180}, "uniqueid": "MTK2834:3XUHV3NRVL5EMBD94CC1JIFDCGHH5F", "dateTime": 1519412229310}, {"current_trial": 181, "trialdata": {"rt": -1, "trial_type": "single-stim", "stimulus": "", "internal_node_id": "0.0-136.0-0.0", "time_elapsed": 818459, "key_press": -1, "type": "PRE_RECALL_DELAY", "trial_index": 181}, "uniqueid": "MTK2834:3XUHV3NRVL5EMBD94CC1JIFDCGHH5F", "dateTime": 1519412231702}, {"current_trial": 182, "trialdata": {"rt": -1000, "trial_type": "single-audio", "stimulus": "/static/audio/400Hz.wav", "internal_node_id": "0.0-137.0", "time_elapsed": 818960, "key_press": -1, "type": "PRE_RECALL_ALERT", "trial_index": 182}, "uniqueid": "MTK2834:3XUHV3NRVL5EMBD94CC1JIFDCGHH5F", "dateTime": 1519412232203}, {"current_trial": 183, "trialdata": {"rt": [2671, 3541, 5595, 7658, 9219, 10488, 11419, 13012, 16227, 24887], "recwords": ["pecan", "farmer", "peanut", "briefcase", "ankle", "wrist", "dress", "tutt", "tutu", "taxi"], "key_times": [1440, 1515, 1741, 1812, 1925, 2671, 2949, 3097, 3168, 3282, 3385, 3444, 3541, 4703, 4783, 4923, 5018, 5311, 5448, 5595, 6136, 6337, 6568, 6761, 6947, 7162, 7257, 7509, 7574, 7658, 8502, 8596, 8791, 9028, 9099, 9219, 9948, 10047, 10215, 10318, 10354, 10488, 10809, 10978, 11038, 11111, 11262, 11419, 12176, 12270, 12354, 12869, 13012, 15332, 15400, 15852, 15929, 16227, 23980, 24196, 24659, 24718, 24887], "trial_type": "free-recall", "conditions": [12, 800, "v", 24000], "internal_node_id": "0.0-138.0-0.0", "key_presses": [80, 69, 67, 65, 78, 13, 70, 65, 82, 77, 69, 82, 13, 80, 69, 65, 78, 85, 84, 13, 66, 82, 73, 69, 70, 67, 65, 83, 69, 13, 65, 78, 75, 76, 69, 13, 87, 82, 73, 83, 84, 13, 68, 82, 69, 83, 83, 13, 84, 85, 84, 84, 13, 84, 85, 84, 85, 13, 84, 65, 88, 73, 13], "trial": 4, "time_elapsed": 878964, "type": "FREE_RECALL", "trial_index": 183}, "uniqueid": "MTK2834:3XUHV3NRVL5EMBD94CC1JIFDCGHH5F", "dateTime": 1519412292209}, {"current_trial": 184, "trialdata": {"rt": 2286, "trial_type": "text", "internal_node_id": "0.0-139.0", "time_elapsed": 883253, "key_press": 32, "type": "INSTRUCTIONS", "trial_index": 184}, "uniqueid": "MTK2834:3XUHV3NRVL5EMBD94CC1JIFDCGHH5F", "dateTime": 1519412296496}, {"current_trial": 185, "trialdata": {"rt": [3901, 6482, 9410], "trial_type": "math-distractor", "key_times": [3269, 3396, 3901, 6075, 6259, 6482, 9160, 9283, 9410], "responses": ["14", "17", "22"], "num2": [3, 4, 9, 9], "num3": [6, 4, 9, 4], "conditions": [12, 800, "v", 12000], "internal_node_id": "0.0-140.0", "key_presses": [97, 100, 13, 97, 103, 13, 98, 98, 13], "trial": 5, "time_elapsed": 897255, "type": "DISTRACTOR", "trial_index": 185, "num1": [5, 9, 4, 9]}, "uniqueid": "MTK2834:3XUHV3NRVL5EMBD94CC1JIFDCGHH5F", "dateTime": 1519412310498}, {"current_trial": 186, "trialdata": {"rt": -1, "trial_type": "single-stim", "stimulus": "<p id=\"stim\">10</p>", "internal_node_id": "0.0-141.0-0.0", "time_elapsed": 900257, "key_press": -1, "trial_index": 186}, "uniqueid": "MTK2834:3XUHV3NRVL5EMBD94CC1JIFDCGHH5F", "dateTime": 1519412313500}, {"current_trial": 187, "trialdata": {"rt": -1, "trial_type": "single-stim", "stimulus": "<p id=\"stim\">9</p>", "internal_node_id": "0.0-141.0-1.0", "time_elapsed": 901257, "key_press": -1, "trial_index": 187}, "uniqueid": "MTK2834:3XUHV3NRVL5EMBD94CC1JIFDCGHH5F", "dateTime": 1519412314500}, {"current_trial": 188, "trialdata": {"rt": -1, "trial_type": "single-stim", "stimulus": "<p id=\"stim\">8</p>", "internal_node_id": "0.0-141.0-2.0", "time_elapsed": 902259, "key_press": -1, "trial_index": 188}, "uniqueid": "MTK2834:3XUHV3NRVL5EMBD94CC1JIFDCGHH5F", "dateTime": 1519412315502}, {"current_trial": 189, "trialdata": {"rt": -1, "trial_type": "single-stim", "stimulus": "<p id=\"stim\">7</p>", "internal_node_id": "0.0-141.0-3.0", "time_elapsed": 903261, "key_press": -1, "trial_index": 189}, "uniqueid": "MTK2834:3XUHV3NRVL5EMBD94CC1JIFDCGHH5F", "dateTime": 1519412316504}, {"current_trial": 190, "trialdata": {"rt": -1, "trial_type": "single-stim", "stimulus": "<p id=\"stim\">6</p>", "internal_node_id": "0.0-141.0-4.0", "time_elapsed": 904262, "key_press": -1, "trial_index": 190}, "uniqueid": "MTK2834:3XUHV3NRVL5EMBD94CC1JIFDCGHH5F", "dateTime": 1519412317505}, {"current_trial": 191, "trialdata": {"rt": -1, "trial_type": "single-stim", "stimulus": "<p id=\"stim\">5</p>", "internal_node_id": "0.0-141.0-5.0", "time_elapsed": 905263, "key_press": -1, "trial_index": 191}, "uniqueid": "MTK2834:3XUHV3NRVL5EMBD94CC1JIFDCGHH5F", "dateTime": 1519412318506}, {"current_trial": 192, "trialdata": {"rt": -1, "trial_type": "single-stim", "stimulus": "<p id=\"stim\">4</p>", "internal_node_id": "0.0-141.0-6.0", "time_elapsed": 906264, "key_press": -1, "trial_index": 192}, "uniqueid": "MTK2834:3XUHV3NRVL5EMBD94CC1JIFDCGHH5F", "dateTime": 1519412319507}, {"current_trial": 193, "trialdata": {"rt": -1, "trial_type": "single-stim", "stimulus": "<p id=\"stim\">3</p>", "internal_node_id": "0.0-141.0-7.0", "time_elapsed": 907266, "key_press": -1, "trial_index": 193}, "uniqueid": "MTK2834:3XUHV3NRVL5EMBD94CC1JIFDCGHH5F", "dateTime": 1519412320509}, {"current_trial": 194, "trialdata": {"rt": -1, "trial_type": "single-stim", "stimulus": "<p id=\"stim\">2</p>", "internal_node_id": "0.0-141.0-8.0", "time_elapsed": 908266, "key_press": -1, "trial_index": 194}, "uniqueid": "MTK2834:3XUHV3NRVL5EMBD94CC1JIFDCGHH5F", "dateTime": 1519412321510}, {"current_trial": 195, "trialdata": {"rt": -1, "trial_type": "single-stim", "stimulus": "<p id=\"stim\">1</p>", "internal_node_id": "0.0-141.0-9.0", "time_elapsed": 909268, "key_press": -1, "trial_index": 195}, "uniqueid": "MTK2834:3XUHV3NRVL5EMBD94CC1JIFDCGHH5F", "dateTime": 1519412322511}, {"current_trial": 196, "trialdata": {"rt": -1, "trial_type": "single-stim", "stimulus": "<p id=\"stim\">+</p>", "internal_node_id": "0.0-142.0-0.0", "time_elapsed": 910770, "key_press": -1, "type": "FIXATION", "trial_index": 196}, "uniqueid": "MTK2834:3XUHV3NRVL5EMBD94CC1JIFDCGHH5F", "dateTime": 1519412324013}, {"current_trial": 197, "trialdata": {"rt": -1, "trial_type": "single-stim", "word": "radish", "stimulus": "<p id=\"stim\">RADISH</p>", "conditions": [12, 800, "v", 12000], "internal_node_id": "0.0-143.0", "trial": 5, "time_elapsed": 911570, "serialpos": 0, "key_press": -1, "wordID": 1157, "type": "PRES_VIS", "trial_index": 197}, "uniqueid": "MTK2834:3XUHV3NRVL5EMBD94CC1JIFDCGHH5F", "dateTime": 1519412324813}, {"current_trial": 198, "trialdata": {"rt": -1, "trial_type": "single-stim", "word": "preacher", "stimulus": "<p id=\"stim\">PREACHER</p>", "conditions": [12, 800, "v", 12000], "internal_node_id": "0.0-144.0", "trial": 5, "time_elapsed": 913513, "serialpos": 1, "key_press": -1, "wordID": 1118, "type": "PRES_VIS", "trial_index": 198}, "uniqueid": "MTK2834:3XUHV3NRVL5EMBD94CC1JIFDCGHH5F", "dateTime": 1519412326756}, {"current_trial": 199, "trialdata": {"rt": -1, "trial_type": "single-stim", "word": "swimmer", "stimulus": "<p id=\"stim\">SWIMMER</p>", "conditions": [12, 800, "v", 12000], "internal_node_id": "0.0-145.0", "trial": 5, "time_elapsed": 915477, "serialpos": 2, "key_press": -1, "wordID": 1419, "type": "PRES_VIS", "trial_index": 199}, "uniqueid": "MTK2834:3XUHV3NRVL5EMBD94CC1JIFDCGHH5F", "dateTime": 1519412328720}, {"current_trial": 200, "trialdata": {"rt": -1, "trial_type": "single-stim", "word": "ointment", "stimulus": "<p id=\"stim\">OINTMENT</p>", "conditions": [12, 800, "v", 12000], "internal_node_id": "0.0-146.0", "trial": 5, "time_elapsed": 917288, "serialpos": 3, "key_press": -1, "wordID": 973, "type": "PRES_VIS", "trial_index": 200}, "uniqueid": "MTK2834:3XUHV3NRVL5EMBD94CC1JIFDCGHH5F", "dateTime": 1519412330531}, {"current_trial": 201, "trialdata": {"rt": -1, "trial_type": "single-stim", "word": "clam", "stimulus": "<p id=\"stim\">CLAM</p>", "conditions": [12, 800, "v", 12000], "internal_node_id": "0.0-147.0", "trial": 5, "time_elapsed": 919085, "serialpos": 4, "key_press": -1, "wordID": 314, "type": "PRES_VIS", "trial_index": 201}, "uniqueid": "MTK2834:3XUHV3NRVL5EMBD94CC1JIFDCGHH5F", "dateTime": 1519412332328}, {"current_trial": 202, "trialdata": {"rt": -1, "trial_type": "single-stim", "word": "widow", "stimulus": "<p id=\"stim\">WIDOW</p>", "conditions": [12, 800, "v", 12000], "internal_node_id": "0.0-148.0", "trial": 5, "time_elapsed": 920799, "serialpos": 5, "key_press": -1, "wordID": 1607, "type": "PRES_VIS", "trial_index": 202}, "uniqueid": "MTK2834:3XUHV3NRVL5EMBD94CC1JIFDCGHH5F", "dateTime": 1519412334042}, {"current_trial": 203, "trialdata": {"rt": -1, "trial_type": "single-stim", "word": "turnip", "stimulus": "<p id=\"stim\">TURNIP</p>", "conditions": [12, 800, "v", 12000], "internal_node_id": "0.0-149.0", "trial": 5, "time_elapsed": 922677, "serialpos": 6, "key_press": -1, "wordID": 1520, "type": "PRES_VIS", "trial_index": 203}, "uniqueid": "MTK2834:3XUHV3NRVL5EMBD94CC1JIFDCGHH5F", "dateTime": 1519412335921}, {"current_trial": 204, "trialdata": {"rt": -1, "trial_type": "single-stim", "word": "mister", "stimulus": "<p id=\"stim\">MISTER</p>", "conditions": [12, 800, "v", 12000], "internal_node_id": "0.0-150.0", "trial": 5, "time_elapsed": 924356, "serialpos": 7, "key_press": -1, "wordID": 900, "type": "PRES_VIS", "trial_index": 204}, "uniqueid": "MTK2834:3XUHV3NRVL5EMBD94CC1JIFDCGHH5F", "dateTime": 1519412337599}, {"current_trial": 205, "trialdata": {"rt": -1, "trial_type": "single-stim", "word": "dust", "stimulus": "<p id=\"stim\">DUST</p>", "conditions": [12, 800, "v", 12000], "internal_node_id": "0.0-151.0", "trial": 5, "time_elapsed": 926335, "serialpos": 8, "key_press": -1, "wordID": 507, "type": "PRES_VIS", "trial_index": 205}, "uniqueid": "MTK2834:3XUHV3NRVL5EMBD94CC1JIFDCGHH5F", "dateTime": 1519412339578}, {"current_trial": 206, "trialdata": {"rt": -1, "trial_type": "single-stim", "word": "grill", "stimulus": "<p id=\"stim\">GRILL</p>", "conditions": [12, 800, "v", 12000], "internal_node_id": "0.0-152.0", "trial": 5, "time_elapsed": 928302, "serialpos": 9, "key_press": -1, "wordID": 660, "type": "PRES_VIS", "trial_index": 206}, "uniqueid": "MTK2834:3XUHV3NRVL5EMBD94CC1JIFDCGHH5F", "dateTime": 1519412341545}, {"current_trial": 207, "trialdata": {"rt": -1, "trial_type": "single-stim", "word": "skillet", "stimulus": "<p id=\"stim\">SKILLET</p>", "conditions": [12, 800, "v", 12000], "internal_node_id": "0.0-153.0", "trial": 5, "time_elapsed": 930246, "serialpos": 10, "key_press": -1, "wordID": 1316, "type": "PRES_VIS", "trial_index": 207}, "uniqueid": "MTK2834:3XUHV3NRVL5EMBD94CC1JIFDCGHH5F", "dateTime": 1519412343489}, {"current_trial": 208, "trialdata": {"rt": -1, "trial_type": "single-stim", "word": "europe", "stimulus": "<p id=\"stim\">EUROPE</p>", "conditions": [12, 800, "v", 12000], "internal_node_id": "0.0-154.0", "trial": 5, "time_elapsed": 931887, "serialpos": 11, "key_press": -1, "wordID": 540, "type": "PRES_VIS", "trial_index": 208}, "uniqueid": "MTK2834:3XUHV3NRVL5EMBD94CC1JIFDCGHH5F", "dateTime": 1519412345130}, {"current_trial": 209, "trialdata": {"rt": -1, "trial_type": "single-stim", "stimulus": "", "internal_node_id": "0.0-155.0-0.0", "time_elapsed": 934274, "key_press": -1, "type": "PRE_RECALL_DELAY", "trial_index": 209}, "uniqueid": "MTK2834:3XUHV3NRVL5EMBD94CC1JIFDCGHH5F", "dateTime": 1519412347517}, {"current_trial": 210, "trialdata": {"rt": -1000, "trial_type": "single-audio", "stimulus": "/static/audio/400Hz.wav", "internal_node_id": "0.0-156.0", "time_elapsed": 934775, "key_press": -1, "type": "PRE_RECALL_ALERT", "trial_index": 210}, "uniqueid": "MTK2834:3XUHV3NRVL5EMBD94CC1JIFDCGHH5F", "dateTime": 1519412348018}, {"current_trial": 211, "trialdata": {"rt": [3258, 4687, 6671, 10482, 12383, 14267, 17291, 19816, 22186, 26152, 28917], "recwords": ["europe", "grill", "skillet", "preacher", "swimmer", "clam", "ointment", "radish", "dust", "turnip", "grill"], "key_times": [1449, 1498, 2258, 2406, 2501, 3138, 3258, 3927, 3982, 4195, 4437, 4539, 4687, 5203, 5506, 5634, 5895, 6008, 6174, 6284, 6671, 8396, 8682, 8766, 8921, 9009, 9140, 9564, 9624, 10482, 11451, 11682, 11794, 12032, 12157, 12262, 12290, 12383, 13268, 13369, 13477, 13603, 14267, 15677, 16383, 16567, 16705, 16853, 16954, 17051, 17106, 17291, 17778, 17857, 18134, 18237, 19503, 19534, 19816, 21358, 21447, 22085, 22129, 22186, 24837, 24896, 25070, 25320, 25630, 26019, 26152, 28315, 28395, 28471, 28699, 28811, 28917], "trial_type": "free-recall", "conditions": [12, 800, "v", 12000], "internal_node_id": "0.0-157.0-0.0", "key_presses": [69, 85, 82, 79, 80, 69, 13, 71, 82, 73, 76, 76, 13, 83, 75, 73, 76, 76, 69, 84, 13, 80, 82, 69, 65, 67, 72, 69, 82, 13, 83, 87, 73, 77, 77, 69, 82, 13, 67, 76, 65, 77, 13, 79, 73, 78, 84, 77, 69, 78, 84, 13, 82, 65, 68, 73, 83, 72, 13, 68, 85, 83, 84, 13, 84, 85, 82, 78, 73, 80, 13, 71, 82, 73, 76, 76, 13], "trial": 5, "time_elapsed": 994777, "type": "FREE_RECALL", "trial_index": 211}, "uniqueid": "MTK2834:3XUHV3NRVL5EMBD94CC1JIFDCGHH5F", "dateTime": 1519412408021}, {"current_trial": 212, "trialdata": {"rt": 1149, "trial_type": "text", "internal_node_id": "0.0-158.0", "time_elapsed": 997928, "key_press": 32, "type": "INSTRUCTIONS", "trial_index": 212}, "uniqueid": "MTK2834:3XUHV3NRVL5EMBD94CC1JIFDCGHH5F", "dateTime": 1519412411171}, {"current_trial": 213, "trialdata": {"rt": [2379, 7207, 11076], "trial_type": "math-distractor", "key_times": [1786, 2379, 6601, 6723, 7207, 10721, 10929, 11076], "responses": ["7", "15", "24"], "num2": [3, 9, 9, 2], "num3": [3, 1, 7, 7], "conditions": [12, 800, "v", 12000], "internal_node_id": "0.0-159.0", "key_presses": [103, 13, 97, 101, 13, 98, 100, 13], "trial": 6, "time_elapsed": 1011931, "type": "DISTRACTOR", "trial_index": 213, "num1": [1, 5, 8, 9]}, "uniqueid": "MTK2834:3XUHV3NRVL5EMBD94CC1JIFDCGHH5F", "dateTime": 1519412425174}, {"current_trial": 214, "trialdata": {"rt": -1, "trial_type": "single-stim", "stimulus": "<p id=\"stim\">10</p>", "internal_node_id": "0.0-160.0-0.0", "time_elapsed": 1014933, "key_press": -1, "trial_index": 214}, "uniqueid": "MTK2834:3XUHV3NRVL5EMBD94CC1JIFDCGHH5F", "dateTime": 1519412428176}, {"current_trial": 215, "trialdata": {"rt": -1, "trial_type": "single-stim", "stimulus": "<p id=\"stim\">9</p>", "internal_node_id": "0.0-160.0-1.0", "time_elapsed": 1015933, "key_press": -1, "trial_index": 215}, "uniqueid": "MTK2834:3XUHV3NRVL5EMBD94CC1JIFDCGHH5F", "dateTime": 1519412429176}, {"current_trial": 216, "trialdata": {"rt": -1, "trial_type": "single-stim", "stimulus": "<p id=\"stim\">8</p>", "internal_node_id": "0.0-160.0-2.0", "time_elapsed": 1016934, "key_press": -1, "trial_index": 216}, "uniqueid": "MTK2834:3XUHV3NRVL5EMBD94CC1JIFDCGHH5F", "dateTime": 1519412430177}, {"current_trial": 217, "trialdata": {"rt": -1, "trial_type": "single-stim", "stimulus": "<p id=\"stim\">7</p>", "internal_node_id": "0.0-160.0-3.0", "time_elapsed": 1017935, "key_press": -1, "trial_index": 217}, "uniqueid": "MTK2834:3XUHV3NRVL5EMBD94CC1JIFDCGHH5F", "dateTime": 1519412431178}, {"current_trial": 218, "trialdata": {"rt": -1, "trial_type": "single-stim", "stimulus": "<p id=\"stim\">6</p>", "internal_node_id": "0.0-160.0-4.0", "time_elapsed": 1018936, "key_press": -1, "trial_index": 218}, "uniqueid": "MTK2834:3XUHV3NRVL5EMBD94CC1JIFDCGHH5F", "dateTime": 1519412432179}, {"current_trial": 219, "trialdata": {"rt": -1, "trial_type": "single-stim", "stimulus": "<p id=\"stim\">5</p>", "internal_node_id": "0.0-160.0-5.0", "time_elapsed": 1019938, "key_press": -1, "trial_index": 219}, "uniqueid": "MTK2834:3XUHV3NRVL5EMBD94CC1JIFDCGHH5F", "dateTime": 1519412433181}, {"current_trial": 220, "trialdata": {"rt": -1, "trial_type": "single-stim", "stimulus": "<p id=\"stim\">4</p>", "internal_node_id": "0.0-160.0-6.0", "time_elapsed": 1020939, "key_press": -1, "trial_index": 220}, "uniqueid": "MTK2834:3XUHV3NRVL5EMBD94CC1JIFDCGHH5F", "dateTime": 1519412434183}, {"current_trial": 221, "trialdata": {"rt": -1, "trial_type": "single-stim", "stimulus": "<p id=\"stim\">3</p>", "internal_node_id": "0.0-160.0-7.0", "time_elapsed": 1021940, "key_press": -1, "trial_index": 221}, "uniqueid": "MTK2834:3XUHV3NRVL5EMBD94CC1JIFDCGHH5F", "dateTime": 1519412435184}, {"current_trial": 222, "trialdata": {"rt": -1, "trial_type": "single-stim", "stimulus": "<p id=\"stim\">2</p>", "internal_node_id": "0.0-160.0-8.0", "time_elapsed": 1022942, "key_press": -1, "trial_index": 222}, "uniqueid": "MTK2834:3XUHV3NRVL5EMBD94CC1JIFDCGHH5F", "dateTime": 1519412436185}, {"current_trial": 223, "trialdata": {"rt": -1, "trial_type": "single-stim", "stimulus": "<p id=\"stim\">1</p>", "internal_node_id": "0.0-160.0-9.0", "time_elapsed": 1023944, "key_press": -1, "trial_index": 223}, "uniqueid": "MTK2834:3XUHV3NRVL5EMBD94CC1JIFDCGHH5F", "dateTime": 1519412437187}, {"current_trial": 224, "trialdata": {"rt": -1, "trial_type": "single-stim", "stimulus": "<p id=\"stim\">+</p>", "internal_node_id": "0.0-161.0-0.0", "time_elapsed": 1025444, "key_press": -1, "type": "FIXATION", "trial_index": 224}, "uniqueid": "MTK2834:3XUHV3NRVL5EMBD94CC1JIFDCGHH5F", "dateTime": 1519412438688}, {"current_trial": 225, "trialdata": {"rt": -1, "trial_type": "single-stim", "word": "sketch", "stimulus": "<p id=\"stim\">SKETCH</p>", "conditions": [12, 800, "v", 12000], "internal_node_id": "0.0-162.0", "trial": 6, "time_elapsed": 1026245, "serialpos": 0, "key_press": -1, "wordID": 1314, "type": "PRES_VIS", "trial_index": 225}, "uniqueid": "MTK2834:3XUHV3NRVL5EMBD94CC1JIFDCGHH5F", "dateTime": 1519412439488}, {"current_trial": 226, "trialdata": {"rt": -1, "trial_type": "single-stim", "word": "robin", "stimulus": "<p id=\"stim\">ROBIN</p>", "conditions": [12, 800, "v", 12000], "internal_node_id": "0.0-163.0", "trial": 6, "time_elapsed": 1027894, "serialpos": 1, "key_press": -1, "wordID": 1198, "type": "PRES_VIS", "trial_index": 226}, "uniqueid": "MTK2834:3XUHV3NRVL5EMBD94CC1JIFDCGHH5F", "dateTime": 1519412441137}, {"current_trial": 227, "trialdata": {"rt": -1, "trial_type": "single-stim", "word": "brandy", "stimulus": "<p id=\"stim\">BRANDY</p>", "conditions": [12, 800, "v", 12000], "internal_node_id": "0.0-164.0", "trial": 6, "time_elapsed": 1029857, "serialpos": 2, "key_press": -1, "wordID": 168, "type": "PRES_VIS", "trial_index": 227}, "uniqueid": "MTK2834:3XUHV3NRVL5EMBD94CC1JIFDCGHH5F", "dateTime": 1519412443100}, {"current_trial": 228, "trialdata": {"rt": -1, "trial_type": "single-stim", "word": "star", "stimulus": "<p id=\"stim\">STAR</p>", "conditions": [12, 800, "v", 12000], "internal_node_id": "0.0-165.0", "trial": 6, "time_elapsed": 1031825, "serialpos": 3, "key_press": -1, "wordID": 1372, "type": "PRES_VIS", "trial_index": 228}, "uniqueid": "MTK2834:3XUHV3NRVL5EMBD94CC1JIFDCGHH5F", "dateTime": 1519412445068}, {"current_trial": 229, "trialdata": {"rt": -1, "trial_type": "single-stim", "word": "bureau", "stimulus": "<p id=\"stim\">BUREAU</p>", "conditions": [12, 800, "v", 12000], "internal_node_id": "0.0-166.0", "trial": 6, "time_elapsed": 1033799, "serialpos": 4, "key_press": -1, "wordID": 198, "type": "PRES_VIS", "trial_index": 229}, "uniqueid": "MTK2834:3XUHV3NRVL5EMBD94CC1JIFDCGHH5F", "dateTime": 1519412447042}, {"current_trial": 230, "trialdata": {"rt": -1, "trial_type": "single-stim", "word": "critic", "stimulus": "<p id=\"stim\">CRITIC</p>", "conditions": [12, 800, "v", 12000], "internal_node_id": "0.0-167.0", "trial": 6, "time_elapsed": 1035507, "serialpos": 5, "key_press": -1, "wordID": 409, "type": "PRES_VIS", "trial_index": 230}, "uniqueid": "MTK2834:3XUHV3NRVL5EMBD94CC1JIFDCGHH5F", "dateTime": 1519412448751}, {"current_trial": 231, "trialdata": {"rt": -1, "trial_type": "single-stim", "word": "badge", "stimulus": "<p id=\"stim\">BADGE</p>", "conditions": [12, 800, "v", 12000], "internal_node_id": "0.0-168.0", "trial": 6, "time_elapsed": 1037477, "serialpos": 6, "key_press": -1, "wordID": 67, "type": "PRES_VIS", "trial_index": 231}, "uniqueid": "MTK2834:3XUHV3NRVL5EMBD94CC1JIFDCGHH5F", "dateTime": 1519412450720}, {"current_trial": 232, "trialdata": {"rt": -1, "trial_type": "single-stim", "word": "husband", "stimulus": "<p id=\"stim\">HUSBAND</p>", "conditions": [12, 800, "v", 12000], "internal_node_id": "0.0-169.0", "trial": 6, "time_elapsed": 1039458, "serialpos": 7, "key_press": -1, "wordID": 727, "type": "PRES_VIS", "trial_index": 232}, "uniqueid": "MTK2834:3XUHV3NRVL5EMBD94CC1JIFDCGHH5F", "dateTime": 1519412452701}, {"current_trial": 233, "trialdata": {"rt": -1, "trial_type": "single-stim", "word": "cousin", "stimulus": "<p id=\"stim\">COUSIN</p>", "conditions": [12, 800, "v", 12000], "internal_node_id": "0.0-170.0", "trial": 6, "time_elapsed": 1041350, "serialpos": 8, "key_press": -1, "wordID": 391, "type": "PRES_VIS", "trial_index": 233}, "uniqueid": "MTK2834:3XUHV3NRVL5EMBD94CC1JIFDCGHH5F", "dateTime": 1519412454593}, {"current_trial": 234, "trialdata": {"rt": -1, "trial_type": "single-stim", "word": "scotch", "stimulus": "<p id=\"stim\">SCOTCH</p>", "conditions": [12, 800, "v", 12000], "internal_node_id": "0.0-171.0", "trial": 6, "time_elapsed": 1043283, "serialpos": 9, "key_press": -1, "wordID": 1250, "type": "PRES_VIS", "trial_index": 234}, "uniqueid": "MTK2834:3XUHV3NRVL5EMBD94CC1JIFDCGHH5F", "dateTime": 1519412456526}, {"current_trial": 235, "trialdata": {"rt": -1, "trial_type": "single-stim", "word": "lapel", "stimulus": "<p id=\"stim\">LAPEL</p>", "conditions": [12, 800, "v", 12000], "internal_node_id": "0.0-172.0", "trial": 6, "time_elapsed": 1044970, "serialpos": 10, "key_press": -1, "wordID": 799, "type": "PRES_VIS", "trial_index": 235}, "uniqueid": "MTK2834:3XUHV3NRVL5EMBD94CC1JIFDCGHH5F", "dateTime": 1519412458214}, {"current_trial": 236, "trialdata": {"rt": -1, "trial_type": "single-stim", "word": "cupboard", "stimulus": "<p id=\"stim\">CUPBOARD</p>", "conditions": [12, 800, "v", 12000], "internal_node_id": "0.0-173.0", "trial": 6, "time_elapsed": 1046616, "serialpos": 11, "key_press": -1, "wordID": 424, "type": "PRES_VIS", "trial_index": 236}, "uniqueid": "MTK2834:3XUHV3NRVL5EMBD94CC1JIFDCGHH5F", "dateTime": 1519412459860}, {"current_trial": 237, "trialdata": {"rt": -1, "trial_type": "single-stim", "stimulus": "", "internal_node_id": "0.0-174.0-0.0", "time_elapsed": 1049015, "key_press": -1, "type": "PRE_RECALL_DELAY", "trial_index": 237}, "uniqueid": "MTK2834:3XUHV3NRVL5EMBD94CC1JIFDCGHH5F", "dateTime": 1519412462258}, {"current_trial": 238, "trialdata": {"rt": -1000, "trial_type": "single-audio", "stimulus": "/static/audio/400Hz.wav", "internal_node_id": "0.0-175.0", "time_elapsed": 1049516, "key_press": -1, "type": "PRE_RECALL_ALERT", "trial_index": 238}, "uniqueid": "MTK2834:3XUHV3NRVL5EMBD94CC1JIFDCGHH5F", "dateTime": 1519412462759}, {"current_trial": 239, "trialdata": {"rt": [3353, 5483, 8038, 10248, 11215, 15990, 55325], "recwords": ["cupboard", "brandy", "husband", "cousin", "badge", "lapel", "scotch?"], "key_times": [1554, 1764, 2286, 2725, 2931, 3026, 3066, 3281, 3353, 4075, 4137, 4331, 5113, 5180, 5361, 5483, 6567, 6657, 6780, 7461, 7553, 7662, 7907, 8038, 9108, 9230, 9359, 9529, 9640, 9787, 10248, 10506, 10592, 10777, 11099, 11150, 11215, 15411, 15498, 15621, 15713, 15818, 15990, 53075, 53145, 53294, 53459, 54658, 54722, 55016, 55030, 55325], "trial_type": "free-recall", "conditions": [12, 800, "v", 12000], "internal_node_id": "0.0-176.0-0.0", "key_presses": [67, 85, 80, 66, 79, 65, 82, 68, 13, 66, 82, 65, 78, 68, 89, 13, 72, 85, 83, 66, 65, 78, 68, 13, 67, 79, 85, 83, 73, 78, 13, 66, 65, 68, 71, 69, 13, 76, 65, 80, 69, 76, 13, 83, 67, 79, 84, 67, 72, 16, 191, 13], "trial": 6, "time_elapsed": 1109518, "type": "FREE_RECALL", "trial_index": 239}, "uniqueid": "MTK2834:3XUHV3NRVL5EMBD94CC1JIFDCGHH5F", "dateTime": 1519412522763}, {"current_trial": 240, "trialdata": {"rt": 1132, "trial_type": "text", "internal_node_id": "0.0-177.0", "time_elapsed": 1112652, "key_press": 32, "type": "INSTRUCTIONS", "trial_index": 240}, "uniqueid": "MTK2834:3XUHV3NRVL5EMBD94CC1JIFDCGHH5F", "dateTime": 1519412525895}, {"current_trial": 241, "trialdata": {"rt": [2404, 4189, 8211, 11437], "trial_type": "math-distractor", "key_times": [1773, 1964, 2404, 3804, 3960, 4189, 7846, 7984, 8211, 10957, 11174, 11437], "responses": ["14", "14", "19", "17"], "num2": [1, 6, 4, 2, 2], "num3": [9, 2, 7, 6, 8], "conditions": [12, 1600, "v", 12000], "internal_node_id": "0.0-178.0", "key_presses": [97, 100, 13, 97, 100, 13, 97, 105, 13, 97, 103, 13], "trial": 7, "time_elapsed": 1126655, "type": "DISTRACTOR", "trial_index": 241, "num1": [4, 6, 8, 9, 6]}, "uniqueid": "MTK2834:3XUHV3NRVL5EMBD94CC1JIFDCGHH5F", "dateTime": 1519412539898}, {"current_trial": 242, "trialdata": {"rt": -1, "trial_type": "single-stim", "stimulus": "<p id=\"stim\">10</p>", "internal_node_id": "0.0-179.0-0.0", "time_elapsed": 1129656, "key_press": -1, "trial_index": 242}, "uniqueid": "MTK2834:3XUHV3NRVL5EMBD94CC1JIFDCGHH5F", "dateTime": 1519412542899}, {"current_trial": 243, "trialdata": {"rt": -1, "trial_type": "single-stim", "stimulus": "<p id=\"stim\">9</p>", "internal_node_id": "0.0-179.0-1.0", "time_elapsed": 1130658, "key_press": -1, "trial_index": 243}, "uniqueid": "MTK2834:3XUHV3NRVL5EMBD94CC1JIFDCGHH5F", "dateTime": 1519412543901}, {"current_trial": 244, "trialdata": {"rt": -1, "trial_type": "single-stim", "stimulus": "<p id=\"stim\">8</p>", "internal_node_id": "0.0-179.0-2.0", "time_elapsed": 1131659, "key_press": -1, "trial_index": 244}, "uniqueid": "MTK2834:3XUHV3NRVL5EMBD94CC1JIFDCGHH5F", "dateTime": 1519412544902}, {"current_trial": 245, "trialdata": {"rt": -1, "trial_type": "single-stim", "stimulus": "<p id=\"stim\">7</p>", "internal_node_id": "0.0-179.0-3.0", "time_elapsed": 1132660, "key_press": -1, "trial_index": 245}, "uniqueid": "MTK2834:3XUHV3NRVL5EMBD94CC1JIFDCGHH5F", "dateTime": 1519412545903}, {"current_trial": 246, "trialdata": {"rt": -1, "trial_type": "single-stim", "stimulus": "<p id=\"stim\">6</p>", "internal_node_id": "0.0-179.0-4.0", "time_elapsed": 1133661, "key_press": -1, "trial_index": 246}, "uniqueid": "MTK2834:3XUHV3NRVL5EMBD94CC1JIFDCGHH5F", "dateTime": 1519412546