{"assignmentId": "3NGMS9VZTMPMACFSFY1A29UDLSHFFR", "workerId": "MTK2790", "questiondata": {"origin": "United States", "strat-rehearsal": "40", "marital": "Single", "education": "Some college", "ethnicity": "Not Hispanic", "color_depth": 24, "distracted": "No", "wrote-notes": "No", "strat-other": "", "screen_width": 1280, "avail_screen_width": 1280, "avail_screen_height": 690, "strat-image": "75", "language": "English", "gender": "Male", "age": "30", "gender_other": "", "race": ["White"], "strat-categorize": "85", "pixel_depth": 24, "strat-spatial": "0", "strat-story": "5", "race_other": "", "screen_height": 720}, "bonus": 0, "hitId": "3K2CEDRACB80C7RG635APJX3OS1MTX", "counterbalance": 2084, "useragent": "Mozilla/5.0 (Windows NT 10.0; Win64; x64) AppleWebKit/537.36 (KHTML, like Gecko) Chrome/63.0.3239.132 Safari/537.36", "eventdata": [{"eventtype": "initialized", "interval": 0, "value": null, "timestamp": 1519336989792}, {"eventtype": "window_resize", "interval": 0, "value": [1280, 639], "timestamp": 1519336989792}, {"eventtype": "focus", "interval": 25081, "value": "off", "timestamp": 1519337014873}, {"eventtype": "focus", "interval": 5489, "value": "on", "timestamp": 1519337020362}, {"eventtype": "focus", "interval": 14885, "value": "off", "timestamp": 1519337035247}, {"eventtype": "focus", "interval": 18770, "value": "on", "timestamp": 1519337054017}, {"eventtype": "focus", "interval": 865011, "value": "off", "timestamp": 1519337919028}, {"eventtype": "focus", "interval": 2094, "value": "on", "timestamp": 1519337921122}, {"eventtype": "focus", "interval": 4347, "value": "off", "timestamp": 1519337925469}, {"eventtype": "focus", "interval": 1865, "value": "on", "timestamp": 1519337927334}, {"eventtype": "focus", "interval": 440499, "value": "off", "timestamp": 1519338367833}, {"eventtype": "focus", "interval": 4946, "value": "on", "timestamp": 1519338372779}, {"eventtype": "focus", "interval": 280631, "value": "off", "timestamp": 1519338653410}, {"eventtype": "focus", "interval": 2114, "value": "on", "timestamp": 1519338655524}, {"eventtype": "focus", "interval": 3666, "value": "off", "timestamp": 1519338659190}, {"eventtype": "focus", "interval": 1497, "value": "on", "timestamp": 1519338660687}, {"eventtype": "focus", "interval": 1525993, "value": "off", "timestamp": 1519340186680}, {"eventtype": "focus", "interval": 3957, "value": "on", "timestamp": 1519340190637}], "data": [{"current_trial": 0, "trialdata": {"rt": 2388, "trial_type": "text", "internal_node_id": "0.0-0.0", "time_elapsed": 2391, "key_press": 32, "type": "INSTRUCTIONS", "trial_index": 0}, "uniqueid": "MTK2790:3NGMS9VZTMPMACFSFY1A29UDLSHFFR", "dateTime": 1519337003429}, {"current_trial": 1, "trialdata": {"rt": 52930, "trial_type": "text", "internal_node_id": "0.0-1.0", "time_elapsed": 55325, "key_press": 71, "type": "INSTRUCTIONS", "trial_index": 1}, "uniqueid": "MTK2790:3NGMS9VZTMPMACFSFY1A29UDLSHFFR", "dateTime": 1519337056362}, {"current_trial": 2, "trialdata": {"rt": [19002], "trial_type": "audio-test", "responses": ["ocean"], "internal_node_id": "0.0-2.0", "time_elapsed": 74345, "type": "AUDIO_TEST", "trial_index": 2}, "uniqueid": "MTK2790:3NGMS9VZTMPMACFSFY1A29UDLSHFFR", "dateTime": 1519337075381}, {"current_trial": 3, "trialdata": {"rt": [9165], "trial_type": "audio-test", "responses": ["crystal"], "internal_node_id": "0.0-3.0", "time_elapsed": 83513, "type": "AUDIO_TEST", "trial_index": 3}, "uniqueid": "MTK2790:3NGMS9VZTMPMACFSFY1A29UDLSHFFR", "dateTime": 1519337084549}, {"current_trial": 4, "trialdata": {"rt": [5702], "trial_type": "audio-test", "responses": ["spice"], "internal_node_id": "0.0-4.0", "time_elapsed": 89217, "type": "AUDIO_TEST", "trial_index": 4}, "uniqueid": "MTK2790:3NGMS9VZTMPMACFSFY1A29UDLSHFFR", "dateTime": 1519337090253}, {"current_trial": 5, "trialdata": {"rt": 58983, "trial_type": "survey-text", "responses": "{\"Q0\":\"9:00pm\",\"Q1\":\"5:00am\",\"Q2\":\"4\"}", "internal_node_id": "0.0-5.0", "time_elapsed": 148954, "type": "SLEEP_SURVEY", "trial_index": 5}, "uniqueid": "MTK2790:3NGMS9VZTMPMACFSFY1A29UDLSHFFR", "dateTime": 1519337149990}, {"current_trial": 6, "trialdata": {"rt": 50471, "trial_type": "text", "internal_node_id": "0.0-6.0", "time_elapsed": 200428, "key_press": 32, "type": "INSTRUCTIONS", "trial_index": 6}, "uniqueid": "MTK2790:3NGMS9VZTMPMACFSFY1A29UDLSHFFR", "dateTime": 1519337201464}, {"current_trial": 7, "trialdata": {"rt": 18426, "trial_type": "text", "internal_node_id": "0.0-7.0", "time_elapsed": 219356, "key_press": 32, "type": "INSTRUCTIONS", "trial_index": 7}, "uniqueid": "MTK2790:3NGMS9VZTMPMACFSFY1A29UDLSHFFR", "dateTime": 1519337220392}, {"current_trial": 8, "trialdata": {"rt": 19825, "trial_type": "text", "internal_node_id": "0.0-8.0", "time_elapsed": 239683, "key_press": 32, "type": "INSTRUCTIONS", "trial_index": 8}, "uniqueid": "MTK2790:3NGMS9VZTMPMACFSFY1A29UDLSHFFR", "dateTime": 1519337240719}, {"current_trial": 9, "trialdata": {"rt": [6877, 12045, 14892], "trial_type": "math-distractor", "key_times": [5590, 5662, 6877, 11230, 11430, 12045, 14093, 14197, 14892, 17349, 17438], "responses": ["16", "14", "15"], "num2": [2, 7, 1, 1], "num3": [5, 1, 7, 9], "conditions": [18, 1200, "a", 18000], "internal_node_id": "0.0-9.0", "key_presses": [97, 102, 13, 97, 100, 13, 97, 101, 13, 97, 98], "trial": 0, "time_elapsed": 258692, "type": "DISTRACTOR", "trial_index": 9, "num1": [9, 6, 7, 2]}, "uniqueid": "MTK2790:3NGMS9VZTMPMACFSFY1A29UDLSHFFR", "dateTime": 1519337259729}, {"current_trial": 10, "trialdata": {"rt": -1, "trial_type": "single-stim", "stimulus": "<p id=\"stim\">10</p>", "internal_node_id": "0.0-10.0-0.0", "time_elapsed": 261697, "key_press": -1, "trial_index": 10}, "uniqueid": "MTK2790:3NGMS9VZTMPMACFSFY1A29UDLSHFFR", "dateTime": 1519337262733}, {"current_trial": 11, "trialdata": {"rt": -1, "trial_type": "single-stim", "stimulus": "<p id=\"stim\">9</p>", "internal_node_id": "0.0-10.0-1.0", "time_elapsed": 262699, "key_press": -1, "trial_index": 11}, "uniqueid": "MTK2790:3NGMS9VZTMPMACFSFY1A29UDLSHFFR", "dateTime": 1519337263735}, {"current_trial": 12, "trialdata": {"rt": -1, "trial_type": "single-stim", "stimulus": "<p id=\"stim\">8</p>", "internal_node_id": "0.0-10.0-2.0", "time_elapsed": 263702, "key_press": -1, "trial_index": 12}, "uniqueid": "MTK2790:3NGMS9VZTMPMACFSFY1A29UDLSHFFR", "dateTime": 1519337264738}, {"current_trial": 13, "trialdata": {"rt": -1, "trial_type": "single-stim", "stimulus": "<p id=\"stim\">7</p>", "internal_node_id": "0.0-10.0-3.0", "time_elapsed": 264704, "key_press": -1, "trial_index": 13}, "uniqueid": "MTK2790:3NGMS9VZTMPMACFSFY1A29UDLSHFFR", "dateTime": 1519337265740}, {"current_trial": 14, "trialdata": {"rt": -1, "trial_type": "single-stim", "stimulus": "<p id=\"stim\">6</p>", "internal_node_id": "0.0-10.0-4.0", "time_elapsed": 265707, "key_press": -1, "trial_index": 14}, "uniqueid": "MTK2790:3NGMS9VZTMPMACFSFY1A29UDLSHFFR", "dateTime": 1519337266743}, {"current_trial": 15, "trialdata": {"rt": -1, "trial_type": "single-stim", "stimulus": "<p id=\"stim\">5</p>", "internal_node_id": "0.0-10.0-5.0", "time_elapsed": 266708, "key_press": -1, "trial_index": 15}, "uniqueid": "MTK2790:3NGMS9VZTMPMACFSFY1A29UDLSHFFR", "dateTime": 1519337267744}, {"current_trial": 16, "trialdata": {"rt": -1, "trial_type": "single-stim", "stimulus": "<p id=\"stim\">4</p>", "internal_node_id": "0.0-10.0-6.0", "time_elapsed": 267710, "key_press": -1, "trial_index": 16}, "uniqueid": "MTK2790:3NGMS9VZTMPMACFSFY1A29UDLSHFFR", "dateTime": 1519337268746}, {"current_trial": 17, "trialdata": {"rt": -1, "trial_type": "single-stim", "stimulus": "<p id=\"stim\">3</p>", "internal_node_id": "0.0-10.0-7.0", "time_elapsed": 268712, "key_press": -1, "trial_index": 17}, "uniqueid": "MTK2790:3NGMS9VZTMPMACFSFY1A29UDLSHFFR", "dateTime": 1519337269748}, {"current_trial": 18, "trialdata": {"rt": -1, "trial_type": "single-stim", "stimulus": "<p id=\"stim\">2</p>", "internal_node_id": "0.0-10.0-8.0", "time_elapsed": 269715, "key_press": -1, "trial_index": 18}, "uniqueid": "MTK2790:3NGMS9VZTMPMACFSFY1A29UDLSHFFR", "dateTime": 1519337270751}, {"current_trial": 19, "trialdata": {"rt": -1, "trial_type": "single-stim", "stimulus": "<p id=\"stim\">1</p>", "internal_node_id": "0.0-10.0-9.0", "time_elapsed": 270717, "key_press": -1, "trial_index": 19}, "uniqueid": "MTK2790:3NGMS9VZTMPMACFSFY1A29UDLSHFFR", "dateTime": 1519337271753}, {"current_trial": 20, "trialdata": {"rt": -1, "trial_type": "single-stim", "stimulus": "<p id=\"stim\">+</p>", "internal_node_id": "0.0-11.0-0.0", "time_elapsed": 272219, "key_press": -1, "type": "FIXATION", "trial_index": 20}, "uniqueid": "MTK2790:3NGMS9VZTMPMACFSFY1A29UDLSHFFR", "dateTime": 1519337273255}, {"current_trial": 21, "trialdata": {"rt": -1000, "trial_type": "single-audio", "word": "chemist", "stimulus": "/static/audio/wordpool/CHEMIST.wav", "conditions": [18, 1200, "a", 18000], "internal_node_id": "0.0-12.0", "trial": 0, "time_elapsed": 274567, "serialpos": 0, "key_press": -1, "wordID": 291, "type": "PRES_AUD", "trial_index": 21}, "uniqueid": "MTK2790:3NGMS9VZTMPMACFSFY1A29UDLSHFFR", "dateTime": 1519337275603}, {"current_trial": 22, "trialdata": {"rt": -1000, "trial_type": "single-audio", "word": "mars", "stimulus": "/static/audio/wordpool/MARS.wav", "conditions": [18, 1200, "a", 18000], "internal_node_id": "0.0-13.0", "trial": 0, "time_elapsed": 276717, "serialpos": 1, "key_press": -1, "wordID": 872, "type": "PRES_AUD", "trial_index": 22}, "uniqueid": "MTK2790:3NGMS9VZTMPMACFSFY1A29UDLSHFFR", "dateTime": 1519337277753}, {"current_trial": 23, "trialdata": {"rt": -1000, "trial_type": "single-audio", "word": "shark", "stimulus": "/static/audio/wordpool/SHARK.wav", "conditions": [18, 1200, "a", 18000], "internal_node_id": "0.0-14.0", "trial": 0, "time_elapsed": 278913, "serialpos": 2, "key_press": -1, "wordID": 1274, "type": "PRES_AUD", "trial_index": 23}, "uniqueid": "MTK2790:3NGMS9VZTMPMACFSFY1A29UDLSHFFR", "dateTime": 1519337279949}, {"current_trial": 24, "trialdata": {"rt": -1000, "trial_type": "single-audio", "word": "servant", "stimulus": "/static/audio/wordpool/SERVANT.wav", "conditions": [18, 1200, "a", 18000], "internal_node_id": "0.0-15.0", "trial": 0, "time_elapsed": 280969, "serialpos": 3, "key_press": -1, "wordID": 1270, "type": "PRES_AUD", "trial_index": 24}, "uniqueid": "MTK2790:3NGMS9VZTMPMACFSFY1A29UDLSHFFR", "dateTime": 1519337282005}, {"current_trial": 25, "trialdata": {"rt": -1000, "trial_type": "single-audio", "word": "zipper", "stimulus": "/static/audio/wordpool/ZIPPER.wav", "conditions": [18, 1200, "a", 18000], "internal_node_id": "0.0-16.0", "trial": 0, "time_elapsed": 283111, "serialpos": 4, "key_press": -1, "wordID": 1635, "type": "PRES_AUD", "trial_index": 25}, "uniqueid": "MTK2790:3NGMS9VZTMPMACFSFY1A29UDLSHFFR", "dateTime": 1519337284147}, {"current_trial": 26, "trialdata": {"rt": -1000, "trial_type": "single-audio", "word": "outfit", "stimulus": "/static/audio/wordpool/OUTFIT.wav", "conditions": [18, 1200, "a", 18000], "internal_node_id": "0.0-17.0", "trial": 0, "time_elapsed": 285424, "serialpos": 5, "key_press": -1, "wordID": 987, "type": "PRES_AUD", "trial_index": 26}, "uniqueid": "MTK2790:3NGMS9VZTMPMACFSFY1A29UDLSHFFR", "dateTime": 1519337286460}, {"current_trial": 27, "trialdata": {"rt": -1000, "trial_type": "single-audio", "word": "child", "stimulus": "/static/audio/wordpool/CHILD.wav", "conditions": [18, 1200, "a", 18000], "internal_node_id": "0.0-18.0", "trial": 0, "time_elapsed": 287649, "serialpos": 6, "key_press": -1, "wordID": 298, "type": "PRES_AUD", "trial_index": 27}, "uniqueid": "MTK2790:3NGMS9VZTMPMACFSFY1A29UDLSHFFR", "dateTime": 1519337288685}, {"current_trial": 28, "trialdata": {"rt": -1000, "trial_type": "single-audio", "word": "thief", "stimulus": "/static/audio/wordpool/THIEF.wav", "conditions": [18, 1200, "a", 18000], "internal_node_id": "0.0-19.0", "trial": 0, "time_elapsed": 289968, "serialpos": 7, "key_press": -1, "wordID": 1455, "type": "PRES_AUD", "trial_index": 28}, "uniqueid": "MTK2790:3NGMS9VZTMPMACFSFY1A29UDLSHFFR", "dateTime": 1519337291004}, {"current_trial": 29, "trialdata": {"rt": -1000, "trial_type": "single-audio", "word": "pimple", "stimulus": "/static/audio/wordpool/PIMPLE.wav", "conditions": [18, 1200, "a", 18000], "internal_node_id": "0.0-20.0", "trial": 0, "time_elapsed": 292044, "serialpos": 8, "key_press": -1, "wordID": 1070, "type": "PRES_AUD", "trial_index": 29}, "uniqueid": "MTK2790:3NGMS9VZTMPMACFSFY1A29UDLSHFFR", "dateTime": 1519337293080}, {"current_trial": 30, "trialdata": {"rt": -1000, "trial_type": "single-audio", "word": "actor", "stimulus": "/static/audio/wordpool/ACTOR.wav", "conditions": [18, 1200, "a", 18000], "internal_node_id": "0.0-21.0", "trial": 0, "time_elapsed": 294250, "serialpos": 9, "key_press": -1, "wordID": 4, "type": "PRES_AUD", "trial_index": 30}, "uniqueid": "MTK2790:3NGMS9VZTMPMACFSFY1A29UDLSHFFR", "dateTime": 1519337295286}, {"current_trial": 31, "trialdata": {"rt": -1000, "trial_type": "single-audio", "word": "costume", "stimulus": "/static/audio/wordpool/COSTUME.wav", "conditions": [18, 1200, "a", 18000], "internal_node_id": "0.0-22.0", "trial": 0, "time_elapsed": 296603, "serialpos": 10, "key_press": -1, "wordID": 382, "type": "PRES_AUD", "trial_index": 31}, "uniqueid": "MTK2790:3NGMS9VZTMPMACFSFY1A29UDLSHFFR", "dateTime": 1519337297639}, {"current_trial": 32, "trialdata": {"rt": -1000, "trial_type": "single-audio", "word": "suspect", "stimulus": "/static/audio/wordpool/SUSPECT.wav", "conditions": [18, 1200, "a", 18000], "internal_node_id": "0.0-23.0", "trial": 0, "time_elapsed": 298814, "serialpos": 11, "key_press": -1, "wordID": 1414, "type": "PRES_AUD", "trial_index": 32}, "uniqueid": "MTK2790:3NGMS9VZTMPMACFSFY1A29UDLSHFFR", "dateTime": 1519337299850}, {"current_trial": 33, "trialdata": {"rt": -1000, "trial_type": "single-audio", "word": "plaid", "stimulus": "/static/audio/wordpool/PLAID.wav", "conditions": [18, 1200, "a", 18000], "internal_node_id": "0.0-24.0", "trial": 0, "time_elapsed": 301091, "serialpos": 12, "key_press": -1, "wordID": 1079, "type": "PRES_AUD", "trial_index": 33}, "uniqueid": "MTK2790:3NGMS9VZTMPMACFSFY1A29UDLSHFFR", "dateTime": 1519337302128}, {"current_trial": 34, "trialdata": {"rt": -1000, "trial_type": "single-audio", "word": "jello", "stimulus": "/static/audio/wordpool/JELLO.wav", "conditions": [18, 1200, "a", 18000], "internal_node_id": "0.0-25.0", "trial": 0, "time_elapsed": 303142, "serialpos": 13, "key_press": -1, "wordID": 753, "type": "PRES_AUD", "trial_index": 34}, "uniqueid": "MTK2790:3NGMS9VZTMPMACFSFY1A29UDLSHFFR", "dateTime": 1519337304178}, {"current_trial": 35, "trialdata": {"rt": -1000, "trial_type": "single-audio", "word": "airplane", "stimulus": "/static/audio/wordpool/AIRPLANE.wav", "conditions": [18, 1200, "a", 18000], "internal_node_id": "0.0-26.0", "trial": 0, "time_elapsed": 305147, "serialpos": 14, "key_press": -1, "wordID": 11, "type": "PRES_AUD", "trial_index": 35}, "uniqueid": "MTK2790:3NGMS9VZTMPMACFSFY1A29UDLSHFFR", "dateTime": 1519337306183}, {"current_trial": 36, "trialdata": {"rt": -1000, "trial_type": "single-audio", "word": "binder", "stimulus": "/static/audio/wordpool/BINDER.wav", "conditions": [18, 1200, "a", 18000], "internal_node_id": "0.0-27.0", "trial": 0, "time_elapsed": 307175, "serialpos": 15, "key_press": -1, "wordID": 126, "type": "PRES_AUD", "trial_index": 36}, "uniqueid": "MTK2790:3NGMS9VZTMPMACFSFY1A29UDLSHFFR", "dateTime": 1519337308211}, {"current_trial": 37, "trialdata": {"rt": -1000, "trial_type": "single-audio", "word": "banjo", "stimulus": "/static/audio/wordpool/BANJO.wav", "conditions": [18, 1200, "a", 18000], "internal_node_id": "0.0-28.0", "trial": 0, "time_elapsed": 309223, "serialpos": 16, "key_press": -1, "wordID": 81, "type": "PRES_AUD", "trial_index": 37}, "uniqueid": "MTK2790:3NGMS9VZTMPMACFSFY1A29UDLSHFFR", "dateTime": 1519337310259}, {"current_trial": 38, "trialdata": {"rt": -1000, "trial_type": "single-audio", "word": "dragon", "stimulus": "/static/audio/wordpool/DRAGON.wav", "conditions": [18, 1200, "a", 18000], "internal_node_id": "0.0-29.0", "trial": 0, "time_elapsed": 311276, "serialpos": 17, "key_press": -1, "wordID": 491, "type": "PRES_AUD", "trial_index": 38}, "uniqueid": "MTK2790:3NGMS9VZTMPMACFSFY1A29UDLSHFFR", "dateTime": 1519337312312}, {"current_trial": 39, "trialdata": {"rt": -1, "trial_type": "single-stim", "stimulus": "", "internal_node_id": "0.0-30.0-0.0", "time_elapsed": 312491, "key_press": -1, "type": "PRE_RECALL_DELAY", "trial_index": 39}, "uniqueid": "MTK2790:3NGMS9VZTMPMACFSFY1A29UDLSHFFR", "dateTime": 1519337313527}, {"current_trial": 40, "trialdata": {"rt": -1000, "trial_type": "single-audio", "stimulus": "/static/audio/400Hz.wav", "internal_node_id": "0.0-31.0", "time_elapsed": 312993, "key_press": -1, "type": "PRE_RECALL_ALERT", "trial_index": 40}, "uniqueid": "MTK2790:3NGMS9VZTMPMACFSFY1A29UDLSHFFR", "dateTime": 1519337314029}, {"current_trial": 41, "trialdata": {"rt": [3149, 5845, 7622, 10333, 12389, 14061, 16837, 30789, 38181], "recwords": ["chemist", "mars", "shark", "zipper", "binder", "banjo", "dragon", "pimple", "zipper"], "key_times": [1455, 1614, 1854, 2054, 2230, 2342, 2798, 3149, 4182, 4319, 4662, 5207, 5845, 6230, 6422, 6550, 7030, 7174, 7622, 8294, 8686, 8982, 9126, 9319, 9574, 10333, 10878, 11092, 11254, 11494, 11702, 11879, 12389, 12886, 13022, 13150, 13518, 13606, 14061, 14718, 14926, 15150, 15462, 15599, 15719, 16837, 29439, 29702, 29929, 30142, 30222, 30415, 30789, 36622, 36902, 37174, 37350, 37446, 37638, 38181], "trial_type": "free-recall", "conditions": [18, 1200, "a", 18000], "internal_node_id": "0.0-32.0-0.0", "key_presses": [67, 72, 69, 77, 73, 83, 84, 13, 77, 65, 82, 83, 13, 83, 72, 65, 82, 75, 13, 90, 73, 80, 80, 69, 82, 13, 66, 73, 78, 68, 69, 82, 13, 66, 65, 78, 74, 79, 13, 68, 82, 65, 71, 79, 78, 13, 80, 73, 77, 80, 76, 69, 13, 90, 73, 80, 80, 69, 82, 13], "trial": 0, "time_elapsed": 372998, "type": "FREE_RECALL", "trial_index": 41}, "uniqueid": "MTK2790:3NGMS9VZTMPMACFSFY1A29UDLSHFFR", "dateTime": 1519337374038}, {"current_trial": 42, "trialdata": {"rt": 3198, "trial_type": "text", "internal_node_id": "0.0-33.0", "time_elapsed": 378202, "key_press": 32, "type": "INSTRUCTIONS", "trial_index": 42}, "uniqueid": "MTK2790:3NGMS9VZTMPMACFSFY1A29UDLSHFFR", "dateTime": 1519337379238}, {"current_trial": 43, "trialdata": {"rt": [3884, 6548, 11243, 13884, 17060], "trial_type": "math-distractor", "key_times": [3445, 3884, 5981, 6548, 10141, 10741, 11243, 13518, 13884, 15429, 15581, 17060], "responses": ["8", "6", "16", "7", "11"], "num2": [2, 2, 5, 2, 5, 4], "num3": [2, 1, 8, 3, 5, 1], "conditions": [18, 1200, "a", 18000], "internal_node_id": "0.0-34.0", "key_presses": [104, 13, 102, 13, 97, 102, 13, 103, 13, 97, 97, 13], "trial": 1, "time_elapsed": 398206, "type": "DISTRACTOR", "trial_index": 43, "num1": [4, 3, 3, 2, 1, 6]}, "uniqueid": "MTK2790:3NGMS9VZTMPMACFSFY1A29UDLSHFFR", "dateTime": 1519337399243}, {"current_trial": 44, "trialdata": {"rt": -1, "trial_type": "single-stim", "stimulus": "<p id=\"stim\">10</p>", "internal_node_id": "0.0-35.0-0.0", "time_elapsed": 401209, "key_press": -1, "trial_index": 44}, "uniqueid": "MTK2790:3NGMS9VZTMPMACFSFY1A29UDLSHFFR", "dateTime": 1519337402245}, {"current_trial": 45, "trialdata": {"rt": -1, "trial_type": "single-stim", "stimulus": "<p id=\"stim\">9</p>", "internal_node_id": "0.0-35.0-1.0", "time_elapsed": 402211, "key_press": -1, "trial_index": 45}, "uniqueid": "MTK2790:3NGMS9VZTMPMACFSFY1A29UDLSHFFR", "dateTime": 1519337403247}, {"current_trial": 46, "trialdata": {"rt": -1, "trial_type": "single-stim", "stimulus": "<p id=\"stim\">8</p>", "internal_node_id": "0.0-35.0-2.0", "time_elapsed": 403213, "key_press": -1, "trial_index": 46}, "uniqueid": "MTK2790:3NGMS9VZTMPMACFSFY1A29UDLSHFFR", "dateTime": 1519337404249}, {"current_trial": 47, "trialdata": {"rt": -1, "trial_type": "single-stim", "stimulus": "<p id=\"stim\">7</p>", "internal_node_id": "0.0-35.0-3.0", "time_elapsed": 404215, "key_press": -1, "trial_index": 47}, "uniqueid": "MTK2790:3NGMS9VZTMPMACFSFY1A29UDLSHFFR", "dateTime": 1519337405251}, {"current_trial": 48, "trialdata": {"rt": -1, "trial_type": "single-stim", "stimulus": "<p id=\"stim\">6</p>", "internal_node_id": "0.0-35.0-4.0", "time_elapsed": 405217, "key_press": -1, "trial_index": 48}, "uniqueid": "MTK2790:3NGMS9VZTMPMACFSFY1A29UDLSHFFR", "dateTime": 1519337406253}, {"current_trial": 49, "trialdata": {"rt": -1, "trial_type": "single-stim", "stimulus": "<p id=\"stim\">5</p>", "internal_node_id": "0.0-35.0-5.0", "time_elapsed": 406219, "key_press": -1, "trial_index": 49}, "uniqueid": "MTK2790:3NGMS9VZTMPMACFSFY1A29UDLSHFFR", "dateTime": 1519337407255}, {"current_trial": 50, "trialdata": {"rt": -1, "trial_type": "single-stim", "stimulus": "<p id=\"stim\">4</p>", "internal_node_id": "0.0-35.0-6.0", "time_elapsed": 407221, "key_press": -1, "trial_index": 50}, "uniqueid": "MTK2790:3NGMS9VZTMPMACFSFY1A29UDLSHFFR", "dateTime": 1519337408257}, {"current_trial": 51, "trialdata": {"rt": -1, "trial_type": "single-stim", "stimulus": "<p id=\"stim\">3</p>", "internal_node_id": "0.0-35.0-7.0", "time_elapsed": 408222, "key_press": -1, "trial_index": 51}, "uniqueid": "MTK2790:3NGMS9VZTMPMACFSFY1A29UDLSHFFR", "dateTime": 1519337409259}, {"current_trial": 52, "trialdata": {"rt": -1, "trial_type": "single-stim", "stimulus": "<p id=\"stim\">2</p>", "internal_node_id": "0.0-35.0-8.0", "time_elapsed": 409225, "key_press": -1, "trial_index": 52}, "uniqueid": "MTK2790:3NGMS9VZTMPMACFSFY1A29UDLSHFFR", "dateTime": 1519337410261}, {"current_trial": 53, "trialdata": {"rt": -1, "trial_type": "single-stim", "stimulus": "<p id=\"stim\">1</p>", "internal_node_id": "0.0-35.0-9.0", "time_elapsed": 410227, "key_press": -1, "trial_index": 53}, "uniqueid": "MTK2790:3NGMS9VZTMPMACFSFY1A29UDLSHFFR", "dateTime": 1519337411263}, {"current_trial": 54, "trialdata": {"rt": -1, "trial_type": "single-stim", "stimulus": "<p id=\"stim\">+</p>", "internal_node_id": "0.0-36.0-0.0", "time_elapsed": 411729, "key_press": -1, "type": "FIXATION", "trial_index": 54}, "uniqueid": "MTK2790:3NGMS9VZTMPMACFSFY1A29UDLSHFFR", "dateTime": 1519337412765}, {"current_trial": 55, "trialdata": {"rt": -1000, "trial_type": "single-audio", "word": "rifle", "stimulus": "/static/audio/wordpool/RIFLE.wav", "conditions": [18, 1200, "a", 18000], "internal_node_id": "0.0-37.0", "trial": 1, "time_elapsed": 413937, "serialpos": 0, "key_press": -1, "wordID": 1191, "type": "PRES_AUD", "trial_index": 55}, "uniqueid": "MTK2790:3NGMS9VZTMPMACFSFY1A29UDLSHFFR", "dateTime": 1519337414973}, {"current_trial": 56, "trialdata": {"rt": -1000, "trial_type": "single-audio", "word": "ketchup", "stimulus": "/static/audio/wordpool/KETCHUP.wav", "conditions": [18, 1200, "a", 18000], "internal_node_id": "0.0-38.0", "trial": 1, "time_elapsed": 416329, "serialpos": 1, "key_press": -1, "wordID": 770, "type": "PRES_AUD", "trial_index": 56}, "uniqueid": "MTK2790:3NGMS9VZTMPMACFSFY1A29UDLSHFFR", "dateTime": 1519337417365}, {"current_trial": 57, "trialdata": {"rt": -1000, "trial_type": "single-audio", "word": "woman", "stimulus": "/static/audio/wordpool/WOMAN.wav", "conditions": [18, 1200, "a", 18000], "internal_node_id": "0.0-39.0", "trial": 1, "time_elapsed": 418502, "serialpos": 2, "key_press": -1, "wordID": 1619, "type": "PRES_AUD", "trial_index": 57}, "uniqueid": "MTK2790:3NGMS9VZTMPMACFSFY1A29UDLSHFFR", "dateTime": 1519337419539}, {"current_trial": 58, "trialdata": {"rt": -1000, "trial_type": "single-audio", "word": "knife", "stimulus": "/static/audio/wordpool/KNIFE.wav", "conditions": [18, 1200, "a", 18000], "internal_node_id": "0.0-40.0", "trial": 1, "time_elapsed": 420766, "serialpos": 3, "key_press": -1, "wordID": 784, "type": "PRES_AUD", "trial_index": 58}, "uniqueid": "MTK2790:3NGMS9VZTMPMACFSFY1A29UDLSHFFR", "dateTime": 1519337421802}, {"current_trial": 59, "trialdata": {"rt": -1000, "trial_type": "single-audio", "word": "pebble", "stimulus": "/static/audio/wordpool/PEBBLE.wav", "conditions": [18, 1200, "a", 18000], "internal_node_id": "0.0-41.0", "trial": 1, "time_elapsed": 422837, "serialpos": 4, "key_press": -1, "wordID": 1034, "type": "PRES_AUD", "trial_index": 59}, "uniqueid": "MTK2790:3NGMS9VZTMPMACFSFY1A29UDLSHFFR", "dateTime": 1519337423873}, {"current_trial": 60, "trialdata": {"rt": -1000, "trial_type": "single-audio", "word": "husband", "stimulus": "/static/audio/wordpool/HUSBAND.wav", "conditions": [18, 1200, "a", 18000], "internal_node_id": "0.0-42.0", "trial": 1, "time_elapsed": 424965, "serialpos": 5, "key_press": -1, "wordID": 727, "type": "PRES_AUD", "trial_index": 60}, "uniqueid": "MTK2790:3NGMS9VZTMPMACFSFY1A29UDLSHFFR", "dateTime": 1519337426003}, {"current_trial": 61, "trialdata": {"rt": -1000, "trial_type": "single-audio", "word": "bathtub", "stimulus": "/static/audio/wordpool/BATHTUB.wav", "conditions": [18, 1200, "a", 18000], "internal_node_id": "0.0-43.0", "trial": 1, "time_elapsed": 427231, "serialpos": 6, "key_press": -1, "wordID": 99, "type": "PRES_AUD", "trial_index": 61}, "uniqueid": "MTK2790:3NGMS9VZTMPMACFSFY1A29UDLSHFFR", "dateTime": 1519337428267}, {"current_trial": 62, "trialdata": {"rt": -1000, "trial_type": "single-audio", "word": "driver", "stimulus": "/static/audio/wordpool/DRIVER.wav", "conditions": [18, 1200, "a", 18000], "internal_node_id": "0.0-44.0", "trial": 1, "time_elapsed": 429477, "serialpos": 7, "key_press": -1, "wordID": 498, "type": "PRES_AUD", "trial_index": 62}, "uniqueid": "MTK2790:3NGMS9VZTMPMACFSFY1A29UDLSHFFR", "dateTime": 1519337430513}, {"current_trial": 63, "trialdata": {"rt": -1000, "trial_type": "single-audio", "word": "mildew", "stimulus": "/static/audio/wordpool/MILDEW.wav", "conditions": [18, 1200, "a", 18000], "internal_node_id": "0.0-45.0", "trial": 1, "time_elapsed": 431545, "serialpos": 8, "key_press": -1, "wordID": 892, "type": "PRES_AUD", "trial_index": 63}, "uniqueid": "MTK2790:3NGMS9VZTMPMACFSFY1A29UDLSHFFR", "dateTime": 1519337432581}, {"current_trial": 64, "trialdata": {"rt": -1000, "trial_type": "single-audio", "word": "pizza", "stimulus": "/static/audio/wordpool/PIZZA.wav", "conditions": [18, 1200, "a", 18000], "internal_node_id": "0.0-46.0", "trial": 1, "time_elapsed": 433614, "serialpos": 9, "key_press": -1, "wordID": 1078, "type": "PRES_AUD", "trial_index": 64}, "uniqueid": "MTK2790:3NGMS9VZTMPMACFSFY1A29UDLSHFFR", "dateTime": 1519337434650}, {"current_trial": 65, "trialdata": {"rt": -1000, "trial_type": "single-audio", "word": "cashew", "stimulus": "/static/audio/wordpool/CASHEW.wav", "conditions": [18, 1200, "a", 18000], "internal_node_id": "0.0-47.0", "trial": 1, "time_elapsed": 435976, "serialpos": 10, "key_press": -1, "wordID": 252, "type": "PRES_AUD", "trial_index": 65}, "uniqueid": "MTK2790:3NGMS9VZTMPMACFSFY1A29UDLSHFFR", "dateTime": 1519337437012}, {"current_trial": 66, "trialdata": {"rt": -1000, "trial_type": "single-audio", "word": "flashlight", "stimulus": "/static/audio/wordpool/FLASHLIGHT.wav", "conditions": [18, 1200, "a", 18000], "internal_node_id": "0.0-48.0", "trial": 1, "time_elapsed": 438123, "serialpos": 11, "key_press": -1, "wordID": 574, "type": "PRES_AUD", "trial_index": 66}, "uniqueid": "MTK2790:3NGMS9VZTMPMACFSFY1A29UDLSHFFR", "dateTime": 1519337439159}, {"current_trial": 67, "trialdata": {"rt": -1000, "trial_type": "single-audio", "word": "sister", "stimulus": "/static/audio/wordpool/SISTER.wav", "conditions": [18, 1200, "a", 18000], "internal_node_id": "0.0-49.0", "trial": 1, "time_elapsed": 440149, "serialpos": 12, "key_press": -1, "wordID": 1311, "type": "PRES_AUD", "trial_index": 67}, "uniqueid": "MTK2790:3NGMS9VZTMPMACFSFY1A29UDLSHFFR", "dateTime": 1519337441185}, {"current_trial": 68, "trialdata": {"rt": -1000, "trial_type": "single-audio", "word": "whistle", "stimulus": "/static/audio/wordpool/WHISTLE.wav", "conditions": [18, 1200, "a", 18000], "internal_node_id": "0.0-50.0", "trial": 1, "time_elapsed": 442349, "serialpos": 13, "key_press": -1, "wordID": 1605, "type": "PRES_AUD", "trial_index": 68}, "uniqueid": "MTK2790:3NGMS9VZTMPMACFSFY1A29UDLSHFFR", "dateTime": 1519337443389}, {"current_trial": 69, "trialdata": {"rt": -1000, "trial_type": "single-audio", "word": "virus", "stimulus": "/static/audio/wordpool/VIRUS.wav", "conditions": [18, 1200, "a", 18000], "internal_node_id": "0.0-51.0", "trial": 1, "time_elapsed": 444712, "serialpos": 14, "key_press": -1, "wordID": 1571, "type": "PRES_AUD", "trial_index": 69}, "uniqueid": "MTK2790:3NGMS9VZTMPMACFSFY1A29UDLSHFFR", "dateTime": 1519337445748}, {"current_trial": 70, "trialdata": {"rt": -1000, "trial_type": "single-audio", "word": "rug", "stimulus": "/static/audio/wordpool/RUG.wav", "conditions": [18, 1200, "a", 18000], "internal_node_id": "0.0-52.0", "trial": 1, "time_elapsed": 446751, "serialpos": 15, "key_press": -1, "wordID": 1214, "type": "PRES_AUD", "trial_index": 70}, "uniqueid": "MTK2790:3NGMS9VZTMPMACFSFY1A29UDLSHFFR", "dateTime": 1519337447787}, {"current_trial": 71, "trialdata": {"rt": -1000, "trial_type": "single-audio", "word": "canyon", "stimulus": "/static/audio/wordpool/CANYON.wav", "conditions": [18, 1200, "a", 18000], "internal_node_id": "0.0-53.0", "trial": 1, "time_elapsed": 448977, "serialpos": 16, "key_press": -1, "wordID": 234, "type": "PRES_AUD", "trial_index": 71}, "uniqueid": "MTK2790:3NGMS9VZTMPMACFSFY1A29UDLSHFFR", "dateTime": 1519337450013}, {"current_trial": 72, "trialdata": {"rt": -1000, "trial_type": "single-audio", "word": "dresser", "stimulus": "/static/audio/wordpool/DRESSER.wav", "conditions": [18, 1200, "a", 18000], "internal_node_id": "0.0-54.0", "trial": 1, "time_elapsed": 451287, "serialpos": 17, "key_press": -1, "wordID": 495, "type": "PRES_AUD", "trial_index": 72}, "uniqueid": "MTK2790:3NGMS9VZTMPMACFSFY1A29UDLSHFFR", "dateTime": 1519337452324}, {"current_trial": 73, "trialdata": {"rt": -1, "trial_type": "single-stim", "stimulus": "", "internal_node_id": "0.0-55.0-0.0", "time_elapsed": 452621, "key_press": -1, "type": "PRE_RECALL_DELAY", "trial_index": 73}, "uniqueid": "MTK2790:3NGMS9VZTMPMACFSFY1A29UDLSHFFR", "dateTime": 1519337453657}, {"current_trial": 74, "trialdata": {"rt": -1000, "trial_type": "single-audio", "stimulus": "/static/audio/400Hz.wav", "internal_node_id": "0.0-56.0", "time_elapsed": 453123, "key_press": -1, "type": "PRE_RECALL_ALERT", "trial_index": 74}, "uniqueid": "MTK2790:3NGMS9VZTMPMACFSFY1A29UDLSHFFR", "dateTime": 1519337454159}, {"current_trial": 75, "trialdata": {"rt": [2819, 5651, 8283, 10802, 12035, 14994, 18082, 20562, 34730, 37931], "recwords": ["rifle", "ketchup", "virus", "canyon", "woman", "husband", "flashlight", "sister", "pizza", "dresser"], "key_times": [1661, 1892, 2115, 2266, 2410, 2819, 3876, 4012, 4292, 4517, 4628, 4868, 5180, 5651, 6308, 6604, 6916, 7300, 7443, 8283, 8804, 9020, 9132, 9428, 9684, 9796, 10802, 11100, 11220, 11340, 11517, 11580, 12035, 12796, 12900, 13124, 13860, 13988, 14092, 14284, 14994, 15738, 15844, 16019, 16236, 16348, 16643, 16892, 16996, 17124, 17188, 18082, 18692, 18860, 19026, 19275, 19420, 19602, 20562, 32860, 33164, 33460, 33628, 33836, 34730, 35828, 36172, 36363, 36596, 36732, 36956, 37132, 37931], "trial_type": "free-recall", "conditions": [18, 1200, "a", 18000], "internal_node_id": "0.0-57.0-0.0", "key_presses": [82, 73, 70, 76, 69, 13, 75, 69, 84, 67, 72, 85, 80, 13, 86, 73, 82, 85, 83, 13, 67, 65, 78, 89, 79, 78, 13, 87, 79, 77, 65, 78, 13, 72, 85, 83, 66, 65, 78, 68, 13, 70, 76, 65, 83, 72, 76, 73, 71, 72, 84, 13, 83, 73, 83, 84, 69, 82, 13, 80, 73, 90, 90, 65, 13, 68, 82, 69, 83, 83, 69, 82, 13], "trial": 1, "time_elapsed": 513127, "type": "FREE_RECALL", "trial_index": 75}, "uniqueid": "MTK2790:3NGMS9VZTMPMACFSFY1A29UDLSHFFR", "dateTime": 1519337514169}, {"current_trial": 76, "trialdata": {"rt": 1659, "trial_type": "text", "internal_node_id": "0.0-58.0", "time_elapsed": 516793, "key_press": 32, "type": "INSTRUCTIONS", "trial_index": 76}, "uniqueid": "MTK2790:3NGMS9VZTMPMACFSFY1A29UDLSHFFR", "dateTime": 1519337517830}, {"current_trial": 77, "trialdata": {"rt": [2570, 6283, 8658, 11970], "trial_type": "math-distractor", "key_times": [2036, 2116, 2570, 5755, 5964, 6283, 8236, 8658, 11164, 11340, 11970], "responses": ["15", "14", "7", "10"], "num2": [7, 4, 2, 3, 7], "num3": [1, 8, 2, 6, 9], "conditions": [24, 1600, "a", 12000], "internal_node_id": "0.0-59.0", "key_presses": [97, 101, 13, 97, 100, 13, 103, 13, 97, 96, 13], "trial": 2, "time_elapsed": 529798, "type": "DISTRACTOR", "trial_index": 77, "num1": [7, 2, 3, 1, 2]}, "uniqueid": "MTK2790:3NGMS9VZTMPMACFSFY1A29UDLSHFFR", "dateTime": 1519337530834}, {"current_trial": 78, "trialdata": {"rt": -1, "trial_type": "single-stim", "stimulus": "<p id=\"stim\">10</p>", "internal_node_id": "0.0-60.0-0.0", "time_elapsed": 532799, "key_press": -1, "trial_index": 78}, "uniqueid": "MTK2790:3NGMS9VZTMPMACFSFY1A29UDLSHFFR", "dateTime": 1519337533836}, {"current_trial": 79, "trialdata": {"rt": -1, "trial_type": "single-stim", "stimulus": "<p id=\"stim\">9</p>", "internal_node_id": "0.0-60.0-1.0", "time_elapsed": 533801, "key_press": -1, "trial_index": 79}, "uniqueid": "MTK2790:3NGMS9VZTMPMACFSFY1A29UDLSHFFR", "dateTime": 1519337534837}, {"current_trial": 80, "trialdata": {"rt": -1, "trial_type": "single-stim", "stimulus": "<p id=\"stim\">8</p>", "internal_node_id": "0.0-60.0-2.0", "time_elapsed": 534803, "key_press": -1, "trial_index": 80}, "uniqueid": "MTK2790:3NGMS9VZTMPMACFSFY1A29UDLSHFFR", "dateTime": 1519337535839}, {"current_trial": 81, "trialdata": {"rt": -1, "trial_type": "single-stim", "stimulus": "<p id=\"stim\">7</p>", "internal_node_id": "0.0-60.0-3.0", "time_elapsed": 535805, "key_press": -1, "trial_index": 81}, "uniqueid": "MTK2790:3NGMS9VZTMPMACFSFY1A29UDLSHFFR", "dateTime": 1519337536841}, {"current_trial": 82, "trialdata": {"rt": -1, "trial_type": "single-stim", "stimulus": "<p id=\"stim\">6</p>", "internal_node_id": "0.0-60.0-4.0", "time_elapsed": 536807, "key_press": -1, "trial_index": 82}, "uniqueid": "MTK2790:3NGMS9VZTMPMACFSFY1A29UDLSHFFR", "dateTime": 1519337537843}, {"current_trial": 83, "trialdata": {"rt": -1, "trial_type": "single-stim", "stimulus": "<p id=\"stim\">5</p>", "internal_node_id": "0.0-60.0-5.0", "time_elapsed": 537808, "key_press": -1, "trial_index": 83}, "uniqueid": "MTK2790:3NGMS9VZTMPMACFSFY1A29UDLSHFFR", "dateTime": 1519337538845}, {"current_trial": 84, "trialdata": {"rt": -1, "trial_type": "single-stim", "stimulus": "<p id=\"stim\">4</p>", "internal_node_id": "0.0-60.0-6.0", "time_elapsed": 538810, "key_press": -1, "trial_index": 84}, "uniqueid": "MTK2790:3NGMS9VZTMPMACFSFY1A29UDLSHFFR", "dateTime": 1519337539847}, {"current_trial": 85, "trialdata": {"rt": -1, "trial_type": "single-stim", "stimulus": "<p id=\"stim\">3</p>", "internal_node_id": "0.0-60.0-7.0", "time_elapsed": 539812, "key_press": -1, "trial_index": 85}, "uniqueid": "MTK2790:3NGMS9VZTMPMACFSFY1A29UDLSHFFR", "dateTime": 1519337540848}, {"current_trial": 86, "trialdata": {"rt": -1, "trial_type": "single-stim", "stimulus": "<p id=\"stim\">2</p>", "internal_node_id": "0.0-60.0-8.0", "time_elapsed": 540814, "key_press": -1, "trial_index": 86}, "uniqueid": "MTK2790:3NGMS9VZTMPMACFSFY1A29UDLSHFFR", "dateTime": 1519337541850}, {"current_trial": 87, "trialdata": {"rt": -1, "trial_type": "single-stim", "stimulus": "<p id=\"stim\">1</p>", "internal_node_id": "0.0-60.0-9.0", "time_elapsed": 541816, "key_press": -1, "trial_index": 87}, "uniqueid": "MTK2790:3NGMS9VZTMPMACFSFY1A29UDLSHFFR", "dateTime": 1519337542852}, {"current_trial": 88, "trialdata": {"rt": -1, "trial_type": "single-stim", "stimulus": "<p id=\"stim\">+</p>", "internal_node_id": "0.0-61.0-0.0", "time_elapsed": 543318, "key_press": -1, "type": "FIXATION", "trial_index": 88}, "uniqueid": "MTK2790:3NGMS9VZTMPMACFSFY1A29UDLSHFFR", "dateTime": 1519337544354}, {"current_trial": 89, "trialdata": {"rt": -1000, "trial_type": "single-audio", "word": "gangster", "stimulus": "/static/audio/wordpool/GANGSTER.wav", "conditions": [24, 1600, "a", 12000], "internal_node_id": "0.0-62.0", "trial": 2, "time_elapsed": 545986, "serialpos": 0, "key_press": -1, "wordID": 619, "type": "PRES_AUD", "trial_index": 89}, "uniqueid": "MTK2790:3NGMS9VZTMPMACFSFY1A29UDLSHFFR", "dateTime": 1519337547023}, {"current_trial": 90, "trialdata": {"rt": -1000, "trial_type": "single-audio", "word": "fruit", "stimulus": "/static/audio/wordpool/FRUIT.wav", "conditions": [24, 1600, "a", 12000], "internal_node_id": "0.0-63.0", "trial": 2, "time_elapsed": 548649, "serialpos": 1, "key_press": -1, "wordID": 609, "type": "PRES_AUD", "trial_index": 90}, "uniqueid": "MTK2790:3NGMS9VZTMPMACFSFY1A29UDLSHFFR", "dateTime": 1519337549686}, {"current_trial": 91, "trialdata": {"rt": -1000, "trial_type": "single-audio", "word": "kleenex", "stimulus": "/static/audio/wordpool/KLEENEX.wav", "conditions": [24, 1600, "a", 12000], "internal_node_id": "0.0-64.0", "trial": 2, "time_elapsed": 551333, "serialpos": 2, "key_press": -1, "wordID": 781, "type": "PRES_AUD", "trial_index": 91}, "uniqueid": "MTK2790:3NGMS9VZTMPMACFSFY1A29UDLSHFFR", "dateTime": 1519337552370}, {"current_trial": 92, "trialdata": {"rt": -1000, "trial_type": "single-audio", "word": "pork", "stimulus": "/static/audio/wordpool/PORK.wav", "conditions": [24, 1600, "a", 12000], "internal_node_id": "0.0-65.0", "trial": 2, "time_elapsed": 553911, "serialpos": 3, "key_press": -1, "wordID": 1107, "type": "PRES_AUD", "trial_index": 92}, "uniqueid": "MTK2790:3NGMS9VZTMPMACFSFY1A29UDLSHFFR", "dateTime": 1519337554947}, {"current_trial": 93, "trialdata": {"rt": -1000, "trial_type": "single-audio", "word": "beef", "stimulus": "/static/audio/wordpool/BEEF.wav", "conditions": [24, 1600, "a", 12000], "internal_node_id": "0.0-66.0", "trial": 2, "time_elapsed": 556640, "serialpos": 4, "key_press": -1, "wordID": 112, "type": "PRES_AUD", "trial_index": 93}, "uniqueid": "MTK2790:3NGMS9VZTMPMACFSFY1A29UDLSHFFR", "dateTime": 1519337557676}, {"current_trial": 94, "trialdata": {"rt": -1000, "trial_type": "single-audio", "word": "shortcake", "stimulus": "/static/audio/wordpool/SHORTCAKE.wav", "conditions": [24, 1600, "a", 12000], "internal_node_id": "0.0-67.0", "trial": 2, "time_elapsed": 559202, "serialpos": 5, "key_press": -1, "wordID": 1291, "type": "PRES_AUD", "trial_index": 94}, "uniqueid": "MTK2790:3NGMS9VZTMPMACFSFY1A29UDLSHFFR", "dateTime": 1519337560239}, {"current_trial": 95, "trialdata": {"rt": -1000, "trial_type": "single-audio", "word": "swimmer", "stimulus": "/static/audio/wordpool/SWIMMER.wav", "conditions": [24, 1600, "a", 12000], "internal_node_id": "0.0-68.0", "trial": 2, "time_elapsed": 561775, "serialpos": 6, "key_press": -1, "wordID": 1419, "type": "PRES_AUD", "trial_index": 95}, "uniqueid": "MTK2790:3NGMS9VZTMPMACFSFY1A29UDLSHFFR", "dateTime": 1519337562811}, {"current_trial": 96, "trialdata": {"rt": -1000, "trial_type": "single-audio", "word": "carrot", "stimulus": "/static/audio/wordpool/CARROT.wav", "conditions": [24, 1600, "a", 12000], "internal_node_id": "0.0-69.0", "trial": 2, "time_elapsed": 564432, "serialpos": 7, "key_press": -1, "wordID": 248, "type": "PRES_AUD", "trial_index": 96}, "uniqueid": "MTK2790:3NGMS9VZTMPMACFSFY1A29UDLSHFFR", "dateTime": 1519337565468}, {"current_trial": 97, "trialdata": {"rt": -1000, "trial_type": "single-audio", "word": "eyelash", "stimulus": "/static/audio/wordpool/EYELASH.wav", "conditions": [24, 1600, "a", 12000], "internal_node_id": "0.0-70.0", "trial": 2, "time_elapsed": 566927, "serialpos": 8, "key_press": -1, "wordID": 545, "type": "PRES_AUD", "trial_index": 97}, "uniqueid": "MTK2790:3NGMS9VZTMPMACFSFY1A29UDLSHFFR", "dateTime": 1519337567963}, {"current_trial": 98, "trialdata": {"rt": -1000, "trial_type": "single-audio", "word": "twig", "stimulus": "/static/audio/wordpool/TWIG.wav", "conditions": [24, 1600, "a", 12000], "internal_node_id": "0.0-71.0", "trial": 2, "time_elapsed": 569344, "serialpos": 9, "key_press": -1, "wordID": 1526, "type": "PRES_AUD", "trial_index": 98}, "uniqueid": "MTK2790:3NGMS9VZTMPMACFSFY1A29UDLSHFFR", "dateTime": 1519337570380}, {"current_trial": 99, "trialdata": {"rt": -1000, "trial_type": "single-audio", "word": "ox", "stimulus": "/static/audio/wordpool/OX.wav", "conditions": [24, 1600, "a", 12000], "internal_node_id": "0.0-72.0", "trial": 2, "time_elapsed": 571912, "serialpos": 10, "key_press": -1, "wordID": 993, "type": "PRES_AUD", "trial_index": 99}, "uniqueid": "MTK2790:3NGMS9VZTMPMACFSFY1A29UDLSHFFR", "dateTime": 1519337572948}, {"current_trial": 100, "trialdata": {"rt": -1000, "trial_type": "single-audio", "word": "citrus", "stimulus": "/static/audio/wordpool/CITRUS.wav", "conditions": [24, 1600, "a", 12000], "internal_node_id": "0.0-73.0", "trial": 2, "time_elapsed": 574488, "serialpos": 11, "key_press": -1, "wordID": 312, "type": "PRES_AUD", "trial_index": 100}, "uniqueid": "MTK2790:3NGMS9VZTMPMACFSFY1A29UDLSHFFR", "dateTime": 1519337575524}, {"current_trial": 101, "trialdata": {"rt": -1000, "trial_type": "single-audio", "word": "igloo", "stimulus": "/static/audio/wordpool/IGLOO.wav", "conditions": [24, 1600, "a", 12000], "internal_node_id": "0.0-74.0", "trial": 2, "time_elapsed": 576970, "serialpos": 12, "key_press": -1, "wordID": 733, "type": "PRES_AUD", "trial_index": 101}, "uniqueid": "MTK2790:3NGMS9VZTMPMACFSFY1A29UDLSHFFR", "dateTime": 1519337578006}, {"current_trial": 102, "trialdata": {"rt": -1000, "trial_type": "single-audio", "word": "soda", "stimulus": "/static/audio/wordpool/SODA.wav", "conditions": [24, 1600, "a", 12000], "internal_node_id": "0.0-75.0", "trial": 2, "time_elapsed": 579432, "serialpos": 13, "key_press": -1, "wordID": 1340, "type": "PRES_AUD", "trial_index": 102}, "uniqueid": "MTK2790:3NGMS9VZTMPMACFSFY1A29UDLSHFFR", "dateTime": 1519337580468}, {"current_trial": 103, "trialdata": {"rt": -1000, "trial_type": "single-audio", "word": "coffee", "stimulus": "/static/audio/wordpool/COFFEE.wav", "conditions": [24, 1600, "a", 12000], "internal_node_id": "0.0-76.0", "trial": 2, "time_elapsed": 581856, "serialpos": 14, "key_press": -1, "wordID": 340, "type": "PRES_AUD", "trial_index": 103}, "uniqueid": "MTK2790:3NGMS9VZTMPMACFSFY1A29UDLSHFFR", "dateTime": 1519337582892}, {"current_trial": 104, "trialdata": {"rt": -1000, "trial_type": "single-audio", "word": "parsley", "stimulus": "/static/audio/wordpool/PARSLEY.wav", "conditions": [24, 1600, "a", 12000], "internal_node_id": "0.0-77.0", "trial": 2, "time_elapsed": 584358, "serialpos": 15, "key_press": -1, "wordID": 1015, "type": "PRES_AUD", "trial_index": 104}, "uniqueid": "MTK2790:3NGMS9VZTMPMACFSFY1A29UDLSHFFR", "dateTime": 1519337585394}, {"current_trial": 105, "trialdata": {"rt": -1000, "trial_type": "single-audio", "word": "london", "stimulus": "/static/audio/wordpool/LONDON.wav", "conditions": [24, 1600, "a", 12000], "internal_node_id": "0.0-78.0", "trial": 2, "time_elapsed": 586927, "serialpos": 16, "key_press": -1, "wordID": 842, "type": "PRES_AUD", "trial_index": 105}, "uniqueid": "MTK2790:3NGMS9VZTMPMACFSFY1A29UDLSHFFR", "dateTime": 1519337587963}, {"current_trial": 106, "trialdata": {"rt": -1000, "trial_type": "single-audio", "word": "glass", "stimulus": "/static/audio/wordpool/GLASS.wav", "conditions": [24, 1600, "a", 12000], "internal_node_id": "0.0-79.0", "trial": 2, "time_elapsed": 589524, "serialpos": 17, "key_press": -1, "wordID": 638, "type": "PRES_AUD", "trial_index": 106}, "uniqueid": "MTK2790:3NGMS9VZTMPMACFSFY1A29UDLSHFFR", "dateTime": 1519337590560}, {"current_trial": 107, "trialdata": {"rt": -1000, "trial_type": "single-audio", "word": "shelf", "stimulus": "/static/audio/wordpool/SHELF.wav", "conditions": [24, 1600, "a", 12000], "internal_node_id": "0.0-80.0", "trial": 2, "time_elapsed": 591953, "serialpos": 18, "key_press": -1, "wordID": 1279, "type": "PRES_AUD", "trial_index": 107}, "uniqueid": "MTK2790:3NGMS9VZTMPMACFSFY1A29UDLSHFFR", "dateTime": 1519337592989}, {"current_trial": 108, "trialdata": {"rt": -1000, "trial_type": "single-audio", "word": "grill", "stimulus": "/static/audio/wordpool/GRILL.wav", "conditions": [24, 1600, "a", 12000], "internal_node_id": "0.0-81.0", "trial": 2, "time_elapsed": 594435, "serialpos": 19, "key_press": -1, "wordID": 660, "type": "PRES_AUD", "trial_index": 108}, "uniqueid": "MTK2790:3NGMS9VZTMPMACFSFY1A29UDLSHFFR", "dateTime": 1519337595471}, {"current_trial": 109, "trialdata": {"rt": -1000, "trial_type": "single-audio", "word": "europe", "stimulus": "/static/audio/wordpool/EUROPE.wav", "conditions": [24, 1600, "a", 12000], "internal_node_id": "0.0-82.0", "trial": 2, "time_elapsed": 597234, "serialpos": 20, "key_press": -1, "wordID": 540, "type": "PRES_AUD", "trial_index": 109}, "uniqueid": "MTK2790:3NGMS9VZTMPMACFSFY1A29UDLSHFFR", "dateTime": 1519337598270}, {"current_trial": 110, "trialdata": {"rt": -1000, "trial_type": "single-audio", "word": "stream", "stimulus": "/static/audio/wordpool/STREAM.wav", "conditions": [24, 1600, "a", 12000], "internal_node_id": "0.0-83.0", "trial": 2, "time_elapsed": 599959, "serialpos": 21, "key_press": -1, "wordID": 1391, "type": "PRES_AUD", "trial_index": 110}, "uniqueid": "MTK2790:3NGMS9VZTMPMACFSFY1A29UDLSHFFR", "dateTime": 1519337600995}, {"current_trial": 111, "trialdata": {"rt": -1000, "trial_type": "single-audio", "word": "helmet", "stimulus": "/static/audio/wordpool/HELMET.wav", "conditions": [24, 1600, "a", 12000], "internal_node_id": "0.0-84.0", "trial": 2, "time_elapsed": 602661, "serialpos": 22, "key_press": -1, "wordID": 701, "type": "PRES_AUD", "trial_index": 111}, "uniqueid": "MTK2790:3NGMS9VZTMPMACFSFY1A29UDLSHFFR", "dateTime": 1519337603697}, {"current_trial": 112, "trialdata": {"rt": -1000, "trial_type": "single-audio", "word": "river", "stimulus": "/static/audio/wordpool/RIVER.wav", "conditions": [24, 1600, "a", 12000], "internal_node_id": "0.0-85.0", "trial": 2, "time_elapsed": 605146, "serialpos": 23, "key_press": -1, "wordID": 1193, "type": "PRES_AUD", "trial_index": 112}, "uniqueid": "MTK2790:3NGMS9VZTMPMACFSFY1A29UDLSHFFR", "dateTime": 1519337606182}, {"current_trial": 113, "trialdata": {"rt": -1, "trial_type": "single-stim", "stimulus": "", "internal_node_id": "0.0-86.0-0.0", "time_elapsed": 606382, "key_press": -1, "type": "PRE_RECALL_DELAY", "trial_index": 113}, "uniqueid": "MTK2790:3NGMS9VZTMPMACFSFY1A29UDLSHFFR", "dateTime": 1519337607418}, {"current_trial": 114, "trialdata": {"rt": -1000, "trial_type": "single-audio", "stimulus": "/static/audio/400Hz.wav", "internal_node_id": "0.0-87.0", "time_elapsed": 606883, "key_press": -1, "type": "PRE_RECALL_ALERT", "trial_index": 114}, "uniqueid": "MTK2790:3NGMS9VZTMPMACFSFY1A29UDLSHFFR", "dateTime": 1519337607919}, {"current_trial": 115, "trialdata": {"rt": [3699, 5979, 7971, 10419, 11875, 13875, 15499, 17331, 20667, 23003, 24827, 28563], "recwords": ["gangster", "kleenex", "fruit", "beef", "pork", "helmet", "river", "london", "europe", "stream", "river", "citrus"], "key_times": [1261, 1436, 1564, 1900, 2149, 2419, 2620, 2812, 3699, 4251, 4467, 4717, 4828, 5068, 5220, 5556, 5979, 6756, 6979, 7206, 7387, 7539, 7971, 8620, 8764, 8932, 9980, 10419, 10860, 11069, 11275, 11612, 11875, 12340, 12563, 12780, 13012, 13156, 13429, 13875, 14636, 14740, 14884, 15116, 15292, 15499, 15972, 16244, 16443, 16724, 16804, 16884, 17331, 18043, 18355, 18580, 18869, 19476, 19644, 20667, 21670, 22027, 22236, 22419, 22644, 22723, 23003, 23820, 23988, 24139, 24364, 24556, 24827, 26389, 26789, 27067, 27276, 27403, 27579, 28563], "trial_type": "free-recall", "conditions": [24, 1600, "a", 12000], "internal_node_id": "0.0-88.0-0.0", "key_presses": [71, 65, 78, 71, 83, 84, 69, 82, 13, 75, 76, 69, 69, 78, 69, 88, 13, 70, 82, 85, 73, 84, 13, 66, 69, 69, 70, 13, 80, 79, 82, 75, 13, 72, 69, 76, 77, 69, 84, 13, 82, 73, 86, 69, 82, 13, 76, 79, 78, 68, 79, 78, 13, 69, 85, 82, 79, 80, 69, 13, 83, 84, 82, 69, 65, 77, 13, 82, 73, 86, 69, 82, 13, 67, 73, 84, 82, 85, 83, 13], "trial": 2, "time_elapsed": 666886, "type": "FREE_RECALL", "trial_index": 115}, "uniqueid": "MTK2790:3NGMS9VZTMPMACFSFY1A29UDLSHFFR", "dateTime": 1519337667926}, {"current_trial": 116, "trialdata": {"rt": 2359, "trial_type": "text", "internal_node_id": "0.0-89.0", "time_elapsed": 671250, "key_press": 32, "type": "INSTRUCTIONS", "trial_index": 116}, "uniqueid": "MTK2790:3NGMS9VZTMPMACFSFY1A29UDLSHFFR", "dateTime": 1519337672286}, {"current_trial": 117, "trialdata": {"rt": [2937, 5009, 8409], "trial_type": "math-distractor", "key_times": [2402, 2523, 2937, 4498, 4682, 5009, 7874, 8027, 8409, 11882], "responses": ["20", "14", "13"], "num2": [8, 5, 4, 3], "num3": [8, 5, 2, 6], "conditions": [12, 800, "a", 12000], "internal_node_id": "0.0-90.0", "key_presses": [98, 96, 13, 97, 100, 13, 97, 99, 13, 97], "trial": 3, "time_elapsed": 685256, "type": "DISTRACTOR", "trial_index": 117, "num1": [4, 4, 7, 8]}, "uniqueid": "MTK2790:3NGMS9VZTMPMACFSFY1A29UDLSHFFR", "dateTime": 1519337686292}, {"current_trial": 118, "trialdata": {"rt": -1, "trial_type": "single-stim", "stimulus": "<p id=\"stim\">10</p>", "internal_node_id": "0.0-91.0-0.0", "time_elapsed": 688258, "key_press": -1, "trial_index": 118}, "uniqueid": "MTK2790:3NGMS9VZTMPMACFSFY1A29UDLSHFFR", "dateTime": 1519337689295}, {"current_trial": 119, "trialdata": {"rt": -1, "trial_type": "single-stim", "stimulus": "<p id=\"stim\">9</p>", "internal_node_id": "0.0-91.0-1.0", "time_elapsed": 689260, "key_press": -1, "trial_index": 119}, "uniqueid": "MTK2790:3NGMS9VZTMPMACFSFY1A29UDLSHFFR", "dateTime": 1519337690296}, {"current_trial": 120, "trialdata": {"rt": -1, "trial_type": "single-stim", "stimulus": "<p id=\"stim\">8</p>", "internal_node_id": "0.0-91.0-2.0", "time_elapsed": 690262, "key_press": -1, "trial_index": 120}, "uniqueid": "MTK2790:3NGMS9VZTMPMACFSFY1A29UDLSHFFR", "dateTime": 1519337691298}, {"current_trial": 121, "trialdata": {"rt": -1, "trial_type": "single-stim", "stimulus": "<p id=\"stim\">7</p>", "internal_node_id": "0.0-91.0-3.0", "time_elapsed": 691264, "key_press": -1, "trial_index": 121}, "uniqueid": "MTK2790:3NGMS9VZTMPMACFSFY1A29UDLSHFFR", "dateTime": 1519337692300}, {"current_trial": 122, "trialdata": {"rt": -1, "trial_type": "single-stim", "stimulus": "<p id=\"stim\">6</p>", "internal_node_id": "0.0-91.0-4.0", "time_elapsed": 692266, "key_press": -1, "trial_index": 122}, "uniqueid": "MTK2790:3NGMS9VZTMPMACFSFY1A29UDLSHFFR", "dateTime": 1519337693302}, {"current_trial": 123, "trialdata": {"rt": -1, "trial_type": "single-stim", "stimulus": "<p id=\"stim\">5</p>", "internal_node_id": "0.0-91.0-5.0", "time_elapsed": 693268, "key_press": -1, "trial_index": 123}, "uniqueid": "MTK2790:3NGMS9VZTMPMACFSFY1A29UDLSHFFR", "dateTime": 1519337694304}, {"current_trial": 124, "trialdata": {"rt": -1, "trial_type": "single-stim", "stimulus": "<p id=\"stim\">4</p>", "internal_node_id": "0.0-91.0-6.0", "time_elapsed": 694270, "key_press": -1, "trial_index": 124}, "uniqueid": "MTK2790:3NGMS9VZTMPMACFSFY1A29UDLSHFFR", "dateTime": 1519337695306}, {"current_trial": 125, "trialdata": {"rt": -1, "trial_type": "single-stim", "stimulus": "<p id=\"stim\">3</p>", "internal_node_id": "0.0-91.0-7.0", "time_elapsed": 695271, "key_press": -1, "trial_index": 125}, "uniqueid": "MTK2790:3NGMS9VZTMPMACFSFY1A29UDLSHFFR", "dateTime": 1519337696308}, {"current_trial": 126, "trialdata": {"rt": -1, "trial_type": "single-stim", "stimulus": "<p id=\"stim\">2</p>", "internal_node_id": "0.0-91.0-8.0", "time_elapsed": 696273, "key_press": -1, "trial_index": 126}, "uniqueid": "MTK2790:3NGMS9VZTMPMACFSFY1A29UDLSHFFR", "dateTime": 1519337697309}, {"current_trial": 127, "trialdata": {"rt": -1, "trial_type": "single-stim", "stimulus": "<p id=\"stim\">1</p>", "internal_node_id": "0.0-91.0-9.0", "time_elapsed": 697276, "key_press": -1, "trial_index": 127}, "uniqueid": "MTK2790:3NGMS9VZTMPMACFSFY1A29UDLSHFFR", "dateTime": 1519337698312}, {"current_trial": 128, "trialdata": {"rt": -1, "trial_type": "single-stim", "stimulus": "<p id=\"stim\">+</p>", "internal_node_id": "0.0-92.0-0.0", "time_elapsed": 698778, "key_press": -1, "type": "FIXATION", "trial_index": 128}, "uniqueid": "MTK2790:3NGMS9VZTMPMACFSFY1A29UDLSHFFR", "dateTime": 1519337699814}, {"current_trial": 129, "trialdata": {"rt": -1000, "trial_type": "single-audio", "word": "rod", "stimulus": "/static/audio/wordpool/ROD.wav", "conditions": [12, 800, "a", 12000], "internal_node_id": "0.0-93.0", "trial": 3, "time_elapsed": 700699, "serialpos": 0, "key_press": -1, "wordID": 1202, "type": "PRES_AUD", "trial_index": 129}, "uniqueid": "MTK2790:3NGMS9VZTMPMACFSFY1A29UDLSHFFR", "dateTime": 1519337701736}, {"current_trial": 130, "trialdata": {"rt": -1000, "trial_type": "single-audio", "word": "badge", "stimulus": "/static/audio/wordpool/BADGE.wav", "conditions": [12, 800, "a", 12000], "internal_node_id": "0.0-94.0", "trial": 3, "time_elapsed": 702508, "serialpos": 1, "key_press": -1, "wordID": 67, "type": "PRES_AUD", "trial_index": 130}, "uniqueid": "MTK2790:3NGMS9VZTMPMACFSFY1A29UDLSHFFR", "dateTime": 1519337703544}, {"current_trial": 131, "trialdata": {"rt": -1000, "trial_type": "single-audio", "word": "sticker", "stimulus": "/static/audio/wordpool/STICKER.wav", "conditions": [12, 800, "a", 12000], "internal_node_id": "0.0-95.0", "trial": 3, "time_elapsed": 704306, "serialpos": 2, "key_press": -1, "wordID": 1381, "type": "PRES_AUD", "trial_index": 131}, "uniqueid": "MTK2790:3NGMS9VZTMPMACFSFY1A29UDLSHFFR", "dateTime": 1519337705342}, {"current_trial": 132, "trialdata": {"rt": -1000, "trial_type": "single-audio", "word": "hostess", "stimulus": "/static/audio/wordpool/HOSTESS.wav", "conditions": [12, 800, "a", 12000], "internal_node_id": "0.0-96.0", "trial": 3, "time_elapsed": 706080, "serialpos": 3, "key_press": -1, "wordID": 722, "type": "PRES_AUD", "trial_index": 132}, "uniqueid": "MTK2790:3NGMS9VZTMPMACFSFY1A29UDLSHFFR", "dateTime": 1519337707116}, {"current_trial": 133, "trialdata": {"rt": -1000, "trial_type": "single-audio", "word": "scarecrow", "stimulus": "/static/audio/wordpool/SCARECROW.wav", "conditions": [12, 800, "a", 12000], "internal_node_id": "0.0-97.0", "trial": 3, "time_elapsed": 707823, "serialpos": 4, "key_press": -1, "wordID": 1244, "type": "PRES_AUD", "trial_index": 133}, "uniqueid": "MTK2790:3NGMS9VZTMPMACFSFY1A29UDLSHFFR", "dateTime": 1519337708860}, {"current_trial": 134, "trialdata": {"rt": -1000, "trial_type": "single-audio", "word": "suitcase", "stimulus": "/static/audio/wordpool/SUITCASE.wav", "conditions": [12, 800, "a", 12000], "internal_node_id": "0.0-98.0", "trial": 3, "time_elapsed": 709693, "serialpos": 5, "key_press": -1, "wordID": 1402, "type": "PRES_AUD", "trial_index": 134}, "uniqueid": "MTK2790:3NGMS9VZTMPMACFSFY1A29UDLSHFFR", "dateTime": 1519337710729}, {"current_trial": 135, "trialdata": {"rt": -1000, "trial_type": "single-audio", "word": "plaza", "stimulus": "/static/audio/wordpool/PLAZA.wav", "conditions": [12, 800, "a", 12000], "internal_node_id": "0.0-99.0", "trial": 3, "time_elapsed": 711428, "serialpos": 6, "key_press": -1, "wordID": 1087, "type": "PRES_AUD", "trial_index": 135}, "uniqueid": "MTK2790:3NGMS9VZTMPMACFSFY1A29UDLSHFFR", "dateTime": 1519337712464}, {"current_trial": 136, "trialdata": {"rt": -1000, "trial_type": "single-audio", "word": "hand", "stimulus": "/static/audio/wordpool/HAND.wav", "conditions": [12, 800, "a", 12000], "internal_node_id": "0.0-100.0", "trial": 3, "time_elapsed": 713356, "serialpos": 7, "key_press": -1, "wordID": 682, "type": "PRES_AUD", "trial_index": 136}, "uniqueid": "MTK2790:3NGMS9VZTMPMACFSFY1A29UDLSHFFR", "dateTime": 1519337714392}, {"current_trial": 137, "trialdata": {"rt": -1000, "trial_type": "single-audio", "word": "waitress", "stimulus": "/static/audio/wordpool/WAITRESS.wav", "conditions": [12, 800, "a", 12000], "internal_node_id": "0.0-101.0", "trial": 3, "time_elapsed": 714971, "serialpos": 8, "key_press": -1, "wordID": 1580, "type": "PRES_AUD", "trial_index": 137}, "uniqueid": "MTK2790:3NGMS9VZTMPMACFSFY1A29UDLSHFFR", "dateTime": 1519337716007}, {"current_trial": 138, "trialdata": {"rt": -1000, "trial_type": "single-audio", "word": "chest", "stimulus": "/static/audio/wordpool/CHEST.wav", "conditions": [12, 800, "a", 12000], "internal_node_id": "0.0-102.0", "trial": 3, "time_elapsed": 716862, "serialpos": 9, "key_press": -1, "wordID": 294, "type": "PRES_AUD", "trial_index": 138}, "uniqueid": "MTK2790:3NGMS9VZTMPMACFSFY1A29UDLSHFFR", "dateTime": 1519337717899}, {"current_trial": 139, "trialdata": {"rt": -1000, "trial_type": "single-audio", "word": "hornet", "stimulus": "/static/audio/wordpool/HORNET.wav", "conditions": [12, 800, "a", 12000], "internal_node_id": "0.0-103.0", "trial": 3, "time_elapsed": 718677, "serialpos": 10, "key_press": -1, "wordID": 717, "type": "PRES_AUD", "trial_index": 139}, "uniqueid": "MTK2790:3NGMS9VZTMPMACFSFY1A29UDLSHFFR", "dateTime": 1519337719713}, {"current_trial": 140, "trialdata": {"rt": -1000, "trial_type": "single-audio", "word": "dust", "stimulus": "/static/audio/wordpool/DUST.wav", "conditions": [12, 800, "a", 12000], "internal_node_id": "0.0-104.0", "trial": 3, "time_elapsed": 720596, "serialpos": 11, "key_press": -1, "wordID": 507, "type": "PRES_AUD", "trial_index": 140}, "uniqueid": "MTK2790:3NGMS9VZTMPMACFSFY1A29UDLSHFFR", "dateTime": 1519337721632}, {"current_trial": 141, "trialdata": {"rt": -1, "trial_type": "single-stim", "stimulus": "", "internal_node_id": "0.0-105.0-0.0", "time_elapsed": 721996, "key_press": -1, "type": "PRE_RECALL_DELAY", "trial_index": 141}, "uniqueid": "MTK2790:3NGMS9VZTMPMACFSFY1A29UDLSHFFR", "dateTime": 1519337723032}, {"current_trial": 142, "trialdata": {"rt": -1000, "trial_type": "single-audio", "stimulus": "/static/audio/400Hz.wav", "internal_node_id": "0.0-106.0", "time_elapsed": 722498, "key_press": -1, "type": "PRE_RECALL_ALERT", "trial_index": 142}, "uniqueid": "MTK2790:3NGMS9VZTMPMACFSFY1A29UDLSHFFR", "dateTime": 1519337723534}, {"current_trial": 143, "trialdata": {"rt": [3563, 6811, 8291, 10019, 11459], "recwords": ["hostess", "waitress", "hornet", "dust", "rod"], "key_times": [1325, 1444, 1972, 2332, 2540, 2780, 2900, 3563, 4044, 4236, 4444, 5668, 6044, 6236, 6492, 6652, 6811, 7316, 7427, 7612, 7892, 7997, 8188, 8291, 9212, 9460, 9588, 9867, 10019, 10700, 10828, 10988, 11459], "trial_type": "free-recall", "conditions": [12, 800, "a", 12000], "internal_node_id": "0.0-107.0-0.0", "key_presses": [72, 79, 83, 84, 69, 83, 83, 13, 87, 65, 73, 84, 82, 69, 83, 83, 13, 72, 79, 82, 78, 69, 84, 13, 68, 85, 83, 84, 13, 82, 79, 68, 13], "trial": 3, "time_elapsed": 782501, "type": "FREE_RECALL", "trial_index": 143}, "uniqueid": "MTK2790:3NGMS9VZTMPMACFSFY1A29UDLSHFFR", "dateTime": 1519337783541}, {"current_trial": 144, "trialdata": {"rt": 1310, "trial_type": "text", "internal_node_id": "0.0-108.0", "time_elapsed": 785816, "key_press": 32, "type": "INSTRUCTIONS", "trial_index": 144}, "uniqueid": "MTK2790:3NGMS9VZTMPMACFSFY1A29UDLSHFFR", "dateTime": 1519337786852}, {"current_trial": 145, "trialdata": {"rt": [5523, 8803, 10906, 14539, 16731, 22203], "trial_type": "math-distractor", "key_times": [4860, 5060, 5523, 8436, 8803, 10364, 10540, 10906, 14060, 14204, 14539, 16292, 16452, 16731, 21692, 21908, 22203, 23740], "responses": ["19", "9", "10", "15", "11", "17"], "num2": [9, 2, 7, 8, 3, 8, 1], "num3": [7, 4, 2, 2, 6, 1, 1], "conditions": [24, 800, "a", 24000], "internal_node_id": "0.0-109.0", "key_presses": [97, 105, 13, 105, 13, 97, 96, 13, 97, 101, 13, 97, 97, 13, 97, 103, 13, 104], "trial": 4, "time_elapsed": 811822, "type": "DISTRACTOR", "trial_index": 145, "num1": [3, 3, 1, 5, 2, 9, 6]}, "uniqueid": "MTK2790:3NGMS9VZTMPMACFSFY1A29UDLSHFFR", "dateTime": 1519337812858}, {"current_trial": 146, "trialdata": {"rt": -1, "trial_type": "single-stim", "stimulus": "<p id=\"stim\">10</p>", "internal_node_id": "0.0-110.0-0.0", "time_elapsed": 814824, "key_press": -1, "trial_index": 146}, "uniqueid": "MTK2790:3NGMS9VZTMPMACFSFY1A29UDLSHFFR", "dateTime": 1519337815861}, {"current_trial": 147, "trialdata": {"rt": -1, "trial_type": "single-stim", "stimulus": "<p id=\"stim\">9</p>", "internal_node_id": "0.0-110.0-1.0", "time_elapsed": 815827, "key_press": -1, "trial_index": 147}, "uniqueid": "MTK2790:3NGMS9VZTMPMACFSFY1A29UDLSHFFR", "dateTime": 1519337816864}, {"current_trial": 148, "trialdata": {"rt": -1, "trial_type": "single-stim", "stimulus": "<p id=\"stim\">8</p>", "internal_node_id": "0.0-110.0-2.0", "time_elapsed": 816829, "key_press": -1, "trial_index": 148}, "uniqueid": "MTK2790:3NGMS9VZTMPMACFSFY1A29UDLSHFFR", "dateTime": 1519337817866}, {"current_trial": 149, "trialdata": {"rt": -1, "trial_type": "single-stim", "stimulus": "<p id=\"stim\">7</p>", "internal_node_id": "0.0-110.0-3.0", "time_elapsed": 817832, "key_press": -1, "trial_index": 149}, "uniqueid": "MTK2790:3NGMS9VZTMPMACFSFY1A29UDLSHFFR", "dateTime": 1519337818868}, {"current_trial": 150, "trialdata": {"rt": -1, "trial_type": "single-stim", "stimulus": "<p id=\"stim\">6</p>", "internal_node_id": "0.0-110.0-4.0", "time_elapsed": 818834, "key_press": -1, "trial_index": 150}, "uniqueid": "MTK2790:3NGMS9VZTMPMACFSFY1A29UDLSHFFR", "dateTime": 1519337819870}, {"current_trial": 151, "trialdata": {"rt": -1, "trial_type": "single-stim", "stimulus": "<p id=\"stim\">5</p>", "internal_node_id": "0.0-110.0-5.0", "time_elapsed": 819836, "key_press": -1, "trial_index": 151}, "uniqueid": "MTK2790:3NGMS9VZTMPMACFSFY1A29UDLSHFFR", "dateTime": 1519337820872}, {"current_trial": 152, "trialdata": {"rt": -1, "trial_type": "single-stim", "stimulus": "<p id=\"stim\">4</p>", "internal_node_id": "0.0-110.0-6.0", "time_elapsed": 820838, "key_press": -1, "trial_index": 152}, "uniqueid": "MTK2790:3NGMS9VZTMPMACFSFY1A29UDLSHFFR", "dateTime": 1519337821874}, {"current_trial": 153, "trialdata": {"rt": -1, "trial_type": "single-stim", "stimulus": "<p id=\"stim\">3</p>", "internal_node_id": "0.0-110.0-7.0", "time_elapsed": 821840, "key_press": -1, "trial_index": 153}, "uniqueid": "MTK2790:3NGMS9VZTMPMACFSFY1A29UDLSHFFR", "dateTime": 1519337822876}, {"current_trial": 154, "trialdata": {"rt": -1, "trial_type": "single-stim", "stimulus": "<p id=\"stim\">2</p>", "internal_node_id": "0.0-110.0-8.0", "time_elapsed": 822842, "key_press": -1, "trial_index": 154}, "uniqueid": "MTK2790:3NGMS9VZTMPMACFSFY1A29UDLSHFFR", "dateTime": 1519337823878}, {"current_trial": 155, "trialdata": {"rt": -1, "trial_type": "single-stim", "stimulus": "<p id=\"stim\">1</p>", "internal_node_id": "0.0-110.0-9.0", "time_elapsed": 823843, "key_press": -1, "trial_index": 155}, "uniqueid": "MTK2790:3NGMS9VZTMPMACFSFY1A29UDLSHFFR", "dateTime": 1519337824880}, {"current_trial": 156, "trialdata": {"rt": -1, "trial_type": "single-stim", "stimulus": "<p id=\"stim\">+</p>", "internal_node_id": "0.0-111.0-0.0", "time_elapsed": 825345, "key_press": -1, "type": "FIXATION", "trial_index": 156}, "uniqueid": "MTK2790:3NGMS9VZTMPMACFSFY1A29UDLSHFFR", "dateTime": 1519337826381}, {"current_trial": 157, "trialdata": {"rt": -1000, "trial_type": "single-audio", "word": "stomach", "stimulus": "/static/audio/wordpool/STOMACH.wav", "conditions": [24, 800, "a", 24000], "internal_node_id": "0.0-112.0", "trial": 4, "time_elapsed": 827335, "serialpos": 0, "key_press": -1, "wordID": 1383, "type": "PRES_AUD", "trial_index": 157}, "uniqueid": "MTK2790:3NGMS9VZTMPMACFSFY1A29UDLSHFFR", "dateTime": 1519337828372}, {"current_trial": 158, "trialdata": {"rt": -1000, "trial_type": "single-audio", "word": "robber", "stimulus": "/static/audio/wordpool/ROBBER.wav", "conditions": [24, 800, "a", 24000], "internal_node_id": "0.0-113.0", "trial": 4, "time_elapsed": 828954, "serialpos": 1, "key_press": -1, "wordID": 1196, "type": "PRES_AUD", "trial_index": 158}, "uniqueid": "MTK2790:3NGMS9VZTMPMACFSFY1A29UDLSHFFR", "dateTime": 1519337829990}, {"current_trial": 159, "trialdata": {"rt": -1000, "trial_type": "single-audio", "word": "leader", "stimulus": "/static/audio/wordpool/LEADER.wav", "conditions": [24, 800, "a", 24000], "internal_node_id": "0.0-114.0", "trial": 4, "time_elapsed": 830891, "serialpos": 2, "key_press": -1, "wordID": 806, "type": "PRES_AUD", "trial_index": 159}, "uniqueid": "MTK2790:3NGMS9VZTMPMACFSFY1A29UDLSHFFR", "dateTime": 1519337831927}, {"current_trial": 160, "trialdata": {"rt": -1000, "trial_type": "single-audio", "word": "picture", "stimulus": "/static/audio/wordpool/PICTURE.wav", "conditions": [24, 800, "a", 24000], "internal_node_id": "0.0-115.0", "trial": 4, "time_elapsed": 832888, "serialpos": 3, "key_press": -1, "wordID": 1060, "type": "PRES_AUD", "trial_index": 160}, "uniqueid": "MTK2790:3NGMS9VZTMPMACFSFY1A29UDLSHFFR", "dateTime": 1519337833924}, {"current_trial": 161, "trialdata": {"rt": -1000, "trial_type": "single-audio", "word": "stone", "stimulus": "/static/audio/wordpool/STONE.wav", "conditions": [24, 800, "a", 24000], "internal_node_id": "0.0-116.0", "trial": 4, "time_elapsed": 834566, "serialpos": 4, "key_press": -1, "wordID": 1384, "type": "PRES_AUD", "trial_index": 161}, "uniqueid": "MTK2790:3NGMS9VZTMPMACFSFY1A29UDLSHFFR", "dateTime": 1519337835602}, {"current_trial": 162, "trialdata": {"rt": -1000, "trial_type": "single-audio", "word": "brick", "stimulus": "/static/audio/wordpool/BRICK.wav", "conditions": [24, 800, "a", 24000], "internal_node_id": "0.0-117.0", "trial": 4, "time_elapsed": 836389, "serialpos": 5, "key_press": -1, "wordID": 171, "type": "PRES_AUD", "trial_index": 162}, "uniqueid": "MTK2790:3NGMS9VZTMPMACFSFY1A29UDLSHFFR", "dateTime": 1519337837426}, {"current_trial": 163, "trialdata": {"rt": -1000, "trial_type": "single-audio", "word": "lily", "stimulus": "/static/audio/wordpool/LILY.wav", "conditions": [24, 800, "a", 24000], "internal_node_id": "0.0-118.0", "trial": 4, "time_elapsed": 838122, "serialpos": 6, "key_press": -1, "wordID": 820, "type": "PRES_AUD", "trial_index": 163}, "uniqueid": "MTK2790:3NGMS9VZTMPMACFSFY1A29UDLSHFFR", "dateTime": 1519337839158}, {"current_trial": 164, "trialdata": {"rt": -1000, "trial_type": "single-audio", "word": "handbag", "stimulus": "/static/audio/wordpool/HANDBAG.wav", "conditions": [24, 800, "a", 24000], "internal_node_id": "0.0-119.0", "trial": 4, "time_elapsed": 840065, "serialpos": 7, "key_press": -1, "wordID": 683, "type": "PRES_AUD", "trial_index": 164}, "uniqueid": "MTK2790:3NGMS9VZTMPMACFSFY1A29UDLSHFFR", "dateTime": 1519337841101}, {"current_trial": 165, "trialdata": {"rt": -1000, "trial_type": "single-audio", "word": "puppy", "stimulus": "/static/audio/wordpool/PUPPY.wav", "conditions": [24, 800, "a", 24000], "internal_node_id": "0.0-120.0", "trial": 4, "time_elapsed": 841944, "serialpos": 8, "key_press": -1, "wordID": 1143, "type": "PRES_AUD", "trial_index": 165}, "uniqueid": "MTK2790:3NGMS9VZTMPMACFSFY1A29UDLSHFFR", "dateTime": 1519337842981}, {"current_trial": 166, "trialdata": {"rt": -1000, "trial_type": "single-audio", "word": "daisy", "stimulus": "/static/audio/wordpool/DAISY.wav", "conditions": [24, 800, "a", 24000], "internal_node_id": "0.0-121.0", "trial": 4, "time_elapsed": 843868, "serialpos": 9, "key_press": -1, "wordID": 434, "type": "PRES_AUD", "trial_index": 166}, "uniqueid": "MTK2790:3NGMS9VZTMPMACFSFY1A29UDLSHFFR", "dateTime": 1519337844904}, {"current_trial": 167, "trialdata": {"rt": -1000, "trial_type": "single-audio", "word": "blueprint", "stimulus": "/static/audio/wordpool/BLUEPRINT.wav", "conditions": [24, 800, "a", 24000], "internal_node_id": "0.0-122.0", "trial": 4, "time_elapsed": 845478, "serialpos": 10, "key_press": -1, "wordID": 141, "type": "PRES_AUD", "trial_index": 167}, "uniqueid": "MTK2790:3NGMS9VZTMPMACFSFY1A29UDLSHFFR", "dateTime": 1519337846514}, {"current_trial": 168, "trialdata": {"rt": -1000, "trial_type": "single-audio", "word": "beaver", "stimulus": "/static/audio/wordpool/BEAVER.wav", "conditions": [24, 800, "a", 24000], "internal_node_id": "0.0-123.0", "trial": 4, "time_elapsed": 847327, "serialpos": 11, "key_press": -1, "wordID": 108, "type": "PRES_AUD", "trial_index": 168}, "uniqueid": "MTK2790:3NGMS9VZTMPMACFSFY1A29UDLSHFFR", "dateTime": 1519337848364}, {"current_trial": 169, "trialdata": {"rt": -1000, "trial_type": "single-audio", "word": "twister", "stimulus": "/static/audio/wordpool/TWISTER.wav", "conditions": [24, 800, "a", 24000], "internal_node_id": "0.0-124.0", "trial": 4, "time_elapsed": 849096, "serialpos": 12, "key_press": -1, "wordID": 1529, "type": "PRES_AUD", "trial_index": 169}, "uniqueid": "MTK2790:3NGMS9VZTMPMACFSFY1A29UDLSHFFR", "dateTime": 1519337850132}, {"current_trial": 170, "trialdata": {"rt": -1000, "trial_type": "single-audio", "word": "lizard", "stimulus": "/static/audio/wordpool/LIZARD.wav", "conditions": [24, 800, "a", 24000], "internal_node_id": "0.0-125.0", "trial": 4, "time_elapsed": 850752, "serialpos": 13, "key_press": -1, "wordID": 833, "type": "PRES_AUD", "trial_index": 170}, "uniqueid": "MTK2790:3NGMS9VZTMPMACFSFY1A29UDLSHFFR", "dateTime": 1519337851788}, {"current_trial": 171, "trialdata": {"rt": -1000, "trial_type": "single-audio", "word": "sculpture", "stimulus": "/static/audio/wordpool/SCULPTURE.wav", "conditions": [24, 800, "a", 24000], "internal_node_id": "0.0-126.0", "trial": 4, "time_elapsed": 852669, "serialpos": 14, "key_press": -1, "wordID": 1257, "type": "PRES_AUD", "trial_index": 171}, "uniqueid": "MTK2790:3NGMS9VZTMPMACFSFY1A29UDLSHFFR", "dateTime": 1519337853705}, {"current_trial": 172, "trialdata": {"rt": -1000, "trial_type": "single-audio", "word": "beaker", "stimulus": "/static/audio/wordpool/BEAKER.wav", "conditions": [24, 800, "a", 24000], "internal_node_id": "0.0-127.0", "trial": 4, "time_elapsed": 854473, "serialpos": 15, "key_press": -1, "wordID": 103, "type": "PRES_AUD", "trial_index": 172}, "uniqueid": "MTK2790:3NGMS9VZTMPMACFSFY1A29UDLSHFFR", "dateTime": 1519337855509}, {"current_trial": 173, "trialdata": {"rt": -1000, "trial_type": "single-audio", "word": "japan", "stimulus": "/static/audio/wordpool/JAPAN.wav", "conditions": [24, 800, "a", 24000], "internal_node_id": "0.0-128.0", "trial": 4, "time_elapsed": 856235, "serialpos": 16, "key_press": -1, "wordID": 748, "type": "PRES_AUD", "trial_index": 173}, "uniqueid": "MTK2790:3NGMS9VZTMPMACFSFY1A29UDLSHFFR", "dateTime": 1519337857271}, {"current_trial": 174, "trialdata": {"rt": -1000, "trial_type": "single-audio", "word": "france", "stimulus": "/static/audio/wordpool/FRANCE.wav", "conditions": [24, 800, "a", 24000], "internal_node_id": "0.0-129.0", "trial": 4, "time_elapsed": 858148, "serialpos": 17, "key_press": -1, "wordID": 600, "type": "PRES_AUD", "trial_index": 174}, "uniqueid": "MTK2790:3NGMS9VZTMPMACFSFY1A29UDLSHFFR", "dateTime": 1519337859184}, {"current_trial": 175, "trialdata": {"rt": -1000, "trial_type": "single-audio", "word": "flask", "stimulus": "/static/audio/wordpool/FLASK.wav", "conditions": [24, 800, "a", 24000], "internal_node_id": "0.0-130.0", "trial": 4, "time_elapsed": 859824, "serialpos": 18, "key_press": -1, "wordID": 575, "type": "PRES_AUD", "trial_index": 175}, "uniqueid": "MTK2790:3NGMS9VZTMPMACFSFY1A29UDLSHFFR", "dateTime": 1519337860860}, {"current_trial": 176, "trialdata": {"rt": -1000, "trial_type": "single-audio", "word": "pecan", "stimulus": "/static/audio/wordpool/PECAN.wav", "conditions": [24, 800, "a", 24000], "internal_node_id": "0.0-131.0", "trial": 4, "time_elapsed": 861468, "serialpos": 19, "key_press": -1, "wordID": 1035, "type": "PRES_AUD", "trial_index": 176}, "uniqueid": "MTK2790:3NGMS9VZTMPMACFSFY1A29UDLSHFFR", "dateTime": 1519337862504}, {"current_trial": 177, "trialdata": {"rt": -1000, "trial_type": "single-audio", "word": "ankle", "stimulus": "/static/audio/wordpool/ANKLE.wav", "conditions": [24, 800, "a", 24000], "internal_node_id": "0.0-132.0", "trial": 4, "time_elapsed": 863078, "serialpos": 20, "key_press": -1, "wordID": 23, "type": "PRES_AUD", "trial_index": 177}, "uniqueid": "MTK2790:3NGMS9VZTMPMACFSFY1A29UDLSHFFR", "dateTime": 1519337864114}, {"current_trial": 178, "trialdata": {"rt": -1000, "trial_type": "single-audio", "word": "sibling", "stimulus": "/static/audio/wordpool/SIBLING.wav", "conditions": [24, 800, "a", 24000], "internal_node_id": "0.0-133.0", "trial": 4, "time_elapsed": 864955, "serialpos": 21, "key_press": -1, "wordID": 1300, "type": "PRES_AUD", "trial_index": 178}, "uniqueid": "MTK2790:3NGMS9VZTMPMACFSFY1A29UDLSHFFR", "dateTime": 1519337865992}, {"current_trial": 179, "trialdata": {"rt": -1000, "trial_type": "single-audio", "word": "icing", "stimulus": "/static/audio/wordpool/ICING.wav", "conditions": [24, 800, "a", 24000], "internal_node_id": "0.0-134.0", "trial": 4, "time_elapsed": 866780, "serialpos": 22, "key_press": -1, "wordID": 731, "type": "PRES_AUD", "trial_index": 179}, "uniqueid": "MTK2790:3NGMS9VZTMPMACFSFY1A29UDLSHFFR", "dateTime": 1519337867816}, {"current_trial": 180, "trialdata": {"rt": -1000, "trial_type": "single-audio", "word": "rust", "stimulus": "/static/audio/wordpool/RUST.wav", "conditions": [24, 800, "a", 24000], "internal_node_id": "0.0-135.0", "trial": 4, "time_elapsed": 868552, "serialpos": 23, "key_press": -1, "wordID": 1218, "type": "PRES_AUD", "trial_index": 180}, "uniqueid": "MTK2790:3NGMS9VZTMPMACFSFY1A29UDLSHFFR", "dateTime": 1519337869589}, {"current_trial": 181, "trialdata": {"rt": -1, "trial_type": "single-stim", "stimulus": "", "internal_node_id": "0.0-136.0-0.0", "time_elapsed": 869924, "key_press": -1, "type": "PRE_RECALL_DELAY", "trial_index": 181}, "uniqueid": "MTK2790:3NGMS9VZTMPMACFSFY1A29UDLSHFFR", "dateTime": 1519337870960}, {"current_trial": 182, "trialdata": {"rt": -1000, "trial_type": "single-audio", "stimulus": "/static/audio/400Hz.wav", "internal_node_id": "0.0-137.0", "time_elapsed": 870426, "key_press": -1, "type": "PRE_RECALL_ALERT", "trial_index": 182}, "uniqueid": "MTK2790:3NGMS9VZTMPMACFSFY1A29UDLSHFFR", "dateTime": 1519337871462}, {"current_trial": 183, "trialdata": {"rt": [3506, 5410, 7098, 8859, 11210, 16082, 34227, 36530], "recwords": ["leader", "robber", "rust", "stone", "brick", "picture", "stomach", "ankle"], "key_times": [1556, 1820, 2051, 2276, 2492, 2661, 3506, 4084, 4196, 4492, 4651, 4756, 4972, 5410, 6068, 6322, 6458, 6602, 7098, 7676, 7964, 8053, 8196, 8308, 8859, 9628, 10396, 10516, 10666, 10770, 11210, 12172, 12429, 12525, 12820, 12909, 13053, 13228, 16082, 32436, 32731, 32860, 33019, 33147, 33404, 33484, 34227, 34660, 34908, 35556, 35787, 35922, 36530], "trial_type": "free-recall", "conditions": [24, 800, "a", 24000], "internal_node_id": "0.0-138.0-0.0", "key_presses": [76, 69, 65, 68, 69, 82, 13, 82, 79, 66, 66, 69, 82, 13, 82, 85, 83, 84, 13, 83, 84, 79, 78, 69, 13, 66, 82, 73, 67, 75, 13, 80, 73, 67, 84, 85, 82, 69, 13, 83, 84, 79, 77, 65, 67, 72, 13, 65, 78, 75, 76, 69, 13], "trial": 4, "time_elapsed": 930430, "type": "FREE_RECALL", "trial_index": 183}, "uniqueid": "MTK2790:3NGMS9VZTMPMACFSFY1A29UDLSHFFR", "dateTime": 1519337931472}, {"current_trial": 184, "trialdata": {"rt": 1525, "trial_type": "text", "internal_node_id": "0.0-139.0", "time_elapsed": 933962, "key_press": 32, "type": "INSTRUCTIONS", "trial_index": 184}, "uniqueid": "MTK2790:3NGMS9VZTMPMACFSFY1A29UDLSHFFR", "dateTime": 1519337934999}, {"current_trial": 185, "trialdata": {"rt": [4129, 10113, 12161, 14185, 16129, 19369, 22793], "trial_type": "math-distractor", "key_times": [3538, 3690, 4129, 9619, 9811, 10113, 11690, 11826, 12161, 13738, 13866, 14185, 15642, 15778, 16129, 18841, 18994, 19369, 22355, 22475, 22793], "responses": ["11", "18", "12", "11", "13", "16", "12"], "num2": [2, 6, 4, 9, 6, 6, 2, 1], "num3": [4, 5, 4, 1, 6, 4, 4, 8], "conditions": [24, 800, "a", 24000], "internal_node_id": "0.0-140.0", "key_presses": [97, 97, 13, 97, 104, 13, 97, 98, 13, 97, 97, 13, 97, 99, 13, 97, 102, 13, 97, 98, 13], "trial": 5, "time_elapsed": 959967, "type": "DISTRACTOR", "trial_index": 185, "num1": [5, 7, 4, 1, 1, 6, 6, 3]}, "uniqueid": "MTK2790:3NGMS9VZTMPMACFSFY1A29UDLSHFFR", "dateTime": 1519337961004}, {"current_trial": 186, "trialdata": {"rt": -1, "trial_type": "single-stim", "stimulus": "<p id=\"stim\">10</p>", "internal_node_id": "0.0-141.0-0.0", "time_elapsed": 962970, "key_press": -1, "trial_index": 186}, "uniqueid": "MTK2790:3NGMS9VZTMPMACFSFY1A29UDLSHFFR", "dateTime": 1519337964006}, {"current_trial": 187, "trialdata": {"rt": -1, "trial_type": "single-stim", "stimulus": "<p id=\"stim\">9</p>", "internal_node_id": "0.0-141.0-1.0", "time_elapsed": 963972, "key_press": -1, "trial_index": 187}, "uniqueid": "MTK2790:3NGMS9VZTMPMACFSFY1A29UDLSHFFR", "dateTime": 1519337965009}, {"current_trial": 188, "trialdata": {"rt": -1, "trial_type": "single-stim", "stimulus": "<p id=\"stim\">8</p>", "internal_node_id": "0.0-141.0-2.0", "time_elapsed": 964974, "key_press": -1, "trial_index": 188}, "uniqueid": "MTK2790:3NGMS9VZTMPMACFSFY1A29UDLSHFFR", "dateTime": 1519337966010}, {"current_trial": 189, "trialdata": {"rt": -1, "trial_type": "single-stim", "stimulus": "<p id=\"stim\">7</p>", "internal_node_id": "0.0-141.0-3.0", "time_elapsed": 965977, "key_press": -1, "trial_index": 189}, "uniqueid": "MTK2790:3NGMS9VZTMPMACFSFY1A29UDLSHFFR", "dateTime": 1519337967014}, {"current_trial": 190, "trialdata": {"rt": -1, "trial_type": "single-stim", "stimulus": "<p id=\"stim\">6</p>", "internal_node_id": "0.0-141.0-4.0", "time_elapsed": 966979, "key_press": -1, "trial_index": 190}, "uniqueid": "MTK2790:3NGMS9VZTMPMACFSFY1A29UDLSHFFR", "dateTime": 1519337968015}, {"current_trial": 191, "trialdata": {"rt": -1, "trial_type": "single-stim", "stimulus": "<p id=\"stim\">5</p>", "internal_node_id": "0.0-141.0-5.0", "time_elapsed": 967981, "key_press": -1, "trial_index": 191}, "uniqueid": "MTK2790:3NGMS9VZTMPMACFSFY1A29UDLSHFFR", "dateTime": 1519337969017}, {"current_trial": 192, "trialdata": {"rt": -1, "trial_type": "single-stim", "stimulus": "<p id=\"stim\">4</p>", "internal_node_id": "0.0-141.0-6.0", "time_elapsed": 968983, "key_press": -1, "trial_index": 192}, "uniqueid": "MTK2790:3NGMS9VZTMPMACFSFY1A29UDLSHFFR", "dateTime": 1519337970019}, {"current_trial": 193, "trialdata": {"rt": -1, "trial_type": "single-stim", "stimulus": "<p id=\"stim\">3</p>", "internal_node_id": "0.0-141.0-7.0", "time_elapsed": 969985, "key_press": -1, "trial_index": 193}, "uniqueid": "MTK2790:3NGMS9VZTMPMACFSFY1A29UDLSHFFR", "dateTime": 1519337971021}, {"current_trial": 194, "trialdata": {"rt": -1, "trial_type": "single-stim", "stimulus": "<p id=\"stim\">2</p>", "internal_node_id": "0.0-141.0-8.0", "time_elapsed": 970986, "key_press": -1, "trial_index": 194}, "uniqueid": "MTK2790:3NGMS9VZTMPMACFSFY1A29UDLSHFFR", "dateTime": 1519337972022}, {"current_trial": 195, "trialdata": {"rt": -1, "trial_type": "single-stim", "stimulus": "<p id=\"stim\">1</p>", "internal_node_id": "0.0-141.0-9.0", "time_elapsed": 971988, "key_press": -1, "trial_index": 195}, "uniqueid": "MTK2790:3NGMS9VZTMPMACFSFY1A29UDLSHFFR", "dateTime": 1519337973025}, {"current_trial": 196, "trialdata": {"rt": -1, "trial_type": "single-stim", "stimulus": "<p id=\"stim\">+</p>", "internal_node_id": "0.0-142.0-0.0", "time_elapsed": 973491, "key_press": -1, "type": "FIXATION", "trial_index": 196}, "uniqueid": "MTK2790:3NGMS9VZTMPMACFSFY1A29UDLSHFFR", "dateTime": 1519337974528}, {"current_trial": 197, "trialdata": {"rt": -1000, "trial_type": "single-audio", "word": "muffin", "stimulus": "/static/audio/wordpool/MUFFIN.wav", "conditions": [24, 800, "a", 24000], "internal_node_id": "0.0-143.0", "trial": 5, "time_elapsed": 975093, "serialpos": 0, "key_press": -1, "wordID": 928, "type": "PRES_AUD", "trial_index": 197}, "uniqueid": "MTK2790:3NGMS9VZTMPMACFSFY1A29UDLSHFFR", "dateTime": 1519337976129}, {"current_trial": 198, "trialdata": {"rt": -1000, "trial_type": "single-audio", "word": "quail", "stimulus": "/static/audio/wordpool/QUAIL.wav", "conditions": [24, 800, "a", 24000], "internal_node_id": "0.0-144.0", "trial": 5, "time_elapsed": 977001, "serialpos": 1, "key_press": -1, "wordID": 1146, "type": "PRES_AUD", "trial_index": 198}, "uniqueid": "MTK2790:3NGMS9VZTMPMACFSFY1A29UDLSHFFR", "dateTime": 1519337978037}, {"current_trial": 199, "trialdata": {"rt": -1000, "trial_type": "single-audio", "word": "orange", "stimulus": "/static/audio/wordpool/ORANGE.wav", "conditions": [24, 800, "a", 24000], "internal_node_id": "0.0-145.0", "trial": 5, "time_elapsed": 978859, "serialpos": 2, "key_press": -1, "wordID": 979, "type": "PRES_AUD", "trial_index": 199}, "uniqueid": "MTK2790:3NGMS9VZTMPMACFSFY1A29UDLSHFFR", "dateTime": 1519337979896}, {"current_trial": 200, "trialdata": {"rt": -1000, "trial_type": "single-audio", "word": "guitar", "stimulus": "/static/audio/wordpool/GUITAR.wav", "conditions": [24, 800, "a", 24000], "internal_node_id": "0.0-146.0", "trial": 5, "time_elapsed": 980665, "serialpos": 3, "key_press": -1, "wordID": 669, "type": "PRES_AUD", "trial_index": 200}, "uniqueid": "MTK2790:3NGMS9VZTMPMACFSFY1A29UDLSHFFR", "dateTime": 1519337981701}, {"current_trial": 201, "trialdata": {"rt": -1000, "trial_type": "single-audio", "word": "velvet", "stimulus": "/static/audio/wordpool/VELVET.wav", "conditions": [24, 800, "a", 24000], "internal_node_id": "0.0-147.0", "trial": 5, "time_elapsed": 982487, "serialpos": 4, "key_press": -1, "wordID": 1554, "type": "PRES_AUD", "trial_index": 201}, "uniqueid": "MTK2790:3NGMS9VZTMPMACFSFY1A29UDLSHFFR", "dateTime": 1519337983523}, {"current_trial": 202, "trialdata": {"rt": -1000, "trial_type": "single-audio", "word": "spouse", "stimulus": "/static/audio/wordpool/SPOUSE.wav", "conditions": [24, 800, "a", 24000], "internal_node_id": "0.0-148.0", "trial": 5, "time_elapsed": 984321, "serialpos": 5, "key_press": -1, "wordID": 1357, "type": "PRES_AUD", "trial_index": 202}, "uniqueid": "MTK2790:3NGMS9VZTMPMACFSFY1A29UDLSHFFR", "dateTime": 1519337985357}, {"current_trial": 203, "trialdata": {"rt": -1000, "trial_type": "single-audio", "word": "drug", "stimulus": "/static/audio/wordpool/DRUG.wav", "conditions": [24, 800, "a", 24000], "internal_node_id": "0.0-149.0", "trial": 5, "time_elapsed": 986074, "serialpos": 6, "key_press": -1, "wordID": 500, "type": "PRES_AUD", "trial_index": 203}, "uniqueid": "MTK2790:3NGMS9VZTMPMACFSFY1A29UDLSHFFR", "dateTime": 1519337987111}, {"current_trial": 204, "trialdata": {"rt": -1000, "trial_type": "single-audio", "word": "turkey", "stimulus": "/static/audio/wordpool/TURKEY.wav", "conditions": [24, 800, "a", 24000], "internal_node_id": "0.0-150.0", "trial": 5, "time_elapsed": 987689, "serialpos": 7, "key_press": -1, "wordID": 1519, "type": "PRES_AUD", "trial_index": 204}, "uniqueid": "MTK2790:3NGMS9VZTMPMACFSFY1A29UDLSHFFR", "dateTime": 1519337988726}, {"current_trial": 205, "trialdata": {"rt": -1000, "trial_type": "single-audio", "word": "lamp", "stimulus": "/static/audio/wordpool/LAMP.wav", "conditions": [24, 800, "a", 24000], "internal_node_id": "0.0-151.0", "trial": 5, "time_elapsed": 989617, "serialpos": 8, "key_press": -1, "wordID": 797, "type": "PRES_AUD", "trial_index": 205}, "uniqueid": "MTK2790:3NGMS9VZTMPMACFSFY1A29UDLSHFFR", "dateTime": 1519337990653}, {"current_trial": 206, "trialdata": {"rt": -1000, "trial_type": "single-audio", "word": "asia", "stimulus": "/static/audio/wordpool/ASIA.wav", "conditions": [24, 800, "a", 24000], "internal_node_id": "0.0-152.0", "trial": 5, "time_elapsed": 991324, "serialpos": 9, "key_press": -1, "wordID": 45, "type": "PRES_AUD", "trial_index": 206}, "uniqueid": "MTK2790:3NGMS9VZTMPMACFSFY1A29UDLSHFFR", "dateTime": 1519337992360}, {"current_trial": 207, "trialdata": {"rt": -1000, "trial_type": "single-audio", "word": "scalpel", "stimulus": "/static/audio/wordpool/SCALPEL.wav", "conditions": [24, 800, "a", 24000], "internal_node_id": "0.0-153.0", "trial": 5, "time_elapsed": 993236, "serialpos": 10, "key_press": -1, "wordID": 1242, "type": "PRES_AUD", "trial_index": 207}, "uniqueid": "MTK2790:3NGMS9VZTMPMACFSFY1A29UDLSHFFR", "dateTime": 1519337994273}, {"current_trial": 208, "trialdata": {"rt": -1000, "trial_type": "single-audio", "word": "razor", "stimulus": "/static/audio/wordpool/RAZOR.wav", "conditions": [24, 800, "a", 24000], "internal_node_id": "0.0-154.0", "trial": 5, "time_elapsed": 994900, "serialpos": 11, "key_press": -1, "wordID": 1170, "type": "PRES_AUD", "trial_index": 208}, "uniqueid": "MTK2790:3NGMS9VZTMPMACFSFY1A29UDLSHFFR", "dateTime": 1519337995936}, {"current_trial": 209, "trialdata": {"rt": -1000, "trial_type": "single-audio", "word": "cook", "stimulus": "/static/audio/wordpool/COOK.wav", "conditions": [24, 800, "a", 24000], "internal_node_id": "0.0-155.0", "trial": 5, "time_elapsed": 996763, "serialpos": 12, "key_press": -1, "wordID": 371, "type": "PRES_AUD", "trial_index": 209}, "uniqueid": "MTK2790:3NGMS9VZTMPMACFSFY1A29UDLSHFFR", "dateTime": 1519337997799}, {"current_trial": 210, "trialdata": {"rt": -1000, "trial_type": "single-audio", "word": "pepper", "stimulus": "/static/audio/wordpool/PEPPER.wav", "conditions": [24, 800, "a", 24000], "internal_node_id": "0.0-156.0", "trial": 5, "time_elapsed": 998594, "serialpos": 13, "key_press": -1, "wordID": 1046, "type": "PRES_AUD", "trial_index": 210}, "uniqueid": "MTK2790:3NGMS9VZTMPMACFSFY1A29UDLSHFFR", "dateTime": 1519337999631}, {"current_trial": 211, "trialdata": {"rt": -1000, "trial_type": "single-audio", "word": "quarter", "stimulus": "/static/audio/wordpool/QUARTER.wav", "conditions": [24, 800, "a", 24000], "internal_node_id": "0.0-157.0", "trial": 5, "time_elapsed": 1000483, "serialpos": 14, "key_press": -1, "wordID": 1147, "type": "PRES_AUD", "trial_index": 211}, "uniqueid": "MTK2790:3NGMS9VZTMPMACFSFY1A29UDLSHFFR", "dateTime": 1519338001519}, {"current_trial": 212, "trialdata": {"rt": -1000, "trial_type": "single-audio", "word": "flower", "stimulus": "/static/audio/wordpool/FLOWER.wav", "conditions": [24, 800, "a", 24000], "internal_node_id": "0.0-158.0", "trial": 5, "time_elapsed": 1002455, "serialpos": 15, "key_press": -1, "wordID": 583, "type": "PRES_AUD", "trial_index": 212}, "uniqueid": "MTK2790:3NGMS9VZTMPMACFSFY1A29UDLSHFFR", "dateTime": 1519338003492}, {"current_trial": 213, "trialdata": {"rt": -1000, "trial_type": "single-audio", "word": "kitchen", "stimulus": "/static/audio/wordpool/KITCHEN.wav", "conditions": [24, 800, "a", 24000], "internal_node_id": "0.0-159.0", "trial": 5, "time_elapsed": 1004254, "serialpos": 16, "key_press": -1, "wordID": 777, "type": "PRES_AUD", "trial_index": 213}, "uniqueid": "MTK2790:3NGMS9VZTMPMACFSFY1A29UDLSHFFR", "dateTime": 1519338005291}, {"current_trial": 214, "trialdata": {"rt": -1000, "trial_type": "single-audio", "word": "fireplace", "stimulus": "/static/audio/wordpool/FIREPLACE.wav", "conditions": [24, 800, "a", 24000], "internal_node_id": "0.0-160.0", "trial": 5, "time_elapsed": 1005892, "serialpos": 17, "key_press": -1, "wordID": 569, "type": "PRES_AUD", "trial_index": 214}, "uniqueid": "MTK2790:3NGMS9VZTMPMACFSFY1A29UDLSHFFR", "dateTime": 1519338006928}, {"current_trial": 215, "trialdata": {"rt": -1000, "trial_type": "single-audio", "word": "turnip", "stimulus": "/static/audio/wordpool/TURNIP.wav", "conditions": [24, 800, "a", 24000], "internal_node_id": "0.0-161.0", "trial": 5, "time_elapsed": 1007763, "serialpos": 18, "key_press": -1, "wordID": 1520, "type": "PRES_AUD", "trial_index": 215}, "uniqueid": "MTK2790:3NGMS9VZTMPMACFSFY1A29UDLSHFFR", "dateTime": 1519338008799}, {"current_trial": 216, "trialdata": {"rt": -1000, "trial_type": "single-audio", "word": "tart", "stimulus": "/static/audio/wordpool/TART.wav", "conditions": [24, 800, "a", 24000], "internal_node_id": "0.0-162.0", "trial": 5, "time_elapsed": 1009364, "serialpos": 19, "key_press": -1, "wordID": 1435, "type": "PRES_AUD", "trial_index": 216}, "uniqueid": "MTK2790:3NGMS9VZTMPMACFSFY1A29UDLSHFFR", "dateTime": 1519338010400}, {"current_trial": 217, "trialdata": {"rt": -1000, "trial_type": "single-audio", "word": "softball", "stimulus": "/static/audio/wordpool/SOFTBALL.wav", "conditions": [24, 800, "a", 24000], "internal_node_id": "0.0-163.0", "trial": 5, "time_elapsed": 1011248, "serialpos": 20, "key_press": -1, "wordID": 1342, "type": "PRES_AUD", "trial_index": 217}, "uniqueid": "MTK2790:3NGMS9VZTMPMACFSFY1A29UDLSHFFR", "dateTime": 1519338012284}, {"current_trial": 218, "trialdata": {"rt": -1000, "trial_type": "single-audio", "word": "yacht", "stimulus": "/static/audio/wordpool/YACHT.wav", "conditions": [24, 800, "a", 24000], "internal_node_id": "0.0-164.0", "trial": 5, "time_elapsed": 1012993, "serialpos": 21, "key_press": -1, "wordID": 1628, "type": "PRES_AUD", "trial_index": 218}, "uniqueid": "MTK2790:3NGMS9VZTMPMACFSFY1A29UDLSHFFR", "dateTime": 1519338014030}, {"current_trial": 219, "trialdata": {"rt": -1000, "trial_type": "single-audio", "word": "spider", "stimulus": "/static/audio/wordpool/SPIDER.wav", "conditions": [24, 800, "a", 24000], "internal_node_id": "0.0-165.0", "trial": 5, "time_elapsed": 1014690, "serialpos": 22, "key_press": -1, "wordID": 1350, "type": "PRES_AUD", "trial_index": 219}, "uniqueid": "MTK2790:3NGMS9VZTMPMACFSFY1A29UDLSHFFR", "dateTime": 1519338015727}, {"current_trial": 220, "trialdata": {"rt": -1000, "trial_type": "single-audio", "word": "wasp", "stimulus": "/static/audio/wordpool/WASP.wav", "conditions": [24, 800, "a", 24000], "internal_node_id": "0.0-166.0", "trial": 5, "time_elapsed": 1016452, "serialpos": 23, "key_press": -1, "wordID": 1592, "type": "PRES_AUD", "trial_index": 220}, "uniqueid": "MTK2790:3NGMS9VZTMPMACFSFY1A29UDLSHFFR", "dateTime": 1519338017488}, {"current_trial": 221, "trialdata": {"rt": -1, "trial_type": "single-stim", "stimulus": "", "internal_node_id": "0.0-167.0-0.0", "time_elapsed": 1017693, "key_press": -1, "type": "PRE_RECALL_DELAY", "trial_index": 221}, "uniqueid": "MTK2790:3NGMS9VZTMPMACFSFY1A29UDLSHFFR", "dateTime": 1519338018730}, {"current_trial": 222, "trialdata": {"rt": -1000, "trial_type": "single-audio", "stimulus": "/static/audio/400Hz.wav", "internal_node_id": "0.0-168.0", "time_elapsed": 1018195, "key_press": -1, "type": "PRE_RECALL_ALERT", "trial_index": 222}, "uniqueid": "MTK2790:3NGMS9VZTMPMACFSFY1A29UDLSHFFR", "dateTime": 1519338019232}, {"current_trial": 223, "trialdata": {"rt": [3207, 4999, 7623, 9968, 12759, 15136, 17144, 33551, 39784, 45447], "recwords": ["muffin", "orange", "guitar", "kitchen", "yacht", "spider", "wasp", "turkey", "quail", "softball"], "key_times": [1385, 1674, 2113, 2273, 2600, 2721, 3207, 3688, 3953, 4201, 4313, 4521, 4625, 4999, 5833, 6113, 6304, 6393, 6633, 6904, 7623, 8128, 8336, 8528, 8753, 8874, 9431, 9553, 9968, 10681, 10833, 11177, 11442, 11713, 12759, 13593, 13777, 14001, 14113, 14329, 14497, 15136, 15809, 16017, 16209, 16433, 17144, 20601, 21002, 21313, 21514, 21602, 22049, 22217, 22393, 22545, 22785, 23473, 24025, 24433, 24609, 25170, 25489, 26161, 26257, 26817, 26977, 27161, 27913, 28009, 28505, 28674, 28825, 29649, 29913, 30073, 30801, 30977, 31145, 31313, 31521, 32417, 32641, 32785, 32897, 33041, 33313, 33551, 35617, 36369, 36689, 37529, 37713, 38001, 38329, 38721, 39057, 39784, 42497, 42657, 42937, 43193, 43961, 44177, 44353, 44553, 45447], "trial_type": "free-recall", "conditions": [24, 800, "a", 24000], "internal_node_id": "0.0-169.0-0.0", "key_presses": [77, 85, 70, 70, 73, 78, 13, 79, 82, 65, 78, 71, 69, 13, 71, 85, 73, 84, 65, 82, 13, 75, 73, 84, 67, 72, 69, 78, 13, 89, 65, 67, 72, 84, 13, 83, 80, 73, 68, 69, 82, 13, 87, 65, 83, 80, 13, 81, 85, 73, 65, 76, 8, 8, 8, 8, 65, 8, 85, 8, 73, 8, 85, 65, 76, 8, 8, 73, 65, 76, 8, 8, 8, 73, 65, 76, 8, 8, 8, 8, 8, 84, 85, 82, 75, 69, 89, 13, 81, 65, 85, 8, 8, 85, 65, 73, 76, 13, 83, 79, 70, 84, 66, 65, 76, 76, 13], "trial": 5, "time_elapsed": 1078200, "type": "FREE_RECALL", "trial_index": 223}, "uniqueid": "MTK2790:3NGMS9VZTMPMACFSFY1A29UDLSHFFR", "dateTime": 1519338079244}, {"current_trial": 224, "trialdata": {"rt": 1382, "trial_type": "text", "internal_node_id": "0.0-170.0", "time_elapsed": 1081592, "key_press": 32, "type": "INSTRUCTIONS", "trial_index": 224}, "uniqueid": "MTK2790:3NGMS9VZTMPMACFSFY1A29UDLSHFFR", "dateTime": 1519338082628}, {"current_trial": 225, "trialdata": {"rt": [4444, 10364, 15308, 20700], "trial_type": "math-distractor", "key_times": [3661, 3853, 4444, 9901, 9997, 10364, 14669, 14813, 15308, 20237, 20389, 20700, 23669, 23789], "responses": ["14", "21", "16", "22"], "num2": [6, 9, 5, 8, 1], "num3": [7, 5, 4, 5, 6], "conditions": [24, 1600, "a", 24000], "internal_node_id": "0.0-171.0", "key_presses": [97, 100, 13, 98, 97, 13, 97, 102, 13, 98, 98, 13, 97, 101], "trial": 6, "time_elapsed": 1107596, "type": "DISTRACTOR", "trial_index": 225, "num1": [1, 7, 7, 9, 8]}, "uniqueid": "MTK2790:3NGMS9VZTMPMACFSFY1A29UDLSHFFR", "dateTime": 1519338108633}, {"current_trial": 226, "trialdata": {"rt": -1, "trial_type": "single-stim", "stimulus": "<p id=\"stim\">10</p>", "internal_node_id": "0.0-172.0-0.0", "time_elapsed": 1110599, "key_press": -1, "trial_index": 226}, "uniqueid": "MTK2790:3NGMS9VZTMPMACFSFY1A29UDLSHFFR", "dateTime": 1519338111636}, {"current_trial": 227, "trialdata": {"rt": -1, "trial_type": "single-stim", "stimulus": "<p id=\"stim\">9</p>", "internal_node_id": "0.0-172.0-1.0", "time_elapsed": 1111601, "key_press": -1, "trial_index": 227}, "uniqueid": "MTK2790:3NGMS9VZTMPMACFSFY1A29UDLSHFFR", "dateTime": 1519338112637}, {"current_trial": 228, "trialdata": {"rt": -1, "trial_type": "single-stim", "stimulus": "<p id=\"stim\">8</p>", "internal_node_id": "0.0-172.0-2.0", "time_elapsed": 1112603, "key_press": -1, "trial_index": 228}, "uniqueid": "MTK2790:3NGMS9VZTMPMACFSFY1A29UDLSHFFR", "dateTime": 1519338113639}, {"current_trial": 229, "trialdata": {"rt": -1, "trial_type": "single-stim", "stimulus": "<p id=\"stim\">7</p>", "internal_node_id": "0.0-172.0-3.0", "time_elapsed": 1113605, "key_press": -1, "trial_index": 229}, "uniqueid": "MTK2790:3NGMS9VZTMPMACFSFY1A29UDLSHFFR", "dateTime": 1519338114642}, {"current_trial": 230, "trialdata": {"rt": -1, "trial_type": "single-stim", "stimulus": "<p id=\"stim\">6</p>", "internal_node_id": "0.0-172.0-4.0", "time_elapsed": 1114607, "key_press": -1, "trial_index": 230}, "uniqueid": "MTK2790:3NGMS9VZTMPMACFSFY1A29UDLSHFFR", "dateTime": 1519338115643}, {"current_trial": 231, "trialdata": {"rt": -1, "trial_type": "single-stim", "stimulus": "<p id=\"stim\">5</p>", "internal_node_id": "0.0-172.0-5.0", "time_elapsed": 1115609, "key_press": -1, "trial_index": 231}, "uniqueid": "MTK2790:3NGMS9VZTMPMACFSFY1A29UDLSHFFR", "dateTime": 1519338116646}, {"current_trial": 232, "trialdata": {"rt": -1, "trial_type": "single-stim", "stimulus": "<p id=\"stim\">4</p>", "internal_node_id": "0.0-172.0-6.0", "time_elapsed": 1116611, "key_press": -1, "trial_index": 232}, "uniqueid": "MTK2790:3NGMS9VZTMPMACFSFY1A29UDLSHFFR", "dateTime": 1519338117648}, {"current_trial": 233, "trialdata": {"rt": -1, "trial_type": "single-stim", "stimulus": "<p id=\"stim\">3</p>", "internal_node_id": "0.0-172.0-7.0", "time_elapsed": 1117613, "key_press": -1, "trial_index": 233}, "uniqueid": "MTK2790:3NGMS9VZTMPMACFSFY1A29UDLSHFFR", "dateTime": 1519338118649}, {"current_trial": 234, "trialdata": {"rt": -1, "trial_type": "single-stim", "stimulus": "<p id=\"stim\">2</p>", "internal_node_id": "0.0-172.0-8.0", "time_elapsed": 1118615, "key_press": -1, "trial_index": 234}, "uniqueid": "MTK2790:3NGMS9VZTMPMACFSFY1A29UDLSHFFR", "dateTime": 1519338119651}, {"current_trial": 235, "trialdata": {"rt": -1, "trial_type": "single-stim", "stimulus": "<p id=\"stim\">1</p>", "internal_node_id": "0.0-172.0-9.0", "time_elapsed": 1119616, "key_press": -1, "trial_index": 235}, "uniqueid": "MTK2790:3NGMS9VZTMPMACFSFY1A29UDLSHFFR", "dateTime": 1519338120653}, {"current_trial": 236, "trialdata": {"rt": -1, "trial_type": "single-stim", "stimulus": "<p id=\"stim\">+</p>", "internal_node_id": "0.0-173.0-0.0", "time_elapsed": 1121118, "key_press": -1, "type": "FIXATION", "trial_index": 236}, "uniqueid": "MTK2790:3NGMS9VZTMPMACFSFY1A29UDLSHFFR", "dateTime": 1519338122155}, {"current_trial": 237, "trialdata": {"rt": -1000, "trial_type": "single-audio", "word": "robin", "stimulus": "/static/audio/wordpool/ROBIN.wav", "conditions": [24, 1600, "a", 24000], "internal_node_id": "0.0-174.0", "trial": 6, "time_elapsed": 1123555, "serialpos": 0, "key_press": -1, "wordID": 1198, "type": "PRES_AUD", "trial_index": 237}, "uniqueid": "MTK2790:3NGMS9VZTMPMACFSFY1A29UDLSHFFR", "dateTime": 1519338124591}, {"current_trial": 238, "trialdata": {"rt": -1000, "trial_type": "single-audio", "word": "whiskers", "stimulus": "/static/audio/wordpool/WHISKERS.wav", "conditions": [24, 1600, "a", 24000], "internal_node_id": "0.0-175.0", "trial": 6, "time_elapsed": 1125998, "serialpos": 1, "key_press": -1, "wordID": 1604, "type": "PRES_AUD", "trial_index": 238}, "uniqueid": "MTK2790:3NGMS9VZTMPMACFSFY1A29UDLSHFFR", "dateTime": 1519338127034}, {"current_trial": 239, "trialdata": {"rt": -1000, "trial_type": "single-audio", "word": "camel", "stimulus": "/static/audio/wordpool/CAMEL.wav", "conditions": [24, 1600, "a", 24000], "internal_node_id": "0.0-176.0", "trial": 6, "time_elapsed": 1128525, "serialpos": 2, "key_press": -1, "wordID": 222, "type": "PRES_AUD", "trial_index": 239}, "uniqueid": "MTK2790:3NGMS9VZTMPMACFSFY1A29UDLSHFFR", "dateTime": 1519338129562}, {"current_trial": 240, "trialdata": {"rt": -1000, "trial_type": "single-audio", "word": "cigar", "stimulus": "/static/audio/wordpool/CIGAR.wav", "conditions": [24, 1600, "a", 24000], "internal_node_id": "0.0-177.0", "trial": 6, "time_elapsed": 1131206, "serialpos": 3, "key_press": -1, "wordID": 307, "type": "PRES_AUD", "trial_index": 240}, "uniqueid": "MTK2790:3NGMS9VZTMPMACFSFY1A29UDLSHFFR", "dateTime": 1519338132242}, {"current_trial": 241, "trialdata": {"rt": -1000, "trial_type": "single-audio", "word": "valley", "stimulus": "/static/audio/wordpool/VALLEY.wav", "conditions": [24, 1600, "a", 24000], "internal_node_id": "0.0-178.0", "trial": 6, "time_elapsed": 1133668, "serialpos": 4, "key_press": -1, "wordID": 1544, "type": "PRES_AUD", "trial_index": 241}, "uniqueid": "MTK2790:3NGMS9VZTMPMACFSFY1A29UDLSHFFR", "dateTime": 1519338134705}, {"current_trial": 242, "trialdata": {"rt": -1000, "trial_type": "single-audio", "word": "gymnast", "stimulus": "/static/audio/wordpool/GYMNAST.wav", "conditions": [24, 1600, "a", 24000], "internal_node_id": "0.0-179.0", "trial": 6, "time_elapsed": 1136416, "serialpos": 5, "key_press": -1, "wordID": 674, "type": "PRES_AUD", "trial_index": 242}, "uniqueid": "MTK2790:3NGMS9VZTMPMACFSFY1A29UDLSHFFR", "dateTime": 1519338137454}, {"current_trial": 243, "trialdata": {"rt": -1000, "trial_type": "single-audio", "word": "dancer", "stimulus": "/static/audio/wordpool/DANCER.wav", "conditions": [24, 1600, "a", 24000], "internal_node_id": "0.0-180.0", "trial": 6, "time_elapsed": 1139181, "serialpos": 6, "key_press": -1, "wordID": 436, "type": "PRES_AUD", "trial_index": 243}, "uniqueid": "MTK2790:3NGMS9VZTMPMACFSFY1A29UDLSHFFR", "dateTime": 1519338140217}, {"current_trial": 244, "trialdata": {"rt": -1000, "trial_type": "single-audio", "word": "county", "stimulus": "/static/audio/wordpool/COUNTY.wav", "conditions": [24, 1600, "a", 24000], "internal_node_id": "0.0-181.0", "trial": 6, "time_elapsed": 1141789, "serialpos": 7, "key_press": -1, "wordID": 388, "type": "PRES_AUD", "trial_index": 244}, "uniqueid": "MTK2790:3NGMS9VZTMPMACFSFY1A29UDLSHFFR", "dateTime": 1519338142825}, {"current_trial": 245, "trialdata": {"rt": -1000, "trial_type": "single-audio", "word": "sparrow", "stimulus": "/static/audio/wordpool/SPARROW.wav", "conditions": [24, 1600, "a", 24000], "internal_node_id": "0.0-182.0", "trial": 6, "time_elapsed": 1144278, "serialpos": 8, "key_press": -1, "wordID": 1346, "type": "PRES_AUD", "trial_index": 245}, "uniqueid": "MTK2790:3NGMS9VZTMPMACFSFY1A29UDLSHFFR", "dateTime": 1519338145314}, {"current_trial": 246, "trialdata": {"rt": -1000, "trial_type": "single-audio", "word": "clothes", "stimulus": "/static/audio/wordpool/CLOTHES.wav", "conditions": [24, 1600, "a", 24000], "internal_node_id": "0.0-183.0", "trial": 6, "time_elapsed": 1146719, "serialpos": 9, "key_press": -1, "wordID": 326, "type": "PRES_AUD", "trial_index": 246}, "uniqueid": "MTK2790:3NGMS9VZTMPMACFSFY1A29UDLSHFFR", "dateTime": 1519338147756}, {"current_trial": 247, "trialdata": {"rt": -1000, "trial_type": "single-audio", "word": "lapel", "stimulus": "/static/audio/wordpool/LAPEL.wav", "conditions": [24, 1600, "a", 24000], "internal_n