{"assignmentId": "30LB5CDZNDH1IPR2DSCW2UNRPY9Z0M", "workerId": "MTK2351", "questiondata": {"avail_screen_height": 744, "color_depth": 24, "screen_width": 1366, "pixel_depth": 24, "avail_screen_width": 1366, "screen_height": 768}, "bonus": 0, "hitId": "3NKW03WTLMEJP3T2T1H2TCO724GWQI", "counterbalance": 821, "useragent": "Mozilla/5.0 (X11; Ubuntu; Linux x86_64; rv:58.0) Gecko/20100101 Firefox/58.0", "eventdata": [{"eventtype": "initialized", "interval": 0, "value": null, "timestamp": 1516993757352}, {"eventtype": "window_resize", "interval": 1, "value": [1366, 707], "timestamp": 1516993757353}, {"eventtype": "focus", "interval": 11471, "value": "off", "timestamp": 1516993768824}, {"eventtype": "focus", "interval": 1513, "value": "on", "timestamp": 1516993770337}, {"eventtype": "focus", "interval": 11982, "value": "off", "timestamp": 1516993782319}, {"eventtype": "focus", "interval": 738, "value": "on", "timestamp": 1516993783057}, {"eventtype": "focus", "interval": 2469, "value": "off", "timestamp": 1516993785526}, {"eventtype": "focus", "interval": 832, "value": "on", "timestamp": 1516993786358}, {"eventtype": "focus", "interval": 788, "value": "off", "timestamp": 1516993787146}, {"eventtype": "focus", "interval": 2879, "value": "on", "timestamp": 1516993790025}, {"eventtype": "focus", "interval": 10290, "value": "off", "timestamp": 1516993800315}, {"eventtype": "focus", "interval": 2645, "value": "on", "timestamp": 1516993802960}, {"eventtype": "focus", "interval": 4085, "value": "off", "timestamp": 1516993807045}, {"eventtype": "focus", "interval": 1, "value": "on", "timestamp": 1516993807046}, {"eventtype": "focus", "interval": 12335, "value": "off", "timestamp": 1516993819381}, {"eventtype": "focus", "interval": 6, "value": "on", "timestamp": 1516993819387}, {"eventtype": "focus", "interval": 14838, "value": "off", "timestamp": 1516993834225}, {"eventtype": "focus", "interval": 18, "value": "on", "timestamp": 1516993834243}, {"eventtype": "focus", "interval": 59, "value": "off", "timestamp": 1516993834302}, {"eventtype": "focus", "interval": 111, "value": "on", "timestamp": 1516993834413}, {"eventtype": "focus", "interval": 9, "value": "off", "timestamp": 1516993834422}, {"eventtype": "focus", "interval": 10449, "value": "on", "timestamp": 1516993844871}, {"eventtype": "focus", "interval": 43751, "value": "off", "timestamp": 1516993888622}, {"eventtype": "focus", "interval": 2895, "value": "on", "timestamp": 1516993891517}, {"eventtype": "focus", "interval": 6722, "value": "off", "timestamp": 1516993898239}, {"eventtype": "focus", "interval": 1, "value": "on", "timestamp": 1516993898240}, {"eventtype": "window_resize", "interval": 1721779, "value": [1366, 679], "timestamp": 1516995620019}, {"eventtype": "focus", "interval": 19933, "value": "off", "timestamp": 1516995639952}, {"eventtype": "focus", "interval": 7159, "value": "on", "timestamp": 1516995647111}, {"eventtype": "focus", "interval": 273392, "value": "off", "timestamp": 1516995920503}, {"eventtype": "focus", "interval": 11773, "value": "on", "timestamp": 1516995932276}, {"eventtype": "focus", "interval": 683, "value": "off", "timestamp": 1516995932959}, {"eventtype": "focus", "interval": 8, "value": "on", "timestamp": 1516995932967}, {"eventtype": "focus", "interval": 72, "value": "off", "timestamp": 1516995933039}, {"eventtype": "focus", "interval": 87, "value": "on", "timestamp": 1516995933126}, {"eventtype": "focus", "interval": 6, "value": "off", "timestamp": 1516995933132}, {"eventtype": "focus", "interval": 12087, "value": "on", "timestamp": 1516995945219}], "data": [{"current_trial": 0, "trialdata": {"rt": 2544, "trial_type": "text", "internal_node_id": "0.0-0.0", "time_elapsed": 2548, "key_press": 13, "type": "INSTRUCTIONS", "trial_index": 0}, "uniqueid": "MTK2351:30LB5CDZNDH1IPR2DSCW2UNRPY9Z0M", "dateTime": 1516993760367}, {"current_trial": 1, "trialdata": {"rt": 5688, "trial_type": "text", "internal_node_id": "0.0-1.0", "time_elapsed": 8241, "key_press": 13, "type": "INSTRUCTIONS", "trial_index": 1}, "uniqueid": "MTK2351:30LB5CDZNDH1IPR2DSCW2UNRPY9Z0M", "dateTime": 1516993766059}, {"current_trial": 2, "trialdata": {"rt": [26207], "trial_type": "audio-test", "responses": ["ocean"], "internal_node_id": "0.0-2.0", "time_elapsed": 34482, "type": "AUDIO_TEST", "trial_index": 2}, "uniqueid": "MTK2351:30LB5CDZNDH1IPR2DSCW2UNRPY9Z0M", "dateTime": 1516993792301}, {"current_trial": 3, "trialdata": {"rt": [12080, 24925, 54354], "trial_type": "audio-test", "responses": ["crystel", "crystol", "crystal"], "internal_node_id": "0.0-3.0", "time_elapsed": 88854, "type": "AUDIO_TEST", "trial_index": 3}, "uniqueid": "MTK2351:30LB5CDZNDH1IPR2DSCW2UNRPY9Z0M", "dateTime": 1516993846673}, {"current_trial": 4, "trialdata": {"rt": [8869], "trial_type": "audio-test", "responses": ["spice"], "internal_node_id": "0.0-4.0", "time_elapsed": 97739, "type": "AUDIO_TEST", "trial_index": 4}, "uniqueid": "MTK2351:30LB5CDZNDH1IPR2DSCW2UNRPY9Z0M", "dateTime": 1516993855558}, {"current_trial": 5, "trialdata": {"rt": 28841, "trial_type": "survey-text", "responses": "{\"Q0\":\"10:05\",\"Q1\":\"5:00\",\"Q2\":\"5\"}", "internal_node_id": "0.0-5.0", "time_elapsed": 127338, "type": "SLEEP_SURVEY", "trial_index": 5}, "uniqueid": "MTK2351:30LB5CDZNDH1IPR2DSCW2UNRPY9Z0M", "dateTime": 1516993885158}, {"current_trial": 6, "trialdata": {"rt": 2451, "trial_type": "text", "internal_node_id": "0.0-6.0", "time_elapsed": 130796, "key_press": 9, "type": "INSTRUCTIONS", "trial_index": 6}, "uniqueid": "MTK2351:30LB5CDZNDH1IPR2DSCW2UNRPY9Z0M", "dateTime": 1516993888615}, {"current_trial": 7, "trialdata": {"rt": 18509, "trial_type": "text", "internal_node_id": "0.0-7.0", "time_elapsed": 149809, "key_press": 13, "type": "INSTRUCTIONS", "trial_index": 7}, "uniqueid": "MTK2351:30LB5CDZNDH1IPR2DSCW2UNRPY9Z0M", "dateTime": 1516993907628}, {"current_trial": 8, "trialdata": {"rt": 1543, "trial_type": "text", "internal_node_id": "0.0-8.0", "time_elapsed": 151856, "key_press": 13, "type": "INSTRUCTIONS", "trial_index": 8}, "uniqueid": "MTK2351:30LB5CDZNDH1IPR2DSCW2UNRPY9Z0M", "dateTime": 1516993909674}, {"current_trial": 9, "trialdata": {"rt": [7010, 10176, 13603], "trial_type": "math-distractor", "key_times": [4349, 4547, 7010, 9382, 9496, 10176, 12805, 12885, 13603, 17902], "responses": ["18", "16", "16"], "num2": [4, 6, 7, 3], "num3": [7, 5, 7, 5], "conditions": [18, 1200, "v", 18000], "internal_node_id": "0.0-9.0", "key_presses": [97, 104, 13, 97, 102, 13, 97, 102, 13, 97], "trial": 0, "time_elapsed": 170868, "type": "DISTRACTOR", "trial_index": 9, "num1": [7, 5, 2, 3]}, "uniqueid": "MTK2351:30LB5CDZNDH1IPR2DSCW2UNRPY9Z0M", "dateTime": 1516993928686}, {"current_trial": 10, "trialdata": {"rt": -1, "trial_type": "single-stim", "stimulus": "<p id=\"stim\">10</p>", "internal_node_id": "0.0-10.0-0.0", "time_elapsed": 173873, "key_press": -1, "trial_index": 10}, "uniqueid": "MTK2351:30LB5CDZNDH1IPR2DSCW2UNRPY9Z0M", "dateTime": 1516993931692}, {"current_trial": 11, "trialdata": {"rt": -1, "trial_type": "single-stim", "stimulus": "<p id=\"stim\">9</p>", "internal_node_id": "0.0-10.0-1.0", "time_elapsed": 174876, "key_press": -1, "trial_index": 11}, "uniqueid": "MTK2351:30LB5CDZNDH1IPR2DSCW2UNRPY9Z0M", "dateTime": 1516993932695}, {"current_trial": 12, "trialdata": {"rt": -1, "trial_type": "single-stim", "stimulus": "<p id=\"stim\">8</p>", "internal_node_id": "0.0-10.0-2.0", "time_elapsed": 175878, "key_press": -1, "trial_index": 12}, "uniqueid": "MTK2351:30LB5CDZNDH1IPR2DSCW2UNRPY9Z0M", "dateTime": 1516993933697}, {"current_trial": 13, "trialdata": {"rt": -1, "trial_type": "single-stim", "stimulus": "<p id=\"stim\">7</p>", "internal_node_id": "0.0-10.0-3.0", "time_elapsed": 176880, "key_press": -1, "trial_index": 13}, "uniqueid": "MTK2351:30LB5CDZNDH1IPR2DSCW2UNRPY9Z0M", "dateTime": 1516993934699}, {"current_trial": 14, "trialdata": {"rt": -1, "trial_type": "single-stim", "stimulus": "<p id=\"stim\">6</p>", "internal_node_id": "0.0-10.0-4.0", "time_elapsed": 177882, "key_press": -1, "trial_index": 14}, "uniqueid": "MTK2351:30LB5CDZNDH1IPR2DSCW2UNRPY9Z0M", "dateTime": 1516993935700}, {"current_trial": 15, "trialdata": {"rt": -1, "trial_type": "single-stim", "stimulus": "<p id=\"stim\">5</p>", "internal_node_id": "0.0-10.0-5.0", "time_elapsed": 178885, "key_press": -1, "trial_index": 15}, "uniqueid": "MTK2351:30LB5CDZNDH1IPR2DSCW2UNRPY9Z0M", "dateTime": 1516993936704}, {"current_trial": 16, "trialdata": {"rt": -1, "trial_type": "single-stim", "stimulus": "<p id=\"stim\">4</p>", "internal_node_id": "0.0-10.0-6.0", "time_elapsed": 179888, "key_press": -1, "trial_index": 16}, "uniqueid": "MTK2351:30LB5CDZNDH1IPR2DSCW2UNRPY9Z0M", "dateTime": 1516993937707}, {"current_trial": 17, "trialdata": {"rt": -1, "trial_type": "single-stim", "stimulus": "<p id=\"stim\">3</p>", "internal_node_id": "0.0-10.0-7.0", "time_elapsed": 180891, "key_press": -1, "trial_index": 17}, "uniqueid": "MTK2351:30LB5CDZNDH1IPR2DSCW2UNRPY9Z0M", "dateTime": 1516993938709}, {"current_trial": 18, "trialdata": {"rt": -1, "trial_type": "single-stim", "stimulus": "<p id=\"stim\">2</p>", "internal_node_id": "0.0-10.0-8.0", "time_elapsed": 181892, "key_press": -1, "trial_index": 18}, "uniqueid": "MTK2351:30LB5CDZNDH1IPR2DSCW2UNRPY9Z0M", "dateTime": 1516993939710}, {"current_trial": 19, "trialdata": {"rt": -1, "trial_type": "single-stim", "stimulus": "<p id=\"stim\">1</p>", "internal_node_id": "0.0-10.0-9.0", "time_elapsed": 182893, "key_press": -1, "trial_index": 19}, "uniqueid": "MTK2351:30LB5CDZNDH1IPR2DSCW2UNRPY9Z0M", "dateTime": 1516993940712}, {"current_trial": 20, "trialdata": {"rt": -1, "trial_type": "single-stim", "stimulus": "<p id=\"stim\">+</p>", "internal_node_id": "0.0-11.0-0.0", "time_elapsed": 184396, "key_press": -1, "type": "FIXATION", "trial_index": 20}, "uniqueid": "MTK2351:30LB5CDZNDH1IPR2DSCW2UNRPY9Z0M", "dateTime": 1516993942215}, {"current_trial": 21, "trialdata": {"rt": -1, "trial_type": "single-stim", "word": "oyster", "stimulus": "<p id=\"stim\">OYSTER</p>", "conditions": [18, 1200, "v", 18000], "internal_node_id": "0.0-12.0", "trial": 0, "time_elapsed": 185598, "serialpos": 0, "key_press": -1, "wordID": 994, "type": "PRES_VIS", "trial_index": 21}, "uniqueid": "MTK2351:30LB5CDZNDH1IPR2DSCW2UNRPY9Z0M", "dateTime": 1516993943417}, {"current_trial": 22, "trialdata": {"rt": -1, "trial_type": "single-stim", "word": "spider", "stimulus": "<p id=\"stim\">SPIDER</p>", "conditions": [18, 1200, "v", 18000], "internal_node_id": "0.0-13.0", "trial": 0, "time_elapsed": 187632, "serialpos": 1, "key_press": -1, "wordID": 1350, "type": "PRES_VIS", "trial_index": 22}, "uniqueid": "MTK2351:30LB5CDZNDH1IPR2DSCW2UNRPY9Z0M", "dateTime": 1516993945451}, {"current_trial": 23, "trialdata": {"rt": -1, "trial_type": "single-stim", "word": "stove", "stimulus": "<p id=\"stim\">STOVE</p>", "conditions": [18, 1200, "v", 18000], "internal_node_id": "0.0-14.0", "trial": 0, "time_elapsed": 189793, "serialpos": 2, "key_press": -1, "wordID": 1387, "type": "PRES_VIS", "trial_index": 23}, "uniqueid": "MTK2351:30LB5CDZNDH1IPR2DSCW2UNRPY9Z0M", "dateTime": 1516993947612}, {"current_trial": 24, "trialdata": {"rt": -1, "trial_type": "single-stim", "word": "keeper", "stimulus": "<p id=\"stim\">KEEPER</p>", "conditions": [18, 1200, "v", 18000], "internal_node_id": "0.0-15.0", "trial": 0, "time_elapsed": 192102, "serialpos": 3, "key_press": -1, "wordID": 768, "type": "PRES_VIS", "trial_index": 24}, "uniqueid": "MTK2351:30LB5CDZNDH1IPR2DSCW2UNRPY9Z0M", "dateTime": 1516993949921}, {"current_trial": 25, "trialdata": {"rt": -1, "trial_type": "single-stim", "word": "powder", "stimulus": "<p id=\"stim\">POWDER</p>", "conditions": [18, 1200, "v", 18000], "internal_node_id": "0.0-16.0", "trial": 0, "time_elapsed": 194169, "serialpos": 4, "key_press": -1, "wordID": 1116, "type": "PRES_VIS", "trial_index": 25}, "uniqueid": "MTK2351:30LB5CDZNDH1IPR2DSCW2UNRPY9Z0M", "dateTime": 1516993951988}, {"current_trial": 26, "trialdata": {"rt": -1, "trial_type": "single-stim", "word": "hiker", "stimulus": "<p id=\"stim\">HIKER</p>", "conditions": [18, 1200, "v", 18000], "internal_node_id": "0.0-17.0", "trial": 0, "time_elapsed": 196247, "serialpos": 5, "key_press": -1, "wordID": 707, "type": "PRES_VIS", "trial_index": 26}, "uniqueid": "MTK2351:30LB5CDZNDH1IPR2DSCW2UNRPY9Z0M", "dateTime": 1516993954065}, {"current_trial": 27, "trialdata": {"rt": -1, "trial_type": "single-stim", "word": "harp", "stimulus": "<p id=\"stim\">HARP</p>", "conditions": [18, 1200, "v", 18000], "internal_node_id": "0.0-18.0", "trial": 0, "time_elapsed": 198339, "serialpos": 6, "key_press": -1, "wordID": 688, "type": "PRES_VIS", "trial_index": 27}, "uniqueid": "MTK2351:30LB5CDZNDH1IPR2DSCW2UNRPY9Z0M", "dateTime": 1516993956158}, {"current_trial": 28, "trialdata": {"rt": -1, "trial_type": "single-stim", "word": "sidewalk", "stimulus": "<p id=\"stim\">SIDEWALK</p>", "conditions": [18, 1200, "v", 18000], "internal_node_id": "0.0-19.0", "trial": 0, "time_elapsed": 200568, "serialpos": 7, "key_press": -1, "wordID": 1302, "type": "PRES_VIS", "trial_index": 28}, "uniqueid": "MTK2351:30LB5CDZNDH1IPR2DSCW2UNRPY9Z0M", "dateTime": 1516993958386}, {"current_trial": 29, "trialdata": {"rt": -1, "trial_type": "single-stim", "word": "parsley", "stimulus": "<p id=\"stim\">PARSLEY</p>", "conditions": [18, 1200, "v", 18000], "internal_node_id": "0.0-20.0", "trial": 0, "time_elapsed": 202630, "serialpos": 8, "key_press": -1, "wordID": 1015, "type": "PRES_VIS", "trial_index": 29}, "uniqueid": "MTK2351:30LB5CDZNDH1IPR2DSCW2UNRPY9Z0M", "dateTime": 1516993960448}, {"current_trial": 30, "trialdata": {"rt": -1, "trial_type": "single-stim", "word": "typist", "stimulus": "<p id=\"stim\">TYPIST</p>", "conditions": [18, 1200, "v", 18000], "internal_node_id": "0.0-21.0", "trial": 0, "time_elapsed": 204772, "serialpos": 9, "key_press": -1, "wordID": 1531, "type": "PRES_VIS", "trial_index": 30}, "uniqueid": "MTK2351:30LB5CDZNDH1IPR2DSCW2UNRPY9Z0M", "dateTime": 1516993962592}, {"current_trial": 31, "trialdata": {"rt": -1, "trial_type": "single-stim", "word": "yacht", "stimulus": "<p id=\"stim\">YACHT</p>", "conditions": [18, 1200, "v", 18000], "internal_node_id": "0.0-22.0", "trial": 0, "time_elapsed": 207020, "serialpos": 10, "key_press": -1, "wordID": 1628, "type": "PRES_VIS", "trial_index": 31}, "uniqueid": "MTK2351:30LB5CDZNDH1IPR2DSCW2UNRPY9Z0M", "dateTime": 1516993964839}, {"current_trial": 32, "trialdata": {"rt": -1, "trial_type": "single-stim", "word": "contract", "stimulus": "<p id=\"stim\">CONTRACT</p>", "conditions": [18, 1200, "v", 18000], "internal_node_id": "0.0-23.0", "trial": 0, "time_elapsed": 209092, "serialpos": 11, "key_press": -1, "wordID": 367, "type": "PRES_VIS", "trial_index": 32}, "uniqueid": "MTK2351:30LB5CDZNDH1IPR2DSCW2UNRPY9Z0M", "dateTime": 1516993966912}, {"current_trial": 33, "trialdata": {"rt": -1, "trial_type": "single-stim", "word": "softball", "stimulus": "<p id=\"stim\">SOFTBALL</p>", "conditions": [18, 1200, "v", 18000], "internal_node_id": "0.0-24.0", "trial": 0, "time_elapsed": 211441, "serialpos": 12, "key_press": -1, "wordID": 1342, "type": "PRES_VIS", "trial_index": 33}, "uniqueid": "MTK2351:30LB5CDZNDH1IPR2DSCW2UNRPY9Z0M", "dateTime": 1516993969259}, {"current_trial": 34, "trialdata": {"rt": -1, "trial_type": "single-stim", "word": "mustard", "stimulus": "<p id=\"stim\">MUSTARD</p>", "conditions": [18, 1200, "v", 18000], "internal_node_id": "0.0-25.0", "trial": 0, "time_elapsed": 213781, "serialpos": 13, "key_press": -1, "wordID": 934, "type": "PRES_VIS", "trial_index": 34}, "uniqueid": "MTK2351:30LB5CDZNDH1IPR2DSCW2UNRPY9Z0M", "dateTime": 1516993971599}, {"current_trial": 35, "trialdata": {"rt": -1, "trial_type": "single-stim", "word": "bunny", "stimulus": "<p id=\"stim\">BUNNY</p>", "conditions": [18, 1200, "v", 18000], "internal_node_id": "0.0-26.0", "trial": 0, "time_elapsed": 215880, "serialpos": 14, "key_press": -1, "wordID": 197, "type": "PRES_VIS", "trial_index": 35}, "uniqueid": "MTK2351:30LB5CDZNDH1IPR2DSCW2UNRPY9Z0M", "dateTime": 1516993973698}, {"current_trial": 36, "trialdata": {"rt": -1, "trial_type": "single-stim", "word": "flute", "stimulus": "<p id=\"stim\">FLUTE</p>", "conditions": [18, 1200, "v", 18000], "internal_node_id": "0.0-27.0", "trial": 0, "time_elapsed": 218208, "serialpos": 15, "key_press": -1, "wordID": 584, "type": "PRES_VIS", "trial_index": 36}, "uniqueid": "MTK2351:30LB5CDZNDH1IPR2DSCW2UNRPY9Z0M", "dateTime": 1516993976026}, {"current_trial": 37, "trialdata": {"rt": -1, "trial_type": "single-stim", "word": "mailman", "stimulus": "<p id=\"stim\">MAILMAN</p>", "conditions": [18, 1200, "v", 18000], "internal_node_id": "0.0-28.0", "trial": 0, "time_elapsed": 220303, "serialpos": 16, "key_press": -1, "wordID": 857, "type": "PRES_VIS", "trial_index": 37}, "uniqueid": "MTK2351:30LB5CDZNDH1IPR2DSCW2UNRPY9Z0M", "dateTime": 1516993978122}, {"current_trial": 38, "trialdata": {"rt": -1, "trial_type": "single-stim", "word": "switch", "stimulus": "<p id=\"stim\">SWITCH</p>", "conditions": [18, 1200, "v", 18000], "internal_node_id": "0.0-29.0", "trial": 0, "time_elapsed": 222594, "serialpos": 17, "key_press": -1, "wordID": 1421, "type": "PRES_VIS", "trial_index": 38}, "uniqueid": "MTK2351:30LB5CDZNDH1IPR2DSCW2UNRPY9Z0M", "dateTime": 1516993980412}, {"current_trial": 39, "trialdata": {"rt": -1, "trial_type": "single-stim", "stimulus": "", "internal_node_id": "0.0-30.0-0.0", "time_elapsed": 225020, "key_press": -1, "type": "PRE_RECALL_DELAY", "trial_index": 39}, "uniqueid": "MTK2351:30LB5CDZNDH1IPR2DSCW2UNRPY9Z0M", "dateTime": 1516993982838}, {"current_trial": 40, "trialdata": {"rt": -1000, "trial_type": "single-audio", "stimulus": "/static/audio/400Hz.wav", "internal_node_id": "0.0-31.0", "time_elapsed": 225524, "key_press": -1, "type": "PRE_RECALL_ALERT", "trial_index": 40}, "uniqueid": "MTK2351:30LB5CDZNDH1IPR2DSCW2UNRPY9Z0M", "dateTime": 1516993983343}, {"current_trial": 41, "trialdata": {"rt": [16606, 27757, 34129, 38621, 41092, 42182, 43082, 45900, 47758, 48691, 49629, 50530, 51429, 52369, 53206, 54371, 55174, 55546, 57472, 57744, 58026, 58305, 58581, 58843, 59108, 59384, 59642, 59875], "recwords": ["00000", "987654321", "typist", "", "na", "na", "na", "dn", "dn", "dn", "dn", "dn", "dn", "dn", "dn", "dn", "n", "", "n", "n", "n", "n", "n", "n", "n", "n", "n", "n"], "key_times": [11813, 12127, 12333, 12512, 12708, 16606, 24927, 25124, 25338, 25595, 25842, 26072, 26323, 26707, 27095, 27757, 29624, 30078, 30292, 31278, 31524, 31993, 32370, 32798, 32941, 33491, 34129, 34804, 38621, 40269, 40488, 40689, 41092, 41483, 41664, 41845, 42182, 42466, 42633, 42808, 43082, 43426, 44166, 44349, 45019, 45401, 45638, 45900, 46194, 47203, 47398, 47758, 47996, 48264, 48362, 48691, 48934, 49174, 49344, 49629, 49826, 50076, 50242, 50530, 50790, 51041, 51191, 51429, 51726, 51955, 52115, 52369, 52593, 52812, 52961, 53206, 53393, 53691, 54000, 54371, 54822, 55174, 55546, 57299, 57472, 57605, 57744, 57911, 58026, 58187, 58305, 58460, 58581, 58732, 58843, 59001, 59108, 59272, 59384, 59526, 59642, 59792, 59875], "trial_type": "free-recall", "conditions": [18, 1200, "v", 18000], "internal_node_id": "0.0-32.0-0.0", "key_presses": [48, 48, 48, 48, 48, 13, 57, 56, 55, 54, 53, 52, 51, 50, 49, 13, 16, 84, 89, 8, 16, 89, 80, 73, 83, 84, 13, 16, 13, 16, 78, 65, 13, 16, 78, 65, 13, 16, 78, 65, 13, 16, 68, 79, 8, 16, 78, 13, 16, 68, 78, 13, 16, 68, 78, 13, 16, 68, 78, 13, 16, 68, 78, 13, 16, 68, 78, 13, 16, 68, 78, 13, 16, 68, 78, 13, 16, 68, 78, 13, 78, 13, 13, 78, 13, 78, 13, 78, 13, 78, 13, 78, 13, 78, 13, 78, 13, 78, 13, 78, 13, 78, 13], "trial": 0, "time_elapsed": 285532, "type": "FREE_RECALL", "trial_index": 41}, "uniqueid": "MTK2351:30LB5CDZNDH1IPR2DSCW2UNRPY9Z0M", "dateTime": 1516994043360}, {"current_trial": 42, "trialdata": {"rt": 2670, "trial_type": "text", "internal_node_id": "0.0-33.0", "time_elapsed": 290213, "key_press": 13, "type": "INSTRUCTIONS", "trial_index": 42}, "uniqueid": "MTK2351:30LB5CDZNDH1IPR2DSCW2UNRPY9Z0M", "dateTime": 1516994048031}, {"current_trial": 43, "trialdata": {"rt": [7803, 11753, 14885], "trial_type": "math-distractor", "key_times": [6975, 7058, 7803, 11241, 11388, 11753, 14460, 14639, 14885], "responses": ["23", "10", "10"], "num2": [9, 5, 2, 2], "num3": [5, 2, 7, 9], "conditions": [18, 1200, "v", 18000], "internal_node_id": "0.0-34.0", "key_presses": [98, 99, 13, 97, 96, 13, 97, 96, 13], "trial": 1, "time_elapsed": 310219, "type": "DISTRACTOR", "trial_index": 43, "num1": [9, 3, 1, 6]}, "uniqueid": "MTK2351:30LB5CDZNDH1IPR2DSCW2UNRPY9Z0M", "dateTime": 1516994068037}, {"current_trial": 44, "trialdata": {"rt": -1, "trial_type": "single-stim", "stimulus": "<p id=\"stim\">10</p>", "internal_node_id": "0.0-35.0-0.0", "time_elapsed": 313222, "key_press": -1, "trial_index": 44}, "uniqueid": "MTK2351:30LB5CDZNDH1IPR2DSCW2UNRPY9Z0M", "dateTime": 1516994071040}, {"current_trial": 45, "trialdata": {"rt": -1, "trial_type": "single-stim", "stimulus": "<p id=\"stim\">9</p>", "internal_node_id": "0.0-35.0-1.0", "time_elapsed": 314223, "key_press": -1, "trial_index": 45}, "uniqueid": "MTK2351:30LB5CDZNDH1IPR2DSCW2UNRPY9Z0M", "dateTime": 1516994072042}, {"current_trial": 46, "trialdata": {"rt": -1, "trial_type": "single-stim", "stimulus": "<p id=\"stim\">8</p>", "internal_node_id": "0.0-35.0-2.0", "time_elapsed": 315226, "key_press": -1, "trial_index": 46}, "uniqueid": "MTK2351:30LB5CDZNDH1IPR2DSCW2UNRPY9Z0M", "dateTime": 1516994073044}, {"current_trial": 47, "trialdata": {"rt": -1, "trial_type": "single-stim", "stimulus": "<p id=\"stim\">7</p>", "internal_node_id": "0.0-35.0-3.0", "time_elapsed": 316227, "key_press": -1, "trial_index": 47}, "uniqueid": "MTK2351:30LB5CDZNDH1IPR2DSCW2UNRPY9Z0M", "dateTime": 1516994074046}, {"current_trial": 48, "trialdata": {"rt": -1, "trial_type": "single-stim", "stimulus": "<p id=\"stim\">6</p>", "internal_node_id": "0.0-35.0-4.0", "time_elapsed": 317229, "key_press": -1, "trial_index": 48}, "uniqueid": "MTK2351:30LB5CDZNDH1IPR2DSCW2UNRPY9Z0M", "dateTime": 1516994075047}, {"current_trial": 49, "trialdata": {"rt": -1, "trial_type": "single-stim", "stimulus": "<p id=\"stim\">5</p>", "internal_node_id": "0.0-35.0-5.0", "time_elapsed": 318230, "key_press": -1, "trial_index": 49}, "uniqueid": "MTK2351:30LB5CDZNDH1IPR2DSCW2UNRPY9Z0M", "dateTime": 1516994076048}, {"current_trial": 50, "trialdata": {"rt": -1, "trial_type": "single-stim", "stimulus": "<p id=\"stim\">4</p>", "internal_node_id": "0.0-35.0-6.0", "time_elapsed": 319232, "key_press": -1, "trial_index": 50}, "uniqueid": "MTK2351:30LB5CDZNDH1IPR2DSCW2UNRPY9Z0M", "dateTime": 1516994077050}, {"current_trial": 51, "trialdata": {"rt": -1, "trial_type": "single-stim", "stimulus": "<p id=\"stim\">3</p>", "internal_node_id": "0.0-35.0-7.0", "time_elapsed": 320234, "key_press": -1, "trial_index": 51}, "uniqueid": "MTK2351:30LB5CDZNDH1IPR2DSCW2UNRPY9Z0M", "dateTime": 1516994078052}, {"current_trial": 52, "trialdata": {"rt": -1, "trial_type": "single-stim", "stimulus": "<p id=\"stim\">2</p>", "internal_node_id": "0.0-35.0-8.0", "time_elapsed": 321235, "key_press": -1, "trial_index": 52}, "uniqueid": "MTK2351:30LB5CDZNDH1IPR2DSCW2UNRPY9Z0M", "dateTime": 1516994079053}, {"current_trial": 53, "trialdata": {"rt": -1, "trial_type": "single-stim", "stimulus": "<p id=\"stim\">1</p>", "internal_node_id": "0.0-35.0-9.0", "time_elapsed": 322237, "key_press": -1, "trial_index": 53}, "uniqueid": "MTK2351:30LB5CDZNDH1IPR2DSCW2UNRPY9Z0M", "dateTime": 1516994080056}, {"current_trial": 54, "trialdata": {"rt": -1, "trial_type": "single-stim", "stimulus": "<p id=\"stim\">+</p>", "internal_node_id": "0.0-36.0-0.0", "time_elapsed": 323739, "key_press": -1, "type": "FIXATION", "trial_index": 54}, "uniqueid": "MTK2351:30LB5CDZNDH1IPR2DSCW2UNRPY9Z0M", "dateTime": 1516994081558}, {"current_trial": 55, "trialdata": {"rt": -1, "trial_type": "single-stim", "word": "rattle", "stimulus": "<p id=\"stim\">RATTLE</p>", "conditions": [18, 1200, "v", 18000], "internal_node_id": "0.0-37.0", "trial": 1, "time_elapsed": 324942, "serialpos": 0, "key_press": -1, "wordID": 1169, "type": "PRES_VIS", "trial_index": 55}, "uniqueid": "MTK2351:30LB5CDZNDH1IPR2DSCW2UNRPY9Z0M", "dateTime": 1516994082760}, {"current_trial": 56, "trialdata": {"rt": -1, "trial_type": "single-stim", "word": "inmate", "stimulus": "<p id=\"stim\">INMATE</p>", "conditions": [18, 1200, "v", 18000], "internal_node_id": "0.0-38.0", "trial": 1, "time_elapsed": 327226, "serialpos": 1, "key_press": -1, "wordID": 737, "type": "PRES_VIS", "trial_index": 56}, "uniqueid": "MTK2351:30LB5CDZNDH1IPR2DSCW2UNRPY9Z0M", "dateTime": 1516994085044}, {"current_trial": 57, "trialdata": {"rt": -1, "trial_type": "single-stim", "word": "mummy", "stimulus": "<p id=\"stim\">MUMMY</p>", "conditions": [18, 1200, "v", 18000], "internal_node_id": "0.0-39.0", "trial": 1, "time_elapsed": 329538, "serialpos": 2, "key_press": -1, "wordID": 931, "type": "PRES_VIS", "trial_index": 57}, "uniqueid": "MTK2351:30LB5CDZNDH1IPR2DSCW2UNRPY9Z0M", "dateTime": 1516994087356}, {"current_trial": 58, "trialdata": {"rt": -1, "trial_type": "single-stim", "word": "outfit", "stimulus": "<p id=\"stim\">OUTFIT</p>", "conditions": [18, 1200, "v", 18000], "internal_node_id": "0.0-40.0", "trial": 1, "time_elapsed": 331763, "serialpos": 3, "key_press": -1, "wordID": 987, "type": "PRES_VIS", "trial_index": 58}, "uniqueid": "MTK2351:30LB5CDZNDH1IPR2DSCW2UNRPY9Z0M", "dateTime": 1516994089581}, {"current_trial": 59, "trialdata": {"rt": -1, "trial_type": "single-stim", "word": "hamper", "stimulus": "<p id=\"stim\">HAMPER</p>", "conditions": [18, 1200, "v", 18000], "internal_node_id": "0.0-41.0", "trial": 1, "time_elapsed": 334080, "serialpos": 4, "key_press": -1, "wordID": 681, "type": "PRES_VIS", "trial_index": 59}, "uniqueid": "MTK2351:30LB5CDZNDH1IPR2DSCW2UNRPY9Z0M", "dateTime": 1516994091898}, {"current_trial": 60, "trialdata": {"rt": -1, "trial_type": "single-stim", "word": "basement", "stimulus": "<p id=\"stim\">BASEMENT</p>", "conditions": [18, 1200, "v", 18000], "internal_node_id": "0.0-42.0", "trial": 1, "time_elapsed": 336386, "serialpos": 5, "key_press": -1, "wordID": 93, "type": "PRES_VIS", "trial_index": 60}, "uniqueid": "MTK2351:30LB5CDZNDH1IPR2DSCW2UNRPY9Z0M", "dateTime": 1516994094205}, {"current_trial": 61, "trialdata": {"rt": -1, "trial_type": "single-stim", "word": "smog", "stimulus": "<p id=\"stim\">SMOG</p>", "conditions": [18, 1200, "v", 18000], "internal_node_id": "0.0-43.0", "trial": 1, "time_elapsed": 338623, "serialpos": 6, "key_press": -1, "wordID": 1329, "type": "PRES_VIS", "trial_index": 61}, "uniqueid": "MTK2351:30LB5CDZNDH1IPR2DSCW2UNRPY9Z0M", "dateTime": 1516994096441}, {"current_trial": 62, "trialdata": {"rt": -1, "trial_type": "single-stim", "word": "quail", "stimulus": "<p id=\"stim\">QUAIL</p>", "conditions": [18, 1200, "v", 18000], "internal_node_id": "0.0-44.0", "trial": 1, "time_elapsed": 340707, "serialpos": 7, "key_press": -1, "wordID": 1146, "type": "PRES_VIS", "trial_index": 62}, "uniqueid": "MTK2351:30LB5CDZNDH1IPR2DSCW2UNRPY9Z0M", "dateTime": 1516994098525}, {"current_trial": 63, "trialdata": {"rt": -1, "trial_type": "single-stim", "word": "drug", "stimulus": "<p id=\"stim\">DRUG</p>", "conditions": [18, 1200, "v", 18000], "internal_node_id": "0.0-45.0", "trial": 1, "time_elapsed": 342917, "serialpos": 8, "key_press": -1, "wordID": 500, "type": "PRES_VIS", "trial_index": 63}, "uniqueid": "MTK2351:30LB5CDZNDH1IPR2DSCW2UNRPY9Z0M", "dateTime": 1516994100735}, {"current_trial": 64, "trialdata": {"rt": -1, "trial_type": "single-stim", "word": "truck", "stimulus": "<p id=\"stim\">TRUCK</p>", "conditions": [18, 1200, "v", 18000], "internal_node_id": "0.0-46.0", "trial": 1, "time_elapsed": 345132, "serialpos": 9, "key_press": -1, "wordID": 1511, "type": "PRES_VIS", "trial_index": 64}, "uniqueid": "MTK2351:30LB5CDZNDH1IPR2DSCW2UNRPY9Z0M", "dateTime": 1516994102950}, {"current_trial": 65, "trialdata": {"rt": -1, "trial_type": "single-stim", "word": "sponge", "stimulus": "<p id=\"stim\">SPONGE</p>", "conditions": [18, 1200, "v", 18000], "internal_node_id": "0.0-47.0", "trial": 1, "time_elapsed": 347403, "serialpos": 10, "key_press": -1, "wordID": 1354, "type": "PRES_VIS", "trial_index": 65}, "uniqueid": "MTK2351:30LB5CDZNDH1IPR2DSCW2UNRPY9Z0M", "dateTime": 1516994105221}, {"current_trial": 66, "trialdata": {"rt": -1, "trial_type": "single-stim", "word": "robot", "stimulus": "<p id=\"stim\">ROBOT</p>", "conditions": [18, 1200, "v", 18000], "internal_node_id": "0.0-48.0", "trial": 1, "time_elapsed": 349683, "serialpos": 11, "key_press": -1, "wordID": 1199, "type": "PRES_VIS", "trial_index": 66}, "uniqueid": "MTK2351:30LB5CDZNDH1IPR2DSCW2UNRPY9Z0M", "dateTime": 1516994107502}, {"current_trial": 67, "trialdata": {"rt": -1, "trial_type": "single-stim", "word": "drawing", "stimulus": "<p id=\"stim\">DRAWING</p>", "conditions": [18, 1200, "v", 18000], "internal_node_id": "0.0-49.0", "trial": 1, "time_elapsed": 351869, "serialpos": 12, "key_press": -1, "wordID": 493, "type": "PRES_VIS", "trial_index": 67}, "uniqueid": "MTK2351:30LB5CDZNDH1IPR2DSCW2UNRPY9Z0M", "dateTime": 1516994109687}, {"current_trial": 68, "trialdata": {"rt": -1, "trial_type": "single-stim", "word": "binder", "stimulus": "<p id=\"stim\">BINDER</p>", "conditions": [18, 1200, "v", 18000], "internal_node_id": "0.0-50.0", "trial": 1, "time_elapsed": 353926, "serialpos": 13, "key_press": -1, "wordID": 126, "type": "PRES_VIS", "trial_index": 68}, "uniqueid": "MTK2351:30LB5CDZNDH1IPR2DSCW2UNRPY9Z0M", "dateTime": 1516994111744}, {"current_trial": 69, "trialdata": {"rt": -1, "trial_type": "single-stim", "word": "bureau", "stimulus": "<p id=\"stim\">BUREAU</p>", "conditions": [18, 1200, "v", 18000], "internal_node_id": "0.0-51.0", "trial": 1, "time_elapsed": 356022, "serialpos": 14, "key_press": -1, "wordID": 198, "type": "PRES_VIS", "trial_index": 69}, "uniqueid": "MTK2351:30LB5CDZNDH1IPR2DSCW2UNRPY9Z0M", "dateTime": 1516994113840}, {"current_trial": 70, "trialdata": {"rt": -1, "trial_type": "single-stim", "word": "daisy", "stimulus": "<p id=\"stim\">DAISY</p>", "conditions": [18, 1200, "v", 18000], "internal_node_id": "0.0-52.0", "trial": 1, "time_elapsed": 358390, "serialpos": 15, "key_press": -1, "wordID": 434, "type": "PRES_VIS", "trial_index": 70}, "uniqueid": "MTK2351:30LB5CDZNDH1IPR2DSCW2UNRPY9Z0M", "dateTime": 1516994116208}, {"current_trial": 71, "trialdata": {"rt": -1, "trial_type": "single-stim", "word": "nomad", "stimulus": "<p id=\"stim\">NOMAD</p>", "conditions": [18, 1200, "v", 18000], "internal_node_id": "0.0-53.0", "trial": 1, "time_elapsed": 360788, "serialpos": 16, "key_press": -1, "wordID": 954, "type": "PRES_VIS", "trial_index": 71}, "uniqueid": "MTK2351:30LB5CDZNDH1IPR2DSCW2UNRPY9Z0M", "dateTime": 1516994118606}, {"current_trial": 72, "trialdata": {"rt": -1, "trial_type": "single-stim", "word": "cricket", "stimulus": "<p id=\"stim\">CRICKET</p>", "conditions": [18, 1200, "v", 18000], "internal_node_id": "0.0-54.0", "trial": 1, "time_elapsed": 363155, "serialpos": 17, "key_press": -1, "wordID": 407, "type": "PRES_VIS", "trial_index": 72}, "uniqueid": "MTK2351:30LB5CDZNDH1IPR2DSCW2UNRPY9Z0M", "dateTime": 1516994120973}, {"current_trial": 73, "trialdata": {"rt": -1, "trial_type": "single-stim", "stimulus": "", "internal_node_id": "0.0-55.0-0.0", "time_elapsed": 365476, "key_press": -1, "type": "PRE_RECALL_DELAY", "trial_index": 73}, "uniqueid": "MTK2351:30LB5CDZNDH1IPR2DSCW2UNRPY9Z0M", "dateTime": 1516994123294}, {"current_trial": 74, "trialdata": {"rt": -1000, "trial_type": "single-audio", "stimulus": "/static/audio/400Hz.wav", "internal_node_id": "0.0-56.0", "time_elapsed": 365978, "key_press": -1, "type": "PRE_RECALL_ALERT", "trial_index": 74}, "uniqueid": "MTK2351:30LB5CDZNDH1IPR2DSCW2UNRPY9Z0M", "dateTime": 1516994123796}, {"current_trial": 75, "trialdata": {"rt": [2809, 5140, 6757, 10132, 10927, 24286, 25647, 26129, 26617, 27198, 27650, 28138, 28642, 29118, 31822, 36285, 37506, 38446, 39219, 40021, 40909, 41704, 42422, 43098, 43823, 44479, 45178, 45935, 46601, 47292, 47974, 48678, 49374, 50123, 50814, 51619, 52404, 53097, 54192, 54976, 55686, 56339, 57355, 58040, 58980], "recwords": ["rattle", "immate", "mommy", "cricket", "", "9", "8", "7", "6", "5", "4", "3", "2", "1", "+", "na", "na", "na", "na", "na", "na", "na", "na", "na", "na", "na", "na", "na", "na", "na", "na", "na", "na", "na", "na", "na", "na", "na", "na", "na", "na", "na", "na", "na", "na"], "key_times": [1180, 1317, 1477, 1830, 1974, 2124, 2336, 2809, 3101, 3430, 3598, 4033, 4139, 4386, 4473, 5140, 5488, 5686, 5882, 6088, 6180, 6458, 6757, 7921, 8555, 8829, 8989, 9158, 9359, 9492, 9732, 10132, 10927, 11524, 11821, 12680, 13638, 13789, 14045, 15797, 16585, 16737, 16898, 19440, 20558, 20841, 21071, 21329, 22296, 22459, 22624, 23462, 24286, 25362, 25647, 25904, 26129, 26370, 26617, 26910, 27198, 27457, 27650, 27936, 28138, 28427, 28642, 28929, 29118, 30312, 30506, 31822, 34461, 34834, 35103, 36285, 36864, 37151, 37254, 37506, 37799, 38039, 38194, 38446, 38702, 38857, 38998, 39219, 39479, 39680, 39823, 40021, 40313, 40475, 40620, 40909, 41108, 41276, 41414, 41704, 41890, 42079, 42208, 42422, 42619, 42792, 42941, 43098, 43308, 43513, 43650, 43823, 44031, 44209, 44342, 44479, 44717, 44876, 45051, 45178, 45513, 45660, 45809, 45935, 46168, 46336, 46485, 46601, 46821, 47026, 47154, 47292, 47499, 47714, 47852, 47974, 48233, 48417, 48540, 48678, 48928, 49098, 49240, 49374, 49627, 49805, 49973, 50123, 50381, 50528, 50702, 50814, 51153, 51299, 51469, 51619, 51952, 52100, 52254, 52404, 52603, 52781, 52920, 53097, 53639, 53837, 54043, 54192, 54514, 54672, 54812, 54976, 55204, 55415, 55523, 55686, 55904, 56082, 56201, 56339, 56571, 56745, 56962, 57355, 57574, 57768, 57912, 58040, 58497, 58681, 58904, 58980, 59586, 59696, 59896], "trial_type": "free-recall", "conditions": [18, 1200, "v", 18000], "internal_node_id": "0.0-57.0-0.0", "key_presses": [16, 82, 65, 84, 84, 76, 69, 13, 16, 73, 77, 77, 65, 84, 69, 13, 16, 77, 79, 77, 77, 89, 13, 16, 67, 82, 73, 67, 75, 69, 84, 13, 13, 16, 78, 16, 8, 8, 68, 78, 8, 8, 8, 57, 16, 56, 16, 55, 8, 8, 8, 57, 13, 56, 13, 55, 13, 54, 13, 53, 13, 52, 13, 51, 13, 50, 13, 49, 13, 16, 61, 13, 16, 78, 65, 13, 16, 78, 65, 13, 16, 78, 65, 13, 16, 78, 65, 13, 16, 78, 65, 13, 16, 78, 65, 13, 16, 78, 65, 13, 16, 78, 65, 13, 16, 78, 65, 13, 16, 78, 65, 13, 16, 78, 65, 13, 16, 78, 65, 13, 16, 78, 65, 13, 16, 78, 65, 13, 16, 78, 65, 13, 16, 78, 65, 13, 16, 78, 65, 13, 16, 78, 65, 13, 16, 78, 65, 13, 16, 78, 65, 13, 16, 78, 65, 13, 16, 78, 65, 13, 16, 78, 65, 13, 16, 78, 65, 13, 16, 78, 65, 13, 16, 78, 65, 13, 16, 78, 65, 13, 16, 78, 65, 13, 16, 78, 65, 13, 16, 78, 65, 13, 78, 16, 65], "trial": 1, "time_elapsed": 425985, "type": "FREE_RECALL", "trial_index": 75}, "uniqueid": "MTK2351:30LB5CDZNDH1IPR2DSCW2UNRPY9Z0M", "dateTime": 1516994183811}, {"current_trial": 76, "trialdata": {"rt": 4545, "trial_type": "text", "internal_node_id": "0.0-58.0", "time_elapsed": 432539, "key_press": 13, "type": "INSTRUCTIONS", "trial_index": 76}, "uniqueid": "MTK2351:30LB5CDZNDH1IPR2DSCW2UNRPY9Z0M", "dateTime": 1516994190357}, {"current_trial": 77, "trialdata": {"rt": [4415, 8162, 10635, 13146, 16204, 18522, 20502, 23900], "trial_type": "math-distractor", "key_times": [4057, 4162, 4415, 7840, 7925, 8162, 9899, 10066, 10635, 12834, 12919, 13146, 14746, 15012, 15914, 16204, 18169, 18253, 18522, 20123, 20323, 20502, 23541, 23616, 23900], "responses": ["20", "12", "17", "16", "9", "13", "17", "23"], "num2": [9, 3, 9, 6, 4, 1, 8, 9, 4], "num3": [6, 8, 7, 2, 1, 3, 2, 9, 8], "conditions": [24, 1600, "v", 24000], "internal_node_id": "0.0-59.0", "key_presses": [98, 96, 13, 97, 98, 13, 97, 103, 13, 97, 102, 13, 105, 220, 8, 13, 97, 99, 13, 97, 103, 13, 98, 99, 13], "trial": 2, "time_elapsed": 457546, "type": "DISTRACTOR", "trial_index": 77, "num1": [5, 1, 1, 8, 4, 9, 7, 5, 2]}, "uniqueid": "MTK2351:30LB5CDZNDH1IPR2DSCW2UNRPY9Z0M", "dateTime": 1516994215365}, {"current_trial": 78, "trialdata": {"rt": -1, "trial_type": "single-stim", "stimulus": "<p id=\"stim\">10</p>", "internal_node_id": "0.0-60.0-0.0", "time_elapsed": 460550, "key_press": -1, "trial_index": 78}, "uniqueid": "MTK2351:30LB5CDZNDH1IPR2DSCW2UNRPY9Z0M", "dateTime": 1516994218368}, {"current_trial": 79, "trialdata": {"rt": -1, "trial_type": "single-stim", "stimulus": "<p id=\"stim\">9</p>", "internal_node_id": "0.0-60.0-1.0", "time_elapsed": 461551, "key_press": -1, "trial_index": 79}, "uniqueid": "MTK2351:30LB5CDZNDH1IPR2DSCW2UNRPY9Z0M", "dateTime": 1516994219369}, {"current_trial": 80, "trialdata": {"rt": -1, "trial_type": "single-stim", "stimulus": "<p id=\"stim\">8</p>", "internal_node_id": "0.0-60.0-2.0", "time_elapsed": 462552, "key_press": -1, "trial_index": 80}, "uniqueid": "MTK2351:30LB5CDZNDH1IPR2DSCW2UNRPY9Z0M", "dateTime": 1516994220371}, {"current_trial": 81, "trialdata": {"rt": -1, "trial_type": "single-stim", "stimulus": "<p id=\"stim\">7</p>", "internal_node_id": "0.0-60.0-3.0", "time_elapsed": 463554, "key_press": -1, "trial_index": 81}, "uniqueid": "MTK2351:30LB5CDZNDH1IPR2DSCW2UNRPY9Z0M", "dateTime": 1516994221372}, {"current_trial": 82, "trialdata": {"rt": -1, "trial_type": "single-stim", "stimulus": "<p id=\"stim\">6</p>", "internal_node_id": "0.0-60.0-4.0", "time_elapsed": 464555, "key_press": -1, "trial_index": 82}, "uniqueid": "MTK2351:30LB5CDZNDH1IPR2DSCW2UNRPY9Z0M", "dateTime": 1516994222374}, {"current_trial": 83, "trialdata": {"rt": -1, "trial_type": "single-stim", "stimulus": "<p id=\"stim\">5</p>", "internal_node_id": "0.0-60.0-5.0", "time_elapsed": 465557, "key_press": -1, "trial_index": 83}, "uniqueid": "MTK2351:30LB5CDZNDH1IPR2DSCW2UNRPY9Z0M", "dateTime": 1516994223375}, {"current_trial": 84, "trialdata": {"rt": -1, "trial_type": "single-stim", "stimulus": "<p id=\"stim\">4</p>", "internal_node_id": "0.0-60.0-6.0", "time_elapsed": 466559, "key_press": -1, "trial_index": 84}, "uniqueid": "MTK2351:30LB5CDZNDH1IPR2DSCW2UNRPY9Z0M", "dateTime": 1516994224377}, {"current_trial": 85, "trialdata": {"rt": -1, "trial_type": "single-stim", "stimulus": "<p id=\"stim\">3</p>", "internal_node_id": "0.0-60.0-7.0", "time_elapsed": 467561, "key_press": -1, "trial_index": 85}, "uniqueid": "MTK2351:30LB5CDZNDH1IPR2DSCW2UNRPY9Z0M", "dateTime": 1516994225379}, {"current_trial": 86, "trialdata": {"rt": -1, "trial_type": "single-stim", "stimulus": "<p id=\"stim\">2</p>", "internal_node_id": "0.0-60.0-8.0", "time_elapsed": 468562, "key_press": -1, "trial_index": 86}, "uniqueid": "MTK2351:30LB5CDZNDH1IPR2DSCW2UNRPY9Z0M", "dateTime": 1516994226380}, {"current_trial": 87, "trialdata": {"rt": -1, "trial_type": "single-stim", "stimulus": "<p id=\"stim\">1</p>", "internal_node_id": "0.0-60.0-9.0", "time_elapsed": 469564, "key_press": -1, "trial_index": 87}, "uniqueid": "MTK2351:30LB5CDZNDH1IPR2DSCW2UNRPY9Z0M", "dateTime": 1516994227382}, {"current_trial": 88, "trialdata": {"rt": -1, "trial_type": "single-stim", "stimulus": "<p id=\"stim\">+</p>", "internal_node_id": "0.0-61.0-0.0", "time_elapsed": 471065, "key_press": -1, "type": "FIXATION", "trial_index": 88}, "uniqueid": "MTK2351:30LB5CDZNDH1IPR2DSCW2UNRPY9Z0M", "dateTime": 1516994228884}, {"current_trial": 89, "trialdata": {"rt": -1, "trial_type": "single-stim", "word": "world", "stimulus": "<p id=\"stim\">WORLD</p>", "conditions": [24, 1600, "v", 24000], "internal_node_id": "0.0-62.0", "trial": 2, "time_elapsed": 472668, "serialpos": 0, "key_press": -1, "wordID": 1621, "type": "PRES_VIS", "trial_index": 89}, "uniqueid": "MTK2351:30LB5CDZNDH1IPR2DSCW2UNRPY9Z0M", "dateTime": 1516994230486}, {"current_trial": 90, "trialdata": {"rt": -1, "trial_type": "single-stim", "word": "globe", "stimulus": "<p id=\"stim\">GLOBE</p>", "conditions": [24, 1600, "v", 24000], "internal_node_id": "0.0-63.0", "trial": 2, "time_elapsed": 475267, "serialpos": 1, "key_press": -1, "wordID": 640, "type": "PRES_VIS", "trial_index": 90}, "uniqueid": "MTK2351:30LB5CDZNDH1IPR2DSCW2UNRPY9Z0M", "dateTime": 1516994233085}, {"current_trial": 91, "trialdata": {"rt": -1, "trial_type": "single-stim", "word": "leopard", "stimulus": "<p id=\"stim\">LEOPARD</p>", "conditions": [24, 1600, "v", 24000], "internal_node_id": "0.0-64.0", "trial": 2, "time_elapsed": 477881, "serialpos": 2, "key_press": -1, "wordID": 811, "type": "PRES_VIS", "trial_index": 91}, "uniqueid": "MTK2351:30LB5CDZNDH1IPR2DSCW2UNRPY9Z0M", "dateTime": 1516994235700}, {"current_trial": 92, "trialdata": {"rt": -1, "trial_type": "single-stim", "word": "mammal", "stimulus": "<p id=\"stim\">MAMMAL</p>", "conditions": [24, 1600, "v", 24000], "internal_node_id": "0.0-65.0", "trial": 2, "time_elapsed": 480456, "serialpos": 3, "key_press": -1, "wordID": 860, "type": "PRES_VIS", "trial_index": 92}, "uniqueid": "MTK2351:30LB5CDZNDH1IPR2DSCW2UNRPY9Z0M", "dateTime": 1516994238275}, {"current_trial": 93, "trialdata": {"rt": -1, "trial_type": "single-stim", "word": "river", "stimulus": "<p id=\"stim\">RIVER</p>", "conditions": [24, 1600, "v", 24000], "internal_node_id": "0.0-66.0", "trial": 2, "time_elapsed": 483190, "serialpos": 4, "key_press": -1, "wordID": 1193, "type": "PRES_VIS", "trial_index": 93}, "uniqueid": "MTK2351:30LB5CDZNDH1IPR2DSCW2UNRPY9Z0M", "dateTime": 1516994241008}, {"current_trial": 94, "trialdata": {"rt": -1, "trial_type": "single-stim", "word": "tart", "stimulus": "<p id=\"stim\">TART</p>", "conditions": [24, 1600, "v", 24000], "internal_node_id": "0.0-67.0", "trial": 2, "time_elapsed": 485700, "serialpos": 5, "key_press": -1, "wordID": 1435, "type": "PRES_VIS", "trial_index": 94}, "uniqueid": "MTK2351:30LB5CDZNDH1IPR2DSCW2UNRPY9Z0M", "dateTime": 1516994243518}, {"current_trial": 95, "trialdata": {"rt": -1, "trial_type": "single-stim", "word": "sparrow", "stimulus": "<p id=\"stim\">SPARROW</p>", "conditions": [24, 1600, "v", 24000], "internal_node_id": "0.0-68.0", "trial": 2, "time_elapsed": 488404, "serialpos": 6, "key_press": -1, "wordID": 1346, "type": "PRES_VIS", "trial_index": 95}, "uniqueid": "MTK2351:30LB5CDZNDH1IPR2DSCW2UNRPY9Z0M", "dateTime": 1516994246222}, {"current_trial": 96, "trialdata": {"rt": -1, "trial_type": "single-stim", "word": "summit", "stimulus": "<p id=\"stim\">SUMMIT</p>", "conditions": [24, 1600, "v", 24000], "internal_node_id": "0.0-69.0", "trial": 2, "time_elapsed": 491089, "serialpos": 7, "key_press": -1, "wordID": 1404, "type": "PRES_VIS", "trial_index": 96}, "uniqueid": "MTK2351:30LB5CDZNDH1IPR2DSCW2UNRPY9Z0M", "dateTime": 1516994248907}, {"current_trial": 97, "trialdata": {"rt": -1, "trial_type": "single-stim", "word": "rocket", "stimulus": "<p id=\"stim\">ROCKET</p>", "conditions": [24, 1600, "v", 24000], "internal_node_id": "0.0-70.0", "trial": 2, "time_elapsed": 493796, "serialpos": 8, "key_press": -1, "wordID": 1201, "type": "PRES_VIS", "trial_index": 97}, "uniqueid": "MTK2351:30LB5CDZNDH1IPR2DSCW2UNRPY9Z0M", "dateTime": 1516994251614}, {"current_trial": 98, "trialdata": {"rt": -1, "trial_type": "single-stim", "word": "lagoon", "stimulus": "<p id=\"stim\">LAGOON</p>", "conditions": [24, 1600, "v", 24000], "internal_node_id": "0.0-71.0", "trial": 2, "time_elapsed": 496573, "serialpos": 9, "key_press": -1, "wordID": 794, "type": "PRES_VIS", "trial_index": 98}, "uniqueid": "MTK2351:30LB5CDZNDH1IPR2DSCW2UNRPY9Z0M", "dateTime": 1516994254391}, {"current_trial": 99, "trialdata": {"rt": -1, "trial_type": "single-stim", "word": "climber", "stimulus": "<p id=\"stim\">CLIMBER</p>", "conditions": [24, 1600, "v", 24000], "internal_node_id": "0.0-72.0", "trial": 2, "time_elapsed": 499347, "serialpos": 10, "key_press": -1, "wordID": 322, "type": "PRES_VIS", "trial_index": 99}, "uniqueid": "MTK2351:30LB5CDZNDH1IPR2DSCW2UNRPY9Z0M", "dateTime": 1516994257165}, {"current_trial": 100, "trialdata": {"rt": -1, "trial_type": "single-stim", "word": "pebble", "stimulus": "<p id=\"stim\">PEBBLE</p>", "conditions": [24, 1600, "v", 24000], "internal_node_id": "0.0-73.0", "trial": 2, "time_elapsed": 501949, "serialpos": 11, "key_press": -1, "wordID": 1034, "type": "PRES_VIS", "trial_index": 100}, "uniqueid": "MTK2351:30LB5CDZNDH1IPR2DSCW2UNRPY9Z0M", "dateTime": 1516994259767}, {"current_trial": 101, "trialdata": {"rt": -1, "trial_type": "single-stim", "word": "clothes", "stimulus": "<p id=\"stim\">CLOTHES</p>", "conditions": [24, 1600, "v", 24000], "internal_node_id": "0.0-74.0", "trial": 2, "time_elapsed": 504425, "serialpos": 12, "key_press": -1, "wordID": 326, "type": "PRES_VIS", "trial_index": 101}, "uniqueid": "MTK2351:30LB5CDZNDH1IPR2DSCW2UNRPY9Z0M", "dateTime": 1516994262243}, {"current_trial": 102, "trialdata": {"rt": -1, "trial_type": "single-stim", "word": "venus", "stimulus": "<p id=\"stim\">VENUS</p>", "conditions": [24, 1600, "v", 24000], "internal_node_id": "0.0-75.0", "trial": 2, "time_elapsed": 507040, "serialpos": 13, "key_press": -1, "wordID": 1556, "type": "PRES_VIS", "trial_index": 102}, "uniqueid": "MTK2351:30LB5CDZNDH1IPR2DSCW2UNRPY9Z0M", "dateTime": 1516994264859}, {"current_trial": 103, "trialdata": {"rt": -1, "trial_type": "single-stim", "word": "goblin", "stimulus": "<p id=\"stim\">GOBLIN</p>", "conditions": [24, 1600, "v", 24000], "internal_node_id": "0.0-76.0", "trial": 2, "time_elapsed": 509708, "serialpos": 14, "key_press": -1, "wordID": 644, "type": "PRES_VIS", "trial_index": 103}, "uniqueid": "MTK2351:30LB5CDZNDH1IPR2DSCW2UNRPY9Z0M", "dateTime": 1516994267527}, {"current_trial": 104, "trialdata": {"rt": -1, "trial_type": "single-stim", "word": "monster", "stimulus": "<p id=\"stim\">MONSTER</p>", "conditions": [24, 1600, "v", 24000], "internal_node_id": "0.0-77.0", "trial": 2, "time_elapsed": 512282, "serialpos": 15, "key_press": -1, "wordID": 911, "type": "PRES_VIS", "trial_index": 104}, "uniqueid": "MTK2351:30LB5CDZNDH1IPR2DSCW2UNRPY9Z0M", "dateTime": 1516994270101}, {"current_trial": 105, "trialdata": {"rt": -1, "trial_type": "single-stim", "word": "clam", "stimulus": "<p id=\"stim\">CLAM</p>", "conditions": [24, 1600, "v", 24000], "internal_node_id": "0.0-78.0", "trial": 2, "time_elapsed": 514819, "serialpos": 16, "key_press": -1, "wordID": 314, "type": "PRES_VIS", "trial_index": 105}, "uniqueid": "MTK2351:30LB5CDZNDH1IPR2DSCW2UNRPY9Z0M", "dateTime": 1516994272637}, {"current_trial": 106, "trialdata": {"rt": -1, "trial_type": "single-stim", "word": "scallop", "stimulus": "<p id=\"stim\">SCALLOP</p>", "conditions": [24, 1600, "v", 24000], "internal_node_id": "0.0-79.0", "trial": 2, "time_elapsed": 517542, "serialpos": 17, "key_press": -1, "wordID": 1241, "type": "PRES_VIS", "trial_index": 106}, "uniqueid": "MTK2351:30LB5CDZNDH1IPR2DSCW2UNRPY9Z0M", "dateTime": 1516994275360}, {"current_trial": 107, "trialdata": {"rt": -1, "trial_type": "single-stim", "word": "tombstone", "stimulus": "<p id=\"stim\">TOMBSTONE</p>", "conditions": [24, 1600, "v", 24000], "internal_node_id": "0.0-80.0", "trial": 2, "time_elapsed": 520347, "serialpos": 18, "key_press": -1, "wordID": 1477, "type": "PRES_VIS", "trial_index": 107}, "uniqueid": "MTK2351:30LB5CDZNDH1IPR2DSCW2UNRPY9Z0M", "dateTime": 1516994278165}, {"current_trial": 108, "trialdata": {"rt": -1, "trial_type": "single-stim", "word": "beast", "stimulus": "<p id=\"stim\">BEAST</p>", "conditions": [24, 1600, "v", 24000], "internal_node_id": "0.0-81.0", "trial": 2, "time_elapsed": 523002, "serialpos": 19, "key_press": -1, "wordID": 107, "type": "PRES_VIS", "trial_index": 108}, "uniqueid": "MTK2351:30LB5CDZNDH1IPR2DSCW2UNRPY9Z0M", "dateTime": 1516994280820}, {"current_trial": 109, "trialdata": {"rt": -1, "trial_type": "single-stim", "word": "mailbox", "stimulus": "<p id=\"stim\">MAILBOX</p>", "conditions": [24, 1600, "v", 24000], "internal_node_id": "0.0-82.0", "trial": 2, "time_elapsed": 525486, "serialpos": 20, "key_press": -1, "wordID": 856, "type": "PRES_VIS", "trial_index": 109}, "uniqueid": "MTK2351:30LB5CDZNDH1IPR2DSCW2UNRPY9Z0M", "dateTime": 1516994283304}, {"current_trial": 110, "trialdata": {"rt": -1, "trial_type": "single-stim", "word": "banjo", "stimulus": "<p id=\"stim\">BANJO</p>", "conditions": [24, 1600, "v", 24000], "internal_node_id": "0.0-83.0", "trial": 2, "time_elapsed": 528068, "serialpos": 21, "key_press": -1, "wordID": 81, "type": "PRES_VIS", "trial_index": 110}, "uniqueid": "MTK2351:30LB5CDZNDH1IPR2DSCW2UNRPY9Z0M", "dateTime": 1516994285886}, {"current_trial": 111, "trialdata": {"rt": -1, "trial_type": "single-stim", "word": "creature", "stimulus": "<p id=\"stim\">CREATURE</p>", "conditions": [24, 1600, "v", 24000], "internal_node_id": "0.0-84.0", "trial": 2, "time_elapsed": 530494, "serialpos": 22, "key_press": -1, "wordID": 402, "type": "PRES_VIS", "trial_index": 111}, "uniqueid": "MTK2351:30LB5CDZNDH1IPR2DSCW2UNRPY9Z0M", "dateTime": 1516994288313}, {"current_trial": 112, "trialdata": {"rt": -1, "trial_type": "single-stim", "word": "outdoors", "stimulus": "<p id=\"stim\">OUTDOORS</p>", "conditions": [24, 1600, "v", 24000], "internal_node_id": "0.0-85.0", "trial": 2, "time_elapsed": 533229, "serialpos": 23, "key_press": -1, "wordID": 986, "type": "PRES_VIS", "trial_index": 112}, "uniqueid": "MTK2351:30LB5CDZNDH1IPR2DSCW2UNRPY9Z0M", "dateTime": 1516994291047}, {"current_trial": 113, "trialdata": {"rt": -1, "trial_type": "single-stim", "stimulus": "", "internal_node_id": "0.0-86.0-0.0", "time_elapsed": 535492, "key_press": -1, "type": "PRE_RECALL_DELAY", "trial_index": 113}, "uniqueid": "MTK2351:30LB5CDZNDH1IPR2DSCW2UNRPY9Z0M", "dateTime": 1516994293310}, {"current_trial": 114, "trialdata": {"rt": -1000, "trial_type": "single-audio", "stimulus": "/static/audio/400Hz.wav", "internal_node_id": "0.0-87.0", "time_elapsed": 535993, "key_press": -1, "type": "PRE_RECALL_ALERT", "trial_index": 114}, "uniqueid": "MTK2351:30LB5CDZNDH1IPR2DSCW2UNRPY9Z0M", "dateTime": 1516994293812}, {"current_trial": 115, "trialdata": {"rt": [10617, 11449, 12427, 13211, 13732, 14126, 14808, 15201, 15565, 18566, 23148, 27998, 29364, 30232, 33216, 33976, 34691, 36739, 37378, 39060, 43495, 44277, 44926, 45752, 46627, 47324, 47900, 48507, 49010, 49661, 50212, 50780, 51874, 53002, 53702, 54865, 55440, 55681, 55921, 56168, 56404, 56630, 56871, 57079, 57320, 57564, 57818, 58059, 58309, 58548, 58815, 59067, 59316, 59570, 59829], "recwords": ["9", "8", "7", "6", "5", "4", "3", "2", "1", "+", "cooper", "dn", "dn", "dn", "dn", "dn", "db", "dn", "dn", "dn", "dn", "dn", "dn", "dnd", "bdb", "db", "db", "dbd", "bd", "bd", "bd", "db", "db", "dnd", "n", "dnd", "n", "n", "n", "n", "n", "n", "n", "n", "n", "n", "n", "n", "n", "n", "n", "n", "n", "n", "n"], "key_times": [10351, 10617, 11305, 11449, 12277, 12427, 13081, 13211, 13586, 13732, 13951, 14126, 14688, 14808, 15032, 15201, 15385, 15565, 17544, 17898, 18566, 20831, 21445, 21802, 21940, 22104, 22372, 22537, 23148, 24994, 26922, 27314, 27998, 28176, 28349, 28481, 28626, 29079, 29364, 29592, 29797, 29954, 30232, 31696, 32592, 32803, 33216, 33561, 33730, 33976, 34318, 34460, 34691, 35535, 36548, 36739, 36973, 37124, 37378, 37509, 37708, 37855, 38648, 39060, 42801, 43175, 43495, 43828, 43941, 44277, 44497, 44658, 44926, 44983, 45121, 45364, 45752, 46038, 46124, 46327, 46627, 46830, 46958, 47324, 47512, 47665, 47900, 47991, 48142, 48360, 48507, 48675, 48811, 49010, 49196, 49344, 49661, 49820, 49965, 50212, 50458, 50619, 50780, 50962, 51174, 51874, 52089, 52429, 52635, 53002, 53273, 53702, 54012, 54180, 54525, 54865, 55303, 55440, 55603, 55681, 55817, 55921, 56052, 56168, 56274, 56404, 56513, 56630, 56733, 56871, 56950, 57079, 57193, 57320, 57426, 57564, 57650, 57818, 57928, 58059, 58177, 58309, 58417, 58548, 58662, 58815, 58910, 59067, 59154, 59316, 59437, 59570, 59698, 59829, 59938], "trial_type": "free-recall", "conditions": [24, 1600, "v", 24000], "internal_node_id": "0.0-88.0-0.0", "key_presses": [105, 13, 104, 13, 103, 13, 102, 13, 101, 13, 100, 13, 99, 13, 98, 13, 97, 13, 16, 61, 13, 16, 67, 79, 79, 80, 69, 82, 13, 16, 68, 78, 13, 16, 68, 78, 68, 8, 13, 16, 68, 78, 13, 20, 68, 78, 13, 68, 78, 13, 68, 66, 13, 68, 78, 13, 68, 78, 13, 68, 78, 68, 8, 13, 68, 78, 13, 68, 78, 13, 68, 78, 13, 68, 78, 68, 13, 66, 68, 66, 13, 68, 66, 13, 68, 66, 13, 68, 66, 68, 13, 66, 68, 13, 66, 68, 13, 66, 68, 13, 68, 66, 13, 68, 66, 13, 68, 78, 68, 13, 78, 13, 68, 78, 68, 13, 78, 13, 78, 13, 78, 13, 78, 13, 78, 13, 78, 13, 78, 13, 78, 13, 78, 13, 78, 13, 78, 13, 78, 13, 78, 13, 78, 13, 78, 13, 78, 13, 78, 13, 78, 13, 78, 13, 78], "trial": 2, "time_elapsed": 596001, "type": "FREE_RECALL", "trial_index": 115}, "uniqueid": "MTK2351:30LB5CDZNDH1IPR2DSCW2UNRPY9Z0M", "dateTime": 1516994353825}, {"current_trial": 116, "trialdata": {"rt": 1272, "trial_type": "text", "internal_node_id": "0.0-89.0", "time_elapsed": 599280, "key_press": 13, "type": "INSTRUCTIONS", "trial_index": 116}, "uniqueid": "MTK2351:30LB5CDZNDH1IPR2DSCW2UNRPY9Z0M", "dateTime": 1516994357098}, {"current_trial": 117, "trialdata": {"rt": [3637, 10098], "trial_type": "math-distractor", "key_times": [3314, 3426, 3637, 9734, 9819, 10098], "responses": ["18", "12"], "num2": [2, 3, 1], "num3": [7, 4, 5], "conditions": [12, 1600, "v", 12000], "internal_node_id": "0.0-90.0", "key_presses": [97, 104, 13, 97, 98, 13], "trial": 3, "time_elapsed": 613287, "type": "DISTRACTOR", "trial_index": 117, "num1": [9, 5, 1]}, "uniqueid": "MTK2351:30LB5CDZNDH1IPR2DSCW2UNRPY9Z0M", "dateTime": 1516994371105}, {"current_trial": 118, "trialdata": {"rt": -1, "trial_type": "single-stim", "stimulus": "<p id=\"stim\">10</p>", "internal_node_id": "0.0-91.0-0.0", "time_elapsed": 616288, "key_press": -1, "trial_index": 118}, "uniqueid": "MTK2351:30LB5CDZNDH1IPR2DSCW2UNRPY9Z0M", "dateTime": 1516994374107}, {"current_trial": 119, "trialdata": {"rt": -1, "trial_type": "single-stim", "stimulus": "<p id=\"stim\">9</p>", "internal_node_id": "0.0-91.0-1.0", "time_elapsed": 617290, "key_press": -1, "trial_index": 119}, "uniqueid": "MTK2351:30LB5CDZNDH1IPR2DSCW2UNRPY9Z0M", "dateTime": 1516994375108}, {"current_trial": 120, "trialdata": {"rt": -1, "trial_type": "single-stim", "stimulus": "<p id=\"stim\">8</p>", "internal_node_id": "0.0-91.0-2.0", "time_elapsed": 618291, "key_press": -1, "trial_index": 120}, "uniqueid": "MTK2351:30LB5CDZNDH1IPR2DSCW2UNRPY9Z0M", "dateTime": 1516994376110}, {"current_trial": 121, "trialdata": {"rt": -1, "trial_type": "single-stim", "stimulus": "<p id=\"stim\">7</p>", "internal_node_id": "0.0-91.0-3.0", "time_elapsed": 619293, "key_press": -1, "trial_index": 121}, "uniqueid": "MTK2351:30LB5CDZNDH1IPR2DSCW2UNRPY9Z0M", "dateTime": 1516994377111}, {"current_trial": 122, "trialdata": {"rt": -1, "trial_type": "single-stim", "stimulus": "<p id=\"stim\">6</p>", "internal_node_id": "0.0-91.0-4.0", "time_elapsed": 620294, "key_press": -1, "trial_index": 122}, "uniqueid": "MTK2351:30LB5CDZNDH1IPR2DSCW2UNRPY9Z0M", "dateTime": 1516994378113}, {"current_trial": 123, "trialdata": {"rt": -1, "trial_type": "single-stim", "stimulus": "<p id=\"stim\">5</p>", "internal_node_id": "0.0-91.0-5.0", "time_elapsed": 621295, "key_press": -1, "trial_index": 123}, "uniqueid": "MTK2351:30LB5CDZNDH1IPR2DSCW2UNRPY9Z0M", "dateTime": 1516994379114}, {"current_trial": 124, "trialdata": {"rt": -1, "trial_type": "single-stim", "stimulus": "<p id=\"stim\">4</p>", "internal_node_id": "0.0-91.0-6.0", "time_elapsed": 622296, "key_press": -1, "trial_index": 124}, "uniqueid": "MTK2351:30LB5CDZNDH1IPR2DSCW2UNRPY9Z0M", "dateTime": 1516994380115}, {"current_trial": 125, "trialdata": {"rt": -1, "trial_type": "single-stim", "stimulus": "<p id=\"stim\">3</p>", "internal_node_id": "0.0-91.0-7.0", "time_elapsed": 623298, "key_press": -1, "trial_index": 125}, "uniqueid": "MTK2351:30LB5CDZNDH1IPR2DSCW2UNRPY9Z0M", "dateTime": 1516994381116}, {"current_trial": 126, "trialdata": {"rt": -1, "trial_type": "single-stim", "stimulus": "<p id=\"stim\">2</p>", "internal_node_id": "0.0-91.0-8.0", "time_elapsed": 624300, "key_press": -1, "trial_index": 126}, "uniqueid": "MTK2351:30LB5CDZNDH1IPR2DSCW2UNRPY9Z0M", "dateTime": 1516994382118}, {"current_trial": 127, "trialdata": {"rt": -1, "trial_type": "single-stim", "stimulus": "<p id=\"stim\">1</p>", "internal_node_id": "0.0-91.0-9.0", "time_elapsed": 625302, "key_press": -1, "trial_index": 127}, "uniqueid": "MTK2351:30LB5CDZNDH1IPR2DSCW2UNRPY9Z0M", "dateTime": 1516994383121}, {"current_trial": 128, "trialdata": {"rt": -1, "trial_type": "single-stim", "stimulus": "<p id=\"stim\">+</p>", "internal_node_id": "0.0-92.0-0.0", "time_elapsed": 626803, "key_press": -1, "type": "FIXATION", "trial_index": 128}, "uniqueid": "MTK2351:30LB5CDZNDH1IPR2DSCW2UNRPY9Z0M", "dateTime": 1516994384622}, {"current_trial": 129, "trialdata": {"rt": -1, "trial_type": "single-stim", "word": "robber", "stimulus": "<p id=\"stim\">ROBBER</p>", "conditions": [12, 1600, "v", 12000], "internal_node_id": "0.0-93.0", "trial": 3, "time_elapsed": 628405, "serialpos": 0, "key_press": -1, "wordID": 1196, "type": "PRES_VIS", "trial_index": 129}, "uniqueid": "MTK2351:30LB5CDZNDH1IPR2DSCW2UNRPY9Z0M", "dateTime": 1516994386224}, {"current_trial": 130, "trialdata": {"rt": -1, "trial_type": "single-stim", "word": "tablet", "stimulus": "<p id=\"stim\">TABLET</p>", "conditions": [12, 1600, "v", 12000], "internal_node_id": "0.0-94.0", "trial": 3, "time_elapsed": 631146, "serialpos": 1, "key_press": -1, "wordID": 1426, "type": "PRES_VIS", "trial_index": 130}, "uniqueid": "MTK2351:30LB5CDZNDH1IPR2DSCW2UNRPY9Z0M", "dateTime": 1516994388965}, {"current_trial": 131, "trialdata": {"rt": -1, "trial_type": "single-stim", "word": "piano", "stimulus": "<p id=\"stim\">PIANO</p>", "conditions": [12, 1600, "v", 12000], "internal_node_id": "0.0-95.0", "trial": 3, "time_elapsed": 633669, "serialpos": 2, "key_press": -1, "wordID": 1056, "type": "PRES_VIS", "trial_index": 131}, "uniqueid": "MTK2351:30LB5CDZNDH1IPR2DSCW2UNRPY9Z0M", "dateTime": 1516994391488}, {"current_trial": 132, "trialdata": {"rt": -1, "trial_type": "single-stim", "word": "carrot", "stimulus": "<p id=\"stim\">CARROT</p>", "conditions": [12, 1600, "v", 12000], "internal_node_id": "0.0-96.0", "trial": 3, "time_elapsed": 636080, "serialpos": 3, "key_press": -1, "wordID": 248, "type": "PRES_VIS", "trial_index": 132}, "uniqueid": "MTK2351:30LB5CDZNDH1IPR2DSCW2UNRPY9Z0M", "dateTime": 1516994393898}, {"current_trial": 133, "trialdata": {"rt": -1, "trial_type": "single-stim", "word": "crab", "stimulus": "<p id=\"stim\">CRAB</p>", "conditions": [12, 1600, "v", 12000], "internal_node_id": "0.0-97.0", "trial": 3, "time_elapsed": 638713, "serialpos": 4, "key_press": -1, "wordID": 396, "type": "PRES_VIS", "trial_index": 133}, "uniqueid": "MTK2351:30LB5CDZNDH1IPR2DSCW2UNRPY9Z0M", "dateTime": 1516994396531}, {"current_trial": 134, "trialdata": {"rt": -1, "trial_type": "single-stim", "word": "plaster", "stimulus": "<p id=\"stim\">PLASTER</p>", "conditions": [12, 1600, "v", 12000], "internal_node_id": "0.0-98.0", "trial": 3, "time_elapsed": 641194, "serialpos": 5, "key_press": -1, "wordID": 1084, "type": "PRES_VIS", "trial_index": 134}, "uniqueid": "MTK2351:30LB5CDZNDH1IPR2DSCW2UNRPY9Z0M", "dateTime": 1516994399013}, {"current_trial": 135, "trialdata": {"rt": -1, "trial_type": "single-stim", "word": "burglar", "stimulus": "<p id=\"stim\">BURGLAR</p>", "conditions": [12, 1600, "v", 12000], "internal_node_id": "0.0-99.0", "trial": 3, "time_elapsed": 643668, "serialpos": 6, "key_press": -1, "wordID": 199, "type": "PRES_VIS", "trial_index": 135}, "uniqueid": "MTK2351:30LB5CDZNDH1IPR2DSCW2UNRPY9Z0M", "dateTime": 1516994401487}, {"current_trial": 136, "trialdata": {"rt": -1, "trial_type": "single-stim", "word": "lady", "stimulus": "<p id=\"stim\">LADY</p>", "conditions": [12, 1600, "v", 12000], "internal_node_id": "0.0-100.0", "trial": 3, "time_elapsed": 646461, "serialpos": 7, "key_press": -1, "wordID": 793, "type": "PRES_VIS", "trial_index": 136}, "uniqueid": "MTK2351:30LB5CDZNDH1IPR2DSCW2UNRPY9Z0M", "dateTime": 1516994404279}, {"current_trial": 137, "trialdata": {"rt": -1, "trial_type": "single-stim", "word": "palace", "stimulus": "<p id=\"stim\">PALACE</p>", "conditions": [12, 1600, "v", 12000], "internal_node_id": "0.0-101.0", "trial": 3, "time_elapsed": 648866, "serialpos": 8, "key_press": -1, "wordID": 1005, "type": "PRES_VIS", "trial_index": 137}, "uniqueid": "MTK2351:30LB5CDZNDH1IPR2DSCW2UNRPY9Z0M", "dateTime": 1516994406684}, {"current_trial": 138, "trialdata": {"rt": -1, "trial_type": "single-stim", "word": "taxi", "stimulus": "<p id=\"stim\">TAXI</p>", "conditions": [12, 1600, "v", 12000], "internal_node_id": "0.0-102.0", "trial": 3, "time_elapsed": 651569, "serialpos": 9, "key_press": -1, "wordID": 1437, "type": "PRES_VIS", "trial_index": 138}, "uniqueid": "MTK2351:30LB5CDZNDH1IPR2DSCW2UNRPY9Z0M", "dateTime": 1516994409387}, {"current_trial": 139, "trialdata": {"rt": -1, "trial_type": "single-stim", "word": "chapel", "stimulus": "<p id=\"stim\">CHAPEL</p>", "conditions": [12, 1600, "v", 12000], "internal_node_id": "0.0-103.0", "trial": 3, "time_elapsed": 654267, "serialpos": 10, "key_press": -1, "wordID": 279, "type": "PRES_VIS", "trial_index": 139}, "uniqueid": "MTK2351:30LB5CDZNDH1IPR2DSCW2UNRPY9Z0M", "dateTime": 1516994412085}, {"current_trial": 140, "trialdata": {"rt": -1, "trial_type": "single-stim", "word": "church", "stimulus": "<p id=\"stim\">CHURCH</p>", "conditions": [12, 1600, "v", 12000], "internal_node_id": "0.0-104.0", "trial": 3, "time_elapsed": 656760, "serialpos": 11, "key_press": -1, "wordID": 306, "type": "PRES_VIS", "trial_index": 140}, "uniqueid": "MTK2351:30LB5CDZNDH1IPR2DSCW2UNRPY9Z0M", "dateTime": 1516994414579}, {"current_trial": 141, "trialdata": {"rt": -1, "trial_type": "single-stim", "stimulus": "", "internal_node_id": "0.0-105.0-0.0", "time_elapsed": 658984, "key_press": -1, "type": "PRE_RECALL_DELAY", "trial_index": 141}, "uniqueid": "MTK2351:30LB5CDZNDH1IPR2DSCW2UNRPY9Z0M", "dateTime": 1516994416803}, {"current_trial": 142, "trialdata": {"rt": -1000, "trial_type": "single-audio", "stimulus": "/static/audio/400Hz.wav", "internal_node_id": "0.0-106.0", "time_elapsed": 659487, "key_press": -1, "type": "PRE_RECALL_ALERT", "trial_index": 142}, "uniqueid": "MTK2351:30LB5CDZNDH1IPR2DSCW2UNRPY9Z0M", "dateTime": 1516994417305}, {"current_trial": 143, "trialdata": {"rt": [5100, 7075, 8879, 12097, 14671, 18078, 21943, 22143, 22343, 22543, 22735, 22943, 23192, 23469, 23762, 24058, 24338, 24604, 24872, 25134, 25403, 25657, 25898, 26144, 26411, 26668, 26920, 27179, 27440, 27696, 27961, 28206, 28470, 28707, 29195, 29586, 29891, 30273, 30595, 30942, 31259, 31588, 31868, 32147, 32414, 32681, 32944, 33213, 33463, 33721, 34005, 34256, 34556, 34811, 35087, 35349, 35605, 35924, 36198, 36496, 36809, 37087, 37385, 37680, 38000, 38280, 38562, 38851, 39132, 39422, 39702, 39987, 40286, 40575, 40828, 41267, 41710, 42110, 42451, 42804, 43252, 43851, 44381, 44807, 45203, 46433, 47774, 48631, 48882, 49190, 50022, 50430, 50713, 50991, 51246, 51538, 51827, 52107, 52373, 52659, 52913, 53176, 53420, 53692, 53943, 54244, 54523, 54778, 55048, 55316, 55566, 55839, 56098, 56397, 56764, 57102, 57429, 57795, 58117, 58507, 58903, 59381, 59849], "recwords": ["carrot", "church", "piano", "crab", "plaster", "lady", "n", "n", "n", "n", "n", "n", "n", "n", "n", "n", "n", "n", "n", "n", "n", "n", "n", "n", "n", "n", "n", "n", "n", "n", "n", "n", "n", "n", "n", "n", "n", "n", "n", "n", "n", "n", "n", "n", "n", "n", "n", "n", "n", "n", "n", "n", "n", "n", "n", "n", "n", "n", "n", "n", "n", "n", "n", "n", "n", "n", "n", "n", "n", "n", "n", "n", "n", "n", "n", "n", "n", "n", "n", "n", "n", "n", "n", "n", "n", "ndn", "dn", "n", "n", "n", "n", "n", "n", "n", "n", "n", "n", "n", "n", "n", "n", "n", "n", "n", "n", "n", "n", "n", "n", "n", "n", "n", "n", "n", "n", "n", "n", "n", "n", "n", "n", "n", "n"], "key_times": [1086, 1264, 1455, 1752, 1885, 2039, 2198, 5100, 5761, 5899, 6180, 6425, 6679, 6818, 7075, 7740, 7922, 8109, 8293, 8691, 8879, 11005, 11238, 11445, 11893, 12097, 13466, 13599, 13701, 14028, 14301, 14415, 14522, 14671, 17190, 17321, 17574, 17782, 18078, 20147, 20330, 21350, 21762, 21943, 22027, 22143, 22219, 22343, 22409, 22543, 22600, 22735, 22804, 22943, 23016, 23192, 23334, 23469, 23645, 23762, 23929, 24058, 24225, 24338, 24480, 24604, 24758, 24872, 25014, 25134, 25281, 25403, 25539, 25657, 25788, 25898, 26042, 26144, 26284, 26411, 26556, 26668, 26807, 26920, 27061, 27179, 27319, 27440, 27574, 27696, 27825, 27961, 28096, 28206, 28346, 28470, 28601, 28707, 28871, 29195, 29427, 29586, 29780, 29891, 30094, 30273, 30440, 30595, 30778, 30942, 31110, 31259, 31437, 31588, 31732, 31868, 32021, 32147, 32287, 32414, 32557, 32681, 32825, 32944, 33083, 33213, 33311, 33463, 33590, 33721, 33879, 34005, 34124, 34256, 34420, 34556, 34685, 34811, 34954, 35087, 35220, 35349, 35487, 35605, 35760, 35924, 36066, 36198, 36381, 36496, 36668, 36809, 36959, 37087, 37257, 37385, 37553, 37680, 37854, 38000, 38149, 38280, 38429, 38562, 38714, 38851, 38998, 39132, 39304, 39422, 39580, 39702, 39863, 39987, 40146, 40286, 40428, 40575, 40697, 40828, 40957, 41267, 41457, 41710, 41909, 42110, 42261, 42451, 42613, 42804, 43035, 43252, 43569, 43851, 44136, 44381, 44596, 44807, 44952, 45203, 45413, 45955, 46253, 46433, 47253, 47491, 47774, 48367, 48631, 48738, 48882, 49027, 49190, 49401, 50022, 50272, 50430, 50571, 50713, 50843, 50991, 51107, 51246, 51373, 51538, 51629, 51827, 51931, 52107, 52201, 52373, 52479, 52659, 52750, 52913, 53020, 53176, 53292, 53420, 53550, 53692, 53788, 53943, 54068, 54244, 54367, 54523, 54636, 54778, 54909, 55048, 55170, 55316, 55421, 55566, 55692, 55839, 55956, 56098, 56196, 56397, 56539, 56764, 56951, 57102, 57256, 57429, 57597, 57795, 57954, 58117, 58327, 58507, 58686, 58903, 59144, 59381, 59572, 59849], "trial_type": "free-recall", "conditions": [12, 1600, "v", 12000], "internal_node_id": "0.0-107.0-0.0", "key_presses": [16, 67, 65, 82, 82, 79, 84, 13, 67, 72, 85, 82, 67, 72, 13, 80, 73, 65, 78, 79, 13, 67, 82, 65, 66, 13, 80, 76, 65, 83, 84, 69, 82, 13, 76, 65, 68, 89, 13, 16, 78, 8, 78, 13, 78, 13, 78, 13, 78, 13, 78, 13, 78, 13, 78, 13, 78, 13, 78, 13, 78, 13, 78, 13, 78, 13, 78, 13, 78, 13, 78, 13, 78, 13, 78, 13, 78, 13, 78, 13, 78, 13, 78, 13, 78, 13, 78, 13, 78, 13, 78, 13, 78, 13, 78, 13, 78, 13, 78, 13, 78, 13, 78, 13, 78, 13, 78, 13, 78, 13, 78, 13, 78, 13, 78, 13, 78, 13, 78, 13, 78, 13, 78, 13, 78, 13, 78, 13, 78, 13, 78, 13, 78, 13, 78, 13, 78, 13, 78, 13, 78, 13, 78, 13, 78, 13, 78, 13, 78, 13, 78, 13, 78, 13, 78, 13, 78, 13, 78, 13, 78, 13, 78, 13, 78, 13, 78, 13, 78, 13, 78, 13, 78, 13, 78, 13, 78, 13, 78, 13, 78, 13, 78, 13, 78, 13, 78, 13, 78, 13, 78, 13, 78, 13, 78, 13, 78, 13, 78, 13, 78, 68, 78, 13, 68, 78, 13, 78, 13, 78, 13, 78, 13, 78, 13, 78, 13, 78, 13, 78, 13, 78, 13, 78, 13, 78, 13, 78, 13, 78, 13, 78, 13, 78, 13, 78, 13, 78, 13, 78, 13, 78, 13, 78, 13, 78, 13, 78, 13, 78, 13, 78, 13, 78, 13, 78, 13, 78, 13, 78, 13, 78, 13, 78, 13, 78, 13, 78, 13, 78, 13, 78, 13, 78, 13, 78, 13, 78, 13], "trial": 3, "time_elapsed": 719494, "type": "FREE_RECALL", "trial_index": 143}, "uniqueid": "MTK2351:30LB5CDZNDH1IPR2DSCW2UNRPY9Z0M", "dateTime": 1516994477318}, {"current_trial": 144, "trialdata": {"rt": 1308, "trial_type": "text", "internal_node_id": "0.0-108.0", "time_elapsed": 722809, "key_press": 13, "type": "INSTRUCTIONS", "trial_index": 144}, "uniqueid": "MTK2351:30LB5CDZNDH1IPR2DSCW2UNRPY9Z0M", "dateTime": 1516994480627}, {"current_trial": 145, "trialdata": {"rt": [5320, 7689, 9893], "trial_type": "math-distractor", "key_times": [3425, 3473, 5320, 7281, 7494, 7689, 9549, 9674, 9893], "responses": ["16", "18", "11"], "num2": [9, 7, 8, 7], "num3": [3, 9, 2, 6], "conditions": [24, 800, "v", 12000], "internal_node_id": "0.0-109.0", "key_presses": [97, 102, 13, 97, 104, 13, 97, 97, 13], "trial": 4, "time_elapsed": 736817, "type": "DISTRACTOR", "trial_index": 145, "num1": [4, 2, 1, 4]}, "uniqueid": "MTK2351:30LB5CDZNDH1IPR2DSCW2UNRPY9Z0M", "dateTime": 1516994494635}, {"current_trial": 146, "trialdata": {"rt": -1, "trial_type": "single-stim", "stimulus": "<p id=\"stim\">10</p>", "internal_node_id": "0.0-110.0-0.0", "time_elapsed": 739818, "key_press": -1, "trial_index": 146}, "uniqueid": "MTK2351:30LB5CDZNDH1IPR2DSCW2UNRPY9Z0M", "dateTime": 1516994497636}, {"current_trial": 147, "trialdata": {"rt": -1, "trial_type": "single-stim", "stimulus": "<p id=\"stim\">9</p>", "internal_node_id": "0.0-110.0-1.0", "time_elapsed": 740819, "key_press": -1, "trial_index": 147}, "uniqueid": "MTK2351:30LB5CDZNDH1IPR2DSCW2UNRPY9Z0M", "dateTime": 1516994498637}, {"current_trial": 148, "trialdata": {"rt": -1, "trial_type": "single-stim", "stimulus": "<p id=\"stim\">8</p>", "internal_node_id": "0.0-110.0-2.0", "time_elapsed": 741820, "key_press": -1, "trial_index": 148}, "uniqueid": "MTK2351:30LB5CDZNDH1IPR2DSCW2UNRPY9Z0M", "dateTime": 1516994499638}, {"current_trial": 149, "trialdata": {"rt": -1, "trial_type": "single-stim", "stimulus": "<p id=\"stim\">7</p>", "internal_node_id": "0.0-110.0-3.0", "time_elapsed": 742821, "key_press": -1, "trial_index": 149}, "uniqueid": "MTK2351:30LB5CDZNDH1IPR2DSCW2UNRPY9Z0M", "dateTime": 1516994500640}, {"current_trial": 150, "trialdata": {"rt": -1, "trial_type": "single-stim", "stimulus": "<p id=\"stim\">6</p>", "internal_node_id": "0.0-110.0-4.0", "time_elapsed": 743824, "key_press": -1, "trial_index": 150}, "uniqueid": "MTK2351:30LB5CDZNDH1IPR2DSCW2UNRPY9Z0M", "dateTime": 1516994501642}, {"current_trial": 151, "trialdata": {"rt": -1, "trial_type": "single-stim", "stimulus": "<p id=\"stim\">5</p>", "internal_node_id": "0.0-110.0-5.0", "time_elapsed": 744825, "key_press": -1, "trial_index": 151}, "uniqueid": "MTK2351:30LB5CDZNDH1IPR2DSCW2UNRPY9Z0M", "dateTime": 1516994502643}, {"current_trial": 152, "trialdata": {"rt": -1, "trial_type": "single-stim", "stimulus": "<p id=\"stim\">4</p>", "internal_node_id": "0.0-110.0-6.0", "time_elapsed": 745827, "key_press": -1, "trial_index": 152}, "uniqueid": "MTK2351:30LB5CDZNDH1IPR2DSCW2UNRPY9Z0M", "dateTime": 1516994503645}, {"current_trial": 153, "trialdata": {"rt": -1, "trial_type": "single-stim", "stimulus": "<p id=\"stim\">3</p>", "internal_node_id": "0.0-110.0-7.0", "time_elapsed": 746828, "key_press": -1, "trial_index": 153}, "uniqueid": "MTK2351:30LB5CDZNDH1IPR2DSCW2UNRPY9Z0M", "dateTime": 1516994504646}, {"current_trial": 154, "trialdata": {"rt": -1, "trial_type": "single-stim", "stimulus": "<p id=\"stim\">2</p>", "internal_node_id": "0.0-110.0-8.0", "time_elapsed": 747829, "key_press": -1, "trial_index": 154}, "uniqueid": "MTK2351:30LB5CDZNDH1IPR2DSCW2UNRPY9Z0M", "dateTime": 1516994505648}, {"current_trial": 155, "trialdata": {"rt": -1, "trial_type": "single-stim", "stimulus": "<p id=\"stim\">1</p>", "internal_node_id": "0.0-110.0-9.0", "time_elapsed": 748831, "key_press": -1, "trial_index": 155}, "uniqueid": "MTK2351:30LB5CDZNDH1IPR2DSCW2UNRPY9Z0M", "dateTime": 1516994506649}, {"current_trial": 156, "trialdata": {"rt": -1, "trial_type": "single-stim", "stimulus": "<p id=\"stim\">+</p>", "internal_node_id": "0.0-111.0-0.0", "time_elapsed": 750332, "key_press": -1, "type": "FIXATION", "trial_index": 156}, "uniqueid": "MTK2351:30LB5CDZNDH1IPR2DSCW2UNRPY9Z0M", "dateTime": 1516994508151}, {"current_trial": 157, "trialdata": {"rt": -1, "trial_type": "single-stim", "word": "france", "stimulus": "<p id=\"stim\">FRANCE</p>", "conditions": [24, 800, "v", 12000], "internal_node_id": "0.0-112.0", "trial": 4, "time_elapsed": 751134, "serialpos": 0, "key_press": -1, "wordID": 600, "type": "PRES_VIS", "trial_index": 157}, "uniqueid": "MTK2351:30LB5CDZNDH1IPR2DSCW2UNRPY9Z0M", "dateTime": 1516994508952}, {"current_trial": 158, "trialdata": {"rt": -1, "trial_type": "single-stim", "word": "japan", "stimulus": "<p id=\"stim\">JAPAN</p>", "conditions": [24, 800, "v", 12000], "internal_node_id": "0.0-113.0", "trial": 4, "time_elapsed": 752941, "serialpos": 1, "key_press": -1, "wordID": 748, "type": "PRES_VIS", "trial_index": 158}, "uniqueid": "MTK2351:30LB5CDZNDH1IPR2DSCW2UNRPY9Z0M", "dateTime": 1516994510759}, {"current_trial": 159, "trialdata": {"rt": -1, "trial_type": "single-stim", "word": "elbow", "stimulus": "<p id=\"stim\">ELBOW</p>", "conditions": [24, 800, "v", 12000], "internal_node_id": "0.0-114.0", "trial": 4, "time_elapsed": 754611, "serialpos": 2, "key_press": -1, "wordID": 519, "type": "PRES_VIS", "trial_index": 159}, "uniqueid": "MTK2351:30LB5CDZNDH1IPR2DSCW2UNRPY9Z0M", "dateTime": 1516994512430}, {"current_trial": 160, "trialdata": {"rt": -1, "trial_type": "single-stim", "word": "razor", "stimulus": "<p id=\"stim\">RAZOR</p>", "conditions": [24, 800, "v", 12000], "internal_node_id": "0.0-115.0", "trial": 4, "time_elapsed": 756574, "serialpos": 3, "key_press": -1, "wordID": 1170, "type": "PRES_VIS", "trial_index": 160}, "uniqueid": "MTK2351:30LB5CDZNDH1IPR2DSCW2UNRPY9Z0M", "dateTime": 1516994514392}, {"current_trial": 161, "trialdata": {"rt": -1, "trial_type": "single-stim", "word": "space", "stimulus": "<p id=\"stim\">SPACE</p>", "conditions": [24, 800, "v", 12000], "internal_node_id": "0.0-116.0", "trial": 4, "time_elapsed": 758510, "serialpos": 4, "key_press": -1, "wordID": 1344, "type": "PRES_VIS", "trial_index": 161}, "uniqueid": "MTK2351:30LB5CDZNDH1IPR2DSCW2UNRPY9Z0M", "dateTime": 1516994516328}, {"current_trial": 162, "trialdata": {"rt": -1, "trial_type": "single-stim", "word": "soda", "stimulus": "<p id=\"stim\">SODA</p>", "conditions": [24, 800, "v", 12000], "internal_node_id": "0.0-117.0", "trial": 4, "time_elapsed": 760404, "serialpos": 5, "key_press": -1, "wordID": 1340, "type": "PRES_VIS", "trial_index": 162}, "uniqueid": "MTK2351:30LB5CDZNDH1IPR2DSCW2UNRPY9Z0M", "dateTime": 1516994518222}, {"current_trial": 163, "trialdata": {"rt": -1, "trial_type": "single-stim", "word": "gift", "stimulus": "<p id=\"stim\">GIFT</p>", "conditions": [24, 800, "v", 12000], "internal_node_id": "0.0-118.0", "trial": 4, "time_elapsed": 762260, "serialpos": 6, "key_press": -1, "wordID": 634, "type": "PRES_VIS", "trial_index": 163}, "uniqueid": "MTK2351:30LB5CDZNDH1IPR2DSCW2UNRPY9Z0M", "dateTime": 1516994520079}, {"current_trial": 164, "trialdata": {"rt": -1, "trial_type": "single-stim", "word": "bison", "stimulus": "<p id=\"stim\">BISON</p>", "conditions": [24, 800, "v", 12000], "internal_node_id": "0.0-119.0", "trial": 4, "time_elapsed": 763869, "serialpos": 7, "key_press": -1, "wordID": 130, "type": "PRES_VIS", "trial_index": 164}, "uniqueid": "MTK2351:30LB5CDZNDH1IPR2DSCW2UNRPY9Z0M", "dateTime": 1516994521687}, {"current_trial": 165, "trialdata": {"rt": -1, "trial_type": "single-stim", "word": "whistle", "stimulus": "<p id=\"stim\">WHISTLE</p>", "conditions": [24, 800, "v", 12000], "internal_node_id": "0.0-120.0", "trial": 4, "time_elapsed": 765688, "serialpos": 8, "key_press": -1, "wordID": 1605, "type": "PRES_VIS", "trial_index": 165}, "uniqueid": "MTK2351:30LB5CDZNDH1IPR2DSCW2UNRPY9Z0M", "dateTime": 1516994523506}, {"current_trial": 166, "trialdata": {"rt": -1, "trial_type": "single-stim", "word": "branch", "stimulus": "<p id=\"stim\">BRANCH</p>", "conditions": [24, 800, "v", 12000], "internal_node_id": "0.0-121.0", "trial": 4, "time_elapsed": 767295, "serialpos": 9, "key_press": -1, "wordID": 167, "type": "PRES_VIS", "trial_index": 166}, "uniqueid": "MTK2351:30LB5CDZNDH1IPR2DSCW2UNRPY9Z0M", "dateTime": 1516994525113}, {"current_trial": 167, "trialdata": {"rt": -1, "trial_type": "single-stim", "word": "friend", "stimulus": "<p id=\"stim\">FRIEND</p>", "conditions": [24, 800, "v", 12000], "internal_node_id": "0.0-122.0", "trial": 4, "time_elapsed": 769202, "serialpos": 10, "key_press": -1, "wordID": 605, "type": "PRES_VIS", "trial_index": 167}, "uniqueid": "MTK2351:30LB5CDZNDH1IPR2DSCW2UNRPY9Z0M", "dateTime": 1516994527020}, {"current_trial": 168, "trialdata": {"rt": -1, "trial_type": "single-stim", "word": "popcorn", "stimulus": "<p id=\"stim\">POPCORN</p>", "conditions": [24, 800, "v", 12000], "internal_node_id": "0.0-123.0", "trial": 4, "time_elapsed": 770865, "serialpos": 11, "key_press": -1, "wordID": 1103, "type": "PRES_VIS", "trial_index": 168}, "uniqueid": "MTK2351:30LB5CDZNDH1IPR2DSCW2UNRPY9Z0M", "dateTime": 1516994528683}, {"current_trial": 169, "trialdata": {"rt": -1, "trial_type": "single-stim", "word": "canal", "stimulus": "<p id=\"stim\">CANAL</p>", "conditions": [24, 800, "v", 12000], "internal_node_id": "0.0-124.0", "trial": 4, "time_elapsed": 772866, "serialpos": 12, "key_press": -1, "wordID": 225, "type": "PRES_VIS", "trial_index": 169}, "uniqueid": "MTK2351:30LB5CDZNDH1IPR2DSCW2UNRPY9Z0M", "dateTime": 1516994530684}, {"current_trial": 170, "trialdata": {"rt": -1, "trial_type": "single-stim", "word": "flower", "stimulus": "<p id=\"stim\">FLOWER</p>", "conditions": [24, 800, "v", 12000], "internal_node_id": "0.0-125.0", "trial": 4, "time_elapsed": 774837, "serialpos": 13, "key_press": -1, "wordID": 583, "type": "PRES_VIS", "trial_index": 170}, "uniqueid": "MTK2351:30LB5CDZNDH1IPR2DSCW2UNRPY9Z0M", "dateTime": 1516994532656}, {"current_trial": 171, "trialdata": {"rt": -1, "trial_type": "single-stim", "word": "backbone", "stimulus": "<p id=\"stim\">BACKBONE</p>", "conditions": [24, 800, "v", 12000], "internal_node_id": "0.0-126.0", "trial": 4, "time_elapsed": 776569, "serialpos": 14, "key_press": -1, "wordID": 65, "type": "PRES_VIS", "trial_index": 171}, "uniqueid": "MTK2351:30LB5CDZNDH1IPR2DSCW2UNRPY9Z0M", "dateTime": 1516994534388}, {"current_trial": 172, "trialdata": {"rt": -1, "trial_type": "single-stim", "word": "leader", "stimulus": "<p id=\"stim\">LEADER</p>", "conditions": [24, 800, "v", 12000], "internal_node_id": "0.0-127.0", "trial": 4, "time_elapsed": 778419, "serialpos": 15, "key_press": -1, "wordID": 806, "type": "PRES_VIS", "trial_index": 172}, "uniqueid": "MTK2351:30LB5CDZNDH1IPR2DSCW2UNRPY9Z0M", "dateTime": 1516994536237}, {"current_trial": 173, "trialdata": {"rt": -1, "trial_type": "single-stim", "word": "valley", "stimulus": "<p id=\"stim\">VALLEY</p>", "conditions": [24, 800, "v", 12000], "internal_node_id": "0.0-128.0", "trial": 4, "time_elapsed": 780345, "serialpos": 16, "key_press": -1, "wordID": 1544, "type": "PRES_VIS", "trial_index": 173}, "uniqueid": "MTK2351:30LB5CDZNDH1IPR2DSCW2UNRPY9Z0M", "dateTime": 1516994538163}, {"current_trial": 174, "trialdata": {"rt": -1, "trial_type": "single-stim", "word": "canyon", "stimulus": "<p id=\"stim\">CANYON</p>", "conditions": [24, 800, "v", 12000], "internal_node_id": "0.0-129.0", "trial": 4, "time_elapsed": 782238, "serialpos": 17, "key_press": -1, "wordID": 234, "type": "PRES_VIS", "trial_index": 174}, "uniqueid": "MTK2351:30LB5CDZNDH1IPR2DSCW2UNRPY9Z0M", "dateTime": 1516994540056}, {"current_trial": 175, "trialdata": {"rt": -1, "trial_type": "single-stim", "word": "wrist", "stimulus": "<p id=\"stim\">WRIST</p>", "conditions": [24, 800, "v", 12000], "internal_node_id": "0.0-130.0", "trial": 4, "time_elapsed": 783883, "serialpos": 18, "key_press": -1, "wordID": 1625, "type": "PRES_VIS", "trial_index": 175}, "uniqueid": "MTK2351:30LB5CDZNDH1IPR2DSCW2UNRPY9Z0M", "dateTime": 1516994541701}, {"current_trial": 176, "trialdata": {"rt": -1, "trial_type": "single-stim", "word": "shrub", "stimulus": "<p id=\"stim\">SHRUB</p>", "conditions": [24, 800, "v", 12000], "internal_node_id": "0.0-131.0", "trial": 4, "time_elapsed": 785830, "serialpos": 19, "key_press": -1, "wordID": 1298, "type": "PRES_VIS", "trial_index": 176}, "uniqueid": "MTK2351:30LB5CDZNDH1IPR2DSCW2UNRPY9Z0M", "dateTime": 1516994543649}, {"current_trial": 177, "trialdata": {"rt": -1, "trial_type": "single-stim", "word": "staple", "stimulus": "<p id=\"stim\">STAPLE</p>", "conditions": [24, 800, "v", 12000], "internal_node_id": "0.0-132.0", "trial": 4, "time_elapsed": 787452, "serialpos": 20, "key_press": -1, "wordID": 1370, "type": "PRES_VIS", "trial_index": 177}, "uniqueid": "MTK2351:30LB5CDZNDH1IPR2DSCW2UNRPY9Z0M", "dateTime": 1516994545270}, {"current_trial": 178, "trialdata": {"rt": -1, "trial_type": "single-stim", "word": "couch", "stimulus": "<p id=\"stim\">COUCH</p>", "conditions": [24, 800, "v", 12000], "internal_node_id": "0.0-133.0", "trial": 4, "time_elapsed": 789399, "serialpos": 21, "key_press": -1, "wordID": 385, "type": "PRES_VIS", "trial_index": 178}, "uniqueid": "MTK2351:30LB5CDZNDH1IPR2DSCW2UNRPY9Z0M", "dateTime": 1516994547217}, {"current_trial": 179, "trialdata": {"rt": -1, "trial_type": "single-stim", "word": "lily", "stimulus": "<p id=\"stim\">LILY</p>", "conditions": [24, 800, "v", 12000], "internal_node_id": "0.0-134.0", "trial": 4, "time_elapsed": 791226, "serialpos": 22, "key_press": -1, "wordID": 820, "type": "PRES_VIS", "trial_index": 179}, "uniqueid": "MTK2351:30LB5CDZNDH1IPR2DSCW2UNRPY9Z0M", "dateTime": 1516994549044}, {"current_trial": 180, "trialdata": {"rt": -1, "trial_type": "single-stim", "word": "headband", "stimulus": "<p id=\"stim\">HEADBAND</p>", "conditions": [24, 800, "v", 12000], "internal_node_id": "0.0-135.0", "trial": 4, "time_elapsed": 793153, "serialpos": 23, "key_press": -1, "wordID": 695, "type": "PRES_VIS", "trial_index": 180}, "uniqueid": "MTK2351:30LB5CDZNDH1IPR2DSCW2UNRPY9Z0M", "dateTime": 1516994550972}, {"current_trial": 181, "trialdata": {"rt": -1, "trial_type": "single-stim", "stimulus": "", "internal_node_id": "0.0-136.0-0.0", "time_elapsed": 795599, "key_press": -1, "type": "PRE_RECALL_DELAY", "trial_index": 181}, "uniqueid": "MTK2351:30LB5CDZNDH1IPR2DSCW2UNRPY9Z0M", "dateTime": 1516994553418}, {"current_trial": 182, "trialdata": {"rt": -1000, "trial_type": "single-audio", "stimulus": "/static/audio/400Hz.wav", "internal_node_id": "0.0-137.0", "time_elapsed": 796101, "key_press": -1, "type": "PRE_RECALL_ALERT", "trial_index": 182}, "uniqueid": "MTK2351:30LB5CDZNDH1IPR2DSCW2UNRPY9Z0M", "dateTime": 1516994553920}, {"current_trial": 183, "trialdata": {"rt": [2638, 4365, 6516, 8389, 15712, 23264, 25275, 27708, 30430, 30650, 30952, 31178, 31393, 31593, 31801, 32286, 32561, 32807, 33035, 33280, 33509, 33750, 33982, 34210, 34524, 34800, 35069, 35332, 35589, 35848, 36110, 36363, 36625, 36869, 37127, 37384, 37631, 37877, 38142, 38383, 38637, 38909, 39168, 39589, 40016, 40491, 41071, 41750, 42378, 42963, 43584, 44193, 44830, 45277, 45933, 46483, 47042, 47607, 48309, 48953, 49526, 50057, 50657, 51173, 51685, 52124, 52594, 52905, 53139, 53377, 53595, 53867, 54413, 54800, 55084, 55330, 55594, 55847, 56107, 56349, 56633, 57004, 57352, 57662, 57940, 58229, 58513, 58799, 59096, 59372, 59631, 59908], "recwords": ["flower", "cannal", "reader", "leader", "space", "soda", "gift", "whitle", "n", "n", "n", "n", "n", "n", "n", "nn", "n", "n", "n", "n", "n", "n", "n", "n", "n", "n", "n", "n", "n", "n", "n", "n", "n", "n", "n", "n", "n", "n", "n", "n", "n", "n", "n", "n", "n", "n", "n", "n", "n", "n", "n", "n", "n", "n", "n", "n", "n", "n", "n", "n", "n", "n", "n", "n", "n", "n", "n", "n", "n", "n", "n", "n", "nn", "n", "n", "n", "n", "n", "n", "n", "n", "n", "n", "n", "n", "n", "n", "n", "n", "n", "n", "n"], "key_times": [1202, 1364, 1538, 1744, 1914, 2151, 2638, 2984, 3080, 3323, 3431, 3976, 4195, 4365, 4961, 5057, 5249, 5882, 6107, 6214, 6516, 7130, 7274, 7431, 7746, 7998, 8141, 8389, 14875, 15055, 15200, 15347, 15541, 15712, 20996, 21699, 21865, 22436, 22703, 23264, 24159, 24411, 24753, 24998, 25275, 26078, 26368, 26577, 27125, 27317, 27414, 27708, 29835, 30142, 30430, 30505, 30650, 30796, 30952, 31047, 31178, 31282, 31393, 31489, 31593, 31674, 31801, 31878, 32115, 32286, 32427, 32561, 32676, 32807, 32922, 33035, 33140, 33280, 33374, 33509, 33625, 33750, 33869, 33982, 34111, 34210, 34345, 34524, 34643, 34800, 34931, 35069, 35205, 35332, 35469, 35589, 35715, 35848, 35975, 36110, 36233, 36363, 36475, 36625, 36749, 36869, 37008, 37127, 37258, 37384, 37519, 37631, 37756, 37877, 38018, 38142, 38261, 38383, 38509, 38637, 38766, 38909, 39053, 39168, 39365, 39589, 39819, 40016, 40267, 40491, 40786, 41071, 41413, 41750, 42024, 42378, 42665, 42963, 43253, 43584, 43833, 44193, 44449, 44830, 45030, 45277, 45536, 45933, 46195, 46483, 46765, 47042, 47337, 47607, 48038, 48309, 48553, 48953, 49160, 49526, 49787, 50057, 50324, 50657, 50882, 51173, 51415, 51685, 51873, 52124, 52322, 52594, 52746, 52905, 53039, 53139, 53250, 53377, 53481, 53595, 53665, 53867, 53897, 54211, 54413, 54623, 54800, 54897, 55084, 55172, 55330, 55441, 55594, 55700, 55847, 55946, 56107, 56204, 56349, 56462, 56633, 56801, 57004, 57184, 57352, 57500, 57662, 57786, 57940, 58078, 58229, 58347, 58513, 58631, 58799, 58950, 59096, 59215, 59372, 59498, 59631, 59749, 59908], "trial_type": "free-recall", "conditions": [24, 800, "v", 12000], "internal_node_id": "0.0-138.0-0.0", "key_presses": [70, 76, 79, 87, 69, 82, 13, 67, 65, 78, 78, 65, 76, 13, 82, 69, 65, 68, 69, 82, 13, 76, 69, 65, 68, 69, 82, 13, 83, 80, 65, 67, 69, 13, 8, 83, 79, 68, 65, 13, 71, 73, 70, 84, 13, 87, 72, 73, 84, 76, 69, 13, 16, 78, 13, 78, 13, 78, 13, 78, 13, 78, 13, 78, 13, 78, 13, 78, 78, 13, 78, 13, 78, 13, 78, 13, 78, 13, 78, 13, 78, 13, 78, 13, 78, 13, 78, 13, 78, 13, 78, 13, 78, 13, 78, 13, 78, 13, 78, 13, 78, 13, 78, 13, 78, 13, 78, 13, 78, 13, 78, 13, 78, 13, 78, 13, 78, 13, 78, 13, 78, 13, 78, 13, 78, 13, 78, 13, 78, 13, 78, 13, 78, 13, 78, 13, 78, 13, 78, 13, 78, 13, 78, 13, 78, 13, 78, 13, 78, 13, 78, 13, 78, 13, 78, 13, 78, 13, 78, 13, 78, 13, 78, 13, 78, 13, 78, 13, 78, 13, 78, 13, 78, 13, 78, 13, 78, 13, 78, 13, 78, 13, 78, 78, 13, 78, 13, 78, 13, 78, 13, 78, 13, 78, 13, 78, 13, 78, 13, 78, 13, 78, 13, 78, 13, 78, 13, 78, 13, 78, 13, 78, 13, 78, 13, 78, 13, 78, 13, 78, 13, 78, 13], "trial": 4, "time_elapsed": 856108, "type": "FREE_RECALL", "trial_index": 183}, "uniqueid": "MTK2351:30LB5CDZNDH1IPR2DSCW2UNRPY9Z0M", "dateTime": 1516994613932}, {"current_trial": 184, "trialdata": {"rt": 4577, "trial_type": "text", "internal_node_id": "0.0-139.0", "time_elapsed": 862693, "key_press": 13, "type": "INSTRUCTIONS", "trial_index": 184}, "uniqueid": "MTK2351:30LB5CDZNDH1IPR2DSCW2UNRPY9Z0M", "dateTime": 1516994620512}, {"current_trial": 185, "trialdata": {"rt": [5121, 7145, 9973, 11792, 13733, 15672, 21403], "trial_type": "math-distractor", "key_times": [4777, 4869, 5121, 6810, 6958, 7145, 9674, 9781, 9973, 11511, 11612, 11792, 13354, 13490, 13733, 15331, 15443, 15672, 21034, 21197, 21403, 23697, 23788], "responses": ["18", "17", "21", "15", "10", "16", "17"], "num2": [7, 8, 9, 8, 4, 6, 9, 8], "num3": [3, 7, 3, 2, 2, 1, 2, 6], "conditions": [12, 800, "v", 24000], "internal_node_id": "0.0-140.0", "key_presses": [97, 104, 13, 97, 103, 13, 98, 97, 13, 97, 101, 13, 97, 96, 13, 97, 102, 13, 97, 103, 13, 97, 104], "trial": 5, "time_elapsed": 888702, "type": "DISTRACTOR", "trial_index": 185, "num1": [8, 2, 9, 5, 4, 9, 6, 4]}, "uniqueid": "MTK2351:30LB5CDZNDH1IPR2DSCW2UNRPY9Z0M", "dateTime": 1516994646522}, {"current_trial": 186, "trialdata": {"rt": -1, "trial_type": "single-stim", "stimulus": "<p id=\"stim\">10</p>", "internal_node_id": "0.0-141.0-0.0", "time_elapsed": 891707, "key_press": -1, "trial_index": 186}, "uniqueid": "MTK2351:30LB5CDZNDH1IPR2DSCW2UNRPY9Z0M", "dateTime": 1516994649527}, {"current_trial": 187, "trialdata": {"rt": -1, "trial_type": "single-stim", "stimulus": "<p id=\"stim\">9</p>", "internal_node_id": "0.0-141.0-1.0", "time_elapsed": 892713, "key_press": -1, "trial_index": 187}, "uniqueid": "MTK2351:30LB5CDZNDH1IPR2DSCW2UNRPY9Z0M", "dateTime": 1516994650532}, {"current_trial": 188, "trialdata": {"rt": -1, "trial_type": "single-stim", "stimulus": "<p id=\"stim\">8</p>", "internal_node_id": "0.0-141.0-2.0", "time_elapsed": 893717, "key_press": -1, "trial_index": 188}, "uniqueid": "MTK2351:30LB5CDZNDH1IPR2DSCW2UNRPY9Z0M", "dateTime": 1516994651537}, {"current_trial": 189, "trialdata": {"rt": -1, "trial_type": "single-stim", "stimulus": "<p id=\"stim\">7</p>", "internal_node_id": "0.0-141.0-3.0", "time_elapsed": 894721, "key_press": -1, "trial_index": 189}, "uniqueid": "MTK2351:30LB5CDZNDH1IPR2DSCW2UNRPY9Z0M", "dateTime": 1516994652539}, {"current_trial": 190, "trialdata": {"rt": -1, "trial_type": "single-stim", "stimulus": "<p id=\"stim\">6</p>", "internal_node_id": "0.0-141.0-4.0", "time_elapsed": 895722, "key_press": -1, "trial_index": 190}, "uniqueid": "MTK2351:30LB5CDZNDH1IPR2DSCW2UNRPY9Z0M", "dateTime": 1516994653541}, {"current_trial": 191, "trialdata": {"rt": -1, "trial_type": "single-stim", "stimulus": "<p id=\"stim\">5</p>", "internal_node_id": "0.0-141.0-5.0", "time_elapsed": 896726, "key_press": -1, "trial_index": 191}, "uniqueid": "MTK2351:30LB5CDZNDH1IPR2DSCW2UNRPY9Z0M", "dateTime": 1516994654544}, {"current_trial": 192, "trialdata": {"rt": -1, "trial_type": "single-stim", "stimulus": "<p id=\"stim\">4</p>", "internal_node_id": "0.0-141.0-6.0", "time_elapsed": 897727, "key_press": -1, "trial_index": 192}, "uniqueid": "MTK2351:30LB5CDZNDH1IPR2DSCW2UNRPY9Z0M", "dateTime": 1516994655546}, {"current_trial": 193, "trialdata": {"rt": -1, "trial_type": "single-stim", "stimulus": "<p id=\"stim\">3</p>", "internal_node_id": "0.0-141.0-7.0", "time_elapsed": 898729, "key_press": -1, "trial_index": 193}, "uniqueid": "MTK2351:30LB5CDZNDH1IPR2DSCW2UNRPY9Z0M", "dateTime": 1516994656548}, {"current_trial": 194, "trialdata": {"rt": -1, "trial_type": "single-stim", "stimulus": "<p id=\"stim\">2</p>", "internal_node_id": "0.0-141.0-8.0", "time_elapsed": 899731, "key_press": -1, "trial_index": 194}, "uniqueid": "MTK2351:30LB5CDZNDH1IPR2DSCW2UNRPY9Z0M", "dateTime": 1516994657550}, {"current_trial": 195, "trialdata": {"rt": -1, "trial_type": "single-stim", "stimulus": "<p id=\"stim\">1</p>", "internal_node_id": "0.0-141.0-9.0", "time_elapsed": 900734, "key_press": -1, "trial_index": 195}, "uniqueid": "MTK2351:30LB5CDZNDH1IPR2DSCW2UNRPY9Z0M", "dateTime": 1516994658553}, {"current_trial": 196, "trialdata": {"rt": -1, "trial_type": "single-stim", "stimulus": "<p id=\"stim\">+</p>", "internal_node_id": "0.0-142.0-0.0", "time_elapsed": 902239, "key_press": -1, "type": "FIXATION", "trial_index": 196}, "uniqueid": "MTK2351:30LB5CDZNDH1IPR2DSCW2UNRPY9Z0M", "dateTime": 1516994660057}, {"current_trial": 197, "trialdata": {"rt": -1, "trial_type": "single-stim", "word": "valve", "stimulus": "<p id=\"stim\">VALVE</p>", "conditions": [12, 800, "v", 24000], "internal_node_id": "0.0-143.0", "trial": 5, "time_elapsed": 903041, "serialpos": 0, "key_press": -1, "wordID": 1545, "type": "PRES_VIS", "trial_index": 197}, "uniqueid": "MTK2351:30LB5CDZNDH1IPR2DSCW2UNRPY9Z0M", "dateTime": 1516994660859}, {"current_trial": 198, "trialdata": {"rt": -1, "trial_type": "single-stim", "word": "piston", "stimulus": "<p id=\"stim\">PISTON</p>", "conditions": [12, 800, "v", 24000], "internal_node_id": "0.0-144.0", "trial": 5, "time_elapsed": 904827, "serialpos": 1, "key_press": -1, "wordID": 1075, "type": "PRES_VIS", "trial_index": 198}, "uniqueid": "MTK2351:30LB5CDZNDH1IPR2DSCW2UNRPY9Z0M", "dateTime": 1516994662646}, {"current_trial": 199, "trialdata": {"rt": -1, "trial_type": "single-stim", "word": "omelet", "stimulus": "<p id=\"stim\">OMELET</p>", "conditions": [12, 800, "v", 24000], "internal_node_id": "0.0-145.0", "trial": 5, "time_elapsed": 906593, "serialpos": 2, "key_press": -1, "wordID": 975, "type": "PRES_VIS", "trial_index": 199}, "uniqueid": "MTK2351:30LB5CDZNDH1IPR2DSCW2UNRPY9Z0M", "dateTime": 1516994664411}, {"current_trial": 200, "trialdata": {"rt": -1, "trial_type": "single-stim", "word": "blackboard", "stimulus": "<p id=\"stim\">BLACKBOARD</p>", "conditions": [12, 800, "v", 24000], "internal_node_id": "0.0-146.0", "trial": 5, "time_elapsed": 908364, "serialpos": 3, "key_press": -1, "wordID": 132, "type": "PRES_VIS", "trial_index": 200}, "uniqueid": "MTK2351:30LB5CDZNDH1IPR2DSCW2UNRPY9Z0M", "dateTime": 1516994666182}, {"current_trial": 201, "trialdata": {"rt": -1, "trial_type": "single-stim", "word": "freezer", "stimulus": "<p id=\"stim\">FREEZER</p>", "conditions": [12, 800, "v", 24000], "internal_node_id": "0.0-147.0", "trial": 5, "time_elapsed": 910134, "serialpos": 4, "key_press": -1, "wordID": 603, "type": "PRES_VIS", "trial_index": 201}, "uniqueid": "MTK2351:30LB5CDZNDH1IPR2DSCW2UNRPY9Z0M", "dateTime": 1516994667952}, {"current_trial": 202, "trialdata": {"rt": -1, "trial_type": "single-stim", "word": "atlas", "stimulus": "<p id=\"stim\">ATLAS</p>", "conditions": [12, 800, "v", 24000], "internal_node_id": "0.0-148.0", "trial": 5, "time_elapsed": 912084, "serialpos": 5, "key_press": -1, "wordID": 52, "type": "PRES_VIS", "trial_index": 202}, "uniqueid": "MTK2351:30LB5CDZNDH1IPR2DSCW2UNRPY9Z0M", "dateTime": 1516994669902}, {"current_trial": 203, "trialdata": {"rt": -1, "trial_type": "single-stim", "word": "waitress", "stimulus": "<p id=\"stim\">WAITRESS</p>", "conditions": [12, 800, "v", 24000], "internal_node_id": "0.0-149.0", "trial": 5, "time_elapsed": 913886, "serialpos": 6, "key_press": -1, "wordID": 1580, "type": "PRES_VIS", "trial_index": 203}, "uniqueid": "MTK2351:30LB5CDZNDH1IPR2DSCW2UNRPY9Z0M", "dateTime": 1516994671705}, {"current_trial": 204, "trialdata": {"rt": -1, "trial_type": "single-stim", "word": "beaker", "stimulus": "<p id=\"stim\">BEAKER</p>", "conditions": [12, 800, "v", 24000], "internal_node_id": "0.0-150.0", "trial": 5, "time_elapsed": 915675, "serialpos": 7, "key_press": -1, "wordID": 103, "type": "PRES_VIS", "trial_index": 204}, "uniqueid": "MTK2351:30LB5CDZNDH1IPR2DSCW2UNRPY9Z0M", "dateTime": 1516994673494}, {"current_trial": 205, "trialdata": {"rt": -1, "trial_type": "single-stim", "word": "item", "stimulus": "<p id=\"stim\">ITEM</p>", "conditions": [12, 800, "v", 24000], "internal_node_id": "0.0-151.0", "trial": 5, "time_elapsed": 917474, "serialpos": 8, "key_press": -1, "wordID": 745, "type": "PRES_VIS", "trial_index": 205}, "uniqueid": "MTK2351:30LB5CDZNDH1IPR2DSCW2UNRPY9Z0M", "dateTime": 1516994675292}, {"current_trial": 206, "trialdata": {"rt": -1, "trial_type": "single-stim", "word": "pimple", "stimulus": "<p id=\"stim\">PIMPLE</p>", "conditions": [12, 800, "v", 24000], "internal_node_id": "0.0-152.0", "trial": 5, "time_elapsed": 919429, "serialpos": 9, "key_press": -1, "wordID": 1070, "type": "PRES_VIS", "trial_index": 206}, "uniqueid": "MTK2351:30LB5CDZNDH1IPR2DSCW2UNRPY9Z0M", "dateTime": 1516994677247}, {"current_trial": 207, "trialdata": {"rt": -1, "trial_type": "single-stim", "word": "highway", "stimulus": "<p id=\"stim\">HIGHWAY</p>", "conditions": [12, 800, "v", 24000], "internal_node_id": "0.0-153.0", "trial": 5, "time_elapsed": 921120, "serialpos": 10, "key_press": -1, "wordID": 706, "type": "PRES_VIS", "trial_index": 207}, "uniqueid": "MTK2351:30LB5CDZNDH1IPR2DSCW2UNRPY9Z0M", "dateTime": 1516994678938}, {"current_trial": 208, "trialdata": {"rt": -1, "trial_type": "single-stim", "word": "cashier", "stimulus": "<p id=\"stim\">CASHIER</p>", "conditions": [12, 800, "v", 24000], "internal_node_id": "0.0-154.0", "trial": 5, "time_elapsed": 922809, "serialpos": 11, "key_press": -1, "wordID": 253, "type": "PRES_VIS", "trial_index": 208}, "uniqueid": "MTK2351:30LB5CDZNDH1IPR2DSCW2UNRPY9Z0M", "dateTime": 1516994680628}, {"current_trial": 209, "trialdata": {"rt": -1, "trial_type": "single-stim", "stimulus": "", "internal_node_id": "0.0-155.0-0.0", "time_elapsed": 925203, "key_press": -1, "type": "PRE_RECALL_DELAY", "trial_index": 209}, "uniqueid": "MTK2351:30LB5CDZNDH1IPR2DSCW2UNRPY9Z0M", "dateTime": 1516994683022}, {"current_trial": 210, "trialdata": {"rt": -1000, "trial_type": "single-audio", "stimulus": "/static/audio/400Hz.wav", "internal_node_id": "0.0-156.0", "time_elapsed": 925706, "key_press": -1, "type": "PRE_RECALL_ALERT", "trial_index": 210}, "uniqueid": "MTK2351:30LB5CDZNDH1IPR2DSCW2UNRPY9Z0M", "dateTime": 1516994683524}, {"current_trial": 211, "trialdata": {"rt": [3262, 5802, 21151, 21564, 21791, 22003, 22235, 22436, 22660, 22873, 23082, 23294, 23507, 23752, 23958, 24396, 24745, 25002, 25227, 25474, 25708, 25963, 26241, 26510, 26768, 27043, 27298, 27557, 27827, 28149, 28564, 28925, 29298, 29649, 30016, 30435, 30850, 31220, 31570, 31912, 32301, 32843, 33364, 33892, 34330, 34850, 35293, 35743, 36741, 37682, 37995, 38358, 38689, 39036, 39331, 39703, 40149, 40628, 41031, 41428, 41838, 42254, 42632, 43033, 43477, 43933, 44401, 44858, 45344, 45740, 46152, 46580, 46914, 47254, 47543, 47791, 48026, 49004, 49692, 49923, 50164, 50456, 50790, 51042, 51278, 51608, 51882, 52189, 52534, 52829, 53077, 53355, 53596, 53928, 54228, 54476, 54850, 55237, 55541, 55880, 56217, 56661, 58410, 59082], "recwords": ["pimple", "cahier", "n", "n", "n", "n", "n", "n", "n", "n", "n", "n", "n", "n", "n", "nn", "n", "n", "n", "n", "n", "n", "n", "n", "n", "n", "n", "n", "n", "n", "n", "n", "n", "n", "n", "n", "n", "n", "n", "n", "n", "n", "n", "n", "n", "n", "n", "n", "n", "n", "n", "n", "n", "n", "n", "n", "n", "n", "n", "n", "n", "n", "n", "n", "n", "n", "n", "n", "n", "n", "n", "n", "n", "n", "n", "n", "n", "n", "n", "n", "n", "n", "n", "n", "n", "n", "n", "n", "n", "n", "n", "n", "n", "n", "n", "n", "n", "n", "n", "n", "n", "n", "n", "n"], "key_times": [943, 1116, 1591, 1880, 2237, 2485, 2549, 2749, 3262, 3684, 3820, 4180, 4836, 5101, 5310, 5802, 20211, 20496, 21151, 21299, 21564, 21674, 21791, 21905, 22003, 22103, 22235, 22313, 22436, 22503, 22660, 22745, 22873, 22974, 23082, 23198, 23294, 23419, 23507, 23641, 23752, 23859, 23958, 24083, 24275, 24396, 24582, 24745, 24856, 25002, 25104, 25227, 25331, 25474, 25567, 25708, 25834, 25963, 26103, 26241, 26376, 26510, 26636, 26768, 26901, 27043, 27166, 27298, 27432, 27557, 27694, 27827, 27993, 28149, 28358, 28564, 28749, 28925, 29130, 29298, 29474, 29649, 29831, 30016, 30263, 30435, 30674, 30850, 31025, 31220, 31417, 31570, 31758, 31912, 32114, 32301, 32607, 32843, 33129, 33364, 33671, 33892, 34088, 34330, 34573, 34850, 35055, 35293, 35494, 35743, 35888, 36741, 37524, 37682, 37849, 37995, 38199, 38358, 38534, 38689, 38819, 39036, 39156, 39331, 39510, 39703, 39972, 40149, 40442, 40628, 40844, 41031, 41211, 41428, 41651, 41838, 42076, 42254, 42452, 42632, 42840, 43033, 43274, 43477, 43750, 43933, 44181, 44401, 44660, 44858, 45096, 45344, 45529, 45740, 45941, 46152, 46363, 46580, 46743, 46914, 47113, 47254, 47412, 47543, 47679, 47791, 47911, 48026, 48169, 49004, 49527, 49692, 49790, 49923, 50057, 50164, 50301, 50456, 50644, 50790, 50934, 51042, 51186, 51278, 51451, 51608, 51741, 51882, 52039, 52189, 52411, 52534, 52685, 52829, 52954, 53077, 53217, 53355, 53487, 53596, 53767, 53928, 54069, 54228, 54353, 54476, 54652, 54850, 55052, 55237, 55390, 55541, 55720, 55880, 56041, 56217, 56385, 56661, 58198, 58410, 58709, 59082, 59459], "trial_type": "free-recall", "conditions": [12, 800, "v", 24000], "internal_node_id": "0.0-157.0-0.0", "key_presses": [80, 73, 66, 8, 77, 80, 76, 69, 13, 67, 65, 72, 73, 69, 82, 13, 16, 78, 13, 78, 13, 78, 13, 78, 13, 78, 13, 78, 13, 78, 13, 78, 13, 78, 13, 78, 13, 78, 13, 78, 13, 78, 13, 78, 78, 13, 78, 13, 78, 13, 78, 13, 78, 13, 78, 13, 78, 13, 78, 13, 78, 13, 78, 13, 78, 13, 78, 13, 78, 13, 78, 13, 78, 13, 78, 13, 78, 13, 78, 13, 78, 13, 78, 13, 78, 13, 78, 13, 78, 13, 78, 13, 78, 13, 78, 13, 78, 13, 78, 13, 78, 13, 78, 13, 78, 13, 78, 13, 78, 13, 78, 13, 78, 13, 78, 13, 78, 13, 78, 13, 78, 13, 78, 13, 78, 13, 78, 13, 78, 13, 78, 13, 78, 13, 78, 13, 78, 13, 78, 13, 78, 13, 78, 13, 78, 13, 78, 13, 78, 13, 78, 13, 78, 13, 78, 13, 78, 13, 78, 13, 78, 13, 78, 13, 78, 13, 78, 13, 78, 13, 78, 13, 78, 13, 78, 13, 78, 13, 78, 13, 78, 13, 78, 13, 78, 13, 78, 13, 78, 13, 78, 13, 78, 13, 78, 13, 78, 13, 78, 13, 78, 13, 78, 13, 78, 13, 78, 13, 78, 13, 78, 13, 78, 13, 78, 13, 78, 13, 78, 13, 78, 13, 78], "trial": 5, "time_elapsed": 985717, "type": "FREE_RECALL", "trial_index": 211}, "uniqueid": "MTK2351:30LB5CDZNDH1IPR2DSCW2UNRPY9Z0M", "dateTime": 1516994743544}, {"current_trial": 212, "trialdata": {"rt": 3586, "trial_type": "text", "internal_node_id": "0.0-158.0", "time_elapsed": 991314, "key_press": 13, "type": "INSTRUCTIONS", "trial_index": 212}, "uniqueid": "MTK2351:30LB5CDZNDH1IPR2DSCW2UNRPY9Z0M", "dateTime": 1516994749134}, {"current_trial": 213, "trialdata": {"rt": [5332, 8942], "trial_type": "math-distractor", "key_times": [4960, 5065, 5332, 8100, 8206, 8942], "responses": ["15", "19"], "num2": [7, 3, 5], "num3": [7, 9, 7], "conditions": [24, 800, "v", 12000], "internal_node_id": "0.0-159.0", "key_presses": [97, 101, 13, 97, 105, 13], "trial": 6, "time_elapsed": 1005328, "type