{"assignmentId": "3BWI6RSP7HGHP50Q24JSWZWWB1FE7W", "workerId": "MTK2720", "questiondata": {"origin": "United States", "strat-rehearsal": "56", "marital": "Married/Domestic Partnership", "education": "Some college", "ethnicity": "Not Hispanic", "color_depth": 24, "distracted": "No", "wrote-notes": "No", "strat-other": "", "screen_width": 2560, "avail_screen_width": 2560, "avail_screen_height": 1400, "strat-image": "99", "language": "English", "gender": "Female", "age": "35", "gender_other": "", "race": ["Native Hawaiian/Pacific Islander", "White"], "strat-categorize": "99", "pixel_depth": 24, "strat-spatial": "85", "strat-story": "46", "race_other": "", "screen_height": 1440}, "bonus": 0, "hitId": "3GV1I4SEO9WA4RYJAEW2EWQ04F76LB", "counterbalance": 2971, "useragent": "Mozilla/5.0 (Windows NT 10.0; Win64; x64) AppleWebKit/537.36 (KHTML, like Gecko) Chrome/64.0.3282.167 Safari/537.36", "eventdata": [{"eventtype": "initialized", "interval": 0, "value": null, "timestamp": 1519257357551}, {"eventtype": "window_resize", "interval": 0, "value": [2560, 1393], "timestamp": 1519257357551}, {"eventtype": "window_resize", "interval": 20606, "value": [2560, 1349], "timestamp": 1519257378157}, {"eventtype": "focus", "interval": 21691, "value": "off", "timestamp": 1519257399848}, {"eventtype": "focus", "interval": 3935, "value": "on", "timestamp": 1519257403783}, {"eventtype": "focus", "interval": 4530, "value": "off", "timestamp": 1519257408313}, {"eventtype": "focus", "interval": 2843, "value": "on", "timestamp": 1519257411156}, {"eventtype": "focus", "interval": 28088, "value": "off", "timestamp": 1519257439244}, {"eventtype": "focus", "interval": 2, "value": "on", "timestamp": 1519257439246}, {"eventtype": "window_resize", "interval": 11325, "value": [2560, 1300], "timestamp": 1519257450571}, {"eventtype": "window_resize", "interval": 3306, "value": [2560, 1349], "timestamp": 1519257453877}, {"eventtype": "focus", "interval": 410, "value": "off", "timestamp": 1519257454287}, {"eventtype": "focus", "interval": 37, "value": "on", "timestamp": 1519257454324}, {"eventtype": "focus", "interval": 824, "value": "off", "timestamp": 1519257455148}, {"eventtype": "focus", "interval": 11010, "value": "on", "timestamp": 1519257466158}, {"eventtype": "focus", "interval": 636853, "value": "off", "timestamp": 1519258103011}, {"eventtype": "focus", "interval": 22261, "value": "on", "timestamp": 1519258125272}, {"eventtype": "focus", "interval": 2257409, "value": "off", "timestamp": 1519260382681}, {"eventtype": "focus", "interval": 38840, "value": "on", "timestamp": 1519260421521}], "data": [{"current_trial": 0, "trialdata": {"rt": 2916, "trial_type": "text", "internal_node_id": "0.0-0.0", "time_elapsed": 2917, "key_press": 32, "type": "INSTRUCTIONS", "trial_index": 0}, "uniqueid": "MTK2720:3BWI6RSP7HGHP50Q24JSWZWWB1FE7W", "dateTime": 1519257378804}, {"current_trial": 1, "trialdata": {"rt": 15816, "trial_type": "text", "internal_node_id": "0.0-1.0", "time_elapsed": 18734, "key_press": 32, "type": "INSTRUCTIONS", "trial_index": 1}, "uniqueid": "MTK2720:3BWI6RSP7HGHP50Q24JSWZWWB1FE7W", "dateTime": 1519257394620}, {"current_trial": 2, "trialdata": {"rt": [41338, 75434], "trial_type": "audio-test", "responses": ["hi", "ocean"], "internal_node_id": "0.0-2.0", "time_elapsed": 94173, "type": "AUDIO_TEST", "trial_index": 2}, "uniqueid": "MTK2720:3BWI6RSP7HGHP50Q24JSWZWWB1FE7W", "dateTime": 1519257470059}, {"current_trial": 3, "trialdata": {"rt": [6478], "trial_type": "audio-test", "responses": ["crystal"], "internal_node_id": "0.0-3.0", "time_elapsed": 100654, "type": "AUDIO_TEST", "trial_index": 3}, "uniqueid": "MTK2720:3BWI6RSP7HGHP50Q24JSWZWWB1FE7W", "dateTime": 1519257476540}, {"current_trial": 4, "trialdata": {"rt": [9197], "trial_type": "audio-test", "responses": ["spice"], "internal_node_id": "0.0-4.0", "time_elapsed": 109853, "type": "AUDIO_TEST", "trial_index": 4}, "uniqueid": "MTK2720:3BWI6RSP7HGHP50Q24JSWZWWB1FE7W", "dateTime": 1519257485739}, {"current_trial": 5, "trialdata": {"rt": 27464, "trial_type": "survey-text", "responses": "{\"Q0\":\"midnight\",\"Q1\":\"5:15\",\"Q2\":\"4\"}", "internal_node_id": "0.0-5.0", "time_elapsed": 138068, "type": "SLEEP_SURVEY", "trial_index": 5}, "uniqueid": "MTK2720:3BWI6RSP7HGHP50Q24JSWZWWB1FE7W", "dateTime": 1519257513954}, {"current_trial": 6, "trialdata": {"rt": 46314, "trial_type": "text", "internal_node_id": "0.0-6.0", "time_elapsed": 185382, "key_press": 32, "type": "INSTRUCTIONS", "trial_index": 6}, "uniqueid": "MTK2720:3BWI6RSP7HGHP50Q24JSWZWWB1FE7W", "dateTime": 1519257561268}, {"current_trial": 7, "trialdata": {"rt": 22130, "trial_type": "text", "internal_node_id": "0.0-7.0", "time_elapsed": 208014, "key_press": 32, "type": "INSTRUCTIONS", "trial_index": 7}, "uniqueid": "MTK2720:3BWI6RSP7HGHP50Q24JSWZWWB1FE7W", "dateTime": 1519257583900}, {"current_trial": 8, "trialdata": {"rt": 8658, "trial_type": "text", "internal_node_id": "0.0-8.0", "time_elapsed": 217173, "key_press": 32, "type": "INSTRUCTIONS", "trial_index": 8}, "uniqueid": "MTK2720:3BWI6RSP7HGHP50Q24JSWZWWB1FE7W", "dateTime": 1519257593059}, {"current_trial": 9, "trialdata": {"rt": [5381, 9124, 11301, 15349], "trial_type": "math-distractor", "key_times": [4429, 4646, 5381, 8756, 8837, 9124, 10916, 11005, 11301, 14757, 15101, 15349], "responses": ["27", "10", "16", "13"], "num2": [9, 4, 1, 3, 8], "num3": [9, 4, 6, 2, 3], "conditions": [18, 1200, "a", 18000], "internal_node_id": "0.0-9.0", "key_presses": [98, 103, 13, 97, 96, 13, 97, 102, 13, 97, 99, 13], "trial": 0, "time_elapsed": 236177, "type": "DISTRACTOR", "trial_index": 9, "num1": [9, 2, 9, 8, 7]}, "uniqueid": "MTK2720:3BWI6RSP7HGHP50Q24JSWZWWB1FE7W", "dateTime": 1519257612063}, {"current_trial": 10, "trialdata": {"rt": -1, "trial_type": "single-stim", "stimulus": "<p id=\"stim\">10</p>", "internal_node_id": "0.0-10.0-0.0", "time_elapsed": 239180, "key_press": -1, "trial_index": 10}, "uniqueid": "MTK2720:3BWI6RSP7HGHP50Q24JSWZWWB1FE7W", "dateTime": 1519257615066}, {"current_trial": 11, "trialdata": {"rt": -1, "trial_type": "single-stim", "stimulus": "<p id=\"stim\">9</p>", "internal_node_id": "0.0-10.0-1.0", "time_elapsed": 240183, "key_press": -1, "trial_index": 11}, "uniqueid": "MTK2720:3BWI6RSP7HGHP50Q24JSWZWWB1FE7W", "dateTime": 1519257616069}, {"current_trial": 12, "trialdata": {"rt": -1, "trial_type": "single-stim", "stimulus": "<p id=\"stim\">8</p>", "internal_node_id": "0.0-10.0-2.0", "time_elapsed": 241185, "key_press": -1, "trial_index": 12}, "uniqueid": "MTK2720:3BWI6RSP7HGHP50Q24JSWZWWB1FE7W", "dateTime": 1519257617071}, {"current_trial": 13, "trialdata": {"rt": -1, "trial_type": "single-stim", "stimulus": "<p id=\"stim\">7</p>", "internal_node_id": "0.0-10.0-3.0", "time_elapsed": 242186, "key_press": -1, "trial_index": 13}, "uniqueid": "MTK2720:3BWI6RSP7HGHP50Q24JSWZWWB1FE7W", "dateTime": 1519257618072}, {"current_trial": 14, "trialdata": {"rt": -1, "trial_type": "single-stim", "stimulus": "<p id=\"stim\">6</p>", "internal_node_id": "0.0-10.0-4.0", "time_elapsed": 243188, "key_press": -1, "trial_index": 14}, "uniqueid": "MTK2720:3BWI6RSP7HGHP50Q24JSWZWWB1FE7W", "dateTime": 1519257619074}, {"current_trial": 15, "trialdata": {"rt": -1, "trial_type": "single-stim", "stimulus": "<p id=\"stim\">5</p>", "internal_node_id": "0.0-10.0-5.0", "time_elapsed": 244189, "key_press": -1, "trial_index": 15}, "uniqueid": "MTK2720:3BWI6RSP7HGHP50Q24JSWZWWB1FE7W", "dateTime": 1519257620075}, {"current_trial": 16, "trialdata": {"rt": -1, "trial_type": "single-stim", "stimulus": "<p id=\"stim\">4</p>", "internal_node_id": "0.0-10.0-6.0", "time_elapsed": 245191, "key_press": -1, "trial_index": 16}, "uniqueid": "MTK2720:3BWI6RSP7HGHP50Q24JSWZWWB1FE7W", "dateTime": 1519257621077}, {"current_trial": 17, "trialdata": {"rt": -1, "trial_type": "single-stim", "stimulus": "<p id=\"stim\">3</p>", "internal_node_id": "0.0-10.0-7.0", "time_elapsed": 246193, "key_press": -1, "trial_index": 17}, "uniqueid": "MTK2720:3BWI6RSP7HGHP50Q24JSWZWWB1FE7W", "dateTime": 1519257622079}, {"current_trial": 18, "trialdata": {"rt": -1, "trial_type": "single-stim", "stimulus": "<p id=\"stim\">2</p>", "internal_node_id": "0.0-10.0-8.0", "time_elapsed": 247194, "key_press": -1, "trial_index": 18}, "uniqueid": "MTK2720:3BWI6RSP7HGHP50Q24JSWZWWB1FE7W", "dateTime": 1519257623080}, {"current_trial": 19, "trialdata": {"rt": -1, "trial_type": "single-stim", "stimulus": "<p id=\"stim\">1</p>", "internal_node_id": "0.0-10.0-9.0", "time_elapsed": 248196, "key_press": -1, "trial_index": 19}, "uniqueid": "MTK2720:3BWI6RSP7HGHP50Q24JSWZWWB1FE7W", "dateTime": 1519257624082}, {"current_trial": 20, "trialdata": {"rt": -1, "trial_type": "single-stim", "stimulus": "<p id=\"stim\">+</p>", "internal_node_id": "0.0-11.0-0.0", "time_elapsed": 249697, "key_press": -1, "type": "FIXATION", "trial_index": 20}, "uniqueid": "MTK2720:3BWI6RSP7HGHP50Q24JSWZWWB1FE7W", "dateTime": 1519257625583}, {"current_trial": 21, "trialdata": {"rt": -1000, "trial_type": "single-audio", "word": "blade", "stimulus": "/static/audio/wordpool/BLADE.wav", "conditions": [18, 1200, "a", 18000], "internal_node_id": "0.0-12.0", "trial": 0, "time_elapsed": 251886, "serialpos": 0, "key_press": -1, "wordID": 133, "type": "PRES_AUD", "trial_index": 21}, "uniqueid": "MTK2720:3BWI6RSP7HGHP50Q24JSWZWWB1FE7W", "dateTime": 1519257627772}, {"current_trial": 22, "trialdata": {"rt": -1000, "trial_type": "single-audio", "word": "friend", "stimulus": "/static/audio/wordpool/FRIEND.wav", "conditions": [18, 1200, "a", 18000], "internal_node_id": "0.0-13.0", "trial": 0, "time_elapsed": 254243, "serialpos": 1, "key_press": -1, "wordID": 605, "type": "PRES_AUD", "trial_index": 22}, "uniqueid": "MTK2720:3BWI6RSP7HGHP50Q24JSWZWWB1FE7W", "dateTime": 1519257630129}, {"current_trial": 23, "trialdata": {"rt": -1000, "trial_type": "single-audio", "word": "robber", "stimulus": "/static/audio/wordpool/ROBBER.wav", "conditions": [18, 1200, "a", 18000], "internal_node_id": "0.0-14.0", "trial": 0, "time_elapsed": 256530, "serialpos": 2, "key_press": -1, "wordID": 1196, "type": "PRES_AUD", "trial_index": 23}, "uniqueid": "MTK2720:3BWI6RSP7HGHP50Q24JSWZWWB1FE7W", "dateTime": 1519257632416}, {"current_trial": 24, "trialdata": {"rt": -1000, "trial_type": "single-audio", "word": "salmon", "stimulus": "/static/audio/wordpool/SALMON.wav", "conditions": [18, 1200, "a", 18000], "internal_node_id": "0.0-15.0", "trial": 0, "time_elapsed": 258596, "serialpos": 3, "key_press": -1, "wordID": 1226, "type": "PRES_AUD", "trial_index": 24}, "uniqueid": "MTK2720:3BWI6RSP7HGHP50Q24JSWZWWB1FE7W", "dateTime": 1519257634482}, {"current_trial": 25, "trialdata": {"rt": -1000, "trial_type": "single-audio", "word": "pluto", "stimulus": "/static/audio/wordpool/PLUTO.wav", "conditions": [18, 1200, "a", 18000], "internal_node_id": "0.0-16.0", "trial": 0, "time_elapsed": 260862, "serialpos": 4, "key_press": -1, "wordID": 1091, "type": "PRES_AUD", "trial_index": 25}, "uniqueid": "MTK2720:3BWI6RSP7HGHP50Q24JSWZWWB1FE7W", "dateTime": 1519257636748}, {"current_trial": 26, "trialdata": {"rt": -1000, "trial_type": "single-audio", "word": "luggage", "stimulus": "/static/audio/wordpool/LUGGAGE.wav", "conditions": [18, 1200, "a", 18000], "internal_node_id": "0.0-17.0", "trial": 0, "time_elapsed": 262908, "serialpos": 5, "key_press": -1, "wordID": 846, "type": "PRES_AUD", "trial_index": 26}, "uniqueid": "MTK2720:3BWI6RSP7HGHP50Q24JSWZWWB1FE7W", "dateTime": 1519257638794}, {"current_trial": 27, "trialdata": {"rt": -1000, "trial_type": "single-audio", "word": "inmate", "stimulus": "/static/audio/wordpool/INMATE.wav", "conditions": [18, 1200, "a", 18000], "internal_node_id": "0.0-18.0", "trial": 0, "time_elapsed": 264937, "serialpos": 6, "key_press": -1, "wordID": 737, "type": "PRES_AUD", "trial_index": 27}, "uniqueid": "MTK2720:3BWI6RSP7HGHP50Q24JSWZWWB1FE7W", "dateTime": 1519257640823}, {"current_trial": 28, "trialdata": {"rt": -1000, "trial_type": "single-audio", "word": "mailbox", "stimulus": "/static/audio/wordpool/MAILBOX.wav", "conditions": [18, 1200, "a", 18000], "internal_node_id": "0.0-19.0", "trial": 0, "time_elapsed": 267270, "serialpos": 7, "key_press": -1, "wordID": 856, "type": "PRES_AUD", "trial_index": 28}, "uniqueid": "MTK2720:3BWI6RSP7HGHP50Q24JSWZWWB1FE7W", "dateTime": 1519257643156}, {"current_trial": 29, "trialdata": {"rt": -1000, "trial_type": "single-audio", "word": "empire", "stimulus": "/static/audio/wordpool/EMPIRE.wav", "conditions": [18, 1200, "a", 18000], "internal_node_id": "0.0-20.0", "trial": 0, "time_elapsed": 269428, "serialpos": 8, "key_press": -1, "wordID": 529, "type": "PRES_AUD", "trial_index": 29}, "uniqueid": "MTK2720:3BWI6RSP7HGHP50Q24JSWZWWB1FE7W", "dateTime": 1519257645314}, {"current_trial": 30, "trialdata": {"rt": -1000, "trial_type": "single-audio", "word": "marker", "stimulus": "/static/audio/wordpool/MARKER.wav", "conditions": [18, 1200, "a", 18000], "internal_node_id": "0.0-21.0", "trial": 0, "time_elapsed": 271636, "serialpos": 9, "key_press": -1, "wordID": 869, "type": "PRES_AUD", "trial_index": 30}, "uniqueid": "MTK2720:3BWI6RSP7HGHP50Q24JSWZWWB1FE7W", "dateTime": 1519257647522}, {"current_trial": 31, "trialdata": {"rt": -1000, "trial_type": "single-audio", "word": "quail", "stimulus": "/static/audio/wordpool/QUAIL.wav", "conditions": [18, 1200, "a", 18000], "internal_node_id": "0.0-22.0", "trial": 0, "time_elapsed": 273849, "serialpos": 10, "key_press": -1, "wordID": 1146, "type": "PRES_AUD", "trial_index": 31}, "uniqueid": "MTK2720:3BWI6RSP7HGHP50Q24JSWZWWB1FE7W", "dateTime": 1519257649735}, {"current_trial": 32, "trialdata": {"rt": -1000, "trial_type": "single-audio", "word": "heart", "stimulus": "/static/audio/wordpool/HEART.wav", "conditions": [18, 1200, "a", 18000], "internal_node_id": "0.0-23.0", "trial": 0, "time_elapsed": 275958, "serialpos": 11, "key_press": -1, "wordID": 696, "type": "PRES_AUD", "trial_index": 32}, "uniqueid": "MTK2720:3BWI6RSP7HGHP50Q24JSWZWWB1FE7W", "dateTime": 1519257651844}, {"current_trial": 33, "trialdata": {"rt": -1000, "trial_type": "single-audio", "word": "trench", "stimulus": "/static/audio/wordpool/TRENCH.wav", "conditions": [18, 1200, "a", 18000], "internal_node_id": "0.0-24.0", "trial": 0, "time_elapsed": 278199, "serialpos": 12, "key_press": -1, "wordID": 1502, "type": "PRES_AUD", "trial_index": 33}, "uniqueid": "MTK2720:3BWI6RSP7HGHP50Q24JSWZWWB1FE7W", "dateTime": 1519257654085}, {"current_trial": 34, "trialdata": {"rt": -1000, "trial_type": "single-audio", "word": "canyon", "stimulus": "/static/audio/wordpool/CANYON.wav", "conditions": [18, 1200, "a", 18000], "internal_node_id": "0.0-25.0", "trial": 0, "time_elapsed": 280482, "serialpos": 13, "key_press": -1, "wordID": 234, "type": "PRES_AUD", "trial_index": 34}, "uniqueid": "MTK2720:3BWI6RSP7HGHP50Q24JSWZWWB1FE7W", "dateTime": 1519257656368}, {"current_trial": 35, "trialdata": {"rt": -1000, "trial_type": "single-audio", "word": "hero", "stimulus": "/static/audio/wordpool/HERO.wav", "conditions": [18, 1200, "a", 18000], "internal_node_id": "0.0-26.0", "trial": 0, "time_elapsed": 282826, "serialpos": 14, "key_press": -1, "wordID": 705, "type": "PRES_AUD", "trial_index": 35}, "uniqueid": "MTK2720:3BWI6RSP7HGHP50Q24JSWZWWB1FE7W", "dateTime": 1519257658712}, {"current_trial": 36, "trialdata": {"rt": -1000, "trial_type": "single-audio", "word": "soda", "stimulus": "/static/audio/wordpool/SODA.wav", "conditions": [18, 1200, "a", 18000], "internal_node_id": "0.0-27.0", "trial": 0, "time_elapsed": 284829, "serialpos": 15, "key_press": -1, "wordID": 1340, "type": "PRES_AUD", "trial_index": 36}, "uniqueid": "MTK2720:3BWI6RSP7HGHP50Q24JSWZWWB1FE7W", "dateTime": 1519257660716}, {"current_trial": 37, "trialdata": {"rt": -1000, "trial_type": "single-audio", "word": "cabin", "stimulus": "/static/audio/wordpool/CABIN.wav", "conditions": [18, 1200, "a", 18000], "internal_node_id": "0.0-28.0", "trial": 0, "time_elapsed": 287115, "serialpos": 16, "key_press": -1, "wordID": 210, "type": "PRES_AUD", "trial_index": 37}, "uniqueid": "MTK2720:3BWI6RSP7HGHP50Q24JSWZWWB1FE7W", "dateTime": 1519257663001}, {"current_trial": 38, "trialdata": {"rt": -1000, "trial_type": "single-audio", "word": "cashew", "stimulus": "/static/audio/wordpool/CASHEW.wav", "conditions": [18, 1200, "a", 18000], "internal_node_id": "0.0-29.0", "trial": 0, "time_elapsed": 289316, "serialpos": 17, "key_press": -1, "wordID": 252, "type": "PRES_AUD", "trial_index": 38}, "uniqueid": "MTK2720:3BWI6RSP7HGHP50Q24JSWZWWB1FE7W", "dateTime": 1519257665202}, {"current_trial": 39, "trialdata": {"rt": -1, "trial_type": "single-stim", "stimulus": "", "internal_node_id": "0.0-30.0-0.0", "time_elapsed": 290571, "key_press": -1, "type": "PRE_RECALL_DELAY", "trial_index": 39}, "uniqueid": "MTK2720:3BWI6RSP7HGHP50Q24JSWZWWB1FE7W", "dateTime": 1519257666457}, {"current_trial": 40, "trialdata": {"rt": -1000, "trial_type": "single-audio", "stimulus": "/static/audio/400Hz.wav", "internal_node_id": "0.0-31.0", "time_elapsed": 291073, "key_press": -1, "type": "PRE_RECALL_ALERT", "trial_index": 40}, "uniqueid": "MTK2720:3BWI6RSP7HGHP50Q24JSWZWWB1FE7W", "dateTime": 1519257666959}, {"current_trial": 41, "trialdata": {"rt": [3252, 4602, 6692, 9258, 10619, 39347, 50442], "recwords": ["cashew", "cabin", "qual", "robber", "soda", "", "robin"], "key_times": [1708, 1916, 2163, 2507, 2779, 2932, 3252, 3652, 3836, 3931, 4132, 4275, 4602, 5932, 6083, 6196, 6340, 6692, 7899, 7987, 8203, 8331, 8436, 8522, 9258, 9635, 9739, 9852, 10027, 10619, 39347, 49348, 49403, 49619, 49706, 49827, 50442], "trial_type": "free-recall", "conditions": [18, 1200, "a", 18000], "internal_node_id": "0.0-32.0-0.0", "key_presses": [67, 65, 83, 72, 69, 87, 13, 67, 65, 66, 73, 78, 13, 81, 85, 65, 76, 13, 82, 79, 66, 66, 69, 82, 13, 83, 79, 68, 65, 13, 13, 82, 79, 66, 73, 78, 13], "trial": 0, "time_elapsed": 351075, "type": "FREE_RECALL", "trial_index": 41}, "uniqueid": "MTK2720:3BWI6RSP7HGHP50Q24JSWZWWB1FE7W", "dateTime": 1519257726963}, {"current_trial": 42, "trialdata": {"rt": 1632, "trial_type": "text", "internal_node_id": "0.0-33.0", "time_elapsed": 354710, "key_press": 13, "type": "INSTRUCTIONS", "trial_index": 42}, "uniqueid": "MTK2720:3BWI6RSP7HGHP50Q24JSWZWWB1FE7W", "dateTime": 1519257730596}, {"current_trial": 43, "trialdata": {"rt": [4003, 8236, 10723, 15396, 17524], "trial_type": "math-distractor", "key_times": [3100, 3172, 4003, 7676, 7860, 8236, 10164, 10381, 10723, 14932, 15124, 15396, 17100, 17212, 17524], "responses": ["15", "12", "17", "14", "13"], "num2": [6, 2, 7, 4, 5, 2], "num3": [3, 2, 5, 8, 5, 2], "conditions": [18, 1200, "a", 18000], "internal_node_id": "0.0-34.0", "key_presses": [97, 101, 13, 97, 98, 13, 97, 103, 13, 97, 100, 13, 97, 99, 13], "trial": 1, "time_elapsed": 374714, "type": "DISTRACTOR", "trial_index": 43, "num1": [6, 8, 5, 2, 3, 1]}, "uniqueid": "MTK2720:3BWI6RSP7HGHP50Q24JSWZWWB1FE7W", "dateTime": 1519257750600}, {"current_trial": 44, "trialdata": {"rt": -1, "trial_type": "single-stim", "stimulus": "<p id=\"stim\">10</p>", "internal_node_id": "0.0-35.0-0.0", "time_elapsed": 377718, "key_press": -1, "trial_index": 44}, "uniqueid": "MTK2720:3BWI6RSP7HGHP50Q24JSWZWWB1FE7W", "dateTime": 1519257753604}, {"current_trial": 45, "trialdata": {"rt": -1, "trial_type": "single-stim", "stimulus": "<p id=\"stim\">9</p>", "internal_node_id": "0.0-35.0-1.0", "time_elapsed": 378719, "key_press": -1, "trial_index": 45}, "uniqueid": "MTK2720:3BWI6RSP7HGHP50Q24JSWZWWB1FE7W", "dateTime": 1519257754605}, {"current_trial": 46, "trialdata": {"rt": -1, "trial_type": "single-stim", "stimulus": "<p id=\"stim\">8</p>", "internal_node_id": "0.0-35.0-2.0", "time_elapsed": 379721, "key_press": -1, "trial_index": 46}, "uniqueid": "MTK2720:3BWI6RSP7HGHP50Q24JSWZWWB1FE7W", "dateTime": 1519257755607}, {"current_trial": 47, "trialdata": {"rt": -1, "trial_type": "single-stim", "stimulus": "<p id=\"stim\">7</p>", "internal_node_id": "0.0-35.0-3.0", "time_elapsed": 380723, "key_press": -1, "trial_index": 47}, "uniqueid": "MTK2720:3BWI6RSP7HGHP50Q24JSWZWWB1FE7W", "dateTime": 1519257756609}, {"current_trial": 48, "trialdata": {"rt": -1, "trial_type": "single-stim", "stimulus": "<p id=\"stim\">6</p>", "internal_node_id": "0.0-35.0-4.0", "time_elapsed": 381724, "key_press": -1, "trial_index": 48}, "uniqueid": "MTK2720:3BWI6RSP7HGHP50Q24JSWZWWB1FE7W", "dateTime": 1519257757610}, {"current_trial": 49, "trialdata": {"rt": -1, "trial_type": "single-stim", "stimulus": "<p id=\"stim\">5</p>", "internal_node_id": "0.0-35.0-5.0", "time_elapsed": 382726, "key_press": -1, "trial_index": 49}, "uniqueid": "MTK2720:3BWI6RSP7HGHP50Q24JSWZWWB1FE7W", "dateTime": 1519257758612}, {"current_trial": 50, "trialdata": {"rt": -1, "trial_type": "single-stim", "stimulus": "<p id=\"stim\">4</p>", "internal_node_id": "0.0-35.0-6.0", "time_elapsed": 383728, "key_press": -1, "trial_index": 50}, "uniqueid": "MTK2720:3BWI6RSP7HGHP50Q24JSWZWWB1FE7W", "dateTime": 1519257759614}, {"current_trial": 51, "trialdata": {"rt": -1, "trial_type": "single-stim", "stimulus": "<p id=\"stim\">3</p>", "internal_node_id": "0.0-35.0-7.0", "time_elapsed": 384729, "key_press": -1, "trial_index": 51}, "uniqueid": "MTK2720:3BWI6RSP7HGHP50Q24JSWZWWB1FE7W", "dateTime": 1519257760615}, {"current_trial": 52, "trialdata": {"rt": -1, "trial_type": "single-stim", "stimulus": "<p id=\"stim\">2</p>", "internal_node_id": "0.0-35.0-8.0", "time_elapsed": 385730, "key_press": -1, "trial_index": 52}, "uniqueid": "MTK2720:3BWI6RSP7HGHP50Q24JSWZWWB1FE7W", "dateTime": 1519257761616}, {"current_trial": 53, "trialdata": {"rt": -1, "trial_type": "single-stim", "stimulus": "<p id=\"stim\">1</p>", "internal_node_id": "0.0-35.0-9.0", "time_elapsed": 386730, "key_press": -1, "trial_index": 53}, "uniqueid": "MTK2720:3BWI6RSP7HGHP50Q24JSWZWWB1FE7W", "dateTime": 1519257762617}, {"current_trial": 54, "trialdata": {"rt": -1, "trial_type": "single-stim", "stimulus": "<p id=\"stim\">+</p>", "internal_node_id": "0.0-36.0-0.0", "time_elapsed": 388232, "key_press": -1, "type": "FIXATION", "trial_index": 54}, "uniqueid": "MTK2720:3BWI6RSP7HGHP50Q24JSWZWWB1FE7W", "dateTime": 1519257764118}, {"current_trial": 55, "trialdata": {"rt": -1000, "trial_type": "single-audio", "word": "ozone", "stimulus": "/static/audio/wordpool/OZONE.wav", "conditions": [18, 1200, "a", 18000], "internal_node_id": "0.0-37.0", "trial": 1, "time_elapsed": 390435, "serialpos": 0, "key_press": -1, "wordID": 995, "type": "PRES_AUD", "trial_index": 55}, "uniqueid": "MTK2720:3BWI6RSP7HGHP50Q24JSWZWWB1FE7W", "dateTime": 1519257766321}, {"current_trial": 56, "trialdata": {"rt": -1000, "trial_type": "single-audio", "word": "yarn", "stimulus": "/static/audio/wordpool/YARN.wav", "conditions": [18, 1200, "a", 18000], "internal_node_id": "0.0-38.0", "trial": 1, "time_elapsed": 392614, "serialpos": 1, "key_press": -1, "wordID": 1630, "type": "PRES_AUD", "trial_index": 56}, "uniqueid": "MTK2720:3BWI6RSP7HGHP50Q24JSWZWWB1FE7W", "dateTime": 1519257768500}, {"current_trial": 57, "trialdata": {"rt": -1000, "trial_type": "single-audio", "word": "tweezers", "stimulus": "/static/audio/wordpool/TWEEZERS.wav", "conditions": [18, 1200, "a", 18000], "internal_node_id": "0.0-39.0", "trial": 1, "time_elapsed": 395012, "serialpos": 2, "key_press": -1, "wordID": 1525, "type": "PRES_AUD", "trial_index": 57}, "uniqueid": "MTK2720:3BWI6RSP7HGHP50Q24JSWZWWB1FE7W", "dateTime": 1519257770898}, {"current_trial": 58, "trialdata": {"rt": -1000, "trial_type": "single-audio", "word": "marrow", "stimulus": "/static/audio/wordpool/MARROW.wav", "conditions": [18, 1200, "a", 18000], "internal_node_id": "0.0-40.0", "trial": 1, "time_elapsed": 397267, "serialpos": 3, "key_press": -1, "wordID": 871, "type": "PRES_AUD", "trial_index": 58}, "uniqueid": "MTK2720:3BWI6RSP7HGHP50Q24JSWZWWB1FE7W", "dateTime": 1519257773153}, {"current_trial": 59, "trialdata": {"rt": -1000, "trial_type": "single-audio", "word": "wardrobe", "stimulus": "/static/audio/wordpool/WARDROBE.wav", "conditions": [18, 1200, "a", 18000], "internal_node_id": "0.0-41.0", "trial": 1, "time_elapsed": 399573, "serialpos": 4, "key_press": -1, "wordID": 1586, "type": "PRES_AUD", "trial_index": 59}, "uniqueid": "MTK2720:3BWI6RSP7HGHP50Q24JSWZWWB1FE7W", "dateTime": 1519257775459}, {"current_trial": 60, "trialdata": {"rt": -1000, "trial_type": "single-audio", "word": "flute", "stimulus": "/static/audio/wordpool/FLUTE.wav", "conditions": [18, 1200, "a", 18000], "internal_node_id": "0.0-42.0", "trial": 1, "time_elapsed": 401875, "serialpos": 5, "key_press": -1, "wordID": 584, "type": "PRES_AUD", "trial_index": 60}, "uniqueid": "MTK2720:3BWI6RSP7HGHP50Q24JSWZWWB1FE7W", "dateTime": 1519257777762}, {"current_trial": 61, "trialdata": {"rt": -1000, "trial_type": "single-audio", "word": "hedge", "stimulus": "/static/audio/wordpool/HEDGE.wav", "conditions": [18, 1200, "a", 18000], "internal_node_id": "0.0-43.0", "trial": 1, "time_elapsed": 403947, "serialpos": 6, "key_press": -1, "wordID": 698, "type": "PRES_AUD", "trial_index": 61}, "uniqueid": "MTK2720:3BWI6RSP7HGHP50Q24JSWZWWB1FE7W", "dateTime": 1519257779833}, {"current_trial": 62, "trialdata": {"rt": -1000, "trial_type": "single-audio", "word": "hook", "stimulus": "/static/audio/wordpool/HOOK.wav", "conditions": [18, 1200, "a", 18000], "internal_node_id": "0.0-44.0", "trial": 1, "time_elapsed": 406305, "serialpos": 7, "key_press": -1, "wordID": 714, "type": "PRES_AUD", "trial_index": 62}, "uniqueid": "MTK2720:3BWI6RSP7HGHP50Q24JSWZWWB1FE7W", "dateTime": 1519257782192}, {"current_trial": 63, "trialdata": {"rt": -1000, "trial_type": "single-audio", "word": "blueprint", "stimulus": "/static/audio/wordpool/BLUEPRINT.wav", "conditions": [18, 1200, "a", 18000], "internal_node_id": "0.0-45.0", "trial": 1, "time_elapsed": 408675, "serialpos": 8, "key_press": -1, "wordID": 141, "type": "PRES_AUD", "trial_index": 63}, "uniqueid": "MTK2720:3BWI6RSP7HGHP50Q24JSWZWWB1FE7W", "dateTime": 1519257784561}, {"current_trial": 64, "trialdata": {"rt": -1000, "trial_type": "single-audio", "word": "lettuce", "stimulus": "/static/audio/wordpool/LETTUCE.wav", "conditions": [18, 1200, "a", 18000], "internal_node_id": "0.0-46.0", "trial": 1, "time_elapsed": 410772, "serialpos": 9, "key_press": -1, "wordID": 813, "type": "PRES_AUD", "trial_index": 64}, "uniqueid": "MTK2720:3BWI6RSP7HGHP50Q24JSWZWWB1FE7W", "dateTime": 1519257786658}, {"current_trial": 65, "trialdata": {"rt": -1000, "trial_type": "single-audio", "word": "sparrow", "stimulus": "/static/audio/wordpool/SPARROW.wav", "conditions": [18, 1200, "a", 18000], "internal_node_id": "0.0-47.0", "trial": 1, "time_elapsed": 412883, "serialpos": 10, "key_press": -1, "wordID": 1346, "type": "PRES_AUD", "trial_index": 65}, "uniqueid": "MTK2720:3BWI6RSP7HGHP50Q24JSWZWWB1FE7W", "dateTime": 1519257788769}, {"current_trial": 66, "trialdata": {"rt": -1000, "trial_type": "single-audio", "word": "princess", "stimulus": "/static/audio/wordpool/PRINCESS.wav", "conditions": [18, 1200, "a", 18000], "internal_node_id": "0.0-48.0", "trial": 1, "time_elapsed": 415033, "serialpos": 11, "key_press": -1, "wordID": 1124, "type": "PRES_AUD", "trial_index": 66}, "uniqueid": "MTK2720:3BWI6RSP7HGHP50Q24JSWZWWB1FE7W", "dateTime": 1519257790919}, {"current_trial": 67, "trialdata": {"rt": -1000, "trial_type": "single-audio", "word": "radish", "stimulus": "/static/audio/wordpool/RADISH.wav", "conditions": [18, 1200, "a", 18000], "internal_node_id": "0.0-49.0", "trial": 1, "time_elapsed": 417105, "serialpos": 12, "key_press": -1, "wordID": 1157, "type": "PRES_AUD", "trial_index": 67}, "uniqueid": "MTK2720:3BWI6RSP7HGHP50Q24JSWZWWB1FE7W", "dateTime": 1519257792991}, {"current_trial": 68, "trialdata": {"rt": -1000, "trial_type": "single-audio", "word": "garbage", "stimulus": "/static/audio/wordpool/GARBAGE.wav", "conditions": [18, 1200, "a", 18000], "internal_node_id": "0.0-50.0", "trial": 1, "time_elapsed": 419395, "serialpos": 13, "key_press": -1, "wordID": 621, "type": "PRES_AUD", "trial_index": 68}, "uniqueid": "MTK2720:3BWI6RSP7HGHP50Q24JSWZWWB1FE7W", "dateTime": 1519257795282}, {"current_trial": 69, "trialdata": {"rt": -1000, "trial_type": "single-audio", "word": "space", "stimulus": "/static/audio/wordpool/SPACE.wav", "conditions": [18, 1200, "a", 18000], "internal_node_id": "0.0-51.0", "trial": 1, "time_elapsed": 421603, "serialpos": 14, "key_press": -1, "wordID": 1344, "type": "PRES_AUD", "trial_index": 69}, "uniqueid": "MTK2720:3BWI6RSP7HGHP50Q24JSWZWWB1FE7W", "dateTime": 1519257797489}, {"current_trial": 70, "trialdata": {"rt": -1000, "trial_type": "single-audio", "word": "helmet", "stimulus": "/static/audio/wordpool/HELMET.wav", "conditions": [18, 1200, "a", 18000], "internal_node_id": "0.0-52.0", "trial": 1, "time_elapsed": 423697, "serialpos": 15, "key_press": -1, "wordID": 701, "type": "PRES_AUD", "trial_index": 70}, "uniqueid": "MTK2720:3BWI6RSP7HGHP50Q24JSWZWWB1FE7W", "dateTime": 1519257799583}, {"current_trial": 71, "trialdata": {"rt": -1000, "trial_type": "single-audio", "word": "fox", "stimulus": "/static/audio/wordpool/FOX.wav", "conditions": [18, 1200, "a", 18000], "internal_node_id": "0.0-53.0", "trial": 1, "time_elapsed": 426044, "serialpos": 16, "key_press": -1, "wordID": 597, "type": "PRES_AUD", "trial_index": 71}, "uniqueid": "MTK2720:3BWI6RSP7HGHP50Q24JSWZWWB1FE7W", "dateTime": 1519257801931}, {"current_trial": 72, "trialdata": {"rt": -1000, "trial_type": "single-audio", "word": "record", "stimulus": "/static/audio/wordpool/RECORD.wav", "conditions": [18, 1200, "a", 18000], "internal_node_id": "0.0-54.0", "trial": 1, "time_elapsed": 428171, "serialpos": 17, "key_press": -1, "wordID": 1175, "type": "PRES_AUD", "trial_index": 72}, "uniqueid": "MTK2720:3BWI6RSP7HGHP50Q24JSWZWWB1FE7W", "dateTime": 1519257804057}, {"current_trial": 73, "trialdata": {"rt": -1, "trial_type": "single-stim", "stimulus": "", "internal_node_id": "0.0-55.0-0.0", "time_elapsed": 429441, "key_press": -1, "type": "PRE_RECALL_DELAY", "trial_index": 73}, "uniqueid": "MTK2720:3BWI6RSP7HGHP50Q24JSWZWWB1FE7W", "dateTime": 1519257805327}, {"current_trial": 74, "trialdata": {"rt": -1000, "trial_type": "single-audio", "stimulus": "/static/audio/400Hz.wav", "internal_node_id": "0.0-56.0", "time_elapsed": 429943, "key_press": -1, "type": "PRE_RECALL_ALERT", "trial_index": 74}, "uniqueid": "MTK2720:3BWI6RSP7HGHP50Q24JSWZWWB1FE7W", "dateTime": 1519257805829}, {"current_trial": 75, "trialdata": {"rt": [1405, 3115, 4517, 5964, 7812, 10718, 16485, 19517, 40245], "recwords": ["record", "fox", "yarn", "hook", "lettuce", "garbage", "tweezer", "ozone", "sparrow"], "key_times": [414, 436, 668, 765, 933, 1172, 1405, 2125, 2229, 2829, 3115, 3638, 3725, 3877, 4142, 4517, 4925, 5348, 5517, 5726, 5964, 6396, 6558, 6781, 6925, 7028, 7245, 7556, 7812, 8820, 8917, 9053, 9263, 9341, 9564, 10189, 10718, 13813, 14318, 14565, 14717, 15029, 15365, 15500, 16485, 17229, 17590, 17693, 17812, 18021, 19517, 38917, 38989, 39093, 39333, 39477, 39604, 39677, 40245], "trial_type": "free-recall", "conditions": [18, 1200, "a", 18000], "internal_node_id": "0.0-57.0-0.0", "key_presses": [82, 69, 67, 79, 82, 68, 13, 70, 79, 88, 13, 89, 65, 82, 78, 13, 72, 79, 79, 75, 13, 76, 69, 84, 84, 85, 67, 69, 13, 71, 65, 82, 66, 65, 71, 69, 13, 84, 87, 69, 69, 90, 69, 82, 13, 79, 90, 79, 78, 69, 13, 83, 80, 65, 82, 82, 79, 87, 13], "trial": 1, "time_elapsed": 489944, "type": "FREE_RECALL", "trial_index": 75}, "uniqueid": "MTK2720:3BWI6RSP7HGHP50Q24JSWZWWB1FE7W", "dateTime": 1519257865831}, {"current_trial": 76, "trialdata": {"rt": 2508, "trial_type": "text", "internal_node_id": "0.0-58.0", "time_elapsed": 494455, "key_press": 32, "type": "INSTRUCTIONS", "trial_index": 76}, "uniqueid": "MTK2720:3BWI6RSP7HGHP50Q24JSWZWWB1FE7W", "dateTime": 1519257870341}, {"current_trial": 77, "trialdata": {"rt": [4195, 7155], "trial_type": "math-distractor", "key_times": [3876, 4195, 6836, 6956, 7155, 11620, 11723], "responses": ["7", "10"], "num2": [4, 6, 2], "num3": [5, 2, 5], "conditions": [12, 800, "a", 12000], "internal_node_id": "0.0-59.0", "key_presses": [103, 13, 97, 96, 13, 97, 99], "trial": 2, "time_elapsed": 507458, "type": "DISTRACTOR", "trial_index": 77, "num1": [3, 2, 6]}, "uniqueid": "MTK2720:3BWI6RSP7HGHP50Q24JSWZWWB1FE7W", "dateTime": 1519257883344}, {"current_trial": 78, "trialdata": {"rt": -1, "trial_type": "single-stim", "stimulus": "<p id=\"stim\">10</p>", "internal_node_id": "0.0-60.0-0.0", "time_elapsed": 510461, "key_press": -1, "trial_index": 78}, "uniqueid": "MTK2720:3BWI6RSP7HGHP50Q24JSWZWWB1FE7W", "dateTime": 1519257886347}, {"current_trial": 79, "trialdata": {"rt": -1, "trial_type": "single-stim", "stimulus": "<p id=\"stim\">9</p>", "internal_node_id": "0.0-60.0-1.0", "time_elapsed": 511463, "key_press": -1, "trial_index": 79}, "uniqueid": "MTK2720:3BWI6RSP7HGHP50Q24JSWZWWB1FE7W", "dateTime": 1519257887349}, {"current_trial": 80, "trialdata": {"rt": -1, "trial_type": "single-stim", "stimulus": "<p id=\"stim\">8</p>", "internal_node_id": "0.0-60.0-2.0", "time_elapsed": 512464, "key_press": -1, "trial_index": 80}, "uniqueid": "MTK2720:3BWI6RSP7HGHP50Q24JSWZWWB1FE7W", "dateTime": 1519257888350}, {"current_trial": 81, "trialdata": {"rt": -1, "trial_type": "single-stim", "stimulus": "<p id=\"stim\">7</p>", "internal_node_id": "0.0-60.0-3.0", "time_elapsed": 513466, "key_press": -1, "trial_index": 81}, "uniqueid": "MTK2720:3BWI6RSP7HGHP50Q24JSWZWWB1FE7W", "dateTime": 1519257889352}, {"current_trial": 82, "trialdata": {"rt": -1, "trial_type": "single-stim", "stimulus": "<p id=\"stim\">6</p>", "internal_node_id": "0.0-60.0-4.0", "time_elapsed": 514467, "key_press": -1, "trial_index": 82}, "uniqueid": "MTK2720:3BWI6RSP7HGHP50Q24JSWZWWB1FE7W", "dateTime": 1519257890353}, {"current_trial": 83, "trialdata": {"rt": -1, "trial_type": "single-stim", "stimulus": "<p id=\"stim\">5</p>", "internal_node_id": "0.0-60.0-5.0", "time_elapsed": 515469, "key_press": -1, "trial_index": 83}, "uniqueid": "MTK2720:3BWI6RSP7HGHP50Q24JSWZWWB1FE7W", "dateTime": 1519257891355}, {"current_trial": 84, "trialdata": {"rt": -1, "trial_type": "single-stim", "stimulus": "<p id=\"stim\">4</p>", "internal_node_id": "0.0-60.0-6.0", "time_elapsed": 516470, "key_press": -1, "trial_index": 84}, "uniqueid": "MTK2720:3BWI6RSP7HGHP50Q24JSWZWWB1FE7W", "dateTime": 1519257892356}, {"current_trial": 85, "trialdata": {"rt": -1, "trial_type": "single-stim", "stimulus": "<p id=\"stim\">3</p>", "internal_node_id": "0.0-60.0-7.0", "time_elapsed": 517472, "key_press": -1, "trial_index": 85}, "uniqueid": "MTK2720:3BWI6RSP7HGHP50Q24JSWZWWB1FE7W", "dateTime": 1519257893358}, {"current_trial": 86, "trialdata": {"rt": -1, "trial_type": "single-stim", "stimulus": "<p id=\"stim\">2</p>", "internal_node_id": "0.0-60.0-8.0", "time_elapsed": 518471, "key_press": -1, "trial_index": 86}, "uniqueid": "MTK2720:3BWI6RSP7HGHP50Q24JSWZWWB1FE7W", "dateTime": 1519257894357}, {"current_trial": 87, "trialdata": {"rt": -1, "trial_type": "single-stim", "stimulus": "<p id=\"stim\">1</p>", "internal_node_id": "0.0-60.0-9.0", "time_elapsed": 519473, "key_press": -1, "trial_index": 87}, "uniqueid": "MTK2720:3BWI6RSP7HGHP50Q24JSWZWWB1FE7W", "dateTime": 1519257895359}, {"current_trial": 88, "trialdata": {"rt": -1, "trial_type": "single-stim", "stimulus": "<p id=\"stim\">+</p>", "internal_node_id": "0.0-61.0-0.0", "time_elapsed": 520974, "key_press": -1, "type": "FIXATION", "trial_index": 88}, "uniqueid": "MTK2720:3BWI6RSP7HGHP50Q24JSWZWWB1FE7W", "dateTime": 1519257896861}, {"current_trial": 89, "trialdata": {"rt": -1000, "trial_type": "single-audio", "word": "ulcer", "stimulus": "/static/audio/wordpool/ULCER.wav", "conditions": [12, 800, "a", 12000], "internal_node_id": "0.0-62.0", "trial": 2, "time_elapsed": 522686, "serialpos": 0, "key_press": -1, "wordID": 1532, "type": "PRES_AUD", "trial_index": 89}, "uniqueid": "MTK2720:3BWI6RSP7HGHP50Q24JSWZWWB1FE7W", "dateTime": 1519257898572}, {"current_trial": 90, "trialdata": {"rt": -1000, "trial_type": "single-audio", "word": "piston", "stimulus": "/static/audio/wordpool/PISTON.wav", "conditions": [12, 800, "a", 12000], "internal_node_id": "0.0-63.0", "trial": 2, "time_elapsed": 524644, "serialpos": 1, "key_press": -1, "wordID": 1075, "type": "PRES_AUD", "trial_index": 90}, "uniqueid": "MTK2720:3BWI6RSP7HGHP50Q24JSWZWWB1FE7W", "dateTime": 1519257900531}, {"current_trial": 91, "trialdata": {"rt": -1000, "trial_type": "single-audio", "word": "plaza", "stimulus": "/static/audio/wordpool/PLAZA.wav", "conditions": [12, 800, "a", 12000], "internal_node_id": "0.0-64.0", "trial": 2, "time_elapsed": 526445, "serialpos": 2, "key_press": -1, "wordID": 1087, "type": "PRES_AUD", "trial_index": 91}, "uniqueid": "MTK2720:3BWI6RSP7HGHP50Q24JSWZWWB1FE7W", "dateTime": 1519257902331}, {"current_trial": 92, "trialdata": {"rt": -1000, "trial_type": "single-audio", "word": "beaver", "stimulus": "/static/audio/wordpool/BEAVER.wav", "conditions": [12, 800, "a", 12000], "internal_node_id": "0.0-65.0", "trial": 2, "time_elapsed": 528340, "serialpos": 3, "key_press": -1, "wordID": 108, "type": "PRES_AUD", "trial_index": 92}, "uniqueid": "MTK2720:3BWI6RSP7HGHP50Q24JSWZWWB1FE7W", "dateTime": 1519257904226}, {"current_trial": 93, "trialdata": {"rt": -1000, "trial_type": "single-audio", "word": "highway", "stimulus": "/static/audio/wordpool/HIGHWAY.wav", "conditions": [12, 800, "a", 12000], "internal_node_id": "0.0-66.0", "trial": 2, "time_elapsed": 530178, "serialpos": 4, "key_press": -1, "wordID": 706, "type": "PRES_AUD", "trial_index": 93}, "uniqueid": "MTK2720:3BWI6RSP7HGHP50Q24JSWZWWB1FE7W", "dateTime": 1519257906064}, {"current_trial": 94, "trialdata": {"rt": -1000, "trial_type": "single-audio", "word": "sister", "stimulus": "/static/audio/wordpool/SISTER.wav", "conditions": [12, 800, "a", 12000], "internal_node_id": "0.0-67.0", "trial": 2, "time_elapsed": 532102, "serialpos": 5, "key_press": -1, "wordID": 1311, "type": "PRES_AUD", "trial_index": 94}, "uniqueid": "MTK2720:3BWI6RSP7HGHP50Q24JSWZWWB1FE7W", "dateTime": 1519257907988}, {"current_trial": 95, "trialdata": {"rt": -1000, "trial_type": "single-audio", "word": "dentist", "stimulus": "/static/audio/wordpool/DENTIST.wav", "conditions": [12, 800, "a", 12000], "internal_node_id": "0.0-68.0", "trial": 2, "time_elapsed": 533999, "serialpos": 6, "key_press": -1, "wordID": 446, "type": "PRES_AUD", "trial_index": 95}, "uniqueid": "MTK2720:3BWI6RSP7HGHP50Q24JSWZWWB1FE7W", "dateTime": 1519257909885}, {"current_trial": 96, "trialdata": {"rt": -1000, "trial_type": "single-audio", "word": "river", "stimulus": "/static/audio/wordpool/RIVER.wav", "conditions": [12, 800, "a", 12000], "internal_node_id": "0.0-69.0", "trial": 2, "time_elapsed": 535933, "serialpos": 7, "key_press": -1, "wordID": 1193, "type": "PRES_AUD", "trial_index": 96}, "uniqueid": "MTK2720:3BWI6RSP7HGHP50Q24JSWZWWB1FE7W", "dateTime": 1519257911819}, {"current_trial": 97, "trialdata": {"rt": -1000, "trial_type": "single-audio", "word": "lake", "stimulus": "/static/audio/wordpool/LAKE.wav", "conditions": [12, 800, "a", 12000], "internal_node_id": "0.0-70.0", "trial": 2, "time_elapsed": 537803, "serialpos": 8, "key_press": -1, "wordID": 795, "type": "PRES_AUD", "trial_index": 97}, "uniqueid": "MTK2720:3BWI6RSP7HGHP50Q24JSWZWWB1FE7W", "dateTime": 1519257913690}, {"current_trial": 98, "trialdata": {"rt": -1000, "trial_type": "single-audio", "word": "hood", "stimulus": "/static/audio/wordpool/HOOD.wav", "conditions": [12, 800, "a", 12000], "internal_node_id": "0.0-71.0", "trial": 2, "time_elapsed": 539445, "serialpos": 9, "key_press": -1, "wordID": 713, "type": "PRES_AUD", "trial_index": 98}, "uniqueid": "MTK2720:3BWI6RSP7HGHP50Q24JSWZWWB1FE7W", "dateTime": 1519257915331}, {"current_trial": 99, "trialdata": {"rt": -1000, "trial_type": "single-audio", "word": "woman", "stimulus": "/static/audio/wordpool/WOMAN.wav", "conditions": [12, 800, "a", 12000], "internal_node_id": "0.0-72.0", "trial": 2, "time_elapsed": 541401, "serialpos": 10, "key_press": -1, "wordID": 1619, "type": "PRES_AUD", "trial_index": 99}, "uniqueid": "MTK2720:3BWI6RSP7HGHP50Q24JSWZWWB1FE7W", "dateTime": 1519257917287}, {"current_trial": 100, "trialdata": {"rt": -1000, "trial_type": "single-audio", "word": "sidewalk", "stimulus": "/static/audio/wordpool/SIDEWALK.wav", "conditions": [12, 800, "a", 12000], "internal_node_id": "0.0-73.0", "trial": 2, "time_elapsed": 543353, "serialpos": 11, "key_press": -1, "wordID": 1302, "type": "PRES_AUD", "trial_index": 100}, "uniqueid": "MTK2720:3BWI6RSP7HGHP50Q24JSWZWWB1FE7W", "dateTime": 1519257919239}, {"current_trial": 101, "trialdata": {"rt": -1, "trial_type": "single-stim", "stimulus": "", "internal_node_id": "0.0-74.0-0.0", "time_elapsed": 544726, "key_press": -1, "type": "PRE_RECALL_DELAY", "trial_index": 101}, "uniqueid": "MTK2720:3BWI6RSP7HGHP50Q24JSWZWWB1FE7W", "dateTime": 1519257920612}, {"current_trial": 102, "trialdata": {"rt": -1000, "trial_type": "single-audio", "stimulus": "/static/audio/400Hz.wav", "internal_node_id": "0.0-75.0", "time_elapsed": 545226, "key_press": -1, "type": "PRE_RECALL_ALERT", "trial_index": 102}, "uniqueid": "MTK2720:3BWI6RSP7HGHP50Q24JSWZWWB1FE7W", "dateTime": 1519257921112}, {"current_trial": 103, "trialdata": {"rt": [2194, 3537, 5185, 6865, 8745, 15369, 58154], "recwords": ["sidewalk", "hood", "piston", "woman", "sister", "sidewalk", ""], "key_times": [434, 465, 610, 817, 1018, 1202, 1338, 1593, 2194, 2762, 3026, 3201, 3306, 3537, 4162, 4385, 4498, 4682, 4760, 4898, 5185, 5514, 5610, 5937, 6002, 6209, 6865, 7273, 7353, 7505, 7706, 7883, 7970, 8745, 13266, 13386, 13737, 13937, 14178, 14370, 14506, 14699, 15369, 58154], "trial_type": "free-recall", "conditions": [12, 800, "a", 12000], "internal_node_id": "0.0-76.0-0.0", "key_presses": [83, 73, 68, 69, 87, 65, 76, 75, 13, 72, 79, 79, 68, 13, 80, 73, 83, 84, 79, 78, 13, 87, 79, 77, 65, 78, 13, 83, 73, 83, 84, 69, 82, 13, 83, 73, 68, 69, 87, 65, 76, 75, 13, 32], "trial": 2, "time_elapsed": 605228, "type": "FREE_RECALL", "trial_index": 103}, "uniqueid": "MTK2720:3BWI6RSP7HGHP50Q24JSWZWWB1FE7W", "dateTime": 1519257981115}, {"current_trial": 104, "trialdata": {"rt": 2328, "trial_type": "text", "internal_node_id": "0.0-77.0", "time_elapsed": 609558, "key_press": 32, "type": "INSTRUCTIONS", "trial_index": 104}, "uniqueid": "MTK2720:3BWI6RSP7HGHP50Q24JSWZWWB1FE7W", "dateTime": 1519257985444}, {"current_trial": 105, "trialdata": {"rt": [2804, 8068, 11958], "trial_type": "math-distractor", "key_times": [2356, 2541, 2804, 7422, 7773, 8068, 11445, 11645, 11958], "responses": ["14", "18", "18"], "num2": [4, 9, 9, 4], "num3": [9, 6, 4, 3], "conditions": [24, 800, "a", 12000], "internal_node_id": "0.0-78.0", "key_presses": [97, 100, 13, 97, 104, 13, 97, 104, 13], "trial": 3, "time_elapsed": 623561, "type": "DISTRACTOR", "trial_index": 105, "num1": [1, 3, 5, 3]}, "uniqueid": "MTK2720:3BWI6RSP7HGHP50Q24JSWZWWB1FE7W", "dateTime": 1519257999447}, {"current_trial": 106, "trialdata": {"rt": -1, "trial_type": "single-stim", "stimulus": "<p id=\"stim\">10</p>", "internal_node_id": "0.0-79.0-0.0", "time_elapsed": 626563, "key_press": -1, "trial_index": 106}, "uniqueid": "MTK2720:3BWI6RSP7HGHP50Q24JSWZWWB1FE7W", "dateTime": 1519258002449}, {"current_trial": 107, "trialdata": {"rt": -1, "trial_type": "single-stim", "stimulus": "<p id=\"stim\">9</p>", "internal_node_id": "0.0-79.0-1.0", "time_elapsed": 627565, "key_press": -1, "trial_index": 107}, "uniqueid": "MTK2720:3BWI6RSP7HGHP50Q24JSWZWWB1FE7W", "dateTime": 1519258003451}, {"current_trial": 108, "trialdata": {"rt": -1, "trial_type": "single-stim", "stimulus": "<p id=\"stim\">8</p>", "internal_node_id": "0.0-79.0-2.0", "time_elapsed": 628566, "key_press": -1, "trial_index": 108}, "uniqueid": "MTK2720:3BWI6RSP7HGHP50Q24JSWZWWB1FE7W", "dateTime": 1519258004452}, {"current_trial": 109, "trialdata": {"rt": -1, "trial_type": "single-stim", "stimulus": "<p id=\"stim\">7</p>", "internal_node_id": "0.0-79.0-3.0", "time_elapsed": 629568, "key_press": -1, "trial_index": 109}, "uniqueid": "MTK2720:3BWI6RSP7HGHP50Q24JSWZWWB1FE7W", "dateTime": 1519258005454}, {"current_trial": 110, "trialdata": {"rt": -1, "trial_type": "single-stim", "stimulus": "<p id=\"stim\">6</p>", "internal_node_id": "0.0-79.0-4.0", "time_elapsed": 630570, "key_press": -1, "trial_index": 110}, "uniqueid": "MTK2720:3BWI6RSP7HGHP50Q24JSWZWWB1FE7W", "dateTime": 1519258006456}, {"current_trial": 111, "trialdata": {"rt": -1, "trial_type": "single-stim", "stimulus": "<p id=\"stim\">5</p>", "internal_node_id": "0.0-79.0-5.0", "time_elapsed": 631571, "key_press": -1, "trial_index": 111}, "uniqueid": "MTK2720:3BWI6RSP7HGHP50Q24JSWZWWB1FE7W", "dateTime": 1519258007457}, {"current_trial": 112, "trialdata": {"rt": -1, "trial_type": "single-stim", "stimulus": "<p id=\"stim\">4</p>", "internal_node_id": "0.0-79.0-6.0", "time_elapsed": 632573, "key_press": -1, "trial_index": 112}, "uniqueid": "MTK2720:3BWI6RSP7HGHP50Q24JSWZWWB1FE7W", "dateTime": 1519258008459}, {"current_trial": 113, "trialdata": {"rt": -1, "trial_type": "single-stim", "stimulus": "<p id=\"stim\">3</p>", "internal_node_id": "0.0-79.0-7.0", "time_elapsed": 633575, "key_press": -1, "trial_index": 113}, "uniqueid": "MTK2720:3BWI6RSP7HGHP50Q24JSWZWWB1FE7W", "dateTime": 1519258009461}, {"current_trial": 114, "trialdata": {"rt": -1, "trial_type": "single-stim", "stimulus": "<p id=\"stim\">2</p>", "internal_node_id": "0.0-79.0-8.0", "time_elapsed": 634577, "key_press": -1, "trial_index": 114}, "uniqueid": "MTK2720:3BWI6RSP7HGHP50Q24JSWZWWB1FE7W", "dateTime": 1519258010463}, {"current_trial": 115, "trialdata": {"rt": -1, "trial_type": "single-stim", "stimulus": "<p id=\"stim\">1</p>", "internal_node_id": "0.0-79.0-9.0", "time_elapsed": 635579, "key_press": -1, "trial_index": 115}, "uniqueid": "MTK2720:3BWI6RSP7HGHP50Q24JSWZWWB1FE7W", "dateTime": 1519258011465}, {"current_trial": 116, "trialdata": {"rt": -1, "trial_type": "single-stim", "stimulus": "<p id=\"stim\">+</p>", "internal_node_id": "0.0-80.0-0.0", "time_elapsed": 637080, "key_press": -1, "type": "FIXATION", "trial_index": 116}, "uniqueid": "MTK2720:3BWI6RSP7HGHP50Q24JSWZWWB1FE7W", "dateTime": 1519258012966}, {"current_trial": 117, "trialdata": {"rt": -1000, "trial_type": "single-audio", "word": "scissors", "stimulus": "/static/audio/wordpool/SCISSORS.wav", "conditions": [24, 800, "a", 12000], "internal_node_id": "0.0-81.0", "trial": 3, "time_elapsed": 638988, "serialpos": 0, "key_press": -1, "wordID": 1249, "type": "PRES_AUD", "trial_index": 117}, "uniqueid": "MTK2720:3BWI6RSP7HGHP50Q24JSWZWWB1FE7W", "dateTime": 1519258014874}, {"current_trial": 118, "trialdata": {"rt": -1000, "trial_type": "single-audio", "word": "parsley", "stimulus": "/static/audio/wordpool/PARSLEY.wav", "conditions": [24, 800, "a", 12000], "internal_node_id": "0.0-82.0", "trial": 3, "time_elapsed": 640859, "serialpos": 1, "key_press": -1, "wordID": 1015, "type": "PRES_AUD", "trial_index": 118}, "uniqueid": "MTK2720:3BWI6RSP7HGHP50Q24JSWZWWB1FE7W", "dateTime": 1519258016745}, {"current_trial": 119, "trialdata": {"rt": -1000, "trial_type": "single-audio", "word": "salad", "stimulus": "/static/audio/wordpool/SALAD.wav", "conditions": [24, 800, "a", 12000], "internal_node_id": "0.0-83.0", "trial": 3, "time_elapsed": 642569, "serialpos": 2, "key_press": -1, "wordID": 1223, "type": "PRES_AUD", "trial_index": 119}, "uniqueid": "MTK2720:3BWI6RSP7HGHP50Q24JSWZWWB1FE7W", "dateTime": 1519258018455}, {"current_trial": 120, "trialdata": {"rt": -1000, "trial_type": "single-audio", "word": "poison", "stimulus": "/static/audio/wordpool/POISON.wav", "conditions": [24, 800, "a", 12000], "internal_node_id": "0.0-84.0", "trial": 3, "time_elapsed": 644295, "serialpos": 3, "key_press": -1, "wordID": 1095, "type": "PRES_AUD", "trial_index": 120}, "uniqueid": "MTK2720:3BWI6RSP7HGHP50Q24JSWZWWB1FE7W", "dateTime": 1519258020181}, {"current_trial": 121, "trialdata": {"rt": -1000, "trial_type": "single-audio", "word": "scalpel", "stimulus": "/static/audio/wordpool/SCALPEL.wav", "conditions": [24, 800, "a", 12000], "internal_node_id": "0.0-85.0", "trial": 3, "time_elapsed": 645937, "serialpos": 4, "key_press": -1, "wordID": 1242, "type": "PRES_AUD", "trial_index": 121}, "uniqueid": "MTK2720:3BWI6RSP7HGHP50Q24JSWZWWB1FE7W", "dateTime": 1519258021823}, {"current_trial": 122, "trialdata": {"rt": -1000, "trial_type": "single-audio", "word": "breast", "stimulus": "/static/audio/wordpool/BREAST.wav", "conditions": [24, 800, "a", 12000], "internal_node_id": "0.0-86.0", "trial": 3, "time_elapsed": 647554, "serialpos": 5, "key_press": -1, "wordID": 170, "type": "PRES_AUD", "trial_index": 122}, "uniqueid": "MTK2720:3BWI6RSP7HGHP50Q24JSWZWWB1FE7W", "dateTime": 1519258023440}, {"current_trial": 123, "trialdata": {"rt": -1000, "trial_type": "single-audio", "word": "nightgown", "stimulus": "/static/audio/wordpool/NIGHTGOWN.wav", "conditions": [24, 800, "a", 12000], "internal_node_id": "0.0-87.0", "trial": 3, "time_elapsed": 649225, "serialpos": 6, "key_press": -1, "wordID": 952, "type": "PRES_AUD", "trial_index": 123}, "uniqueid": "MTK2720:3BWI6RSP7HGHP50Q24JSWZWWB1FE7W", "dateTime": 1519258025112}, {"current_trial": 124, "trialdata": {"rt": -1000, "trial_type": "single-audio", "word": "crevice", "stimulus": "/static/audio/wordpool/CREVICE.wav", "conditions": [24, 800, "a", 12000], "internal_node_id": "0.0-88.0", "trial": 3, "time_elapsed": 651191, "serialpos": 7, "key_press": -1, "wordID": 404, "type": "PRES_AUD", "trial_index": 124}, "uniqueid": "MTK2720:3BWI6RSP7HGHP50Q24JSWZWWB1FE7W", "dateTime": 1519258027077}, {"current_trial": 125, "trialdata": {"rt": -1000, "trial_type": "single-audio", "word": "money", "stimulus": "/static/audio/wordpool/MONEY.wav", "conditions": [24, 800, "a", 12000], "internal_node_id": "0.0-89.0", "trial": 3, "time_elapsed": 653131, "serialpos": 8, "key_press": -1, "wordID": 907, "type": "PRES_AUD", "trial_index": 125}, "uniqueid": "MTK2720:3BWI6RSP7HGHP50Q24JSWZWWB1FE7W", "dateTime": 1519258029017}, {"current_trial": 126, "trialdata": {"rt": -1000, "trial_type": "single-audio", "word": "mummy", "stimulus": "/static/audio/wordpool/MUMMY.wav", "conditions": [24, 800, "a", 12000], "internal_node_id": "0.0-90.0", "trial": 3, "time_elapsed": 654974, "serialpos": 9, "key_press": -1, "wordID": 931, "type": "PRES_AUD", "trial_index": 126}, "uniqueid": "MTK2720:3BWI6RSP7HGHP50Q24JSWZWWB1FE7W", "dateTime": 1519258030860}, {"current_trial": 127, "trialdata": {"rt": -1000, "trial_type": "single-audio", "word": "grape", "stimulus": "/static/audio/wordpool/GRAPE.wav", "conditions": [24, 800, "a", 12000], "internal_node_id": "0.0-91.0", "trial": 3, "time_elapsed": 656901, "serialpos": 10, "key_press": -1, "wordID": 653, "type": "PRES_AUD", "trial_index": 127}, "uniqueid": "MTK2720:3BWI6RSP7HGHP50Q24JSWZWWB1FE7W", "dateTime": 1519258032787}, {"current_trial": 128, "trialdata": {"rt": -1000, "trial_type": "single-audio", "word": "harp", "stimulus": "/static/audio/wordpool/HARP.wav", "conditions": [24, 800, "a", 12000], "internal_node_id": "0.0-92.0", "trial": 3, "time_elapsed": 658522, "serialpos": 11, "key_press": -1, "wordID": 688, "type": "PRES_AUD", "trial_index": 128}, "uniqueid": "MTK2720:3BWI6RSP7HGHP50Q24JSWZWWB1FE7W", "dateTime": 1519258034408}, {"current_trial": 129, "trialdata": {"rt": -1000, "trial_type": "single-audio", "word": "marine", "stimulus": "/static/audio/wordpool/MARINE.wav", "conditions": [24, 800, "a", 12000], "internal_node_id": "0.0-93.0", "trial": 3, "time_elapsed": 660457, "serialpos": 12, "key_press": -1, "wordID": 868, "type": "PRES_AUD", "trial_index": 129}, "uniqueid": "MTK2720:3BWI6RSP7HGHP50Q24JSWZWWB1FE7W", "dateTime": 1519258036343}, {"current_trial": 130, "trialdata": {"rt": -1000, "trial_type": "single-audio", "word": "church", "stimulus": "/static/audio/wordpool/CHURCH.wav", "conditions": [24, 800, "a", 12000], "internal_node_id": "0.0-94.0", "trial": 3, "time_elapsed": 662287, "serialpos": 13, "key_press": -1, "wordID": 306, "type": "PRES_AUD", "trial_index": 130}, "uniqueid": "MTK2720:3BWI6RSP7HGHP50Q24JSWZWWB1FE7W", "dateTime": 1519258038173}, {"current_trial": 131, "trialdata": {"rt": -1000, "trial_type": "single-audio", "word": "journal", "stimulus": "/static/audio/wordpool/JOURNAL.wav", "conditions": [24, 800, "a", 12000], "internal_node_id": "0.0-95.0", "trial": 3, "time_elapsed": 664244, "serialpos": 14, "key_press": -1, "wordID": 759, "type": "PRES_AUD", "trial_index": 131}, "uniqueid": "MTK2720:3BWI6RSP7HGHP50Q24JSWZWWB1FE7W", "dateTime": 1519258040130}, {"current_trial": 132, "trialdata": {"rt": -1000, "trial_type": "single-audio", "word": "thread", "stimulus": "/static/audio/wordpool/THREAD.wav", "conditions": [24, 800, "a", 12000], "internal_node_id": "0.0-96.0", "trial": 3, "time_elapsed": 666170, "serialpos": 15, "key_press": -1, "wordID": 1459, "type": "PRES_AUD", "trial_index": 132}, "uniqueid": "MTK2720:3BWI6RSP7HGHP50Q24JSWZWWB1FE7W", "dateTime": 1519258042056}, {"current_trial": 133, "trialdata": {"rt": -1000, "trial_type": "single-audio", "word": "silk", "stimulus": "/static/audio/wordpool/SILK.wav", "conditions": [24, 800, "a", 12000], "internal_node_id": "0.0-97.0", "trial": 3, "time_elapsed": 668116, "serialpos": 16, "key_press": -1, "wordID": 1306, "type": "PRES_AUD", "trial_index": 133}, "uniqueid": "MTK2720:3BWI6RSP7HGHP50Q24JSWZWWB1FE7W", "dateTime": 1519258044002}, {"current_trial": 134, "trialdata": {"rt": -1000, "trial_type": "single-audio", "word": "mask", "stimulus": "/static/audio/wordpool/MASK.wav", "conditions": [24, 800, "a", 12000], "internal_node_id": "0.0-98.0", "trial": 3, "time_elapsed": 669870, "serialpos": 17, "key_press": -1, "wordID": 875, "type": "PRES_AUD", "trial_index": 134}, "uniqueid": "MTK2720:3BWI6RSP7HGHP50Q24JSWZWWB1FE7W", "dateTime": 1519258045756}, {"current_trial": 135, "trialdata": {"rt": -1000, "trial_type": "single-audio", "word": "mammal", "stimulus": "/static/audio/wordpool/MAMMAL.wav", "conditions": [24, 800, "a", 12000], "internal_node_id": "0.0-99.0", "trial": 3, "time_elapsed": 671689, "serialpos": 18, "key_press": -1, "wordID": 860, "type": "PRES_AUD", "trial_index": 135}, "uniqueid": "MTK2720:3BWI6RSP7HGHP50Q24JSWZWWB1FE7W", "dateTime": 1519258047575}, {"current_trial": 136, "trialdata": {"rt": -1000, "trial_type": "single-audio", "word": "report", "stimulus": "/static/audio/wordpool/REPORT.wav", "conditions": [24, 800, "a", 12000], "internal_node_id": "0.0-100.0", "trial": 3, "time_elapsed": 673350, "serialpos": 19, "key_press": -1, "wordID": 1183, "type": "PRES_AUD", "trial_index": 136}, "uniqueid": "MTK2720:3BWI6RSP7HGHP50Q24JSWZWWB1FE7W", "dateTime": 1519258049236}, {"current_trial": 137, "trialdata": {"rt": -1000, "trial_type": "single-audio", "word": "survey", "stimulus": "/static/audio/wordpool/SURVEY.wav", "conditions": [24, 800, "a", 12000], "internal_node_id": "0.0-101.0", "trial": 3, "time_elapsed": 675311, "serialpos": 20, "key_press": -1, "wordID": 1413, "type": "PRES_AUD", "trial_index": 137}, "uniqueid": "MTK2720:3BWI6RSP7HGHP50Q24JSWZWWB1FE7W", "dateTime": 1519258051197}, {"current_trial": 138, "trialdata": {"rt": -1000, "trial_type": "single-audio", "word": "lodge", "stimulus": "/static/audio/wordpool/LODGE.wav", "conditions": [24, 800, "a", 12000], "internal_node_id": "0.0-102.0", "trial": 3, "time_elapsed": 677248, "serialpos": 21, "key_press": -1, "wordID": 838, "type": "PRES_AUD", "trial_index": 138}, "uniqueid": "MTK2720:3BWI6RSP7HGHP50Q24JSWZWWB1FE7W", "dateTime": 1519258053134}, {"current_trial": 139, "trialdata": {"rt": -1000, "trial_type": "single-audio", "word": "stamp", "stimulus": "/static/audio/wordpool/STAMP.wav", "conditions": [24, 800, "a", 12000], "internal_node_id": "0.0-103.0", "trial": 3, "time_elapsed": 678860, "serialpos": 22, "key_press": -1, "wordID": 1369, "type": "PRES_AUD", "trial_index": 139}, "uniqueid": "MTK2720:3BWI6RSP7HGHP50Q24JSWZWWB1FE7W", "dateTime": 1519258054746}, {"current_trial": 140, "trialdata": {"rt": -1000, "trial_type": "single-audio", "word": "creature", "stimulus": "/static/audio/wordpool/CREATURE.wav", "conditions": [24, 800, "a", 12000], "internal_node_id": "0.0-104.0", "trial": 3, "time_elapsed": 680567, "serialpos": 23, "key_press": -1, "wordID": 402, "type": "PRES_AUD", "trial_index": 140}, "uniqueid": "MTK2720:3BWI6RSP7HGHP50Q24JSWZWWB1FE7W", "dateTime": 1519258056453}, {"current_trial": 141, "trialdata": {"rt": -1, "trial_type": "single-stim", "stimulus": "", "internal_node_id": "0.0-105.0-0.0", "time_elapsed": 681918, "key_press": -1, "type": "PRE_RECALL_DELAY", "trial_index": 141}, "uniqueid": "MTK2720:3BWI6RSP7HGHP50Q24JSWZWWB1FE7W", "dateTime": 1519258057804}, {"current_trial": 142, "trialdata": {"rt": -1000, "trial_type": "single-audio", "stimulus": "/static/audio/400Hz.wav", "internal_node_id": "0.0-106.0", "time_elapsed": 682420, "key_press": -1, "type": "PRE_RECALL_ALERT", "trial_index": 142}, "uniqueid": "MTK2720:3BWI6RSP7HGHP50Q24JSWZWWB1FE7W", "dateTime": 1519258058306}, {"current_trial": 143, "trialdata": {"rt": [2864, 4943, 7023, 9032], "recwords": ["stamp", "creature", "breast", "scalpel"], "key_times": [1080, 1368, 1575, 1816, 2558, 2864, 3192, 3471, 3559, 3703, 3983, 4032, 4176, 4320, 4943, 5479, 5743, 5807, 6008, 6312, 6608, 7023, 7447, 7824, 8048, 8144, 8375, 8527, 8640, 9032], "trial_type": "free-recall", "conditions": [24, 800, "a", 12000], "internal_node_id": "0.0-107.0-0.0", "key_presses": [83, 84, 65, 77, 80, 13, 67, 82, 69, 65, 84, 85, 82, 69, 13, 66, 82, 69, 65, 83, 84, 13, 83, 67, 65, 76, 80, 69, 76, 13], "trial": 3, "time_elapsed": 742423, "type": "FREE_RECALL", "trial_index": 143}, "uniqueid": "MTK2720:3BWI6RSP7HGHP50Q24JSWZWWB1FE7W", "dateTime": 1519258118313}, {"current_trial": 144, "trialdata": {"rt": 8760, "trial_type": "text", "internal_node_id": "0.0-108.0", "time_elapsed": 753188, "key_press": 13, "type": "INSTRUCTIONS", "trial_index": 144}, "uniqueid": "MTK2720:3BWI6RSP7HGHP50Q24JSWZWWB1FE7W", "dateTime": 1519258129074}, {"current_trial": 145, "trialdata": {"rt": [7454, 14645, 20557, 22870], "trial_type": "math-distractor", "key_times": [6726, 6876, 7454, 13846, 13948, 14645, 20039, 20261, 20557, 22453, 22590, 22870], "responses": ["15", "15", "17", "10"], "num2": [5, 6, 8, 2, 5], "num3": [6, 7, 6, 4, 6], "conditions": [24, 1600, "a", 24000], "internal_node_id": "0.0-109.0", "key_presses": [97, 101, 13, 97, 101, 13, 97, 103, 13, 97, 96, 13], "trial": 4, "time_elapsed": 779192, "type": "DISTRACTOR", "trial_index": 145, "num1": [4, 2, 3, 4, 1]}, "uniqueid": "MTK2720:3BWI6RSP7HGHP50Q24JSWZWWB1FE7W", "dateTime": 1519258155078}, {"current_trial": 146, "trialdata": {"rt": -1, "trial_type": "single-stim", "stimulus": "<p id=\"stim\">10</p>", "internal_node_id": "0.0-110.0-0.0", "time_elapsed": 782195, "key_press": -1, "trial_index": 146}, "uniqueid": "MTK2720:3BWI6RSP7HGHP50Q24JSWZWWB1FE7W", "dateTime": 1519258158082}, {"current_trial": 147, "trialdata": {"rt": -1, "trial_type": "single-stim", "stimulus": "<p id=\"stim\">9</p>", "internal_node_id": "0.0-110.0-1.0", "time_elapsed": 783196, "key_press": -1, "trial_index": 147}, "uniqueid": "MTK2720:3BWI6RSP7HGHP50Q24JSWZWWB1FE7W", "dateTime": 1519258159082}, {"current_trial": 148, "trialdata": {"rt": -1, "trial_type": "single-stim", "stimulus": "<p id=\"stim\">8</p>", "internal_node_id": "0.0-110.0-2.0", "time_elapsed": 784197, "key_press": -1, "trial_index": 148}, "uniqueid": "MTK2720:3BWI6RSP7HGHP50Q24JSWZWWB1FE7W", "dateTime": 1519258160083}, {"current_trial": 149, "trialdata": {"rt": -1, "trial_type": "single-stim", "stimulus": "<p id=\"stim\">7</p>", "internal_node_id": "0.0-110.0-3.0", "time_elapsed": 785197, "key_press": -1, "trial_index": 149}, "uniqueid": "MTK2720:3BWI6RSP7HGHP50Q24JSWZWWB1FE7W", "dateTime": 1519258161083}, {"current_trial": 150, "trialdata": {"rt": -1, "trial_type": "single-stim", "stimulus": "<p id=\"stim\">6</p>", "internal_node_id": "0.0-110.0-4.0", "time_elapsed": 786199, "key_press": -1, "trial_index": 150}, "uniqueid": "MTK2720:3BWI6RSP7HGHP50Q24JSWZWWB1FE7W", "dateTime": 1519258162085}, {"current_trial": 151, "trialdata": {"rt": -1, "trial_type": "single-stim", "stimulus": "<p id=\"stim\">5</p>", "internal_node_id": "0.0-110.0-5.0", "time_elapsed": 787201, "key_press": -1, "trial_index": 151}, "uniqueid": "MTK2720:3BWI6RSP7HGHP50Q24JSWZWWB1FE7W", "dateTime": 1519258163087}, {"current_trial": 152, "trialdata": {"rt": -1, "trial_type": "single-stim", "stimulus": "<p id=\"stim\">4</p>", "internal_node_id": "0.0-110.0-6.0", "time_elapsed": 788203, "key_press": -1, "trial_index": 152}, "uniqueid": "MTK2720:3BWI6RSP7HGHP50Q24JSWZWWB1FE7W", "dateTime": 1519258164089}, {"current_trial": 153, "trialdata": {"rt": -1, "trial_type": "single-stim", "stimulus": "<p id=\"stim\">3</p>", "internal_node_id": "0.0-110.0-7.0", "time_elapsed": 789204, "key_press": -1, "trial_index": 153}, "uniqueid": "MTK2720:3BWI6RSP7HGHP50Q24JSWZWWB1FE7W", "dateTime": 1519258165090}, {"current_trial": 154, "trialdata": {"rt": -1, "trial_type": "single-stim", "stimulus": "<p id=\"stim\">2</p>", "internal_node_id": "0.0-110.0-8.0", "time_elapsed": 790205, "key_press": -1, "trial_index": 154}, "uniqueid": "MTK2720:3BWI6RSP7HGHP50Q24JSWZWWB1FE7W", "dateTime": 1519258166091}, {"current_trial": 155, "trialdata": {"rt": -1, "trial_type": "single-stim", "stimulus": "<p id=\"stim\">1</p>", "internal_node_id": "0.0-110.0-9.0", "time_elapsed": 791206, "key_press": -1, "trial_index": 155}, "uniqueid": "MTK2720:3BWI6RSP7HGHP50Q24JSWZWWB1FE7W", "dateTime": 1519258167093}, {"current_trial": 156, "trialdata": {"rt": -1, "trial_type": "single-stim", "stimulus": "<p id=\"stim\">+</p>", "internal_node_id": "0.0-111.0-0.0", "time_elapsed": 792707, "key_press": -1, "type": "FIXATION", "trial_index": 156}, "uniqueid": "MTK2720:3BWI6RSP7HGHP50Q24JSWZWWB1FE7W", "dateTime": 1519258168594}, {"current_trial": 157, "trialdata": {"rt": -1000, "trial_type": "single-audio", "word": "cashier", "stimulus": "/static/audio/wordpool/CASHIER.wav", "conditions": [24, 1600, "a", 24000], "internal_node_id": "0.0-112.0", "trial": 4, "time_elapsed": 795498, "serialpos": 0, "key_press": -1, "wordID": 253, "type": "PRES_AUD", "trial_index": 157}, "uniqueid": "MTK2720:3BWI6RSP7HGHP50Q24JSWZWWB1FE7W", "dateTime": 1519258171384}, {"current_trial": 158, "trialdata": {"rt": -1000, "trial_type": "single-audio", "word": "label", "stimulus": "/static/audio/wordpool/LABEL.wav", "conditions": [24, 1600, "a", 24000], "internal_node_id": "0.0-113.0", "trial": 4, "time_elapsed": 798165, "serialpos": 1, "key_press": -1, "wordID": 789, "type": "PRES_AUD", "trial_index": 158}, "uniqueid": "MTK2720:3BWI6RSP7HGHP50Q24JSWZWWB1FE7W", "dateTime": 1519258174051}, {"current_trial": 159, "trialdata": {"rt": -1000, "trial_type": "single-audio", "word": "beaker", "stimulus": "/static/audio/wordpool/BEAKER.wav", "conditions": [24, 1600, "a", 24000], "internal_node_id": "0.0-114.0", "trial": 4, "time_elapsed": 800642, "serialpos": 2, "key_press": -1, "wordID": 103, "type": "PRES_AUD", "trial_index": 159}, "uniqueid": "MTK2720:3BWI6RSP7HGHP50Q24JSWZWWB1FE7W", "dateTime": 1519258176528}, {"current_trial": 160, "trialdata": {"rt": -1000, "trial_type": "single-audio", "word": "napkin", "stimulus": "/static/audio/wordpool/NAPKIN.wav", "conditions": [24, 1600, "a", 24000], "internal_node_id": "0.0-115.0", "trial": 4, "time_elapsed": 803214, "serialpos": 3, "key_press": -1, "wordID": 936, "type": "PRES_AUD", "trial_index": 160}, "uniqueid": "MTK2720:3BWI6RSP7HGHP50Q24JSWZWWB1FE7W", "dateTime": 1519258179100}, {"current_trial": 161, "trialdata": {"rt": -1000, "trial_type": "single-audio", "word": "picture", "stimulus": "/static/audio/wordpool/PICTURE.wav", "conditions": [24, 1600, "a", 24000], "internal_node_id": "0.0-116.0", "trial": 4, "time_elapsed": 805988, "serialpos": 4, "key_press": -1, "wordID": 1060, "type": "PRES_AUD", "trial_index": 161}, "uniqueid": "MTK2720:3BWI6RSP7HGHP50Q24JSWZWWB1FE7W", "dateTime": 1519258181874}, {"current_trial": 162, "trialdata": {"rt": -1000, "trial_type": "single-audio", "word": "item", "stimulus": "/static/audio/wordpool/ITEM.wav", "conditions": [24, 1600, "a", 24000], "internal_node_id": "0.0-117.0", "trial": 4, "time_elapsed": 808528, "serialpos": 5, "key_press": -1, "wordID": 745, "type": "PRES_AUD", "trial_index": 162}, "uniqueid": "MTK2720:3BWI6RSP7HGHP50Q24JSWZWWB1FE7W", "dateTime": 1519258184414}, {"current_trial": 163, "trialdata": {"rt": -1000, "trial_type": "single-audio", "word": "lily", "stimulus": "/static/audio/wordpool/LILY.wav", "conditions": [24, 1600, "a", 24000], "internal_node_id": "0.0-118.0", "trial": 4, "time_elapsed": 811254, "serialpos": 6, "key_press": -1, "wordID": 820, "type": "PRES_AUD", "trial_index": 163}, "uniqueid": "MTK2720:3BWI6RSP7HGHP50Q24JSWZWWB1FE7W", "dateTime": 1519258187140}, {"current_trial": 164, "trialdata": {"rt": -1000, "trial_type": "single-audio", "word": "shrub", "stimulus": "/static/audio/wordpool/SHRUB.wav", "conditions": [24, 1600, "a", 24000], "internal_node_id": "0.0-119.0", "trial": 4, "time_elapsed": 813810, "serialpos": 7, "key_press": -1, "wordID": 1298, "type": "PRES_AUD", "trial_index": 164}, "uniqueid": "MTK2720:3BWI6RSP7HGHP50Q24JSWZWWB1FE7W", "dateTime": 1519258189697}, {"current_trial": 165, "trialdata": {"rt": -1000, "trial_type": "single-audio", "word": "lapel", "stimulus": "/static/audio/wordpool/LAPEL.wav", "conditions": [24, 1600, "a", 24000], "internal_node_id": "0.0-120.0", "trial": 4, "time_elapsed": 816493, "serialpos": 8, "key_press": -1, "wordID": 799, "type": "PRES_AUD", "trial_index": 165}, "uniqueid": "MTK2720:3BWI6RSP7HGHP50Q24JSWZWWB1FE7W", "dateTime": 1519258192379}, {"current_trial": 166, "trialdata": {"rt": -1000, "trial_type": "single-audio", "word": "dustpan", "stimulus": "/static/audio/wordpool/DUSTPAN.wav", "conditions": [24, 1600, "a", 24000], "internal_node_id": "0.0-121.0", "trial": 4, "time_elapsed": 818949, "serialpos": 9, "key_press": -1, "wordID": 508, "type": "PRES_AUD", "trial_index": 166}, "uniqueid": "MTK2720:3BWI6RSP7HGHP50Q24JSWZWWB1FE7W", "dateTime": 1519258194835}, {"current_trial": 167, "trialdata": {"rt": -1000, "trial_type": "single-audio", "word": "flask", "stimulus": "/static/audio/wordpool/FLASK.wav", "conditions": [24, 1600, "a", 24000], "internal_node_id": "0.0-122.0", "trial": 4, "time_elapsed": 821430, "serialpos": 10, "key_press": -1, "wordID": 575, "type": "PRES_AUD", "trial_index": 167}, "uniqueid": "MTK2720:3BWI6RSP7HGHP50Q24JSWZWWB1FE7W", "dateTime": 1519258197316}, {"current_trial": 168, "trialdata": {"rt": -1000, "trial_type": "single-audio", "word": "cabbage", "stimulus": "/static/audio/wordpool/CABBAGE.wav", "conditions": [24, 1600, "a", 24000], "internal_node_id": "0.0-123.0", "trial": 4, "time_elapsed": 824107, "serialpos": 11, "key_press": -1, "wordID": 209, "type": "PRES_AUD", "trial_index": 168}, "uniqueid": "MTK2720:3BWI6RSP7HGHP50Q24JSWZWWB1FE7W", "dateTime": 1519258199993}, {"current_trial": 169, "trialdata": {"rt": -1000, "trial_type": "single-audio", "word": "cousin", "stimulus": "/static/audio/wordpool/COUSIN.wav", "conditions": [24, 1600, "a", 24000], "internal_node_id": "0.0-124.0", "trial": 4, "time_elapsed": 826650, "serialpos": 12, "key_press": -1, "wordID": 391, "type": "PRES_AUD", "trial_index": 169}, "uniqueid": "MTK2720:3BWI6RSP7HGHP50Q24JSWZWWB1FE7W", "dateTime": 1519258202537}, {"current_trial": 170, "trialdata": {"rt": -1000, "trial_type": "single-audio", "word": "iceberg", "stimulus": "/static/audio/wordpool/ICEBERG.wav", "conditions": [24, 1600, "a", 24000], "internal_node_id": "0.0-125.0", "trial": 4, "time_elapsed": 829103, "serialpos": 13, "key_press": -1, "wordID": 730, "type": "PRES_AUD", "trial_index": 170}, "uniqueid": "MTK2720:3BWI6RSP7HGHP50Q24JSWZWWB1FE7W", "dateTime": 1519258204990}, {"current_trial": 171, "trialdata": {"rt": -1000, "trial_type": "single-audio", "word": "spool", "stimulus": "/static/audio/wordpool/SPOOL.wav", "conditions": [24, 1600, "a", 24000], "internal_node_id": "0.0-126.0", "trial": 4, "time_elapsed": 831695, "serialpos": 14, "key_press": -1, "wordID": 1355, "type": "PRES_AUD", "trial_index": 171}, "uniqueid": "MTK2720:3BWI6RSP7HGHP50Q24JSWZWWB1FE7W", "dateTime": 1519258207581}, {"current_trial": 172, "trialdata": {"rt": -1000, "trial_type": "single-audio", "word": "eyelash", "stimulus": "/static/audio/wordpool/EYELASH.wav", "conditions": [24, 1600, "a", 24000], "internal_node_id": "0.0-127.0", "trial": 4, "time_elapsed": 834333, "serialpos": 15, "key_press": -1, "wordID": 545, "type": "PRES_AUD", "trial_index": 172}, "uniqueid": "MTK2720:3BWI6RSP7HGHP50Q24JSWZWWB1FE7W", "dateTime": 1519258210219}, {"current_trial": 173, "trialdata": {"rt": -1000, "trial_type": "single-audio", "word": "fungus", "stimulus": "/static/audio/wordpool/FUNGUS.wav", "conditions": [24, 1600, "a", 24000], "internal_node_id": "0.0-128.0", "trial": 4, "time_elapsed": 837029, "serialpos": 16, "key_press": -1, "wordID": 613, "type": "PRES_AUD", "trial_index": 173}, "uniqueid": "MTK2720:3BWI6RSP7HGHP50Q24JSWZWWB1FE7W", "dateTime": 1519258212915}, {"current_trial": 174, "trialdata": {"rt": -1000, "trial_type": "single-audio", "word": "virus", "stimulus": "/static/audio/wordpool/VIRUS.wav", "conditions": [24, 1600, "a", 24000], "internal_node_id": "0.0-129.0", "trial": 4, "time_elapsed": 839454, "serialpos": 17, "key_press": -1, "wordID": 1571, "type": "PRES_AUD", "trial_index": 174}, "uniqueid": "MTK2720:3BWI6RSP7HGHP50Q24JSWZWWB1FE7W", "dateTime": 1519258215340}, {"current_trial": 175, "trialdata": {"rt": -1000, "trial_type": "single-audio", "word": "drug", "stimulus": "/static/audio/wordpool/DRUG.wav", "conditions": [24, 1600, "a", 24000], "internal_node_id": "0.0-130.0", "trial": 4, "time_elapsed": 842225, "serialpos": 18, "key_press": -1, "wordID": 500, "type": "PRES_AUD", "trial_index": 175}, "uniqueid": "MTK2720:3BWI6RSP7HGHP50Q24JSWZWWB1FE7W", "dateTime": 1519258218111}, {"current_trial": 176, "trialdata": {"rt": -1000, "trial_type": "single-audio", "word": "rod", "stimulus": "/static/audio/wordpool/ROD.wav", "conditions": [24, 1600, "a", 24000], "internal_node_id": "0.0-131.0", "trial": 4, "time_elapsed": 844870, "serialpos": 19, "key_press": -1, "wordID": 1202, "type": "PRES_AUD", "trial_index": 176}, "uniqueid": "MTK2720:3BWI6RSP7HGHP50Q24JSWZWWB1FE7W", "dateTime": 1519258220756}, {"current_trial": 177, "trialdata": {"rt": -1000, "trial_type": "single-audio", "word": "swimmer", "stimulus": "/static/audio/wordpool/SWIMMER.wav", "conditions": [24, 1600, "a", 24000], "internal_node_id": "0.0-132.0", "trial": 4, "time_elapsed": 847312, "serialpos": 20, "key_press": -1, "wordID": 1419, "type": "PRES_AUD", "trial_index": 177}, "uniqueid": "MTK2720:3BWI6RSP7HGHP50Q24JSWZWWB1FE7W", "dateTime": 1519258223198}, {"current_trial": 178, "trialdata": {"rt": -1000, "trial_type": "single-audio", "word": "powder", "stimulus": "/static/audio/wordpool/POWDER.wav", "conditions": [24, 1600, "a", 24000], "internal_node_id": "0.0-133.0", "trial": 4, "time_elapsed": 849918, "serialpos": 21, "key_press": -1, "wordID": 1116, "type": "PRES_AUD", "trial_index": 178}, "uniqueid": "MTK2720:3BWI6RSP7HGHP50Q24JSWZWWB1FE7W", "dateTime": 1519258225804}, {"current_trial": 179, "trialdata": {"rt": -1000, "trial_type": "single-audio", "word": "globe", "stimulus": "/static/audio/wordpool/GLOBE.wav", "conditions": [24, 1600, "a", 24000], "internal_node_id": "0.0-134.0", "trial": 4, "time_elapsed": 852717, "serialpos": 22, "key_press": -1, "wordID": 640, "type": "PRES_AUD", "trial_index": 179}, "uniqueid": "MTK2720:3BWI6RSP7HGHP50Q24JSWZWWB1FE7W", "dateTime": 1519258228603}, {"current_trial": 180, "trialdata": {"rt": -1000, "trial_type": "single-audio", "word": "world", "stimulus": "/static/audio/wordpool/WORLD.wav", "conditions": [24, 1600, "a", 24000], "internal_node_id": "0.0-135.0", "trial": 4, "time_elapsed": 855417, "serialpos": 23, "key_press": -1, "wordID": 1621, "type": "PRES_AUD", "trial_index": 180}, "uniqueid": "MTK2720:3BWI6RSP7HGHP50Q24JSWZWWB1FE7W", "dateTime": 1519258231304}, {"current_trial": 181, "trialdata": {"rt": -1, "trial_type": "single-stim", "stimulus": "", "internal_node_id": "0.0-136.0-0.0", "time_elapsed": 856779, "key_press": -1, "type": "PRE_RECALL_DELAY", "trial_index": 181}, "uniqueid": "MTK2720:3BWI6RSP7HGHP50Q24JSWZWWB1FE7W", "dateTime": 1519258232665}, {"current_trial": 182, "trialdata": {"rt": -1000, "trial_type": "single-audio", "stimulus": "/static/audio/400Hz.wav", "internal_node_id": "0.0-137.0", "time_elapsed": 857281, "key_press": -1, "type": "PRE_RECALL_ALERT", "trial_index": 182}, "uniqueid": "MTK2720:3BWI6RSP7HGHP50Q24JSWZWWB1FE7W", "dateTime": 1519258233167}, {"current_trial": 183, "trialdata": {"rt": [3706, 5058, 6554, 9084, 11938, 16146, 17354, 20811, 23226], "recwords": ["world", "globe", "swimmer", "", "lapel", "ice", "burg", "fungus", "eyelash"], "key_times": [963, 1074, 1427, 1690, 1931, 2194, 3370, 3706, 4138, 4289, 4466, 4490, 4739, 5058, 5228, 5507, 5714, 5963, 6131, 6242, 6354, 6554, 9084, 10714, 10794, 11012, 11204, 11611, 11938, 14331, 14442, 14722, 15290, 15514, 15770, 16018, 16146, 16651, 16763, 16931, 17179, 17354, 19363, 19458, 19707, 19787, 19971, 20138, 20811, 21538, 21634, 21946, 22442, 22563, 22739, 22866, 23226], "trial_type": "free-recall", "conditions": [24, 1600, "a", 24000], "internal_node_id": "0.0-138.0-0.0", "key_presses": [87, 79, 82, 76, 68, 222, 8, 13, 71, 76, 79, 66, 69, 13, 83, 87, 73, 77, 77, 69, 82, 13, 186, 76, 65, 80, 69, 76, 13, 73, 83, 67, 8, 8, 67, 69, 32, 66, 85, 82, 71, 13, 70, 85, 78, 71, 85, 83, 13, 69, 89, 69, 76, 65, 83, 72, 13], "trial": 4, "time_elapsed": 917284, "type": "FREE_RECALL", "trial_index": 183}, "uniqueid": "MTK2720:3BWI6RSP7HGHP50Q24JSWZWWB1FE7W", "dateTime": 1519258293175}, {"current_trial": 184, "trialdata": {"rt": 1394, "trial_type": "text", "internal_node_id": "0.0-139.0", "time_elapsed": 920685, "key_press": 13, "type": "INSTRUCTIONS", "trial_index": 184}, "uniqueid": "MTK2720:3BWI6RSP7HGHP50Q24JSWZWWB1FE7W", "dateTime": 1519258296571}, {"current_trial": 185, "trialdata": {"rt": [3884, 7604, 11573, 15164, 17316, 20228, 22667], "trial_type": "math-distractor", "key_times": [3468, 3668, 3884, 7003, 7109, 7604, 11036, 11301, 11573, 14596, 14835, 15164, 16893, 17116, 17316, 19958, 20228, 21789, 22028, 22667], "responses": ["14", "10", "18", "19", "14", "8", "13"], "num2": [5, 3, 9, 7, 8, 2, 6, 9], "num3": [3, 4, 6, 6, 2, 3, 6, 7], "conditions": [12, 800, "a", 24000], "internal_node_id": "0.0-140.0", "key_presses": [97, 100, 13, 97, 96, 13, 97, 104, 13, 97, 105, 13, 97, 100, 13, 104, 13, 97, 99, 13], "trial": 5, "time_elapsed": 946689, "type": "DISTRACTOR", "trial_index": 185, "num1": [6, 3, 3, 6, 4, 3, 1, 1]}, "uniqueid": "MTK2720:3BWI6RSP7HGHP50Q24JSWZWWB1FE7W", "dateTime": 1519258322575}, {"current_trial": 186, "trialdata": {"rt": -1, "trial_type": "single-stim", "stimulus": "<p id=\"stim\">10</p>", "internal_node_id": "0.0-141.0-0.0", "time_elapsed": 949691, "key_press": -1, "trial_index": 186}, "uniqueid": "MTK2720:3BWI6RSP7HGHP50Q24JSWZWWB1FE7W", "dateTime": 1519258325577}, {"current_trial": 187, "trialdata": {"rt": -1, "trial_type": "single-stim", "stimulus": "<p id=\"stim\">9</p>", "internal_node_id": "0.0-141.0-1.0", "time_elapsed": 950692, "key_press": -1, "trial_index": 187}, "uniqueid": "MTK2720:3BWI6RSP7HGHP50Q24JSWZWWB1FE7W", "dateTime": 1519258326579}, {"current_trial": 188, "trialdata": {"rt": -1, "trial_type": "single-stim", "stimulus": "<p id=\"stim\">8</p>", "internal_node_id": "0.0-141.0-2.0", "time_elapsed": 951694, "key_press": -1, "trial_index": 188}, "uniqueid": "MTK2720:3BWI6RSP7HGHP50Q24JSWZWWB1FE7W", "dateTime": 1519258327580}, {"current_trial": 189, "trialdata": {"rt": -1, "trial_type": "single-stim", "stimulus": "<p id=\"stim\">7</p>", "internal_node_id": "0.0-141.0-3.0", "time_elapsed": 952695, "key_press": -1, "trial_index": 189}, "uniqueid": "MTK2720:3BWI6RSP7HGHP50Q24JSWZWWB1FE7W", "dateTime": 1519258328581}, {"current_trial": 190, "trialdata": {"rt": -1, "trial_type": "single-stim", "stimulus": "<p id=\"stim\">6</p>", "internal_node_id": "0.0-141.0-4.0", "time_elapsed": 953696, "key_press": -1, "trial_index": 190}, "uniqueid": "MTK2720:3BWI6RSP7HGHP50Q24JSWZWWB1FE7W", "dateTime": 1519258329582}, {"current_trial": 191, "trialdata": {"rt": -1, "trial_type": "single-stim", "stimulus": "<p id=\"stim\">5</p>", "internal_node_id": "0.0-141.0-5.0", "time_elapsed": 954698, "key_press": -1, "trial_index": 191}, "uniqueid": "MTK2720:3BWI6RSP7HGHP50Q24JSWZWWB1FE7W", "dateTime": 1519258330584}, {"current_trial": 192, "trialdata": {"rt": -1, "trial_type": "single-stim", "stimulus": "<p id=\"stim\">4</p>", "internal_node_id": "0.0-141.0-6.0", "time_elapsed": 955699, "key_press": -1, "trial_index": 192}, "uniqueid": "MTK2720:3BWI6RSP7HGHP50Q24JSWZWWB1FE7W", "dateTime": 1519258331585}, {"current_trial": 193, "trialdata": {"rt": -1, "trial_type": "single-stim", "stimulus": "<p id=\"stim\">3</p>", "internal_node_id": "0.0-141.0-7.0", "time_elapsed": 956700, "key_press": -1, "trial_index": 193}, "uniqueid": "MTK2720:3BWI6RSP7HGHP50Q24JSWZWWB1FE7W", "dateTime": 1519258332586}, {"current_trial": 194, "trialdata": {"rt": -1, "trial_type": "single-stim", "stimulus": "<p id=\"stim\">2</p>", "internal_node_id": "0.0-141.0-8.0", "time_elapsed": 957702, "key_press": -1, "trial_index": 194}, "uniqueid": "MTK2720:3BWI6RSP7HGHP50Q24JSWZWWB1FE7W", "dateTime": 1519258333588}, {"current_trial": 195, "trialdata": {"rt": -1, "trial_type": "single-stim", "stimulus": "<p id=\"stim\">1</p>", "internal_node_id": "0.0-141.0-9.0", "time_elapsed": 958703, "key_press": -1, "trial_index": 195}, "uniqueid": "MTK2720:3BWI6RSP7HGHP50Q24JSWZWWB1FE7W", "dateTime": 1519258334589}, {"current_trial": 196, "trialdata": {"rt": -1, "trial_type": "single-stim", "stimulus": "<p id=\"stim\">+</p>", "internal_node_id": "0.0-142.0-0.0", "time_elapsed": 960206, "key_press": -1, "type": "FIXATION", "trial_index": 196}, "uniqueid": "MTK2720:3BWI6RSP7HGHP50Q24JSWZWWB1FE7W", "dateTime": 1519258336092}, {"current_trial": 197, "trialdata": {"rt": -1000, "trial_type": "single-audio", "word": "puppy", "stimulus": "/static/audio/wordpool/PUPPY.wav", "conditions": [12, 800, "a", 24000], "internal_node_id": "0.0-143.0", "trial": 5, "time_elapsed": 961990, "serialpos": 0, "key_press": -1, "wordID": 1143, "type": "PRES_AUD", "trial_index": 197}, "uniqueid": "MTK2720:3BWI6RSP7HGHP50Q24JSWZWWB1FE7W", "dateTime": 1519258337876}, {"current_trial": 198, "trialdata": {"rt": -1000, "trial_type": "single-audio", "word": "candy", "stimulus": "/static/audio/wordpool/CANDY.wav", "conditions": [12, 800, "a", 24000], "internal_node_id": "0.0-144.0", "trial": 5, "time_elapsed": 963600, "serialpos": 1, "key_press": -1, "wordID": 229, "type": "PRES_AUD", "trial_index": 198}, "uniqueid": "MTK2720:3BWI6RSP7HGHP50Q24JSWZWWB1FE7W", "dateTime": 1519258339486}, {"current_trial": 199, "trialdata": {"rt": -1000, "trial_type": "single-audio", "word": "forest", "stimulus": "/static/audio/wordpool/FOREST.wav", "conditions": [12, 800, "a", 24000], "internal_node_id": "0.0-145.0", "trial": 5, "time_elapsed": 965289, "serialpos": 2, "key_press": -1, "wordID": 592, "type": "PRES_AUD", "trial_index": 199}, "uniqueid": "MTK2720:3BWI6RSP7HGHP50Q24JSWZWWB1FE7W", "dateTime": 1519258341175}, {"current_trial": 200, "trialdata": {"rt": -1000, "trial_type": "single-audio", "word": "loft", "stimulus": "/static/audio/wordpool/LOFT.wav", "conditions": [12, 800, "a", 24000], "internal_node_id": "0.0-146.0", "trial": 5, "time_elapsed": 966901, "serialpos": 3, "key_press": -1, "wordID": 839, "type": "PRES_AUD", "trial_index": 200}, "uniqueid": "MTK2720:3BWI6RSP7HGHP50Q24JSWZWWB1FE7W", "dateTime": 1519258342787}, {"current_trial": 201, "trialdata": {"rt": -1000, "trial_type": "single-audio", "word": "flower", "stimulus": "/static/audio/wordpool/FLOWER.wav", "conditions": [12, 800, "a", 24000], "internal_node_id": "0.0-147.0", "trial": 5, "time_elapsed": 968722, "serialpos": 4, "key_press": -1, "wordID": 583, "type": "PRES_AUD", "trial_index": 201}, "uniqueid": "MTK2720:3BWI6RSP7HGHP50Q24JSWZWWB1FE7W", "dateTime": 1519258344608}, {"current_trial": 202, "trialdata": {"rt": -1000, "trial_type": "single-audio", "word": "puddle", "stimulus": "/static/audio/wordpool/PUDDLE.wav", "conditions": [12, 800, "a", 24000], "internal_node_id": "0.0-148.0", "trial": 5, "time_elapsed": 970432, "serialpos": 5, "key_press": -1, "wordID": 1139, "type": "PRES_AUD", "trial_index": 202}, "uniqueid": "MTK2720:3BWI6RSP7HGHP50Q24JSWZWWB1FE7W", "dateTime": 1519258346319}, {"current_trial": 203, "trialdata": {"rt": -1000, "trial_type": "single-audio", "word": "glove", "stimulus": "/static/audio/wordpool/GLOVE.wav", "conditions": [12, 800, "a", 24000], "internal_node_id": "0.0-149.0", "trial": 5, "time_elapsed": 972326, "serialpos": 6, "key_press": -1, "wordID": 641, "type": "PRES_AUD", "trial_index": 203}, "uniqueid": "MTK2720:3BWI6RSP7HGHP50Q24JSWZWWB1FE7W", "dateTime": 1519258348212}, {"current_trial": 204, "trialdata": {"rt": -1000, "trial_type": "single-audio", "word": "box", "stimulus": "/static/audio/wordpool/BOX.wav", "conditions": [12, 800, "a", 24000], "internal_node_id": "0.0-150.0", "trial": 5, "time_elapsed": 974204, "serialpos": 7, "key_press": -1, "wordID": 158, "type": "PRES_AUD", "trial_index": 204}, "uniqueid": "MTK2720:3BWI6RSP7HGHP50Q24JSWZWWB1FE7W", "dateTime": 1519258350090}, {"current_trial": 205, "trialdata": {"rt": -1000, "trial_type": "single-audio", "word": "oyster", "stimulus": "/static/audio/wordpool/OYSTER.wav", "conditions": [12, 800, "a", 24000], "internal_node_id": "0.0-151.0", "trial": 5, "time_elapsed": 975978, "serialpos": 8, "key_press": -1, "wordID": 994, "type": "PRES_AUD", "trial_index": 205}, "uniqueid": "MTK2720:3BWI6RSP7HGHP50Q24JSWZWWB1FE7W", "dateTime": 1519258351864}, {"current_trial": 206, "trialdata": {"rt": -1000, "trial_type": "single-audio", "word": "scallop", "stimulus": "/static/audio/wordpool/SCALLOP.wav", "conditions": [12, 800, "a", 24000], "internal_node_id": "0.0-152.0", "trial": 5, "time_elapsed": 977941, "serialpos": 9, "key_press": -1, "wordID": 1241, "type": "PRES_AUD", "trial_index": 206}, "uniqueid": "MTK2720:3BWI6RSP7HGHP50Q24JSWZWWB1FE7W", "dateTime": 1519258353827}, {"current_trial": 207, "trialdata": {"rt": -1000, "trial_type": "single-audio", "word": "baby", "stimulus": "/static/audio/wordpool/BABY.wav", "conditions": [12, 800, "a", 24000], "internal_node_id": "0.0-153.0", "trial": 5, "time_elapsed": 979821, "serialpos": 10, "key_press": -1, "wordID": 63, "type": "PRES_AUD", "trial_index": 207}, "uniqueid": "MTK2720:3BWI6RSP7HGHP50Q24JSWZWWB1FE7W", "dateTime": 1519258355707}, {"current_trial": 208, "trialdata": {"rt": -1000, "trial_type": "single-audio", "word": "mustard", "stimulus": "/static/audio/wordpool/MUSTARD.wav", "conditions": [12, 800, "a", 24000], "internal_node_id": "0.0-154.0", "trial": 5, "time_elapsed": 981513, "serialpos": 11, "key_press": -1, "wordID": 934, "type": "PRES_AUD", "trial_index": 208}, "uniqueid": "MTK2720:3BWI6RSP7HGHP50Q24JSWZWWB1FE7W", "dateTime": 1519258357399}, {"current_trial": 209, "trialdata": {"rt": -1, "trial_type": "single-stim", "stimulus": "", "internal_node_id": "0.0-155.0-0.0", "time_elapsed": 982855, "key_press": -1, "type": "PRE_RECALL_DELAY", "trial_index": 209}, "uniqueid": "MTK2720:3BWI6RSP7HGHP50Q24JSWZWWB1FE7W", "dateTime": 1519258358741}, {"current_trial": 210, "trialdata": {"rt": -1000, "trial_type": "single-audio", "stimulus": "/static/audio/400Hz.wav", "internal_node_id": "0.0-156.0", "time_elapsed": 983357, "key_press": -1, "type": "PRE_RECALL_ALERT", "trial_index": 210}, "uniqueid": "MTK2720:3BWI6RSP7HGHP50Q24JSWZWWB1FE7W", "dateTime": 1519258359243}, {"current_trial": 211, "trialdata": {"rt": [2103, 3807, 6032, 8168, 10767], "recwords": ["mustard", "baby", "puppy", "puddle", "scallop"], "key_times": [344, 639, 751, 1000, 1175, 1289, 1824, 2103, 2767, 2840, 2975, 3206, 3807, 4391, 4600, 4903, 5096, 5719, 6032, 6704, 6903, 7048, 7239, 7375, 7496, 8168, 9175, 9448, 9656, 9832, 9984, 10224, 10432, 10767], "trial_type": "free-recall", "conditions": [12, 800, "a", 24000], "internal_node_id": "0.0-157.0-0.0", "key_presses": [77, 85, 83, 84, 65, 82, 68, 13, 66, 65, 66, 89, 13, 80, 85, 80, 80, 89, 13, 80, 85, 68, 68, 76, 69, 13, 83, 67, 65, 76, 76, 79, 80, 13], "trial": 5, "time_elapsed": 1043357, "type": "FREE_RECALL", "trial_index": 211}, "uniqueid": "MTK2720:3BWI6RSP7HGHP50Q24JSWZWWB1FE7W", "dateTime": 1519258419245}, {"current_trial": 212, "trialdata": {"rt": 1854, "trial_type": "text", "internal_node_id": "0.0-158.0", "time_elapsed": 1047213, "key_press": 13, "type": "INSTRUCTIONS", "trial_index": 212}, "uniqueid": "MTK2720:3BWI6RSP7HGHP50Q24JSWZWWB1FE7W", "dateTime": 1519258423099}, {"current_trial": 213, "trialdata": {"rt": [2876, 4813, 8262, 12188, 15477, 17941, 20813, 23740], "trial_type": "math-distractor", "key_times": [2261, 2517, 2876, 4276, 4509, 4813, 7758, 7973, 8262, 11780, 11966, 12188, 14966, 15220, 15477, 17462, 17693, 17941, 20318, 20549, 20813, 23126, 23398, 23740], "responses": ["27", "18", "14", "11", "16", "14", "16", "17"], "num2": [9, 8, 3, 3, 3, 4, 5, 6, 1], "num3": [9, 5, 3, 5, 8, 2, 8, 5, 2], "conditions": [12, 1600, "a", 24000], "internal_node_id": "0.0-159.0", "key_presses": [98, 103, 13, 97, 104, 13, 97, 100, 13, 97, 97, 13, 97, 102, 13, 97, 100, 13, 97, 102, 13, 97, 103, 13], "trial": 6, "time_elapsed": 1073216, "type": "DISTRACTOR", "trial_index": 213, "num1": [9, 5, 8, 3, 5, 8, 3, 6, 6]}, "uniqueid": "MTK2720:3BWI6RSP7HGHP50Q24JSWZWWB1FE7W", "dateTime": 1519258449102}, {"current_trial": 214, "trialdata": {"rt": -1, "trial_type": "single-stim", "stimulus": "<p id=\"stim\">10</p>", "internal_node_id": "0.0-160.0-0.0", "time_elapsed": 1076219, "key_press": -1, "trial_index": 214}, "uniqueid": "MTK2720:3BWI6RSP7HGHP50Q24JSWZWWB1FE7W", "dateTime": 1519258452105}, {"current_trial": 215, "trialdata": {"rt": -1, "trial_type": "single-stim", "stimulus": "<p id=\"stim\">9</p>", "internal_node_id": "0.0-160.0-1.0", "time_elapsed": 1077220, "key_press": -1, "trial_index": 215}, "uniqueid": "MTK2720:3BWI6RSP7HGHP50Q24JSWZWWB1FE7W", "dateTime": 1519258453106}, {"current_trial": 216, "trialdata": {"rt": -1, "trial_type": "single-stim", "stimulus": "<p id=\"stim\">8</p>", "internal_node_id": "0.0-160.0-2.0", "time_elapsed": 1078222, "key_press": -1, "trial_index": 216}, "uniqueid": "MTK2720:3BWI6RSP7HGHP50Q24JSWZWWB1FE7W", "dateTime": 1519258454109}, {"current_trial": 217, "trialdata": {"rt": -1, "trial_type": "single-stim", "stimulus": "<p id=\"stim\">7</p>", "internal_node_id": "0.0-160.0-3.0", "time_elapsed": 1079224, "key_press": -1, "trial_index": 217}, "uniqueid": "MTK2720:3BWI6RSP7HGHP50Q24JSWZWWB1FE7W", "dateTime": 1519258455110}, {"current_trial": 218, "trialdata": {"rt": 881, "trial_type": "single-stim", "stimulus": "<p id=\"stim\">6</p>", "internal_node_id": "0.0-160.0-4.0", "time_elapsed": 1080226, "key_press": 175, "trial_index": 218}, "uniqueid": "MTK2720:3BWI6RSP7HGHP50Q24JSWZWWB1FE7W", "dateTime": 1519258456112}, {"current_trial": 219, "trialdata": {"rt": 211, "trial_type": "single-stim", "stimulus": "<p id=\"stim\">5</p>", "internal_node_id": "0.0-160.0-5.0", "time_elapsed": 1081228, "key_press": 175, "trial_index": 219}, "uniqueid": "MTK2720:3BWI6RSP7HGHP50Q24JSWZWWB1FE7W", "dateTime": 1519258457114}, {"current_trial": 220, "trialdata": {"rt": -1, "trial_type": "single-stim", "stimulus": "<p id=\"stim\">4</p>", "internal_node_id": "0.0-160.0-6.0", "time_elapsed": 1082228, "key_press": -1, "trial_index": 220}, "uniqueid": "MTK2720:3BWI6RSP7HGHP50Q24JSWZWWB1FE7W", "dateTime": 1519258458114}, {"current_trial": 221, "trialdata": {"rt": 144, "trial_type": "single-stim", "stimulus": "<p id=\"stim\">3</p>", "internal_node_id": "0.0-160.0-7.0", "time_elapsed": 1083229, "key_press": 175, "trial_index": 221}, "uniqueid": "MTK2720:3BWI6RSP7HGHP50Q24JSWZWWB1FE7W", "dateTime": 1519258459115}, {"current_trial": 222, "trialdata": {"rt": -1, "trial_type": "single-stim", "stimulus": "<p id=\"stim\">2</p>", "internal_node_id": "0.0-160.0-8.0", "time_elapsed": 1084231, "key_press": -1, "trial_index": 222}, "uniqueid": "MTK2720:3BWI6RSP7HGHP50Q24JSWZWWB1FE7W", "dateTime": 1519258460117}, {"current_trial": 223, "trialdata": {"rt": -1, "trial_type": "single-stim", "stimulus": "<p id=\"stim\">1</p>", "internal_node_id": "0.0-160.0-9.0", "time_elapsed": 1085232, "key_press": -1, "trial_index": 223}, "uniqueid": "MTK2720:3BWI6RSP7HGHP50Q24JSWZWWB1FE7W", "dateTime": 1519258461118}, {"current_trial": 224, "trialdata": {"rt": -1, "trial_type": "single-stim", "stimulus": "<p id=\"stim\">+</p>", "internal_node_id": "0.0-161.0-0.0", "time_elapsed": 1086732, "key_press": -1, "type": "FIXATION", "trial_index": 224}, "uniqueid": "MTK2720:3BWI6RSP7HGHP50Q24JSWZWWB1FE7W", "dateTime": 1519258462618}, {"current_trial": 225, "trialdata": {"rt": -1000, "trial_type": "single-audio", "word": "primate", "stimulus": "/static/audio/wordpool/PRIMATE.wav", "conditions": [12, 1600, "a", 24000], "internal_node_id": "0.0-162.0", "trial": 6, "time_elapsed": 1089285, "serialpos": 0, "key_press": -1, "wordID": 1122, "type": "PRES_AUD", "trial_index": 225}, "uniqueid": "MTK2720:3BWI6RSP7HGHP50Q24JSWZWWB1FE7W", "dateTime": 1519258465171}, {"current_trial": 226, "trialdata": {"rt": -1000, "trial_type": "single-audio", "word": "girl", "stimulus": "/static/audio/wordpool/GIRL.wav", "conditions": [12, 1600, "a", 24000], "internal_node_id": "0.0-163.0", "trial": 6, "time_elapsed": 1091870, "serialpos": 1, "key_press": -1, "wordID": 636, "type": "PRES_AUD", "trial_index": 226}, "uniqueid": "MTK2720:3BWI6RSP7HGHP50Q24JSWZWWB1FE7W", "dateTime": 1519258467757}, {"current_trial": 227, "trialdata": {"rt": -1000, "trial_type": "single-audio", "word": "blouse", "stimulus": "/static/audio/wordpool/BLOUSE.wav", "conditions": [12, 1600, "a", 24000], "internal_node_id": "0.0-164.0", "trial": 6, "time_elapsed": 1094286, "serialpos": 2, "key_press": -1, "wordID": 138, "type": "PRES_AUD", "trial_index": 227}, "uniqueid": "MTK2720:3BWI6RSP7HGHP50Q24JSWZWWB1FE7W", "dateTime": 1519258470172}, {"current_trial": 228, "trialdata": {"rt": -1000, "trial_type": "single-audio", "word": "denim", "stimulus": "/static/audio/wordpool/DENIM.wav", "conditions": [12, 1600, "a", 24000], "internal_node_id": "0.0-165.0", "trial": 6, "time_elapsed": 1096904, "serialpos": 3, "key_press": -1, "wordID": 445, "type": "PRES_AUD", "trial_index": 228}, "uniqueid": "MTK2720:3BWI6RSP7HGHP50Q24JSWZWWB1FE7W", "dateTime": 1519258472790}, {"current_trial": 229, "trialdata": {"rt": -1000, "trial_type": "single-audio", "word": "child", "stimulus": "/static/audio/wordpool/CHILD.wav", "conditions": [12, 1600, "a", 24000], "internal_node_id": "0.0-166.0", "trial": 6, "time_elapsed": 1099619, "serialpos": 4, "key_press": -1, "wordID": 298, "type": "PRES_AUD", "trial_index": 229}, "uniqueid": "MTK2720:3BWI6RSP7HGHP50Q24JSWZWWB1FE7W", "dateTime": 1519258475505}, {"current_trial": 230, "trialdata": {"rt": -1000, "trial_type": "single-audio", "word": "sibling", "stimulus": "/static/audio/wordpool/SIBLING.wav", "conditions": [12, 1600, "a", 24000], "internal_node_id": "0.0-167.0", "trial": 6, "time_elapsed": 1102161, "serialpos": 5, "key_press": -1, "wordID": 1300, "type": "PRES_AUD", "trial_index": 230}, "uniqueid": "MTK2720:3BWI6RSP7HGHP50Q24JSWZWWB1FE7W", "dateTime": 1519258478047}, {"current_trial": 231, "trialdata": {"rt": -1000, "trial_type": "single-audio", "word": "fragrance", "stimulus": "/static/audio/wordpool/FRAGRANCE.wav", "conditions": [12, 1600, "a", 24000], "internal_node_id": "0.0-168.0", "trial": 6, "time_elapsed": 1104914, "serialpos": 6, "key_press": -1, "wordID": 598, "type": "PRES_AUD", "trial_index": 231}, "uniqueid": "MTK2720:3BWI6RSP7HGHP50Q24JSWZWWB1FE7W", "dateTime": 1519258480800}, {"current_trial": 232, "trialdata": {"rt": -1000, "trial_type": "single-audio", "word": "donor", "stimulus": "/static/audio/wordpool/DONOR.wav", "conditions": [12, 1600, "a", 24000], "internal_node_id": "0.0-169.0", "trial": 6, "time_elapsed": 1107452, "serialpos": 7, "key_press": -1, "wordID": 484, "type": "PRES_AUD", "trial_index": 232}, "uniqueid": "MTK2720:3BWI6RSP7HGHP50Q24JSWZWWB1FE7W", "dateTime": 1519258483338}, {"current_trial": 233, "trialdata": {"rt": -1000, "trial_type": "single-audio", "word": "match", "stimulus": "/static/audio/wordpool/MATCH.wav", "conditions": [12, 1600, "a", 24000], "internal_node_id": "0.0-170.0", "trial": 6, "time_elapsed": 1109997, "serialpos": 8, "key_press": -1, "wordID": 877, "type": "PRES_AUD", "trial_index": 233}, "uniqueid": "MTK2720:3BWI6RSP7HGHP50Q24JSWZWWB1FE7W", "dateTime": 1519258485883}, {"current_trial": 234, "trialdata": {"rt": -1000, "trial_type": "single-audio", "word": "wasp", "stimulus": "/static/audio/wordpool/WASP.wav", "conditions": [12, 1600, "a", 24000], "internal_node_id": "0.0-171.0", "trial": 6, "time_elapsed": 1112788, "serialpos": 9, "key_press": -1, "wordID": 1592, "type": "PRES_AUD", "trial_index": 234}, "uniqueid": "MTK2720:3BWI6RSP7HGHP50Q24JSWZWWB1FE7W", "dateTime": 1519258488674}, {"current_trial": 235, "trialdata": {"rt": -1000, "trial_type": "single-audio", "word": "lava", "stimulus": "/static/audio/wordpool/LAVA.wav", "conditions": [12, 1600, "a", 24000], "internal_node_id": "0.0-172.0", "trial": 6, "time_elapsed": 1115541, "serialpos": 10, "key_press": -1, "wordID": 803, "type": "PRES_AUD", "trial_index": 235}, "uniqueid": "MTK2720:3BWI6RSP7HGHP50Q24JSWZWWB1FE7W", "dateTime": 1519258491427}, {"current_trial": 236, "trialdata": {"rt": -1000, "trial_type": "single-audio", "word": "pudding", "stimulus": "/static/audio/wordpool/PUDDING.wav", "conditions": [12, 1600, "a", 24000], "internal_node_id": "0.0-173.0", "trial": 6, "time_elapsed": 1118145, "serialpos": 11, "key_press": -1, "wordID": 1138, "type": "PRES_AUD", "trial_index": 236}, "uniqueid": "MTK2720:3BWI6RSP7HGHP50Q24JSWZWWB1FE7W", "dateTime": 1519258494031}, {"current_trial": 237, "trialdata": {"rt": -1, "trial_type": "single-stim", "stimulus": "", "internal_node_id": "0.0-174.0-0.0", "time_elapsed": 1119430, "key_press": -1, "type": "PRE_RECALL_DELAY", "trial_index": 237}, "uniqueid": "MTK2720:3BWI6RSP7HGHP50Q24JSWZWWB1FE7W", "dateTime": 1519258495316}, {"current_trial": 238, "trialdata": {"rt": -1000, "trial_type": "single-audio", "stimulus": "/static/audio/400Hz.wav", "internal_node_id": "0.0-175.0", "time_elapsed": 1119931, "key_press": -1, "type": "PRE_RECALL_ALERT", "trial_index": 238}, "uniqueid": "MTK2720:3BWI6RSP7HGHP50Q24JSWZWWB1FE7W", "dateTime": 1519258495817}, {"current_trial": 239, "trialdata": {"rt": [2032, 5233, 6736, 8113, 9993], "recwords": ["pudding", "wasp", "girl", "child", "sibling"], "key_times": [536, 873, 1096, 1265, 1352, 1488, 1631, 2032, 2353, 2624, 2656, 3120, 3456, 4585, 5233, 6024, 6128, 6257, 6417, 6736, 7224, 7321, 7441, 7633, 7864, 8113, 8496, 8633, 8800, 8904, 9081, 9216, 9344, 9993], "trial_type": "free-recall", "conditions": [12, 1600, "a", 24000], "internal_node_id": "0.0-176.0-0.0", "key_presses": [80, 85, 68, 68, 73, 78, 71, 13, 87, 65, 83, 80, 222, 8, 13, 71, 73, 82, 76, 13, 67, 72, 73, 76, 68, 13, 83, 73, 66, 76, 73, 78, 71, 13], "trial": 6, "time_elapsed": 1179933, "type": "FREE_RECALL", "trial_index": 239}, "uniqueid": "MTK2720:3BWI6RSP7HGHP50Q24JSWZWWB1FE7W", "dateTime": 1519258555821}, {"current_trial": 240, "trialdata": {"rt": 4324, "trial_type": "text", "internal_node_id": "0.0-177.0", "time_elapsed": 1186260, "key_press": 13, "type": "INSTRUCTIONS", "trial_index": 240}, "uniqueid": "MTK2720:3BWI6RSP7HGHP50Q24JSWZWWB1FE7W", "dateTime": 1519258562147}, {"current_trial": 241, "trialdata": {"rt": [3126, 5262, 9022, 11110, 14310, 17103], "trial_type": "math-distractor", "key_times": [2702, 2910, 3126, 4838, 5054, 5262, 8015, 8478, 9022, 10414, 10527, 11110, 13879, 14070, 14310, 16807, 17103], "responses": ["15", "12", "16", "13", "18", "9"], "num2": [6, 6, 6, 2, 8, 3, 7], "num3": [7, 5, 7, 3, 7, 1, 8], "conditions": [24, 1600, "a", 24000], "internal_node_id": "0.0-178.0", "key_presses": [97, 101, 13, 97, 98, 13, 97, 102, 13, 97, 99, 13, 97, 104, 13, 105, 13], "trial": 7, "time_elapsed": 1212264, "type": "DISTRACTOR", "trial_index": 241, "num1": [2, 1, 3, 8, 3, 5, 6]}, "uniqueid": "MTK2720:3BWI6RSP7HGHP50Q24JSWZWWB1FE7W", "dateTime": 1519258588150}, {"current_trial": 242, "trialdata": {"rt": -1, "trial_type": "single-stim", "stimulus": "<p id=\"stim\">10</p>", "internal_node_id": "0.0-179.0-0.0", "time_elapsed": 1215267, "key_press": -1, "trial_index": 242}, "uniqueid": "MTK2720:3BWI6RSP7HGHP50Q24JSWZWWB1FE7W", "dateTime": 1519258591153}, {"current_trial": 243, "trialdata": {"rt": -1, "trial_type": "single-stim", "stimulus": "<p id=\"stim\">9</p>", "internal_node_id": "0.0-179.0-1.0", "time_elapsed": 1216268, "key_press": -1, "trial_index": 243}, "uniqueid": "MTK2720:3BWI6RSP7HGHP50Q24JSWZWWB1FE7W", "dateTime": 1519258592155}, {"current_trial": 244, "trialdata": {"rt": -1, "trial_type": "single-stim", "stimulus": "<p id=\"stim\">8</p>", "internal_node_id": "0.0-179.0-2.0", "time_elapsed": 1217270, "key_press": -1, "trial_index": 244}, "uniqueid": "MTK2720:3BWI6RSP7HGHP50Q24JSWZWWB1FE7W", "dateTime": 1519258593156}, {"current_trial": 245, "trialdata": {"rt": -1, "trial_type": "single-stim", "stimulus": "<p id=\"stim\">7</p>", "internal_node_id": "0.0-179.0-3.0", "time_elapsed": 1218272, "key_press": -1, "trial_index": 245}, "uniqueid": "MTK2720:3BWI6RSP7HGHP50Q24JSWZWWB1FE7W", "dateTime": 1519258594158}, {"current_trial": 246, "trialdata": {"rt": -1, "trial_type": "single-stim", "stimulus": "<p id=\"stim\">6</p>", "internal_node_id": "0.0-179.0-4.0", "time_elapsed": 1219273, "key_press": -1, "trial_index": 246}, "uniqueid": "MTK2720:3BWI6RSP7HGHP50Q24JSWZWWB1FE7W", "dateTime": 1519258595159}, {"current_trial": 247, "trialdata": {"rt": -1, "trial_type": "single-stim", "stimulus": "<p id=\"stim\">5</p>", "internal_node_id": "0.0-179.0-5.0", "time_elapsed": 1220275, "key_press": -1, "trial_index": 247}, "uniqueid": "MTK2720:3BWI6RSP7HGHP50Q24JSWZWWB1FE7W", "dateTime": 1519258596161}, {"current_trial": 248, "trialdata": {"rt": -1, "trial_type": "single-stim", "stimulus": "<p id=\"stim\">4</p>", "internal_node_id": "0.0-179.0-6.0", "time_elapsed": 1221277, "key_press": -1, "trial_index": 248}, "uniqueid": "MTK2720:3BWI6RSP7HGHP50Q24JSWZWWB1FE7W", "dateTime": 1519258597163}, {"current_trial": 249, "trialdata": {"rt": -1, "trial_type": "single-stim", "stimulus": "<p id=\"stim\">3</p>", "internal_node_id": "0.0-179.0-7.0", "time_elapsed": 1222278, "key_press": -1, "trial_index": 249}, "uniqueid": "MTK2720:3BWI6RSP7HGHP50Q24JSWZWWB1FE7W", "dateTime": 1519258598164}, {"current_trial": 250, "trialdata": {"rt": -1, "trial_type": "single-stim", "stimulus": "<p id=\"stim\">2</p>", "internal_node_id": "0.0-179.0-8.0", "time_elapsed": 1223279, "key_press": -1, "trial_index": 250}, "uniqueid": "MTK2720:3BWI6RSP7HGHP50Q24JSWZWWB1FE7W", "dateTime": 1519258599165}, {"current_trial": 251, "trialdata": {"rt": -1, "trial_type": "single-stim", "stimulus": "<p id=\"stim\">1</p>", "internal_node_id": "0.0-179.0-9.0", "time_elapsed": 1224281, "key_press": -1, "trial_index": 251}, "uniqueid": "MTK2720:3BWI6RSP7HGHP50Q24JSWZWWB1FE7W", "dateTime": 1519258600168}, {"current_trial": 252, "trialdata": {"rt": -1, "trial_type": "single-stim", "stimulus": "<p id=\"stim\">+</p>", "internal_node_id": "0.0-180.0-0.0", "time_elapsed": 1225783, "key_press": -1, "type": "FIXATION", "trial_index": 252}, "uniqueid": "MTK2720:3BWI6RSP7HGHP50Q24JSWZWWB1FE7W", "dateTime": 1519258601669}, {"current_trial": 253, "trialdata": {"rt": -1000, "trial_type": "single-audio", "word": "gymnast", "stimulus": "/static/audio/wordpool/GYMNAST.wav", "conditions": [24, 1600, "a", 24000], "internal_node_id": "0.0-181.0", "trial": 7, "time_elapsed": 1228184, "serialpos": 0, "key_press": -1, "wordID": 674, "type": "PRES_AUD", "trial_index": 253}, "uniqueid": "MTK2720:3BWI6RSP7HGHP50Q24JSWZWWB1FE7W", "dateTime": 1519258604070}, {"current_trial": 254, "