{"assignmentId": "32KTQ2V7REMJFCGWYZ5VN3SBEN8M96", "workerId": "MTK2545", "questiondata": {"origin": "United States", "strat-rehearsal": "26", "marital": "Divorced", "education": "Bachelor's degree", "ethnicity": "Not Hispanic", "color_depth": 24, "distracted": "No", "wrote-notes": "No", "strat-other": "", "screen_width": 1920, "avail_screen_width": 1920, "avail_screen_height": 1050, "strat-image": "72", "language": "English", "gender": "Female", "age": "54", "gender_other": "", "race": ["White"], "strat-categorize": "97", "pixel_depth": 24, "strat-spatial": "88", "strat-story": "95", "race_other": "", "screen_height": 1080}, "bonus": 0, "hitId": "3HXK2V1N4KM60Y1HCLNJBR4GSRZG2A", "counterbalance": 1287, "useragent": "Mozilla/5.0 (Windows NT 10.0; Win64; x64) AppleWebKit/537.36 (KHTML, like Gecko) Chrome/63.0.3239.132 Safari/537.36", "eventdata": [{"eventtype": "initialized", "interval": 0, "value": null, "timestamp": 1519057448916}, {"eventtype": "window_resize", "interval": 0, "value": [1920, 1033], "timestamp": 1519057448916}, {"eventtype": "window_resize", "interval": 39127, "value": [1920, 999], "timestamp": 1519057488043}, {"eventtype": "focus", "interval": 469476, "value": "off", "timestamp": 1519057957519}, {"eventtype": "focus", "interval": 2618, "value": "on", "timestamp": 1519057960137}, {"eventtype": "focus", "interval": 1, "value": "on", "timestamp": 1519057960138}], "data": [{"current_trial": 0, "trialdata": {"rt": 3978, "trial_type": "text", "internal_node_id": "0.0-0.0", "time_elapsed": 3979, "key_press": 13, "type": "INSTRUCTIONS", "trial_index": 0}, "uniqueid": "MTK2545:32KTQ2V7REMJFCGWYZ5VN3SBEN8M96", "dateTime": 1519057453613}, {"current_trial": 1, "trialdata": {"rt": 13325, "trial_type": "text", "internal_node_id": "0.0-1.0", "time_elapsed": 17305, "key_press": 13, "type": "INSTRUCTIONS", "trial_index": 1}, "uniqueid": "MTK2545:32KTQ2V7REMJFCGWYZ5VN3SBEN8M96", "dateTime": 1519057466938}, {"current_trial": 2, "trialdata": {"rt": [46556], "trial_type": "audio-test", "responses": ["ocean"], "internal_node_id": "0.0-2.0", "time_elapsed": 63899, "type": "AUDIO_TEST", "trial_index": 2}, "uniqueid": "MTK2545:32KTQ2V7REMJFCGWYZ5VN3SBEN8M96", "dateTime": 1519057513532}, {"current_trial": 3, "trialdata": {"rt": [7468], "trial_type": "audio-test", "responses": ["crystal"], "internal_node_id": "0.0-3.0", "time_elapsed": 71371, "type": "AUDIO_TEST", "trial_index": 3}, "uniqueid": "MTK2545:32KTQ2V7REMJFCGWYZ5VN3SBEN8M96", "dateTime": 1519057521004}, {"current_trial": 4, "trialdata": {"rt": [7307], "trial_type": "audio-test", "responses": ["spice"], "internal_node_id": "0.0-4.0", "time_elapsed": 78682, "type": "AUDIO_TEST", "trial_index": 4}, "uniqueid": "MTK2545:32KTQ2V7REMJFCGWYZ5VN3SBEN8M96", "dateTime": 1519057528315}, {"current_trial": 5, "trialdata": {"rt": 27298, "trial_type": "survey-text", "responses": "{\"Q0\":\"12:30 AM\",\"Q1\":\"8:00 AM\",\"Q2\":\"5\"}", "internal_node_id": "0.0-5.0", "time_elapsed": 106736, "type": "SLEEP_SURVEY", "trial_index": 5}, "uniqueid": "MTK2545:32KTQ2V7REMJFCGWYZ5VN3SBEN8M96", "dateTime": 1519057556369}, {"current_trial": 6, "trialdata": {"rt": 26385, "trial_type": "text", "internal_node_id": "0.0-6.0", "time_elapsed": 134124, "key_press": 13, "type": "INSTRUCTIONS", "trial_index": 6}, "uniqueid": "MTK2545:32KTQ2V7REMJFCGWYZ5VN3SBEN8M96", "dateTime": 1519057583757}, {"current_trial": 7, "trialdata": {"rt": 15033, "trial_type": "text", "internal_node_id": "0.0-7.0", "time_elapsed": 149659, "key_press": 13, "type": "INSTRUCTIONS", "trial_index": 7}, "uniqueid": "MTK2545:32KTQ2V7REMJFCGWYZ5VN3SBEN8M96", "dateTime": 1519057599292}, {"current_trial": 8, "trialdata": {"rt": 13610, "trial_type": "text", "internal_node_id": "0.0-8.0", "time_elapsed": 163771, "key_press": 13, "type": "INSTRUCTIONS", "trial_index": 8}, "uniqueid": "MTK2545:32KTQ2V7REMJFCGWYZ5VN3SBEN8M96", "dateTime": 1519057613404}, {"current_trial": 9, "trialdata": {"rt": [10068, 13235, 16323], "trial_type": "math-distractor", "key_times": [9031, 9235, 10068, 12164, 12404, 13235, 15316, 15556, 16323], "responses": ["15", "10", "20"], "num2": [8, 4, 9, 4], "num3": [1, 3, 2, 8], "conditions": [18, 1200, "v", 18000], "internal_node_id": "0.0-9.0", "key_presses": [97, 101, 13, 97, 96, 13, 98, 96, 13], "trial": 0, "time_elapsed": 182778, "type": "DISTRACTOR", "trial_index": 9, "num1": [6, 3, 9, 4]}, "uniqueid": "MTK2545:32KTQ2V7REMJFCGWYZ5VN3SBEN8M96", "dateTime": 1519057632411}, {"current_trial": 10, "trialdata": {"rt": -1, "trial_type": "single-stim", "stimulus": "<p id=\"stim\">10</p>", "internal_node_id": "0.0-10.0-0.0", "time_elapsed": 185780, "key_press": -1, "trial_index": 10}, "uniqueid": "MTK2545:32KTQ2V7REMJFCGWYZ5VN3SBEN8M96", "dateTime": 1519057635413}, {"current_trial": 11, "trialdata": {"rt": -1, "trial_type": "single-stim", "stimulus": "<p id=\"stim\">9</p>", "internal_node_id": "0.0-10.0-1.0", "time_elapsed": 186782, "key_press": -1, "trial_index": 11}, "uniqueid": "MTK2545:32KTQ2V7REMJFCGWYZ5VN3SBEN8M96", "dateTime": 1519057636415}, {"current_trial": 12, "trialdata": {"rt": -1, "trial_type": "single-stim", "stimulus": "<p id=\"stim\">8</p>", "internal_node_id": "0.0-10.0-2.0", "time_elapsed": 187784, "key_press": -1, "trial_index": 12}, "uniqueid": "MTK2545:32KTQ2V7REMJFCGWYZ5VN3SBEN8M96", "dateTime": 1519057637418}, {"current_trial": 13, "trialdata": {"rt": -1, "trial_type": "single-stim", "stimulus": "<p id=\"stim\">7</p>", "internal_node_id": "0.0-10.0-3.0", "time_elapsed": 188786, "key_press": -1, "trial_index": 13}, "uniqueid": "MTK2545:32KTQ2V7REMJFCGWYZ5VN3SBEN8M96", "dateTime": 1519057638419}, {"current_trial": 14, "trialdata": {"rt": -1, "trial_type": "single-stim", "stimulus": "<p id=\"stim\">6</p>", "internal_node_id": "0.0-10.0-4.0", "time_elapsed": 189788, "key_press": -1, "trial_index": 14}, "uniqueid": "MTK2545:32KTQ2V7REMJFCGWYZ5VN3SBEN8M96", "dateTime": 1519057639421}, {"current_trial": 15, "trialdata": {"rt": -1, "trial_type": "single-stim", "stimulus": "<p id=\"stim\">5</p>", "internal_node_id": "0.0-10.0-5.0", "time_elapsed": 190791, "key_press": -1, "trial_index": 15}, "uniqueid": "MTK2545:32KTQ2V7REMJFCGWYZ5VN3SBEN8M96", "dateTime": 1519057640424}, {"current_trial": 16, "trialdata": {"rt": -1, "trial_type": "single-stim", "stimulus": "<p id=\"stim\">4</p>", "internal_node_id": "0.0-10.0-6.0", "time_elapsed": 191792, "key_press": -1, "trial_index": 16}, "uniqueid": "MTK2545:32KTQ2V7REMJFCGWYZ5VN3SBEN8M96", "dateTime": 1519057641426}, {"current_trial": 17, "trialdata": {"rt": -1, "trial_type": "single-stim", "stimulus": "<p id=\"stim\">3</p>", "internal_node_id": "0.0-10.0-7.0", "time_elapsed": 192795, "key_press": -1, "trial_index": 17}, "uniqueid": "MTK2545:32KTQ2V7REMJFCGWYZ5VN3SBEN8M96", "dateTime": 1519057642428}, {"current_trial": 18, "trialdata": {"rt": -1, "trial_type": "single-stim", "stimulus": "<p id=\"stim\">2</p>", "internal_node_id": "0.0-10.0-8.0", "time_elapsed": 193796, "key_press": -1, "trial_index": 18}, "uniqueid": "MTK2545:32KTQ2V7REMJFCGWYZ5VN3SBEN8M96", "dateTime": 1519057643430}, {"current_trial": 19, "trialdata": {"rt": -1, "trial_type": "single-stim", "stimulus": "<p id=\"stim\">1</p>", "internal_node_id": "0.0-10.0-9.0", "time_elapsed": 194798, "key_press": -1, "trial_index": 19}, "uniqueid": "MTK2545:32KTQ2V7REMJFCGWYZ5VN3SBEN8M96", "dateTime": 1519057644431}, {"current_trial": 20, "trialdata": {"rt": -1, "trial_type": "single-stim", "stimulus": "<p id=\"stim\">+</p>", "internal_node_id": "0.0-11.0-0.0", "time_elapsed": 196300, "key_press": -1, "type": "FIXATION", "trial_index": 20}, "uniqueid": "MTK2545:32KTQ2V7REMJFCGWYZ5VN3SBEN8M96", "dateTime": 1519057645933}, {"current_trial": 21, "trialdata": {"rt": -1, "trial_type": "single-stim", "word": "marker", "stimulus": "<p id=\"stim\">MARKER</p>", "conditions": [18, 1200, "v", 18000], "internal_node_id": "0.0-12.0", "trial": 0, "time_elapsed": 197502, "serialpos": 0, "key_press": -1, "wordID": 869, "type": "PRES_VIS", "trial_index": 21}, "uniqueid": "MTK2545:32KTQ2V7REMJFCGWYZ5VN3SBEN8M96", "dateTime": 1519057647135}, {"current_trial": 22, "trialdata": {"rt": -1, "trial_type": "single-stim", "word": "dolphin", "stimulus": "<p id=\"stim\">DOLPHIN</p>", "conditions": [18, 1200, "v", 18000], "internal_node_id": "0.0-13.0", "trial": 0, "time_elapsed": 199794, "serialpos": 1, "key_press": -1, "wordID": 482, "type": "PRES_VIS", "trial_index": 22}, "uniqueid": "MTK2545:32KTQ2V7REMJFCGWYZ5VN3SBEN8M96", "dateTime": 1519057649427}, {"current_trial": 23, "trialdata": {"rt": -1, "trial_type": "single-stim", "word": "ointment", "stimulus": "<p id=\"stim\">OINTMENT</p>", "conditions": [18, 1200, "v", 18000], "internal_node_id": "0.0-14.0", "trial": 0, "time_elapsed": 201952, "serialpos": 2, "key_press": -1, "wordID": 973, "type": "PRES_VIS", "trial_index": 23}, "uniqueid": "MTK2545:32KTQ2V7REMJFCGWYZ5VN3SBEN8M96", "dateTime": 1519057651585}, {"current_trial": 24, "trialdata": {"rt": -1, "trial_type": "single-stim", "word": "termite", "stimulus": "<p id=\"stim\">TERMITE</p>", "conditions": [18, 1200, "v", 18000], "internal_node_id": "0.0-15.0", "trial": 0, "time_elapsed": 204323, "serialpos": 3, "key_press": -1, "wordID": 1450, "type": "PRES_VIS", "trial_index": 24}, "uniqueid": "MTK2545:32KTQ2V7REMJFCGWYZ5VN3SBEN8M96", "dateTime": 1519057653956}, {"current_trial": 25, "trialdata": {"rt": -1, "trial_type": "single-stim", "word": "tortoise", "stimulus": "<p id=\"stim\">TORTOISE</p>", "conditions": [18, 1200, "v", 18000], "internal_node_id": "0.0-16.0", "trial": 0, "time_elapsed": 206419, "serialpos": 4, "key_press": -1, "wordID": 1485, "type": "PRES_VIS", "trial_index": 25}, "uniqueid": "MTK2545:32KTQ2V7REMJFCGWYZ5VN3SBEN8M96", "dateTime": 1519057656052}, {"current_trial": 26, "trialdata": {"rt": -1, "trial_type": "single-stim", "word": "hawk", "stimulus": "<p id=\"stim\">HAWK</p>", "conditions": [18, 1200, "v", 18000], "internal_node_id": "0.0-17.0", "trial": 0, "time_elapsed": 208774, "serialpos": 5, "key_press": -1, "wordID": 691, "type": "PRES_VIS", "trial_index": 26}, "uniqueid": "MTK2545:32KTQ2V7REMJFCGWYZ5VN3SBEN8M96", "dateTime": 1519057658407}, {"current_trial": 27, "trialdata": {"rt": -1, "trial_type": "single-stim", "word": "valve", "stimulus": "<p id=\"stim\">VALVE</p>", "conditions": [18, 1200, "v", 18000], "internal_node_id": "0.0-18.0", "trial": 0, "time_elapsed": 210880, "serialpos": 6, "key_press": -1, "wordID": 1545, "type": "PRES_VIS", "trial_index": 27}, "uniqueid": "MTK2545:32KTQ2V7REMJFCGWYZ5VN3SBEN8M96", "dateTime": 1519057660513}, {"current_trial": 28, "trialdata": {"rt": -1, "trial_type": "single-stim", "word": "robber", "stimulus": "<p id=\"stim\">ROBBER</p>", "conditions": [18, 1200, "v", 18000], "internal_node_id": "0.0-19.0", "trial": 0, "time_elapsed": 213115, "serialpos": 7, "key_press": -1, "wordID": 1196, "type": "PRES_VIS", "trial_index": 28}, "uniqueid": "MTK2545:32KTQ2V7REMJFCGWYZ5VN3SBEN8M96", "dateTime": 1519057662748}, {"current_trial": 29, "trialdata": {"rt": -1, "trial_type": "single-stim", "word": "chapel", "stimulus": "<p id=\"stim\">CHAPEL</p>", "conditions": [18, 1200, "v", 18000], "internal_node_id": "0.0-20.0", "trial": 0, "time_elapsed": 215180, "serialpos": 8, "key_press": -1, "wordID": 279, "type": "PRES_VIS", "trial_index": 29}, "uniqueid": "MTK2545:32KTQ2V7REMJFCGWYZ5VN3SBEN8M96", "dateTime": 1519057664813}, {"current_trial": 30, "trialdata": {"rt": -1, "trial_type": "single-stim", "word": "girl", "stimulus": "<p id=\"stim\">GIRL</p>", "conditions": [18, 1200, "v", 18000], "internal_node_id": "0.0-21.0", "trial": 0, "time_elapsed": 217389, "serialpos": 9, "key_press": -1, "wordID": 636, "type": "PRES_VIS", "trial_index": 30}, "uniqueid": "MTK2545:32KTQ2V7REMJFCGWYZ5VN3SBEN8M96", "dateTime": 1519057667022}, {"current_trial": 31, "trialdata": {"rt": -1, "trial_type": "single-stim", "word": "sketch", "stimulus": "<p id=\"stim\">SKETCH</p>", "conditions": [18, 1200, "v", 18000], "internal_node_id": "0.0-22.0", "trial": 0, "time_elapsed": 219494, "serialpos": 10, "key_press": -1, "wordID": 1314, "type": "PRES_VIS", "trial_index": 31}, "uniqueid": "MTK2545:32KTQ2V7REMJFCGWYZ5VN3SBEN8M96", "dateTime": 1519057669127}, {"current_trial": 32, "trialdata": {"rt": -1, "trial_type": "single-stim", "word": "badge", "stimulus": "<p id=\"stim\">BADGE</p>", "conditions": [18, 1200, "v", 18000], "internal_node_id": "0.0-23.0", "trial": 0, "time_elapsed": 221676, "serialpos": 11, "key_press": -1, "wordID": 67, "type": "PRES_VIS", "trial_index": 32}, "uniqueid": "MTK2545:32KTQ2V7REMJFCGWYZ5VN3SBEN8M96", "dateTime": 1519057671309}, {"current_trial": 33, "trialdata": {"rt": -1, "trial_type": "single-stim", "word": "pasta", "stimulus": "<p id=\"stim\">PASTA</p>", "conditions": [18, 1200, "v", 18000], "internal_node_id": "0.0-24.0", "trial": 0, "time_elapsed": 223710, "serialpos": 12, "key_press": -1, "wordID": 1020, "type": "PRES_VIS", "trial_index": 33}, "uniqueid": "MTK2545:32KTQ2V7REMJFCGWYZ5VN3SBEN8M96", "dateTime": 1519057673343}, {"current_trial": 34, "trialdata": {"rt": -1, "trial_type": "single-stim", "word": "space", "stimulus": "<p id=\"stim\">SPACE</p>", "conditions": [18, 1200, "v", 18000], "internal_node_id": "0.0-25.0", "trial": 0, "time_elapsed": 226087, "serialpos": 13, "key_press": -1, "wordID": 1344, "type": "PRES_VIS", "trial_index": 34}, "uniqueid": "MTK2545:32KTQ2V7REMJFCGWYZ5VN3SBEN8M96", "dateTime": 1519057675720}, {"current_trial": 35, "trialdata": {"rt": -1, "trial_type": "single-stim", "word": "grill", "stimulus": "<p id=\"stim\">GRILL</p>", "conditions": [18, 1200, "v", 18000], "internal_node_id": "0.0-26.0", "trial": 0, "time_elapsed": 228312, "serialpos": 14, "key_press": -1, "wordID": 660, "type": "PRES_VIS", "trial_index": 35}, "uniqueid": "MTK2545:32KTQ2V7REMJFCGWYZ5VN3SBEN8M96", "dateTime": 1519057677945}, {"current_trial": 36, "trialdata": {"rt": -1, "trial_type": "single-stim", "word": "ozone", "stimulus": "<p id=\"stim\">OZONE</p>", "conditions": [18, 1200, "v", 18000], "internal_node_id": "0.0-27.0", "trial": 0, "time_elapsed": 230542, "serialpos": 15, "key_press": -1, "wordID": 995, "type": "PRES_VIS", "trial_index": 36}, "uniqueid": "MTK2545:32KTQ2V7REMJFCGWYZ5VN3SBEN8M96", "dateTime": 1519057680175}, {"current_trial": 37, "trialdata": {"rt": -1, "trial_type": "single-stim", "word": "husband", "stimulus": "<p id=\"stim\">HUSBAND</p>", "conditions": [18, 1200, "v", 18000], "internal_node_id": "0.0-28.0", "trial": 0, "time_elapsed": 232638, "serialpos": 16, "key_press": -1, "wordID": 727, "type": "PRES_VIS", "trial_index": 37}, "uniqueid": "MTK2545:32KTQ2V7REMJFCGWYZ5VN3SBEN8M96", "dateTime": 1519057682271}, {"current_trial": 38, "trialdata": {"rt": -1, "trial_type": "single-stim", "word": "vagrant", "stimulus": "<p id=\"stim\">VAGRANT</p>", "conditions": [18, 1200, "v", 18000], "internal_node_id": "0.0-29.0", "trial": 0, "time_elapsed": 234679, "serialpos": 17, "key_press": -1, "wordID": 1543, "type": "PRES_VIS", "trial_index": 38}, "uniqueid": "MTK2545:32KTQ2V7REMJFCGWYZ5VN3SBEN8M96", "dateTime": 1519057684312}, {"current_trial": 39, "trialdata": {"rt": -1, "trial_type": "single-stim", "stimulus": "", "internal_node_id": "0.0-30.0-0.0", "time_elapsed": 237107, "key_press": -1, "type": "PRE_RECALL_DELAY", "trial_index": 39}, "uniqueid": "MTK2545:32KTQ2V7REMJFCGWYZ5VN3SBEN8M96", "dateTime": 1519057686740}, {"current_trial": 40, "trialdata": {"rt": -1000, "trial_type": "single-audio", "stimulus": "/static/audio/400Hz.wav", "internal_node_id": "0.0-31.0", "time_elapsed": 237610, "key_press": -1, "type": "PRE_RECALL_ALERT", "trial_index": 40}, "uniqueid": "MTK2545:32KTQ2V7REMJFCGWYZ5VN3SBEN8M96", "dateTime": 1519057687243}, {"current_trial": 41, "trialdata": {"rt": [4239, 5871, 7359, 8686, 11902, 13759, 14975, 18240, 22559, 50015], "recwords": ["dolphin", "marker", "girl", "grill", "hawk", "vagrant", "spice", "ozone", "ointment", ""], "key_times": [2258, 2384, 2592, 3135, 3375, 3583, 3823, 4015, 4239, 5008, 5071, 5279, 5375, 5472, 5632, 5727, 5871, 6671, 6767, 6912, 7023, 7136, 7359, 7694, 7758, 7935, 8018, 8193, 8351, 8686, 9342, 9471, 9615, 9744, 10383, 11071, 11231, 11519, 11631, 11902, 12560, 12639, 12815, 12895, 13120, 13215, 13375, 13503, 13759, 14111, 14191, 14320, 14433, 14559, 14784, 14975, 17215, 17295, 17648, 17744, 17951, 18065, 18240, 21167, 21263, 21472, 21679, 21840, 21983, 22127, 22259, 22385, 22559, 50015], "trial_type": "free-recall", "conditions": [18, 1200, "v", 18000], "internal_node_id": "0.0-32.0-0.0", "key_presses": [16, 68, 79, 76, 80, 72, 73, 78, 13, 16, 77, 65, 82, 75, 69, 82, 13, 16, 71, 73, 82, 76, 13, 16, 71, 82, 73, 76, 76, 13, 16, 72, 65, 76, 87, 8, 8, 87, 75, 13, 16, 86, 65, 71, 82, 65, 78, 84, 13, 16, 83, 80, 73, 67, 69, 13, 16, 79, 90, 79, 78, 69, 13, 16, 79, 73, 78, 84, 77, 69, 78, 84, 13, 13], "trial": 0, "time_elapsed": 297614, "type": "FREE_RECALL", "trial_index": 41}, "uniqueid": "MTK2545:32KTQ2V7REMJFCGWYZ5VN3SBEN8M96", "dateTime": 1519057747250}, {"current_trial": 42, "trialdata": {"rt": 2169, "trial_type": "text", "internal_node_id": "0.0-33.0", "time_elapsed": 301788, "key_press": 13, "type": "INSTRUCTIONS", "trial_index": 42}, "uniqueid": "MTK2545:32KTQ2V7REMJFCGWYZ5VN3SBEN8M96", "dateTime": 1519057751421}, {"current_trial": 43, "trialdata": {"rt": [3885, 7150, 10717, 13789, 16797], "trial_type": "math-distractor", "key_times": [2846, 3054, 3885, 5757, 7150, 10078, 10189, 10717, 12814, 13022, 13789, 15950, 16046, 16797], "responses": ["15", "8", "12", "10", "12"], "num2": [7, 3, 4, 2, 6, 2], "num3": [1, 1, 4, 3, 3, 6], "conditions": [18, 1200, "v", 18000], "internal_node_id": "0.0-34.0", "key_presses": [97, 101, 13, 104, 13, 97, 98, 13, 97, 96, 13, 97, 98, 13], "trial": 1, "time_elapsed": 321790, "type": "DISTRACTOR", "trial_index": 43, "num1": [7, 4, 4, 5, 3, 3]}, "uniqueid": "MTK2545:32KTQ2V7REMJFCGWYZ5VN3SBEN8M96", "dateTime": 1519057771424}, {"current_trial": 44, "trialdata": {"rt": -1, "trial_type": "single-stim", "stimulus": "<p id=\"stim\">10</p>", "internal_node_id": "0.0-35.0-0.0", "time_elapsed": 324794, "key_press": -1, "trial_index": 44}, "uniqueid": "MTK2545:32KTQ2V7REMJFCGWYZ5VN3SBEN8M96", "dateTime": 1519057774427}, {"current_trial": 45, "trialdata": {"rt": -1, "trial_type": "single-stim", "stimulus": "<p id=\"stim\">9</p>", "internal_node_id": "0.0-35.0-1.0", "time_elapsed": 325795, "key_press": -1, "trial_index": 45}, "uniqueid": "MTK2545:32KTQ2V7REMJFCGWYZ5VN3SBEN8M96", "dateTime": 1519057775429}, {"current_trial": 46, "trialdata": {"rt": -1, "trial_type": "single-stim", "stimulus": "<p id=\"stim\">8</p>", "internal_node_id": "0.0-35.0-2.0", "time_elapsed": 326798, "key_press": -1, "trial_index": 46}, "uniqueid": "MTK2545:32KTQ2V7REMJFCGWYZ5VN3SBEN8M96", "dateTime": 1519057776431}, {"current_trial": 47, "trialdata": {"rt": -1, "trial_type": "single-stim", "stimulus": "<p id=\"stim\">7</p>", "internal_node_id": "0.0-35.0-3.0", "time_elapsed": 327800, "key_press": -1, "trial_index": 47}, "uniqueid": "MTK2545:32KTQ2V7REMJFCGWYZ5VN3SBEN8M96", "dateTime": 1519057777433}, {"current_trial": 48, "trialdata": {"rt": -1, "trial_type": "single-stim", "stimulus": "<p id=\"stim\">6</p>", "internal_node_id": "0.0-35.0-4.0", "time_elapsed": 328802, "key_press": -1, "trial_index": 48}, "uniqueid": "MTK2545:32KTQ2V7REMJFCGWYZ5VN3SBEN8M96", "dateTime": 1519057778435}, {"current_trial": 49, "trialdata": {"rt": -1, "trial_type": "single-stim", "stimulus": "<p id=\"stim\">5</p>", "internal_node_id": "0.0-35.0-5.0", "time_elapsed": 329805, "key_press": -1, "trial_index": 49}, "uniqueid": "MTK2545:32KTQ2V7REMJFCGWYZ5VN3SBEN8M96", "dateTime": 1519057779438}, {"current_trial": 50, "trialdata": {"rt": -1, "trial_type": "single-stim", "stimulus": "<p id=\"stim\">4</p>", "internal_node_id": "0.0-35.0-6.0", "time_elapsed": 330807, "key_press": -1, "trial_index": 50}, "uniqueid": "MTK2545:32KTQ2V7REMJFCGWYZ5VN3SBEN8M96", "dateTime": 1519057780440}, {"current_trial": 51, "trialdata": {"rt": -1, "trial_type": "single-stim", "stimulus": "<p id=\"stim\">3</p>", "internal_node_id": "0.0-35.0-7.0", "time_elapsed": 331808, "key_press": -1, "trial_index": 51}, "uniqueid": "MTK2545:32KTQ2V7REMJFCGWYZ5VN3SBEN8M96", "dateTime": 1519057781441}, {"current_trial": 52, "trialdata": {"rt": -1, "trial_type": "single-stim", "stimulus": "<p id=\"stim\">2</p>", "internal_node_id": "0.0-35.0-8.0", "time_elapsed": 332809, "key_press": -1, "trial_index": 52}, "uniqueid": "MTK2545:32KTQ2V7REMJFCGWYZ5VN3SBEN8M96", "dateTime": 1519057782442}, {"current_trial": 53, "trialdata": {"rt": -1, "trial_type": "single-stim", "stimulus": "<p id=\"stim\">1</p>", "internal_node_id": "0.0-35.0-9.0", "time_elapsed": 333812, "key_press": -1, "trial_index": 53}, "uniqueid": "MTK2545:32KTQ2V7REMJFCGWYZ5VN3SBEN8M96", "dateTime": 1519057783445}, {"current_trial": 54, "trialdata": {"rt": -1, "trial_type": "single-stim", "stimulus": "<p id=\"stim\">+</p>", "internal_node_id": "0.0-36.0-0.0", "time_elapsed": 335313, "key_press": -1, "type": "FIXATION", "trial_index": 54}, "uniqueid": "MTK2545:32KTQ2V7REMJFCGWYZ5VN3SBEN8M96", "dateTime": 1519057784946}, {"current_trial": 55, "trialdata": {"rt": -1, "trial_type": "single-stim", "word": "knapsack", "stimulus": "<p id=\"stim\">KNAPSACK</p>", "conditions": [18, 1200, "v", 18000], "internal_node_id": "0.0-37.0", "trial": 1, "time_elapsed": 336515, "serialpos": 0, "key_press": -1, "wordID": 782, "type": "PRES_VIS", "trial_index": 55}, "uniqueid": "MTK2545:32KTQ2V7REMJFCGWYZ5VN3SBEN8M96", "dateTime": 1519057786148}, {"current_trial": 56, "trialdata": {"rt": -1, "trial_type": "single-stim", "word": "fox", "stimulus": "<p id=\"stim\">FOX</p>", "conditions": [18, 1200, "v", 18000], "internal_node_id": "0.0-38.0", "trial": 1, "time_elapsed": 338622, "serialpos": 1, "key_press": -1, "wordID": 597, "type": "PRES_VIS", "trial_index": 56}, "uniqueid": "MTK2545:32KTQ2V7REMJFCGWYZ5VN3SBEN8M96", "dateTime": 1519057788255}, {"current_trial": 57, "trialdata": {"rt": -1, "trial_type": "single-stim", "word": "motel", "stimulus": "<p id=\"stim\">MOTEL</p>", "conditions": [18, 1200, "v", 18000], "internal_node_id": "0.0-39.0", "trial": 1, "time_elapsed": 340978, "serialpos": 2, "key_press": -1, "wordID": 918, "type": "PRES_VIS", "trial_index": 57}, "uniqueid": "MTK2545:32KTQ2V7REMJFCGWYZ5VN3SBEN8M96", "dateTime": 1519057790611}, {"current_trial": 58, "trialdata": {"rt": -1, "trial_type": "single-stim", "word": "rabbit", "stimulus": "<p id=\"stim\">RABBIT</p>", "conditions": [18, 1200, "v", 18000], "internal_node_id": "0.0-40.0", "trial": 1, "time_elapsed": 343340, "serialpos": 3, "key_press": -1, "wordID": 1151, "type": "PRES_VIS", "trial_index": 58}, "uniqueid": "MTK2545:32KTQ2V7REMJFCGWYZ5VN3SBEN8M96", "dateTime": 1519057792973}, {"current_trial": 59, "trialdata": {"rt": -1, "trial_type": "single-stim", "word": "outlaw", "stimulus": "<p id=\"stim\">OUTLAW</p>", "conditions": [18, 1200, "v", 18000], "internal_node_id": "0.0-41.0", "trial": 1, "time_elapsed": 345697, "serialpos": 4, "key_press": -1, "wordID": 988, "type": "PRES_VIS", "trial_index": 59}, "uniqueid": "MTK2545:32KTQ2V7REMJFCGWYZ5VN3SBEN8M96", "dateTime": 1519057795330}, {"current_trial": 60, "trialdata": {"rt": -1, "trial_type": "single-stim", "word": "waiter", "stimulus": "<p id=\"stim\">WAITER</p>", "conditions": [18, 1200, "v", 18000], "internal_node_id": "0.0-42.0", "trial": 1, "time_elapsed": 347753, "serialpos": 5, "key_press": -1, "wordID": 1579, "type": "PRES_VIS", "trial_index": 60}, "uniqueid": "MTK2545:32KTQ2V7REMJFCGWYZ5VN3SBEN8M96", "dateTime": 1519057797387}, {"current_trial": 61, "trialdata": {"rt": -1, "trial_type": "single-stim", "word": "cafe", "stimulus": "<p id=\"stim\">CAFE</p>", "conditions": [18, 1200, "v", 18000], "internal_node_id": "0.0-43.0", "trial": 1, "time_elapsed": 350083, "serialpos": 6, "key_press": -1, "wordID": 215, "type": "PRES_VIS", "trial_index": 61}, "uniqueid": "MTK2545:32KTQ2V7REMJFCGWYZ5VN3SBEN8M96", "dateTime": 1519057799716}, {"current_trial": 62, "trialdata": {"rt": -1, "trial_type": "single-stim", "word": "slime", "stimulus": "<p id=\"stim\">SLIME</p>", "conditions": [18, 1200, "v", 18000], "internal_node_id": "0.0-44.0", "trial": 1, "time_elapsed": 352371, "serialpos": 7, "key_press": -1, "wordID": 1326, "type": "PRES_VIS", "trial_index": 62}, "uniqueid": "MTK2545:32KTQ2V7REMJFCGWYZ5VN3SBEN8M96", "dateTime": 1519057802004}, {"current_trial": 63, "trialdata": {"rt": -1, "trial_type": "single-stim", "word": "table", "stimulus": "<p id=\"stim\">TABLE</p>", "conditions": [18, 1200, "v", 18000], "internal_node_id": "0.0-45.0", "trial": 1, "time_elapsed": 354510, "serialpos": 8, "key_press": -1, "wordID": 1425, "type": "PRES_VIS", "trial_index": 63}, "uniqueid": "MTK2545:32KTQ2V7REMJFCGWYZ5VN3SBEN8M96", "dateTime": 1519057804143}, {"current_trial": 64, "trialdata": {"rt": -1, "trial_type": "single-stim", "word": "grape", "stimulus": "<p id=\"stim\">GRAPE</p>", "conditions": [18, 1200, "v", 18000], "internal_node_id": "0.0-46.0", "trial": 1, "time_elapsed": 356889, "serialpos": 9, "key_press": -1, "wordID": 653, "type": "PRES_VIS", "trial_index": 64}, "uniqueid": "MTK2545:32KTQ2V7REMJFCGWYZ5VN3SBEN8M96", "dateTime": 1519057806522}, {"current_trial": 65, "trialdata": {"rt": -1, "trial_type": "single-stim", "word": "waitress", "stimulus": "<p id=\"stim\">WAITRESS</p>", "conditions": [18, 1200, "v", 18000], "internal_node_id": "0.0-47.0", "trial": 1, "time_elapsed": 359072, "serialpos": 10, "key_press": -1, "wordID": 1580, "type": "PRES_VIS", "trial_index": 65}, "uniqueid": "MTK2545:32KTQ2V7REMJFCGWYZ5VN3SBEN8M96", "dateTime": 1519057808705}, {"current_trial": 66, "trialdata": {"rt": -1, "trial_type": "single-stim", "word": "drug", "stimulus": "<p id=\"stim\">DRUG</p>", "conditions": [18, 1200, "v", 18000], "internal_node_id": "0.0-48.0", "trial": 1, "time_elapsed": 361155, "serialpos": 11, "key_press": -1, "wordID": 500, "type": "PRES_VIS", "trial_index": 66}, "uniqueid": "MTK2545:32KTQ2V7REMJFCGWYZ5VN3SBEN8M96", "dateTime": 1519057810788}, {"current_trial": 67, "trialdata": {"rt": -1, "trial_type": "single-stim", "word": "champagne", "stimulus": "<p id=\"stim\">CHAMPAGNE</p>", "conditions": [18, 1200, "v", 18000], "internal_node_id": "0.0-49.0", "trial": 1, "time_elapsed": 363529, "serialpos": 12, "key_press": -1, "wordID": 277, "type": "PRES_VIS", "trial_index": 67}, "uniqueid": "MTK2545:32KTQ2V7REMJFCGWYZ5VN3SBEN8M96", "dateTime": 1519057813162}, {"current_trial": 68, "trialdata": {"rt": -1, "trial_type": "single-stim", "word": "sandwich", "stimulus": "<p id=\"stim\">SANDWICH</p>", "conditions": [18, 1200, "v", 18000], "internal_node_id": "0.0-50.0", "trial": 1, "time_elapsed": 365573, "serialpos": 13, "key_press": -1, "wordID": 1231, "type": "PRES_VIS", "trial_index": 68}, "uniqueid": "MTK2545:32KTQ2V7REMJFCGWYZ5VN3SBEN8M96", "dateTime": 1519057815207}, {"current_trial": 69, "trialdata": {"rt": -1, "trial_type": "single-stim", "word": "tuba", "stimulus": "<p id=\"stim\">TUBA</p>", "conditions": [18, 1200, "v", 18000], "internal_node_id": "0.0-51.0", "trial": 1, "time_elapsed": 367746, "serialpos": 14, "key_press": -1, "wordID": 1514, "type": "PRES_VIS", "trial_index": 69}, "uniqueid": "MTK2545:32KTQ2V7REMJFCGWYZ5VN3SBEN8M96", "dateTime": 1519057817379}, {"current_trial": 70, "trialdata": {"rt": -1, "trial_type": "single-stim", "word": "poet", "stimulus": "<p id=\"stim\">POET</p>", "conditions": [18, 1200, "v", 18000], "internal_node_id": "0.0-52.0", "trial": 1, "time_elapsed": 370127, "serialpos": 15, "key_press": -1, "wordID": 1094, "type": "PRES_VIS", "trial_index": 70}, "uniqueid": "MTK2545:32KTQ2V7REMJFCGWYZ5VN3SBEN8M96", "dateTime": 1519057819760}, {"current_trial": 71, "trialdata": {"rt": -1, "trial_type": "single-stim", "word": "knife", "stimulus": "<p id=\"stim\">KNIFE</p>", "conditions": [18, 1200, "v", 18000], "internal_node_id": "0.0-53.0", "trial": 1, "time_elapsed": 372266, "serialpos": 16, "key_press": -1, "wordID": 784, "type": "PRES_VIS", "trial_index": 71}, "uniqueid": "MTK2545:32KTQ2V7REMJFCGWYZ5VN3SBEN8M96", "dateTime": 1519057821899}, {"current_trial": 72, "trialdata": {"rt": -1, "trial_type": "single-stim", "word": "donor", "stimulus": "<p id=\"stim\">DONOR</p>", "conditions": [18, 1200, "v", 18000], "internal_node_id": "0.0-54.0", "trial": 1, "time_elapsed": 374655, "serialpos": 17, "key_press": -1, "wordID": 484, "type": "PRES_VIS", "trial_index": 72}, "uniqueid": "MTK2545:32KTQ2V7REMJFCGWYZ5VN3SBEN8M96", "dateTime": 1519057824289}, {"current_trial": 73, "trialdata": {"rt": -1, "trial_type": "single-stim", "stimulus": "", "internal_node_id": "0.0-55.0-0.0", "time_elapsed": 376815, "key_press": -1, "type": "PRE_RECALL_DELAY", "trial_index": 73}, "uniqueid": "MTK2545:32KTQ2V7REMJFCGWYZ5VN3SBEN8M96", "dateTime": 1519057826448}, {"current_trial": 74, "trialdata": {"rt": -1000, "trial_type": "single-audio", "stimulus": "/static/audio/400Hz.wav", "internal_node_id": "0.0-56.0", "time_elapsed": 377317, "key_press": -1, "type": "PRE_RECALL_ALERT", "trial_index": 74}, "uniqueid": "MTK2545:32KTQ2V7REMJFCGWYZ5VN3SBEN8M96", "dateTime": 1519057826950}, {"current_trial": 75, "trialdata": {"rt": [5173, 8405, 9221, 11653, 13941, 17558, 22437, 26341, 29558, 34758, 41621, 43397], "recwords": ["knapsack", "motel", "fox", "grape", "tuba", "cafe", "sandwich", "knife", "table", "champagne", "waiter", "waitress"], "key_times": [3527, 3717, 3877, 4039, 4405, 4565, 4774, 4870, 5173, 7687, 7814, 7941, 8087, 8198, 8405, 8681, 8837, 9013, 9221, 10710, 10965, 11061, 11237, 11414, 11653, 13445, 13574, 13685, 13781, 13941, 16901, 16998, 17222, 17302, 17558, 20965, 21109, 21269, 21383, 21589, 21654, 22038, 22149, 22437, 25606, 25798, 25941, 26071, 26165, 26341, 28870, 28951, 29158, 29270, 29382, 29558, 32533, 32677, 32774, 32934, 33158, 33334, 33670, 34007, 34616, 34758, 39845, 39941, 40181, 40261, 40454, 40534, 41621, 42149, 42310, 42453, 42566, 42773, 42870, 43030, 43253, 43397], "trial_type": "free-recall", "conditions": [18, 1200, "v", 18000], "internal_node_id": "0.0-57.0-0.0", "key_presses": [75, 78, 65, 80, 83, 65, 67, 75, 13, 77, 79, 84, 69, 76, 13, 70, 79, 88, 13, 71, 82, 65, 80, 69, 13, 84, 85, 66, 65, 13, 67, 65, 70, 69, 13, 83, 65, 78, 68, 87, 73, 67, 72, 13, 75, 78, 73, 70, 69, 13, 84, 65, 66, 76, 69, 13, 67, 72, 65, 77, 80, 65, 71, 78, 69, 13, 87, 65, 73, 84, 69, 82, 13, 87, 65, 73, 84, 82, 69, 83, 83, 13], "trial": 1, "time_elapsed": 437322, "type": "FREE_RECALL", "trial_index": 75}, "uniqueid": "MTK2545:32KTQ2V7REMJFCGWYZ5VN3SBEN8M96", "dateTime": 1519057886958}, {"current_trial": 76, "trialdata": {"rt": 5103, "trial_type": "text", "internal_node_id": "0.0-58.0", "time_elapsed": 444429, "key_press": 13, "type": "INSTRUCTIONS", "trial_index": 76}, "uniqueid": "MTK2545:32KTQ2V7REMJFCGWYZ5VN3SBEN8M96", "dateTime": 1519057894062}, {"current_trial": 77, "trialdata": {"rt": [6629, 9813], "trial_type": "math-distractor", "key_times": [4949, 5173, 6629, 9126, 9301, 9813], "responses": ["18", "15"], "num2": [6, 5, 4], "num3": [8, 2, 9], "conditions": [12, 1600, "v", 12000], "internal_node_id": "0.0-59.0", "key_presses": [97, 104, 13, 97, 101, 13], "trial": 2, "time_elapsed": 457432, "type": "DISTRACTOR", "trial_index": 77, "num1": [4, 8, 5]}, "uniqueid": "MTK2545:32KTQ2V7REMJFCGWYZ5VN3SBEN8M96", "dateTime": 1519057907065}, {"current_trial": 78, "trialdata": {"rt": -1, "trial_type": "single-stim", "stimulus": "<p id=\"stim\">10</p>", "internal_node_id": "0.0-60.0-0.0", "time_elapsed": 460434, "key_press": -1, "trial_index": 78}, "uniqueid": "MTK2545:32KTQ2V7REMJFCGWYZ5VN3SBEN8M96", "dateTime": 1519057910068}, {"current_trial": 79, "trialdata": {"rt": -1, "trial_type": "single-stim", "stimulus": "<p id=\"stim\">9</p>", "internal_node_id": "0.0-60.0-1.0", "time_elapsed": 461437, "key_press": -1, "trial_index": 79}, "uniqueid": "MTK2545:32KTQ2V7REMJFCGWYZ5VN3SBEN8M96", "dateTime": 1519057911070}, {"current_trial": 80, "trialdata": {"rt": -1, "trial_type": "single-stim", "stimulus": "<p id=\"stim\">8</p>", "internal_node_id": "0.0-60.0-2.0", "time_elapsed": 462438, "key_press": -1, "trial_index": 80}, "uniqueid": "MTK2545:32KTQ2V7REMJFCGWYZ5VN3SBEN8M96", "dateTime": 1519057912071}, {"current_trial": 81, "trialdata": {"rt": -1, "trial_type": "single-stim", "stimulus": "<p id=\"stim\">7</p>", "internal_node_id": "0.0-60.0-3.0", "time_elapsed": 463440, "key_press": -1, "trial_index": 81}, "uniqueid": "MTK2545:32KTQ2V7REMJFCGWYZ5VN3SBEN8M96", "dateTime": 1519057913073}, {"current_trial": 82, "trialdata": {"rt": -1, "trial_type": "single-stim", "stimulus": "<p id=\"stim\">6</p>", "internal_node_id": "0.0-60.0-4.0", "time_elapsed": 464443, "key_press": -1, "trial_index": 82}, "uniqueid": "MTK2545:32KTQ2V7REMJFCGWYZ5VN3SBEN8M96", "dateTime": 1519057914076}, {"current_trial": 83, "trialdata": {"rt": -1, "trial_type": "single-stim", "stimulus": "<p id=\"stim\">5</p>", "internal_node_id": "0.0-60.0-5.0", "time_elapsed": 465444, "key_press": -1, "trial_index": 83}, "uniqueid": "MTK2545:32KTQ2V7REMJFCGWYZ5VN3SBEN8M96", "dateTime": 1519057915077}, {"current_trial": 84, "trialdata": {"rt": -1, "trial_type": "single-stim", "stimulus": "<p id=\"stim\">4</p>", "internal_node_id": "0.0-60.0-6.0", "time_elapsed": 466446, "key_press": -1, "trial_index": 84}, "uniqueid": "MTK2545:32KTQ2V7REMJFCGWYZ5VN3SBEN8M96", "dateTime": 1519057916079}, {"current_trial": 85, "trialdata": {"rt": -1, "trial_type": "single-stim", "stimulus": "<p id=\"stim\">3</p>", "internal_node_id": "0.0-60.0-7.0", "time_elapsed": 467448, "key_press": -1, "trial_index": 85}, "uniqueid": "MTK2545:32KTQ2V7REMJFCGWYZ5VN3SBEN8M96", "dateTime": 1519057917081}, {"current_trial": 86, "trialdata": {"rt": -1, "trial_type": "single-stim", "stimulus": "<p id=\"stim\">2</p>", "internal_node_id": "0.0-60.0-8.0", "time_elapsed": 468450, "key_press": -1, "trial_index": 86}, "uniqueid": "MTK2545:32KTQ2V7REMJFCGWYZ5VN3SBEN8M96", "dateTime": 1519057918083}, {"current_trial": 87, "trialdata": {"rt": -1, "trial_type": "single-stim", "stimulus": "<p id=\"stim\">1</p>", "internal_node_id": "0.0-60.0-9.0", "time_elapsed": 469451, "key_press": -1, "trial_index": 87}, "uniqueid": "MTK2545:32KTQ2V7REMJFCGWYZ5VN3SBEN8M96", "dateTime": 1519057919084}, {"current_trial": 88, "trialdata": {"rt": -1, "trial_type": "single-stim", "stimulus": "<p id=\"stim\">+</p>", "internal_node_id": "0.0-61.0-0.0", "time_elapsed": 470953, "key_press": -1, "type": "FIXATION", "trial_index": 88}, "uniqueid": "MTK2545:32KTQ2V7REMJFCGWYZ5VN3SBEN8M96", "dateTime": 1519057920586}, {"current_trial": 89, "trialdata": {"rt": -1, "trial_type": "single-stim", "word": "record", "stimulus": "<p id=\"stim\">RECORD</p>", "conditions": [12, 1600, "v", 12000], "internal_node_id": "0.0-62.0", "trial": 2, "time_elapsed": 472554, "serialpos": 0, "key_press": -1, "wordID": 1175, "type": "PRES_VIS", "trial_index": 89}, "uniqueid": "MTK2545:32KTQ2V7REMJFCGWYZ5VN3SBEN8M96", "dateTime": 1519057922187}, {"current_trial": 90, "trialdata": {"rt": -1, "trial_type": "single-stim", "word": "headband", "stimulus": "<p id=\"stim\">HEADBAND</p>", "conditions": [12, 1600, "v", 12000], "internal_node_id": "0.0-63.0", "trial": 2, "time_elapsed": 475210, "serialpos": 1, "key_press": -1, "wordID": 695, "type": "PRES_VIS", "trial_index": 90}, "uniqueid": "MTK2545:32KTQ2V7REMJFCGWYZ5VN3SBEN8M96", "dateTime": 1519057924843}, {"current_trial": 91, "trialdata": {"rt": -1, "trial_type": "single-stim", "word": "shirt", "stimulus": "<p id=\"stim\">SHIRT</p>", "conditions": [12, 1600, "v", 12000], "internal_node_id": "0.0-64.0", "trial": 2, "time_elapsed": 477874, "serialpos": 2, "key_press": -1, "wordID": 1286, "type": "PRES_VIS", "trial_index": 91}, "uniqueid": "MTK2545:32KTQ2V7REMJFCGWYZ5VN3SBEN8M96", "dateTime": 1519057927507}, {"current_trial": 92, "trialdata": {"rt": -1, "trial_type": "single-stim", "word": "daughter", "stimulus": "<p id=\"stim\">DAUGHTER</p>", "conditions": [12, 1600, "v", 12000], "internal_node_id": "0.0-65.0", "trial": 2, "time_elapsed": 480487, "serialpos": 3, "key_press": -1, "wordID": 441, "type": "PRES_VIS", "trial_index": 92}, "uniqueid": "MTK2545:32KTQ2V7REMJFCGWYZ5VN3SBEN8M96", "dateTime": 1519057930120}, {"current_trial": 93, "trialdata": {"rt": -1, "trial_type": "single-stim", "word": "hostess", "stimulus": "<p id=\"stim\">HOSTESS</p>", "conditions": [12, 1600, "v", 12000], "internal_node_id": "0.0-66.0", "trial": 2, "time_elapsed": 483245, "serialpos": 4, "key_press": -1, "wordID": 722, "type": "PRES_VIS", "trial_index": 93}, "uniqueid": "MTK2545:32KTQ2V7REMJFCGWYZ5VN3SBEN8M96", "dateTime": 1519057932878}, {"current_trial": 94, "trialdata": {"rt": -1, "trial_type": "single-stim", "word": "swimmer", "stimulus": "<p id=\"stim\">SWIMMER</p>", "conditions": [12, 1600, "v", 12000], "internal_node_id": "0.0-67.0", "trial": 2, "time_elapsed": 486044, "serialpos": 5, "key_press": -1, "wordID": 1419, "type": "PRES_VIS", "trial_index": 94}, "uniqueid": "MTK2545:32KTQ2V7REMJFCGWYZ5VN3SBEN8M96", "dateTime": 1519057935677}, {"current_trial": 95, "trialdata": {"rt": -1, "trial_type": "single-stim", "word": "mailbox", "stimulus": "<p id=\"stim\">MAILBOX</p>", "conditions": [12, 1600, "v", 12000], "internal_node_id": "0.0-68.0", "trial": 2, "time_elapsed": 488775, "serialpos": 6, "key_press": -1, "wordID": 856, "type": "PRES_VIS", "trial_index": 95}, "uniqueid": "MTK2545:32KTQ2V7REMJFCGWYZ5VN3SBEN8M96", "dateTime": 1519057938408}, {"current_trial": 96, "trialdata": {"rt": -1, "trial_type": "single-stim", "word": "puddle", "stimulus": "<p id=\"stim\">PUDDLE</p>", "conditions": [12, 1600, "v", 12000], "internal_node_id": "0.0-69.0", "trial": 2, "time_elapsed": 491407, "serialpos": 7, "key_press": -1, "wordID": 1139, "type": "PRES_VIS", "trial_index": 96}, "uniqueid": "MTK2545:32KTQ2V7REMJFCGWYZ5VN3SBEN8M96", "dateTime": 1519057941040}, {"current_trial": 97, "trialdata": {"rt": -1, "trial_type": "single-stim", "word": "woman", "stimulus": "<p id=\"stim\">WOMAN</p>", "conditions": [12, 1600, "v", 12000], "internal_node_id": "0.0-70.0", "trial": 2, "time_elapsed": 493911, "serialpos": 8, "key_press": -1, "wordID": 1619, "type": "PRES_VIS", "trial_index": 97}, "uniqueid": "MTK2545:32KTQ2V7REMJFCGWYZ5VN3SBEN8M96", "dateTime": 1519057943544}, {"current_trial": 98, "trialdata": {"rt": -1, "trial_type": "single-stim", "word": "turtle", "stimulus": "<p id=\"stim\">TURTLE</p>", "conditions": [12, 1600, "v", 12000], "internal_node_id": "0.0-71.0", "trial": 2, "time_elapsed": 496419, "serialpos": 9, "key_press": -1, "wordID": 1521, "type": "PRES_VIS", "trial_index": 98}, "uniqueid": "MTK2545:32KTQ2V7REMJFCGWYZ5VN3SBEN8M96", "dateTime": 1519057946052}, {"current_trial": 99, "trialdata": {"rt": -1, "trial_type": "single-stim", "word": "kidney", "stimulus": "<p id=\"stim\">KIDNEY</p>", "conditions": [12, 1600, "v", 12000], "internal_node_id": "0.0-72.0", "trial": 2, "time_elapsed": 498991, "serialpos": 10, "key_press": -1, "wordID": 775, "type": "PRES_VIS", "trial_index": 99}, "uniqueid": "MTK2545:32KTQ2V7REMJFCGWYZ5VN3SBEN8M96", "dateTime": 1519057948624}, {"current_trial": 100, "trialdata": {"rt": -1, "trial_type": "single-stim", "word": "stream", "stimulus": "<p id=\"stim\">STREAM</p>", "conditions": [12, 1600, "v", 12000], "internal_node_id": "0.0-73.0", "trial": 2, "time_elapsed": 501478, "serialpos": 11, "key_press": -1, "wordID": 1391, "type": "PRES_VIS", "trial_index": 100}, "uniqueid": "MTK2545:32KTQ2V7REMJFCGWYZ5VN3SBEN8M96", "dateTime": 1519057951111}, {"current_trial": 101, "trialdata": {"rt": -1, "trial_type": "single-stim", "stimulus": "", "internal_node_id": "0.0-74.0-0.0", "time_elapsed": 503897, "key_press": -1, "type": "PRE_RECALL_DELAY", "trial_index": 101}, "uniqueid": "MTK2545:32KTQ2V7REMJFCGWYZ5VN3SBEN8M96", "dateTime": 1519057953530}, {"current_trial": 102, "trialdata": {"rt": -1000, "trial_type": "single-audio", "stimulus": "/static/audio/400Hz.wav", "internal_node_id": "0.0-75.0", "time_elapsed": 504399, "key_press": -1, "type": "PRE_RECALL_ALERT", "trial_index": 102}, "uniqueid": "MTK2545:32KTQ2V7REMJFCGWYZ5VN3SBEN8M96", "dateTime": 1519057954032}, {"current_trial": 103, "trialdata": {"rt": [6909, 8668, 11485, 12957, 17725, 21885, 26109, 30718, 34717], "recwords": ["record", "woman", "daughter", "turtle", "puddle", "stream", "swimmer", "puddle", "shirt"], "key_times": [2430, 2510, 2733, 2829, 2973, 3166, 3485, 6909, 7789, 7854, 7982, 8189, 8429, 8668, 10495, 10573, 10735, 10861, 11005, 11102, 11278, 11357, 11485, 12269, 12381, 12445, 12621, 12718, 12798, 12957, 16798, 16943, 17102, 17229, 17454, 17613, 17725, 20766, 21086, 21293, 21373, 21502, 21667, 21885, 25182, 25357, 25469, 25661, 25837, 25981, 26013, 26109, 29662, 30045, 30206, 30365, 30446, 30637, 30718, 33711, 33821, 33934, 34029, 34206, 34717], "trial_type": "free-recall", "conditions": [12, 1600, "v", 12000], "internal_node_id": "0.0-76.0-0.0", "key_presses": [82, 69, 67, 79, 82, 68, 9, 13, 87, 79, 77, 65, 78, 13, 68, 65, 85, 71, 72, 84, 69, 82, 13, 84, 85, 82, 84, 76, 69, 13, 80, 85, 68, 68, 76, 69, 13, 83, 84, 82, 69, 65, 77, 13, 83, 87, 73, 77, 77, 69, 82, 13, 80, 85, 68, 68, 76, 69, 13, 83, 72, 73, 82, 84, 13], "trial": 2, "time_elapsed": 564402, "type": "FREE_RECALL", "trial_index": 103}, "uniqueid": "MTK2545:32KTQ2V7REMJFCGWYZ5VN3SBEN8M96", "dateTime": 1519058014037}, {"current_trial": 104, "trialdata": {"rt": 2216, "trial_type": "text", "internal_node_id": "0.0-77.0", "time_elapsed": 568622, "key_press": 13, "type": "INSTRUCTIONS", "trial_index": 104}, "uniqueid": "MTK2545:32KTQ2V7REMJFCGWYZ5VN3SBEN8M96", "dateTime": 1519058018255}, {"current_trial": 105, "trialdata": {"rt": [2445, 4413, 8221, 11277, 20111], "trial_type": "math-distractor", "key_times": [1917, 2445, 3903, 4413, 6398, 6574, 8221, 10590, 10815, 11277, 19455, 19678, 20111], "responses": ["6", "5", "12", "14", "25"], "num2": [3, 2, 1, 2, 8, 2], "num3": [1, 1, 5, 8, 8, 9], "conditions": [24, 1600, "v", 24000], "internal_node_id": "0.0-78.0", "key_presses": [102, 13, 101, 13, 97, 98, 13, 97, 100, 13, 98, 101, 13], "trial": 3, "time_elapsed": 594626, "type": "DISTRACTOR", "trial_index": 105, "num1": [2, 2, 6, 4, 9, 8]}, "uniqueid": "MTK2545:32KTQ2V7REMJFCGWYZ5VN3SBEN8M96", "dateTime": 1519058044260}, {"current_trial": 106, "trialdata": {"rt": -1, "trial_type": "single-stim", "stimulus": "<p id=\"stim\">10</p>", "internal_node_id": "0.0-79.0-0.0", "time_elapsed": 597630, "key_press": -1, "trial_index": 106}, "uniqueid": "MTK2545:32KTQ2V7REMJFCGWYZ5VN3SBEN8M96", "dateTime": 1519058047263}, {"current_trial": 107, "trialdata": {"rt": -1, "trial_type": "single-stim", "stimulus": "<p id=\"stim\">9</p>", "internal_node_id": "0.0-79.0-1.0", "time_elapsed": 598631, "key_press": -1, "trial_index": 107}, "uniqueid": "MTK2545:32KTQ2V7REMJFCGWYZ5VN3SBEN8M96", "dateTime": 1519058048264}, {"current_trial": 108, "trialdata": {"rt": -1, "trial_type": "single-stim", "stimulus": "<p id=\"stim\">8</p>", "internal_node_id": "0.0-79.0-2.0", "time_elapsed": 599632, "key_press": -1, "trial_index": 108}, "uniqueid": "MTK2545:32KTQ2V7REMJFCGWYZ5VN3SBEN8M96", "dateTime": 1519058049266}, {"current_trial": 109, "trialdata": {"rt": -1, "trial_type": "single-stim", "stimulus": "<p id=\"stim\">7</p>", "internal_node_id": "0.0-79.0-3.0", "time_elapsed": 600634, "key_press": -1, "trial_index": 109}, "uniqueid": "MTK2545:32KTQ2V7REMJFCGWYZ5VN3SBEN8M96", "dateTime": 1519058050267}, {"current_trial": 110, "trialdata": {"rt": -1, "trial_type": "single-stim", "stimulus": "<p id=\"stim\">6</p>", "internal_node_id": "0.0-79.0-4.0", "time_elapsed": 601636, "key_press": -1, "trial_index": 110}, "uniqueid": "MTK2545:32KTQ2V7REMJFCGWYZ5VN3SBEN8M96", "dateTime": 1519058051269}, {"current_trial": 111, "trialdata": {"rt": -1, "trial_type": "single-stim", "stimulus": "<p id=\"stim\">5</p>", "internal_node_id": "0.0-79.0-5.0", "time_elapsed": 602638, "key_press": -1, "trial_index": 111}, "uniqueid": "MTK2545:32KTQ2V7REMJFCGWYZ5VN3SBEN8M96", "dateTime": 1519058052271}, {"current_trial": 112, "trialdata": {"rt": -1, "trial_type": "single-stim", "stimulus": "<p id=\"stim\">4</p>", "internal_node_id": "0.0-79.0-6.0", "time_elapsed": 603639, "key_press": -1, "trial_index": 112}, "uniqueid": "MTK2545:32KTQ2V7REMJFCGWYZ5VN3SBEN8M96", "dateTime": 1519058053272}, {"current_trial": 113, "trialdata": {"rt": -1, "trial_type": "single-stim", "stimulus": "<p id=\"stim\">3</p>", "internal_node_id": "0.0-79.0-7.0", "time_elapsed": 604641, "key_press": -1, "trial_index": 113}, "uniqueid": "MTK2545:32KTQ2V7REMJFCGWYZ5VN3SBEN8M96", "dateTime": 1519058054274}, {"current_trial": 114, "trialdata": {"rt": -1, "trial_type": "single-stim", "stimulus": "<p id=\"stim\">2</p>", "internal_node_id": "0.0-79.0-8.0", "time_elapsed": 605644, "key_press": -1, "trial_index": 114}, "uniqueid": "MTK2545:32KTQ2V7REMJFCGWYZ5VN3SBEN8M96", "dateTime": 1519058055277}, {"current_trial": 115, "trialdata": {"rt": -1, "trial_type": "single-stim", "stimulus": "<p id=\"stim\">1</p>", "internal_node_id": "0.0-79.0-9.0", "time_elapsed": 606645, "key_press": -1, "trial_index": 115}, "uniqueid": "MTK2545:32KTQ2V7REMJFCGWYZ5VN3SBEN8M96", "dateTime": 1519058056279}, {"current_trial": 116, "trialdata": {"rt": -1, "trial_type": "single-stim", "stimulus": "<p id=\"stim\">+</p>", "internal_node_id": "0.0-80.0-0.0", "time_elapsed": 608147, "key_press": -1, "type": "FIXATION", "trial_index": 116}, "uniqueid": "MTK2545:32KTQ2V7REMJFCGWYZ5VN3SBEN8M96", "dateTime": 1519058057780}, {"current_trial": 117, "trialdata": {"rt": -1, "trial_type": "single-stim", "word": "freckle", "stimulus": "<p id=\"stim\">FRECKLE</p>", "conditions": [24, 1600, "v", 24000], "internal_node_id": "0.0-81.0", "trial": 3, "time_elapsed": 609748, "serialpos": 0, "key_press": -1, "wordID": 601, "type": "PRES_VIS", "trial_index": 117}, "uniqueid": "MTK2545:32KTQ2V7REMJFCGWYZ5VN3SBEN8M96", "dateTime": 1519058059381}, {"current_trial": 118, "trialdata": {"rt": -1, "trial_type": "single-stim", "word": "picnic", "stimulus": "<p id=\"stim\">PICNIC</p>", "conditions": [24, 1600, "v", 24000], "internal_node_id": "0.0-82.0", "trial": 3, "time_elapsed": 612466, "serialpos": 1, "key_press": -1, "wordID": 1059, "type": "PRES_VIS", "trial_index": 118}, "uniqueid": "MTK2545:32KTQ2V7REMJFCGWYZ5VN3SBEN8M96", "dateTime": 1519058062099}, {"current_trial": 119, "trialdata": {"rt": -1, "trial_type": "single-stim", "word": "costume", "stimulus": "<p id=\"stim\">COSTUME</p>", "conditions": [24, 1600, "v", 24000], "internal_node_id": "0.0-83.0", "trial": 3, "time_elapsed": 614953, "serialpos": 2, "key_press": -1, "wordID": 382, "type": "PRES_VIS", "trial_index": 119}, "uniqueid": "MTK2545:32KTQ2V7REMJFCGWYZ5VN3SBEN8M96", "dateTime": 1519058064586}, {"current_trial": 120, "trialdata": {"rt": -1, "trial_type": "single-stim", "word": "temple", "stimulus": "<p id=\"stim\">TEMPLE</p>", "conditions": [24, 1600, "v", 24000], "internal_node_id": "0.0-84.0", "trial": 3, "time_elapsed": 617574, "serialpos": 3, "key_press": -1, "wordID": 1447, "type": "PRES_VIS", "trial_index": 120}, "uniqueid": "MTK2545:32KTQ2V7REMJFCGWYZ5VN3SBEN8M96", "dateTime": 1519058067207}, {"current_trial": 121, "trialdata": {"rt": -1, "trial_type": "single-stim", "word": "valley", "stimulus": "<p id=\"stim\">VALLEY</p>", "conditions": [24, 1600, "v", 24000], "internal_node_id": "0.0-85.0", "trial": 3, "time_elapsed": 620344, "serialpos": 4, "key_press": -1, "wordID": 1544, "type": "PRES_VIS", "trial_index": 121}, "uniqueid": "MTK2545:32KTQ2V7REMJFCGWYZ5VN3SBEN8M96", "dateTime": 1519058069977}, {"current_trial": 122, "trialdata": {"rt": -1, "trial_type": "single-stim", "word": "forest", "stimulus": "<p id=\"stim\">FOREST</p>", "conditions": [24, 1600, "v", 24000], "internal_node_id": "0.0-86.0", "trial": 3, "time_elapsed": 623081, "serialpos": 5, "key_press": -1, "wordID": 592, "type": "PRES_VIS", "trial_index": 122}, "uniqueid": "MTK2545:32KTQ2V7REMJFCGWYZ5VN3SBEN8M96", "dateTime": 1519058072714}, {"current_trial": 123, "trialdata": {"rt": -1, "trial_type": "single-stim", "word": "stallion", "stimulus": "<p id=\"stim\">STALLION</p>", "conditions": [24, 1600, "v", 24000], "internal_node_id": "0.0-87.0", "trial": 3, "time_elapsed": 625647, "serialpos": 6, "key_press": -1, "wordID": 1368, "type": "PRES_VIS", "trial_index": 123}, "uniqueid": "MTK2545:32KTQ2V7REMJFCGWYZ5VN3SBEN8M96", "dateTime": 1519058075280}, {"current_trial": 124, "trialdata": {"rt": -1, "trial_type": "single-stim", "word": "blackboard", "stimulus": "<p id=\"stim\">BLACKBOARD</p>", "conditions": [24, 1600, "v", 24000], "internal_node_id": "0.0-88.0", "trial": 3, "time_elapsed": 628156, "serialpos": 7, "key_press": -1, "wordID": 132, "type": "PRES_VIS", "trial_index": 124}, "uniqueid": "MTK2545:32KTQ2V7REMJFCGWYZ5VN3SBEN8M96", "dateTime": 1519058077789}, {"current_trial": 125, "trialdata": {"rt": -1, "trial_type": "single-stim", "word": "supper", "stimulus": "<p id=\"stim\">SUPPER</p>", "conditions": [24, 1600, "v", 24000], "internal_node_id": "0.0-89.0", "trial": 3, "time_elapsed": 630940, "serialpos": 8, "key_press": -1, "wordID": 1410, "type": "PRES_VIS", "trial_index": 125}, "uniqueid": "MTK2545:32KTQ2V7REMJFCGWYZ5VN3SBEN8M96", "dateTime": 1519058080573}, {"current_trial": 126, "trialdata": {"rt": -1, "trial_type": "single-stim", "word": "notebook", "stimulus": "<p id=\"stim\">NOTEBOOK</p>", "conditions": [24, 1600, "v", 24000], "internal_node_id": "0.0-90.0", "trial": 3, "time_elapsed": 633726, "serialpos": 9, "key_press": -1, "wordID": 958, "type": "PRES_VIS", "trial_index": 126}, "uniqueid": "MTK2545:32KTQ2V7REMJFCGWYZ5VN3SBEN8M96", "dateTime": 1519058083359}, {"current_trial": 127, "trialdata": {"rt": -1, "trial_type": "single-stim", "word": "crater", "stimulus": "<p id=\"stim\">CRATER</p>", "conditions": [24, 1600, "v", 24000], "internal_node_id": "0.0-91.0", "trial": 3, "time_elapsed": 636229, "serialpos": 10, "key_press": -1, "wordID": 399, "type": "PRES_VIS", "trial_index": 127}, "uniqueid": "MTK2545:32KTQ2V7REMJFCGWYZ5VN3SBEN8M96", "dateTime": 1519058085862}, {"current_trial": 128, "trialdata": {"rt": -1, "trial_type": "single-stim", "word": "lava", "stimulus": "<p id=\"stim\">LAVA</p>", "conditions": [24, 1600, "v", 24000], "internal_node_id": "0.0-92.0", "trial": 3, "time_elapsed": 638790, "serialpos": 11, "key_press": -1, "wordID": 803, "type": "PRES_VIS", "trial_index": 128}, "uniqueid": "MTK2545:32KTQ2V7REMJFCGWYZ5VN3SBEN8M96", "dateTime": 1519058088423}, {"current_trial": 129, "trialdata": {"rt": -1, "trial_type": "single-stim", "word": "mailman", "stimulus": "<p id=\"stim\">MAILMAN</p>", "conditions": [24, 1600, "v", 24000], "internal_node_id": "0.0-93.0", "trial": 3, "time_elapsed": 641227, "serialpos": 12, "key_press": -1, "wordID": 857, "type": "PRES_VIS", "trial_index": 129}, "uniqueid": "MTK2545:32KTQ2V7REMJFCGWYZ5VN3SBEN8M96", "dateTime": 1519058090860}, {"current_trial": 130, "trialdata": {"rt": -1, "trial_type": "single-stim", "word": "possum", "stimulus": "<p id=\"stim\">POSSUM</p>", "conditions": [24, 1600, "v", 24000], "internal_node_id": "0.0-94.0", "trial": 3, "time_elapsed": 643902, "serialpos": 13, "key_press": -1, "wordID": 1111, "type": "PRES_VIS", "trial_index": 130}, "uniqueid": "MTK2545:32KTQ2V7REMJFCGWYZ5VN3SBEN8M96", "dateTime": 1519058093535}, {"current_trial": 131, "trialdata": {"rt": -1, "trial_type": "single-stim", "word": "penguin", "stimulus": "<p id=\"stim\">PENGUIN</p>", "conditions": [24, 1600, "v", 24000], "internal_node_id": "0.0-95.0", "trial": 3, "time_elapsed": 646474, "serialpos": 14, "key_press": -1, "wordID": 1043, "type": "PRES_VIS", "trial_index": 131}, "uniqueid": "MTK2545:32KTQ2V7REMJFCGWYZ5VN3SBEN8M96", "dateTime": 1519058096107}, {"current_trial": 132, "trialdata": {"rt": -1, "trial_type": "single-stim", "word": "mister", "stimulus": "<p id=\"stim\">MISTER</p>", "conditions": [24, 1600, "v", 24000], "internal_node_id": "0.0-96.0", "trial": 3, "time_elapsed": 649031, "serialpos": 15, "key_press": -1, "wordID": 900, "type": "PRES_VIS", "trial_index": 132}, "uniqueid": "MTK2545:32KTQ2V7REMJFCGWYZ5VN3SBEN8M96", "dateTime": 1519058098664}, {"current_trial": 133, "trialdata": {"rt": -1, "trial_type": "single-stim", "word": "atlas", "stimulus": "<p id=\"stim\">ATLAS</p>", "conditions": [24, 1600, "v", 24000], "internal_node_id": "0.0-97.0", "trial": 3, "time_elapsed": 651539, "serialpos": 16, "key_press": -1, "wordID": 52, "type": "PRES_VIS", "trial_index": 133}, "uniqueid": "MTK2545:32KTQ2V7REMJFCGWYZ5VN3SBEN8M96", "dateTime": 1519058101172}, {"current_trial": 134, "trialdata": {"rt": -1, "trial_type": "single-stim", "word": "salmon", "stimulus": "<p id=\"stim\">SALMON</p>", "conditions": [24, 1600, "v", 24000], "internal_node_id": "0.0-98.0", "trial": 3, "time_elapsed": 654235, "serialpos": 17, "key_press": -1, "wordID": 1226, "type": "PRES_VIS", "trial_index": 134}, "uniqueid": "MTK2545:32KTQ2V7REMJFCGWYZ5VN3SBEN8M96", "dateTime": 1519058103868}, {"current_trial": 135, "trialdata": {"rt": -1, "trial_type": "single-stim", "word": "bucket", "stimulus": "<p id=\"stim\">BUCKET</p>", "conditions": [24, 1600, "v", 24000], "internal_node_id": "0.0-99.0", "trial": 3, "time_elapsed": 656950, "serialpos": 18, "key_press": -1, "wordID": 183, "type": "PRES_VIS", "trial_index": 135}, "uniqueid": "MTK2545:32KTQ2V7REMJFCGWYZ5VN3SBEN8M96", "dateTime": 1519058106584}, {"current_trial": 136, "trialdata": {"rt": -1, "trial_type": "single-stim", "word": "mammal", "stimulus": "<p id=\"stim\">MAMMAL</p>", "conditions": [24, 1600, "v", 24000], "internal_node_id": "0.0-100.0", "trial": 3, "time_elapsed": 659684, "serialpos": 19, "key_press": -1, "wordID": 860, "type": "PRES_VIS", "trial_index": 136}, "uniqueid": "MTK2545:32KTQ2V7REMJFCGWYZ5VN3SBEN8M96", "dateTime": 1519058109317}, {"current_trial": 137, "trialdata": {"rt": -1, "trial_type": "single-stim", "word": "honey", "stimulus": "<p id=\"stim\">HONEY</p>", "conditions": [24, 1600, "v", 24000], "internal_node_id": "0.0-101.0", "trial": 3, "time_elapsed": 662231, "serialpos": 20, "key_press": -1, "wordID": 712, "type": "PRES_VIS", "trial_index": 137}, "uniqueid": "MTK2545:32KTQ2V7REMJFCGWYZ5VN3SBEN8M96", "dateTime": 1519058111864}, {"current_trial": 138, "trialdata": {"rt": -1, "trial_type": "single-stim", "word": "milk", "stimulus": "<p id=\"stim\">MILK</p>", "conditions": [24, 1600, "v", 24000], "internal_node_id": "0.0-102.0", "trial": 3, "time_elapsed": 664669, "serialpos": 21, "key_press": -1, "wordID": 894, "type": "PRES_VIS", "trial_index": 138}, "uniqueid": "MTK2545:32KTQ2V7REMJFCGWYZ5VN3SBEN8M96", "dateTime": 1519058114302}, {"current_trial": 139, "trialdata": {"rt": -1, "trial_type": "single-stim", "word": "tutu", "stimulus": "<p id=\"stim\">TUTU</p>", "conditions": [24, 1600, "v", 24000], "internal_node_id": "0.0-103.0", "trial": 3, "time_elapsed": 667135, "serialpos": 22, "key_press": -1, "wordID": 1523, "type": "PRES_VIS", "trial_index": 139}, "uniqueid": "MTK2545:32KTQ2V7REMJFCGWYZ5VN3SBEN8M96", "dateTime": 1519058116768}, {"current_trial": 140, "trialdata": {"rt": -1, "trial_type": "single-stim", "word": "shorts", "stimulus": "<p id=\"stim\">SHORTS</p>", "conditions": [24, 1600, "v", 24000], "internal_node_id": "0.0-104.0", "trial": 3, "time_elapsed": 669678, "serialpos": 23, "key_press": -1, "wordID": 1292, "type": "PRES_VIS", "trial_index": 140}, "uniqueid": "MTK2545:32KTQ2V7REMJFCGWYZ5VN3SBEN8M96", "dateTime": 1519058119311}, {"current_trial": 141, "trialdata": {"rt": -1, "trial_type": "single-stim", "stimulus": "", "internal_node_id": "0.0-105.0-0.0", "time_elapsed": 672028, "key_press": -1, "type": "PRE_RECALL_DELAY", "trial_index": 141}, "uniqueid": "MTK2545:32KTQ2V7REMJFCGWYZ5VN3SBEN8M96", "dateTime": 1519058121661}, {"current_trial": 142, "trialdata": {"rt": -1000, "trial_type": "single-audio", "stimulus": "/static/audio/400Hz.wav", "internal_node_id": "0.0-106.0", "time_elapsed": 672530, "key_press": -1, "type": "PRE_RECALL_ALERT", "trial_index": 142}, "uniqueid": "MTK2545:32KTQ2V7REMJFCGWYZ5VN3SBEN8M96", "dateTime": 1519058122163}, {"current_trial": 143, "trialdata": {"rt": [5929, 7850, 8778, 11690, 14970, 21674, 23210, 25210, 31786, 44171, 49754], "recwords": ["penguin", "possum", "shorts", "blackboard", "stallion", "valley", "lava", "crater", "costume", "mammal", "freckle"], "key_times": [4442, 4602, 4715, 4843, 4986, 5162, 5369, 5929, 6858, 7018, 7226, 7370, 7435, 7658, 7850, 8090, 8235, 8315, 8426, 8586, 8715, 8778, 10491, 10587, 10682, 10796, 10890, 11114, 11244, 11354, 11434, 11642, 11690, 13499, 13630, 13706, 13851, 14122, 14154, 14314, 14442, 14970, 19946, 20059, 20171, 20602, 20779, 20954, 21674, 22379, 22490, 22602, 22730, 23210, 24347, 24570, 24683, 24812, 25004, 25066, 25210, 30682, 30826, 30971, 31098, 31212, 31482, 31642, 31786, 43354, 43482, 43615, 43770, 43867, 43962, 44171, 46634, 47146, 47323, 47834, 48267, 48331, 48570, 48747, 48955, 49754], "trial_type": "free-recall", "conditions": [24, 1600, "v", 24000], "internal_node_id": "0.0-107.0-0.0", "key_presses": [80, 69, 78, 71, 85, 73, 78, 13, 80, 79, 83, 83, 85, 77, 13, 83, 72, 79, 82, 84, 83, 13, 66, 76, 65, 67, 75, 66, 79, 65, 82, 68, 13, 83, 84, 65, 76, 76, 73, 79, 78, 13, 86, 65, 76, 76, 69, 89, 13, 76, 65, 86, 65, 13, 67, 82, 65, 84, 69, 82, 13, 67, 79, 83, 84, 85, 77, 69, 13, 77, 65, 77, 77, 65, 76, 13, 70, 82, 69, 75, 8, 67, 75, 76, 69, 13], "trial": 3, "time_elapsed": 732534, "type": "FREE_RECALL", "trial_index": 143}, "uniqueid": "MTK2545:32KTQ2V7REMJFCGWYZ5VN3SBEN8M96", "dateTime": 1519058182170}, {"current_trial": 144, "trialdata": {"rt": 6100, "trial_type": "text", "internal_node_id": "0.0-108.0", "time_elapsed": 740638, "key_press": 13, "type": "INSTRUCTIONS", "trial_index": 144}, "uniqueid": "MTK2545:32KTQ2V7REMJFCGWYZ5VN3SBEN8M96", "dateTime": 1519058190271}, {"current_trial": 145, "trialdata": {"rt": [3790, 8750], "trial_type": "math-distractor", "key_times": [2815, 2990, 3790, 7759, 8270, 8750, 11630, 11838], "responses": ["11", "16"], "num2": [8, 4, 3], "num3": [1, 5, 6], "conditions": [12, 800, "v", 12000], "internal_node_id": "0.0-109.0", "key_presses": [97, 97, 13, 97, 102, 13, 97, 101], "trial": 4, "time_elapsed": 754642, "type": "DISTRACTOR", "trial_index": 145, "num1": [2, 7, 6]}, "uniqueid": "MTK2545:32KTQ2V7REMJFCGWYZ5VN3SBEN8M96", "dateTime": 1519058204275}, {"current_trial": 146, "trialdata": {"rt": -1, "trial_type": "single-stim", "stimulus": "<p id=\"stim\">10</p>", "internal_node_id": "0.0-110.0-0.0", "time_elapsed": 757644, "key_press": -1, "trial_index": 146}, "uniqueid": "MTK2545:32KTQ2V7REMJFCGWYZ5VN3SBEN8M96", "dateTime": 1519058207277}, {"current_trial": 147, "trialdata": {"rt": -1, "trial_type": "single-stim", "stimulus": "<p id=\"stim\">9</p>", "internal_node_id": "0.0-110.0-1.0", "time_elapsed": 758647, "key_press": -1, "trial_index": 147}, "uniqueid": "MTK2545:32KTQ2V7REMJFCGWYZ5VN3SBEN8M96", "dateTime": 1519058208280}, {"current_trial": 148, "trialdata": {"rt": -1, "trial_type": "single-stim", "stimulus": "<p id=\"stim\">8</p>", "internal_node_id": "0.0-110.0-2.0", "time_elapsed": 759648, "key_press": -1, "trial_index": 148}, "uniqueid": "MTK2545:32KTQ2V7REMJFCGWYZ5VN3SBEN8M96", "dateTime": 1519058209281}, {"current_trial": 149, "trialdata": {"rt": -1, "trial_type": "single-stim", "stimulus": "<p id=\"stim\">7</p>", "internal_node_id": "0.0-110.0-3.0", "time_elapsed": 760650, "key_press": -1, "trial_index": 149}, "uniqueid": "MTK2545:32KTQ2V7REMJFCGWYZ5VN3SBEN8M96", "dateTime": 1519058210283}, {"current_trial": 150, "trialdata": {"rt": -1, "trial_type": "single-stim", "stimulus": "<p id=\"stim\">6</p>", "internal_node_id": "0.0-110.0-4.0", "time_elapsed": 761652, "key_press": -1, "trial_index": 150}, "uniqueid": "MTK2545:32KTQ2V7REMJFCGWYZ5VN3SBEN8M96", "dateTime": 1519058211285}, {"current_trial": 151, "trialdata": {"rt": -1, "trial_type": "single-stim", "stimulus": "<p id=\"stim\">5</p>", "internal_node_id": "0.0-110.0-5.0", "time_elapsed": 762654, "key_press": -1, "trial_index": 151}, "uniqueid": "MTK2545:32KTQ2V7REMJFCGWYZ5VN3SBEN8M96", "dateTime": 1519058212287}, {"current_trial": 152, "trialdata": {"rt": -1, "trial_type": "single-stim", "stimulus": "<p id=\"stim\">4</p>", "internal_node_id": "0.0-110.0-6.0", "time_elapsed": 763657, "key_press": -1, "trial_index": 152}, "uniqueid": "MTK2545:32KTQ2V7REMJFCGWYZ5VN3SBEN8M96", "dateTime": 1519058213290}, {"current_trial": 153, "trialdata": {"rt": -1, "trial_type": "single-stim", "stimulus": "<p id=\"stim\">3</p>", "internal_node_id": "0.0-110.0-7.0", "time_elapsed": 764658, "key_press": -1, "trial_index": 153}, "uniqueid": "MTK2545:32KTQ2V7REMJFCGWYZ5VN3SBEN8M96", "dateTime": 1519058214291}, {"current_trial": 154, "trialdata": {"rt": -1, "trial_type": "single-stim", "stimulus": "<p id=\"stim\">2</p>", "internal_node_id": "0.0-110.0-8.0", "time_elapsed": 765659, "key_press": -1, "trial_index": 154}, "uniqueid": "MTK2545:32KTQ2V7REMJFCGWYZ5VN3SBEN8M96", "dateTime": 1519058215292}, {"current_trial": 155, "trialdata": {"rt": -1, "trial_type": "single-stim", "stimulus": "<p id=\"stim\">1</p>", "internal_node_id": "0.0-110.0-9.0", "time_elapsed": 766661, "key_press": -1, "trial_index": 155}, "uniqueid": "MTK2545:32KTQ2V7REMJFCGWYZ5VN3SBEN8M96", "dateTime": 1519058216294}, {"current_trial": 156, "trialdata": {"rt": -1, "trial_type": "single-stim", "stimulus": "<p id=\"stim\">+</p>", "internal_node_id": "0.0-111.0-0.0", "time_elapsed": 768163, "key_press": -1, "type": "FIXATION", "trial_index": 156}, "uniqueid": "MTK2545:32KTQ2V7REMJFCGWYZ5VN3SBEN8M96", "dateTime": 1519058217796}, {"current_trial": 157, "trialdata": {"rt": -1, "trial_type": "single-stim", "word": "brook", "stimulus": "<p id=\"stim\">BROOK</p>", "conditions": [12, 800, "v", 12000], "internal_node_id": "0.0-112.0", "trial": 4, "time_elapsed": 768965, "serialpos": 0, "key_press": -1, "wordID": 176, "type": "PRES_VIS", "trial_index": 157}, "uniqueid": "MTK2545:32KTQ2V7REMJFCGWYZ5VN3SBEN8M96", "dateTime": 1519058218599}, {"current_trial": 158, "trialdata": {"rt": -1, "trial_type": "single-stim", "word": "cook", "stimulus": "<p id=\"stim\">COOK</p>", "conditions": [12, 800, "v", 12000], "internal_node_id": "0.0-113.0", "trial": 4, "time_elapsed": 770962, "serialpos": 1, "key_press": -1, "wordID": 371, "type": "PRES_VIS", "trial_index": 158}, "uniqueid": "MTK2545:32KTQ2V7REMJFCGWYZ5VN3SBEN8M96", "dateTime": 1519058220595}, {"current_trial": 159, "trialdata": {"rt": -1, "trial_type": "single-stim", "word": "clam", "stimulus": "<p id=\"stim\">CLAM</p>", "conditions": [12, 800, "v", 12000], "internal_node_id": "0.0-114.0", "trial": 4, "time_elapsed": 772905, "serialpos": 2, "key_press": -1, "wordID": 314, "type": "PRES_VIS", "trial_index": 159}, "uniqueid": "MTK2545:32KTQ2V7REMJFCGWYZ5VN3SBEN8M96", "dateTime": 1519058222539}, {"current_trial": 160, "trialdata": {"rt": -1, "trial_type": "single-stim", "word": "river", "stimulus": "<p id=\"stim\">RIVER</p>", "conditions": [12, 800, "v", 12000], "internal_node_id": "0.0-115.0", "trial": 4, "time_elapsed": 774831, "serialpos": 3, "key_press": -1, "wordID": 1193, "type": "PRES_VIS", "trial_index": 160}, "uniqueid": "MTK2545:32KTQ2V7REMJFCGWYZ5VN3SBEN8M96", "dateTime": 1519058224464}, {"current_trial": 161, "trialdata": {"rt": -1, "trial_type": "single-stim", "word": "bouquet", "stimulus": "<p id=\"stim\">BOUQUET</p>", "conditions": [12, 800, "v", 12000], "internal_node_id": "0.0-116.0", "trial": 4, "time_elapsed": 776632, "serialpos": 4, "key_press": -1, "wordID": 156, "type": "PRES_VIS", "trial_index": 161}, "uniqueid": "MTK2545:32KTQ2V7REMJFCGWYZ5VN3SBEN8M96", "dateTime": 1519058226265}, {"current_trial": 162, "trialdata": {"rt": -1, "trial_type": "single-stim", "word": "judge", "stimulus": "<p id=\"stim\">JUDGE</p>", "conditions": [12, 800, "v", 12000], "internal_node_id": "0.0-117.0", "trial": 4, "time_elapsed": 778369, "serialpos": 5, "key_press": -1, "wordID": 760, "type": "PRES_VIS", "trial_index": 162}, "uniqueid": "MTK2545:32KTQ2V7REMJFCGWYZ5VN3SBEN8M96", "dateTime": 1519058228003}, {"current_trial": 163, "trialdata": {"rt": -1, "trial_type": "single-stim", "word": "fruit", "stimulus": "<p id=\"stim\">FRUIT</p>", "conditions": [12, 800, "v", 12000], "internal_node_id": "0.0-118.0", "trial": 4, "time_elapsed": 780006, "serialpos": 6, "key_press": -1, "wordID": 609, "type": "PRES_VIS", "trial_index": 163}, "uniqueid": "MTK2545:32KTQ2V7REMJFCGWYZ5VN3SBEN8M96", "dateTime": 1519058229639}, {"current_trial": 164, "trialdata": {"rt": -1, "trial_type": "single-stim", "word": "apple", "stimulus": "<p id=\"stim\">APPLE</p>", "conditions": [12, 800, "v", 12000], "internal_node_id": "0.0-119.0", "trial": 4, "time_elapsed": 781754, "serialpos": 7, "key_press": -1, "wordID": 32, "type": "PRES_VIS", "trial_index": 164}, "uniqueid": "MTK2545:32KTQ2V7REMJFCGWYZ5VN3SBEN8M96", "dateTime": 1519058231387}, {"current_trial": 165, "trialdata": {"rt": -1, "trial_type": "single-stim", "word": "camel", "stimulus": "<p id=\"stim\">CAMEL</p>", "conditions": [12, 800, "v", 12000], "internal_node_id": "0.0-120.0", "trial": 4, "time_elapsed": 783660, "serialpos": 8, "key_press": -1, "wordID": 222, "type": "PRES_VIS", "trial_index": 165}, "uniqueid": "MTK2545:32KTQ2V7REMJFCGWYZ5VN3SBEN8M96", "dateTime": 1519058233293}, {"current_trial": 166, "trialdata": {"rt": -1, "trial_type": "single-stim", "word": "chipmunk", "stimulus": "<p id=\"stim\">CHIPMUNK</p>", "conditions": [12, 800, "v", 12000], "internal_node_id": "0.0-121.0", "trial": 4, "time_elapsed": 785553, "serialpos": 9, "key_press": -1, "wordID": 303, "type": "PRES_VIS", "trial_index": 166}, "uniqueid": "MTK2545:32KTQ2V7REMJFCGWYZ5VN3SBEN8M96", "dateTime": 1519058235187}, {"current_trial": 167, "trialdata": {"rt": -1, "trial_type": "single-stim", "word": "swamp", "stimulus": "<p id=\"stim\">SWAMP</p>", "conditions": [12, 800, "v", 12000], "internal_node_id": "0.0-122.0", "trial": 4, "time_elapsed": 787352, "serialpos": 10, "key_press": -1, "wordID": 1415, "type": "PRES_VIS", "trial_index": 167}, "uniqueid": "MTK2545:32KTQ2V7REMJFCGWYZ5VN3SBEN8M96", "dateTime": 1519058236985}, {"current_trial": 168, "trialdata": {"rt": -1, "trial_type": "single-stim", "word": "creature", "stimulus": "<p id=\"stim\">CREATURE</p>", "conditions": [12, 800, "v", 12000], "internal_node_id": "0.0-123.0", "trial": 4, "time_elapsed": 789213, "serialpos": 11, "key_press": -1, "wordID": 402, "type": "PRES_VIS", "trial_index": 168}, "uniqueid": "MTK2545:32KTQ2V7REMJFCGWYZ5VN3SBEN8M96", "dateTime": 1519058238846}, {"current_trial": 169, "trialdata": {"rt": -1, "trial_type": "single-stim", "stimulus": "", "internal_node_id": "0.0-124.0-0.0", "time_elapsed": 791254, "key_press": -1, "type": "PRE_RECALL_DELAY", "trial_index": 169}, "uniqueid": "MTK2545:32KTQ2V7REMJFCGWYZ5VN3SBEN8M96", "dateTime": 1519058240887}, {"current_trial": 170, "trialdata": {"rt": -1000, "trial_type": "single-audio", "stimulus": "/static/audio/400Hz.wav", "internal_node_id": "0.0-125.0", "time_elapsed": 791755, "key_press": -1, "type": "PRE_RECALL_ALERT", "trial_index": 170}, "uniqueid": "MTK2545:32KTQ2V7REMJFCGWYZ5VN3SBEN8M96", "dateTime": 1519058241390}, {"current_trial": 171, "trialdata": {"rt": [5136, 6496, 9808, 15712, 17696, 18624, 22640, 24352, 27168, 38960, 55600], "recwords": ["brook", "cook", "clam", "judge", "apple", "fruit", "chipmunk", "camel", "swamp", "river", "creature"], "key_times": [3602, 3904, 4608, 4768, 4945, 5136, 5649, 5761, 5904, 6064, 6496, 9056, 9360, 9504, 9585, 9808, 14881, 15056, 15200, 15456, 15571, 15712, 16848, 17104, 17264, 17440, 17568, 17696, 17904, 18080, 18193, 18320, 18451, 18624, 20225, 20704, 20865, 21456, 21776, 22003, 22224, 22385, 22640, 23440, 23585, 23824, 24017, 24113, 24352, 26049, 26257, 26448, 26560, 26785, 27168, 36080, 36337, 36480, 36592, 37248, 37424, 37602, 37745, 38402, 38544, 38640, 38817, 38864, 38960, 53921, 54481, 54561, 54720, 54896, 55120, 55233, 55328, 55600], "trial_type": "free-recall", "conditions": [12, 800, "v", 12000], "internal_node_id": "0.0-126.0-0.0", "key_presses": [66, 82, 79, 79, 75, 13, 67, 79, 79, 75, 13, 67, 76, 65, 77, 13, 74, 85, 68, 71, 69, 13, 65, 80, 80, 76, 69, 13, 70, 82, 85, 73, 84, 13, 67, 72, 73, 80, 77, 85, 78, 75, 13, 67, 65, 77, 69, 76, 13, 83, 87, 65, 77, 80, 13, 67, 76, 65, 77, 8, 8, 8, 8, 82, 73, 86, 69, 82, 13, 67, 82, 69, 65, 84, 85, 82, 69, 13], "trial": 4, "time_elapsed": 851760, "type": "FREE_RECALL", "trial_index": 171}, "uniqueid": "MTK2545:32KTQ2V7REMJFCGWYZ5VN3SBEN8M96", "dateTime": 1519058301397}, {"current_trial": 172, "trialdata": {"rt": 2041, "trial_type": "text", "internal_node_id": "0.0-127.0", "time_elapsed": 855806, "key_press": 13, "type": "INSTRUCTIONS", "trial_index": 172}, "uniqueid": "MTK2545:32KTQ2V7REMJFCGWYZ5VN3SBEN8M96", "dateTime": 1519058305439}, {"current_trial": 173, "trialdata": {"rt": [6542, 10878], "trial_type": "math-distractor", "key_times": [5758, 6079, 6542, 10111, 10270, 10878], "responses": ["26", "22"], "num2": [7, 5, 8], "num3": [8, 9, 5], "conditions": [12, 800, "v", 12000], "internal_node_id": "0.0-128.0", "key_presses": [98, 102, 13, 98, 98, 13], "trial": 5, "time_elapsed": 869809, "type": "DISTRACTOR", "trial_index": 173, "num1": [9, 8, 2]}, "uniqueid": "MTK2545:32KTQ2V7REMJFCGWYZ5VN3SBEN8M96", "dateTime": 1519058319442}, {"current_trial": 174, "trialdata": {"rt": -1, "trial_type": "single-stim", "stimulus": "<p id=\"stim\">10</p>", "internal_node_id": "0.0-129.0-0.0", "time_elapsed": 872812, "key_press": -1, "trial_index": 174}, "uniqueid": "MTK2545:32KTQ2V7REMJFCGWYZ5VN3SBEN8M96", "dateTime": 1519058322445}, {"current_trial": 175, "trialdata": {"rt": -1, "trial_type": "single-stim", "stimulus": "<p id=\"stim\">9</p>", "internal_node_id": "0.0-129.0-1.0", "time_elapsed": 873814, "key_press": -1, "trial_index": 175}, "uniqueid": "MTK2545:32KTQ2V7REMJFCGWYZ5VN3SBEN8M96", "dateTime": 1519058323447}, {"current_trial": 176, "trialdata": {"rt": -1, "trial_type": "single-stim", "stimulus": "<p id=\"stim\">8</p>", "internal_node_id": "0.0-129.0-2.0", "time_elapsed": 874816, "key_press": -1, "trial_index": 176}, "uniqueid": "MTK2545:32KTQ2V7REMJFCGWYZ5VN3SBEN8M96", "dateTime": 1519058324449}, {"current_trial": 177, "trialdata": {"rt": -1, "trial_type": "single-stim", "stimulus": "<p id=\"stim\">7</p>", "internal_node_id": "0.0-129.0-3.0", "time_elapsed": 875817, "key_press": -1, "trial_index": 177}, "uniqueid": "MTK2545:32KTQ2V7REMJFCGWYZ5VN3SBEN8M96", "dateTime": 1519058325450}, {"current_trial": 178, "trialdata": {"rt": -1, "trial_type": "single-stim", "stimulus": "<p id=\"stim\">6</p>", "internal_node_id": "0.0-129.0-4.0", "time_elapsed": 876819, "key_press": -1, "trial_index": 178}, "uniqueid": "MTK2545:32KTQ2V7REMJFCGWYZ5VN3SBEN8M96", "dateTime": 1519058326452}, {"current_trial": 179, "trialdata": {"rt": -1, "trial_type": "single-stim", "stimulus": "<p id=\"stim\">5</p>", "internal_node_id": "0.0-129.0-5.0", "time_elapsed": 877820, "key_press": -1, "trial_index": 179}, "uniqueid": "MTK2545:32KTQ2V7REMJFCGWYZ5VN3SBEN8M96", "dateTime": 1519058327453}, {"current_trial": 180, "trialdata": {"rt": -1, "trial_type": "single-stim", "stimulus": "<p id=\"stim\">4</p>", "internal_node_id": "0.0-129.0-6.0", "time_elapsed": 878821, "key_press": -1, "trial_index": 180}, "uniqueid": "MTK2545:32KTQ2V7REMJFCGWYZ5VN3SBEN8M96", "dateTime": 1519058328454}, {"current_trial": 181, "trialdata": {"rt": -1, "trial_type": "single-stim", "stimulus": "<p id=\"stim\">3</p>", "internal_node_id": "0.0-129.0-7.0", "time_elapsed": 879822, "key_press": -1, "trial_index": 181}, "uniqueid": "MTK2545:32KTQ2V7REMJFCGWYZ5VN3SBEN8M96", "dateTime": 1519058329455}, {"current_trial": 182, "trialdata": {"rt": -1, "trial_type": "single-stim", "stimulus": "<p id=\"stim\">2</p>", "internal_node_id": "0.0-129.0-8.0", "time_elapsed": 880824, "key_press": -1, "trial_index": 182}, "uniqueid": "MTK2545:32KTQ2V7REMJFCGWYZ5VN3SBEN8M96", "dateTime": 1519058330457}, {"current_trial": 183, "trialdata": {"rt": -1, "trial_type": "single-stim", "stimulus": "<p id=\"stim\">1</p>", "internal_node_id": "0.0-129.0-9.0", "time_elapsed": 881826, "key_press": -1, "trial_index": 183}, "uniqueid": "MTK2545:32KTQ2V7REMJFCGWYZ5VN3SBEN8M96", "dateTime": 1519058331459}, {"current_trial": 184, "trialdata": {"rt": -1, "trial_type": "single-stim", "stimulus": "<p id=\"stim\">+</p>", "internal_node_id": "0.0-130.0-0.0", "time_elapsed": 883328, "key_press": -1, "type": "FIXATION", "trial_index": 184}, "uniqueid": "MTK2545:32KTQ2V7REMJFCGWYZ5VN3SBEN8M96", "dateTime": 1519058332961}, {"current_trial": 185, "trialdata": {"rt": -1, "trial_type": "single-stim", "word": "kitchen", "stimulus": "<p id=\"stim\">KITCHEN</p>", "conditions": [12, 800, "v", 12000], "internal_node_id": "0.0-131.0", "trial": 5, "time_elapsed": 884130, "serialpos": 0, "key_press": -1, "wordID": 777, "type": "PRES_VIS", "trial_index": 185}, "uniqueid": "MTK2545:32KTQ2V7REMJFCGWYZ5VN3SBEN8M96", "dateTime": 1519058333763}, {"current_trial": 186, "trialdata": {"rt": -1, "trial_type": "single-stim", "word": "sheriff", "stimulus": "<p id=\"stim\">SHERIFF</p>", "conditions": [12, 800, "v", 12000], "internal_node_id": "0.0-132.0", "trial": 5, "time_elapsed": 885911, "serialpos": 1, "key_press": -1, "wordID": 1283, "type": "PRES_VIS", "trial_index": 186}, "uniqueid": "MTK2545:32KTQ2V7REMJFCGWYZ5VN3SBEN8M96", "dateTime": 1519058335544}, {"current_trial": 187, "trialdata": {"rt": -1, "trial_type": "single-stim", "word": "dresser", "stimulus": "<p id=\"stim\">DRESSER</p>", "conditions": [12, 800, "v", 12000], "internal_node_id": "0.0-133.0", "trial": 5, "time_elapsed": 887740, "serialpos": 2, "key_press": -1, "wordID": 495, "type": "PRES_VIS", "trial_index": 187}, "uniqueid": "MTK2545:32KTQ2V7REMJFCGWYZ5VN3SBEN8M96", "dateTime": 1519058337373}, {"current_trial": 188, "trialdata": {"rt": -1, "trial_type": "single-stim", "word": "marrow", "stimulus": "<p id=\"stim\">MARROW</p>", "conditions": [12, 800, "v", 12000], "internal_node_id": "0.0-134.0", "trial": 5, "time_elapsed": 889702, "serialpos": 3, "key_press": -1, "wordID": 871, "type": "PRES_VIS", "trial_index": 188}, "uniqueid": "MTK2545:32KTQ2V7REMJFCGWYZ5VN3SBEN8M96", "dateTime": 1519058339335}, {"current_trial": 189, "trialdata": {"rt": -1, "trial_type": "single-stim", "word": "elbow", "stimulus": "<p id=\"stim\">ELBOW</p>", "conditions": [12, 800, "v", 12000], "internal_node_id": "0.0-135.0", "trial": 5, "time_elapsed": 891400, "serialpos": 4, "key_press": -1, "wordID": 519, "type": "PRES_VIS", "trial_index": 189}, "uniqueid": "MTK2545:32KTQ2V7REMJFCGWYZ5VN3SBEN8M96", "dateTime": 1519058341033}, {"current_trial": 190, "trialdata": {"rt": -1, "trial_type": "single-stim", "word": "cupboard", "stimulus": "<p id=\"stim\">CUPBOARD</p>", "conditions": [12, 800, "v", 12000], "internal_node_id": "0.0-136.0", "trial": 5, "time_elapsed": 893345, "serialpos": 5, "key_press": -1, "wordID": 424, "type": "PRES_VIS", "trial_index": 190}, "uniqueid": "MTK2545:32KTQ2V7REMJFCGWYZ5VN3SBEN8M96", "dateTime": 1519058342979}, {"current_trial": 191, "trialdata": {"rt": -1, "trial_type": "single-stim", "word": "hiker", "stimulus": "<p id=\"stim\">HIKER</p>", "conditions": [12, 800, "v", 12000], "internal_node_id": "0.0-137.0", "trial": 5, "time_elapsed": 895276, "serialpos": 6, "key_press": -1, "wordID": 707, "type": "PRES_VIS", "trial_index": 191}, "uniqueid": "MTK2545:32KTQ2V7REMJFCGWYZ5VN3SBEN8M96", "dateTime": 1519058344909}, {"current_trial": 192, "trialdata": {"rt": -1, "trial_type": "single-stim", "word": "pastry", "stimulus": "<p id=\"stim\">PASTRY</p>", "conditions": [12, 800, "v", 12000], "internal_node_id": "0.0-138.0", "trial": 5, "time_elapsed": 896884, "serialpos": 7, "key_press": -1, "wordID": 1021, "type": "PRES_VIS", "trial_index": 192}, "uniqueid": "MTK2545:32KTQ2V7REMJFCGWYZ5VN3SBEN8M96", "dateTime": 1519058346517}, {"current_trial": 193, "trialdata": {"rt": -1, "trial_type": "single-stim", "word": "driver", "stimulus": "<p id=\"stim\">DRIVER</p>", "conditions": [12, 800, "v", 12000], "internal_node_id": "0.0-139.0", "trial": 5, "time_elapsed": 898731, "serialpos": 8, "key_press": -1, "wordID": 498, "type": "PRES_VIS", "trial_index": 193}, "uniqueid": "MTK2545:32KTQ2V7REMJFCGWYZ5VN3SBEN8M96", "dateTime": 1519058348364}, {"current_trial": 194, "trialdata": {"rt": -1, "trial_type": "single-stim", "word": "patient", "stimulus": "<p id=\"stim\">PATIENT</p>", "conditions": [12, 800, "v", 12000], "internal_node_id": "0.0-140.0", "trial": 5, "time_elapsed": 900351, "serialpos": 9, "key_press": -1, "wordID": 1023, "type": "PRES_VIS", "trial_index": 194}, "uniqueid": "MTK2545:32KTQ2V7REMJFCGWYZ5VN3SBEN8M96", "dateTime": 1519058349984}, {"current_trial": 195, "trialdata": {"rt": -1, "trial_type": "single-stim", "word": "turkey", "stimulus": "<p id=\"stim\">TURKEY</p>", "conditions": [12, 800, "v", 12000], "internal_node_id": "0.0-141.0", "trial": 5, "time_elapsed": 902092, "serialpos": 10, "key_press": -1, "wordID": 1519, "type": "PRES_VIS", "trial_index": 195}, "uniqueid": "MTK2545:32KTQ2V7REMJFCGWYZ5VN3SBEN8M96", "dateTime": 1519058351725}, {"current_trial": 196, "trialdata": {"rt": -1, "trial_type": "single-stim", "word": "bacon", "stimulus": "<p id=\"stim\">BACON</p>", "conditions": [12, 800, "v", 12000], "internal_node_id": "0.0-142.0", "trial": 5, "time_elapsed": 903851, "serialpos": 11, "key_press": -1, "wordID": 66, "type": "PRES_VIS", "trial_index": 196}, "uniqueid": "MTK2545:32KTQ2V7REMJFCGWYZ5VN3SBEN8M96", "dateTime": 1519058353484}, {"current_trial": 197, "trialdata": {"rt": -1, "trial_type": "single-stim", "stimulus": "", "internal_node_id": "0.0-143.0-0.0", "time_elapsed": 906127, "key_press": -1, "type": "PRE_RECALL_DELAY", "trial_index": 197}, "uniqueid": "MTK2545:32KTQ2V7REMJFCGWYZ5VN3SBEN8M96", "dateTime": 1519058355761}, {"current_trial": 198, "trialdata": {"rt": -1000, "trial_type": "single-audio", "stimulus": "/static/audio/400Hz.wav", "internal_node_id": "0.0-144.0", "time_elapsed": 906629, "key_press": -1, "type": "PRE_RECALL_ALERT", "trial_index": 198}, "uniqueid": "MTK2545:32KTQ2V7REMJFCGWYZ5VN3SBEN8M96", "dateTime": 1519058356262}, {"current_trial": 199, "trialdata": {"rt": [6024, 9992, 19160, 21528, 25752, 28680, 31320, 32376], "recwords": ["kitchen", "sheriff", "cupboard", "hiker", "pastry", "patient", "turkey", "bacon"], "key_times": [4473, 4648, 4746, 4969, 5048, 5192, 5320, 6024, 8152, 8265, 8376, 8456, 8616, 8760, 9272, 9416, 9656, 9720, 9865, 9992, 17081, 17320, 17480, 17689, 18201, 18297, 18473, 18601, 18680, 18872, 19160, 20856, 20952, 21192, 21337, 21433, 21528, 23992, 24090, 24169, 24457, 25145, 25209, 25337, 25450, 25752, 27864, 27976, 28090, 28200, 28345, 28440, 28537, 28680, 29944, 30072, 30200, 30329, 30472, 30631, 31320, 31448, 31608, 31816, 32008, 32184, 32376, 59704, 59880], "trial_type": "free-recall", "conditions": [12, 800, "v", 12000], "internal_node_id": "0.0-145.0-0.0", "key_presses": [75, 73, 84, 67, 72, 69, 78, 13, 83, 72, 69, 82, 82, 73, 8, 8, 73, 70, 70, 13, 67, 85, 80, 79, 8, 66, 79, 65, 82, 68, 13, 72, 73, 75, 69, 82, 13, 80, 65, 83, 82, 8, 84, 82, 89, 13, 80, 65, 84, 73, 69, 78, 84, 13, 84, 85, 82, 75, 69, 89, 13, 66, 65, 67, 79, 78, 13, 69, 76], "trial": 5, "time_elapsed": 966633, "type": "FREE_RECALL", "trial_index": 199}, "uniqueid": "MTK2545:32KTQ2V7REMJFCGWYZ5VN3SBEN8M96", "dateTime": 1519058416268}, {"current_trial": 200, "trialdata": {"rt": 1442, "trial_type": "text", "internal_node_id": "0.0-146.0", "time_elapsed": 970078, "key_press": 13, "type": "INSTRUCTIONS", "trial_index": 200}, "uniqueid": "MTK2545:32KTQ2V7REMJFCGWYZ5VN3SBEN8M96", "dateTime": 1519058419711}, {"current_trial": 201, "trialdata": {"rt": [2557, 9294], "trial_type": "math-distractor", "key_times": [2013, 2222, 2557, 8765, 8910, 9294, 11454, 11677], "responses": ["14", "22"], "num2": [7, 5, 3], "num3": [3, 8, 8], "conditions": [24, 1600, "v", 12000], "internal_node_id": "0.0-147.0", "key_presses": [97, 100, 13, 98, 98, 13, 97, 100], "trial": 6, "time_elapsed": 984083, "type": "DISTRACTOR", "trial_index": 201, "num1": [4, 7, 3]}, "uniqueid": "MTK2545:32KTQ2V7REMJFCGWYZ5VN3SBEN8M96", "dateTime": 1519058433716}, {"current_trial": 202, "trialdata": {"rt": -1, "trial_type": "single-stim", "stimulus": "<p id=\"stim\">10</p>", "internal_node_id": "0.0-148.0-0.0", "time_elapsed": 987085, "key_press": -1, "trial_index": 202}, "uniqueid": "MTK2545:32KTQ2V7REMJFCGWYZ5VN3SBEN8M96", "dateTime": 1519058436719}, {"current_trial": 203, "trialdata": {"rt": -1, "trial_type": "single-stim", "stimulus": "<p id=\"stim\">9</p>", "internal_node_id": "0.0-148.0-1.0", "time_elapsed": 988087, "key_press": -1, "trial_index": 203}, "uniqueid": "MTK2545:32KTQ2V7REMJFCGWYZ5VN3SBEN8M96", "dateTime": 1519058437720}, {"current_trial": 204, "trialdata": {"rt": -1, "trial_type": "single-stim", "stimulus": "<p id=\"stim\">8</p>", "internal_node_id": "0.0-148.0-2.0", "time_elapsed": 989088, "key_press": -1, "trial_index": 204}, "uniqueid": "MTK2545:32KTQ2V7REMJFCGWYZ5VN3SBEN8M96", "dateTime": 1519058438721}, {"current_trial": 205, "trialdata": {"rt": -1, "trial_type": "single-stim", "stimulus": "<p id=\"stim\">7</p>", "internal_node_id": "0.0-148.0-3.0", "time_elapsed": 990090, "key_press": -1, "trial_index": 205}, "uniqueid": "MTK2545:32KTQ2V7REMJFCGWYZ5VN3SBEN8M96", "dateTime": 1519058439723}, {"current_trial": 206, "trialdata": {"rt": -1, "trial_type": "single-stim", "stimulus": "<p id=\"stim\">6</p>", "internal_node_id": "0.0-148.0-4.0", "time_elapsed": 991093, "key_press": -1, "trial_index": 206}, "uniqueid": "MTK2545:32KTQ2V7REMJFCGWYZ5VN3SBEN8M96", "dateTime": 1519058440726}, {"current_trial": 207, "trialdata": {"rt": -1, "trial_type": "single-stim", "stimulus": "<p id=\"stim\">5</p>", "internal_node_id": "0.0-148.0-5.0", "time_elapsed": 992094, "key_press": -1, "trial_index": 207}, "uniqueid": "MTK2545:32KTQ2V7REMJFCGWYZ5VN3SBEN8M96", "dateTime": 1519058441727}, {"current_trial": 208, "trialdata": {"rt": -1, "trial_type": "single-stim", "stimulus": "<p id=\"stim\">4</p>", "internal_node_id": "0.0-148.0-6.0", "time_elapsed": 993096, "key_press": -1, "trial_index": 208}, "uniqueid": "MTK2545:32KTQ2V7REMJFCGWYZ5VN3SBEN8M96", "dateTime": 1519058442729}, {"current_trial": 209, "trialdata": {"rt": -1, "trial_type": "single-stim", "stimulus": "<p id=\"stim\">3</p>", "internal_node_id": "0.0-148.0-7.0", "time_elapsed": 994097, "key_press": -1, "trial_index": 209}, "uniqueid": "MTK2545:32KTQ2V7REMJFCGWYZ5VN3SBEN8M96", "dateTime": 1519058443730}, {"current_trial": 210, "trialdata": {"rt": -1, "trial_type": "single-stim", "stimulus": "<p id=\"stim\">2</p>", "internal_node_id": "0.0-148.0-8.0", "time_elapsed": 995098, "key_press": -1, "trial_index": 210}, "uniqueid": "MTK2545:32KTQ2V7REMJFCGWYZ5VN3SBEN8M96", "dateTime": 1519058444731}, {"current_trial": 211, "trialdata": {"rt": -1, "trial_type": "single-stim", "stimulus": "<p id=\"stim\">1</p>", "internal_node_id": "0.0-148.0-9.0", "time_elapsed": 996100, "key_press": -1, "trial_index": 211}, "uniqueid": "MTK2545:32KTQ2V7REMJFCGWYZ5VN3SBEN8M96", "dateTime": 1519058445733}, {"current_trial": 212, "trialdata": {"rt": -1, "trial_type": "single-stim", "stimulus": "<p id=\"stim\">+</p>", "internal_node_id": "0.0-149.0-0.0", "time_elapsed": 997602, "key_press": -1, "type": "FIXATION", "trial_index": 212}, "uniqueid": "MTK2545:32KTQ2V7REMJFCGWYZ5VN3SBEN8M96", "dateTime": 1519058447235}, {"current_trial": 213, "trialdata": {"rt": -1, "trial_type": "single-stim", "word": "cattle", "stimulus": "<p id=\"stim\">CATTLE</p>", "conditions": [24, 1600, "v", 12000], "internal_node_id": "0.0-150.0", "trial": 6, "time_elapsed": 999204, "serialpos": 0, "key_press": -1, "wordID": 260, "type": "PRES_VIS", "trial_index": 213}, "uniqueid": "MTK2545:32KTQ2V7REMJFCGWYZ5VN3SBEN8M96", "dateTime": 1519058448838}, {"current_trial": 214, "trialdata": {"rt": -1, "trial_type": "single-stim", "word": "beef", "stimulus": "<p id=\"stim\">BEEF</p>", "conditions": [24, 1600, "v", 12000], "internal_node_id": "0.0-151.0", "trial": 6, "time_elapsed": 1001952, "serialpos": 1, "key_press": -1, "wordID": 112, "type": "PRES_VIS", "trial_index": 214}, "uniqueid": "MTK2545:32KTQ2V7REMJFCGWYZ5VN3SBEN8M96", "dateTime": 1519058451585}, {"current_trial": 215, "trialdata": {"rt": -1, "trial_type": "single-stim", "word": "postage", "stimulus": "<p id=\"stim\">POSTAGE</p>", "conditions": [24, 1600, "v", 12000], "internal_node_id": "0.0-152.0", "trial": 6, "time_elapsed": 1004734, "serialpos": 2, "key_press": -1, "wordID": 1112, "type": "PRES_VIS", "trial_index": 215}, "uniqueid": "MTK2545:32KTQ2V7REMJFCGWYZ5VN3SBEN8M96", "dateTime": 1519058454368}, {"current_trial": 216, "trialdata": {"rt": -1, "trial_type": "single-stim", "word": "stove", "stimulus": "<p id=\"stim\">STOVE</p>", "conditions": [24, 1600, "v", 12000], "internal_node_id": "0.0-153.0", "trial": 6, "time_elapsed": 1007263, "serialpos": 3, "key_press": -1, "wordID": 1387, "type": "PRES_VIS", "trial_index": 216}, "uniqueid": "MTK2545:32KTQ2V7REMJFCGWYZ5VN3SBEN8M96", "dateTime": 1519058456896}, {"current_trial": 217, "trialdata": {"rt": -1, "trial_type": "single-stim", "word": "skirt", "stimulus": "<p id=\"stim\">SKIRT</p>", "conditions": [24, 1600, "v", 12000], "internal_node_id": "0.0-154.0", "trial": 6, "time_elapsed": 1009685, "serialpos": 4, "key_press": -1, "wordID": 1318, "type": "PRES_VIS", "trial_index": 217}, "uniqueid": "MTK2545:32KTQ2V7REMJFCGWYZ5VN3SBEN8M96", "dateTime": 1519058459320}, {"current_trial": 218, "trialdata": {"rt": -1, "trial_type": "single-stim", "word": "hamper", "stimulus": "<p id=\"stim\">HAMPER</p>", "conditions": [24, 1600, "v", 12000], "internal_node_id": "0.0-155.0", "trial": 6, "time_elapsed": 1012334, "serialpos": 5, "key_press": -1, "wordID": 681, "type": "PRES_VIS", "trial_index": 218}, "uniqueid": "MTK2545:32KTQ2V7REMJFCGWYZ5VN3SBEN8M96", "dateTime": 1519058461967}, {"current_trial": 219, "trialdata": {"rt": -1, "trial_type": "single-stim", "word": "partner", "stimulus": "<p id=\"stim\">PARTNER</p>", "conditions": [24, 1600, "v", 12000], "internal_node_id": "0.0-156.0", "trial": 6, "time_elapsed": 1015120, "serialpos": 6, "key_press": -1, "wordID": 1016, "type": "PRES_VIS", "trial_index": 219}, "uniqueid": "MTK2545:32KTQ2V7REMJFCGWYZ5VN3SBEN8M96", "dateTime": 1519058464753}, {"current_trial": 220, "trialdata": {"rt": -1, "trial_type": "single-stim", "word": "fireplace", "stimulus": "<p id=\"stim\">FIREPLACE</p>", "conditions": [24, 1600, "v", 12000], "internal_node_id": "0.0-157.0", "trial": 6, "time_elapsed": 1017780, "serialpos": 7, "key_press": -1, "wordID": 569, "type": "PRES_VIS", "trial_index": 220}, "uniqueid": "MTK2545:32KTQ2V7REMJFCGWYZ5VN3SBEN8M96", "dateTime": 1519058467413}, {"current_trial": 221, "trialdata": {"rt": -1, "trial_type": "single-stim", "word": "receipt", "stimulus": "<p id=\"stim\">RECEIPT</p>", "conditions": [24, 1600, "v", 12000], "internal_node_id": "0.0-158.0", "trial": 6, "time_elapsed": 1020333, "serialpos": 8, "key_press": -1, "wordID": 1172, "type": "PRES_VIS", "trial_index": 221}, "uniqueid": "MTK2545:32KTQ2V7REMJFCGWYZ5VN3SBEN8M96", "dateTime": 1519058469967}, {"current_trial": 222, "trialdata": {"rt": -1, "trial_type": "single-stim", "word": "chemist", "stimulus": "<p id=\"stim\">CHEMIST</p>", "conditions": [24, 1600, "v", 12000], "internal_node_id": "0.0-159.0", "trial": 6, "time_elapsed": 1023071, "serialpos": 9, "key_press": -1, "wordID": 291, "type": "PRES_VIS", "trial_index": 222}, "uniqueid": "MTK2545:32KTQ2V7REMJFCGWYZ5VN3SBEN8M96", "dateTime": 1519058472704}, {"current_trial": 223, "trialdata": {"rt": -1, "trial_type": "single-stim", "word": "plaster", "stimulus": "<p id=\"stim\">PLASTER</p>", "conditions": [24, 1600, "v", 12000], "internal_node_id": "0.0-160.0", "trial": 6, "time_elapsed": 1025777, "serialpos": 10, "key_press": -1, "wordID": 1084, "type": "PRES_VIS", "trial_index": 223}, "uniqueid": "MTK2545:32KTQ2V7REMJFCGWYZ5VN3SBEN8M96", "dateTime": 1519058475410}, {"current_trial": 224, "trialdata": {"rt": -1, "trial_type": "single-stim", "word": "label", "stimulus": "<p id=\"stim\">LABEL</p>", "conditions": [24, 1600, "v", 12000], "internal_node_id": "0.0-161.0", "trial": 6, "time_elapsed": 1028497, "serialpos": 11, "key_press": -1, "wordID": 789, "type": "PRES_VIS", "trial_index": 224}, "uniqueid": "MTK2545:32KTQ2V7REMJFCGWYZ5VN3SBEN8M96", "dateTime": 1519058478130}, {"current_trial": 225, "trialdata": {"rt": -1, "trial_type": "single-stim", "word": "basement", "stimulus": "<p id=\"stim\">BASEMENT</p>", "conditions": [24, 1600, "v", 12000], "internal_node_id": "0.0-162.0", "trial": 6, "time_elapsed": 1031108, "serialpos": 12, "key_press": -1, "wordID": 93, "type": "PRES_VIS", "trial_index": 225}, "uniqueid": "MTK2545:32KTQ2V7REMJFCGWYZ5VN3SBEN8M96", "dateTime": 1519058480742}, {"current_trial": 226, "trialdata": {"rt": -1, "trial_type": "single-stim", "word": "keeper", "stimulus": "<p id=\"stim\">KEEPER</p>", "conditions": [24, 1600, "v", 12000], "internal_node_id": "0.0-163.0", "trial": 6, "time_elapsed": 1033897, "serialpos": 13, "key_press": -1, "wordID": 768, "type": "PRES_VIS", "trial_index": 226}, "uniqueid": "MTK2545:32KTQ2V7REMJFCGWYZ5VN3SBEN8M96", "dateTime": 1519058483530}, {"current_trial": 227, "trialdata": {"rt": -1, "trial_type": "single-stim", "word": "spouse", "stimulus": "<p id=\"stim\">SPOUSE</p>", "conditions": [24, 1600, "v", 12000], "internal_node_id": "0.0-164.0", "trial": 6, "time_elapsed": 1036516, "serialpos": 14, "key_press": -1, "wordID": 1357, "type": "PRES_VIS", "trial_index": 227}, "uniqueid": "MTK2545:32KTQ2V7REMJFCGWYZ5VN3SBEN8M96", "dateTime": 1519058486149}, {"current_trial": 228, "trialdata": {"rt": -1, "trial_type": "single-stim", "word": "lagoon", "stimulus": "<p id=\"stim\">LAGOON</p>", "conditions": [24, 1600, "v", 12000], "internal_node_id": "0.0-165.0", "trial": 6, "time_elapsed": 1039176, "serialpos": 15, "key_press": -1, "wordID": 794, "type": "PRES_VIS", "trial_index": 228}, "uniqueid": "MTK2545:32KTQ2V7REMJFCGWYZ5VN3SBEN8M96", "dateTime": 1519058488809}, {"current_trial": 229, "trialdata": {"rt": -1, "trial_type": "single-stim", "word": "marsh", "stimulus": "<p id=\"stim\">MARSH</p>", "conditions": [24, 1600, "v", 12000], "internal_node_id": "0.0-166.0", "trial": 6, "time_elapsed": 1041682, "serialpos": 16, "key_press": -1, "wordID": 873, "type": "PRES_VIS", "trial_index": 229}, "uniqueid": "MTK2545:32KTQ2V7REMJFCGWYZ5VN3SBEN8M96", "dateTime": 1519058491315}, {"current_trial": 230, "trialdata": {"rt": -1, "trial_type": "single-stim", "word": "sunset", "stimulus": "<p id=\"stim\">SUNSET</p>", "conditions": [24, 1600, "v", 12000], "internal_node_id": "0.0-167.0", "trial": 6, "time_elapsed": 1044251, "serialpos": 17, "key_press": -1, "wordID": 1407, "type": "PRES_VIS", "trial_index": 230}, "uniqueid": "MTK2545:32KTQ2V7REMJFCGWYZ5VN3SBEN8M96", "dateTime": 1519058493884}, {"current_trial": 231, "trialdata": {"rt": -1, "trial_type": "single-stim", "word": "truck", "stimulus": "<p id=\"stim\">TRUCK</p>", "conditions": [24, 1600, "v", 12000], "internal_node_id": "0.0-168.0", "trial": 6, "time_elapsed": 1046878, "serialpos": 18, "key_press": -1, "wordID": 1511, "type": "PRES_VIS", "trial_index": 231}, "uniqueid": "MTK2545:32KTQ2V7REMJFCGWYZ5VN3SBEN8M96", "dateTime": 1519058496511}, {"current_trial": 232, "trialdata": {"rt": -1, "trial_type": "single-stim", "word": "wagon", "stimulus": "<p id=\"stim\">WAGON</p>", "conditions": [24, 1600, "v", 12000], "internal_node_id": "0.0-169.0", "trial": 6, "time_elapsed": 1049340, "serialpos": 19, "key_press": -1, "wordID": 1577, "type": "PRES_VIS", "trial_index": 232}, "uniqueid": "MTK2545:32KTQ2V7REMJFCGWYZ5VN3SBEN8M96", "dateTime": 1519058498973}, {"current_trial": 233, "trialdata": {"rt": -1, "trial_type": "single-stim", "word": "human", "stimulus": "<p id=\"stim\">HUMAN</p>", "conditions": [24, 1600, "v", 12000], "internal_node_id": "0.0-170.0", "trial": 6, "time_elapsed": 1052035, "serialpos": 20, "key_press": -1, "wordID": 725, "type": "PRES_VIS", "trial_index": 233}, "uniqueid": "MTK2545:32KTQ2V7REMJFCGWYZ5VN3SBEN8M96", "dateTime": 1519058501668}, {"current_trial": 234, "trialdata": {"rt": -1, "trial_type": "single-stim", "word": "breast", "stimulus": "<p id=\"stim\">BREAST</p>", "conditions": [24, 1600, "v", 12000], "internal_node_id": "0.0-171.0", "trial": 6, "time_elapsed": 1054735, "serialpos": 21, "key_press": -1, "wordID": 170, "type": "PRES_VIS", "trial_index": 234}, "uniqueid": "MTK2545:32KTQ2V7REMJFCGWYZ5VN3SBEN8M96", "dateTime": 1519058504368}, {"current_trial": 235, "trialdata": {"rt": -1, "trial_type": "single-stim", "word": "perch", "stimulus": "<p id=\"stim\">PERCH</p>", "conditions": [24, 1600, "v", 12000], "internal_node_id": "0.0-172.0", "trial": 6, "time_elapsed": 1057390, "serialpos": 22, "key_press": -1, "wordID": 1047, "type": "PRES_VIS", "trial_index": 235}, "uniqueid": "MTK2545:32KTQ2V7REMJFCGWYZ5VN3SBEN8M96", "dateTime": 1519058507025}, {"current_trial": 236, "trialdata": {"rt": -1, "trial_type": "single-stim", "word": "tractor", "stimulus": "<p id=\"stim\">TRACTOR</p>", "conditions": [24, 1600, "v", 12000], "internal_node_id": "0.0-173.0", "trial": 6, "time_elapsed": 1059999, "serialpos": 23, "key_press": -1, "wordID": 1492, "type": "PRES_VIS", "trial_index": 236}, "uniqueid": "MTK2545:32KTQ2V7REMJFCGWYZ5VN3SBEN8M96", "dateTime": 1519058509632}, {"current_trial": 237, "trialdata": {"rt": -1, "trial_type": "single-stim", "stimulus": "", "internal_node_id": "0.0-174.0-0.0", "time_elapsed": 1062352, "key_press": -1, "type": "PRE_RECALL_DELAY", "trial_index": 237}, "uniqueid": "MTK2545:32KTQ2V7REMJFCGWYZ5VN3SBEN8M96", "dateTime": 1519058511985}, {"current_trial": 238, "trialdata": {"rt": -1000, "trial_type": "single-audio", "stimulus": "/static/audio/400Hz.wav", "internal_node_id": "0.0-175.0", "time_elapsed": 1062854, "key_press": -1, "type": "PRE_RECALL_ALERT", "trial_index": 238}, "uniqueid": "MTK2545:32KTQ2V7REMJFCGWYZ5VN3SBEN8M96", "dateTime": 1519058512487}, {"current_trial": 239, "trialdata": {"rt": [4405, 5413, 13174, 17637, 22261, 28166, 33685, 34949, 38502, 48389], "recwords": ["cattle", "beef", "stove", "partner", "receipt", "basement", "marsh", "sunset", "wagon", "human"], "key_times": [3432, 3654, 3845, 4006, 4102, 4213, 4405, 4822, 4981, 5141, 5286, 5413, 7894, 8039, 8118, 8261, 8790, 8983, 9142, 9286, 9447, 12374, 12487, 12646, 12870, 13014, 13174, 16774, 16902, 16981, 17190, 17302, 17434, 17479, 17637, 20710, 20805, 21014, 21190, 21302, 21605, 21781, 22261, 27046, 27160, 27271, 27414, 27573, 27733, 27830, 27942, 28166, 32389, 32517, 32598, 32789, 32919, 33685, 34070, 34181, 34406, 34534, 34726, 34902, 34949, 37433, 37654, 37910, 38086, 38294, 38502, 47478, 47702, 47942, 48087, 48183, 48389], "trial_type": "free-recall", "conditions": [24, 1600, "v", 12000], "internal_node_id": "0.0-176.0-0.0", "key_presses": [67, 65, 84, 84, 76, 69, 13, 66, 69, 69, 70, 13, 80, 65, 83, 84, 8, 8, 8, 8, 8, 83, 84, 79, 86, 69, 13, 80, 65, 82, 84, 78, 69, 82, 13, 82, 69, 67, 69, 73, 80, 84, 13, 66, 65, 83, 69, 77, 69, 78, 84, 13, 77, 65, 82, 83, 72, 13, 83, 85, 78, 83, 69, 84, 13, 87, 65, 71, 79, 78, 13, 72, 85, 77, 65, 78, 13], "trial": 6, "time_elapsed": 1122859, "type": "FREE_RECALL", "trial_index": 239}, "uniqueid": "MTK2545:32KTQ2V7REMJFCGWYZ5VN3SBEN8M96", "dateTime": 1519058572496}, {"current_trial": 240, "trialdata": {"rt": 1359, "trial_type": "text", "internal_node_id": "0.0-177.0", "time_elapsed": 1126223, "key_press": 13, "type": "INSTRUCTIONS", "trial_index": 240}, "uniqueid": "MTK2545:32KTQ2V7REMJFCGWYZ5VN3SBEN8M96", "dateTime": 1519058575856}, {"current_trial": 241, "trialdata": {"rt": [2397, 6701, 10973], "trial_type": "math-distractor", "key_times": [1790, 1965, 2397, 6029, 6300, 6701, 9806, 10014, 10973], "responses": ["10", "16", "14"], "num2": [4, 5, 8, 1], "num3": [5, 8, 3, 6], "conditions": [12, 1600, "v", 12000], "internal_node_id": "0.0-178.0", "key_presses": [97, 96, 13, 97, 102, 13, 97, 100, 13], "trial": 7, "time_elapsed": 1140228, "type": "DISTRACTOR", "trial_index": 241, "num1": [1, 3, 3, 7]}, "uniqueid": "MTK2545:32KTQ2V7REMJFCGWYZ5VN3SBEN8M96", "dateTime": 1519058589861}, {"current_trial": 242, "trialdata": {"rt": -1, "trial_type": "single-stim", "stimulus": "<p id=\"stim\">10</p>", "internal_node_id": "0.0-179.0-0.0", "time_elapsed": 1143232, "key_press": -1, "trial_index": 242}, "uniqueid": "MTK2545:32KTQ2V7REMJFCGWYZ5VN3SBEN8M96", "dateTime": 1519058592865}, {"current_trial": 243, "trialdata": {"rt": -1, "trial_type": "single-stim", "stimulus": "<p id=\"stim\">9</p>", "internal_node_id": "0.0-179.0-1.0", "time_elapsed": 1144234, "key_press": -1, "trial_index": 243}, "uniqueid": "MTK2545:32KTQ2V7REMJFCGWYZ5VN3SBEN8M96", "dateTime": 1519058593867}, {"current_trial": 244, "trialdata": {"rt": -1, "trial_type": "single-stim", "stimulus": "<p id=\"stim\">8</p>", "internal_node_id": "0.0-179.0-2.0", "time_elapsed": 1145236, "key_press": -1, "trial_index": 244}, "uniqueid": "MTK2545:32KTQ2V7REMJFCGWYZ5VN3SBEN8M96", "dateTime": 1519058594869}, {"current_trial": 245, "trialdata": {"rt": -1, "trial_type": "single-stim", "stimulus": "<p id=\"stim\">7</p>", "internal_node_id": "0.0-179.0-3.0", "time_elapsed": 1146239, "key_press": -1, "trial_index": 245}, "uniqueid": "MTK2545:32KTQ2V7REMJFCGWYZ5VN3SBEN8M96", "dateTime": 1519058595872}, {"current_trial": 246, "trialdata": {"rt": -1, "trial_type": "single-stim", "stimulus": "<p id=\"stim\">6</p>", "internal_node_id": "0.0-179.0-4.0", "time_elapsed": 1147241, "key_press": -1, "trial_index": 246}, "uniqueid": "MTK2545:32KTQ2V7REMJFCGWYZ5VN3SBEN8M96", "dateTime": 1519058596874}, {"current_trial": 247, "trialdata": {"rt": -1, "trial_type": "single-stim", "stimulus": "<p id=\"stim\">5</p>", "internal_node_id": "0.0-179.0-5.0", "time_elapsed": 1148243, "key_press": -1, "trial_index": 247}, "uniqueid": "MTK2545:32KTQ2V7REMJFCGWYZ5VN3SBEN8M96", "dateTime": 1519058597876}, {"current_trial": 248, "trialdata": {"rt": -1, "trial_type": "single-stim", "stimulus": "<p id=\"stim\">4</p>", "internal_node_id": "0.0-179.0-6.0", "time_elapsed": 1149244, "key_press": -1, "trial_index": 248}, "uniqueid": "MTK2545:32KTQ2V7REMJFCGWYZ5VN3SBEN8M96", "dateTime": 1519058598878}, {"current_trial": 249, "trialdata": {"rt": -1, "trial_type": "single-stim", "stimulus": "<p id=\"stim\">3</p>", "internal_node_id": "0.0-179.0-7.0", "time_elapsed": 1150247, "key_press": -1, "trial_index": 249}, "uniqueid": "MTK2545:32KTQ2V7REMJFCGWYZ5VN3SBEN8M96", "dateTime": 1519058599881}, {"current_trial": 250, "trialdata": {"rt": -1, "trial_type": "single-stim", "stimulus": "<p id=\"stim\">2</p>", "internal_node_id": "0.0-179.0-8.0", "time_elapsed": 1151250, "key_press": -1, "trial_index": 250}, "uniqueid": "MTK2545:32KTQ2V7REMJFCGWYZ5VN3SBEN8M96", "dateTime": 1519058600883}, {"current_trial": 251, "trialdata": {"rt": -1, "trial_type": "single-stim", "stimulus": "<p id=\"stim\">1</p>", "internal_node_id": "0.0-179.0-9.0", "time_elapsed": 1152252, "key_press": -1, "trial_index": 251}, "uniqueid": "MTK2545:32KTQ2V7REMJFCGWYZ5VN3SBEN8M96", "dateTime": 1519058601885}, {"current_trial": 252, "trialdata": {"rt": -1, "trial_type": "single-stim", "stimulus": "<p id=\"stim\">+</p>", "internal_node_id": "0.0-180.0-0.0", "time_elapsed": 1153753, "key_press": -1, "type": "FIXATION", "trial_index": 252}, "uniqueid": "MTK2545:32KTQ2V7REMJFCGWYZ5VN3SBEN8M96", "dateTime": 1519058603387}, {"current_trial": 253, "trialdata": {"rt": -1, "trial_type": "single-stim", "word": "radish", "stimulus": "<p id=\"stim\">RADISH</p>", "conditions": [12, 1600, "v", 12000], "internal_node_id": "0.0-181.0", "trial": 7, "time_elapsed": 1155355, "serialpos": 0, "key_press": -1, "wordID": 1157, "type": "PRES_VIS", "trial_index": 253}, "uniqueid": "MTK2545:32KTQ2V7REMJFCGWYZ5VN3SBEN8M96", "dateTime": 1519058604988}, {"current_trial": 254, "trialdata": {"rt": -1, "trial_type": "single-stim", "word": "sister", "stimulus": "<p id=\"stim\">SISTER</p>", "conditions": [12, 1600, "v", 12000], "internal_node_id": "0.0-182.0", "trial": 7, "time_elapsed": 1157890, "serialpos": 1, "key_press": -1, "wordID": 1