{"assignmentId": "3G5F9DBFOQ4VK5SOA3UENG9COXBVHD", "workerId": "MTK2660", "questiondata": {"origin": "United States", "strat-rehearsal": "84", "marital": "Divorced", "education": "Associate degree", "ethnicity": "Not Hispanic", "color_depth": 24, "distracted": "No", "wrote-notes": "No", "strat-other": "", "screen_width": 1280, "avail_screen_width": 1280, "avail_screen_height": 680, "strat-image": "69", "language": "English", "gender": "Female", "age": "64", "gender_other": "", "race": ["White"], "strat-categorize": "91", "pixel_depth": 24, "strat-spatial": "39", "strat-story": "84", "race_other": "", "screen_height": 720}, "bonus": 0, "hitId": "33QQ60S6ASPI96ZYH38MWICS422U0E", "counterbalance": 2504, "useragent": "Mozilla/5.0 (Windows NT 10.0; Win64; x64) AppleWebKit/537.36 (KHTML, like Gecko) Chrome/63.0.3239.132 Safari/537.36", "eventdata": [{"eventtype": "initialized", "interval": 0, "value": null, "timestamp": 1519225572974}, {"eventtype": "window_resize", "interval": 1, "value": [1284, 672], "timestamp": 1519225572975}, {"eventtype": "focus", "interval": 1017908, "value": "off", "timestamp": 1519226590883}, {"eventtype": "focus", "interval": 4571, "value": "on", "timestamp": 1519226595454}, {"eventtype": "window_resize", "interval": 95351, "value": [1280, 720], "timestamp": 1519226690805}, {"eventtype": "window_resize", "interval": 3293240, "value": [1284, 672], "timestamp": 1519229984045}, {"eventtype": "focus", "interval": 2101, "value": "off", "timestamp": 1519229986146}, {"eventtype": "focus", "interval": 2959, "value": "on", "timestamp": 1519229989105}, {"eventtype": "focus", "interval": 317, "value": "off", "timestamp": 1519229989422}, {"eventtype": "focus", "interval": 4622, "value": "on", "timestamp": 1519229994044}, {"eventtype": "focus", "interval": 2, "value": "off", "timestamp": 1519229994046}, {"eventtype": "focus", "interval": 18, "value": "on", "timestamp": 1519229994064}, {"eventtype": "focus", "interval": 37, "value": "off", "timestamp": 1519229994101}, {"eventtype": "focus", "interval": 6341, "value": "on", "timestamp": 1519230000442}], "data": [{"current_trial": 0, "trialdata": {"rt": 2071, "trial_type": "text", "internal_node_id": "0.0-0.0", "time_elapsed": 2074, "key_press": 32, "type": "INSTRUCTIONS", "trial_index": 0}, "uniqueid": "MTK2660:3G5F9DBFOQ4VK5SOA3UENG9COXBVHD", "dateTime": 1519225575550}, {"current_trial": 1, "trialdata": {"rt": 979833, "trial_type": "text", "internal_node_id": "0.0-1.0", "time_elapsed": 981910, "key_press": 32, "type": "INSTRUCTIONS", "trial_index": 1}, "uniqueid": "MTK2660:3G5F9DBFOQ4VK5SOA3UENG9COXBVHD", "dateTime": 1519226555385}, {"current_trial": 2, "trialdata": {"rt": [16004], "trial_type": "audio-test", "responses": ["ocean"], "internal_node_id": "0.0-2.0", "time_elapsed": 997951, "type": "AUDIO_TEST", "trial_index": 2}, "uniqueid": "MTK2660:3G5F9DBFOQ4VK5SOA3UENG9COXBVHD", "dateTime": 1519226571425}, {"current_trial": 3, "trialdata": {"rt": [11538], "trial_type": "audio-test", "responses": ["crystal"], "internal_node_id": "0.0-3.0", "time_elapsed": 1009495, "type": "AUDIO_TEST", "trial_index": 3}, "uniqueid": "MTK2660:3G5F9DBFOQ4VK5SOA3UENG9COXBVHD", "dateTime": 1519226582969}, {"current_trial": 4, "trialdata": {"rt": [16026], "trial_type": "audio-test", "responses": ["spice"], "internal_node_id": "0.0-4.0", "time_elapsed": 1025525, "type": "AUDIO_TEST", "trial_index": 4}, "uniqueid": "MTK2660:3G5F9DBFOQ4VK5SOA3UENG9COXBVHD", "dateTime": 1519226598999}, {"current_trial": 5, "trialdata": {"rt": 33355, "trial_type": "survey-text", "responses": "{\"Q0\":\"11:15\",\"Q1\":\"8:05\",\"Q2\":\"5\"}", "internal_node_id": "0.0-5.0", "time_elapsed": 1059633, "type": "SLEEP_SURVEY", "trial_index": 5}, "uniqueid": "MTK2660:3G5F9DBFOQ4VK5SOA3UENG9COXBVHD", "dateTime": 1519226633108}, {"current_trial": 6, "trialdata": {"rt": 56416, "trial_type": "text", "internal_node_id": "0.0-6.0", "time_elapsed": 1117052, "key_press": 122, "type": "INSTRUCTIONS", "trial_index": 6}, "uniqueid": "MTK2660:3G5F9DBFOQ4VK5SOA3UENG9COXBVHD", "dateTime": 1519226690526}, {"current_trial": 7, "trialdata": {"rt": 25211, "trial_type": "text", "internal_node_id": "0.0-7.0", "time_elapsed": 1142764, "key_press": 32, "type": "INSTRUCTIONS", "trial_index": 7}, "uniqueid": "MTK2660:3G5F9DBFOQ4VK5SOA3UENG9COXBVHD", "dateTime": 1519226716239}, {"current_trial": 8, "trialdata": {"rt": 18777, "trial_type": "text", "internal_node_id": "0.0-8.0", "time_elapsed": 1162044, "key_press": 32, "type": "INSTRUCTIONS", "trial_index": 8}, "uniqueid": "MTK2660:3G5F9DBFOQ4VK5SOA3UENG9COXBVHD", "dateTime": 1519226735518}, {"current_trial": 9, "trialdata": {"rt": [6203, 13507, 16947], "trial_type": "math-distractor", "key_times": [4339, 4867, 6203, 12435, 12786, 13507, 15899, 16947], "responses": ["19", "14", "7"], "num2": [3, 8, 3, 3], "num3": [8, 3, 3, 2], "conditions": [18, 1200, "v", 18000], "internal_node_id": "0.0-9.0", "key_presses": [97, 105, 13, 97, 100, 13, 103, 13], "trial": 0, "time_elapsed": 1181051, "type": "DISTRACTOR", "trial_index": 9, "num1": [8, 3, 1, 8]}, "uniqueid": "MTK2660:3G5F9DBFOQ4VK5SOA3UENG9COXBVHD", "dateTime": 1519226754525}, {"current_trial": 10, "trialdata": {"rt": -1, "trial_type": "single-stim", "stimulus": "<p id=\"stim\">10</p>", "internal_node_id": "0.0-10.0-0.0", "time_elapsed": 1184054, "key_press": -1, "trial_index": 10}, "uniqueid": "MTK2660:3G5F9DBFOQ4VK5SOA3UENG9COXBVHD", "dateTime": 1519226757529}, {"current_trial": 11, "trialdata": {"rt": -1, "trial_type": "single-stim", "stimulus": "<p id=\"stim\">9</p>", "internal_node_id": "0.0-10.0-1.0", "time_elapsed": 1185056, "key_press": -1, "trial_index": 11}, "uniqueid": "MTK2660:3G5F9DBFOQ4VK5SOA3UENG9COXBVHD", "dateTime": 1519226758530}, {"current_trial": 12, "trialdata": {"rt": -1, "trial_type": "single-stim", "stimulus": "<p id=\"stim\">8</p>", "internal_node_id": "0.0-10.0-2.0", "time_elapsed": 1186058, "key_press": -1, "trial_index": 12}, "uniqueid": "MTK2660:3G5F9DBFOQ4VK5SOA3UENG9COXBVHD", "dateTime": 1519226759532}, {"current_trial": 13, "trialdata": {"rt": -1, "trial_type": "single-stim", "stimulus": "<p id=\"stim\">7</p>", "internal_node_id": "0.0-10.0-3.0", "time_elapsed": 1187059, "key_press": -1, "trial_index": 13}, "uniqueid": "MTK2660:3G5F9DBFOQ4VK5SOA3UENG9COXBVHD", "dateTime": 1519226760533}, {"current_trial": 14, "trialdata": {"rt": -1, "trial_type": "single-stim", "stimulus": "<p id=\"stim\">6</p>", "internal_node_id": "0.0-10.0-4.0", "time_elapsed": 1188061, "key_press": -1, "trial_index": 14}, "uniqueid": "MTK2660:3G5F9DBFOQ4VK5SOA3UENG9COXBVHD", "dateTime": 1519226761535}, {"current_trial": 15, "trialdata": {"rt": -1, "trial_type": "single-stim", "stimulus": "<p id=\"stim\">5</p>", "internal_node_id": "0.0-10.0-5.0", "time_elapsed": 1189063, "key_press": -1, "trial_index": 15}, "uniqueid": "MTK2660:3G5F9DBFOQ4VK5SOA3UENG9COXBVHD", "dateTime": 1519226762537}, {"current_trial": 16, "trialdata": {"rt": -1, "trial_type": "single-stim", "stimulus": "<p id=\"stim\">4</p>", "internal_node_id": "0.0-10.0-6.0", "time_elapsed": 1190064, "key_press": -1, "trial_index": 16}, "uniqueid": "MTK2660:3G5F9DBFOQ4VK5SOA3UENG9COXBVHD", "dateTime": 1519226763538}, {"current_trial": 17, "trialdata": {"rt": -1, "trial_type": "single-stim", "stimulus": "<p id=\"stim\">3</p>", "internal_node_id": "0.0-10.0-7.0", "time_elapsed": 1191067, "key_press": -1, "trial_index": 17}, "uniqueid": "MTK2660:3G5F9DBFOQ4VK5SOA3UENG9COXBVHD", "dateTime": 1519226764541}, {"current_trial": 18, "trialdata": {"rt": -1, "trial_type": "single-stim", "stimulus": "<p id=\"stim\">2</p>", "internal_node_id": "0.0-10.0-8.0", "time_elapsed": 1192108, "key_press": -1, "trial_index": 18}, "uniqueid": "MTK2660:3G5F9DBFOQ4VK5SOA3UENG9COXBVHD", "dateTime": 1519226765582}, {"current_trial": 19, "trialdata": {"rt": -1, "trial_type": "single-stim", "stimulus": "<p id=\"stim\">1</p>", "internal_node_id": "0.0-10.0-9.0", "time_elapsed": 1193110, "key_press": -1, "trial_index": 19}, "uniqueid": "MTK2660:3G5F9DBFOQ4VK5SOA3UENG9COXBVHD", "dateTime": 1519226766584}, {"current_trial": 20, "trialdata": {"rt": -1, "trial_type": "single-stim", "stimulus": "<p id=\"stim\">+</p>", "internal_node_id": "0.0-11.0-0.0", "time_elapsed": 1194612, "key_press": -1, "type": "FIXATION", "trial_index": 20}, "uniqueid": "MTK2660:3G5F9DBFOQ4VK5SOA3UENG9COXBVHD", "dateTime": 1519226768086}, {"current_trial": 21, "trialdata": {"rt": -1, "trial_type": "single-stim", "word": "kidney", "stimulus": "<p id=\"stim\">KIDNEY</p>", "conditions": [18, 1200, "v", 18000], "internal_node_id": "0.0-12.0", "trial": 0, "time_elapsed": 1195815, "serialpos": 0, "key_press": -1, "wordID": 775, "type": "PRES_VIS", "trial_index": 21}, "uniqueid": "MTK2660:3G5F9DBFOQ4VK5SOA3UENG9COXBVHD", "dateTime": 1519226769289}, {"current_trial": 22, "trialdata": {"rt": -1, "trial_type": "single-stim", "word": "fungus", "stimulus": "<p id=\"stim\">FUNGUS</p>", "conditions": [18, 1200, "v", 18000], "internal_node_id": "0.0-13.0", "trial": 0, "time_elapsed": 1198068, "serialpos": 1, "key_press": -1, "wordID": 613, "type": "PRES_VIS", "trial_index": 22}, "uniqueid": "MTK2660:3G5F9DBFOQ4VK5SOA3UENG9COXBVHD", "dateTime": 1519226771542}, {"current_trial": 23, "trialdata": {"rt": -1, "trial_type": "single-stim", "word": "machine", "stimulus": "<p id=\"stim\">MACHINE</p>", "conditions": [18, 1200, "v", 18000], "internal_node_id": "0.0-14.0", "trial": 0, "time_elapsed": 1200119, "serialpos": 2, "key_press": -1, "wordID": 851, "type": "PRES_VIS", "trial_index": 23}, "uniqueid": "MTK2660:3G5F9DBFOQ4VK5SOA3UENG9COXBVHD", "dateTime": 1519226773593}, {"current_trial": 24, "trialdata": {"rt": -1, "trial_type": "single-stim", "word": "rod", "stimulus": "<p id=\"stim\">ROD</p>", "conditions": [18, 1200, "v", 18000], "internal_node_id": "0.0-15.0", "trial": 0, "time_elapsed": 1202136, "serialpos": 3, "key_press": -1, "wordID": 1202, "type": "PRES_VIS", "trial_index": 24}, "uniqueid": "MTK2660:3G5F9DBFOQ4VK5SOA3UENG9COXBVHD", "dateTime": 1519226775610}, {"current_trial": 25, "trialdata": {"rt": -1, "trial_type": "single-stim", "word": "perfume", "stimulus": "<p id=\"stim\">PERFUME</p>", "conditions": [18, 1200, "v", 18000], "internal_node_id": "0.0-16.0", "trial": 0, "time_elapsed": 1204250, "serialpos": 4, "key_press": -1, "wordID": 1048, "type": "PRES_VIS", "trial_index": 25}, "uniqueid": "MTK2660:3G5F9DBFOQ4VK5SOA3UENG9COXBVHD", "dateTime": 1519226777724}, {"current_trial": 26, "trialdata": {"rt": -1, "trial_type": "single-stim", "word": "cocoon", "stimulus": "<p id=\"stim\">COCOON</p>", "conditions": [18, 1200, "v", 18000], "internal_node_id": "0.0-17.0", "trial": 0, "time_elapsed": 1206335, "serialpos": 5, "key_press": -1, "wordID": 338, "type": "PRES_VIS", "trial_index": 26}, "uniqueid": "MTK2660:3G5F9DBFOQ4VK5SOA3UENG9COXBVHD", "dateTime": 1519226779809}, {"current_trial": 27, "trialdata": {"rt": -1, "trial_type": "single-stim", "word": "box", "stimulus": "<p id=\"stim\">BOX</p>", "conditions": [18, 1200, "v", 18000], "internal_node_id": "0.0-18.0", "trial": 0, "time_elapsed": 1208465, "serialpos": 6, "key_press": -1, "wordID": 158, "type": "PRES_VIS", "trial_index": 27}, "uniqueid": "MTK2660:3G5F9DBFOQ4VK5SOA3UENG9COXBVHD", "dateTime": 1519226781939}, {"current_trial": 28, "trialdata": {"rt": -1, "trial_type": "single-stim", "word": "xerox", "stimulus": "<p id=\"stim\">XEROX</p>", "conditions": [18, 1200, "v", 18000], "internal_node_id": "0.0-19.0", "trial": 0, "time_elapsed": 1210546, "serialpos": 7, "key_press": -1, "wordID": 1627, "type": "PRES_VIS", "trial_index": 28}, "uniqueid": "MTK2660:3G5F9DBFOQ4VK5SOA3UENG9COXBVHD", "dateTime": 1519226784021}, {"current_trial": 29, "trialdata": {"rt": -1, "trial_type": "single-stim", "word": "turkey", "stimulus": "<p id=\"stim\">TURKEY</p>", "conditions": [18, 1200, "v", 18000], "internal_node_id": "0.0-20.0", "trial": 0, "time_elapsed": 1212837, "serialpos": 8, "key_press": -1, "wordID": 1519, "type": "PRES_VIS", "trial_index": 29}, "uniqueid": "MTK2660:3G5F9DBFOQ4VK5SOA3UENG9COXBVHD", "dateTime": 1519226786311}, {"current_trial": 30, "trialdata": {"rt": -1, "trial_type": "single-stim", "word": "butcher", "stimulus": "<p id=\"stim\">BUTCHER</p>", "conditions": [18, 1200, "v", 18000], "internal_node_id": "0.0-21.0", "trial": 0, "time_elapsed": 1215060, "serialpos": 9, "key_press": -1, "wordID": 202, "type": "PRES_VIS", "trial_index": 30}, "uniqueid": "MTK2660:3G5F9DBFOQ4VK5SOA3UENG9COXBVHD", "dateTime": 1519226788534}, {"current_trial": 31, "trialdata": {"rt": -1, "trial_type": "single-stim", "word": "lagoon", "stimulus": "<p id=\"stim\">LAGOON</p>", "conditions": [18, 1200, "v", 18000], "internal_node_id": "0.0-22.0", "trial": 0, "time_elapsed": 1217399, "serialpos": 10, "key_press": -1, "wordID": 794, "type": "PRES_VIS", "trial_index": 31}, "uniqueid": "MTK2660:3G5F9DBFOQ4VK5SOA3UENG9COXBVHD", "dateTime": 1519226790873}, {"current_trial": 32, "trialdata": {"rt": -1, "trial_type": "single-stim", "word": "captive", "stimulus": "<p id=\"stim\">CAPTIVE</p>", "conditions": [18, 1200, "v", 18000], "internal_node_id": "0.0-23.0", "trial": 0, "time_elapsed": 1219614, "serialpos": 11, "key_press": -1, "wordID": 239, "type": "PRES_VIS", "trial_index": 32}, "uniqueid": "MTK2660:3G5F9DBFOQ4VK5SOA3UENG9COXBVHD", "dateTime": 1519226793088}, {"current_trial": 33, "trialdata": {"rt": -1, "trial_type": "single-stim", "word": "heart", "stimulus": "<p id=\"stim\">HEART</p>", "conditions": [18, 1200, "v", 18000], "internal_node_id": "0.0-24.0", "trial": 0, "time_elapsed": 1221859, "serialpos": 12, "key_press": -1, "wordID": 696, "type": "PRES_VIS", "trial_index": 33}, "uniqueid": "MTK2660:3G5F9DBFOQ4VK5SOA3UENG9COXBVHD", "dateTime": 1519226795333}, {"current_trial": 34, "trialdata": {"rt": -1, "trial_type": "single-stim", "word": "plaster", "stimulus": "<p id=\"stim\">PLASTER</p>", "conditions": [18, 1200, "v", 18000], "internal_node_id": "0.0-25.0", "trial": 0, "time_elapsed": 1223937, "serialpos": 13, "key_press": -1, "wordID": 1084, "type": "PRES_VIS", "trial_index": 34}, "uniqueid": "MTK2660:3G5F9DBFOQ4VK5SOA3UENG9COXBVHD", "dateTime": 1519226797411}, {"current_trial": 35, "trialdata": {"rt": -1, "trial_type": "single-stim", "word": "raft", "stimulus": "<p id=\"stim\">RAFT</p>", "conditions": [18, 1200, "v", 18000], "internal_node_id": "0.0-26.0", "trial": 0, "time_elapsed": 1225945, "serialpos": 14, "key_press": -1, "wordID": 1158, "type": "PRES_VIS", "trial_index": 35}, "uniqueid": "MTK2660:3G5F9DBFOQ4VK5SOA3UENG9COXBVHD", "dateTime": 1519226799419}, {"current_trial": 36, "trialdata": {"rt": -1, "trial_type": "single-stim", "word": "cook", "stimulus": "<p id=\"stim\">COOK</p>", "conditions": [18, 1200, "v", 18000], "internal_node_id": "0.0-27.0", "trial": 0, "time_elapsed": 1227970, "serialpos": 15, "key_press": -1, "wordID": 371, "type": "PRES_VIS", "trial_index": 36}, "uniqueid": "MTK2660:3G5F9DBFOQ4VK5SOA3UENG9COXBVHD", "dateTime": 1519226801444}, {"current_trial": 37, "trialdata": {"rt": -1, "trial_type": "single-stim", "word": "rust", "stimulus": "<p id=\"stim\">RUST</p>", "conditions": [18, 1200, "v", 18000], "internal_node_id": "0.0-28.0", "trial": 0, "time_elapsed": 1229979, "serialpos": 16, "key_press": -1, "wordID": 1218, "type": "PRES_VIS", "trial_index": 37}, "uniqueid": "MTK2660:3G5F9DBFOQ4VK5SOA3UENG9COXBVHD", "dateTime": 1519226803453}, {"current_trial": 38, "trialdata": {"rt": -1, "trial_type": "single-stim", "word": "server", "stimulus": "<p id=\"stim\">SERVER</p>", "conditions": [18, 1200, "v", 18000], "internal_node_id": "0.0-29.0", "trial": 0, "time_elapsed": 1232044, "serialpos": 17, "key_press": -1, "wordID": 1271, "type": "PRES_VIS", "trial_index": 38}, "uniqueid": "MTK2660:3G5F9DBFOQ4VK5SOA3UENG9COXBVHD", "dateTime": 1519226805519}, {"current_trial": 39, "trialdata": {"rt": -1, "trial_type": "single-stim", "stimulus": "", "internal_node_id": "0.0-30.0-0.0", "time_elapsed": 1234493, "key_press": -1, "type": "PRE_RECALL_DELAY", "trial_index": 39}, "uniqueid": "MTK2660:3G5F9DBFOQ4VK5SOA3UENG9COXBVHD", "dateTime": 1519226807967}, {"current_trial": 40, "trialdata": {"rt": -1000, "trial_type": "single-audio", "stimulus": "/static/audio/400Hz.wav", "internal_node_id": "0.0-31.0", "time_elapsed": 1234995, "key_press": -1, "type": "PRE_RECALL_ALERT", "trial_index": 40}, "uniqueid": "MTK2660:3G5F9DBFOQ4VK5SOA3UENG9COXBVHD", "dateTime": 1519226808469}, {"current_trial": 41, "trialdata": {"rt": [4870, 9134, 12150, 14886, 20182, 22838, 25422, 30702, 34094, 36438, 40710, 44934, 48286, 50782, 53070, 56582], "recwords": ["server", "raft", "rust", "cook", "xerox", "turkey", "butcher", "lagoon", "kidney", "fungus", "perfume", "heart", "plaster", "rod", "cook", "kidney"], "key_times": [3102, 3374, 3598, 3894, 4174, 4422, 4870, 7662, 7887, 8174, 8438, 9134, 10790, 11054, 11270, 11566, 12150, 13606, 13854, 14014, 14310, 14886, 17582, 17910, 18230, 18582, 18894, 20182, 21094, 21254, 21382, 21558, 21782, 21974, 22838, 24102, 24246, 24366, 24614, 24742, 24846, 25070, 25422, 26238, 26566, 26919, 27294, 27296, 28462, 28662, 29398, 29590, 29870, 30702, 32862, 33143, 33270, 33406, 33582, 33750, 34094, 35118, 35310, 35558, 35702, 35870, 36014, 36438, 39126, 39310, 39470, 39774, 39886, 40230, 40431, 40710, 43630, 43838, 44014, 44190, 44486, 44934, 46598, 46920, 47006, 47277, 47470, 47694, 47902, 48286, 50222, 50382, 50542, 50782, 52334, 52526, 52686, 52910, 53070, 54934, 55326, 55830, 56006, 56206, 56366, 56582], "trial_type": "free-recall", "conditions": [18, 1200, "v", 18000], "internal_node_id": "0.0-32.0-0.0", "key_presses": [83, 69, 82, 86, 69, 82, 32, 82, 65, 70, 84, 32, 82, 85, 83, 84, 32, 67, 79, 79, 75, 32, 88, 69, 82, 79, 88, 32, 84, 85, 82, 75, 69, 89, 32, 66, 85, 84, 67, 72, 69, 82, 32, 76, 65, 71, 73, 79, 8, 8, 79, 79, 78, 32, 75, 73, 68, 78, 69, 89, 32, 70, 85, 78, 71, 85, 83, 32, 80, 69, 82, 70, 85, 77, 69, 32, 72, 69, 65, 82, 84, 32, 80, 76, 65, 83, 84, 69, 82, 32, 82, 79, 68, 32, 67, 79, 79, 75, 32, 75, 73, 68, 78, 69, 89, 32], "trial": 0, "time_elapsed": 1294998, "type": "FREE_RECALL", "trial_index": 41}, "uniqueid": "MTK2660:3G5F9DBFOQ4VK5SOA3UENG9COXBVHD", "dateTime": 1519226868474}, {"current_trial": 42, "trialdata": {"rt": 8017, "trial_type": "text", "internal_node_id": "0.0-33.0", "time_elapsed": 1305018, "key_press": 32, "type": "INSTRUCTIONS", "trial_index": 42}, "uniqueid": "MTK2660:3G5F9DBFOQ4VK5SOA3UENG9COXBVHD", "dateTime": 1519226878493}, {"current_trial": 43, "trialdata": {"rt": [4469, 7709, 11781, 15540], "trial_type": "math-distractor", "key_times": [2749, 2996, 4469, 6573, 6854, 7709, 11229, 11444, 11781, 14716, 14956, 15540, 17492], "responses": ["14", "18", "21", "14"], "num2": [8, 4, 7, 5, 9], "num3": [4, 7, 6, 8, 1], "conditions": [18, 1200, "v", 18000], "internal_node_id": "0.0-34.0", "key_presses": [97, 100, 13, 97, 104, 13, 98, 97, 13, 97, 100, 13, 97], "trial": 1, "time_elapsed": 1325023, "type": "DISTRACTOR", "trial_index": 43, "num1": [2, 7, 8, 1, 5]}, "uniqueid": "MTK2660:3G5F9DBFOQ4VK5SOA3UENG9COXBVHD", "dateTime": 1519226898497}, {"current_trial": 44, "trialdata": {"rt": -1, "trial_type": "single-stim", "stimulus": "<p id=\"stim\">10</p>", "internal_node_id": "0.0-35.0-0.0", "time_elapsed": 1328025, "key_press": -1, "trial_index": 44}, "uniqueid": "MTK2660:3G5F9DBFOQ4VK5SOA3UENG9COXBVHD", "dateTime": 1519226901499}, {"current_trial": 45, "trialdata": {"rt": -1, "trial_type": "single-stim", "stimulus": "<p id=\"stim\">9</p>", "internal_node_id": "0.0-35.0-1.0", "time_elapsed": 1329026, "key_press": -1, "trial_index": 45}, "uniqueid": "MTK2660:3G5F9DBFOQ4VK5SOA3UENG9COXBVHD", "dateTime": 1519226902500}, {"current_trial": 46, "trialdata": {"rt": -1, "trial_type": "single-stim", "stimulus": "<p id=\"stim\">8</p>", "internal_node_id": "0.0-35.0-2.0", "time_elapsed": 1330028, "key_press": -1, "trial_index": 46}, "uniqueid": "MTK2660:3G5F9DBFOQ4VK5SOA3UENG9COXBVHD", "dateTime": 1519226903502}, {"current_trial": 47, "trialdata": {"rt": -1, "trial_type": "single-stim", "stimulus": "<p id=\"stim\">7</p>", "internal_node_id": "0.0-35.0-3.0", "time_elapsed": 1331030, "key_press": -1, "trial_index": 47}, "uniqueid": "MTK2660:3G5F9DBFOQ4VK5SOA3UENG9COXBVHD", "dateTime": 1519226904504}, {"current_trial": 48, "trialdata": {"rt": -1, "trial_type": "single-stim", "stimulus": "<p id=\"stim\">6</p>", "internal_node_id": "0.0-35.0-4.0", "time_elapsed": 1332032, "key_press": -1, "trial_index": 48}, "uniqueid": "MTK2660:3G5F9DBFOQ4VK5SOA3UENG9COXBVHD", "dateTime": 1519226905506}, {"current_trial": 49, "trialdata": {"rt": -1, "trial_type": "single-stim", "stimulus": "<p id=\"stim\">5</p>", "internal_node_id": "0.0-35.0-5.0", "time_elapsed": 1333034, "key_press": -1, "trial_index": 49}, "uniqueid": "MTK2660:3G5F9DBFOQ4VK5SOA3UENG9COXBVHD", "dateTime": 1519226906508}, {"current_trial": 50, "trialdata": {"rt": -1, "trial_type": "single-stim", "stimulus": "<p id=\"stim\">4</p>", "internal_node_id": "0.0-35.0-6.0", "time_elapsed": 1334036, "key_press": -1, "trial_index": 50}, "uniqueid": "MTK2660:3G5F9DBFOQ4VK5SOA3UENG9COXBVHD", "dateTime": 1519226907510}, {"current_trial": 51, "trialdata": {"rt": -1, "trial_type": "single-stim", "stimulus": "<p id=\"stim\">3</p>", "internal_node_id": "0.0-35.0-7.0", "time_elapsed": 1335037, "key_press": -1, "trial_index": 51}, "uniqueid": "MTK2660:3G5F9DBFOQ4VK5SOA3UENG9COXBVHD", "dateTime": 1519226908512}, {"current_trial": 52, "trialdata": {"rt": -1, "trial_type": "single-stim", "stimulus": "<p id=\"stim\">2</p>", "internal_node_id": "0.0-35.0-8.0", "time_elapsed": 1336039, "key_press": -1, "trial_index": 52}, "uniqueid": "MTK2660:3G5F9DBFOQ4VK5SOA3UENG9COXBVHD", "dateTime": 1519226909513}, {"current_trial": 53, "trialdata": {"rt": -1, "trial_type": "single-stim", "stimulus": "<p id=\"stim\">1</p>", "internal_node_id": "0.0-35.0-9.0", "time_elapsed": 1337041, "key_press": -1, "trial_index": 53}, "uniqueid": "MTK2660:3G5F9DBFOQ4VK5SOA3UENG9COXBVHD", "dateTime": 1519226910516}, {"current_trial": 54, "trialdata": {"rt": -1, "trial_type": "single-stim", "stimulus": "<p id=\"stim\">+</p>", "internal_node_id": "0.0-36.0-0.0", "time_elapsed": 1338543, "key_press": -1, "type": "FIXATION", "trial_index": 54}, "uniqueid": "MTK2660:3G5F9DBFOQ4VK5SOA3UENG9COXBVHD", "dateTime": 1519226912017}, {"current_trial": 55, "trialdata": {"rt": -1, "trial_type": "single-stim", "word": "icing", "stimulus": "<p id=\"stim\">ICING</p>", "conditions": [18, 1200, "v", 18000], "internal_node_id": "0.0-37.0", "trial": 1, "time_elapsed": 1339744, "serialpos": 0, "key_press": -1, "wordID": 731, "type": "PRES_VIS", "trial_index": 55}, "uniqueid": "MTK2660:3G5F9DBFOQ4VK5SOA3UENG9COXBVHD", "dateTime": 1519226913218}, {"current_trial": 56, "trialdata": {"rt": -1, "trial_type": "single-stim", "word": "grill", "stimulus": "<p id=\"stim\">GRILL</p>", "conditions": [18, 1200, "v", 18000], "internal_node_id": "0.0-38.0", "trial": 1, "time_elapsed": 1342013, "serialpos": 1, "key_press": -1, "wordID": 660, "type": "PRES_VIS", "trial_index": 56}, "uniqueid": "MTK2660:3G5F9DBFOQ4VK5SOA3UENG9COXBVHD", "dateTime": 1519226915487}, {"current_trial": 57, "trialdata": {"rt": -1, "trial_type": "single-stim", "word": "seagull", "stimulus": "<p id=\"stim\">SEAGULL</p>", "conditions": [18, 1200, "v", 18000], "internal_node_id": "0.0-39.0", "trial": 1, "time_elapsed": 1344326, "serialpos": 2, "key_press": -1, "wordID": 1260, "type": "PRES_VIS", "trial_index": 57}, "uniqueid": "MTK2660:3G5F9DBFOQ4VK5SOA3UENG9COXBVHD", "dateTime": 1519226917800}, {"current_trial": 58, "trialdata": {"rt": -1, "trial_type": "single-stim", "word": "convict", "stimulus": "<p id=\"stim\">CONVICT</p>", "conditions": [18, 1200, "v", 18000], "internal_node_id": "0.0-40.0", "trial": 1, "time_elapsed": 1346583, "serialpos": 3, "key_press": -1, "wordID": 370, "type": "PRES_VIS", "trial_index": 58}, "uniqueid": "MTK2660:3G5F9DBFOQ4VK5SOA3UENG9COXBVHD", "dateTime": 1519226920058}, {"current_trial": 59, "trialdata": {"rt": -1, "trial_type": "single-stim", "word": "lover", "stimulus": "<p id=\"stim\">LOVER</p>", "conditions": [18, 1200, "v", 18000], "internal_node_id": "0.0-41.0", "trial": 1, "time_elapsed": 1348661, "serialpos": 4, "key_press": -1, "wordID": 845, "type": "PRES_VIS", "trial_index": 59}, "uniqueid": "MTK2660:3G5F9DBFOQ4VK5SOA3UENG9COXBVHD", "dateTime": 1519226922135}, {"current_trial": 60, "trialdata": {"rt": -1, "trial_type": "single-stim", "word": "arm", "stimulus": "<p id=\"stim\">ARM</p>", "conditions": [18, 1200, "v", 18000], "internal_node_id": "0.0-42.0", "trial": 1, "time_elapsed": 1350666, "serialpos": 5, "key_press": -1, "wordID": 37, "type": "PRES_VIS", "trial_index": 60}, "uniqueid": "MTK2660:3G5F9DBFOQ4VK5SOA3UENG9COXBVHD", "dateTime": 1519226924140}, {"current_trial": 61, "trialdata": {"rt": -1, "trial_type": "single-stim", "word": "denim", "stimulus": "<p id=\"stim\">DENIM</p>", "conditions": [18, 1200, "v", 18000], "internal_node_id": "0.0-43.0", "trial": 1, "time_elapsed": 1352914, "serialpos": 6, "key_press": -1, "wordID": 445, "type": "PRES_VIS", "trial_index": 61}, "uniqueid": "MTK2660:3G5F9DBFOQ4VK5SOA3UENG9COXBVHD", "dateTime": 1519226926388}, {"current_trial": 62, "trialdata": {"rt": -1, "trial_type": "single-stim", "word": "guard", "stimulus": "<p id=\"stim\">GUARD</p>", "conditions": [18, 1200, "v", 18000], "internal_node_id": "0.0-44.0", "trial": 1, "time_elapsed": 1355293, "serialpos": 7, "key_press": -1, "wordID": 666, "type": "PRES_VIS", "trial_index": 62}, "uniqueid": "MTK2660:3G5F9DBFOQ4VK5SOA3UENG9COXBVHD", "dateTime": 1519226928767}, {"current_trial": 63, "trialdata": {"rt": -1, "trial_type": "single-stim", "word": "taxi", "stimulus": "<p id=\"stim\">TAXI</p>", "conditions": [18, 1200, "v", 18000], "internal_node_id": "0.0-45.0", "trial": 1, "time_elapsed": 1357452, "serialpos": 8, "key_press": -1, "wordID": 1437, "type": "PRES_VIS", "trial_index": 63}, "uniqueid": "MTK2660:3G5F9DBFOQ4VK5SOA3UENG9COXBVHD", "dateTime": 1519226930926}, {"current_trial": 64, "trialdata": {"rt": -1, "trial_type": "single-stim", "word": "crevice", "stimulus": "<p id=\"stim\">CREVICE</p>", "conditions": [18, 1200, "v", 18000], "internal_node_id": "0.0-46.0", "trial": 1, "time_elapsed": 1359660, "serialpos": 9, "key_press": -1, "wordID": 404, "type": "PRES_VIS", "trial_index": 64}, "uniqueid": "MTK2660:3G5F9DBFOQ4VK5SOA3UENG9COXBVHD", "dateTime": 1519226933134}, {"current_trial": 65, "trialdata": {"rt": -1, "trial_type": "single-stim", "word": "journal", "stimulus": "<p id=\"stim\">JOURNAL</p>", "conditions": [18, 1200, "v", 18000], "internal_node_id": "0.0-47.0", "trial": 1, "time_elapsed": 1362040, "serialpos": 10, "key_press": -1, "wordID": 759, "type": "PRES_VIS", "trial_index": 65}, "uniqueid": "MTK2660:3G5F9DBFOQ4VK5SOA3UENG9COXBVHD", "dateTime": 1519226935515}, {"current_trial": 66, "trialdata": {"rt": -1, "trial_type": "single-stim", "word": "seafood", "stimulus": "<p id=\"stim\">SEAFOOD</p>", "conditions": [18, 1200, "v", 18000], "internal_node_id": "0.0-48.0", "trial": 1, "time_elapsed": 1364152, "serialpos": 11, "key_press": -1, "wordID": 1259, "type": "PRES_VIS", "trial_index": 66}, "uniqueid": "MTK2660:3G5F9DBFOQ4VK5SOA3UENG9COXBVHD", "dateTime": 1519226937626}, {"current_trial": 67, "trialdata": {"rt": -1, "trial_type": "single-stim", "word": "match", "stimulus": "<p id=\"stim\">MATCH</p>", "conditions": [18, 1200, "v", 18000], "internal_node_id": "0.0-49.0", "trial": 1, "time_elapsed": 1366174, "serialpos": 12, "key_press": -1, "wordID": 877, "type": "PRES_VIS", "trial_index": 67}, "uniqueid": "MTK2660:3G5F9DBFOQ4VK5SOA3UENG9COXBVHD", "dateTime": 1519226939648}, {"current_trial": 68, "trialdata": {"rt": -1, "trial_type": "single-stim", "word": "clam", "stimulus": "<p id=\"stim\">CLAM</p>", "conditions": [18, 1200, "v", 18000], "internal_node_id": "0.0-50.0", "trial": 1, "time_elapsed": 1368318, "serialpos": 13, "key_press": -1, "wordID": 314, "type": "PRES_VIS", "trial_index": 68}, "uniqueid": "MTK2660:3G5F9DBFOQ4VK5SOA3UENG9COXBVHD", "dateTime": 1519226941805}, {"current_trial": 69, "trialdata": {"rt": -1, "trial_type": "single-stim", "word": "beaker", "stimulus": "<p id=\"stim\">BEAKER</p>", "conditions": [18, 1200, "v", 18000], "internal_node_id": "0.0-51.0", "trial": 1, "time_elapsed": 1370642, "serialpos": 14, "key_press": -1, "wordID": 103, "type": "PRES_VIS", "trial_index": 69}, "uniqueid": "MTK2660:3G5F9DBFOQ4VK5SOA3UENG9COXBVHD", "dateTime": 1519226944116}, {"current_trial": 70, "trialdata": {"rt": -1, "trial_type": "single-stim", "word": "sunset", "stimulus": "<p id=\"stim\">SUNSET</p>", "conditions": [18, 1200, "v", 18000], "internal_node_id": "0.0-52.0", "trial": 1, "time_elapsed": 1372838, "serialpos": 15, "key_press": -1, "wordID": 1407, "type": "PRES_VIS", "trial_index": 70}, "uniqueid": "MTK2660:3G5F9DBFOQ4VK5SOA3UENG9COXBVHD", "dateTime": 1519226946312}, {"current_trial": 71, "trialdata": {"rt": -1, "trial_type": "single-stim", "word": "victim", "stimulus": "<p id=\"stim\">VICTIM</p>", "conditions": [18, 1200, "v", 18000], "internal_node_id": "0.0-53.0", "trial": 1, "time_elapsed": 1375153, "serialpos": 16, "key_press": -1, "wordID": 1561, "type": "PRES_VIS", "trial_index": 71}, "uniqueid": "MTK2660:3G5F9DBFOQ4VK5SOA3UENG9COXBVHD", "dateTime": 1519226948627}, {"current_trial": 72, "trialdata": {"rt": -1, "trial_type": "single-stim", "word": "robber", "stimulus": "<p id=\"stim\">ROBBER</p>", "conditions": [18, 1200, "v", 18000], "internal_node_id": "0.0-54.0", "trial": 1, "time_elapsed": 1377277, "serialpos": 17, "key_press": -1, "wordID": 1196, "type": "PRES_VIS", "trial_index": 72}, "uniqueid": "MTK2660:3G5F9DBFOQ4VK5SOA3UENG9COXBVHD", "dateTime": 1519226950751}, {"current_trial": 73, "trialdata": {"rt": -1, "trial_type": "single-stim", "stimulus": "", "internal_node_id": "0.0-55.0-0.0", "time_elapsed": 1379546, "key_press": -1, "type": "PRE_RECALL_DELAY", "trial_index": 73}, "uniqueid": "MTK2660:3G5F9DBFOQ4VK5SOA3UENG9COXBVHD", "dateTime": 1519226953020}, {"current_trial": 74, "trialdata": {"rt": -1000, "trial_type": "single-audio", "stimulus": "/static/audio/400Hz.wav", "internal_node_id": "0.0-56.0", "time_elapsed": 1380048, "key_press": -1, "type": "PRE_RECALL_ALERT", "trial_index": 74}, "uniqueid": "MTK2660:3G5F9DBFOQ4VK5SOA3UENG9COXBVHD", "dateTime": 1519226953522}, {"current_trial": 75, "trialdata": {"rt": [4840, 8079, 11560, 13848, 19959, 23744, 26544, 30063, 32168, 33783, 40151, 42295, 44015, 51607, 58751], "recwords": ["robber", "victim", "clam", "match", "lover", "icing", "denim", "crevice", "seafood", "grill", "sunset", "clam", "match", "seagull", "grill"], "key_times": [3360, 3551, 3839, 3999, 4263, 4487, 4840, 5584, 5759, 5879, 6279, 6824, 7424, 8079, 9720, 9896, 10136, 10824, 11560, 12408, 12568, 12744, 13079, 13256, 13848, 18672, 18879, 19040, 19240, 19480, 19959, 22576, 22744, 22864, 23159, 23351, 23744, 25008, 25224, 25351, 25696, 26098, 26544, 28159, 28408, 28655, 28951, 29095, 29215, 29495, 30063, 30743, 30960, 31151, 31367, 31608, 31783, 31911, 32168, 32593, 32792, 32977, 33231, 33407, 33783, 35767, 37735, 37999, 38159, 38511, 38808, 40151, 40959, 41167, 41415, 41663, 42295, 42911, 43071, 43208, 43527, 43703, 44015, 47544, 47751, 47951, 48951, 49215, 49831, 49975, 50359, 50551, 51607, 57897, 58087, 58199, 58439, 58615, 58751], "trial_type": "free-recall", "conditions": [18, 1200, "v", 18000], "internal_node_id": "0.0-57.0-0.0", "key_presses": [82, 79, 66, 66, 69, 82, 32, 86, 73, 67, 84, 73, 77, 32, 67, 76, 65, 77, 32, 77, 65, 84, 67, 72, 32, 76, 79, 86, 69, 82, 32, 73, 67, 73, 78, 71, 32, 68, 69, 78, 73, 77, 32, 67, 82, 69, 86, 73, 67, 69, 32, 83, 69, 65, 70, 79, 79, 68, 32, 71, 82, 73, 76, 76, 32, 83, 85, 78, 83, 69, 84, 32, 67, 76, 65, 77, 32, 77, 65, 84, 67, 72, 32, 83, 69, 83, 8, 65, 71, 85, 76, 76, 32, 71, 82, 73, 76, 76, 32], "trial": 1, "time_elapsed": 1440051, "type": "FREE_RECALL", "trial_index": 75}, "uniqueid": "MTK2660:3G5F9DBFOQ4VK5SOA3UENG9COXBVHD", "dateTime": 1519227013528}, {"current_trial": 76, "trialdata": {"rt": 5192, "trial_type": "text", "internal_node_id": "0.0-58.0", "time_elapsed": 1447257, "key_press": 32, "type": "INSTRUCTIONS", "trial_index": 76}, "uniqueid": "MTK2660:3G5F9DBFOQ4VK5SOA3UENG9COXBVHD", "dateTime": 1519227020731}, {"current_trial": 77, "trialdata": {"rt": [4149, 6669, 11477, 13797, 15837, 18333, 22101], "trial_type": "math-distractor", "key_times": [3149, 3397, 4149, 6165, 6373, 6669, 10805, 11021, 11477, 13269, 13485, 13797, 15493, 15837, 17869, 18061, 18333, 21581, 21805, 22101, 23781, 24009], "responses": ["17", "20", "17", "10", "6", "14", "16"], "num2": [5, 9, 7, 6, 4, 1, 4, 7], "num3": [3, 9, 4, 2, 1, 8, 3, 2], "conditions": [24, 1600, "v", 24000], "internal_node_id": "0.0-59.0", "key_presses": [97, 103, 13, 98, 96, 13, 97, 103, 13, 97, 96, 13, 102, 13, 97, 100, 13, 97, 102, 13, 97, 102], "trial": 2, "time_elapsed": 1472270, "type": "DISTRACTOR", "trial_index": 77, "num1": [9, 2, 6, 2, 1, 5, 9, 7]}, "uniqueid": "MTK2660:3G5F9DBFOQ4VK5SOA3UENG9COXBVHD", "dateTime": 1519227045744}, {"current_trial": 78, "trialdata": {"rt": -1, "trial_type": "single-stim", "stimulus": "<p id=\"stim\">10</p>", "internal_node_id": "0.0-60.0-0.0", "time_elapsed": 1475273, "key_press": -1, "trial_index": 78}, "uniqueid": "MTK2660:3G5F9DBFOQ4VK5SOA3UENG9COXBVHD", "dateTime": 1519227048747}, {"current_trial": 79, "trialdata": {"rt": -1, "trial_type": "single-stim", "stimulus": "<p id=\"stim\">9</p>", "internal_node_id": "0.0-60.0-1.0", "time_elapsed": 1476275, "key_press": -1, "trial_index": 79}, "uniqueid": "MTK2660:3G5F9DBFOQ4VK5SOA3UENG9COXBVHD", "dateTime": 1519227049749}, {"current_trial": 80, "trialdata": {"rt": -1, "trial_type": "single-stim", "stimulus": "<p id=\"stim\">8</p>", "internal_node_id": "0.0-60.0-2.0", "time_elapsed": 1477277, "key_press": -1, "trial_index": 80}, "uniqueid": "MTK2660:3G5F9DBFOQ4VK5SOA3UENG9COXBVHD", "dateTime": 1519227050751}, {"current_trial": 81, "trialdata": {"rt": -1, "trial_type": "single-stim", "stimulus": "<p id=\"stim\">7</p>", "internal_node_id": "0.0-60.0-3.0", "time_elapsed": 1478278, "key_press": -1, "trial_index": 81}, "uniqueid": "MTK2660:3G5F9DBFOQ4VK5SOA3UENG9COXBVHD", "dateTime": 1519227051753}, {"current_trial": 82, "trialdata": {"rt": -1, "trial_type": "single-stim", "stimulus": "<p id=\"stim\">6</p>", "internal_node_id": "0.0-60.0-4.0", "time_elapsed": 1479280, "key_press": -1, "trial_index": 82}, "uniqueid": "MTK2660:3G5F9DBFOQ4VK5SOA3UENG9COXBVHD", "dateTime": 1519227052754}, {"current_trial": 83, "trialdata": {"rt": -1, "trial_type": "single-stim", "stimulus": "<p id=\"stim\">5</p>", "internal_node_id": "0.0-60.0-5.0", "time_elapsed": 1480282, "key_press": -1, "trial_index": 83}, "uniqueid": "MTK2660:3G5F9DBFOQ4VK5SOA3UENG9COXBVHD", "dateTime": 1519227053756}, {"current_trial": 84, "trialdata": {"rt": -1, "trial_type": "single-stim", "stimulus": "<p id=\"stim\">4</p>", "internal_node_id": "0.0-60.0-6.0", "time_elapsed": 1481283, "key_press": -1, "trial_index": 84}, "uniqueid": "MTK2660:3G5F9DBFOQ4VK5SOA3UENG9COXBVHD", "dateTime": 1519227054757}, {"current_trial": 85, "trialdata": {"rt": -1, "trial_type": "single-stim", "stimulus": "<p id=\"stim\">3</p>", "internal_node_id": "0.0-60.0-7.0", "time_elapsed": 1482284, "key_press": -1, "trial_index": 85}, "uniqueid": "MTK2660:3G5F9DBFOQ4VK5SOA3UENG9COXBVHD", "dateTime": 1519227055758}, {"current_trial": 86, "trialdata": {"rt": -1, "trial_type": "single-stim", "stimulus": "<p id=\"stim\">2</p>", "internal_node_id": "0.0-60.0-8.0", "time_elapsed": 1483286, "key_press": -1, "trial_index": 86}, "uniqueid": "MTK2660:3G5F9DBFOQ4VK5SOA3UENG9COXBVHD", "dateTime": 1519227056760}, {"current_trial": 87, "trialdata": {"rt": -1, "trial_type": "single-stim", "stimulus": "<p id=\"stim\">1</p>", "internal_node_id": "0.0-60.0-9.0", "time_elapsed": 1484288, "key_press": -1, "trial_index": 87}, "uniqueid": "MTK2660:3G5F9DBFOQ4VK5SOA3UENG9COXBVHD", "dateTime": 1519227057762}, {"current_trial": 88, "trialdata": {"rt": -1, "trial_type": "single-stim", "stimulus": "<p id=\"stim\">+</p>", "internal_node_id": "0.0-61.0-0.0", "time_elapsed": 1485790, "key_press": -1, "type": "FIXATION", "trial_index": 88}, "uniqueid": "MTK2660:3G5F9DBFOQ4VK5SOA3UENG9COXBVHD", "dateTime": 1519227059264}, {"current_trial": 89, "trialdata": {"rt": -1, "trial_type": "single-stim", "word": "sheriff", "stimulus": "<p id=\"stim\">SHERIFF</p>", "conditions": [24, 1600, "v", 24000], "internal_node_id": "0.0-62.0", "trial": 2, "time_elapsed": 1487391, "serialpos": 0, "key_press": -1, "wordID": 1283, "type": "PRES_VIS", "trial_index": 89}, "uniqueid": "MTK2660:3G5F9DBFOQ4VK5SOA3UENG9COXBVHD", "dateTime": 1519227060866}, {"current_trial": 90, "trialdata": {"rt": -1, "trial_type": "single-stim", "word": "swamp", "stimulus": "<p id=\"stim\">SWAMP</p>", "conditions": [24, 1600, "v", 24000], "internal_node_id": "0.0-63.0", "trial": 2, "time_elapsed": 1490002, "serialpos": 1, "key_press": -1, "wordID": 1415, "type": "PRES_VIS", "trial_index": 90}, "uniqueid": "MTK2660:3G5F9DBFOQ4VK5SOA3UENG9COXBVHD", "dateTime": 1519227063476}, {"current_trial": 91, "trialdata": {"rt": -1, "trial_type": "single-stim", "word": "dashboard", "stimulus": "<p id=\"stim\">DASHBOARD</p>", "conditions": [24, 1600, "v", 24000], "internal_node_id": "0.0-64.0", "trial": 2, "time_elapsed": 1492409, "serialpos": 2, "key_press": -1, "wordID": 440, "type": "PRES_VIS", "trial_index": 91}, "uniqueid": "MTK2660:3G5F9DBFOQ4VK5SOA3UENG9COXBVHD", "dateTime": 1519227065883}, {"current_trial": 92, "trialdata": {"rt": -1, "trial_type": "single-stim", "word": "elbow", "stimulus": "<p id=\"stim\">ELBOW</p>", "conditions": [24, 1600, "v", 24000], "internal_node_id": "0.0-65.0", "trial": 2, "time_elapsed": 1495114, "serialpos": 3, "key_press": -1, "wordID": 519, "type": "PRES_VIS", "trial_index": 92}, "uniqueid": "MTK2660:3G5F9DBFOQ4VK5SOA3UENG9COXBVHD", "dateTime": 1519227068588}, {"current_trial": 93, "trialdata": {"rt": -1, "trial_type": "single-stim", "word": "ankle", "stimulus": "<p id=\"stim\">ANKLE</p>", "conditions": [24, 1600, "v", 24000], "internal_node_id": "0.0-66.0", "trial": 2, "time_elapsed": 1497882, "serialpos": 4, "key_press": -1, "wordID": 23, "type": "PRES_VIS", "trial_index": 93}, "uniqueid": "MTK2660:3G5F9DBFOQ4VK5SOA3UENG9COXBVHD", "dateTime": 1519227071356}, {"current_trial": 94, "trialdata": {"rt": -1, "trial_type": "single-stim", "word": "branch", "stimulus": "<p id=\"stim\">BRANCH</p>", "conditions": [24, 1600, "v", 24000], "internal_node_id": "0.0-67.0", "trial": 2, "time_elapsed": 1500589, "serialpos": 5, "key_press": -1, "wordID": 167, "type": "PRES_VIS", "trial_index": 94}, "uniqueid": "MTK2660:3G5F9DBFOQ4VK5SOA3UENG9COXBVHD", "dateTime": 1519227074063}, {"current_trial": 95, "trialdata": {"rt": -1, "trial_type": "single-stim", "word": "county", "stimulus": "<p id=\"stim\">COUNTY</p>", "conditions": [24, 1600, "v", 24000], "internal_node_id": "0.0-68.0", "trial": 2, "time_elapsed": 1503167, "serialpos": 6, "key_press": -1, "wordID": 388, "type": "PRES_VIS", "trial_index": 95}, "uniqueid": "MTK2660:3G5F9DBFOQ4VK5SOA3UENG9COXBVHD", "dateTime": 1519227076641}, {"current_trial": 96, "trialdata": {"rt": -1, "trial_type": "single-stim", "word": "apron", "stimulus": "<p id=\"stim\">APRON</p>", "conditions": [24, 1600, "v", 24000], "internal_node_id": "0.0-69.0", "trial": 2, "time_elapsed": 1505911, "serialpos": 7, "key_press": -1, "wordID": 34, "type": "PRES_VIS", "trial_index": 96}, "uniqueid": "MTK2660:3G5F9DBFOQ4VK5SOA3UENG9COXBVHD", "dateTime": 1519227079385}, {"current_trial": 97, "trialdata": {"rt": -1, "trial_type": "single-stim", "word": "hero", "stimulus": "<p id=\"stim\">HERO</p>", "conditions": [24, 1600, "v", 24000], "internal_node_id": "0.0-70.0", "trial": 2, "time_elapsed": 1508553, "serialpos": 8, "key_press": -1, "wordID": 705, "type": "PRES_VIS", "trial_index": 97}, "uniqueid": "MTK2660:3G5F9DBFOQ4VK5SOA3UENG9COXBVHD", "dateTime": 1519227082027}, {"current_trial": 98, "trialdata": {"rt": -1, "trial_type": "single-stim", "word": "napkin", "stimulus": "<p id=\"stim\">NAPKIN</p>", "conditions": [24, 1600, "v", 24000], "internal_node_id": "0.0-71.0", "trial": 2, "time_elapsed": 1511185, "serialpos": 9, "key_press": -1, "wordID": 936, "type": "PRES_VIS", "trial_index": 98}, "uniqueid": "MTK2660:3G5F9DBFOQ4VK5SOA3UENG9COXBVHD", "dateTime": 1519227084660}, {"current_trial": 99, "trialdata": {"rt": -1, "trial_type": "single-stim", "word": "snack", "stimulus": "<p id=\"stim\">SNACK</p>", "conditions": [24, 1600, "v", 24000], "internal_node_id": "0.0-72.0", "trial": 2, "time_elapsed": 1513932, "serialpos": 10, "key_press": -1, "wordID": 1330, "type": "PRES_VIS", "trial_index": 99}, "uniqueid": "MTK2660:3G5F9DBFOQ4VK5SOA3UENG9COXBVHD", "dateTime": 1519227087406}, {"current_trial": 100, "trialdata": {"rt": -1, "trial_type": "single-stim", "word": "pecan", "stimulus": "<p id=\"stim\">PECAN</p>", "conditions": [24, 1600, "v", 24000], "internal_node_id": "0.0-73.0", "trial": 2, "time_elapsed": 1516519, "serialpos": 11, "key_press": -1, "wordID": 1035, "type": "PRES_VIS", "trial_index": 100}, "uniqueid": "MTK2660:3G5F9DBFOQ4VK5SOA3UENG9COXBVHD", "dateTime": 1519227089993}, {"current_trial": 101, "trialdata": {"rt": -1, "trial_type": "single-stim", "word": "omelet", "stimulus": "<p id=\"stim\">OMELET</p>", "conditions": [24, 1600, "v", 24000], "internal_node_id": "0.0-74.0", "trial": 2, "time_elapsed": 1518931, "serialpos": 12, "key_press": -1, "wordID": 975, "type": "PRES_VIS", "trial_index": 101}, "uniqueid": "MTK2660:3G5F9DBFOQ4VK5SOA3UENG9COXBVHD", "dateTime": 1519227092405}, {"current_trial": 102, "trialdata": {"rt": -1, "trial_type": "single-stim", "word": "pigment", "stimulus": "<p id=\"stim\">PIGMENT</p>", "conditions": [24, 1600, "v", 24000], "internal_node_id": "0.0-75.0", "trial": 2, "time_elapsed": 1521342, "serialpos": 13, "key_press": -1, "wordID": 1065, "type": "PRES_VIS", "trial_index": 102}, "uniqueid": "MTK2660:3G5F9DBFOQ4VK5SOA3UENG9COXBVHD", "dateTime": 1519227094816}, {"current_trial": 103, "trialdata": {"rt": -1, "trial_type": "single-stim", "word": "judge", "stimulus": "<p id=\"stim\">JUDGE</p>", "conditions": [24, 1600, "v", 24000], "internal_node_id": "0.0-76.0", "trial": 2, "time_elapsed": 1523831, "serialpos": 14, "key_press": -1, "wordID": 760, "type": "PRES_VIS", "trial_index": 103}, "uniqueid": "MTK2660:3G5F9DBFOQ4VK5SOA3UENG9COXBVHD", "dateTime": 1519227097306}, {"current_trial": 104, "trialdata": {"rt": -1, "trial_type": "single-stim", "word": "pasta", "stimulus": "<p id=\"stim\">PASTA</p>", "conditions": [24, 1600, "v", 24000], "internal_node_id": "0.0-77.0", "trial": 2, "time_elapsed": 1526487, "serialpos": 15, "key_press": -1, "wordID": 1020, "type": "PRES_VIS", "trial_index": 104}, "uniqueid": "MTK2660:3G5F9DBFOQ4VK5SOA3UENG9COXBVHD", "dateTime": 1519227099961}, {"current_trial": 105, "trialdata": {"rt": -1, "trial_type": "single-stim", "word": "frame", "stimulus": "<p id=\"stim\">FRAME</p>", "conditions": [24, 1600, "v", 24000], "internal_node_id": "0.0-78.0", "trial": 2, "time_elapsed": 1528931, "serialpos": 16, "key_press": -1, "wordID": 599, "type": "PRES_VIS", "trial_index": 105}, "uniqueid": "MTK2660:3G5F9DBFOQ4VK5SOA3UENG9COXBVHD", "dateTime": 1519227102405}, {"current_trial": 106, "trialdata": {"rt": -1, "trial_type": "single-stim", "word": "wrench", "stimulus": "<p id=\"stim\">WRENCH</p>", "conditions": [24, 1600, "v", 24000], "internal_node_id": "0.0-79.0", "trial": 2, "time_elapsed": 1531635, "serialpos": 17, "key_press": -1, "wordID": 1624, "type": "PRES_VIS", "trial_index": 106}, "uniqueid": "MTK2660:3G5F9DBFOQ4VK5SOA3UENG9COXBVHD", "dateTime": 1519227105109}, {"current_trial": 107, "trialdata": {"rt": -1, "trial_type": "single-stim", "word": "orchid", "stimulus": "<p id=\"stim\">ORCHID</p>", "conditions": [24, 1600, "v", 24000], "internal_node_id": "0.0-80.0", "trial": 2, "time_elapsed": 1534157, "serialpos": 18, "key_press": -1, "wordID": 981, "type": "PRES_VIS", "trial_index": 107}, "uniqueid": "MTK2660:3G5F9DBFOQ4VK5SOA3UENG9COXBVHD", "dateTime": 1519227107631}, {"current_trial": 108, "trialdata": {"rt": -1, "trial_type": "single-stim", "word": "army", "stimulus": "<p id=\"stim\">ARMY</p>", "conditions": [24, 1600, "v", 24000], "internal_node_id": "0.0-81.0", "trial": 2, "time_elapsed": 1536945, "serialpos": 19, "key_press": -1, "wordID": 38, "type": "PRES_VIS", "trial_index": 108}, "uniqueid": "MTK2660:3G5F9DBFOQ4VK5SOA3UENG9COXBVHD", "dateTime": 1519227110419}, {"current_trial": 109, "trialdata": {"rt": -1, "trial_type": "single-stim", "word": "silk", "stimulus": "<p id=\"stim\">SILK</p>", "conditions": [24, 1600, "v", 24000], "internal_node_id": "0.0-82.0", "trial": 2, "time_elapsed": 1539619, "serialpos": 20, "key_press": -1, "wordID": 1306, "type": "PRES_VIS", "trial_index": 109}, "uniqueid": "MTK2660:3G5F9DBFOQ4VK5SOA3UENG9COXBVHD", "dateTime": 1519227113093}, {"current_trial": 110, "trialdata": {"rt": -1, "trial_type": "single-stim", "word": "shoulder", "stimulus": "<p id=\"stim\">SHOULDER</p>", "conditions": [24, 1600, "v", 24000], "internal_node_id": "0.0-83.0", "trial": 2, "time_elapsed": 1542237, "serialpos": 21, "key_press": -1, "wordID": 1293, "type": "PRES_VIS", "trial_index": 110}, "uniqueid": "MTK2660:3G5F9DBFOQ4VK5SOA3UENG9COXBVHD", "dateTime": 1519227115712}, {"current_trial": 111, "trialdata": {"rt": -1, "trial_type": "single-stim", "word": "leg", "stimulus": "<p id=\"stim\">LEG</p>", "conditions": [24, 1600, "v", 24000], "internal_node_id": "0.0-84.0", "trial": 2, "time_elapsed": 1544726, "serialpos": 22, "key_press": -1, "wordID": 808, "type": "PRES_VIS", "trial_index": 111}, "uniqueid": "MTK2660:3G5F9DBFOQ4VK5SOA3UENG9COXBVHD", "dateTime": 1519227118200}, {"current_trial": 112, "trialdata": {"rt": -1, "trial_type": "single-stim", "word": "uncle", "stimulus": "<p id=\"stim\">UNCLE</p>", "conditions": [24, 1600, "v", 24000], "internal_node_id": "0.0-85.0", "trial": 2, "time_elapsed": 1547385, "serialpos": 23, "key_press": -1, "wordID": 1535, "type": "PRES_VIS", "trial_index": 112}, "uniqueid": "MTK2660:3G5F9DBFOQ4VK5SOA3UENG9COXBVHD", "dateTime": 1519227120859}, {"current_trial": 113, "trialdata": {"rt": -1, "trial_type": "single-stim", "stimulus": "", "internal_node_id": "0.0-86.0-0.0", "time_elapsed": 1549494, "key_press": -1, "type": "PRE_RECALL_DELAY", "trial_index": 113}, "uniqueid": "MTK2660:3G5F9DBFOQ4VK5SOA3UENG9COXBVHD", "dateTime": 1519227122968}, {"current_trial": 114, "trialdata": {"rt": -1000, "trial_type": "single-audio", "stimulus": "/static/audio/400Hz.wav", "internal_node_id": "0.0-87.0", "time_elapsed": 1549996, "key_press": -1, "type": "PRE_RECALL_ALERT", "trial_index": 114}, "uniqueid": "MTK2660:3G5F9DBFOQ4VK5SOA3UENG9COXBVHD", "dateTime": 1519227123470}, {"current_trial": 115, "trialdata": {"rt": [7634, 10682, 13570, 16370, 19074, 22418, 26763, 29954, 34738, 40553, 42506, 46225], "recwords": ["leg", "shoulder", "ankle", "elbow", "sheriff", "county", "hero", "judge", "pasta", "snack", "pecan", "omelet"], "key_times": [6203, 6418, 6738, 7634, 8482, 8618, 8834, 8970, 9218, 9362, 9603, 9834, 10682, 12250, 12442, 12618, 12930, 13186, 13570, 14482, 14761, 15018, 15210, 15970, 16370, 16985, 17383, 17497, 17705, 17881, 18185, 18346, 19074, 19826, 20002, 20170, 20490, 20850, 21194, 22418, 25290, 25498, 25714, 26010, 26763, 28666, 28882, 29042, 29266, 29466, 29954, 32762, 32986, 33233, 33482, 33730, 34738, 37522, 37722, 38122, 38145, 39194, 39386, 39762, 40058, 40225, 40553, 40953, 41082, 41346, 41570, 41802, 42506, 42986, 44057, 44441, 44657, 44801, 44961, 45113, 45329, 46225, 56934, 57665, 58162, 58569, 59009], "trial_type": "free-recall", "conditions": [24, 1600, "v", 24000], "internal_node_id": "0.0-88.0-0.0", "key_presses": [76, 69, 71, 32, 83, 72, 79, 85, 76, 68, 69, 82, 32, 65, 78, 75, 76, 69, 32, 69, 76, 66, 79, 87, 32, 83, 72, 69, 82, 73, 70, 70, 32, 67, 79, 85, 78, 84, 89, 32, 72, 69, 82, 79, 32, 74, 85, 68, 71, 69, 32, 80, 65, 83, 84, 65, 32, 83, 78, 83, 65, 8, 8, 65, 67, 75, 32, 80, 69, 67, 65, 78, 32, 77, 8, 79, 77, 69, 76, 69, 84, 32, 65, 80, 82, 79, 78], "trial": 2, "time_elapsed": 1610000, "type": "FREE_RECALL", "trial_index": 115}, "uniqueid": "MTK2660:3G5F9DBFOQ4VK5SOA3UENG9COXBVHD", "dateTime": 1519227183476}, {"current_trial": 116, "trialdata": {"rt": 1955, "trial_type": "text", "internal_node_id": "0.0-89.0", "time_elapsed": 1613959, "key_press": 32, "type": "INSTRUCTIONS", "trial_index": 116}, "uniqueid": "MTK2660:3G5F9DBFOQ4VK5SOA3UENG9COXBVHD", "dateTime": 1519227187433}, {"current_trial": 117, "trialdata": {"rt": [7444, 10156, 16204, 18756, 22188], "trial_type": "math-distractor", "key_times": [6701, 6836, 7444, 9516, 9732, 10156, 15868, 16044, 16204, 18229, 18492, 18756, 21701, 21964, 22188], "responses": ["22", "15", "21", "16", "18"], "num2": [7, 7, 8, 8, 3, 7], "num3": [7, 3, 9, 2, 9, 6], "conditions": [24, 800, "v", 24000], "internal_node_id": "0.0-90.0", "key_presses": [98, 98, 13, 97, 101, 13, 98, 97, 13, 97, 102, 13, 97, 104, 13], "trial": 3, "time_elapsed": 1639964, "type": "DISTRACTOR", "trial_index": 117, "num1": [8, 5, 4, 6, 6, 9]}, "uniqueid": "MTK2660:3G5F9DBFOQ4VK5SOA3UENG9COXBVHD", "dateTime": 1519227213438}, {"current_trial": 118, "trialdata": {"rt": -1, "trial_type": "single-stim", "stimulus": "<p id=\"stim\">10</p>", "internal_node_id": "0.0-91.0-0.0", "time_elapsed": 1642967, "key_press": -1, "trial_index": 118}, "uniqueid": "MTK2660:3G5F9DBFOQ4VK5SOA3UENG9COXBVHD", "dateTime": 1519227216441}, {"current_trial": 119, "trialdata": {"rt": -1, "trial_type": "single-stim", "stimulus": "<p id=\"stim\">9</p>", "internal_node_id": "0.0-91.0-1.0", "time_elapsed": 1643968, "key_press": -1, "trial_index": 119}, "uniqueid": "MTK2660:3G5F9DBFOQ4VK5SOA3UENG9COXBVHD", "dateTime": 1519227217442}, {"current_trial": 120, "trialdata": {"rt": -1, "trial_type": "single-stim", "stimulus": "<p id=\"stim\">8</p>", "internal_node_id": "0.0-91.0-2.0", "time_elapsed": 1644970, "key_press": -1, "trial_index": 120}, "uniqueid": "MTK2660:3G5F9DBFOQ4VK5SOA3UENG9COXBVHD", "dateTime": 1519227218444}, {"current_trial": 121, "trialdata": {"rt": -1, "trial_type": "single-stim", "stimulus": "<p id=\"stim\">7</p>", "internal_node_id": "0.0-91.0-3.0", "time_elapsed": 1645972, "key_press": -1, "trial_index": 121}, "uniqueid": "MTK2660:3G5F9DBFOQ4VK5SOA3UENG9COXBVHD", "dateTime": 1519227219446}, {"current_trial": 122, "trialdata": {"rt": -1, "trial_type": "single-stim", "stimulus": "<p id=\"stim\">6</p>", "internal_node_id": "0.0-91.0-4.0", "time_elapsed": 1646973, "key_press": -1, "trial_index": 122}, "uniqueid": "MTK2660:3G5F9DBFOQ4VK5SOA3UENG9COXBVHD", "dateTime": 1519227220448}, {"current_trial": 123, "trialdata": {"rt": -1, "trial_type": "single-stim", "stimulus": "<p id=\"stim\">5</p>", "internal_node_id": "0.0-91.0-5.0", "time_elapsed": 1647975, "key_press": -1, "trial_index": 123}, "uniqueid": "MTK2660:3G5F9DBFOQ4VK5SOA3UENG9COXBVHD", "dateTime": 1519227221449}, {"current_trial": 124, "trialdata": {"rt": -1, "trial_type": "single-stim", "stimulus": "<p id=\"stim\">4</p>", "internal_node_id": "0.0-91.0-6.0", "time_elapsed": 1648977, "key_press": -1, "trial_index": 124}, "uniqueid": "MTK2660:3G5F9DBFOQ4VK5SOA3UENG9COXBVHD", "dateTime": 1519227222451}, {"current_trial": 125, "trialdata": {"rt": -1, "trial_type": "single-stim", "stimulus": "<p id=\"stim\">3</p>", "internal_node_id": "0.0-91.0-7.0", "time_elapsed": 1649978, "key_press": -1, "trial_index": 125}, "uniqueid": "MTK2660:3G5F9DBFOQ4VK5SOA3UENG9COXBVHD", "dateTime": 1519227223453}, {"current_trial": 126, "trialdata": {"rt": -1, "trial_type": "single-stim", "stimulus": "<p id=\"stim\">2</p>", "internal_node_id": "0.0-91.0-8.0", "time_elapsed": 1650980, "key_press": -1, "trial_index": 126}, "uniqueid": "MTK2660:3G5F9DBFOQ4VK5SOA3UENG9COXBVHD", "dateTime": 1519227224454}, {"current_trial": 127, "trialdata": {"rt": -1, "trial_type": "single-stim", "stimulus": "<p id=\"stim\">1</p>", "internal_node_id": "0.0-91.0-9.0", "time_elapsed": 1651983, "key_press": -1, "trial_index": 127}, "uniqueid": "MTK2660:3G5F9DBFOQ4VK5SOA3UENG9COXBVHD", "dateTime": 1519227225457}, {"current_trial": 128, "trialdata": {"rt": -1, "trial_type": "single-stim", "stimulus": "<p id=\"stim\">+</p>", "internal_node_id": "0.0-92.0-0.0", "time_elapsed": 1653483, "key_press": -1, "type": "FIXATION", "trial_index": 128}, "uniqueid": "MTK2660:3G5F9DBFOQ4VK5SOA3UENG9COXBVHD", "dateTime": 1519227226958}, {"current_trial": 129, "trialdata": {"rt": -1, "trial_type": "single-stim", "word": "thief", "stimulus": "<p id=\"stim\">THIEF</p>", "conditions": [24, 800, "v", 24000], "internal_node_id": "0.0-93.0", "trial": 3, "time_elapsed": 1654285, "serialpos": 0, "key_press": -1, "wordID": 1455, "type": "PRES_VIS", "trial_index": 129}, "uniqueid": "MTK2660:3G5F9DBFOQ4VK5SOA3UENG9COXBVHD", "dateTime": 1519227227759}, {"current_trial": 130, "trialdata": {"rt": -1, "trial_type": "single-stim", "word": "burglar", "stimulus": "<p id=\"stim\">BURGLAR</p>", "conditions": [24, 800, "v", 24000], "internal_node_id": "0.0-94.0", "trial": 3, "time_elapsed": 1656007, "serialpos": 1, "key_press": -1, "wordID": 199, "type": "PRES_VIS", "trial_index": 130}, "uniqueid": "MTK2660:3G5F9DBFOQ4VK5SOA3UENG9COXBVHD", "dateTime": 1519227229481}, {"current_trial": 131, "trialdata": {"rt": -1, "trial_type": "single-stim", "word": "blueprint", "stimulus": "<p id=\"stim\">BLUEPRINT</p>", "conditions": [24, 800, "v", 24000], "internal_node_id": "0.0-95.0", "trial": 3, "time_elapsed": 1657889, "serialpos": 2, "key_press": -1, "wordID": 141, "type": "PRES_VIS", "trial_index": 131}, "uniqueid": "MTK2660:3G5F9DBFOQ4VK5SOA3UENG9COXBVHD", "dateTime": 1519227231363}, {"current_trial": 132, "trialdata": {"rt": -1, "trial_type": "single-stim", "word": "grape", "stimulus": "<p id=\"stim\">GRAPE</p>", "conditions": [24, 800, "v", 24000], "internal_node_id": "0.0-96.0", "trial": 3, "time_elapsed": 1659611, "serialpos": 3, "key_press": -1, "wordID": 653, "type": "PRES_VIS", "trial_index": 132}, "uniqueid": "MTK2660:3G5F9DBFOQ4VK5SOA3UENG9COXBVHD", "dateTime": 1519227233085}, {"current_trial": 133, "trialdata": {"rt": -1, "trial_type": "single-stim", "word": "coffee", "stimulus": "<p id=\"stim\">COFFEE</p>", "conditions": [24, 800, "v", 24000], "internal_node_id": "0.0-97.0", "trial": 3, "time_elapsed": 1661519, "serialpos": 4, "key_press": -1, "wordID": 340, "type": "PRES_VIS", "trial_index": 133}, "uniqueid": "MTK2660:3G5F9DBFOQ4VK5SOA3UENG9COXBVHD", "dateTime": 1519227234993}, {"current_trial": 134, "trialdata": {"rt": -1, "trial_type": "single-stim", "word": "tweezers", "stimulus": "<p id=\"stim\">TWEEZERS</p>", "conditions": [24, 800, "v", 24000], "internal_node_id": "0.0-98.0", "trial": 3, "time_elapsed": 1663485, "serialpos": 5, "key_press": -1, "wordID": 1525, "type": "PRES_VIS", "trial_index": 134}, "uniqueid": "MTK2660:3G5F9DBFOQ4VK5SOA3UENG9COXBVHD", "dateTime": 1519227236959}, {"current_trial": 135, "trialdata": {"rt": -1, "trial_type": "single-stim", "word": "binder", "stimulus": "<p id=\"stim\">BINDER</p>", "conditions": [24, 800, "v", 24000], "internal_node_id": "0.0-99.0", "trial": 3, "time_elapsed": 1665115, "serialpos": 6, "key_press": -1, "wordID": 126, "type": "PRES_VIS", "trial_index": 135}, "uniqueid": "MTK2660:3G5F9DBFOQ4VK5SOA3UENG9COXBVHD", "dateTime": 1519227238589}, {"current_trial": 136, "trialdata": {"rt": -1, "trial_type": "single-stim", "word": "mop", "stimulus": "<p id=\"stim\">MOP</p>", "conditions": [24, 800, "v", 24000], "internal_node_id": "0.0-100.0", "trial": 3, "time_elapsed": 1667106, "serialpos": 7, "key_press": -1, "wordID": 915, "type": "PRES_VIS", "trial_index": 136}, "uniqueid": "MTK2660:3G5F9DBFOQ4VK5SOA3UENG9COXBVHD", "dateTime": 1519227240580}, {"current_trial": 137, "trialdata": {"rt": -1, "trial_type": "single-stim", "word": "drill", "stimulus": "<p id=\"stim\">DRILL</p>", "conditions": [24, 800, "v", 24000], "internal_node_id": "0.0-101.0", "trial": 3, "time_elapsed": 1668722, "serialpos": 8, "key_press": -1, "wordID": 496, "type": "PRES_VIS", "trial_index": 137}, "uniqueid": "MTK2660:3G5F9DBFOQ4VK5SOA3UENG9COXBVHD", "dateTime": 1519227242196}, {"current_trial": 138, "trialdata": {"rt": -1, "trial_type": "single-stim", "word": "missile", "stimulus": "<p id=\"stim\">MISSILE</p>", "conditions": [24, 800, "v", 24000], "internal_node_id": "0.0-102.0", "trial": 3, "time_elapsed": 1670538, "serialpos": 9, "key_press": -1, "wordID": 899, "type": "PRES_VIS", "trial_index": 138}, "uniqueid": "MTK2660:3G5F9DBFOQ4VK5SOA3UENG9COXBVHD", "dateTime": 1519227244012}, {"current_trial": 139, "trialdata": {"rt": -1, "trial_type": "single-stim", "word": "barley", "stimulus": "<p id=\"stim\">BARLEY</p>", "conditions": [24, 800, "v", 24000], "internal_node_id": "0.0-103.0", "trial": 3, "time_elapsed": 1672258, "serialpos": 10, "key_press": -1, "wordID": 87, "type": "PRES_VIS", "trial_index": 139}, "uniqueid": "MTK2660:3G5F9DBFOQ4VK5SOA3UENG9COXBVHD", "dateTime": 1519227245732}, {"current_trial": 140, "trialdata": {"rt": -1, "trial_type": "single-stim", "word": "friend", "stimulus": "<p id=\"stim\">FRIEND</p>", "conditions": [24, 800, "v", 24000], "internal_node_id": "0.0-104.0", "trial": 3, "time_elapsed": 1674237, "serialpos": 11, "key_press": -1, "wordID": 605, "type": "PRES_VIS", "trial_index": 140}, "uniqueid": "MTK2660:3G5F9DBFOQ4VK5SOA3UENG9COXBVHD", "dateTime": 1519227247711}, {"current_trial": 141, "trialdata": {"rt": -1, "trial_type": "single-stim", "word": "bacon", "stimulus": "<p id=\"stim\">BACON</p>", "conditions": [24, 800, "v", 24000], "internal_node_id": "0.0-105.0", "trial": 3, "time_elapsed": 1676132, "serialpos": 12, "key_press": -1, "wordID": 66, "type": "PRES_VIS", "trial_index": 141}, "uniqueid": "MTK2660:3G5F9DBFOQ4VK5SOA3UENG9COXBVHD", "dateTime": 1519227249606}, {"current_trial": 142, "trialdata": {"rt": -1, "trial_type": "single-stim", "word": "parrot", "stimulus": "<p id=\"stim\">PARROT</p>", "conditions": [24, 800, "v", 24000], "internal_node_id": "0.0-106.0", "trial": 3, "time_elapsed": 1677855, "serialpos": 13, "key_press": -1, "wordID": 1014, "type": "PRES_VIS", "trial_index": 142}, "uniqueid": "MTK2660:3G5F9DBFOQ4VK5SOA3UENG9COXBVHD", "dateTime": 1519227251329}, {"current_trial": 143, "trialdata": {"rt": -1, "trial_type": "single-stim", "word": "fiddle", "stimulus": "<p id=\"stim\">FIDDLE</p>", "conditions": [24, 800, "v", 24000], "internal_node_id": "0.0-107.0", "trial": 3, "time_elapsed": 1679657, "serialpos": 14, "key_press": -1, "wordID": 560, "type": "PRES_VIS", "trial_index": 143}, "uniqueid": "MTK2660:3G5F9DBFOQ4VK5SOA3UENG9COXBVHD", "dateTime": 1519227253131}, {"current_trial": 144, "trialdata": {"rt": -1, "trial_type": "single-stim", "word": "fox", "stimulus": "<p id=\"stim\">FOX</p>", "conditions": [24, 800, "v", 24000], "internal_node_id": "0.0-108.0", "trial": 3, "time_elapsed": 1681277, "serialpos": 15, "key_press": -1, "wordID": 597, "type": "PRES_VIS", "trial_index": 144}, "uniqueid": "MTK2660:3G5F9DBFOQ4VK5SOA3UENG9COXBVHD", "dateTime": 1519227254752}, {"current_trial": 145, "trialdata": {"rt": -1, "trial_type": "single-stim", "word": "snake", "stimulus": "<p id=\"stim\">SNAKE</p>", "conditions": [24, 800, "v", 24000], "internal_node_id": "0.0-109.0", "trial": 3, "time_elapsed": 1683127, "serialpos": 16, "key_press": -1, "wordID": 1332, "type": "PRES_VIS", "trial_index": 145}, "uniqueid": "MTK2660:3G5F9DBFOQ4VK5SOA3UENG9COXBVHD", "dateTime": 1519227256602}, {"current_trial": 146, "trialdata": {"rt": -1, "trial_type": "single-stim", "word": "cabbage", "stimulus": "<p id=\"stim\">CABBAGE</p>", "conditions": [24, 800, "v", 24000], "internal_node_id": "0.0-110.0", "trial": 3, "time_elapsed": 1684882, "serialpos": 17, "key_press": -1, "wordID": 209, "type": "PRES_VIS", "trial_index": 146}, "uniqueid": "MTK2660:3G5F9DBFOQ4VK5SOA3UENG9COXBVHD", "dateTime": 1519227258356}, {"current_trial": 147, "trialdata": {"rt": -1, "trial_type": "single-stim", "word": "lily", "stimulus": "<p id=\"stim\">LILY</p>", "conditions": [24, 800, "v", 24000], "internal_node_id": "0.0-111.0", "trial": 3, "time_elapsed": 1686663, "serialpos": 18, "key_press": -1, "wordID": 820, "type": "PRES_VIS", "trial_index": 147}, "uniqueid": "MTK2660:3G5F9DBFOQ4VK5SOA3UENG9COXBVHD", "dateTime": 1519227260137}, {"current_trial": 148, "trialdata": {"rt": -1, "trial_type": "single-stim", "word": "scissors", "stimulus": "<p id=\"stim\">SCISSORS</p>", "conditions": [24, 800, "v", 24000], "internal_node_id": "0.0-112.0", "trial": 3, "time_elapsed": 1688357, "serialpos": 19, "key_press": -1, "wordID": 1249, "type": "PRES_VIS", "trial_index": 148}, "uniqueid": "MTK2660:3G5F9DBFOQ4VK5SOA3UENG9COXBVHD", "dateTime": 1519227261831}, {"current_trial": 149, "trialdata": {"rt": -1, "trial_type": "single-stim", "word": "necklace", "stimulus": "<p id=\"stim\">NECKLACE</p>", "conditions": [24, 800, "v", 24000], "internal_node_id": "0.0-113.0", "trial": 3, "time_elapsed": 1690005, "serialpos": 20, "key_press": -1, "wordID": 939, "type": "PRES_VIS", "trial_index": 149}, "uniqueid": "MTK2660:3G5F9DBFOQ4VK5SOA3UENG9COXBVHD", "dateTime": 1519227263479}, {"current_trial": 150, "trialdata": {"rt": -1, "trial_type": "single-stim", "word": "headband", "stimulus": "<p id=\"stim\">HEADBAND</p>", "conditions": [24, 800, "v", 24000], "internal_node_id": "0.0-114.0", "trial": 3, "time_elapsed": 1691866, "serialpos": 21, "key_press": -1, "wordID": 695, "type": "PRES_VIS", "trial_index": 150}, "uniqueid": "MTK2660:3G5F9DBFOQ4VK5SOA3UENG9COXBVHD", "dateTime": 1519227265340}, {"current_trial": 151, "trialdata": {"rt": -1, "trial_type": "single-stim", "word": "turnip", "stimulus": "<p id=\"stim\">TURNIP</p>", "conditions": [24, 800, "v", 24000], "internal_node_id": "0.0-115.0", "trial": 3, "time_elapsed": 1693520, "serialpos": 22, "key_press": -1, "wordID": 1520, "type": "PRES_VIS", "trial_index": 151}, "uniqueid": "MTK2660:3G5F9DBFOQ4VK5SOA3UENG9COXBVHD", "dateTime": 1519227266994}, {"current_trial": 152, "trialdata": {"rt": -1, "trial_type": "single-stim", "word": "poet", "stimulus": "<p id=\"stim\">POET</p>", "conditions": [24, 800, "v", 24000], "internal_node_id": "0.0-116.0", "trial": 3, "time_elapsed": 1695333, "serialpos": 23, "key_press": -1, "wordID": 1094, "type": "PRES_VIS", "trial_index": 152}, "uniqueid": "MTK2660:3G5F9DBFOQ4VK5SOA3UENG9COXBVHD", "dateTime": 1519227268807}, {"current_trial": 153, "trialdata": {"rt": -1, "trial_type": "single-stim", "stimulus": "", "internal_node_id": "0.0-117.0-0.0", "time_elapsed": 1697539, "key_press": -1, "type": "PRE_RECALL_DELAY", "trial_index": 153}, "uniqueid": "MTK2660:3G5F9DBFOQ4VK5SOA3UENG9COXBVHD", "dateTime": 1519227271013}, {"current_trial": 154, "trialdata": {"rt": -1000, "trial_type": "single-audio", "stimulus": "/static/audio/400Hz.wav", "internal_node_id": "0.0-118.0", "time_elapsed": 1698041, "key_press": -1, "type": "PRE_RECALL_ALERT", "trial_index": 154}, "uniqueid": "MTK2660:3G5F9DBFOQ4VK5SOA3UENG9COXBVHD", "dateTime": 1519227271515}, {"current_trial": 155, "trialdata": {"rt": [7827, 12939, 17187, 19883, 22963, 25476, 28819, 40283, 45250, 48250, 50844, 58699], "recwords": ["turnip", "cabbage", "bacon", "barley", "burglar", "thief", "coffee", "poet", "snake", "fox", "parrot", "mop"], "key_times": [4508, 4675, 5234, 5467, 6099, 6412, 7827, 10451, 10699, 10979, 11124, 11355, 11643, 11899, 12939, 15028, 15251, 15531, 15739, 16020, 17187, 17764, 17979, 18181, 18371, 18531, 18771, 19883, 21595, 21755, 21859, 22091, 22299, 22427, 22603, 22963, 23355, 23523, 23827, 24059, 24323, 25476, 27603, 27747, 27915, 28083, 28347, 28467, 28819, 39259, 39579, 39843, 40019, 40283, 43139, 43339, 43531, 43533, 43699, 44361, 44547, 44883, 45051, 45250, 45730, 45882, 46018, 48250, 49339, 49530, 49762, 49906, 50082, 50347, 50844, 56835, 57419, 57747, 58699], "trial_type": "free-recall", "conditions": [24, 800, "v", 24000], "internal_node_id": "0.0-119.0-0.0", "key_presses": [84, 85, 82, 78, 73, 80, 32, 67, 65, 66, 66, 65, 71, 69, 32, 66, 65, 67, 79, 78, 32, 66, 65, 82, 76, 69, 89, 32, 66, 85, 82, 71, 76, 65, 82, 32, 84, 72, 73, 69, 70, 32, 67, 79, 70, 70, 69, 69, 32, 80, 79, 69, 84, 32, 83, 78, 65, 83, 75, 8, 8, 75, 69, 32, 70, 79, 88, 32, 80, 65, 82, 82, 79, 84, 32, 77, 79, 80, 32], "trial": 3, "time_elapsed": 1758044, "type": "FREE_RECALL", "trial_index": 155}, "uniqueid": "MTK2660:3G5F9DBFOQ4VK5SOA3UENG9COXBVHD", "dateTime": 1519227331522}, {"current_trial": 156, "trialdata": {"rt": 1380, "trial_type": "text", "internal_node_id": "0.0-120.0", "time_elapsed": 1761429, "key_press": 32, "type": "INSTRUCTIONS", "trial_index": 156}, "uniqueid": "MTK2660:3G5F9DBFOQ4VK5SOA3UENG9COXBVHD", "dateTime": 1519227334903}, {"current_trial": 157, "trialdata": {"rt": [3061, 5596, 7525, 11204], "trial_type": "math-distractor", "key_times": [2333, 2581, 3061, 5093, 5244, 5596, 6988, 7525, 10764, 11012, 11204], "responses": ["14", "21", "1", "13"], "num2": [6, 9, 6, 7, 4], "num3": [5, 3, 9, 4, 8], "conditions": [12, 1600, "v", 12000], "internal_node_id": "0.0-121.0", "key_presses": [97, 100, 13, 98, 97, 13, 97, 13, 97, 99, 13], "trial": 4, "time_elapsed": 1775433, "type": "DISTRACTOR", "trial_index": 157, "num1": [3, 9, 4, 2, 9]}, "uniqueid": "MTK2660:3G5F9DBFOQ4VK5SOA3UENG9COXBVHD", "dateTime": 1519227348907}, {"current_trial": 158, "trialdata": {"rt": -1, "trial_type": "single-stim", "stimulus": "<p id=\"stim\">10</p>", "internal_node_id": "0.0-122.0-0.0", "time_elapsed": 1778436, "key_press": -1, "trial_index": 158}, "uniqueid": "MTK2660:3G5F9DBFOQ4VK5SOA3UENG9COXBVHD", "dateTime": 1519227351910}, {"current_trial": 159, "trialdata": {"rt": -1, "trial_type": "single-stim", "stimulus": "<p id=\"stim\">9</p>", "internal_node_id": "0.0-122.0-1.0", "time_elapsed": 1779437, "key_press": -1, "trial_index": 159}, "uniqueid": "MTK2660:3G5F9DBFOQ4VK5SOA3UENG9COXBVHD", "dateTime": 1519227352911}, {"current_trial": 160, "trialdata": {"rt": -1, "trial_type": "single-stim", "stimulus": "<p id=\"stim\">8</p>", "internal_node_id": "0.0-122.0-2.0", "time_elapsed": 1780439, "key_press": -1, "trial_index": 160}, "uniqueid": "MTK2660:3G5F9DBFOQ4VK5SOA3UENG9COXBVHD", "dateTime": 1519227353914}, {"current_trial": 161, "trialdata": {"rt": -1, "trial_type": "single-stim", "stimulus": "<p id=\"stim\">7</p>", "internal_node_id": "0.0-122.0-3.0", "time_elapsed": 1781443, "key_press": -1, "trial_index": 161}, "uniqueid": "MTK2660:3G5F9DBFOQ4VK5SOA3UENG9COXBVHD", "dateTime": 1519227354917}, {"current_trial": 162, "trialdata": {"rt": -1, "trial_type": "single-stim", "stimulus": "<p id=\"stim\">6</p>", "internal_node_id": "0.0-122.0-4.0", "time_elapsed": 1782445, "key_press": -1, "trial_index": 162}, "uniqueid": "MTK2660:3G5F9DBFOQ4VK5SOA3UENG9COXBVHD", "dateTime": 1519227355919}, {"current_trial": 163, "trialdata": {"rt": -1, "trial_type": "single-stim", "stimulus": "<p id=\"stim\">5</p>", "internal_node_id": "0.0-122.0-5.0", "time_elapsed": 1783447, "key_press": -1, "trial_index": 163}, "uniqueid": "MTK2660:3G5F9DBFOQ4VK5SOA3UENG9COXBVHD", "dateTime": 1519227356921}, {"current_trial": 164, "trialdata": {"rt": -1, "trial_type": "single-stim", "stimulus": "<p id=\"stim\">4</p>", "internal_node_id": "0.0-122.0-6.0", "time_elapsed": 1784448, "key_press": -1, "trial_index": 164}, "uniqueid": "MTK2660:3G5F9DBFOQ4VK5SOA3UENG9COXBVHD", "dateTime": 1519227357923}, {"current_trial": 165, "trialdata": {"rt": -1, "trial_type": "single-stim", "stimulus": "<p id=\"stim\">3</p>", "internal_node_id": "0.0-122.0-7.0", "time_elapsed": 1785449, "key_press": -1, "trial_index": 165}, "uniqueid": "MTK2660:3G5F9DBFOQ4VK5SOA3UENG9COXBVHD", "dateTime": 1519227358924}, {"current_trial": 166, "trialdata": {"rt": -1, "trial_type": "single-stim", "stimulus": "<p id=\"stim\">2</p>", "internal_node_id": "0.0-122.0-8.0", "time_elapsed": 1786451, "key_press": -1, "trial_index": 166}, "uniqueid": "MTK2660:3G5F9DBFOQ4VK5SOA3UENG9COXBVHD", "dateTime": 1519227359925}, {"current_trial": 167, "trialdata": {"rt": -1, "trial_type": "single-stim", "stimulus": "<p id=\"stim\">1</p>", "internal_node_id": "0.0-122.0-9.0", "time_elapsed": 1787453, "key_press": -1, "trial_index": 167}, "uniqueid": "MTK2660:3G5F9DBFOQ4VK5SOA3UENG9COXBVHD", "dateTime": 1519227360927}, {"current_trial": 168, "trialdata": {"rt": -1, "trial_type": "single-stim", "stimulus": "<p id=\"stim\">+</p>", "internal_node_id": "0.0-123.0-0.0", "time_elapsed": 1788954, "key_press": -1, "type": "FIXATION", "trial_index": 168}, "uniqueid": "MTK2660:3G5F9DBFOQ4VK5SOA3UENG9COXBVHD", "dateTime": 1519227362428}, {"current_trial": 169, "trialdata": {"rt": -1, "trial_type": "single-stim", "word": "penguin", "stimulus": "<p id=\"stim\">PENGUIN</p>", "conditions": [12, 1600, "v", 12000], "internal_node_id": "0.0-124.0", "trial": 4, "time_elapsed": 1790555, "serialpos": 0, "key_press": -1, "wordID": 1043, "type": "PRES_VIS", "trial_index": 169}, "uniqueid": "MTK2660:3G5F9DBFOQ4VK5SOA3UENG9COXBVHD", "dateTime": 1519227364029}, {"current_trial": 170, "trialdata": {"rt": -1, "trial_type": "single-stim", "word": "gavel", "stimulus": "<p id=\"stim\">GAVEL</p>", "conditions": [12, 1600, "v", 12000], "internal_node_id": "0.0-125.0", "trial": 4, "time_elapsed": 1793090, "serialpos": 1, "key_press": -1, "wordID": 626, "type": "PRES_VIS", "trial_index": 170}, "uniqueid": "MTK2660:3G5F9DBFOQ4VK5SOA3UENG9COXBVHD", "dateTime": 1519227366564}, {"current_trial": 171, "trialdata": {"rt": -1, "trial_type": "single-stim", "word": "beaver", "stimulus": "<p id=\"stim\">BEAVER</p>", "conditions": [12, 1600, "v", 12000], "internal_node_id": "0.0-126.0", "trial": 4, "time_elapsed": 1795726, "serialpos": 2, "key_press": -1, "wordID": 108, "type": "PRES_VIS", "trial_index": 171}, "uniqueid": "MTK2660:3G5F9DBFOQ4VK5SOA3UENG9COXBVHD", "dateTime": 1519227369200}, {"current_trial": 172, "trialdata": {"rt": -1, "trial_type": "single-stim", "word": "viking", "stimulus": "<p id=\"stim\">VIKING</p>", "conditions": [12, 1600, "v", 12000], "internal_node_id": "0.0-127.0", "trial": 4, "time_elapsed": 1798171, "serialpos": 3, "key_press": -1, "wordID": 1564, "type": "PRES_VIS", "trial_index": 172}, "uniqueid": "MTK2660:3G5F9DBFOQ4VK5SOA3UENG9COXBVHD", "dateTime": 1519227371645}, {"current_trial": 173, "trialdata": {"rt": -1, "trial_type": "single-stim", "word": "stone", "stimulus": "<p id=\"stim\">STONE</p>", "conditions": [12, 1600, "v", 12000], "internal_node_id": "0.0-128.0", "trial": 4, "time_elapsed": 1800885, "serialpos": 4, "key_press": -1, "wordID": 1384, "type": "PRES_VIS", "trial_index": 173}, "uniqueid": "MTK2660:3G5F9DBFOQ4VK5SOA3UENG9COXBVHD", "dateTime": 1519227374359}, {"current_trial": 174, "trialdata": {"rt": -1, "trial_type": "single-stim", "word": "glove", "stimulus": "<p id=\"stim\">GLOVE</p>", "conditions": [12, 1600, "v", 12000], "internal_node_id": "0.0-129.0", "trial": 4, "time_elapsed": 1803571, "serialpos": 5, "key_press": -1, "wordID": 641, "type": "PRES_VIS", "trial_index": 174}, "uniqueid": "MTK2660:3G5F9DBFOQ4VK5SOA3UENG9COXBVHD", "dateTime": 1519227377045}, {"current_trial": 175, "trialdata": {"rt": -1, "trial_type": "single-stim", "word": "dorm", "stimulus": "<p id=\"stim\">DORM</p>", "conditions": [12, 1600, "v", 12000], "internal_node_id": "0.0-130.0", "trial": 4, "time_elapsed": 1806346, "serialpos": 6, "key_press": -1, "wordID": 487, "type": "PRES_VIS", "trial_index": 175}, "uniqueid": "MTK2660:3G5F9DBFOQ4VK5SOA3UENG9COXBVHD", "dateTime": 1519227379820}, {"current_trial": 176, "trialdata": {"rt": -1, "trial_type": "single-stim", "word": "dragon", "stimulus": "<p id=\"stim\">DRAGON</p>", "conditions": [12, 1600, "v", 12000], "internal_node_id": "0.0-131.0", "trial": 4, "time_elapsed": 1809131, "serialpos": 7, "key_press": -1, "wordID": 491, "type": "PRES_VIS", "trial_index": 176}, "uniqueid": "MTK2660:3G5F9DBFOQ4VK5SOA3UENG9COXBVHD", "dateTime": 1519227382605}, {"current_trial": 177, "trialdata": {"rt": -1, "trial_type": "single-stim", "word": "goblin", "stimulus": "<p id=\"stim\">GOBLIN</p>", "conditions": [12, 1600, "v", 12000], "internal_node_id": "0.0-132.0", "trial": 4, "time_elapsed": 1811747, "serialpos": 8, "key_press": -1, "wordID": 644, "type": "PRES_VIS", "trial_index": 177}, "uniqueid": "MTK2660:3G5F9DBFOQ4VK5SOA3UENG9COXBVHD", "dateTime": 1519227385221}, {"current_trial": 178, "trialdata": {"rt": -1, "trial_type": "single-stim", "word": "student", "stimulus": "<p id=\"stim\">STUDENT</p>", "conditions": [12, 1600, "v", 12000], "internal_node_id": "0.0-133.0", "trial": 4, "time_elapsed": 1814195, "serialpos": 9, "key_press": -1, "wordID": 1394, "type": "PRES_VIS", "trial_index": 178}, "uniqueid": "MTK2660:3G5F9DBFOQ4VK5SOA3UENG9COXBVHD", "dateTime": 1519227387669}, {"current_trial": 179, "trialdata": {"rt": -1, "trial_type": "single-stim", "word": "widow", "stimulus": "<p id=\"stim\">WIDOW</p>", "conditions": [12, 1600, "v", 12000], "internal_node_id": "0.0-134.0", "trial": 4, "time_elapsed": 1816745, "serialpos": 10, "key_press": -1, "wordID": 1607, "type": "PRES_VIS", "trial_index": 179}, "uniqueid": "MTK2660:3G5F9DBFOQ4VK5SOA3UENG9COXBVHD", "dateTime": 1519227390219}, {"current_trial": 180, "trialdata": {"rt": -1, "trial_type": "single-stim", "word": "whistle", "stimulus": "<p id=\"stim\">WHISTLE</p>", "conditions": [12, 1600, "v", 12000], "internal_node_id": "0.0-135.0", "trial": 4, "time_elapsed": 1819536, "serialpos": 11, "key_press": -1, "wordID": 1605, "type": "PRES_VIS", "trial_index": 180}, "uniqueid": "MTK2660:3G5F9DBFOQ4VK5SOA3UENG9COXBVHD", "dateTime": 1519227393010}, {"current_trial": 181, "trialdata": {"rt": -1, "trial_type": "single-stim", "stimulus": "", "internal_node_id": "0.0-136.0-0.0", "time_elapsed": 1821772, "key_press": -1, "type": "PRE_RECALL_DELAY", "trial_index": 181}, "uniqueid": "MTK2660:3G5F9DBFOQ4VK5SOA3UENG9COXBVHD", "dateTime": 1519227395246}, {"current_trial": 182, "trialdata": {"rt": -1000, "trial_type": "single-audio", "stimulus": "/static/audio/400Hz.wav", "internal_node_id": "0.0-137.0", "time_elapsed": 1822293, "key_press": -1, "type": "PRE_RECALL_ALERT", "trial_index": 182}, "uniqueid": "MTK2660:3G5F9DBFOQ4VK5SOA3UENG9COXBVHD", "dateTime": 1519227395767}, {"current_trial": 183, "trialdata": {"rt": [5557, 7349, 17261, 19405, 23758, 25205, 32669, 35997, 48701, 56333], "recwords": ["student", "dorm", "whistle", "widow", "viking", "dragon", "beaver", "penguin", "widow", "glove"], "key_times": [4053, 4373, 4517, 4677, 4853, 4973, 5127, 5557, 6125, 6245, 6437, 6670, 7349, 15853, 15965, 16101, 16214, 16421, 16581, 16717, 17261, 18485, 18621, 18773, 18981, 19173, 19405, 22749, 22853, 23085, 23277, 23477, 23605, 23758, 24037, 24249, 24413, 24661, 24725, 24957, 25205, 31301, 31565, 31765, 32029, 32237, 32421, 32669, 34341, 34541, 34677, 34965, 35133, 35396, 35702, 35997, 47781, 47949, 48149, 48318, 48509, 48701, 55541, 55629, 55837, 55997, 56196, 56333], "trial_type": "free-recall", "conditions": [12, 1600, "v", 12000], "internal_node_id": "0.0-138.0-0.0", "key_presses": [83, 84, 85, 68, 69, 78, 84, 13, 68, 79, 82, 77, 32, 87, 72, 73, 83, 84, 76, 69, 13, 87, 73, 68, 79, 87, 13, 86, 73, 75, 73, 78, 71, 13, 68, 82, 65, 71, 79, 78, 13, 66, 69, 65, 86, 69, 82, 13, 80, 69, 78, 71, 85, 73, 78, 13, 87, 73, 68, 79, 87, 13, 71, 76, 79, 86, 69, 13], "trial": 4, "time_elapsed": 1882326, "type": "FREE_RECALL", "trial_index": 183}, "uniqueid": "MTK2660:3G5F9DBFOQ4VK5SOA3UENG9COXBVHD", "dateTime": 1519227455873}, {"current_trial": 184, "trialdata": {"rt": 2116, "trial_type": "text", "internal_node_id": "0.0-139.0", "time_elapsed": 1886516, "key_press": 32, "type": "INSTRUCTIONS", "trial_index": 184}, "uniqueid": "MTK2660:3G5F9DBFOQ4VK5SOA3UENG9COXBVHD", "dateTime": 1519227459991}, {"current_trial": 185, "trialdata": {"rt": [3341, 6564, 8988, 11245], "trial_type": "math-distractor", "key_times": [2725, 2956, 3341, 6044, 6252, 6564, 8370, 8548, 8988, 10668, 10836, 11245], "responses": ["24", "12", "19", "15"], "num2": [8, 8, 5, 9, 8], "num3": [9, 2, 7, 1, 2], "conditions": [24, 1600, "v", 12000], "internal_node_id": "0.0-140.0", "key_presses": [98, 100, 13, 97, 98, 13, 97, 105, 13, 97, 101, 13], "trial": 5, "time_elapsed": 1900520, "type": "DISTRACTOR", "trial_index": 185, "num1": [7, 2, 7, 5, 7]}, "uniqueid": "MTK2660:3G5F9DBFOQ4VK5SOA3UENG9COXBVHD", "dateTime": 1519227473994}, {"current_trial": 186, "trialdata": {"rt": -1, "trial_type": "single-stim", "stimulus": "<p id=\"stim\">10</p>", "internal_node_id": "0.0-141.0-0.0", "time_elapsed": 1903525, "key_press": -1, "trial_index": 186}, "uniqueid": "MTK2660:3G5F9DBFOQ4VK5SOA3UENG9COXBVHD", "dateTime": 1519227476999}, {"current_trial": 187, "trialdata": {"rt": -1, "trial_type": "single-stim", "stimulus": "<p id=\"stim\">9</p>", "internal_node_id": "0.0-141.0-1.0", "time_elapsed": 1904526, "key_press": -1, "trial_index": 187}, "uniqueid": "MTK2660:3G5F9DBFOQ4VK5SOA3UENG9COXBVHD", "dateTime": 1519227478000}, {"current_trial": 188, "trialdata": {"rt": -1, "trial_type": "single-stim", "stimulus": "<p id=\"stim\">8</p>", "internal_node_id": "0.0-141.0-2.0", "time_elapsed": 1905528, "key_press": -1, "trial_index": 188}, "uniqueid": "MTK2660:3G5F9DBFOQ4VK5SOA3UENG9COXBVHD", "dateTime": 1519227479002}, {"current_trial": 189, "trialdata": {"rt": -1, "trial_type": "single-stim", "stimulus": "<p id=\"stim\">7</p>", "internal_node_id": "0.0-141.0-3.0", "time_elapsed": 1906531, "key_press": -1, "trial_index": 189}, "uniqueid": "MTK2660:3G5F9DBFOQ4VK5SOA3UENG9COXBVHD", "dateTime": 1519227480005}, {"current_trial": 190, "trialdata": {"rt": -1, "trial_type": "single-stim", "stimulus": "<p id=\"stim\">6</p>", "internal_node_id": "0.0-141.0-4.0", "time_elapsed": 1907532, "key_press": -1, "trial_index": 190}, "uniqueid": "MTK2660:3G5F9DBFOQ4VK5SOA3UENG9COXBVHD", "dateTime": 1519227481007}, {"current_trial": 191, "trialdata": {"rt": -1, "trial_type": "single-stim", "stimulus": "<p id=\"stim\">5</p>", "internal_node_id": "0.0-141.0-5.0", "time_elapsed": 1908534, "key_press": -1, "trial_index": 191}, "uniqueid": "MTK2660:3G5F9DBFOQ4VK5SOA3UENG9COXBVHD", "dateTime": 1519227482008}, {"current_trial": 192, "trialdata": {"rt": -1, "trial_type": "single-stim", "stimulus": "<p id=\"stim\">4</p>", "internal_node_id": "0.0-141.0-6.0", "time_elapsed": 1909536, "key_press": -1, "trial_index": 192}, "uniqueid": "MTK2660:3G5F9DBFOQ4VK5SOA3UENG9COXBVHD", "dateTime": 1519227483010}, {"current_trial": 193, "trialdata": {"rt": -1, "trial_type": "single-stim", "stimulus": "<p id=\"stim\">3</p>", "internal_node_id": "0.0-141.0-7.0", "time_elapsed": 1910537, "key_press": -1, "trial_index": 193}, "uniqueid": "MTK2660:3G5F9DBFOQ4VK5SOA3UENG9COXBVHD", "dateTime": 1519227484012}, {"current_trial": 194, "trialdata": {"rt": -1, "trial_type": "single-stim", "stimulus": "<p id=\"stim\">2</p>", "internal_node_id": "0.0-141.0-8.0", "time_elapsed": 1911540, "key_press": -1, "trial_index": 194}, "uniqueid": "MTK2660:3G5F9DBFOQ4VK5SOA3UENG9COXBVHD", "dateTime": 1519227485014}, {"current_trial": 195, "trialdata": {"rt": -1, "trial_type": "single-stim", "stimulus": "<p id=\"stim\">1</p>", "internal_node_id": "0.0-141.0-9.0", "time_elapsed": 1912541, "key_press": -1, "trial_index": 195}, "uniqueid": "MTK2660:3G5F9DBFOQ4VK5SOA3UENG9COXBVHD", "dateTime": 1519227486015}, {"current_trial": 196, "trialdata": {"rt": -1, "trial_type": "single-stim", "stimulus": "<p id=\"stim\">+</p>", "internal_node_id": "0.0-142.0-0.0", "time_elapsed": 1914043, "key_press": -1, "type": "FIXATION", "trial_index": 196}, "uniqueid": "MTK2660:3G5F9DBFOQ4VK5SOA3UENG9COXBVHD", "dateTime": 1519227487517}, {"current_trial": 197, "trialdata": {"rt": -1, "trial_type": "single-stim", "word": "pistol", "stimulus": "<p id=\"stim\">PISTOL</p>", "conditions": [24, 1600, "v", 12000], "internal_node_id": "0.0-143.0", "trial": 5, "time_elapsed": 1915645, "serialpos": 0, "key_press": -1, "wordID": 1074, "type": "PRES_VIS", "trial_index": 197}, "uniqueid": "MTK2660:3G5F9DBFOQ4VK5SOA3UENG9COXBVHD", "dateTime": 1519227489119}, {"current_trial": 198, "trialdata": {"rt": -1, "trial_type": "single-stim", "word": "blade", "stimulus": "<p id=\"stim\">BLADE</p>", "conditions": [24, 1600, "v", 12000], "internal_node_id": "0.0-144.0", "trial": 5, "time_elapsed": 1918060, "serialpos": 1, "key_press": -1, "wordID": 133, "type": "PRES_VIS", "trial_index": 198}, "uniqueid": "MTK2660:3G5F9DBFOQ4VK5SOA3UENG9COXBVHD", "dateTime": 1519227491534}, {"current_trial": 199, "trialdata": {"rt": -1, "trial_type": "single-stim", "word": "gazelle", "stimulus": "<p id=\"stim\">GAZELLE</p>", "conditions": [24, 1600, "v", 12000], "internal_node_id": "0.0-145.0", "trial": 5, "time_elapsed": 1920679, "serialpos": 2, "key_press": -1, "wordID": 627, "type": "PRES_VIS", "trial_index": 199}, "uniqueid": "MTK2660:3G5F9DBFOQ4VK5SOA3UENG9COXBVHD", "dateTime": 1519227494153}, {"current_trial": 200, "trialdata": {"rt": -1, "trial_type": "single-stim", "word": "quail", "stimulus": "<p id=\"stim\">QUAIL</p>", "conditions": [24, 1600, "v", 12000], "internal_node_id": "0.0-146.0", "trial": 5, "time_elapsed": 1923225, "serialpos": 3, "key_press": -1, "wordID": 1146, "type": "PRES_VIS", "trial_index": 200}, "uniqueid": "MTK2660:3G5F9DBFOQ4VK5SOA3UENG9COXBVHD", "dateTime": 1519227496699}, {"current_trial": 201, "trialdata": {"rt": -1, "trial_type": "single-stim", "word": "knife", "stimulus": "<p id=\"stim\">KNIFE</p>", "conditions": [24, 1600, "v", 12000], "internal_node_id": "0.0-147.0", "trial": 5, "time_elapsed": 1925852, "serialpos": 4, "key_press": -1, "wordID": 784, "type": "PRES_VIS", "trial_index": 201}, "uniqueid": "MTK2660:3G5F9DBFOQ4VK5SOA3UENG9COXBVHD", "dateTime": 1519227499326}, {"current_trial": 202, "trialdata": {"rt": -1, "trial_type": "single-stim", "word": "radish", "stimulus": "<p id=\"stim\">RADISH</p>", "conditions": [24, 1600, "v", 12000], "internal_node_id": "0.0-148.0", "trial": 5, "time_elapsed": 1928534, "serialpos": 5, "key_press": -1, "wordID": 1157, "type": "PRES_VIS", "trial_index": 202}, "uniqueid": "MTK2660:3G5F9DBFOQ4VK5SOA3UENG9COXBVHD", "dateTime": 1519227502008}, {"current_trial": 203, "trialdata": {"rt": -1, "trial_type": "single-stim", "word": "onion", "stimulus": "<p id=\"stim\">ONION</p>", "conditions": [24, 1600, "v", 12000], "internal_node_id": "0.0-149.0", "trial": 5, "time_elapsed": 1931269, "serialpos": 6, "key_press": -1, "wordID": 976, "type": "PRES_VIS", "trial_index": 203}, "uniqueid": "MTK2660:3G5F9DBFOQ4VK5SOA3UENG9COXBVHD", "dateTime": 1519227504744}, {"current_trial": 204, "trialdata": {"rt": -1, "trial_type": "single-stim", "word": "trombone", "stimulus": "<p id=\"stim\">TROMBONE</p>", "conditions": [24, 1600, "v", 12000], "internal_node_id": "0.0-150.0", "trial": 5, "time_elapsed": 1933836, "serialpos": 7, "key_press": -1, "wordID": 1507, "type": "PRES_VIS", "trial_index": 204}, "uniqueid": "MTK2660:3G5F9DBFOQ4VK5SOA3UENG9COXBVHD", "dateTime": 1519227507311}, {"current_trial": 205, "trialdata": {"rt": -1, "trial_type": "single-stim", "word": "child", "stimulus": "<p id=\"stim\">CHILD</p>", "conditions": [24, 1600, "v", 12000], "internal_node_id": "0.0-151.0", "trial": 5, "time_elapsed": 1936500, "serialpos": 8, "key_press": -1, "wordID": 298, "type": "PRES_VIS", "trial_index": 205}, "uniqueid": "MTK2660:3G5F9DBFOQ4VK5SOA3UENG9COXBVHD", "dateTime": 1519227509974}, {"current_trial": 206, "trialdata": {"rt": -1, "trial_type": "single-stim", "word": "wrist", "stimulus": "<p id=\"stim\">WRIST</p>", "conditions": [24, 1600, "v", 12000], "internal_node_id": "0.0-152.0", "trial": 5, "time_elapsed": 1939246, "serialpos": 9, "key_press": -1, "wordID": 1625, "type": "PRES_VIS", "trial_index": 206}, "uniqueid": "MTK2660:3G5F9DBFOQ4VK5SOA3UENG9COXBVHD", "dateTime": 1519227512720}, {"current_trial": 207, "trialdata": {"rt": -1, "trial_type": "single-stim", "word": "termite", "stimulus": "<p id=\"stim\">TERMITE</p>", "conditions": [24, 1600, "v", 12000], "internal_node_id": "0.0-153.0", "trial": 5, "time_elapsed": 1941771, "serialpos": 10, "key_press": -1, "wordID": 1450, "type": "PRES_VIS", "trial_index": 207}, "uniqueid": "MTK2660:3G5F9DBFOQ4VK5SOA3UENG9COXBVHD", "dateTime": 1519227515245}, {"current_trial": 208, "trialdata": {"rt": -1, "trial_type": "single-stim", "word": "typist", "stimulus": "<p id=\"stim\">TYPIST</p>", "conditions": [24, 1600, "v", 12000], "internal_node_id": "0.0-154.0", "trial": 5, "time_elapsed": 1944281, "serialpos": 11, "key_press": -1, "wordID": 1531, "type": "PRES_VIS", "trial_index": 208}, "uniqueid": "MTK2660:3G5F9DBFOQ4VK5SOA3UENG9COXBVHD", "dateTime": 1519227517755}, {"current_trial": 209, "trialdata": {"rt": -1, "trial_type": "single-stim", "word": "pork", "stimulus": "<p id=\"stim\">PORK</p>", "conditions": [24, 1600, "v", 12000], "internal_node_id": "0.0-155.0", "trial": 5, "time_elapsed": 1946908, "serialpos": 12, "key_press": -1, "wordID": 1107, "type": "PRES_VIS", "trial_index": 209}, "uniqueid": "MTK2660:3G5F9DBFOQ4VK5SOA3UENG9COXBVHD", "dateTime": 1519227520382}, {"current_trial": 210, "trialdata": {"rt": -1, "trial_type": "single-stim", "word": "outfit", "stimulus": "<p id=\"stim\">OUTFIT</p>", "conditions": [24, 1600, "v", 12000], "internal_node_id": "0.0-156.0", "trial": 5, "time_elapsed": 1949345, "serialpos": 13, "key_press": -1, "wordID": 987, "type": "PRES_VIS", "trial_index": 210}, "uniqueid": "MTK2660:3G5F9DBFOQ4VK5SOA3UENG9COXBVHD", "dateTime": 1519227522819}, {"current_trial": 211, "trialdata": {"rt": -1, "trial_type": "single-stim", "word": "whiskers", "stimulus": "<p id=\"stim\">WHISKERS</p>", "conditions": [24, 1600, "v", 12000], "internal_node_id": "0.0-157.0", "trial": 5, "time_elapsed": 1952083, "serialpos": 14, "key_press": -1, "wordID": 1604, "type": "PRES_VIS", "trial_index": 211}, "uniqueid": "MTK2660:3G5F9DBFOQ4VK5SOA3UENG9COXBVHD", "dateTime": 1519227525557}, {"current_trial": 212, "trialdata": {"rt": -1, "trial_type": "single-stim", "word": "beef", "stimulus": "<p id=\"stim\">BEEF</p>", "conditions": [24, 1600, "v", 12000], "internal_node_id": "0.0-158.0", "trial": 5, "time_elapsed": 1954686, "serialpos": 15, "key_press": -1, "wordID": 112, "type": "PRES_VIS", "trial_index": 212}, "uniqueid": "MTK2660:3G5F9DBFOQ4VK5SOA3UENG9COXBVHD", "dateTime": 1519227528160}, {"current_trial": 213, "trialdata": {"rt": -1, "trial_type": "single-stim", "word": "report", "stimulus": "<p id=\"stim\">REPORT</p>", "conditions": [24, 1600, "v", 12000], "internal_node_id": "0.0-159.0", "trial": 5, "time_elapsed": 1957397, "serialpos": 16, "key_press": -1, "wordID": 1183, "type": "PRES_VIS", "trial_index": 213}, "uniqueid": "MTK2660:3G5F9DBFOQ4VK5SOA3UENG9COXBVHD", "dateTime": 1519227530871}, {"current_trial": 214, "trialdata": {"rt": -1, "trial_type": "single-stim", "word": "survey", "stimulus": "<p id=\"stim\">SURVEY</p>", "conditions": [24, 1600, "v", 12000], "internal_node_id": "0.0-160.0", "trial": 5, "time_elapsed": 1959991, "serialpos": 17, "key_press": -1, "wordID": 1413, "type": "PRES_VIS", "trial_index": 214}, "uniqueid": "MTK2660:3G5F9DBFOQ4VK5SOA3UENG9COXBVHD", "dateTime": 1519227533466}, {"current_trial": 215, "trialdata": {"rt": -1, "trial_type": "single-stim", "word": "egypt", "stimulus": "<p id=\"stim\">EGYPT</p>", "conditions": [24, 1600, "v", 12000], "internal_node_id": "0.0-161.0", "trial": 5, "time_elapsed": 1962727, "serialpos": 18, "key_press": -1, "wordID": 518, "type": "PRES_VIS", "trial_index": 215}, "uniqueid": "MTK2660:3G5F9DBFOQ4VK5SOA3UENG9COXBVHD", "dateTime": 1519227536201}, {"current_trial": 216, "trialdata": {"rt": -1, "trial_type": "single-stim", "word": "world", "stimulus": "<p id=\"stim\">WORLD</p>", "conditions": [24, 1600, "v", 12000], "internal_node_id": "0.0-162.0", "trial": 5, "time_elapsed": 1965215, "serialpos": 19, "key_press": -1, "wordID": 1621, "type": "PRES_VIS", "trial_index": 216}, "uniqueid": "MTK2660:3G5F9DBFOQ4VK5SOA3UENG9COXBVHD", "dateTime": 1519227538689}, {"current_trial": 217, "trialdata": {"rt": -1, "trial_type": "single-stim", "word": "drink", "stimulus": "<p id=\"stim\">DRINK</p>", "conditions": [24, 1600, "v", 12000], "internal_node_id": "0.0-163.0", "trial": 5, "time_elapsed": 1967826, "serialpos": 20, "key_press": -1, "wordID": 497, "type": "PRES_VIS", "trial_index": 217}, "uniqueid": "MTK2660:3G5F9DBFOQ4VK5SOA3UENG9COXBVHD", "dateTime": 1519227541300}, {"current_trial": 218, "trialdata": {"rt": -1, "trial_type": "single-stim", "word": "pigeon", "stimulus": "<p id=\"stim\">PIGEON</p>", "conditions": [24, 1600, "v", 12000], "internal_node_id": "0.0-164.0", "trial": 5, "time_elapsed": 1970328, "serialpos": 21, "key_press": -1, "wordID": 1064, "type": "PRES_VIS", "trial_index": 218}, "uniqueid": "MTK2660:3G5F9DBFOQ4VK5SOA3UENG9COXBVHD", "dateTime": 1519227543802}, {"current_trial": 219, "trialdata": {"rt": -1, "trial_type": "single-stim", "word": "nightgown", "stimulus": "<p id=\"stim\">NIGHTGOWN</p>", "conditions": [24, 1600, "v", 12000], "internal_node_id": "0.0-165.0", "trial": 5, "time_elapsed": 1972849, "serialpos": 22, "key_press": -1, "wordID": 952, "type": "PRES_VIS", "trial_index": 219}, "uniqueid": "MTK2660:3G5F9DBFOQ4VK5SOA3UENG9COXBVHD", "dateTime": 1519227546323}, {"current_trial": 220, "trialdata": {"rt": -1, "trial_type": "single-stim", "word": "parsley", "stimulus": "<p id=\"stim\">PARSLEY</p>", "conditions": [24, 1600, "v", 12000], "internal_node_id": "0.0-166.0", "trial": 5, "time_elapsed": 1975420, "serialpos": 23, "key_press": -1, "wordID": 1015, "type": "PRES_VIS", "trial_index": 220}, "uniqueid": "MTK2660:3G5F9DBFOQ4VK5SOA3UENG9COXBVHD", "dateTime": 1519227548894}, {"current_trial": 221, "trialdata": {"rt": -1, "trial_type": "single-stim", "stimulus": "", "internal_node_id": "0.0-167.0-0.0", "time_elapsed": 1977829, "key_press": -1, "type": "PRE_RECALL_DELAY", "trial_index": 221}, "uniqueid": "MTK2660:3G5F9DBFOQ4VK5SOA3UENG9COXBVHD", "dateTime": 1519227551303}, {"current_trial": 222, "trialdata": {"rt": -1000, "trial_type": "single-audio", "stimulus": "/static/audio/400Hz.wav", "internal_node_id": "0.0-168.0", "time_elapsed": 1978330, "key_press": -1, "type": "PRE_RECALL_ALERT", "trial_index": 222}, "uniqueid": "MTK2660:3G5F9DBFOQ4VK5SOA3UENG9COXBVHD", "dateTime": 1519227551804}, {"current_trial": 223, "trialdata": {"rt": [2631, 5686, 13351, 19382, 22855, 25350, 28070, 29846, 34398, 36470, 47230, 49614, 56566, 58014], "recwords": ["blade", "knife", "pigeon", "quail", "pork", "beef", "report", "survey", "radish", "onion", "egypt", "world", "nightgown", "outfit"], "key_times": [1463, 1615, 1759, 2095, 2335, 2631, 3719, 3944, 4151, 4471, 5014, 5686, 10838, 11158, 11374, 11655, 11806, 12111, 13351, 17975, 18214, 18486, 18678, 19014, 19382, 21855, 22134, 22311, 22527, 22855, 23582, 23814, 24135, 24486, 25350, 27006, 27222, 27366, 27606, 27726, 27886, 28070, 28406, 28598, 28750, 29018, 29198, 29390, 29846, 33135, 33390, 33694, 33862, 33944, 34110, 34398, 34742, 35078, 35246, 35422, 35758, 36470, 45550, 46206, 46470, 46686, 46966, 47230, 47598, 47742, 47902, 48134, 48520, 49614, 54494, 54710, 54854, 54958, 55094, 55879, 56030, 56118, 56302, 56566, 56950, 57094, 57286, 57550, 57686, 57830, 58014], "trial_type": "free-recall", "conditions": [24, 1600, "v", 12000], "internal_node_id": "0.0-169.0-0.0", "key_presses": [66, 76, 65, 68, 69, 13, 75, 78, 73, 70, 69, 13, 80, 73, 71, 69, 79, 78, 13, 81, 85, 65, 73, 76, 13, 80, 79, 82, 75, 13, 66, 69, 69, 70, 13, 82, 69, 80, 79, 82, 84, 13, 83, 85, 82, 86, 69, 89, 13, 82, 65, 68, 73, 83, 72, 13, 79, 78, 73, 79, 78, 13, 69, 71, 89, 80, 84, 13, 87, 79, 82, 76, 68, 13, 78, 73, 71, 72, 84, 71, 79, 87, 78, 13, 79, 85, 84, 70, 73, 84, 13], "trial": 5, "time_elapsed": 2038334, "type": "FREE_RECALL", "trial_index": 223}, "uniqueid": "MTK2660:3G5F9DBFOQ4VK5SOA3UENG9COXBVHD", "dateTime": 1519227611812}, {"current_trial": 224, "trialdata": {"rt": 5454, "trial_type": "text", "internal_node_id": "0.0-170.0", "time_elapsed": 2045794, "key_press": 32, "type": "INSTRUCTIONS", "trial_index": 224}, "uniqueid": "MTK2660:3G5F9DBFOQ4VK5SOA3UENG9COXBVHD", "dateTime": 1519227619268}, {"current_trial": 225, "trialdata": {"rt": [3326, 5502, 10198, 13926, 16022, 18390, 20862, 23246], "trial_type": "math-distractor", "key_times": [2502, 2710, 3326, 4710, 5502, 9718, 9982, 10198, 12990, 13214, 13926, 15566, 15758, 16022, 17894, 18102, 18390, 20390, 20606, 20862, 22710, 22910, 23246], "responses": ["20", "1", "24", "20", "15", "10", "13", "19"], "num2": [6, 9, 6, 7, 7, 2, 6, 8, 9], "num3": [8, 7, 9, 4, 1, 6, 6, 8, 3], "conditions": [12, 1600, "v", 24000], "internal_node_id": "0.0-171.0", "key_presses": [98, 96, 13, 97, 13, 98, 100, 13, 98, 96, 13, 97, 101, 13, 97, 96, 13, 97, 99, 13, 97, 105, 13], "trial": 6, "time_elapsed": 2071797, "type": "DISTRACTOR", "trial_index": 225, "num1": [6, 1, 9, 9, 7, 2, 1, 3, 8]}, "uniqueid": "MTK2660:3G5F9DBFOQ4VK5SOA3UENG9COXBVHD", "dateTime": 1519227645271}, {"current_trial": 226, "trialdata": {"rt": -1, "trial_type": "single-stim", "stimulus": "<p id=\"stim\">10</p>", "internal_node_id": "0.0-172.0-0.0", "time_elapsed": 2074800, "key_press": -1, "trial_index": 226}, "uniqueid": "MTK2660:3G5F9DBFOQ4VK5SOA3UENG9COXBVHD", "dateTime": 1519227648274}, {"current_trial": 227, "trialdata": {"rt": -1, "trial_type": "single-stim", "stimulus": "<p id=\"stim\">9</p>", "internal_node_id": "0.0-172.0-1.0", "time_elapsed": 2075801, "key_press": -1, "trial_index": 227}, "uniqueid": "MTK2660:3G5F9DBFOQ4VK5SOA3UENG9COXBVHD", "dateTime": 1519227649276}, {"current_trial": 228, "trialdata": {"rt": -1, "trial_type": "single-stim", "stimulus": "<p id=\"stim\">8</p>", "internal_node_id": "0.0-172.0-2.0", "time_elapsed": 2076803, "key_press": -1, "trial_index": 228}, "uniqueid": "MTK2660:3G5F9DBFOQ4VK5SOA3UENG9COXBVHD", "dateTime": 1519227650277}, {"current_trial": 229, "trialdata": {"rt": -1, "trial_type": "single-stim", "stimulus": "<p id=\"stim\">7</p>", "internal_node_id": "0.0-172.0-3.0", "time_elapsed": 2077805, "key_press": -1, "trial_index": 229}, "uniqueid": "MTK2660:3G5F9DBFOQ4VK5SOA3UENG9COXBVHD", "dateTime": 1519227651279}, {"current_trial": 230, "trialdata": {"rt": -1, "trial_type": "single-stim", "stimulus": "<p id=\"stim\">6</p>", "internal_node_id": "0.0-172.0-4.0", "time_elapsed": 2078806, "key_press": -1, "trial_index": 230}, "uniqueid": "MTK2660:3G5F9DBFOQ4VK5SOA3UENG9COXBVHD", "dateTime": 1519227652280}, {"current_trial": 231, "trialdata": {"rt": -1, "trial_type": "single-stim", "stimulus": "<p id=\"stim\">5</p>", "internal_node_id": "0.0-172.0-5.0", "time_elapsed": 2079808, "key_press": -1, "trial_index": 231}, "uniqueid": "MTK2660:3G5F9DBFOQ4VK5SOA3UENG9COXBVHD", "dateTime": 1519227653282}, {"current_trial": 232, "trialdata": {"rt": -1, "trial_type": "single-stim", "stimulus": "<p id=\"stim\">4</p>", "internal_node_id": "0.0-172.0-6.0", "time_elapsed": 2080809, "key_press": -1, "trial_index": 232}, "uniqueid": "MTK2660:3G5F9DBFOQ4VK5SOA3UENG9COXBVHD", "dateTime": 1519227654283}, {"current_trial": 233, "trialdata": {"rt": -1, "trial_type": "single-stim", "stimulus": "<p id=\"stim\">3</p>", "internal_node_id": "0.0-172.0-7.0", "time_elapsed": 2081810, "key_press": -1, "trial_index": 233}, "uniqueid": "MTK2660:3G5F9DBFOQ4VK5SOA3UENG9COXBVHD", "dateTime": 1519227655284}, {"current_trial": 234, "trialdata": {"rt": -1, "trial_type": "single-stim", "stimulus": "<p id=\"stim\">2</p>", "internal_node_id": "0.0-172.0-8.0", "time_elapsed": 2082812, "key_press": -1, "trial_index": 234}, "uniqueid": "MTK2660:3G5F9DBFOQ4VK5SOA3UENG9COXBVHD", "dateTime": 1519227656286}, {"current_trial": 235, "trialdata": {"rt": -1, "trial_type": "single-stim", "stimulus": "<p id=\"stim\">1</p>", "internal_node_id": "0.0-172.0-9.0", "time_elapsed": 2083814, "key_press": -1, "trial_index": 235}, "uniqueid": "MTK2660:3G5F9DBFOQ4VK5SOA3UENG9COXBVHD", "dateTime": 1519227657288}, {"current_trial": 236, "trialdata": {"rt": -1, "trial_type": "single-stim", "stimulus": "<p id=\"stim\">+</p>", "internal_node_id": "0.0-173.0-0.0", "time_elapsed": 2085316, "key_press": -1, "type": "FIXATION", "trial_index": 236}, "uniqueid": "MTK2660:3G5F9DBFOQ4VK5SOA3UENG9COXBVHD", "dateTime": 1519227658791}, {"current_trial": 237, "trialdata": {"rt": -1, "trial_type": "single-stim", "word": "servant", "stimulus": "<p id=\"stim\">SERVANT</p>", "conditions": [12, 1600, "v", 24000], "internal_node_id": "0.0-174.0", "trial": 6, "time_elapsed": 2086918, "serialpos": 0, "key_press": -1, "wordID": 1270, "type": "PRES_VIS", "trial_index": 237}, "uniqueid": "MTK2660:3G5F9DBFOQ4VK5SOA3UENG9COXBVHD", "dateTime": 1519227660393}, {"current_trial": 238, "trialdata": {"rt": -1, "trial_type": "single-stim", "word": "marrow", "stimulus": "<p id=\"stim\">MARROW</p>", "conditions": [12, 1600, "v", 24000], "internal_node_id": "0.0-175.0", "trial": 6, "time_elapsed": 2089363, "serialpos": 1, "key_press": -1, "wordID": 871, "type": "PRES_VIS", "trial_index": 238}, "uniqueid": "MTK2660:3G5F9DBFOQ4VK5SOA3UENG9COXBVHD", "dateTime": 1519227662837}, {"current_trial": 239, "trialdata": {"rt": -1, "trial_type": "single-stim", "word": "sticker", "stimulus": "<p id=\"stim\">STICKER</p>", "conditions": [12, 1600, "v", 24000], "internal_node_id": "0.0-176.0", "trial": 6, "time_elapsed": 2091975, "serialpos": 2, "key_press": -1, "wordID": 1381, "type": "PRES_VIS", "trial_index": 239}, "uniqueid": "MTK2660:3G5F9DBFOQ4VK5SOA3UENG9COXBVHD", "dateTime": 1519227665449}, {"current_trial": 240, "trialdata": {"rt": -1, "trial_type": "single-stim", "word": "mummy", "stimulus": "<p id=\"stim\">MUMMY</p>", "conditions": [12, 1600, "v", 24000], "internal_node_id": "0.0-177.0", "trial": 6, "time_elapsed": 2094390, "serialpos": 3, "key_press": -1, "wordID": 931, "type": "PRES_VIS", "trial_index": 240}, "uniqueid": "MTK2660:3G5F9DBFOQ4VK5SOA3UENG9COXBVHD", "dateTime": 1519227667864}, {"current_trial": 241, "trialdata": {"rt": -1, "trial_type": "single-stim", "word": "popcorn", "stimulus": "<p id=\"stim\">POPCORN</p>", "conditions": [12, 1600, "v", 24000], "internal_node_id": "0.0-178.0", "trial": 6, "time_elapsed": 2097121, "serialpos": 4, "key_press": -1, "wordID": 1103, "type": "PRES_VIS", "trial_index": 241}, "uniqueid": "MTK2660:3G5F9DBFOQ4VK5SOA3UENG9COXBVHD", "dateTime": 1519227670595}, {"current_trial": 242, "trialdata": {"rt": -1, "trial_type": "single-stim", "word": "package", "stimulus": "<p id=\"stim\">PACKAGE</p>", "conditions": [12, 1600, "v", 24000], "internal_node_id": "0.0-179.0", "trial": 6, "time_elapsed": 2099597, "serialpos": 5, "key_press": -1, "wordID": 996, "type": "PRES_VIS", "trial_index": 242}, "uniqueid": "MTK2660:3G5F9DBFOQ4VK5SOA3UENG9COXBVHD", "dateTime": 1519227673071}, {"current_trial": 243, "trialdata": {"rt": -1, "trial_type": "single-stim", "word": "gift", "stimulus": "<p id=\"stim\">GIFT</p>", "conditions": [12, 1600, "v", 24000], "internal_node_id": "0.0-180.0", "trial": 6, "time_elapsed": 2102175, "serialpos": 6, "key_press": -1, "wordID": 634, "type": "PRES_VIS", "trial_index": 243}, "uniqueid": "MTK2660:3G5F9DBFOQ4VK5SOA3UENG9COXBVHD", "dateTime": 1519227675649}, {"current_trial": 244, "trialdata": {"rt": -1, "trial_type": "single-stim", "word": "spider", "stimulus": "<p id=\"stim\">SPIDER</p>", "conditions": [12, 1600, "v", 24000], "internal_node_id": "0.0-181.0", "trial": 6, "time_elapsed": 2104589, "serialpos": 7, "key_press": -1, "wordID": 1350, "type": "PRES_VIS", "trial_index": 244}, "uniqueid": "MTK2660:3G5F9DBFOQ4VK5SOA3UENG9COXBVHD", "dateTime": 1519227678063}, {"current_trial": 245, "trialdata": {"rt": -1, "trial_type": "single-stim", "word": "wasp", "stimulus": "<p id=\"stim\">WASP</p>", "conditions": [12, 1600, "v", 24000], "internal_node_id": "0.0-182.0", "trial": 6, "time_elapsed": 2107054, "serialpos": 8, "key_press": -1, "wordID": 1592, "type": "PRES_VIS", "trial_index": 245}, "uniqueid": "MTK2660:3G5F9DBFOQ4VK5SOA3UENG9COXBVHD", "dateTime": 1519227680528}, {"current_trial": 246, "trialdata": {"rt": -1, "trial_type": "single-stim", "word": "table", "stimulus": "<p id=\"stim\">TABLE</p>", "conditions": [12, 1600, "v", 24000], "internal_node_id": "0.0-183.0", "trial": 6, "time_elapsed": 2109739, "serialpos": 9, "key_p