{"assignmentId": "3PPTZCWALRRP6IW1UQ6BH0E92XIZQL", "workerId": "MTK2272", "questiondata": {"avail_screen_height": 1080, "color_depth": 24, "screen_width": 1920, "pixel_depth": 24, "avail_screen_width": 1920, "screen_height": 1080}, "bonus": 0, "hitId": "34HEO7RUG61MUR5Z5BAAGD1L668RAU", "counterbalance": 70, "useragent": "Mozilla/5.0 (Windows NT 6.3; Win64; x64; rv:57.0) Gecko/20100101 Firefox/57.0", "eventdata": [{"eventtype": "initialized", "interval": 0, "value": null, "timestamp": 1516908830066}, {"eventtype": "window_resize", "interval": 0, "value": [957, 1014], "timestamp": 1516908830066}, {"eventtype": "window_resize", "interval": 9253, "value": [1030, 1014], "timestamp": 1516908839319}, {"eventtype": "window_resize", "interval": 1147, "value": [1723, 1014], "timestamp": 1516908840466}, {"eventtype": "window_resize", "interval": 974, "value": [1001, 1014], "timestamp": 1516908841440}, {"eventtype": "focus", "interval": 442, "value": "off", "timestamp": 1516908841882}, {"eventtype": "focus", "interval": 17251, "value": "on", "timestamp": 1516908859133}, {"eventtype": "focus", "interval": 51391, "value": "off", "timestamp": 1516908910524}, {"eventtype": "focus", "interval": 10290, "value": "on", "timestamp": 1516908920814}, {"eventtype": "focus", "interval": 5805, "value": "off", "timestamp": 1516908926619}, {"eventtype": "focus", "interval": 3112, "value": "on", "timestamp": 1516908929731}, {"eventtype": "focus", "interval": 3116, "value": "off", "timestamp": 1516908932847}, {"eventtype": "focus", "interval": 5913, "value": "on", "timestamp": 1516908938760}, {"eventtype": "focus", "interval": 6819, "value": "off", "timestamp": 1516908945579}, {"eventtype": "focus", "interval": 3159, "value": "on", "timestamp": 1516908948738}, {"eventtype": "focus", "interval": 161477, "value": "off", "timestamp": 1516909110215}, {"eventtype": "window_resize", "interval": 209, "value": [1005, 1015], "timestamp": 1516909110424}, {"eventtype": "focus", "interval": 3524, "value": "on", "timestamp": 1516909113948}, {"eventtype": "focus", "interval": 53576, "value": "off", "timestamp": 1516909167524}, {"eventtype": "focus", "interval": 1962, "value": "on", "timestamp": 1516909169486}, {"eventtype": "window_resize", "interval": 191, "value": [1001, 1014], "timestamp": 1516909169677}, {"eventtype": "focus", "interval": 638765, "value": "off", "timestamp": 1516909808442}, {"eventtype": "focus", "interval": 21057, "value": "on", "timestamp": 1516909829499}, {"eventtype": "focus", "interval": 1851, "value": "off", "timestamp": 1516909831350}, {"eventtype": "focus", "interval": 4677, "value": "on", "timestamp": 1516909836027}, {"eventtype": "focus", "interval": 524892, "value": "off", "timestamp": 1516910360919}, {"eventtype": "focus", "interval": 34644, "value": "on", "timestamp": 1516910395563}, {"eventtype": "focus", "interval": 1619, "value": "off", "timestamp": 1516910397182}, {"eventtype": "focus", "interval": 71703, "value": "on", "timestamp": 1516910468885}, {"eventtype": "focus", "interval": 811300, "value": "off", "timestamp": 1516911280185}, {"eventtype": "focus", "interval": 209281, "value": "on", "timestamp": 1516911489466}, {"eventtype": "focus", "interval": 526554, "value": "off", "timestamp": 1516912016020}, {"eventtype": "focus", "interval": 17072, "value": "on", "timestamp": 1516912033092}, {"eventtype": "focus", "interval": 42866, "value": "off", "timestamp": 1516912075958}], "data": [{"current_trial": 0, "trialdata": {"rt": 5901, "trial_type": "text", "internal_node_id": "0.0-0.0", "time_elapsed": 5901, "key_press": 32, "type": "INSTRUCTIONS", "trial_index": 0}, "uniqueid": "MTK2272:3PPTZCWALRRP6IW1UQ6BH0E92XIZQL", "dateTime": 1516908865500}, {"current_trial": 1, "trialdata": {"rt": 57231, "trial_type": "text", "internal_node_id": "0.0-1.0", "time_elapsed": 63134, "key_press": 32, "type": "INSTRUCTIONS", "trial_index": 1}, "uniqueid": "MTK2272:3PPTZCWALRRP6IW1UQ6BH0E92XIZQL", "dateTime": 1516908922732}, {"current_trial": 2, "trialdata": {"rt": [19392], "trial_type": "audio-test", "responses": ["ocean"], "internal_node_id": "0.0-2.0", "time_elapsed": 82573, "type": "AUDIO_TEST", "trial_index": 2}, "uniqueid": "MTK2272:3PPTZCWALRRP6IW1UQ6BH0E92XIZQL", "dateTime": 1516908942172}, {"current_trial": 3, "trialdata": {"rt": [9818], "trial_type": "audio-test", "responses": ["crystal"], "internal_node_id": "0.0-3.0", "time_elapsed": 92398, "type": "AUDIO_TEST", "trial_index": 3}, "uniqueid": "MTK2272:3PPTZCWALRRP6IW1UQ6BH0E92XIZQL", "dateTime": 1516908951996}, {"current_trial": 4, "trialdata": {"rt": [6753], "trial_type": "audio-test", "responses": ["spice"], "internal_node_id": "0.0-4.0", "time_elapsed": 99158, "type": "AUDIO_TEST", "trial_index": 4}, "uniqueid": "MTK2272:3PPTZCWALRRP6IW1UQ6BH0E92XIZQL", "dateTime": 1516908958756}, {"current_trial": 5, "trialdata": {"rt": 27518, "trial_type": "survey-text", "responses": "{\"Q0\":\"11:00 pm\",\"Q1\":\"6:00 am\",\"Q2\":\"5\"}", "internal_node_id": "0.0-5.0", "time_elapsed": 127429, "type": "SLEEP_SURVEY", "trial_index": 5}, "uniqueid": "MTK2272:3PPTZCWALRRP6IW1UQ6BH0E92XIZQL", "dateTime": 1516908987027}, {"current_trial": 6, "trialdata": {"rt": 23064, "trial_type": "text", "internal_node_id": "0.0-6.0", "time_elapsed": 151496, "key_press": 32, "type": "INSTRUCTIONS", "trial_index": 6}, "uniqueid": "MTK2272:3PPTZCWALRRP6IW1UQ6BH0E92XIZQL", "dateTime": 1516909011094}, {"current_trial": 7, "trialdata": {"rt": 10400, "trial_type": "text", "internal_node_id": "0.0-7.0", "time_elapsed": 162398, "key_press": 32, "type": "INSTRUCTIONS", "trial_index": 7}, "uniqueid": "MTK2272:3PPTZCWALRRP6IW1UQ6BH0E92XIZQL", "dateTime": 1516909021996}, {"current_trial": 8, "trialdata": {"rt": 6529, "trial_type": "text", "internal_node_id": "0.0-8.0", "time_elapsed": 169430, "key_press": 32, "type": "INSTRUCTIONS", "trial_index": 8}, "uniqueid": "MTK2272:3PPTZCWALRRP6IW1UQ6BH0E92XIZQL", "dateTime": 1516909029028}, {"current_trial": 9, "trialdata": {"rt": [3967, 6407, 9719, 12807, 14807, 16671], "trial_type": "math-distractor", "key_times": [2856, 3465, 3967, 5951, 6407, 8216, 8871, 9719, 12255, 12406, 12807, 14274, 14630, 14807, 16079, 16481, 16671, 17910], "responses": ["16", "6", "18", "11", "15", "16"], "num2": [5, 3, 8, 2, 9, 5, 1], "num3": [6, 2, 8, 7, 2, 5, 7], "conditions": [18, 1200, "a", 18000], "internal_node_id": "0.0-9.0", "key_presses": [49, 54, 13, 54, 13, 49, 56, 13, 49, 49, 13, 49, 53, 13, 49, 54, 13, 49], "trial": 0, "time_elapsed": 188439, "type": "DISTRACTOR", "trial_index": 9, "num1": [5, 1, 2, 2, 4, 6, 9]}, "uniqueid": "MTK2272:3PPTZCWALRRP6IW1UQ6BH0E92XIZQL", "dateTime": 1516909048038}, {"current_trial": 10, "trialdata": {"rt": -1, "trial_type": "single-stim", "stimulus": "<p id=\"stim\">10</p>", "internal_node_id": "0.0-10.0-0.0", "time_elapsed": 191443, "key_press": -1, "trial_index": 10}, "uniqueid": "MTK2272:3PPTZCWALRRP6IW1UQ6BH0E92XIZQL", "dateTime": 1516909051041}, {"current_trial": 11, "trialdata": {"rt": -1, "trial_type": "single-stim", "stimulus": "<p id=\"stim\">9</p>", "internal_node_id": "0.0-10.0-1.0", "time_elapsed": 192444, "key_press": -1, "trial_index": 11}, "uniqueid": "MTK2272:3PPTZCWALRRP6IW1UQ6BH0E92XIZQL", "dateTime": 1516909052042}, {"current_trial": 12, "trialdata": {"rt": -1, "trial_type": "single-stim", "stimulus": "<p id=\"stim\">8</p>", "internal_node_id": "0.0-10.0-2.0", "time_elapsed": 193446, "key_press": -1, "trial_index": 12}, "uniqueid": "MTK2272:3PPTZCWALRRP6IW1UQ6BH0E92XIZQL", "dateTime": 1516909053044}, {"current_trial": 13, "trialdata": {"rt": -1, "trial_type": "single-stim", "stimulus": "<p id=\"stim\">7</p>", "internal_node_id": "0.0-10.0-3.0", "time_elapsed": 194448, "key_press": -1, "trial_index": 13}, "uniqueid": "MTK2272:3PPTZCWALRRP6IW1UQ6BH0E92XIZQL", "dateTime": 1516909054047}, {"current_trial": 14, "trialdata": {"rt": -1, "trial_type": "single-stim", "stimulus": "<p id=\"stim\">6</p>", "internal_node_id": "0.0-10.0-4.0", "time_elapsed": 195450, "key_press": -1, "trial_index": 14}, "uniqueid": "MTK2272:3PPTZCWALRRP6IW1UQ6BH0E92XIZQL", "dateTime": 1516909055048}, {"current_trial": 15, "trialdata": {"rt": -1, "trial_type": "single-stim", "stimulus": "<p id=\"stim\">5</p>", "internal_node_id": "0.0-10.0-5.0", "time_elapsed": 196451, "key_press": -1, "trial_index": 15}, "uniqueid": "MTK2272:3PPTZCWALRRP6IW1UQ6BH0E92XIZQL", "dateTime": 1516909056049}, {"current_trial": 16, "trialdata": {"rt": -1, "trial_type": "single-stim", "stimulus": "<p id=\"stim\">4</p>", "internal_node_id": "0.0-10.0-6.0", "time_elapsed": 197453, "key_press": -1, "trial_index": 16}, "uniqueid": "MTK2272:3PPTZCWALRRP6IW1UQ6BH0E92XIZQL", "dateTime": 1516909057051}, {"current_trial": 17, "trialdata": {"rt": -1, "trial_type": "single-stim", "stimulus": "<p id=\"stim\">3</p>", "internal_node_id": "0.0-10.0-7.0", "time_elapsed": 198454, "key_press": -1, "trial_index": 17}, "uniqueid": "MTK2272:3PPTZCWALRRP6IW1UQ6BH0E92XIZQL", "dateTime": 1516909058052}, {"current_trial": 18, "trialdata": {"rt": -1, "trial_type": "single-stim", "stimulus": "<p id=\"stim\">2</p>", "internal_node_id": "0.0-10.0-8.0", "time_elapsed": 199456, "key_press": -1, "trial_index": 18}, "uniqueid": "MTK2272:3PPTZCWALRRP6IW1UQ6BH0E92XIZQL", "dateTime": 1516909059054}, {"current_trial": 19, "trialdata": {"rt": -1, "trial_type": "single-stim", "stimulus": "<p id=\"stim\">1</p>", "internal_node_id": "0.0-10.0-9.0", "time_elapsed": 200457, "key_press": -1, "trial_index": 19}, "uniqueid": "MTK2272:3PPTZCWALRRP6IW1UQ6BH0E92XIZQL", "dateTime": 1516909060056}, {"current_trial": 20, "trialdata": {"rt": -1, "trial_type": "single-stim", "stimulus": "<p id=\"stim\">+</p>", "internal_node_id": "0.0-11.0-0.0", "time_elapsed": 201959, "key_press": -1, "type": "FIXATION", "trial_index": 20}, "uniqueid": "MTK2272:3PPTZCWALRRP6IW1UQ6BH0E92XIZQL", "dateTime": 1516909061558}, {"current_trial": 21, "trialdata": {"rt": -1000, "trial_type": "single-audio", "word": "garden", "stimulus": "/static/audio/wordpool/GARDEN.wav", "conditions": [18, 1200, "a", 18000], "internal_node_id": "0.0-12.0", "trial": 0, "time_elapsed": 204068, "serialpos": 0, "key_press": -1, "wordID": 622, "type": "PRES_AUD", "trial_index": 21}, "uniqueid": "MTK2272:3PPTZCWALRRP6IW1UQ6BH0E92XIZQL", "dateTime": 1516909063666}, {"current_trial": 22, "trialdata": {"rt": -1000, "trial_type": "single-audio", "word": "peach", "stimulus": "/static/audio/wordpool/PEACH.wav", "conditions": [18, 1200, "a", 18000], "internal_node_id": "0.0-13.0", "trial": 0, "time_elapsed": 206460, "serialpos": 1, "key_press": -1, "wordID": 1030, "type": "PRES_AUD", "trial_index": 22}, "uniqueid": "MTK2272:3PPTZCWALRRP6IW1UQ6BH0E92XIZQL", "dateTime": 1516909066058}, {"current_trial": 23, "trialdata": {"rt": -1000, "trial_type": "single-audio", "word": "diner", "stimulus": "/static/audio/wordpool/DINER.wav", "conditions": [18, 1200, "a", 18000], "internal_node_id": "0.0-14.0", "trial": 0, "time_elapsed": 208601, "serialpos": 2, "key_press": -1, "wordID": 466, "type": "PRES_AUD", "trial_index": 23}, "uniqueid": "MTK2272:3PPTZCWALRRP6IW1UQ6BH0E92XIZQL", "dateTime": 1516909068199}, {"current_trial": 24, "trialdata": {"rt": -1000, "trial_type": "single-audio", "word": "bouquet", "stimulus": "/static/audio/wordpool/BOUQUET.wav", "conditions": [18, 1200, "a", 18000], "internal_node_id": "0.0-15.0", "trial": 0, "time_elapsed": 210813, "serialpos": 3, "key_press": -1, "wordID": 156, "type": "PRES_AUD", "trial_index": 24}, "uniqueid": "MTK2272:3PPTZCWALRRP6IW1UQ6BH0E92XIZQL", "dateTime": 1516909070411}, {"current_trial": 25, "trialdata": {"rt": -1000, "trial_type": "single-audio", "word": "hound", "stimulus": "/static/audio/wordpool/HOUND.wav", "conditions": [18, 1200, "a", 18000], "internal_node_id": "0.0-16.0", "trial": 0, "time_elapsed": 212910, "serialpos": 4, "key_press": -1, "wordID": 723, "type": "PRES_AUD", "trial_index": 25}, "uniqueid": "MTK2272:3PPTZCWALRRP6IW1UQ6BH0E92XIZQL", "dateTime": 1516909072508}, {"current_trial": 26, "trialdata": {"rt": -1000, "trial_type": "single-audio", "word": "palace", "stimulus": "/static/audio/wordpool/PALACE.wav", "conditions": [18, 1200, "a", 18000], "internal_node_id": "0.0-17.0", "trial": 0, "time_elapsed": 215193, "serialpos": 5, "key_press": -1, "wordID": 1005, "type": "PRES_AUD", "trial_index": 26}, "uniqueid": "MTK2272:3PPTZCWALRRP6IW1UQ6BH0E92XIZQL", "dateTime": 1516909074791}, {"current_trial": 27, "trialdata": {"rt": -1000, "trial_type": "single-audio", "word": "dandruff", "stimulus": "/static/audio/wordpool/DANDRUFF.wav", "conditions": [18, 1200, "a", 18000], "internal_node_id": "0.0-18.0", "trial": 0, "time_elapsed": 217437, "serialpos": 6, "key_press": -1, "wordID": 438, "type": "PRES_AUD", "trial_index": 27}, "uniqueid": "MTK2272:3PPTZCWALRRP6IW1UQ6BH0E92XIZQL", "dateTime": 1516909077035}, {"current_trial": 28, "trialdata": {"rt": -1000, "trial_type": "single-audio", "word": "tuba", "stimulus": "/static/audio/wordpool/TUBA.wav", "conditions": [18, 1200, "a", 18000], "internal_node_id": "0.0-19.0", "trial": 0, "time_elapsed": 219662, "serialpos": 7, "key_press": -1, "wordID": 1514, "type": "PRES_AUD", "trial_index": 28}, "uniqueid": "MTK2272:3PPTZCWALRRP6IW1UQ6BH0E92XIZQL", "dateTime": 1516909079260}, {"current_trial": 29, "trialdata": {"rt": -1000, "trial_type": "single-audio", "word": "empire", "stimulus": "/static/audio/wordpool/EMPIRE.wav", "conditions": [18, 1200, "a", 18000], "internal_node_id": "0.0-20.0", "trial": 0, "time_elapsed": 221865, "serialpos": 8, "key_press": -1, "wordID": 529, "type": "PRES_AUD", "trial_index": 29}, "uniqueid": "MTK2272:3PPTZCWALRRP6IW1UQ6BH0E92XIZQL", "dateTime": 1516909081463}, {"current_trial": 30, "trialdata": {"rt": -1000, "trial_type": "single-audio", "word": "canyon", "stimulus": "/static/audio/wordpool/CANYON.wav", "conditions": [18, 1200, "a", 18000], "internal_node_id": "0.0-21.0", "trial": 0, "time_elapsed": 224150, "serialpos": 9, "key_press": -1, "wordID": 234, "type": "PRES_AUD", "trial_index": 30}, "uniqueid": "MTK2272:3PPTZCWALRRP6IW1UQ6BH0E92XIZQL", "dateTime": 1516909083748}, {"current_trial": 31, "trialdata": {"rt": -1000, "trial_type": "single-audio", "word": "ground", "stimulus": "/static/audio/wordpool/GROUND.wav", "conditions": [18, 1200, "a", 18000], "internal_node_id": "0.0-22.0", "trial": 0, "time_elapsed": 226523, "serialpos": 10, "key_press": -1, "wordID": 665, "type": "PRES_AUD", "trial_index": 31}, "uniqueid": "MTK2272:3PPTZCWALRRP6IW1UQ6BH0E92XIZQL", "dateTime": 1516909086121}, {"current_trial": 32, "trialdata": {"rt": -1000, "trial_type": "single-audio", "word": "washer", "stimulus": "/static/audio/wordpool/WASHER.wav", "conditions": [18, 1200, "a", 18000], "internal_node_id": "0.0-23.0", "trial": 0, "time_elapsed": 228873, "serialpos": 11, "key_press": -1, "wordID": 1591, "type": "PRES_AUD", "trial_index": 32}, "uniqueid": "MTK2272:3PPTZCWALRRP6IW1UQ6BH0E92XIZQL", "dateTime": 1516909088472}, {"current_trial": 33, "trialdata": {"rt": -1000, "trial_type": "single-audio", "word": "film", "stimulus": "/static/audio/wordpool/FILM.wav", "conditions": [18, 1200, "a", 18000], "internal_node_id": "0.0-24.0", "trial": 0, "time_elapsed": 231189, "serialpos": 12, "key_press": -1, "wordID": 564, "type": "PRES_AUD", "trial_index": 33}, "uniqueid": "MTK2272:3PPTZCWALRRP6IW1UQ6BH0E92XIZQL", "dateTime": 1516909090787}, {"current_trial": 34, "trialdata": {"rt": -1000, "trial_type": "single-audio", "word": "cattle", "stimulus": "/static/audio/wordpool/CATTLE.wav", "conditions": [18, 1200, "a", 18000], "internal_node_id": "0.0-25.0", "trial": 0, "time_elapsed": 233307, "serialpos": 13, "key_press": -1, "wordID": 260, "type": "PRES_AUD", "trial_index": 34}, "uniqueid": "MTK2272:3PPTZCWALRRP6IW1UQ6BH0E92XIZQL", "dateTime": 1516909092905}, {"current_trial": 35, "trialdata": {"rt": -1000, "trial_type": "single-audio", "word": "fireman", "stimulus": "/static/audio/wordpool/FIREMAN.wav", "conditions": [18, 1200, "a", 18000], "internal_node_id": "0.0-26.0", "trial": 0, "time_elapsed": 235576, "serialpos": 14, "key_press": -1, "wordID": 568, "type": "PRES_AUD", "trial_index": 35}, "uniqueid": "MTK2272:3PPTZCWALRRP6IW1UQ6BH0E92XIZQL", "dateTime": 1516909095174}, {"current_trial": 36, "trialdata": {"rt": -1000, "trial_type": "single-audio", "word": "drawing", "stimulus": "/static/audio/wordpool/DRAWING.wav", "conditions": [18, 1200, "a", 18000], "internal_node_id": "0.0-27.0", "trial": 0, "time_elapsed": 237626, "serialpos": 15, "key_press": -1, "wordID": 493, "type": "PRES_AUD", "trial_index": 36}, "uniqueid": "MTK2272:3PPTZCWALRRP6IW1UQ6BH0E92XIZQL", "dateTime": 1516909097224}, {"current_trial": 37, "trialdata": {"rt": -1000, "trial_type": "single-audio", "word": "temple", "stimulus": "/static/audio/wordpool/TEMPLE.wav", "conditions": [18, 1200, "a", 18000], "internal_node_id": "0.0-28.0", "trial": 0, "time_elapsed": 239651, "serialpos": 16, "key_press": -1, "wordID": 1447, "type": "PRES_AUD", "trial_index": 37}, "uniqueid": "MTK2272:3PPTZCWALRRP6IW1UQ6BH0E92XIZQL", "dateTime": 1516909099249}, {"current_trial": 38, "trialdata": {"rt": -1000, "trial_type": "single-audio", "word": "author", "stimulus": "/static/audio/wordpool/AUTHOR.wav", "conditions": [18, 1200, "a", 18000], "internal_node_id": "0.0-29.0", "trial": 0, "time_elapsed": 241930, "serialpos": 17, "key_press": -1, "wordID": 60, "type": "PRES_AUD", "trial_index": 38}, "uniqueid": "MTK2272:3PPTZCWALRRP6IW1UQ6BH0E92XIZQL", "dateTime": 1516909101528}, {"current_trial": 39, "trialdata": {"rt": -1, "trial_type": "single-stim", "stimulus": "", "internal_node_id": "0.0-30.0-0.0", "time_elapsed": 243315, "key_press": -1, "type": "PRE_RECALL_DELAY", "trial_index": 39}, "uniqueid": "MTK2272:3PPTZCWALRRP6IW1UQ6BH0E92XIZQL", "dateTime": 1516909102913}, {"current_trial": 40, "trialdata": {"rt": -1000, "trial_type": "single-audio", "stimulus": "/static/audio/400Hz.wav", "internal_node_id": "0.0-31.0", "time_elapsed": 243816, "key_press": -1, "type": "PRE_RECALL_ALERT", "trial_index": 40}, "uniqueid": "MTK2272:3PPTZCWALRRP6IW1UQ6BH0E92XIZQL", "dateTime": 1516909103414}, {"current_trial": 41, "trialdata": {"rt": [12539, 16746, 20480, 25851, 31531, 36731, 38363, 44883], "recwords": ["garden", "peach", "diner", "boquet", "palace", "tuba", "empire", "pound"], "key_times": [5292, 5413, 6069, 6275, 6443, 6548, 12539, 14979, 15131, 15348, 15595, 15764, 16746, 19595, 19819, 19963, 20059, 20268, 20480, 24155, 24387, 24724, 24916, 25139, 25475, 25851, 28860, 30043, 30339, 30483, 30813, 30947, 31531, 35739, 35924, 36195, 36387, 36731, 36979, 37131, 37330, 37740, 37900, 38107, 38363, 43732, 43867, 44163, 44379, 44715, 44883], "trial_type": "free-recall", "conditions": [18, 1200, "a", 18000], "internal_node_id": "0.0-32.0-0.0", "key_presses": [71, 65, 82, 68, 69, 78, 13, 80, 69, 65, 67, 72, 13, 68, 73, 78, 69, 82, 13, 66, 79, 81, 85, 69, 84, 13, 80, 65, 76, 65, 67, 69, 13, 84, 85, 66, 65, 13, 69, 77, 80, 73, 82, 69, 13, 80, 79, 85, 78, 68, 13], "trial": 0, "time_elapsed": 303818, "type": "FREE_RECALL", "trial_index": 41}, "uniqueid": "MTK2272:3PPTZCWALRRP6IW1UQ6BH0E92XIZQL", "dateTime": 1516909163418}, {"current_trial": 42, "trialdata": {"rt": 6191, "trial_type": "text", "internal_node_id": "0.0-33.0", "time_elapsed": 312014, "key_press": 32, "type": "INSTRUCTIONS", "trial_index": 42}, "uniqueid": "MTK2272:3PPTZCWALRRP6IW1UQ6BH0E92XIZQL", "dateTime": 1516909171612}, {"current_trial": 43, "trialdata": {"rt": [3108, 4540, 7068, 8532, 10012, 11987, 14004, 15660], "trial_type": "math-distractor", "key_times": [2485, 2693, 3108, 4164, 4333, 4540, 6118, 6797, 7068, 8196, 8277, 8532, 9582, 9812, 10012, 11629, 11820, 11987, 13540, 13790, 14004, 15259, 15493, 15660, 17853], "responses": ["21", "11", "19", "12", "17", "24", "17", "14"], "num2": [6, 5, 7, 4, 5, 9, 2, 3, 9], "num3": [9, 1, 3, 4, 7, 6, 9, 2, 6], "conditions": [18, 1200, "a", 18000], "internal_node_id": "0.0-34.0", "key_presses": [98, 97, 13, 97, 97, 13, 97, 105, 13, 97, 98, 13, 97, 103, 13, 98, 100, 13, 97, 103, 13, 97, 100, 13, 98], "trial": 1, "time_elapsed": 332019, "type": "DISTRACTOR", "trial_index": 43, "num1": [6, 5, 9, 4, 5, 9, 6, 9, 6]}, "uniqueid": "MTK2272:3PPTZCWALRRP6IW1UQ6BH0E92XIZQL", "dateTime": 1516909191617}, {"current_trial": 44, "trialdata": {"rt": -1, "trial_type": "single-stim", "stimulus": "<p id=\"stim\">10</p>", "internal_node_id": "0.0-35.0-0.0", "time_elapsed": 335021, "key_press": -1, "trial_index": 44}, "uniqueid": "MTK2272:3PPTZCWALRRP6IW1UQ6BH0E92XIZQL", "dateTime": 1516909194619}, {"current_trial": 45, "trialdata": {"rt": -1, "trial_type": "single-stim", "stimulus": "<p id=\"stim\">9</p>", "internal_node_id": "0.0-35.0-1.0", "time_elapsed": 336023, "key_press": -1, "trial_index": 45}, "uniqueid": "MTK2272:3PPTZCWALRRP6IW1UQ6BH0E92XIZQL", "dateTime": 1516909195621}, {"current_trial": 46, "trialdata": {"rt": -1, "trial_type": "single-stim", "stimulus": "<p id=\"stim\">8</p>", "internal_node_id": "0.0-35.0-2.0", "time_elapsed": 337024, "key_press": -1, "trial_index": 46}, "uniqueid": "MTK2272:3PPTZCWALRRP6IW1UQ6BH0E92XIZQL", "dateTime": 1516909196623}, {"current_trial": 47, "trialdata": {"rt": -1, "trial_type": "single-stim", "stimulus": "<p id=\"stim\">7</p>", "internal_node_id": "0.0-35.0-3.0", "time_elapsed": 338026, "key_press": -1, "trial_index": 47}, "uniqueid": "MTK2272:3PPTZCWALRRP6IW1UQ6BH0E92XIZQL", "dateTime": 1516909197624}, {"current_trial": 48, "trialdata": {"rt": -1, "trial_type": "single-stim", "stimulus": "<p id=\"stim\">6</p>", "internal_node_id": "0.0-35.0-4.0", "time_elapsed": 339027, "key_press": -1, "trial_index": 48}, "uniqueid": "MTK2272:3PPTZCWALRRP6IW1UQ6BH0E92XIZQL", "dateTime": 1516909198625}, {"current_trial": 49, "trialdata": {"rt": -1, "trial_type": "single-stim", "stimulus": "<p id=\"stim\">5</p>", "internal_node_id": "0.0-35.0-5.0", "time_elapsed": 340027, "key_press": -1, "trial_index": 49}, "uniqueid": "MTK2272:3PPTZCWALRRP6IW1UQ6BH0E92XIZQL", "dateTime": 1516909199625}, {"current_trial": 50, "trialdata": {"rt": -1, "trial_type": "single-stim", "stimulus": "<p id=\"stim\">4</p>", "internal_node_id": "0.0-35.0-6.0", "time_elapsed": 341029, "key_press": -1, "trial_index": 50}, "uniqueid": "MTK2272:3PPTZCWALRRP6IW1UQ6BH0E92XIZQL", "dateTime": 1516909200627}, {"current_trial": 51, "trialdata": {"rt": -1, "trial_type": "single-stim", "stimulus": "<p id=\"stim\">3</p>", "internal_node_id": "0.0-35.0-7.0", "time_elapsed": 342031, "key_press": -1, "trial_index": 51}, "uniqueid": "MTK2272:3PPTZCWALRRP6IW1UQ6BH0E92XIZQL", "dateTime": 1516909201629}, {"current_trial": 52, "trialdata": {"rt": -1, "trial_type": "single-stim", "stimulus": "<p id=\"stim\">2</p>", "internal_node_id": "0.0-35.0-8.0", "time_elapsed": 343031, "key_press": -1, "trial_index": 52}, "uniqueid": "MTK2272:3PPTZCWALRRP6IW1UQ6BH0E92XIZQL", "dateTime": 1516909202630}, {"current_trial": 53, "trialdata": {"rt": -1, "trial_type": "single-stim", "stimulus": "<p id=\"stim\">1</p>", "internal_node_id": "0.0-35.0-9.0", "time_elapsed": 344033, "key_press": -1, "trial_index": 53}, "uniqueid": "MTK2272:3PPTZCWALRRP6IW1UQ6BH0E92XIZQL", "dateTime": 1516909203631}, {"current_trial": 54, "trialdata": {"rt": -1, "trial_type": "single-stim", "stimulus": "<p id=\"stim\">+</p>", "internal_node_id": "0.0-36.0-0.0", "time_elapsed": 345535, "key_press": -1, "type": "FIXATION", "trial_index": 54}, "uniqueid": "MTK2272:3PPTZCWALRRP6IW1UQ6BH0E92XIZQL", "dateTime": 1516909205133}, {"current_trial": 55, "trialdata": {"rt": -1000, "trial_type": "single-audio", "word": "shortcake", "stimulus": "/static/audio/wordpool/SHORTCAKE.wav", "conditions": [18, 1200, "a", 18000], "internal_node_id": "0.0-37.0", "trial": 1, "time_elapsed": 347815, "serialpos": 0, "key_press": -1, "wordID": 1291, "type": "PRES_AUD", "trial_index": 55}, "uniqueid": "MTK2272:3PPTZCWALRRP6IW1UQ6BH0E92XIZQL", "dateTime": 1516909207414}, {"current_trial": 56, "trialdata": {"rt": -1000, "trial_type": "single-audio", "word": "fleet", "stimulus": "/static/audio/wordpool/FLEET.wav", "conditions": [18, 1200, "a", 18000], "internal_node_id": "0.0-38.0", "trial": 1, "time_elapsed": 350139, "serialpos": 1, "key_press": -1, "wordID": 577, "type": "PRES_AUD", "trial_index": 56}, "uniqueid": "MTK2272:3PPTZCWALRRP6IW1UQ6BH0E92XIZQL", "dateTime": 1516909209737}, {"current_trial": 57, "trialdata": {"rt": -1000, "trial_type": "single-audio", "word": "clam", "stimulus": "/static/audio/wordpool/CLAM.wav", "conditions": [18, 1200, "a", 18000], "internal_node_id": "0.0-39.0", "trial": 1, "time_elapsed": 352361, "serialpos": 2, "key_press": -1, "wordID": 314, "type": "PRES_AUD", "trial_index": 57}, "uniqueid": "MTK2272:3PPTZCWALRRP6IW1UQ6BH0E92XIZQL", "dateTime": 1516909211959}, {"current_trial": 58, "trialdata": {"rt": -1000, "trial_type": "single-audio", "word": "stomach", "stimulus": "/static/audio/wordpool/STOMACH.wav", "conditions": [18, 1200, "a", 18000], "internal_node_id": "0.0-40.0", "trial": 1, "time_elapsed": 354412, "serialpos": 3, "key_press": -1, "wordID": 1383, "type": "PRES_AUD", "trial_index": 58}, "uniqueid": "MTK2272:3PPTZCWALRRP6IW1UQ6BH0E92XIZQL", "dateTime": 1516909214010}, {"current_trial": 59, "trialdata": {"rt": -1000, "trial_type": "single-audio", "word": "tunnel", "stimulus": "/static/audio/wordpool/TUNNEL.wav", "conditions": [18, 1200, "a", 18000], "internal_node_id": "0.0-41.0", "trial": 1, "time_elapsed": 356430, "serialpos": 4, "key_press": -1, "wordID": 1518, "type": "PRES_AUD", "trial_index": 59}, "uniqueid": "MTK2272:3PPTZCWALRRP6IW1UQ6BH0E92XIZQL", "dateTime": 1516909216029}, {"current_trial": 60, "trialdata": {"rt": -1000, "trial_type": "single-audio", "word": "candy", "stimulus": "/static/audio/wordpool/CANDY.wav", "conditions": [18, 1200, "a", 18000], "internal_node_id": "0.0-42.0", "trial": 1, "time_elapsed": 358551, "serialpos": 5, "key_press": -1, "wordID": 229, "type": "PRES_AUD", "trial_index": 60}, "uniqueid": "MTK2272:3PPTZCWALRRP6IW1UQ6BH0E92XIZQL", "dateTime": 1516909218149}, {"current_trial": 61, "trialdata": {"rt": -1000, "trial_type": "single-audio", "word": "napkin", "stimulus": "/static/audio/wordpool/NAPKIN.wav", "conditions": [18, 1200, "a", 18000], "internal_node_id": "0.0-43.0", "trial": 1, "time_elapsed": 360875, "serialpos": 6, "key_press": -1, "wordID": 936, "type": "PRES_AUD", "trial_index": 61}, "uniqueid": "MTK2272:3PPTZCWALRRP6IW1UQ6BH0E92XIZQL", "dateTime": 1516909220473}, {"current_trial": 62, "trialdata": {"rt": -1000, "trial_type": "single-audio", "word": "eyelash", "stimulus": "/static/audio/wordpool/EYELASH.wav", "conditions": [18, 1200, "a", 18000], "internal_node_id": "0.0-44.0", "trial": 1, "time_elapsed": 362898, "serialpos": 7, "key_press": -1, "wordID": 545, "type": "PRES_AUD", "trial_index": 62}, "uniqueid": "MTK2272:3PPTZCWALRRP6IW1UQ6BH0E92XIZQL", "dateTime": 1516909222497}, {"current_trial": 63, "trialdata": {"rt": -1000, "trial_type": "single-audio", "word": "crab", "stimulus": "/static/audio/wordpool/CRAB.wav", "conditions": [18, 1200, "a", 18000], "internal_node_id": "0.0-45.0", "trial": 1, "time_elapsed": 365171, "serialpos": 8, "key_press": -1, "wordID": 396, "type": "PRES_AUD", "trial_index": 63}, "uniqueid": "MTK2272:3PPTZCWALRRP6IW1UQ6BH0E92XIZQL", "dateTime": 1516909224769}, {"current_trial": 64, "trialdata": {"rt": -1000, "trial_type": "single-audio", "word": "actor", "stimulus": "/static/audio/wordpool/ACTOR.wav", "conditions": [18, 1200, "a", 18000], "internal_node_id": "0.0-46.0", "trial": 1, "time_elapsed": 367519, "serialpos": 9, "key_press": -1, "wordID": 4, "type": "PRES_AUD", "trial_index": 64}, "uniqueid": "MTK2272:3PPTZCWALRRP6IW1UQ6BH0E92XIZQL", "dateTime": 1516909227117}, {"current_trial": 65, "trialdata": {"rt": -1000, "trial_type": "single-audio", "word": "lizard", "stimulus": "/static/audio/wordpool/LIZARD.wav", "conditions": [18, 1200, "a", 18000], "internal_node_id": "0.0-47.0", "trial": 1, "time_elapsed": 369610, "serialpos": 10, "key_press": -1, "wordID": 833, "type": "PRES_AUD", "trial_index": 65}, "uniqueid": "MTK2272:3PPTZCWALRRP6IW1UQ6BH0E92XIZQL", "dateTime": 1516909229208}, {"current_trial": 66, "trialdata": {"rt": -1000, "trial_type": "single-audio", "word": "contract", "stimulus": "/static/audio/wordpool/CONTRACT.wav", "conditions": [18, 1200, "a", 18000], "internal_node_id": "0.0-48.0", "trial": 1, "time_elapsed": 371961, "serialpos": 11, "key_press": -1, "wordID": 367, "type": "PRES_AUD", "trial_index": 66}, "uniqueid": "MTK2272:3PPTZCWALRRP6IW1UQ6BH0E92XIZQL", "dateTime": 1516909231560}, {"current_trial": 67, "trialdata": {"rt": -1000, "trial_type": "single-audio", "word": "church", "stimulus": "/static/audio/wordpool/CHURCH.wav", "conditions": [18, 1200, "a", 18000], "internal_node_id": "0.0-49.0", "trial": 1, "time_elapsed": 373995, "serialpos": 12, "key_press": -1, "wordID": 306, "type": "PRES_AUD", "trial_index": 67}, "uniqueid": "MTK2272:3PPTZCWALRRP6IW1UQ6BH0E92XIZQL", "dateTime": 1516909233593}, {"current_trial": 68, "trialdata": {"rt": -1000, "trial_type": "single-audio", "word": "pigeon", "stimulus": "/static/audio/wordpool/PIGEON.wav", "conditions": [18, 1200, "a", 18000], "internal_node_id": "0.0-50.0", "trial": 1, "time_elapsed": 376101, "serialpos": 13, "key_press": -1, "wordID": 1064, "type": "PRES_AUD", "trial_index": 68}, "uniqueid": "MTK2272:3PPTZCWALRRP6IW1UQ6BH0E92XIZQL", "dateTime": 1516909235699}, {"current_trial": 69, "trialdata": {"rt": -1000, "trial_type": "single-audio", "word": "creature", "stimulus": "/static/audio/wordpool/CREATURE.wav", "conditions": [18, 1200, "a", 18000], "internal_node_id": "0.0-51.0", "trial": 1, "time_elapsed": 378268, "serialpos": 14, "key_press": -1, "wordID": 402, "type": "PRES_AUD", "trial_index": 69}, "uniqueid": "MTK2272:3PPTZCWALRRP6IW1UQ6BH0E92XIZQL", "dateTime": 1516909237866}, {"current_trial": 70, "trialdata": {"rt": -1000, "trial_type": "single-audio", "word": "stove", "stimulus": "/static/audio/wordpool/STOVE.wav", "conditions": [18, 1200, "a", 18000], "internal_node_id": "0.0-52.0", "trial": 1, "time_elapsed": 380333, "serialpos": 15, "key_press": -1, "wordID": 1387, "type": "PRES_AUD", "trial_index": 70}, "uniqueid": "MTK2272:3PPTZCWALRRP6IW1UQ6BH0E92XIZQL", "dateTime": 1516909239931}, {"current_trial": 71, "trialdata": {"rt": -1000, "trial_type": "single-audio", "word": "judge", "stimulus": "/static/audio/wordpool/JUDGE.wav", "conditions": [18, 1200, "a", 18000], "internal_node_id": "0.0-53.0", "trial": 1, "time_elapsed": 382477, "serialpos": 16, "key_press": -1, "wordID": 760, "type": "PRES_AUD", "trial_index": 71}, "uniqueid": "MTK2272:3PPTZCWALRRP6IW1UQ6BH0E92XIZQL", "dateTime": 1516909242075}, {"current_trial": 72, "trialdata": {"rt": -1000, "trial_type": "single-audio", "word": "couch", "stimulus": "/static/audio/wordpool/COUCH.wav", "conditions": [18, 1200, "a", 18000], "internal_node_id": "0.0-54.0", "trial": 1, "time_elapsed": 384631, "serialpos": 17, "key_press": -1, "wordID": 385, "type": "PRES_AUD", "trial_index": 72}, "uniqueid": "MTK2272:3PPTZCWALRRP6IW1UQ6BH0E92XIZQL", "dateTime": 1516909244229}, {"current_trial": 73, "trialdata": {"rt": -1, "trial_type": "single-stim", "stimulus": "", "internal_node_id": "0.0-55.0-0.0", "time_elapsed": 386002, "key_press": -1, "type": "PRE_RECALL_DELAY", "trial_index": 73}, "uniqueid": "MTK2272:3PPTZCWALRRP6IW1UQ6BH0E92XIZQL", "dateTime": 1516909245600}, {"current_trial": 74, "trialdata": {"rt": -1000, "trial_type": "single-audio", "stimulus": "/static/audio/400Hz.wav", "internal_node_id": "0.0-56.0", "time_elapsed": 386504, "key_press": -1, "type": "PRE_RECALL_ALERT", "trial_index": 74}, "uniqueid": "MTK2272:3PPTZCWALRRP6IW1UQ6BH0E92XIZQL", "dateTime": 1516909246102}, {"current_trial": 75, "trialdata": {"rt": [5643, 8795, 10435, 12851, 16099, 20547, 23483, 26531, 31227], "recwords": ["shortcake", "fleet", "clam", "stomach", "tunnel", "lizard", "church", "stove", "couch"], "key_times": [2652, 2836, 2986, 3117, 3339, 4171, 4435, 4772, 4899, 5643, 7092, 7235, 7523, 7699, 8013, 8795, 9532, 9691, 9844, 9990, 10435, 10852, 11103, 11229, 11499, 11580, 11835, 11948, 12851, 14187, 14316, 14534, 14717, 14997, 15413, 16099, 19259, 19453, 19644, 19883, 20180, 20371, 20547, 21764, 22035, 22188, 22356, 22588, 22668, 23483, 25044, 25564, 25987, 26140, 26299, 26531, 28884, 29011, 29179, 29587, 30068, 30276, 30427, 31227], "trial_type": "free-recall", "conditions": [18, 1200, "a", 18000], "internal_node_id": "0.0-57.0-0.0", "key_presses": [83, 72, 79, 82, 84, 67, 65, 75, 69, 13, 70, 76, 69, 69, 84, 13, 67, 76, 65, 77, 13, 83, 84, 79, 77, 65, 67, 72, 13, 84, 85, 78, 78, 69, 76, 13, 76, 73, 90, 65, 82, 68, 13, 67, 72, 85, 82, 67, 72, 13, 83, 84, 79, 86, 69, 13, 67, 79, 85, 78, 8, 67, 72, 13], "trial": 1, "time_elapsed": 446507, "type": "FREE_RECALL", "trial_index": 75}, "uniqueid": "MTK2272:3PPTZCWALRRP6IW1UQ6BH0E92XIZQL", "dateTime": 1516909306106}, {"current_trial": 76, "trialdata": {"rt": 3696, "trial_type": "text", "internal_node_id": "0.0-58.0", "time_elapsed": 452205, "key_press": 13, "type": "INSTRUCTIONS", "trial_index": 76}, "uniqueid": "MTK2272:3PPTZCWALRRP6IW1UQ6BH0E92XIZQL", "dateTime": 1516909311803}, {"current_trial": 77, "trialdata": {"rt": [2886, 5158, 7022, 8711, 10574], "trial_type": "math-distractor", "key_times": [2007, 2206, 2886, 4679, 4918, 5158, 6686, 7022, 8159, 8407, 8711, 10094, 10311, 10574], "responses": ["19", "10", "9", "16", "16"], "num2": [9, 5, 1, 7, 1, 3], "num3": [7, 2, 2, 7, 6, 4], "conditions": [12, 1600, "a", 12000], "internal_node_id": "0.0-59.0", "key_presses": [97, 105, 13, 97, 96, 13, 105, 13, 97, 102, 13, 97, 102, 13], "trial": 2, "time_elapsed": 465208, "type": "DISTRACTOR", "trial_index": 77, "num1": [3, 3, 6, 2, 9, 3]}, "uniqueid": "MTK2272:3PPTZCWALRRP6IW1UQ6BH0E92XIZQL", "dateTime": 1516909324806}, {"current_trial": 78, "trialdata": {"rt": -1, "trial_type": "single-stim", "stimulus": "<p id=\"stim\">10</p>", "internal_node_id": "0.0-60.0-0.0", "time_elapsed": 468210, "key_press": -1, "trial_index": 78}, "uniqueid": "MTK2272:3PPTZCWALRRP6IW1UQ6BH0E92XIZQL", "dateTime": 1516909327808}, {"current_trial": 79, "trialdata": {"rt": -1, "trial_type": "single-stim", "stimulus": "<p id=\"stim\">9</p>", "internal_node_id": "0.0-60.0-1.0", "time_elapsed": 469212, "key_press": -1, "trial_index": 79}, "uniqueid": "MTK2272:3PPTZCWALRRP6IW1UQ6BH0E92XIZQL", "dateTime": 1516909328810}, {"current_trial": 80, "trialdata": {"rt": -1, "trial_type": "single-stim", "stimulus": "<p id=\"stim\">8</p>", "internal_node_id": "0.0-60.0-2.0", "time_elapsed": 470213, "key_press": -1, "trial_index": 80}, "uniqueid": "MTK2272:3PPTZCWALRRP6IW1UQ6BH0E92XIZQL", "dateTime": 1516909329811}, {"current_trial": 81, "trialdata": {"rt": -1, "trial_type": "single-stim", "stimulus": "<p id=\"stim\">7</p>", "internal_node_id": "0.0-60.0-3.0", "time_elapsed": 471214, "key_press": -1, "trial_index": 81}, "uniqueid": "MTK2272:3PPTZCWALRRP6IW1UQ6BH0E92XIZQL", "dateTime": 1516909330812}, {"current_trial": 82, "trialdata": {"rt": -1, "trial_type": "single-stim", "stimulus": "<p id=\"stim\">6</p>", "internal_node_id": "0.0-60.0-4.0", "time_elapsed": 472216, "key_press": -1, "trial_index": 82}, "uniqueid": "MTK2272:3PPTZCWALRRP6IW1UQ6BH0E92XIZQL", "dateTime": 1516909331814}, {"current_trial": 83, "trialdata": {"rt": -1, "trial_type": "single-stim", "stimulus": "<p id=\"stim\">5</p>", "internal_node_id": "0.0-60.0-5.0", "time_elapsed": 473216, "key_press": -1, "trial_index": 83}, "uniqueid": "MTK2272:3PPTZCWALRRP6IW1UQ6BH0E92XIZQL", "dateTime": 1516909332814}, {"current_trial": 84, "trialdata": {"rt": -1, "trial_type": "single-stim", "stimulus": "<p id=\"stim\">4</p>", "internal_node_id": "0.0-60.0-6.0", "time_elapsed": 474218, "key_press": -1, "trial_index": 84}, "uniqueid": "MTK2272:3PPTZCWALRRP6IW1UQ6BH0E92XIZQL", "dateTime": 1516909333816}, {"current_trial": 85, "trialdata": {"rt": -1, "trial_type": "single-stim", "stimulus": "<p id=\"stim\">3</p>", "internal_node_id": "0.0-60.0-7.0", "time_elapsed": 475221, "key_press": -1, "trial_index": 85}, "uniqueid": "MTK2272:3PPTZCWALRRP6IW1UQ6BH0E92XIZQL", "dateTime": 1516909334819}, {"current_trial": 86, "trialdata": {"rt": -1, "trial_type": "single-stim", "stimulus": "<p id=\"stim\">2</p>", "internal_node_id": "0.0-60.0-8.0", "time_elapsed": 476223, "key_press": -1, "trial_index": 86}, "uniqueid": "MTK2272:3PPTZCWALRRP6IW1UQ6BH0E92XIZQL", "dateTime": 1516909335821}, {"current_trial": 87, "trialdata": {"rt": -1, "trial_type": "single-stim", "stimulus": "<p id=\"stim\">1</p>", "internal_node_id": "0.0-60.0-9.0", "time_elapsed": 477224, "key_press": -1, "trial_index": 87}, "uniqueid": "MTK2272:3PPTZCWALRRP6IW1UQ6BH0E92XIZQL", "dateTime": 1516909336822}, {"current_trial": 88, "trialdata": {"rt": -1, "trial_type": "single-stim", "stimulus": "<p id=\"stim\">+</p>", "internal_node_id": "0.0-61.0-0.0", "time_elapsed": 478725, "key_press": -1, "type": "FIXATION", "trial_index": 88}, "uniqueid": "MTK2272:3PPTZCWALRRP6IW1UQ6BH0E92XIZQL", "dateTime": 1516909338323}, {"current_trial": 89, "trialdata": {"rt": -1000, "trial_type": "single-audio", "word": "swimmer", "stimulus": "/static/audio/wordpool/SWIMMER.wav", "conditions": [12, 1600, "a", 12000], "internal_node_id": "0.0-62.0", "trial": 2, "time_elapsed": 481446, "serialpos": 0, "key_press": -1, "wordID": 1419, "type": "PRES_AUD", "trial_index": 89}, "uniqueid": "MTK2272:3PPTZCWALRRP6IW1UQ6BH0E92XIZQL", "dateTime": 1516909341044}, {"current_trial": 90, "trialdata": {"rt": -1000, "trial_type": "single-audio", "word": "diver", "stimulus": "/static/audio/wordpool/DIVER.wav", "conditions": [12, 1600, "a", 12000], "internal_node_id": "0.0-63.0", "trial": 2, "time_elapsed": 483947, "serialpos": 1, "key_press": -1, "wordID": 475, "type": "PRES_AUD", "trial_index": 90}, "uniqueid": "MTK2272:3PPTZCWALRRP6IW1UQ6BH0E92XIZQL", "dateTime": 1516909343545}, {"current_trial": 91, "trialdata": {"rt": -1000, "trial_type": "single-audio", "word": "actress", "stimulus": "/static/audio/wordpool/ACTRESS.wav", "conditions": [12, 1600, "a", 12000], "internal_node_id": "0.0-64.0", "trial": 2, "time_elapsed": 486738, "serialpos": 2, "key_press": -1, "wordID": 5, "type": "PRES_AUD", "trial_index": 91}, "uniqueid": "MTK2272:3PPTZCWALRRP6IW1UQ6BH0E92XIZQL", "dateTime": 1516909346336}, {"current_trial": 92, "trialdata": {"rt": -1000, "trial_type": "single-audio", "word": "rocket", "stimulus": "/static/audio/wordpool/ROCKET.wav", "conditions": [12, 1600, "a", 12000], "internal_node_id": "0.0-65.0", "trial": 2, "time_elapsed": 489270, "serialpos": 3, "key_press": -1, "wordID": 1201, "type": "PRES_AUD", "trial_index": 92}, "uniqueid": "MTK2272:3PPTZCWALRRP6IW1UQ6BH0E92XIZQL", "dateTime": 1516909348868}, {"current_trial": 93, "trialdata": {"rt": -1000, "trial_type": "single-audio", "word": "arm", "stimulus": "/static/audio/wordpool/ARM.wav", "conditions": [12, 1600, "a", 12000], "internal_node_id": "0.0-66.0", "trial": 2, "time_elapsed": 491784, "serialpos": 4, "key_press": -1, "wordID": 37, "type": "PRES_AUD", "trial_index": 93}, "uniqueid": "MTK2272:3PPTZCWALRRP6IW1UQ6BH0E92XIZQL", "dateTime": 1516909351382}, {"current_trial": 94, "trialdata": {"rt": -1000, "trial_type": "single-audio", "word": "dresser", "stimulus": "/static/audio/wordpool/DRESSER.wav", "conditions": [12, 1600, "a", 12000], "internal_node_id": "0.0-67.0", "trial": 2, "time_elapsed": 494478, "serialpos": 5, "key_press": -1, "wordID": 495, "type": "PRES_AUD", "trial_index": 94}, "uniqueid": "MTK2272:3PPTZCWALRRP6IW1UQ6BH0E92XIZQL", "dateTime": 1516909354076}, {"current_trial": 95, "trialdata": {"rt": -1000, "trial_type": "single-audio", "word": "jury", "stimulus": "/static/audio/wordpool/JURY.wav", "conditions": [12, 1600, "a", 12000], "internal_node_id": "0.0-68.0", "trial": 2, "time_elapsed": 497223, "serialpos": 6, "key_press": -1, "wordID": 765, "type": "PRES_AUD", "trial_index": 95}, "uniqueid": "MTK2272:3PPTZCWALRRP6IW1UQ6BH0E92XIZQL", "dateTime": 1516909356821}, {"current_trial": 96, "trialdata": {"rt": -1000, "trial_type": "single-audio", "word": "widow", "stimulus": "/static/audio/wordpool/WIDOW.wav", "conditions": [12, 1600, "a", 12000], "internal_node_id": "0.0-69.0", "trial": 2, "time_elapsed": 499955, "serialpos": 7, "key_press": -1, "wordID": 1607, "type": "PRES_AUD", "trial_index": 96}, "uniqueid": "MTK2272:3PPTZCWALRRP6IW1UQ6BH0E92XIZQL", "dateTime": 1516909359553}, {"current_trial": 97, "trialdata": {"rt": -1000, "trial_type": "single-audio", "word": "cashier", "stimulus": "/static/audio/wordpool/CASHIER.wav", "conditions": [12, 1600, "a", 12000], "internal_node_id": "0.0-70.0", "trial": 2, "time_elapsed": 502570, "serialpos": 8, "key_press": -1, "wordID": 253, "type": "PRES_AUD", "trial_index": 97}, "uniqueid": "MTK2272:3PPTZCWALRRP6IW1UQ6BH0E92XIZQL", "dateTime": 1516909362168}, {"current_trial": 98, "trialdata": {"rt": -1000, "trial_type": "single-audio", "word": "leg", "stimulus": "/static/audio/wordpool/LEG.wav", "conditions": [12, 1600, "a", 12000], "internal_node_id": "0.0-71.0", "trial": 2, "time_elapsed": 505202, "serialpos": 9, "key_press": -1, "wordID": 808, "type": "PRES_AUD", "trial_index": 98}, "uniqueid": "MTK2272:3PPTZCWALRRP6IW1UQ6BH0E92XIZQL", "dateTime": 1516909364800}, {"current_trial": 99, "trialdata": {"rt": -1000, "trial_type": "single-audio", "word": "jungle", "stimulus": "/static/audio/wordpool/JUNGLE.wav", "conditions": [12, 1600, "a", 12000], "internal_node_id": "0.0-72.0", "trial": 2, "time_elapsed": 507647, "serialpos": 10, "key_press": -1, "wordID": 763, "type": "PRES_AUD", "trial_index": 99}, "uniqueid": "MTK2272:3PPTZCWALRRP6IW1UQ6BH0E92XIZQL", "dateTime": 1516909367245}, {"current_trial": 100, "trialdata": {"rt": -1000, "trial_type": "single-audio", "word": "waiter", "stimulus": "/static/audio/wordpool/WAITER.wav", "conditions": [12, 1600, "a", 12000], "internal_node_id": "0.0-73.0", "trial": 2, "time_elapsed": 510234, "serialpos": 11, "key_press": -1, "wordID": 1579, "type": "PRES_AUD", "trial_index": 100}, "uniqueid": "MTK2272:3PPTZCWALRRP6IW1UQ6BH0E92XIZQL", "dateTime": 1516909369833}, {"current_trial": 101, "trialdata": {"rt": -1, "trial_type": "single-stim", "stimulus": "", "internal_node_id": "0.0-74.0-0.0", "time_elapsed": 511491, "key_press": -1, "type": "PRE_RECALL_DELAY", "trial_index": 101}, "uniqueid": "MTK2272:3PPTZCWALRRP6IW1UQ6BH0E92XIZQL", "dateTime": 1516909371089}, {"current_trial": 102, "trialdata": {"rt": -1000, "trial_type": "single-audio", "stimulus": "/static/audio/400Hz.wav", "internal_node_id": "0.0-75.0", "time_elapsed": 511993, "key_press": -1, "type": "PRE_RECALL_ALERT", "trial_index": 102}, "uniqueid": "MTK2272:3PPTZCWALRRP6IW1UQ6BH0E92XIZQL", "dateTime": 1516909371591}, {"current_trial": 103, "trialdata": {"rt": [4729, 7193, 10241, 12705, 15649, 18945, 22289, 25073, 28785, 48641], "recwords": ["swimmer", "diver", "actress", "rocket", "dresser", "jurt", "cashier", "leg", "jungle", "waiter"], "key_times": [2546, 2714, 3009, 3378, 3545, 3882, 4122, 4729, 5762, 5946, 6138, 6329, 6521, 7193, 7963, 8226, 8460, 8658, 8874, 9122, 9298, 10241, 10729, 10889, 11001, 11162, 11274, 11780, 12705, 13755, 13962, 14155, 14385, 14537, 14763, 14969, 15649, 16633, 17577, 17785, 18082, 18945, 19962, 20257, 20530, 20730, 21009, 21297, 21562, 22289, 23508, 23706, 24009, 25073, 26058, 26285, 26497, 26746, 27260, 27443, 28785, 47378, 47586, 47801, 48034, 48258, 48427, 48641], "trial_type": "free-recall", "conditions": [12, 1600, "a", 12000], "internal_node_id": "0.0-76.0-0.0", "key_presses": [83, 87, 73, 77, 77, 69, 82, 13, 68, 73, 86, 69, 82, 13, 65, 67, 84, 82, 69, 83, 83, 13, 82, 79, 67, 75, 69, 84, 13, 68, 82, 69, 83, 83, 69, 82, 13, 74, 85, 82, 84, 13, 67, 65, 83, 72, 73, 69, 82, 13, 76, 69, 71, 13, 74, 85, 78, 71, 76, 69, 13, 87, 65, 73, 84, 69, 82, 13], "trial": 2, "time_elapsed": 571998, "type": "FREE_RECALL", "trial_index": 103}, "uniqueid": "MTK2272:3PPTZCWALRRP6IW1UQ6BH0E92XIZQL", "dateTime": 1516909431603}, {"current_trial": 104, "trialdata": {"rt": 2063, "trial_type": "text", "internal_node_id": "0.0-77.0", "time_elapsed": 576069, "key_press": 32, "type": "INSTRUCTIONS", "trial_index": 104}, "uniqueid": "MTK2272:3PPTZCWALRRP6IW1UQ6BH0E92XIZQL", "dateTime": 1516909435667}, {"current_trial": 105, "trialdata": {"rt": [2123, 3754, 5674, 7954, 9514, 11298], "trial_type": "math-distractor", "key_times": [1803, 1859, 2123, 3330, 3548, 3754, 5098, 5338, 5674, 7587, 7684, 7954, 9218, 9514, 10843, 11066, 11298], "responses": ["12", "14", "10", "12", "5", "13"], "num2": [7, 4, 4, 6, 2, 9, 3], "num3": [2, 3, 1, 3, 2, 3, 2], "conditions": [24, 800, "a", 12000], "internal_node_id": "0.0-78.0", "key_presses": [97, 98, 13, 97, 100, 13, 97, 96, 13, 97, 98, 13, 101, 13, 97, 99, 13], "trial": 3, "time_elapsed": 590076, "type": "DISTRACTOR", "trial_index": 105, "num1": [3, 7, 5, 3, 1, 1, 7]}, "uniqueid": "MTK2272:3PPTZCWALRRP6IW1UQ6BH0E92XIZQL", "dateTime": 1516909449674}, {"current_trial": 106, "trialdata": {"rt": -1, "trial_type": "single-stim", "stimulus": "<p id=\"stim\">10</p>", "internal_node_id": "0.0-79.0-0.0", "time_elapsed": 593079, "key_press": -1, "trial_index": 106}, "uniqueid": "MTK2272:3PPTZCWALRRP6IW1UQ6BH0E92XIZQL", "dateTime": 1516909452677}, {"current_trial": 107, "trialdata": {"rt": -1, "trial_type": "single-stim", "stimulus": "<p id=\"stim\">9</p>", "internal_node_id": "0.0-79.0-1.0", "time_elapsed": 594081, "key_press": -1, "trial_index": 107}, "uniqueid": "MTK2272:3PPTZCWALRRP6IW1UQ6BH0E92XIZQL", "dateTime": 1516909453679}, {"current_trial": 108, "trialdata": {"rt": -1, "trial_type": "single-stim", "stimulus": "<p id=\"stim\">8</p>", "internal_node_id": "0.0-79.0-2.0", "time_elapsed": 595082, "key_press": -1, "trial_index": 108}, "uniqueid": "MTK2272:3PPTZCWALRRP6IW1UQ6BH0E92XIZQL", "dateTime": 1516909454680}, {"current_trial": 109, "trialdata": {"rt": -1, "trial_type": "single-stim", "stimulus": "<p id=\"stim\">7</p>", "internal_node_id": "0.0-79.0-3.0", "time_elapsed": 596083, "key_press": -1, "trial_index": 109}, "uniqueid": "MTK2272:3PPTZCWALRRP6IW1UQ6BH0E92XIZQL", "dateTime": 1516909455681}, {"current_trial": 110, "trialdata": {"rt": -1, "trial_type": "single-stim", "stimulus": "<p id=\"stim\">6</p>", "internal_node_id": "0.0-79.0-4.0", "time_elapsed": 597085, "key_press": -1, "trial_index": 110}, "uniqueid": "MTK2272:3PPTZCWALRRP6IW1UQ6BH0E92XIZQL", "dateTime": 1516909456683}, {"current_trial": 111, "trialdata": {"rt": -1, "trial_type": "single-stim", "stimulus": "<p id=\"stim\">5</p>", "internal_node_id": "0.0-79.0-5.0", "time_elapsed": 598087, "key_press": -1, "trial_index": 111}, "uniqueid": "MTK2272:3PPTZCWALRRP6IW1UQ6BH0E92XIZQL", "dateTime": 1516909457685}, {"current_trial": 112, "trialdata": {"rt": -1, "trial_type": "single-stim", "stimulus": "<p id=\"stim\">4</p>", "internal_node_id": "0.0-79.0-6.0", "time_elapsed": 599090, "key_press": -1, "trial_index": 112}, "uniqueid": "MTK2272:3PPTZCWALRRP6IW1UQ6BH0E92XIZQL", "dateTime": 1516909458688}, {"current_trial": 113, "trialdata": {"rt": -1, "trial_type": "single-stim", "stimulus": "<p id=\"stim\">3</p>", "internal_node_id": "0.0-79.0-7.0", "time_elapsed": 600091, "key_press": -1, "trial_index": 113}, "uniqueid": "MTK2272:3PPTZCWALRRP6IW1UQ6BH0E92XIZQL", "dateTime": 1516909459689}, {"current_trial": 114, "trialdata": {"rt": -1, "trial_type": "single-stim", "stimulus": "<p id=\"stim\">2</p>", "internal_node_id": "0.0-79.0-8.0", "time_elapsed": 601092, "key_press": -1, "trial_index": 114}, "uniqueid": "MTK2272:3PPTZCWALRRP6IW1UQ6BH0E92XIZQL", "dateTime": 1516909460690}, {"current_trial": 115, "trialdata": {"rt": -1, "trial_type": "single-stim", "stimulus": "<p id=\"stim\">1</p>", "internal_node_id": "0.0-79.0-9.0", "time_elapsed": 602094, "key_press": -1, "trial_index": 115}, "uniqueid": "MTK2272:3PPTZCWALRRP6IW1UQ6BH0E92XIZQL", "dateTime": 1516909461692}, {"current_trial": 116, "trialdata": {"rt": -1, "trial_type": "single-stim", "stimulus": "<p id=\"stim\">+</p>", "internal_node_id": "0.0-80.0-0.0", "time_elapsed": 603595, "key_press": -1, "type": "FIXATION", "trial_index": 116}, "uniqueid": "MTK2272:3PPTZCWALRRP6IW1UQ6BH0E92XIZQL", "dateTime": 1516909463194}, {"current_trial": 117, "trialdata": {"rt": -1000, "trial_type": "single-audio", "word": "custard", "stimulus": "/static/audio/wordpool/CUSTARD.wav", "conditions": [24, 800, "a", 12000], "internal_node_id": "0.0-81.0", "trial": 3, "time_elapsed": 605320, "serialpos": 0, "key_press": -1, "wordID": 428, "type": "PRES_AUD", "trial_index": 117}, "uniqueid": "MTK2272:3PPTZCWALRRP6IW1UQ6BH0E92XIZQL", "dateTime": 1516909464919}, {"current_trial": 118, "trialdata": {"rt": -1000, "trial_type": "single-audio", "word": "concert", "stimulus": "/static/audio/wordpool/CONCERT.wav", "conditions": [24, 800, "a", 12000], "internal_node_id": "0.0-82.0", "trial": 3, "time_elapsed": 607294, "serialpos": 1, "key_press": -1, "wordID": 359, "type": "PRES_AUD", "trial_index": 118}, "uniqueid": "MTK2272:3PPTZCWALRRP6IW1UQ6BH0E92XIZQL", "dateTime": 1516909466892}, {"current_trial": 119, "trialdata": {"rt": -1000, "trial_type": "single-audio", "word": "asia", "stimulus": "/static/audio/wordpool/ASIA.wav", "conditions": [24, 800, "a", 12000], "internal_node_id": "0.0-83.0", "trial": 3, "time_elapsed": 609258, "serialpos": 2, "key_press": -1, "wordID": 45, "type": "PRES_AUD", "trial_index": 119}, "uniqueid": "MTK2272:3PPTZCWALRRP6IW1UQ6BH0E92XIZQL", "dateTime": 1516909468856}, {"current_trial": 120, "trialdata": {"rt": -1000, "trial_type": "single-audio", "word": "europe", "stimulus": "/static/audio/wordpool/EUROPE.wav", "conditions": [24, 800, "a", 12000], "internal_node_id": "0.0-84.0", "trial": 3, "time_elapsed": 611054, "serialpos": 3, "key_press": -1, "wordID": 540, "type": "PRES_AUD", "trial_index": 120}, "uniqueid": "MTK2272:3PPTZCWALRRP6IW1UQ6BH0E92XIZQL", "dateTime": 1516909470653}, {"current_trial": 121, "trialdata": {"rt": -1000, "trial_type": "single-audio", "word": "pliers", "stimulus": "/static/audio/wordpool/PLIERS.wav", "conditions": [24, 800, "a", 12000], "internal_node_id": "0.0-85.0", "trial": 3, "time_elapsed": 612764, "serialpos": 4, "key_press": -1, "wordID": 1088, "type": "PRES_AUD", "trial_index": 121}, "uniqueid": "MTK2272:3PPTZCWALRRP6IW1UQ6BH0E92XIZQL", "dateTime": 1516909472362}, {"current_trial": 122, "trialdata": {"rt": -1000, "trial_type": "single-audio", "word": "garlic", "stimulus": "/static/audio/wordpool/GARLIC.wav", "conditions": [24, 800, "a", 12000], "internal_node_id": "0.0-86.0", "trial": 3, "time_elapsed": 614526, "serialpos": 5, "key_press": -1, "wordID": 623, "type": "PRES_AUD", "trial_index": 122}, "uniqueid": "MTK2272:3PPTZCWALRRP6IW1UQ6BH0E92XIZQL", "dateTime": 1516909474124}, {"current_trial": 123, "trialdata": {"rt": -1000, "trial_type": "single-audio", "word": "poison", "stimulus": "/static/audio/wordpool/POISON.wav", "conditions": [24, 800, "a", 12000], "internal_node_id": "0.0-87.0", "trial": 3, "time_elapsed": 616231, "serialpos": 6, "key_press": -1, "wordID": 1095, "type": "PRES_AUD", "trial_index": 123}, "uniqueid": "MTK2272:3PPTZCWALRRP6IW1UQ6BH0E92XIZQL", "dateTime": 1516909475829}, {"current_trial": 124, "trialdata": {"rt": -1000, "trial_type": "single-audio", "word": "panther", "stimulus": "/static/audio/wordpool/PANTHER.wav", "conditions": [24, 800, "a", 12000], "internal_node_id": "0.0-88.0", "trial": 3, "time_elapsed": 617891, "serialpos": 7, "key_press": -1, "wordID": 1008, "type": "PRES_AUD", "trial_index": 124}, "uniqueid": "MTK2272:3PPTZCWALRRP6IW1UQ6BH0E92XIZQL", "dateTime": 1516909477489}, {"current_trial": 125, "trialdata": {"rt": -1000, "trial_type": "single-audio", "word": "witness", "stimulus": "/static/audio/wordpool/WITNESS.wav", "conditions": [24, 800, "a", 12000], "internal_node_id": "0.0-89.0", "trial": 3, "time_elapsed": 619562, "serialpos": 8, "key_press": -1, "wordID": 1617, "type": "PRES_AUD", "trial_index": 125}, "uniqueid": "MTK2272:3PPTZCWALRRP6IW1UQ6BH0E92XIZQL", "dateTime": 1516909479160}, {"current_trial": 126, "trialdata": {"rt": -1000, "trial_type": "single-audio", "word": "piano", "stimulus": "/static/audio/wordpool/PIANO.wav", "conditions": [24, 800, "a", 12000], "internal_node_id": "0.0-90.0", "trial": 3, "time_elapsed": 621532, "serialpos": 9, "key_press": -1, "wordID": 1056, "type": "PRES_AUD", "trial_index": 126}, "uniqueid": "MTK2272:3PPTZCWALRRP6IW1UQ6BH0E92XIZQL", "dateTime": 1516909481131}, {"current_trial": 127, "trialdata": {"rt": -1000, "trial_type": "single-audio", "word": "office", "stimulus": "/static/audio/wordpool/OFFICE.wav", "conditions": [24, 800, "a", 12000], "internal_node_id": "0.0-91.0", "trial": 3, "time_elapsed": 623253, "serialpos": 10, "key_press": -1, "wordID": 971, "type": "PRES_AUD", "trial_index": 127}, "uniqueid": "MTK2272:3PPTZCWALRRP6IW1UQ6BH0E92XIZQL", "dateTime": 1516909482852}, {"current_trial": 128, "trialdata": {"rt": -1000, "trial_type": "single-audio", "word": "pudding", "stimulus": "/static/audio/wordpool/PUDDING.wav", "conditions": [24, 800, "a", 12000], "internal_node_id": "0.0-92.0", "trial": 3, "time_elapsed": 625243, "serialpos": 11, "key_press": -1, "wordID": 1138, "type": "PRES_AUD", "trial_index": 128}, "uniqueid": "MTK2272:3PPTZCWALRRP6IW1UQ6BH0E92XIZQL", "dateTime": 1516909484841}, {"current_trial": 129, "trialdata": {"rt": -1000, "trial_type": "single-audio", "word": "pastry", "stimulus": "/static/audio/wordpool/PASTRY.wav", "conditions": [24, 800, "a", 12000], "internal_node_id": "0.0-93.0", "trial": 3, "time_elapsed": 627123, "serialpos": 12, "key_press": -1, "wordID": 1021, "type": "PRES_AUD", "trial_index": 129}, "uniqueid": "MTK2272:3PPTZCWALRRP6IW1UQ6BH0E92XIZQL", "dateTime": 1516909486721}, {"current_trial": 130, "trialdata": {"rt": -1000, "trial_type": "single-audio", "word": "muffin", "stimulus": "/static/audio/wordpool/MUFFIN.wav", "conditions": [24, 800, "a", 12000], "internal_node_id": "0.0-94.0", "trial": 3, "time_elapsed": 628877, "serialpos": 13, "key_press": -1, "wordID": 928, "type": "PRES_AUD", "trial_index": 130}, "uniqueid": "MTK2272:3PPTZCWALRRP6IW1UQ6BH0E92XIZQL", "dateTime": 1516909488475}, {"current_trial": 131, "trialdata": {"rt": -1000, "trial_type": "single-audio", "word": "boyfriend", "stimulus": "/static/audio/wordpool/BOYFRIEND.wav", "conditions": [24, 800, "a", 12000], "internal_node_id": "0.0-95.0", "trial": 3, "time_elapsed": 630772, "serialpos": 14, "key_press": -1, "wordID": 161, "type": "PRES_AUD", "trial_index": 131}, "uniqueid": "MTK2272:3PPTZCWALRRP6IW1UQ6BH0E92XIZQL", "dateTime": 1516909490371}, {"current_trial": 132, "trialdata": {"rt": -1000, "trial_type": "single-audio", "word": "message", "stimulus": "/static/audio/wordpool/MESSAGE.wav", "conditions": [24, 800, "a", 12000], "internal_node_id": "0.0-96.0", "trial": 3, "time_elapsed": 632581, "serialpos": 15, "key_press": -1, "wordID": 887, "type": "PRES_AUD", "trial_index": 132}, "uniqueid": "MTK2272:3PPTZCWALRRP6IW1UQ6BH0E92XIZQL", "dateTime": 1516909492180}, {"current_trial": 133, "trialdata": {"rt": -1000, "trial_type": "single-audio", "word": "chapel", "stimulus": "/static/audio/wordpool/CHAPEL.wav", "conditions": [24, 800, "a", 12000], "internal_node_id": "0.0-97.0", "trial": 3, "time_elapsed": 634286, "serialpos": 16, "key_press": -1, "wordID": 279, "type": "PRES_AUD", "trial_index": 133}, "uniqueid": "MTK2272:3PPTZCWALRRP6IW1UQ6BH0E92XIZQL", "dateTime": 1516909493885}, {"current_trial": 134, "trialdata": {"rt": -1000, "trial_type": "single-audio", "word": "igloo", "stimulus": "/static/audio/wordpool/IGLOO.wav", "conditions": [24, 800, "a", 12000], "internal_node_id": "0.0-98.0", "trial": 3, "time_elapsed": 635962, "serialpos": 17, "key_press": -1, "wordID": 733, "type": "PRES_AUD", "trial_index": 134}, "uniqueid": "MTK2272:3PPTZCWALRRP6IW1UQ6BH0E92XIZQL", "dateTime": 1516909495561}, {"current_trial": 135, "trialdata": {"rt": -1000, "trial_type": "single-audio", "word": "world", "stimulus": "/static/audio/wordpool/WORLD.wav", "conditions": [24, 800, "a", 12000], "internal_node_id": "0.0-99.0", "trial": 3, "time_elapsed": 637575, "serialpos": 18, "key_press": -1, "wordID": 1621, "type": "PRES_AUD", "trial_index": 135}, "uniqueid": "MTK2272:3PPTZCWALRRP6IW1UQ6BH0E92XIZQL", "dateTime": 1516909497173}, {"current_trial": 136, "trialdata": {"rt": -1000, "trial_type": "single-audio", "word": "bacon", "stimulus": "/static/audio/wordpool/BACON.wav", "conditions": [24, 800, "a", 12000], "internal_node_id": "0.0-100.0", "trial": 3, "time_elapsed": 639466, "serialpos": 19, "key_press": -1, "wordID": 66, "type": "PRES_AUD", "trial_index": 136}, "uniqueid": "MTK2272:3PPTZCWALRRP6IW1UQ6BH0E92XIZQL", "dateTime": 1516909499065}, {"current_trial": 137, "trialdata": {"rt": -1000, "trial_type": "single-audio", "word": "bubble", "stimulus": "/static/audio/wordpool/BUBBLE.wav", "conditions": [24, 800, "a", 12000], "internal_node_id": "0.0-101.0", "trial": 3, "time_elapsed": 641294, "serialpos": 20, "key_press": -1, "wordID": 182, "type": "PRES_AUD", "trial_index": 137}, "uniqueid": "MTK2272:3PPTZCWALRRP6IW1UQ6BH0E92XIZQL", "dateTime": 1516909500892}, {"current_trial": 138, "trialdata": {"rt": -1000, "trial_type": "single-audio", "word": "bunny", "stimulus": "/static/audio/wordpool/BUNNY.wav", "conditions": [24, 800, "a", 12000], "internal_node_id": "0.0-102.0", "trial": 3, "time_elapsed": 643278, "serialpos": 21, "key_press": -1, "wordID": 197, "type": "PRES_AUD", "trial_index": 138}, "uniqueid": "MTK2272:3PPTZCWALRRP6IW1UQ6BH0E92XIZQL", "dateTime": 1516909502876}, {"current_trial": 139, "trialdata": {"rt": -1000, "trial_type": "single-audio", "word": "globe", "stimulus": "/static/audio/wordpool/GLOBE.wav", "conditions": [24, 800, "a", 12000], "internal_node_id": "0.0-103.0", "trial": 3, "time_elapsed": 645246, "serialpos": 22, "key_press": -1, "wordID": 640, "type": "PRES_AUD", "trial_index": 139}, "uniqueid": "MTK2272:3PPTZCWALRRP6IW1UQ6BH0E92XIZQL", "dateTime": 1516909504845}, {"current_trial": 140, "trialdata": {"rt": -1000, "trial_type": "single-audio", "word": "victim", "stimulus": "/static/audio/wordpool/VICTIM.wav", "conditions": [24, 800, "a", 12000], "internal_node_id": "0.0-104.0", "trial": 3, "time_elapsed": 646907, "serialpos": 23, "key_press": -1, "wordID": 1561, "type": "PRES_AUD", "trial_index": 140}, "uniqueid": "MTK2272:3PPTZCWALRRP6IW1UQ6BH0E92XIZQL", "dateTime": 1516909506505}, {"current_trial": 141, "trialdata": {"rt": -1, "trial_type": "single-stim", "stimulus": "", "internal_node_id": "0.0-105.0-0.0", "time_elapsed": 648139, "key_press": -1, "type": "PRE_RECALL_DELAY", "trial_index": 141}, "uniqueid": "MTK2272:3PPTZCWALRRP6IW1UQ6BH0E92XIZQL", "dateTime": 1516909507737}, {"current_trial": 142, "trialdata": {"rt": -1000, "trial_type": "single-audio", "stimulus": "/static/audio/400Hz.wav", "internal_node_id": "0.0-106.0", "time_elapsed": 648639, "key_press": -1, "type": "PRE_RECALL_ALERT", "trial_index": 142}, "uniqueid": "MTK2272:3PPTZCWALRRP6IW1UQ6BH0E92XIZQL", "dateTime": 1516909508238}, {"current_trial": 143, "trialdata": {"rt": [4171, 9939, 12603, 16155, 18828, 21603, 26795, 30259, 33315, 36611, 47467], "recwords": ["custard", "concert", "asia", "europe", "garlic", "paino", "panther", "igloo", "boyfriend", "bacon", "bunny"], "key_times": [2390, 2579, 2723, 2868, 2996, 3115, 3309, 4171, 7795, 8133, 8356, 8541, 8651, 8947, 9157, 9939, 11108, 11347, 11515, 11659, 12603, 13484, 13829, 14075, 14259, 14499, 14683, 16155, 16973, 17252, 17515, 17836, 18028, 18236, 18828, 20044, 20219, 20422, 20637, 20891, 21603, 22637, 24716, 24972, 25181, 25621, 25788, 25980, 26795, 28556, 28892, 29195, 29444, 29628, 30259, 31267, 31467, 31676, 31989, 32155, 32331, 32452, 32604, 32748, 33315, 34812, 35245, 35548, 35668, 35924, 36027, 36179, 36611, 46476, 46540, 46827, 46972, 47204, 47467], "trial_type": "free-recall", "conditions": [24, 800, "a", 12000], "internal_node_id": "0.0-107.0-0.0", "key_presses": [67, 85, 83, 84, 65, 82, 68, 13, 67, 79, 78, 67, 69, 82, 84, 13, 65, 83, 73, 65, 13, 69, 85, 82, 79, 80, 69, 13, 71, 65, 82, 76, 73, 67, 13, 80, 65, 73, 78, 79, 13, 80, 65, 78, 84, 72, 69, 82, 13, 73, 71, 76, 79, 79, 13, 66, 79, 89, 70, 82, 73, 69, 78, 68, 13, 67, 8, 66, 65, 67, 79, 78, 13, 66, 85, 78, 78, 89, 13], "trial": 3, "time_elapsed": 708644, "type": "FREE_RECALL", "trial_index": 143}, "uniqueid": "MTK2272:3PPTZCWALRRP6IW1UQ6BH0E92XIZQL", "dateTime": 1516909568243}, {"current_trial": 144, "trialdata": {"rt": 2846, "trial_type": "text", "internal_node_id": "0.0-108.0", "time_elapsed": 713493, "key_press": 32, "type": "INSTRUCTIONS", "trial_index": 144}, "uniqueid": "MTK2272:3PPTZCWALRRP6IW1UQ6BH0E92XIZQL", "dateTime": 1516909573091}, {"current_trial": 145, "trialdata": {"rt": [2599, 4967, 6631, 8255, 10486, 12558, 14342, 15630, 17863, 20135, 22695], "trial_type": "math-distractor", "key_times": [2223, 2391, 2599, 4599, 4799, 4967, 6214, 6407, 6631, 7879, 8048, 8255, 10151, 10272, 10486, 12064, 12263, 12558, 13996, 14158, 14342, 15422, 15630, 17422, 17655, 17863, 19767, 19967, 20135, 22359, 22503, 22695], "responses": ["14", "14", "19", "16", "16", "12", "11", "6", "20", "14", "21"], "num2": [5, 9, 9, 9, 5, 3, 3, 2, 6, 2, 7, 6], "num3": [5, 1, 3, 1, 7, 6, 2, 1, 6, 6, 5, 5], "conditions": [12, 1600, "a", 24000], "internal_node_id": "0.0-109.0", "key_presses": [97, 100, 13, 97, 100, 13, 97, 105, 13, 97, 102, 13, 97, 102, 13, 97, 98, 13, 97, 97, 13, 102, 13, 98, 96, 13, 97, 100, 13, 98, 97, 13], "trial": 4, "time_elapsed": 739496, "type": "DISTRACTOR", "trial_index": 145, "num1": [4, 4, 7, 6, 4, 3, 6, 3, 8, 6, 9, 4]}, "uniqueid": "MTK2272:3PPTZCWALRRP6IW1UQ6BH0E92XIZQL", "dateTime": 1516909599094}, {"current_trial": 146, "trialdata": {"rt": -1, "trial_type": "single-stim", "stimulus": "<p id=\"stim\">10</p>", "internal_node_id": "0.0-110.0-0.0", "time_elapsed": 742498, "key_press": -1, "trial_index": 146}, "uniqueid": "MTK2272:3PPTZCWALRRP6IW1UQ6BH0E92XIZQL", "dateTime": 1516909602096}, {"current_trial": 147, "trialdata": {"rt": -1, "trial_type": "single-stim", "stimulus": "<p id=\"stim\">9</p>", "internal_node_id": "0.0-110.0-1.0", "time_elapsed": 743500, "key_press": -1, "trial_index": 147}, "uniqueid": "MTK2272:3PPTZCWALRRP6IW1UQ6BH0E92XIZQL", "dateTime": 1516909603099}, {"current_trial": 148, "trialdata": {"rt": -1, "trial_type": "single-stim", "stimulus": "<p id=\"stim\">8</p>", "internal_node_id": "0.0-110.0-2.0", "time_elapsed": 744503, "key_press": -1, "trial_index": 148}, "uniqueid": "MTK2272:3PPTZCWALRRP6IW1UQ6BH0E92XIZQL", "dateTime": 1516909604101}, {"current_trial": 149, "trialdata": {"rt": -1, "trial_type": "single-stim", "stimulus": "<p id=\"stim\">7</p>", "internal_node_id": "0.0-110.0-3.0", "time_elapsed": 745506, "key_press": -1, "trial_index": 149}, "uniqueid": "MTK2272:3PPTZCWALRRP6IW1UQ6BH0E92XIZQL", "dateTime": 1516909605105}, {"current_trial": 150, "trialdata": {"rt": -1, "trial_type": "single-stim", "stimulus": "<p id=\"stim\">6</p>", "internal_node_id": "0.0-110.0-4.0", "time_elapsed": 746511, "key_press": -1, "trial_index": 150}, "uniqueid": "MTK2272:3PPTZCWALRRP6IW1UQ6BH0E92XIZQL", "dateTime": 1516909606110}, {"current_trial": 151, "trialdata": {"rt": -1, "trial_type": "single-stim", "stimulus": "<p id=\"stim\">5</p>", "internal_node_id": "0.0-110.0-5.0", "time_elapsed": 747513, "key_press": -1, "trial_index": 151}, "uniqueid": "MTK2272:3PPTZCWALRRP6IW1UQ6BH0E92XIZQL", "dateTime": 1516909607111}, {"current_trial": 152, "trialdata": {"rt": -1, "trial_type": "single-stim", "stimulus": "<p id=\"stim\">4</p>", "internal_node_id": "0.0-110.0-6.0", "time_elapsed": 748514, "key_press": -1, "trial_index": 152}, "uniqueid": "MTK2272:3PPTZCWALRRP6IW1UQ6BH0E92XIZQL", "dateTime": 1516909608112}, {"current_trial": 153, "trialdata": {"rt": -1, "trial_type": "single-stim", "stimulus": "<p id=\"stim\">3</p>", "internal_node_id": "0.0-110.0-7.0", "time_elapsed": 749516, "key_press": -1, "trial_index": 153}, "uniqueid": "MTK2272:3PPTZCWALRRP6IW1UQ6BH0E92XIZQL", "dateTime": 1516909609114}, {"current_trial": 154, "trialdata": {"rt": -1, "trial_type": "single-stim", "stimulus": "<p id=\"stim\">2</p>", "internal_node_id": "0.0-110.0-8.0", "time_elapsed": 750518, "key_press": -1, "trial_index": 154}, "uniqueid": "MTK2272:3PPTZCWALRRP6IW1UQ6BH0E92XIZQL", "dateTime": 1516909610116}, {"current_trial": 155, "trialdata": {"rt": -1, "trial_type": "single-stim", "stimulus": "<p id=\"stim\">1</p>", "internal_node_id": "0.0-110.0-9.0", "time_elapsed": 751519, "key_press": -1, "trial_index": 155}, "uniqueid": "MTK2272:3PPTZCWALRRP6IW1UQ6BH0E92XIZQL", "dateTime": 1516909611118}, {"current_trial": 156, "trialdata": {"rt": -1, "trial_type": "single-stim", "stimulus": "<p id=\"stim\">+</p>", "internal_node_id": "0.0-111.0-0.0", "time_elapsed": 753020, "key_press": -1, "type": "FIXATION", "trial_index": 156}, "uniqueid": "MTK2272:3PPTZCWALRRP6IW1UQ6BH0E92XIZQL", "dateTime": 1516909612618}, {"current_trial": 157, "trialdata": {"rt": -1000, "trial_type": "single-audio", "word": "airport", "stimulus": "/static/audio/wordpool/AIRPORT.wav", "conditions": [12, 1600, "a", 24000], "internal_node_id": "0.0-112.0", "trial": 4, "time_elapsed": 755511, "serialpos": 0, "key_press": -1, "wordID": 12, "type": "PRES_AUD", "trial_index": 157}, "uniqueid": "MTK2272:3PPTZCWALRRP6IW1UQ6BH0E92XIZQL", "dateTime": 1516909615109}, {"current_trial": 158, "trialdata": {"rt": -1000, "trial_type": "single-audio", "word": "pistol", "stimulus": "/static/audio/wordpool/PISTOL.wav", "conditions": [12, 1600, "a", 24000], "internal_node_id": "0.0-113.0", "trial": 4, "time_elapsed": 758069, "serialpos": 1, "key_press": -1, "wordID": 1074, "type": "PRES_AUD", "trial_index": 158}, "uniqueid": "MTK2272:3PPTZCWALRRP6IW1UQ6BH0E92XIZQL", "dateTime": 1516909617667}, {"current_trial": 159, "trialdata": {"rt": -1000, "trial_type": "single-audio", "word": "cousin", "stimulus": "/static/audio/wordpool/COUSIN.wav", "conditions": [12, 1600, "a", 24000], "internal_node_id": "0.0-114.0", "trial": 4, "time_elapsed": 760612, "serialpos": 2, "key_press": -1, "wordID": 391, "type": "PRES_AUD", "trial_index": 159}, "uniqueid": "MTK2272:3PPTZCWALRRP6IW1UQ6BH0E92XIZQL", "dateTime": 1516909620210}, {"current_trial": 160, "trialdata": {"rt": -1000, "trial_type": "single-audio", "word": "twister", "stimulus": "/static/audio/wordpool/TWISTER.wav", "conditions": [12, 1600, "a", 24000], "internal_node_id": "0.0-115.0", "trial": 4, "time_elapsed": 763359, "serialpos": 3, "key_press": -1, "wordID": 1529, "type": "PRES_AUD", "trial_index": 160}, "uniqueid": "MTK2272:3PPTZCWALRRP6IW1UQ6BH0E92XIZQL", "dateTime": 1516909622958}, {"current_trial": 161, "trialdata": {"rt": -1000, "trial_type": "single-audio", "word": "label", "stimulus": "/static/audio/wordpool/LABEL.wav", "conditions": [12, 1600, "a", 24000], "internal_node_id": "0.0-116.0", "trial": 4, "time_elapsed": 766015, "serialpos": 4, "key_press": -1, "wordID": 789, "type": "PRES_AUD", "trial_index": 161}, "uniqueid": "MTK2272:3PPTZCWALRRP6IW1UQ6BH0E92XIZQL", "dateTime": 1516909625613}, {"current_trial": 162, "trialdata": {"rt": -1000, "trial_type": "single-audio", "word": "binder", "stimulus": "/static/audio/wordpool/BINDER.wav", "conditions": [12, 1600, "a", 24000], "internal_node_id": "0.0-117.0", "trial": 4, "time_elapsed": 768777, "serialpos": 5, "key_press": -1, "wordID": 126, "type": "PRES_AUD", "trial_index": 162}, "uniqueid": "MTK2272:3PPTZCWALRRP6IW1UQ6BH0E92XIZQL", "dateTime": 1516909628376}, {"current_trial": 163, "trialdata": {"rt": -1000, "trial_type": "single-audio", "word": "patrol", "stimulus": "/static/audio/wordpool/PATROL.wav", "conditions": [12, 1600, "a", 24000], "internal_node_id": "0.0-118.0", "trial": 4, "time_elapsed": 771408, "serialpos": 6, "key_press": -1, "wordID": 1026, "type": "PRES_AUD", "trial_index": 163}, "uniqueid": "MTK2272:3PPTZCWALRRP6IW1UQ6BH0E92XIZQL", "dateTime": 1516909631006}, {"current_trial": 164, "trialdata": {"rt": -1000, "trial_type": "single-audio", "word": "police", "stimulus": "/static/audio/wordpool/POLICE.wav", "conditions": [12, 1600, "a", 24000], "internal_node_id": "0.0-119.0", "trial": 4, "time_elapsed": 773837, "serialpos": 7, "key_press": -1, "wordID": 1097, "type": "PRES_AUD", "trial_index": 164}, "uniqueid": "MTK2272:3PPTZCWALRRP6IW1UQ6BH0E92XIZQL", "dateTime": 1516909633436}, {"current_trial": 165, "trialdata": {"rt": -1000, "trial_type": "single-audio", "word": "necklace", "stimulus": "/static/audio/wordpool/NECKLACE.wav", "conditions": [12, 1600, "a", 24000], "internal_node_id": "0.0-120.0", "trial": 4, "time_elapsed": 776316, "serialpos": 8, "key_press": -1, "wordID": 939, "type": "PRES_AUD", "trial_index": 165}, "uniqueid": "MTK2272:3PPTZCWALRRP6IW1UQ6BH0E92XIZQL", "dateTime": 1516909635914}, {"current_trial": 166, "trialdata": {"rt": -1000, "trial_type": "single-audio", "word": "stamp", "stimulus": "/static/audio/wordpool/STAMP.wav", "conditions": [12, 1600, "a", 24000], "internal_node_id": "0.0-121.0", "trial": 4, "time_elapsed": 778755, "serialpos": 9, "key_press": -1, "wordID": 1369, "type": "PRES_AUD", "trial_index": 166}, "uniqueid": "MTK2272:3PPTZCWALRRP6IW1UQ6BH0E92XIZQL", "dateTime": 1516909638354}, {"current_trial": 167, "trialdata": {"rt": -1000, "trial_type": "single-audio", "word": "knife", "stimulus": "/static/audio/wordpool/KNIFE.wav", "conditions": [12, 1600, "a", 24000], "internal_node_id": "0.0-122.0", "trial": 4, "time_elapsed": 781513, "serialpos": 10, "key_press": -1, "wordID": 784, "type": "PRES_AUD", "trial_index": 167}, "uniqueid": "MTK2272:3PPTZCWALRRP6IW1UQ6BH0E92XIZQL", "dateTime": 1516909641112}, {"current_trial": 168, "trialdata": {"rt": -1000, "trial_type": "single-audio", "word": "costume", "stimulus": "/static/audio/wordpool/COSTUME.wav", "conditions": [12, 1600, "a", 24000], "internal_node_id": "0.0-123.0", "trial": 4, "time_elapsed": 784205, "serialpos": 11, "key_press": -1, "wordID": 382, "type": "PRES_AUD", "trial_index": 168}, "uniqueid": "MTK2272:3PPTZCWALRRP6IW1UQ6BH0E92XIZQL", "dateTime": 1516909643803}, {"current_trial": 169, "trialdata": {"rt": -1, "trial_type": "single-stim", "stimulus": "", "internal_node_id": "0.0-124.0-0.0", "time_elapsed": 785464, "key_press": -1, "type": "PRE_RECALL_DELAY", "trial_index": 169}, "uniqueid": "MTK2272:3PPTZCWALRRP6IW1UQ6BH0E92XIZQL", "dateTime": 1516909645062}, {"current_trial": 170, "trialdata": {"rt": -1000, "trial_type": "single-audio", "stimulus": "/static/audio/400Hz.wav", "internal_node_id": "0.0-125.0", "time_elapsed": 785965, "key_press": -1, "type": "PRE_RECALL_ALERT", "trial_index": 170}, "uniqueid": "MTK2272:3PPTZCWALRRP6IW1UQ6BH0E92XIZQL", "dateTime": 1516909645563}, {"current_trial": 171, "trialdata": {"rt": [5959, 8527, 10568, 13719, 17695, 21096, 23624, 26327, 29295], "recwords": ["airport", "pistol", "twister", "cousin", "patrol", "police", "knife", "stamp", "costume"], "key_times": [3145, 3392, 3599, 3792, 3968, 4305, 4506, 5959, 6488, 6695, 6839, 7105, 7224, 7440, 8527, 9040, 9289, 9472, 9618, 9873, 10081, 10258, 10568, 12480, 12607, 12712, 12905, 13010, 13202, 13719, 15632, 16072, 16344, 16448, 16744, 16922, 16984, 17207, 17695, 19905, 20064, 20257, 20471, 20675, 20912, 21096, 22617, 22808, 22968, 23177, 23410, 23624, 24920, 25227, 25489, 25583, 25809, 26327, 27167, 27368, 27552, 27824, 27952, 28207, 28303, 29295], "trial_type": "free-recall", "conditions": [12, 1600, "a", 24000], "internal_node_id": "0.0-126.0-0.0", "key_presses": [65, 73, 82, 80, 79, 82, 84, 13, 80, 73, 83, 84, 79, 76, 13, 84, 87, 73, 83, 84, 69, 82, 13, 67, 79, 85, 83, 73, 78, 13, 79, 8, 80, 65, 84, 82, 79, 76, 13, 80, 79, 76, 73, 67, 69, 13, 75, 78, 73, 70, 69, 13, 83, 84, 65, 77, 80, 13, 67, 79, 83, 84, 85, 77, 69, 13], "trial": 4, "time_elapsed": 845967, "type": "FREE_RECALL", "trial_index": 171}, "uniqueid": "MTK2272:3PPTZCWALRRP6IW1UQ6BH0E92XIZQL", "dateTime": 1516909705570}, {"current_trial": 172, "trialdata": {"rt": 2226, "trial_type": "text", "internal_node_id": "0.0-127.0", "time_elapsed": 850199, "key_press": 32, "type": "INSTRUCTIONS", "trial_index": 172}, "uniqueid": "MTK2272:3PPTZCWALRRP6IW1UQ6BH0E92XIZQL", "dateTime": 1516909709797}, {"current_trial": 173, "trialdata": {"rt": [3012, 5421, 7636, 9292, 12429, 14277, 15909, 18036, 20372, 22124, 23701], "trial_type": "math-distractor", "key_times": [2709, 3012, 5032, 5087, 5421, 7340, 7636, 8829, 9077, 9292, 12134, 12429, 13877, 14045, 14277, 15453, 15639, 15909, 17532, 17781, 18036, 19975, 20119, 20372, 21693, 21828, 22124, 23301, 23501, 23701], "responses": ["9", "16", "8", "13", "9", "11", "11", "17", "21", "11", "14"], "num2": [2, 6, 1, 9, 2, 7, 1, 6, 6, 4, 4, 7], "num3": [5, 8, 3, 1, 3, 2, 4, 4, 8, 5, 5, 2], "conditions": [12, 800, "a", 24000], "internal_node_id": "0.0-128.0", "key_presses": [105, 13, 97, 102, 13, 104, 13, 97, 99, 13, 105, 13, 97, 97, 13, 97, 97, 13, 97, 103, 13, 98, 97, 13, 97, 97, 13, 97, 100, 13], "trial": 5, "time_elapsed": 876203, "type": "DISTRACTOR", "trial_index": 173, "num1": [2, 2, 4, 3, 4, 2, 6, 7, 7, 2, 5, 3]}, "uniqueid": "MTK2272:3PPTZCWALRRP6IW1UQ6BH0E92XIZQL", "dateTime": 1516909735802}, {"current_trial": 174, "trialdata": {"rt": -1, "trial_type": "single-stim", "stimulus": "<p id=\"stim\">10</p>", "internal_node_id": "0.0-129.0-0.0", "time_elapsed": 879206, "key_press": -1, "trial_index": 174}, "uniqueid": "MTK2272:3PPTZCWALRRP6IW1UQ6BH0E92XIZQL", "dateTime": 1516909738805}, {"current_trial": 175, "trialdata": {"rt": -1, "trial_type": "single-stim", "stimulus": "<p id=\"stim\">9</p>", "internal_node_id": "0.0-129.0-1.0", "time_elapsed": 880209, "key_press": -1, "trial_index": 175}, "uniqueid": "MTK2272:3PPTZCWALRRP6IW1UQ6BH0E92XIZQL", "dateTime": 1516909739808}, {"current_trial": 176, "trialdata": {"rt": -1, "trial_type": "single-stim", "stimulus": "<p id=\"stim\">8</p>", "internal_node_id": "0.0-129.0-2.0", "time_elapsed": 881212, "key_press": -1, "trial_index": 176}, "uniqueid": "MTK2272:3PPTZCWALRRP6IW1UQ6BH0E92XIZQL", "dateTime": 1516909740812}, {"current_trial": 177, "trialdata": {"rt": -1, "trial_type": "single-stim", "stimulus": "<p id=\"stim\">7</p>", "internal_node_id": "0.0-129.0-3.0", "time_elapsed": 882217, "key_press": -1, "trial_index": 177}, "uniqueid": "MTK2272:3PPTZCWALRRP6IW1UQ6BH0E92XIZQL", "dateTime": 1516909741815}, {"current_trial": 178, "trialdata": {"rt": -1, "trial_type": "single-stim", "stimulus": "<p id=\"stim\">6</p>", "internal_node_id": "0.0-129.0-4.0", "time_elapsed": 883219, "key_press": -1, "trial_index": 178}, "uniqueid": "MTK2272:3PPTZCWALRRP6IW1UQ6BH0E92XIZQL", "dateTime": 1516909742817}, {"current_trial": 179, "trialdata": {"rt": -1, "trial_type": "single-stim", "stimulus": "<p id=\"stim\">5</p>", "internal_node_id": "0.0-129.0-5.0", "time_elapsed": 884221, "key_press": -1, "trial_index": 179}, "uniqueid": "MTK2272:3PPTZCWALRRP6IW1UQ6BH0E92XIZQL", "dateTime": 1516909743819}, {"current_trial": 180, "trialdata": {"rt": -1, "trial_type": "single-stim", "stimulus": "<p id=\"stim\">4</p>", "internal_node_id": "0.0-129.0-6.0", "time_elapsed": 885223, "key_press": -1, "trial_index": 180}, "uniqueid": "MTK2272:3PPTZCWALRRP6IW1UQ6BH0E92XIZQL", "dateTime": 1516909744821}, {"current_trial": 181, "trialdata": {"rt": -1, "trial_type": "single-stim", "stimulus": "<p id=\"stim\">3</p>", "internal_node_id": "0.0-129.0-7.0", "time_elapsed": 886224, "key_press": -1, "trial_index": 181}, "uniqueid": "MTK2272:3PPTZCWALRRP6IW1UQ6BH0E92XIZQL", "dateTime": 1516909745822}, {"current_trial": 182, "trialdata": {"rt": -1, "trial_type": "single-stim", "stimulus": "<p id=\"stim\">2</p>", "internal_node_id": "0.0-129.0-8.0", "time_elapsed": 887225, "key_press": -1, "trial_index": 182}, "uniqueid": "MTK2272:3PPTZCWALRRP6IW1UQ6BH0E92XIZQL", "dateTime": 1516909746823}, {"current_trial": 183, "trialdata": {"rt": -1, "trial_type": "single-stim", "stimulus": "<p id=\"stim\">1</p>", "internal_node_id": "0.0-129.0-9.0", "time_elapsed": 888226, "key_press": -1, "trial_index": 183}, "uniqueid": "MTK2272:3PPTZCWALRRP6IW1UQ6BH0E92XIZQL", "dateTime": 1516909747825}, {"current_trial": 184, "trialdata": {"rt": -1, "trial_type": "single-stim", "stimulus": "<p id=\"stim\">+</p>", "internal_node_id": "0.0-130.0-0.0", "time_elapsed": 889729, "key_press": -1, "type": "FIXATION", "trial_index": 184}, "uniqueid": "MTK2272:3PPTZCWALRRP6IW1UQ6BH0E92XIZQL", "dateTime": 1516909749327}, {"current_trial": 185, "trialdata": {"rt": -1000, "trial_type": "single-audio", "word": "patient", "stimulus": "/static/audio/wordpool/PATIENT.wav", "conditions": [12, 800, "a", 24000], "internal_node_id": "0.0-131.0", "trial": 5, "time_elapsed": 891508, "serialpos": 0, "key_press": -1, "wordID": 1023, "type": "PRES_AUD", "trial_index": 185}, "uniqueid": "MTK2272:3PPTZCWALRRP6IW1UQ6BH0E92XIZQL", "dateTime": 1516909751107}, {"current_trial": 186, "trialdata": {"rt": -1000, "trial_type": "single-audio", "word": "luggage", "stimulus": "/static/audio/wordpool/LUGGAGE.wav", "conditions": [12, 800, "a", 24000], "internal_node_id": "0.0-132.0", "trial": 5, "time_elapsed": 893321, "serialpos": 1, "key_press": -1, "wordID": 846, "type": "PRES_AUD", "trial_index": 186}, "uniqueid": "MTK2272:3PPTZCWALRRP6IW1UQ6BH0E92XIZQL", "dateTime": 1516909752920}, {"current_trial": 187, "trialdata": {"rt": -1000, "trial_type": "single-audio", "word": "saddle", "stimulus": "/static/audio/wordpool/SADDLE.wav", "conditions": [12, 800, "a", 24000], "internal_node_id": "0.0-133.0", "trial": 5, "time_elapsed": 895062, "serialpos": 2, "key_press": -1, "wordID": 1220, "type": "PRES_AUD", "trial_index": 187}, "uniqueid": "MTK2272:3PPTZCWALRRP6IW1UQ6BH0E92XIZQL", "dateTime": 1516909754660}, {"current_trial": 188, "trialdata": {"rt": -1000, "trial_type": "single-audio", "word": "valley", "stimulus": "/static/audio/wordpool/VALLEY.wav", "conditions": [12, 800, "a", 24000], "internal_node_id": "0.0-134.0", "trial": 5, "time_elapsed": 896736, "serialpos": 3, "key_press": -1, "wordID": 1544, "type": "PRES_AUD", "trial_index": 188}, "uniqueid": "MTK2272:3PPTZCWALRRP6IW1UQ6BH0E92XIZQL", "dateTime": 1516909756334}, {"current_trial": 189, "trialdata": {"rt": -1000, "trial_type": "single-audio", "word": "worker", "stimulus": "/static/audio/wordpool/WORKER.wav", "conditions": [12, 800, "a", 24000], "internal_node_id": "0.0-135.0", "trial": 5, "time_elapsed": 898732, "serialpos": 4, "key_press": -1, "wordID": 1620, "type": "PRES_AUD", "trial_index": 189}, "uniqueid": "MTK2272:3PPTZCWALRRP6IW1UQ6BH0E92XIZQL", "dateTime": 1516909758330}, {"current_trial": 190, "trialdata": {"rt": -1000, "trial_type": "single-audio", "word": "padding", "stimulus": "/static/audio/wordpool/PADDING.wav", "conditions": [12, 800, "a", 24000], "internal_node_id": "0.0-136.0", "trial": 5, "time_elapsed": 900501, "serialpos": 5, "key_press": -1, "wordID": 998, "type": "PRES_AUD", "trial_index": 190}, "uniqueid": "MTK2272:3PPTZCWALRRP6IW1UQ6BH0E92XIZQL", "dateTime": 1516909760100}, {"current_trial": 191, "trialdata": {"rt": -1000, "trial_type": "single-audio", "word": "shorts", "stimulus": "/static/audio/wordpool/SHORTS.wav", "conditions": [12, 800, "a", 24000], "internal_node_id": "0.0-137.0", "trial": 5, "time_elapsed": 902311, "serialpos": 6, "key_press": -1, "wordID": 1292, "type": "PRES_AUD", "trial_index": 191}, "uniqueid": "MTK2272:3PPTZCWALRRP6IW1UQ6BH0E92XIZQL", "dateTime": 1516909761910}, {"current_trial": 192, "trialdata": {"rt": -1000, "trial_type": "single-audio", "word": "silk", "stimulus": "/static/audio/wordpool/SILK.wav", "conditions": [12, 800, "a", 24000], "internal_node_id": "0.0-138.0", "trial": 5, "time_elapsed": 904253, "serialpos": 7, "key_press": -1, "wordID": 1306, "type": "PRES_AUD", "trial_index": 192}, "uniqueid": "MTK2272:3PPTZCWALRRP6IW1UQ6BH0E92XIZQL", "dateTime": 1516909763851}, {"current_trial": 193, "trialdata": {"rt": -1000, "trial_type": "single-audio", "word": "sunset", "stimulus": "/static/audio/wordpool/SUNSET.wav", "conditions": [12, 800, "a", 24000], "internal_node_id": "0.0-139.0", "trial": 5, "time_elapsed": 906064, "serialpos": 8, "key_press": -1, "wordID": 1407, "type": "PRES_AUD", "trial_index": 193}, "uniqueid": "MTK2272:3PPTZCWALRRP6IW1UQ6BH0E92XIZQL", "dateTime": 1516909765662}, {"current_trial": 194, "trialdata": {"rt": -1000, "trial_type": "single-audio", "word": "sunrise", "stimulus": "/static/audio/wordpool/SUNRISE.wav", "conditions": [12, 800, "a", 24000], "internal_node_id": "0.0-140.0", "trial": 5, "time_elapsed": 907713, "serialpos": 9, "key_press": -1, "wordID": 1406, "type": "PRES_AUD", "trial_index": 194}, "uniqueid": "MTK2272:3PPTZCWALRRP6IW1UQ6BH0E92XIZQL", "dateTime": 1516909767312}, {"current_trial": 195, "trialdata": {"rt": -1000, "trial_type": "single-audio", "word": "suitcase", "stimulus": "/static/audio/wordpool/SUITCASE.wav", "conditions": [12, 800, "a", 24000], "internal_node_id": "0.0-141.0", "trial": 5, "time_elapsed": 909699, "serialpos": 10, "key_press": -1, "wordID": 1402, "type": "PRES_AUD", "trial_index": 195}, "uniqueid": "MTK2272:3PPTZCWALRRP6IW1UQ6BH0E92XIZQL", "dateTime": 1516909769297}, {"current_trial": 196, "trialdata": {"rt": -1000, "trial_type": "single-audio", "word": "scribble", "stimulus": "/static/audio/wordpool/SCRIBBLE.wav", "conditions": [12, 800, "a", 24000], "internal_node_id": "0.0-142.0", "trial": 5, "time_elapsed": 911626, "serialpos": 11, "key_press": -1, "wordID": 1255, "type": "PRES_AUD", "trial_index": 196}, "uniqueid": "MTK2272:3PPTZCWALRRP6IW1UQ6BH0E92XIZQL", "dateTime": 1516909771224}, {"current_trial": 197, "trialdata": {"rt": -1, "trial_type": "single-stim", "stimulus": "", "internal_node_id": "0.0-143.0-0.0", "time_elapsed": 912896, "key_press": -1, "type": "PRE_RECALL_DELAY", "trial_index": 197}, "uniqueid": "MTK2272:3PPTZCWALRRP6IW1UQ6BH0E92XIZQL", "dateTime": 1516909772495}, {"current_trial": 198, "trialdata": {"rt": -1000, "trial_type": "single-audio", "stimulus": "/static/audio/400Hz.wav", "internal_node_id": "0.0-144.0", "time_elapsed": 913399, "key_press": -1, "type": "PRE_RECALL_ALERT", "trial_index": 198}, "uniqueid": "MTK2272:3PPTZCWALRRP6IW1UQ6BH0E92XIZQL", "dateTime": 1516909772997}, {"current_trial": 199, "trialdata": {"rt": [6521, 8745, 11545, 13513, 20792, 24401, 26801, 28816], "recwords": ["patient", "luggage", "valley", "worker", "shorts", "sunrise", "sunset", "scribble"], "key_times": [3745, 3849, 4225, 4369, 4665, 4841, 5001, 6521, 7043, 7272, 7569, 7715, 7826, 7969, 8089, 8745, 9692, 9938, 10108, 10275, 10464, 10672, 11545, 12609, 12697, 12881, 13034, 13136, 13305, 13513, 19618, 19867, 19979, 20162, 20332, 20585, 20792, 22888, 23225, 23458, 23739, 23880, 24010, 24216, 24401, 24801, 24915, 25122, 25266, 25473, 25753, 26801, 27161, 27393, 27585, 27769, 28009, 28154, 28401, 28514, 28816], "trial_type": "free-recall", "conditions": [12, 800, "a", 24000], "internal_node_id": "0.0-145.0-0.0", "key_presses": [80, 65, 84, 73, 69, 78, 84, 13, 76, 85, 71, 71, 65, 71, 69, 13, 86, 65, 76, 76, 69, 89, 13, 87, 79, 82, 75, 69, 82, 13, 83, 72, 79, 82, 84, 83, 13, 83, 85, 78, 82, 73, 83, 69, 13, 83, 85, 78, 83, 69, 84, 13, 83, 67, 82, 73, 66, 66, 76, 69, 13], "trial": 5, "time_elapsed": 973405, "type": "FREE_RECALL", "trial_index": 199}, "uniqueid": "MTK2272:3PPTZCWALRRP6IW1UQ6BH0E92XIZQL", "dateTime": 1516909833006}, {"current_trial": 200, "trialdata": {"rt": 2455, "trial_type": "text", "internal_node_id": "0.0-146.0", "time_elapsed": 977865, "key_press": 32, "type": "INSTRUCTIONS", "trial_index": 200}, "uniqueid": "MTK2272:3PPTZCWALRRP6IW1UQ6BH0E92XIZQL", "dateTime": 1516909837464}, {"current_trial": 201, "trialdata": {"rt": [2961, 4449, 7801, 9345, 10992, 13321, 16064, 17553, 19009, 20601, 22601], "trial_type": "math-distractor", "key_times": [1954, 2626, 2961, 4057, 4241, 4449, 6473, 7505, 7801, 8970, 9121, 9345, 10489, 10745, 10992, 12985, 13160, 13321, 15667, 15875, 16064, 17161, 17345, 17553, 18626, 18809, 19009, 20185, 20314, 20601, 21825, 22089, 22601], "responses": ["17", "13", "17", "11", "17", "20", "16", "10", "16", "11", "10"], "num2": [6, 5, 7, 4, 9, 9, 4, 1, 3, 7, 4, 6], "num3": [6, 6, 8, 4, 7, 8, 7, 4, 6, 2, 2, 5], "conditions": [24, 800, "a", 24000], "internal_node_id": "0.0-147.0", "key_presses": [97, 103, 13, 97, 99, 13, 97, 103, 13, 97, 97, 13, 97, 103, 13, 98, 96, 13, 97, 102, 13, 97, 96, 13, 97, 102, 13, 97, 97, 13, 97, 96, 13], "trial": 6, "time_elapsed": 1003871, "type": "DISTRACTOR", "trial_index": 201, "num1": [5, 2, 2, 3, 1, 3, 5, 5, 7, 2, 4, 8]}, "uniqueid": "MTK2272:3PPTZCWALRRP6IW1UQ6BH0E92XIZQL", "dateTime": 1516909863471}, {"current_trial": 202, "trialdata": {"rt": -1, "trial_type": "single-stim", "stimulus": "<p id=\"stim\">10</p>", "internal_node_id": "0.0-148.0-0.0", "time_elapsed": 1006875, "key_press": -1, "trial_index": 202}, "uniqueid": "MTK2272:3PPTZCWALRRP6IW1UQ6BH0E92XIZQL", "dateTime": 1516909866474}, {"current_trial": 203, "trialdata": {"rt": -1, "trial_type": "single-stim", "stimulus": "<p id=\"stim\">9</p>", "internal_node_id": "0.0-148.0-1.0", "time_elapsed": 1007878, "key_press": -1, "trial_index": 203}, "uniqueid": "MTK2272:3PPTZCWALRRP6IW1UQ6BH0E92XIZQL", "dateTime": 1516909867476}, {"current_trial": 204, "trialdata": {"rt": -1, "trial_type": "single-stim", "stimulus": "<p id=\"stim\">8</p>", "internal_node_id": "0.0-148.0-2.0", "time_elapsed": 1008879, "key_press": -1, "trial_index": 204}, "uniqueid": "MTK2272:3PPTZCWALRRP6IW1UQ6BH0E92XIZQL", "dateTime": 1516909868477}, {"current_trial": 205, "trialdata": {"rt": -1, "trial_type": "single-stim", "stimulus": "<p id=\"stim\">7</p>", "internal_node_id": "0.0-148.0-3.0", "time_elapsed": 1009881, "key_press": -1, "trial_index": 205}, "uniqueid": "MTK2272:3PPTZCWALRRP6IW1UQ6BH0E92XIZQL", "dateTime": 1516909869480}, {"current_trial": 206, "trialdata": {"rt": -1, "trial_type": "single-stim", "stimulus": "<p id=\"stim\">6</p>", "internal_node_id": "0.0-148.0-4.0", "time_elapsed": 1010883, "key_press": -1, "trial_index": 206}, "uniqueid": "MTK2272:3PPTZCWALRRP6IW1UQ6BH0E92XIZQL", "dateTime": 1516909870481}, {"current_trial": 207, "trialdata": {"rt": -1, "trial_type": "single-stim", "stimulus": "<p id=\"stim\">5</p>", "internal_node_id": "0.0-148.0-5.0", "time_elapsed": 1011884, "key_press": -1, "trial_index": 207}, "uniqueid": "MTK2272:3PPTZCWALRRP6IW1UQ6BH0E92XIZQL", "dateTime": 1516909871482}, {"current_trial": 208, "trialdata": {"rt": -1, "trial_type": "single-stim", "stimulus": "<p id=\"stim\">4</p>", "internal_node_id": "0.0-148.0-6.0", "time_elapsed": 1012885, "key_press": -1, "trial_index": 208}, "uniqueid": "MTK2272:3PPTZCWALRRP6IW1UQ6BH0E92XIZQL", "dateTime": 1516909872483}, {"current_trial": 209, "trialdata": {"rt": -1, "trial_type": "single-stim", "stimulus": "<p id=\"stim\">3</p>", "internal_node_id": "0.0-148.0-7.0", "time_elapsed": 1013887, "key_press": -1, "trial_index": 209}, "uniqueid": "MTK2272:3PPTZCWALRRP6IW1UQ6BH0E92XIZQL", "dateTime": 1516909873485}, {"current_trial": 210, "trialdata": {"rt": -1, "trial_type": "single-stim", "stimulus": "<p id=\"stim\">2</p>", "internal_node_id": "0.0-148.0-8.0", "time_elapsed": 1014889, "key_press": -1, "trial_index": 210}, "uniqueid": "MTK2272:3PPTZCWALRRP6IW1UQ6BH0E92XIZQL", "dateTime": 1516909874487}, {"current_trial": 211, "trialdata": {"rt": -1, "trial_type": "single-stim", "stimulus": "<p id=\"stim\">1</p>", "internal_node_id": "0.0-148.0-9.0", "time_elapsed": 1015891, "key_press": -1, "trial_index": 211}, "uniqueid": "MTK2272:3PPTZCWALRRP6IW1UQ6BH0E92XIZQL", "dateTime": 1516909875489}, {"current_trial": 212, "trialdata": {"rt": -1, "trial_type": "single-stim", "stimulus": "<p id=\"stim\">+</p>", "internal_node_id": "0.0-149.0-0.0", "time_elapsed": 1017392, "key_press": -1, "type": "FIXATION", "trial_index": 212}, "uniqueid": "MTK2272:3PPTZCWALRRP6IW1UQ6BH0E92XIZQL", "dateTime": 1516909876990}, {"current_trial": 213, "trialdata": {"rt": -1000, "trial_type": "single-audio", "word": "scallop", "stimulus": "/static/audio/wordpool/SCALLOP.wav", "conditions": [24, 800, "a", 24000], "internal_node_id": "0.0-150.0", "trial": 6, "time_elapsed": 1019096, "serialpos": 0, "key_press": -1, "wordID": 1241, "type": "PRES_AUD", "trial_index": 213}, "uniqueid": "MTK2272:3PPTZCWALRRP6IW1UQ6BH0E92XIZQL", "dateTime": 1516909878695}, {"current_trial": 214, "trialdata": {"rt": -1000, "trial_type": "single-audio", "word": "catcher", "stimulus": "/static/audio/wordpool/CATCHER.wav", "conditions": [24, 800, "a", 24000], "internal_node_id": "0.0-151.0", "trial": 6, "time_elapsed": 1020922, "serialpos": 1, "key_press": -1, "wordID": 257, "type": "PRES_AUD", "trial_index": 214}, "uniqueid": "MTK2272:3PPTZCWALRRP6IW1UQ6BH0E92XIZQL", "dateTime": 1516909880520}, {"current_trial": 215, "trialdata": {"rt": -1000, "trial_type": "single-audio", "word": "kleenex", "stimulus": "/static/audio/wordpool/KLEENEX.wav", "conditions": [24, 800, "a", 24000], "internal_node_id": "0.0-152.0", "trial": 6, "time_elapsed": 1022611, "serialpos": 2, "key_press": -1, "wordID": 781, "type": "PRES_AUD", "trial_index": 215}, "uniqueid": "MTK2272:3PPTZCWALRRP6IW1UQ6BH0E92XIZQL", "dateTime": 1516909882210}, {"current_trial": 216, "trialdata": {"rt": -1000, "trial_type": "single-audio", "word": "ulcer", "stimulus": "/static/audio/wordpool/ULCER.wav", "conditions": [24, 800, "a", 24000], "internal_node_id": "0.0-153.0", "trial": 6, "time_elapsed": 1024599, "serialpos": 3, "key_press": -1, "wordID": 1532, "type": "PRES_AUD", "trial_index": 216}, "uniqueid": "MTK2272:3PPTZCWALRRP6IW1UQ6BH0E92XIZQL", "dateTime": 1516909884197}, {"current_trial": 217, "trialdata": {"rt": -1000, "trial_type": "single-audio", "word": "france", "stimulus": "/static/audio/wordpool/FRANCE.wav", "conditions": [24, 800, "a", 24000], "internal_node_id": "0.0-154.0", "trial": 6, "time_elapsed": 1026383, "serialpos": 4, "key_press": -1, "wordID": 600, "type": "PRES_AUD", "trial_index": 217}, "uniqueid": "MTK2272:3PPTZCWALRRP6IW1UQ6BH0E92XIZQL", "dateTime": 1516909885981}, {"current_trial": 218, "trialdata": {"rt": -1000, "trial_type": "single-audio", "word": "monster", "stimulus": "/static/audio/wordpool/MONSTER.wav", "conditions": [24, 800, "a", 24000], "internal_node_id": "0.0-155.0", "trial": 6, "time_elapsed": 1028314, "serialpos": 5, "key_press": -1, "wordID": 911, "type": "PRES_AUD", "trial_index": 218}, "uniqueid": "MTK2272:3PPTZCWALRRP6IW1UQ6BH0E92XIZQL", "dateTime": 1516909887912}, {"current_trial": 219, "trialdata": {"rt": -1000, "trial_type": "single-audio", "word": "statue", "stimulus": "/static/audio/wordpool/STATUE.wav", "conditions": [24, 800, "a", 24000], "internal_node_id": "0.0-156.0", "trial": 6, "time_elapsed": 1030009, "serialpos": 6, "key_press": -1, "wordID": 1373, "type": "PRES_AUD", "trial_index": 219}, "uniqueid": "MTK2272:3PPTZCWALRRP6IW1UQ6BH0E92XIZQL", "dateTime": 1516909889607}, {"current_trial": 220, "trialdata": {"rt": -1000, "trial_type": "single-audio", "word": "robot", "stimulus": "/static/audio/wordpool/ROBOT.wav", "conditions": [24, 800, "a", 24000], "internal_node_id": "0.0-157.0", "trial": 6, "time_elapsed": 1031782, "serialpos": 7, "key_press": -1, "wordID": 1199, "type": "PRES_AUD", "trial_index": 220}, "uniqueid": "MTK2272:3PPTZCWALRRP6IW1UQ6BH0E92XIZQL", "dateTime": 1516909891380}, {"current_trial": 221, "trialdata": {"rt": -1000, "trial_type": "single-audio", "word": "slug", "stimulus": "/static/audio/wordpool/SLUG.wav", "conditions": [24, 800, "a", 24000], "internal_node_id": "0.0-158.0", "trial": 6, "time_elapsed": 1033736, "serialpos": 8, "key_press": -1, "wordID": 1328, "type": "PRES_AUD", "trial_index": 221}, "uniqueid": "MTK2272:3PPTZCWALRRP6IW1UQ6BH0E92XIZQL", "dateTime": 1516909893335}, {"current_trial": 222, "trialdata": {"rt": -1000, "trial_type": "single-audio", "word": "japan", "stimulus": "/static/audio/wordpool/JAPAN.wav", "conditions": [24, 800, "a", 24000], "internal_node_id": "0.0-159.0", "trial": 6, "time_elapsed": 1035504, "serialpos": 9, "key_press": -1, "wordID": 748, "type": "PRES_AUD", "trial_index": 222}, "uniqueid": "MTK2272:3PPTZCWALRRP6IW1UQ6BH0E92XIZQL", "dateTime": 1516909895102}, {"current_trial": 223, "trialdata": {"rt": -1000, "trial_type": "single-audio", "word": "barrel", "stimulus": "/static/audio/wordpool/BARREL.wav", "conditions": [24, 800, "a", 24000], "internal_node_id": "0.0-160.0", "trial": 6, "time_elapsed": 1037214, "serialpos": 10, "key_press": -1, "wordID": 90, "type": "PRES_AUD", "trial_index": 223}, "uniqueid": "MTK2272:3PPTZCWALRRP6IW1UQ6BH0E92XIZQL", "dateTime": 1516909896812}, {"current_trial": 224, "trialdata": {"rt": -1000, "trial_type": "single-audio", "word": "gallon", "stimulus": "/static/audio/wordpool/GALLON.wav", "conditions": [24, 800, "a", 24000], "internal_node_id": "0.0-161.0", "trial": 6, "time_elapsed": 1039008, "serialpos": 11, "key_press": -1, "wordID": 617, "type": "PRES_AUD", "trial_index": 224}, "uniqueid": "MTK2272:3PPTZCWALRRP6IW1UQ6BH0E92XIZQL", "dateTime": 1516909898606}, {"current_trial": 225, "trialdata": {"rt": -1000, "trial_type": "single-audio", "word": "penguin", "stimulus": "/static/audio/wordpool/PENGUIN.wav", "conditions": [24, 800, "a", 24000], "internal_node_id": "0.0-162.0", "trial": 6, "time_elapsed": 1040771, "serialpos": 12, "key_press": -1, "wordID": 1043, "type": "PRES_AUD", "trial_index": 225}, "uniqueid": "MTK2272:3PPTZCWALRRP6IW1UQ6BH0E92XIZQL", "dateTime": 1516909900369}, {"current_trial": 226, "trialdata": {"rt": -1000, "trial_type": "single-audio", "word": "brother", "stimulus": "/static/audio/wordpool/BROTHER.wav", "conditions": [24, 800, "a", 24000], "internal_node_id": "0.0-163.0", "trial": 6, "time_elapsed": 1042489, "serialpos": 13, "key_press": -1, "wordID": 178, "type": "PRES_AUD", "trial_index": 226}, "uniqueid": "MTK2272:3PPTZCWALRRP6IW1UQ6BH0E92XIZQL", "dateTime": 1516909902087}, {"current_trial": 227, "trialdata": {"rt": -1000, "trial_type": "single-audio", "word": "wife", "stimulus": "/static/audio/wordpool/WIFE.wav", "conditions": [24, 800, "a", 24000], "internal_node_id": "0.0-164.0", "trial": 6, "time_elapsed": 1044225, "serialpos": 14, "key_press": -1, "wordID": 1608, "type": "PRES_AUD", "trial_index": 227}, "uniqueid": "MTK2272:3PPTZCWALRRP6IW1UQ6BH0E92XIZQL", "dateTime": 1516909903824}, {"current_trial": 228, "trialdata": {"rt": -1000, "trial_type": "single-audio", "word": "mammal", "stimulus": "/static/audio/wordpool/MAMMAL.wav", "conditions": [24, 800, "a", 24000], "internal_node_id": "0.0-165.0", "trial": 6, "time_elapsed": 1046173, "serialpos": 15, "key_press": -1, "wordID": 860, "type": "PRES_AUD", "trial_index": 228}, "uniqueid": "MTK2272:3PPTZCWALRRP6IW1UQ6BH0E92XIZQL", "dateTime": 1516909905772}, {"current_trial": 229, "trialdata": {"rt": -1000, "trial_type": "single-audio", "word": "poet", "stimulus": "/static/audio/wordpool/POET.wav", "conditions": [24, 800, "a", 24000], "internal_node_id": "0.0-166.0", "trial": 6, "time_elapsed": 1048051, "serialpos": 16, "key_press": -1, "wordID": 1094, "type": "PRES_AUD", "trial_index": 229}, "uniqueid": "MTK2272:3PPTZCWALRRP6IW1UQ6BH0E92XIZQL", "dateTime": 1516909907649}, {"current_trial": 230, "trialdata": {"rt": -1000, "trial_type": "single-audio", "word": "sword", "stimulus": "/static/audio/wordpool/SWORD.wav", "conditions": [24, 800, "a", 24000], "internal_node_id": "0.0-167.0", "trial": 6, "time_elapsed": 1049667, "serialpos": 17, "key_press": -1, "wordID": 1422, "type": "PRES_AUD", "trial_index": 230}, "uniqueid": "MTK2272:3PPTZCWALRRP6IW1UQ6BH0E92XIZQL", "dateTime": 1516909909266}, {"current_trial": 231, "trialdata": {"rt": -1000, "trial_type": "single-audio", "word": "bullet", "stimulus": "/static/audio/wordpool/BULLET.wav", "conditions": [24, 800, "a", 24000], "internal_node_id": "0.0-168.0", "trial": 6, "time_elapsed": 1051554, "serialpos": 18, "key_press": -1, "wordID": 193, "type": "PRES_AUD", "trial_index": 231}, "uniqueid": "MTK2272:3PPTZCWALRRP6IW1UQ6BH0E92XIZQL", "dateTime": 1516909911152}, {"current_trial": 232, "trialdata": {"rt": -1000, "trial_type": "single-audio", "word": "elbow", "stimulus": "/static/audio/wordpool/ELBOW.wav", "conditions": [24, 800, "a", 24000], "internal_node_id": "0.0-169.0", "trial": 6, "time_elapsed": 1053524, "serialpos": 19, "key_press": -1, "wordID": 519, "type": "PRES_AUD", "trial_index": 232}, "uniqueid": "MTK2272:3PPTZCWALRRP6IW1UQ6BH0E92XIZQL", "dateTime": 1516909913122}, {"current_trial": 233, "trialdata": {"rt": -1000, "trial_type": "single-audio", "word": "friend", "stimulus": "/static/audio/wordpool/FRIEND.wav", "conditions": [24, 800, "a", 24000], "internal_node_id": "0.0-170.0", "trial": 6, "time_elapsed": 1055302, "serialpos": 20, "key_press": -1, "wordID": 605, "type": "PRES_AUD", "trial_index": 233}, "uniqueid": "MTK2272:3PPTZCWALRRP6IW1UQ6BH0E92XIZQL", "dateTime": 1516909914901}, {"current_trial": 234, "trialdata": {"rt": -1000, "trial_type": "single-audio", "word": "relish", "stimulus": "/static/audio/wordpool/RELISH.wav", "conditions": [24, 800, "a", 24000], "internal_node_id": "0.0-171.0", "trial": 6, "time_elapsed": 1057012, "serialpos": 21, "key_press": -1, "wordID": 1182, "type": "PRES_AUD", "trial_index": 234}, "uniqueid": "MTK2272:3PPTZCWALRRP6IW1UQ6BH0E92XIZQL", "dateTime": 1516909916611}, {"current_trial": 235, "trialdata": {"rt": -1000, "trial_type": "single-audio", "word": "crater", "stimulus": "/static/audio/wordpool/CRATER.wav", "conditions": [24, 800, "a", 24000], "internal_node_id": "0.0-172.0", "trial": 6, "time_elapsed": 1058704, "serialpos": 22, "key_press": -1, "wordID": 399, "type": "PRES_AUD", "trial_index": 235}, "uniqueid": "MTK2272:3PPTZCWALRRP6IW1UQ6BH0E92XIZQL", "dateTime": 1516909918302}, {"current_trial": 236, "trialdata": {"rt": -1000, "trial_type": "single-audio", "word": "banquet", "stimulus": "/static/audio/wordpool/BANQUET.wav", "conditions": [24, 800, "a", 24000], "internal_node_id": "0.0-173.0", "trial": 6, "time_elapsed": 1060566, "serialpos": 23, "key_press": -1, "wordID": 85, "type": "PRES_AUD", "trial_index": 236}, "uniqueid": "MTK2272:3PPTZCWALRRP6IW1UQ6BH0E92XIZQL", "dateTime": 1516909920164}, {"current_trial": 237, "trialdata": {"rt": -1, "trial_type": "single-stim", "stimulus": "", "internal_node_id": "0.0-174.0-0.0", "time_elapsed": 1061868, "key_press": -1, "type": "PRE_RECALL_DELAY", "trial_index": 237}, "uniqueid": "MTK2272:3PPTZCWALRRP6IW1UQ6BH0E92XIZQL", "dateTime": 1516909921466}, {"current_trial": 238, "trialdata": {"rt": -1000, "trial_type": "single-audio", "stimulus": "/static/audio/400Hz.wav", "internal_node_id": "0.0-175.0", "time_elapsed": 1062369, "key_press": -1, "type": "PRE_RECALL_ALERT", "trial_index": 238}, "uniqueid": "MTK2272:3PPTZCWALRRP6IW1UQ6BH0E92XIZQL", "dateTime": 1516909921967}, {"current_trial": 239, "trialdata": {"rt": [4132, 10940, 12460, 17076, 21828, 23388, 24868, 30436, 39532, 41724], "recwords": ["gallop", "catcher", "poet", "kleenex", "robot", "plug", "japan", "brother", "statue", "monster"], "key_times": [2646, 2767, 3165, 3332, 3540, 3780, 4132, 9366, 9580, 9804, 9917, 10062, 10189, 10382, 10940, 11300, 11508, 11766, 12036, 12460, 15199, 15420, 15636, 15796, 16028, 16120, 16364, 17076, 20534, 20692, 20972, 21181, 21356, 21828, 22484, 22676, 22967, 23157, 23388, 23828, 23980, 24110, 24252, 24488, 24868, 28668, 29156, 29325, 29470, 29652, 29757, 29965, 30436, 37973, 38271, 38542, 38823, 39030, 39183, 39532, 40525, 40612, 40812, 41004, 41237, 41429, 41613, 41724], "trial_type": "free-recall", "conditions": [24, 800, "a", 24000], "internal_node_id": "0.0-176.0-0.0", "key_presses": [71, 65, 76, 76, 79, 80, 13, 67, 65, 84, 67, 72, 69, 82, 13, 80, 79, 69, 84, 13, 75, 76, 69, 69, 78, 69, 88, 13, 82, 79, 66, 79, 84, 13, 80, 76, 85, 71, 13, 74, 65, 80, 65, 78, 13, 66, 82, 79, 84, 72, 69, 82, 13, 83, 84, 65, 84, 85, 69, 13, 77, 79, 78, 83, 84, 69, 82, 13], "trial": 6, "time_elapsed": 1122372, "type": "FREE_RECALL", "trial_index": 239}, "uniqueid": "MTK2272:3PPTZCWALRRP6IW1UQ6BH0E92XIZQL", "dateTime": 1516909981975}, {"current_trial": 240, "trialdata": {"rt": 1694, "trial_type": "text", "internal_node_id": "0.0-177.0", "time_elapsed": 1126073, "key_press": 32, "type": "INSTRUCTIONS", "trial_index": 240}, "uniqueid": "MTK2272:3PPTZCWALRRP6IW1UQ6BH0E92XIZQL", "dateTime": 1516909985671}, {"current_tria