{"assignmentId": "3LOZAJ85YEKJ94U1RXSPOX0VE0X2XM", "workerId": "MTK2420", "questiondata": {"origin": "United States", "strat-rehearsal": "88", "marital": "Divorced", "education": "High school diploma", "ethnicity": "Not Hispanic", "color_depth": 24, "distracted": "No", "wrote-notes": "No", "strat-other": "", "screen_width": 1920, "avail_screen_width": 1920, "avail_screen_height": 1040, "strat-image": "75", "language": "English", "gender": "Male", "age": "56", "gender_other": "", "race": ["White"], "strat-categorize": "88", "pixel_depth": 24, "strat-spatial": "75", "strat-story": "93", "race_other": "", "screen_height": 1080}, "bonus": 0, "hitId": "3KI0JD2ZU1PBP69H6KVSVR8Z9DX76Y", "counterbalance": 1866, "useragent": "Mozilla/5.0 (Windows NT 10.0; WOW64) AppleWebKit/537.36 (KHTML, like Gecko) Chrome/63.0.3239.132 Safari/537.36", "eventdata": [{"eventtype": "initialized", "interval": 0, "value": null, "timestamp": 1517079707529}, {"eventtype": "window_resize", "interval": 1, "value": [1920, 1033], "timestamp": 1517079707530}, {"eventtype": "window_resize", "interval": 20932, "value": [1924, 1033], "timestamp": 1517079728462}, {"eventtype": "window_resize", "interval": 558, "value": [1920, 1033], "timestamp": 1517079729020}, {"eventtype": "focus", "interval": 78480, "value": "off", "timestamp": 1517079807500}, {"eventtype": "focus", "interval": 13087, "value": "on", "timestamp": 1517079820587}, {"eventtype": "focus", "interval": 22598, "value": "off", "timestamp": 1517079843185}, {"eventtype": "focus", "interval": 1, "value": "on", "timestamp": 1517079843186}, {"eventtype": "window_resize", "interval": 473853, "value": [1920, 989], "timestamp": 1517080317039}, {"eventtype": "window_resize", "interval": 5162, "value": [1920, 1033], "timestamp": 1517080322201}, {"eventtype": "focus", "interval": 1048, "value": "off", "timestamp": 1517080323249}, {"eventtype": "focus", "interval": 31267, "value": "on", "timestamp": 1517080354516}, {"eventtype": "focus", "interval": 1003626, "value": "off", "timestamp": 1517081358142}, {"eventtype": "focus", "interval": 8592, "value": "on", "timestamp": 1517081366734}], "data": [{"current_trial": 0, "trialdata": {"rt": 2781, "trial_type": "text", "internal_node_id": "0.0-0.0", "time_elapsed": 2788, "key_press": 77, "type": "INSTRUCTIONS", "trial_index": 0}, "uniqueid": "MTK2420:3LOZAJ85YEKJ94U1RXSPOX0VE0X2XM", "dateTime": 1517079733391}, {"current_trial": 1, "trialdata": {"rt": 22181, "trial_type": "text", "internal_node_id": "0.0-1.0", "time_elapsed": 24976, "key_press": 32, "type": "INSTRUCTIONS", "trial_index": 1}, "uniqueid": "MTK2420:3LOZAJ85YEKJ94U1RXSPOX0VE0X2XM", "dateTime": 1517079755576}, {"current_trial": 2, "trialdata": {"rt": [28831], "trial_type": "audio-test", "responses": ["ocean"], "internal_node_id": "0.0-2.0", "time_elapsed": 53838, "type": "AUDIO_TEST", "trial_index": 2}, "uniqueid": "MTK2420:3LOZAJ85YEKJ94U1RXSPOX0VE0X2XM", "dateTime": 1517079784438}, {"current_trial": 3, "trialdata": {"rt": [50146], "trial_type": "audio-test", "responses": ["crystal"], "internal_node_id": "0.0-3.0", "time_elapsed": 103990, "type": "AUDIO_TEST", "trial_index": 3}, "uniqueid": "MTK2420:3LOZAJ85YEKJ94U1RXSPOX0VE0X2XM", "dateTime": 1517079834590}, {"current_trial": 4, "trialdata": {"rt": [4656, 21977], "trial_type": "audio-test", "responses": ["", "spice"], "internal_node_id": "0.0-4.0", "time_elapsed": 125974, "type": "AUDIO_TEST", "trial_index": 4}, "uniqueid": "MTK2420:3LOZAJ85YEKJ94U1RXSPOX0VE0X2XM", "dateTime": 1517079856574}, {"current_trial": 5, "trialdata": {"rt": 50733, "trial_type": "survey-text", "responses": "{\"Q0\":\"1:30 am\",\"Q1\":\"9:00 am\",\"Q2\":\"5\"}", "internal_node_id": "0.0-5.0", "time_elapsed": 177464, "type": "SLEEP_SURVEY", "trial_index": 5}, "uniqueid": "MTK2420:3LOZAJ85YEKJ94U1RXSPOX0VE0X2XM", "dateTime": 1517079908064}, {"current_trial": 6, "trialdata": {"rt": 65837, "trial_type": "text", "internal_node_id": "0.0-6.0", "time_elapsed": 244304, "key_press": 86, "type": "INSTRUCTIONS", "trial_index": 6}, "uniqueid": "MTK2420:3LOZAJ85YEKJ94U1RXSPOX0VE0X2XM", "dateTime": 1517079974904}, {"current_trial": 7, "trialdata": {"rt": 19545, "trial_type": "text", "internal_node_id": "0.0-7.0", "time_elapsed": 264351, "key_press": 71, "type": "INSTRUCTIONS", "trial_index": 7}, "uniqueid": "MTK2420:3LOZAJ85YEKJ94U1RXSPOX0VE0X2XM", "dateTime": 1517079994952}, {"current_trial": 8, "trialdata": {"rt": 11279, "trial_type": "text", "internal_node_id": "0.0-8.0", "time_elapsed": 276151, "key_press": 68, "type": "INSTRUCTIONS", "trial_index": 8}, "uniqueid": "MTK2420:3LOZAJ85YEKJ94U1RXSPOX0VE0X2XM", "dateTime": 1517080006756}, {"current_trial": 9, "trialdata": {"rt": [4670, 9367, 13632], "trial_type": "math-distractor", "key_times": [3128, 3295, 4670, 8359, 8551, 9367, 12231, 12680, 13632, 17872], "responses": ["11", "12", "16"], "num2": [1, 7, 8, 1], "num3": [7, 3, 5, 2], "conditions": [18, 1200, "a", 18000], "internal_node_id": "0.0-9.0", "key_presses": [97, 97, 13, 97, 98, 13, 97, 102, 13, 103], "trial": 0, "time_elapsed": 295169, "type": "DISTRACTOR", "trial_index": 9, "num1": [3, 2, 3, 4]}, "uniqueid": "MTK2420:3LOZAJ85YEKJ94U1RXSPOX0VE0X2XM", "dateTime": 1517080025769}, {"current_trial": 10, "trialdata": {"rt": -1, "trial_type": "single-stim", "stimulus": "<p id=\"stim\">10</p>", "internal_node_id": "0.0-10.0-0.0", "time_elapsed": 298175, "key_press": -1, "trial_index": 10}, "uniqueid": "MTK2420:3LOZAJ85YEKJ94U1RXSPOX0VE0X2XM", "dateTime": 1517080028775}, {"current_trial": 11, "trialdata": {"rt": -1, "trial_type": "single-stim", "stimulus": "<p id=\"stim\">9</p>", "internal_node_id": "0.0-10.0-1.0", "time_elapsed": 299177, "key_press": -1, "trial_index": 11}, "uniqueid": "MTK2420:3LOZAJ85YEKJ94U1RXSPOX0VE0X2XM", "dateTime": 1517080029777}, {"current_trial": 12, "trialdata": {"rt": -1, "trial_type": "single-stim", "stimulus": "<p id=\"stim\">8</p>", "internal_node_id": "0.0-10.0-2.0", "time_elapsed": 300180, "key_press": -1, "trial_index": 12}, "uniqueid": "MTK2420:3LOZAJ85YEKJ94U1RXSPOX0VE0X2XM", "dateTime": 1517080030780}, {"current_trial": 13, "trialdata": {"rt": -1, "trial_type": "single-stim", "stimulus": "<p id=\"stim\">7</p>", "internal_node_id": "0.0-10.0-3.0", "time_elapsed": 301183, "key_press": -1, "trial_index": 13}, "uniqueid": "MTK2420:3LOZAJ85YEKJ94U1RXSPOX0VE0X2XM", "dateTime": 1517080031784}, {"current_trial": 14, "trialdata": {"rt": -1, "trial_type": "single-stim", "stimulus": "<p id=\"stim\">6</p>", "internal_node_id": "0.0-10.0-4.0", "time_elapsed": 302184, "key_press": -1, "trial_index": 14}, "uniqueid": "MTK2420:3LOZAJ85YEKJ94U1RXSPOX0VE0X2XM", "dateTime": 1517080032785}, {"current_trial": 15, "trialdata": {"rt": -1, "trial_type": "single-stim", "stimulus": "<p id=\"stim\">5</p>", "internal_node_id": "0.0-10.0-5.0", "time_elapsed": 303185, "key_press": -1, "trial_index": 15}, "uniqueid": "MTK2420:3LOZAJ85YEKJ94U1RXSPOX0VE0X2XM", "dateTime": 1517080033786}, {"current_trial": 16, "trialdata": {"rt": -1, "trial_type": "single-stim", "stimulus": "<p id=\"stim\">4</p>", "internal_node_id": "0.0-10.0-6.0", "time_elapsed": 304188, "key_press": -1, "trial_index": 16}, "uniqueid": "MTK2420:3LOZAJ85YEKJ94U1RXSPOX0VE0X2XM", "dateTime": 1517080034789}, {"current_trial": 17, "trialdata": {"rt": -1, "trial_type": "single-stim", "stimulus": "<p id=\"stim\">3</p>", "internal_node_id": "0.0-10.0-7.0", "time_elapsed": 305189, "key_press": -1, "trial_index": 17}, "uniqueid": "MTK2420:3LOZAJ85YEKJ94U1RXSPOX0VE0X2XM", "dateTime": 1517080035790}, {"current_trial": 18, "trialdata": {"rt": -1, "trial_type": "single-stim", "stimulus": "<p id=\"stim\">2</p>", "internal_node_id": "0.0-10.0-8.0", "time_elapsed": 306191, "key_press": -1, "trial_index": 18}, "uniqueid": "MTK2420:3LOZAJ85YEKJ94U1RXSPOX0VE0X2XM", "dateTime": 1517080036791}, {"current_trial": 19, "trialdata": {"rt": -1, "trial_type": "single-stim", "stimulus": "<p id=\"stim\">1</p>", "internal_node_id": "0.0-10.0-9.0", "time_elapsed": 307192, "key_press": -1, "trial_index": 19}, "uniqueid": "MTK2420:3LOZAJ85YEKJ94U1RXSPOX0VE0X2XM", "dateTime": 1517080037793}, {"current_trial": 20, "trialdata": {"rt": -1, "trial_type": "single-stim", "stimulus": "<p id=\"stim\">+</p>", "internal_node_id": "0.0-11.0-0.0", "time_elapsed": 308694, "key_press": -1, "type": "FIXATION", "trial_index": 20}, "uniqueid": "MTK2420:3LOZAJ85YEKJ94U1RXSPOX0VE0X2XM", "dateTime": 1517080039294}, {"current_trial": 21, "trialdata": {"rt": -1000, "trial_type": "single-audio", "word": "fireman", "stimulus": "/static/audio/wordpool/FIREMAN.wav", "conditions": [18, 1200, "a", 18000], "internal_node_id": "0.0-12.0", "trial": 0, "time_elapsed": 310738, "serialpos": 0, "key_press": -1, "wordID": 568, "type": "PRES_AUD", "trial_index": 21}, "uniqueid": "MTK2420:3LOZAJ85YEKJ94U1RXSPOX0VE0X2XM", "dateTime": 1517080041339}, {"current_trial": 22, "trialdata": {"rt": -1000, "trial_type": "single-audio", "word": "perch", "stimulus": "/static/audio/wordpool/PERCH.wav", "conditions": [18, 1200, "a", 18000], "internal_node_id": "0.0-13.0", "trial": 0, "time_elapsed": 312851, "serialpos": 1, "key_press": -1, "wordID": 1047, "type": "PRES_AUD", "trial_index": 22}, "uniqueid": "MTK2420:3LOZAJ85YEKJ94U1RXSPOX0VE0X2XM", "dateTime": 1517080043451}, {"current_trial": 23, "trialdata": {"rt": -1000, "trial_type": "single-audio", "word": "stone", "stimulus": "/static/audio/wordpool/STONE.wav", "conditions": [18, 1200, "a", 18000], "internal_node_id": "0.0-14.0", "trial": 0, "time_elapsed": 314933, "serialpos": 2, "key_press": -1, "wordID": 1384, "type": "PRES_AUD", "trial_index": 23}, "uniqueid": "MTK2420:3LOZAJ85YEKJ94U1RXSPOX0VE0X2XM", "dateTime": 1517080045533}, {"current_trial": 24, "trialdata": {"rt": -1000, "trial_type": "single-audio", "word": "leader", "stimulus": "/static/audio/wordpool/LEADER.wav", "conditions": [18, 1200, "a", 18000], "internal_node_id": "0.0-15.0", "trial": 0, "time_elapsed": 317128, "serialpos": 3, "key_press": -1, "wordID": 806, "type": "PRES_AUD", "trial_index": 24}, "uniqueid": "MTK2420:3LOZAJ85YEKJ94U1RXSPOX0VE0X2XM", "dateTime": 1517080047728}, {"current_trial": 25, "trialdata": {"rt": -1000, "trial_type": "single-audio", "word": "receipt", "stimulus": "/static/audio/wordpool/RECEIPT.wav", "conditions": [18, 1200, "a", 18000], "internal_node_id": "0.0-16.0", "trial": 0, "time_elapsed": 319292, "serialpos": 4, "key_press": -1, "wordID": 1172, "type": "PRES_AUD", "trial_index": 25}, "uniqueid": "MTK2420:3LOZAJ85YEKJ94U1RXSPOX0VE0X2XM", "dateTime": 1517080049892}, {"current_trial": 26, "trialdata": {"rt": -1000, "trial_type": "single-audio", "word": "pepper", "stimulus": "/static/audio/wordpool/PEPPER.wav", "conditions": [18, 1200, "a", 18000], "internal_node_id": "0.0-17.0", "trial": 0, "time_elapsed": 321336, "serialpos": 5, "key_press": -1, "wordID": 1046, "type": "PRES_AUD", "trial_index": 26}, "uniqueid": "MTK2420:3LOZAJ85YEKJ94U1RXSPOX0VE0X2XM", "dateTime": 1517080051936}, {"current_trial": 27, "trialdata": {"rt": -1000, "trial_type": "single-audio", "word": "hostess", "stimulus": "/static/audio/wordpool/HOSTESS.wav", "conditions": [18, 1200, "a", 18000], "internal_node_id": "0.0-18.0", "trial": 0, "time_elapsed": 323725, "serialpos": 6, "key_press": -1, "wordID": 722, "type": "PRES_AUD", "trial_index": 27}, "uniqueid": "MTK2420:3LOZAJ85YEKJ94U1RXSPOX0VE0X2XM", "dateTime": 1517080054326}, {"current_trial": 28, "trialdata": {"rt": -1000, "trial_type": "single-audio", "word": "leg", "stimulus": "/static/audio/wordpool/LEG.wav", "conditions": [18, 1200, "a", 18000], "internal_node_id": "0.0-19.0", "trial": 0, "time_elapsed": 325777, "serialpos": 7, "key_press": -1, "wordID": 808, "type": "PRES_AUD", "trial_index": 28}, "uniqueid": "MTK2420:3LOZAJ85YEKJ94U1RXSPOX0VE0X2XM", "dateTime": 1517080056378}, {"current_trial": 29, "trialdata": {"rt": -1000, "trial_type": "single-audio", "word": "judge", "stimulus": "/static/audio/wordpool/JUDGE.wav", "conditions": [18, 1200, "a", 18000], "internal_node_id": "0.0-20.0", "trial": 0, "time_elapsed": 328174, "serialpos": 8, "key_press": -1, "wordID": 760, "type": "PRES_AUD", "trial_index": 29}, "uniqueid": "MTK2420:3LOZAJ85YEKJ94U1RXSPOX0VE0X2XM", "dateTime": 1517080058775}, {"current_trial": 30, "trialdata": {"rt": -1000, "trial_type": "single-audio", "word": "dresser", "stimulus": "/static/audio/wordpool/DRESSER.wav", "conditions": [18, 1200, "a", 18000], "internal_node_id": "0.0-21.0", "trial": 0, "time_elapsed": 330180, "serialpos": 9, "key_press": -1, "wordID": 495, "type": "PRES_AUD", "trial_index": 30}, "uniqueid": "MTK2420:3LOZAJ85YEKJ94U1RXSPOX0VE0X2XM", "dateTime": 1517080060780}, {"current_trial": 31, "trialdata": {"rt": -1000, "trial_type": "single-audio", "word": "creature", "stimulus": "/static/audio/wordpool/CREATURE.wav", "conditions": [18, 1200, "a", 18000], "internal_node_id": "0.0-22.0", "trial": 0, "time_elapsed": 332476, "serialpos": 10, "key_press": -1, "wordID": 402, "type": "PRES_AUD", "trial_index": 31}, "uniqueid": "MTK2420:3LOZAJ85YEKJ94U1RXSPOX0VE0X2XM", "dateTime": 1517080063076}, {"current_trial": 32, "trialdata": {"rt": -1000, "trial_type": "single-audio", "word": "hiker", "stimulus": "/static/audio/wordpool/HIKER.wav", "conditions": [18, 1200, "a", 18000], "internal_node_id": "0.0-23.0", "trial": 0, "time_elapsed": 334784, "serialpos": 11, "key_press": -1, "wordID": 707, "type": "PRES_AUD", "trial_index": 32}, "uniqueid": "MTK2420:3LOZAJ85YEKJ94U1RXSPOX0VE0X2XM", "dateTime": 1517080065384}, {"current_trial": 33, "trialdata": {"rt": -1000, "trial_type": "single-audio", "word": "shoulder", "stimulus": "/static/audio/wordpool/SHOULDER.wav", "conditions": [18, 1200, "a", 18000], "internal_node_id": "0.0-24.0", "trial": 0, "time_elapsed": 336804, "serialpos": 12, "key_press": -1, "wordID": 1293, "type": "PRES_AUD", "trial_index": 33}, "uniqueid": "MTK2420:3LOZAJ85YEKJ94U1RXSPOX0VE0X2XM", "dateTime": 1517080067405}, {"current_trial": 34, "trialdata": {"rt": -1000, "trial_type": "single-audio", "word": "convict", "stimulus": "/static/audio/wordpool/CONVICT.wav", "conditions": [18, 1200, "a", 18000], "internal_node_id": "0.0-25.0", "trial": 0, "time_elapsed": 339089, "serialpos": 13, "key_press": -1, "wordID": 370, "type": "PRES_AUD", "trial_index": 34}, "uniqueid": "MTK2420:3LOZAJ85YEKJ94U1RXSPOX0VE0X2XM", "dateTime": 1517080069689}, {"current_trial": 35, "trialdata": {"rt": -1000, "trial_type": "single-audio", "word": "eyelash", "stimulus": "/static/audio/wordpool/EYELASH.wav", "conditions": [18, 1200, "a", 18000], "internal_node_id": "0.0-26.0", "trial": 0, "time_elapsed": 341151, "serialpos": 14, "key_press": -1, "wordID": 545, "type": "PRES_AUD", "trial_index": 35}, "uniqueid": "MTK2420:3LOZAJ85YEKJ94U1RXSPOX0VE0X2XM", "dateTime": 1517080071751}, {"current_trial": 36, "trialdata": {"rt": -1000, "trial_type": "single-audio", "word": "farmer", "stimulus": "/static/audio/wordpool/FARMER.wav", "conditions": [18, 1200, "a", 18000], "internal_node_id": "0.0-27.0", "trial": 0, "time_elapsed": 343549, "serialpos": 15, "key_press": -1, "wordID": 552, "type": "PRES_AUD", "trial_index": 36}, "uniqueid": "MTK2420:3LOZAJ85YEKJ94U1RXSPOX0VE0X2XM", "dateTime": 1517080074150}, {"current_trial": 37, "trialdata": {"rt": -1000, "trial_type": "single-audio", "word": "guitar", "stimulus": "/static/audio/wordpool/GUITAR.wav", "conditions": [18, 1200, "a", 18000], "internal_node_id": "0.0-28.0", "trial": 0, "time_elapsed": 345918, "serialpos": 16, "key_press": -1, "wordID": 669, "type": "PRES_AUD", "trial_index": 37}, "uniqueid": "MTK2420:3LOZAJ85YEKJ94U1RXSPOX0VE0X2XM", "dateTime": 1517080076519}, {"current_trial": 38, "trialdata": {"rt": -1000, "trial_type": "single-audio", "word": "grill", "stimulus": "/static/audio/wordpool/GRILL.wav", "conditions": [18, 1200, "a", 18000], "internal_node_id": "0.0-29.0", "trial": 0, "time_elapsed": 348255, "serialpos": 17, "key_press": -1, "wordID": 660, "type": "PRES_AUD", "trial_index": 38}, "uniqueid": "MTK2420:3LOZAJ85YEKJ94U1RXSPOX0VE0X2XM", "dateTime": 1517080078855}, {"current_trial": 39, "trialdata": {"rt": -1, "trial_type": "single-stim", "stimulus": "", "internal_node_id": "0.0-30.0-0.0", "time_elapsed": 349498, "key_press": -1, "type": "PRE_RECALL_DELAY", "trial_index": 39}, "uniqueid": "MTK2420:3LOZAJ85YEKJ94U1RXSPOX0VE0X2XM", "dateTime": 1517080080099}, {"current_trial": 40, "trialdata": {"rt": -1000, "trial_type": "single-audio", "stimulus": "/static/audio/400Hz.wav", "internal_node_id": "0.0-31.0", "time_elapsed": 350000, "key_press": -1, "type": "PRE_RECALL_ALERT", "trial_index": 40}, "uniqueid": "MTK2420:3LOZAJ85YEKJ94U1RXSPOX0VE0X2XM", "dateTime": 1517080080601}, {"current_trial": 41, "trialdata": {"rt": [8258, 14138, 19570, 20083, 24226, 27458, 29723, 34897, 49417], "recwords": ["judge", "eyelash", "liter", "", "grill", "judge", "", "receipt", "convict"], "key_times": [5213, 5459, 5850, 6331, 6571, 8258, 9179, 9634, 9762, 10603, 10826, 11162, 12354, 14138, 16306, 17163, 17658, 18043, 18323, 19570, 20083, 20675, 22098, 22683, 23010, 23147, 24226, 25315, 25539, 26227, 26435, 26667, 27458, 29723, 30179, 31426, 31690, 32482, 32793, 33322, 33778, 34897, 46364, 46641, 47042, 47595, 48066, 48499, 48817, 49417, 57325, 57460, 57634, 58419, 58604, 58828, 59316], "trial_type": "free-recall", "conditions": [18, 1200, "a", 18000], "internal_node_id": "0.0-32.0-0.0", "key_presses": [74, 85, 68, 71, 69, 13, 69, 89, 69, 76, 65, 83, 72, 13, 76, 73, 84, 69, 82, 13, 32, 71, 82, 73, 76, 76, 13, 74, 85, 68, 71, 69, 13, 32, 82, 69, 67, 69, 73, 80, 84, 13, 67, 79, 78, 86, 73, 67, 84, 13, 69, 89, 69, 76, 65, 83, 72], "trial": 0, "time_elapsed": 410006, "type": "FREE_RECALL", "trial_index": 41}, "uniqueid": "MTK2420:3LOZAJ85YEKJ94U1RXSPOX0VE0X2XM", "dateTime": 1517080140613}, {"current_trial": 42, "trialdata": {"rt": 2221, "trial_type": "text", "internal_node_id": "0.0-33.0", "time_elapsed": 414268, "key_press": 68, "type": "INSTRUCTIONS", "trial_index": 42}, "uniqueid": "MTK2420:3LOZAJ85YEKJ94U1RXSPOX0VE0X2XM", "dateTime": 1517080144868}, {"current_trial": 43, "trialdata": {"rt": [3957, 7294, 12382, 16597], "trial_type": "math-distractor", "key_times": [3096, 3311, 3957, 6838, 7294, 11590, 11879, 12382, 15982, 16158, 16597], "responses": ["15", "7", "17", "11"], "num2": [5, 3, 6, 5, 3], "num3": [3, 2, 4, 4, 6], "conditions": [18, 1200, "a", 18000], "internal_node_id": "0.0-34.0", "key_presses": [97, 101, 13, 103, 13, 97, 103, 13, 97, 97, 13], "trial": 1, "time_elapsed": 434273, "type": "DISTRACTOR", "trial_index": 43, "num1": [7, 2, 7, 2, 7]}, "uniqueid": "MTK2420:3LOZAJ85YEKJ94U1RXSPOX0VE0X2XM", "dateTime": 1517080164873}, {"current_trial": 44, "trialdata": {"rt": -1, "trial_type": "single-stim", "stimulus": "<p id=\"stim\">10</p>", "internal_node_id": "0.0-35.0-0.0", "time_elapsed": 437275, "key_press": -1, "trial_index": 44}, "uniqueid": "MTK2420:3LOZAJ85YEKJ94U1RXSPOX0VE0X2XM", "dateTime": 1517080167875}, {"current_trial": 45, "trialdata": {"rt": -1, "trial_type": "single-stim", "stimulus": "<p id=\"stim\">9</p>", "internal_node_id": "0.0-35.0-1.0", "time_elapsed": 438275, "key_press": -1, "trial_index": 45}, "uniqueid": "MTK2420:3LOZAJ85YEKJ94U1RXSPOX0VE0X2XM", "dateTime": 1517080168876}, {"current_trial": 46, "trialdata": {"rt": -1, "trial_type": "single-stim", "stimulus": "<p id=\"stim\">8</p>", "internal_node_id": "0.0-35.0-2.0", "time_elapsed": 439277, "key_press": -1, "trial_index": 46}, "uniqueid": "MTK2420:3LOZAJ85YEKJ94U1RXSPOX0VE0X2XM", "dateTime": 1517080169877}, {"current_trial": 47, "trialdata": {"rt": -1, "trial_type": "single-stim", "stimulus": "<p id=\"stim\">7</p>", "internal_node_id": "0.0-35.0-3.0", "time_elapsed": 440278, "key_press": -1, "trial_index": 47}, "uniqueid": "MTK2420:3LOZAJ85YEKJ94U1RXSPOX0VE0X2XM", "dateTime": 1517080170879}, {"current_trial": 48, "trialdata": {"rt": -1, "trial_type": "single-stim", "stimulus": "<p id=\"stim\">6</p>", "internal_node_id": "0.0-35.0-4.0", "time_elapsed": 441280, "key_press": -1, "trial_index": 48}, "uniqueid": "MTK2420:3LOZAJ85YEKJ94U1RXSPOX0VE0X2XM", "dateTime": 1517080171880}, {"current_trial": 49, "trialdata": {"rt": -1, "trial_type": "single-stim", "stimulus": "<p id=\"stim\">5</p>", "internal_node_id": "0.0-35.0-5.0", "time_elapsed": 442282, "key_press": -1, "trial_index": 49}, "uniqueid": "MTK2420:3LOZAJ85YEKJ94U1RXSPOX0VE0X2XM", "dateTime": 1517080172882}, {"current_trial": 50, "trialdata": {"rt": -1, "trial_type": "single-stim", "stimulus": "<p id=\"stim\">4</p>", "internal_node_id": "0.0-35.0-6.0", "time_elapsed": 443283, "key_press": -1, "trial_index": 50}, "uniqueid": "MTK2420:3LOZAJ85YEKJ94U1RXSPOX0VE0X2XM", "dateTime": 1517080173883}, {"current_trial": 51, "trialdata": {"rt": -1, "trial_type": "single-stim", "stimulus": "<p id=\"stim\">3</p>", "internal_node_id": "0.0-35.0-7.0", "time_elapsed": 444284, "key_press": -1, "trial_index": 51}, "uniqueid": "MTK2420:3LOZAJ85YEKJ94U1RXSPOX0VE0X2XM", "dateTime": 1517080174885}, {"current_trial": 52, "trialdata": {"rt": -1, "trial_type": "single-stim", "stimulus": "<p id=\"stim\">2</p>", "internal_node_id": "0.0-35.0-8.0", "time_elapsed": 445286, "key_press": -1, "trial_index": 52}, "uniqueid": "MTK2420:3LOZAJ85YEKJ94U1RXSPOX0VE0X2XM", "dateTime": 1517080175886}, {"current_trial": 53, "trialdata": {"rt": -1, "trial_type": "single-stim", "stimulus": "<p id=\"stim\">1</p>", "internal_node_id": "0.0-35.0-9.0", "time_elapsed": 446288, "key_press": -1, "trial_index": 53}, "uniqueid": "MTK2420:3LOZAJ85YEKJ94U1RXSPOX0VE0X2XM", "dateTime": 1517080176888}, {"current_trial": 54, "trialdata": {"rt": -1, "trial_type": "single-stim", "stimulus": "<p id=\"stim\">+</p>", "internal_node_id": "0.0-36.0-0.0", "time_elapsed": 447789, "key_press": -1, "type": "FIXATION", "trial_index": 54}, "uniqueid": "MTK2420:3LOZAJ85YEKJ94U1RXSPOX0VE0X2XM", "dateTime": 1517080178389}, {"current_trial": 55, "trialdata": {"rt": -1000, "trial_type": "single-audio", "word": "viking", "stimulus": "/static/audio/wordpool/VIKING.wav", "conditions": [18, 1200, "a", 18000], "internal_node_id": "0.0-37.0", "trial": 1, "time_elapsed": 449795, "serialpos": 0, "key_press": -1, "wordID": 1564, "type": "PRES_AUD", "trial_index": 55}, "uniqueid": "MTK2420:3LOZAJ85YEKJ94U1RXSPOX0VE0X2XM", "dateTime": 1517080180395}, {"current_trial": 56, "trialdata": {"rt": -1000, "trial_type": "single-audio", "word": "rabbit", "stimulus": "/static/audio/wordpool/RABBIT.wav", "conditions": [18, 1200, "a", 18000], "internal_node_id": "0.0-38.0", "trial": 1, "time_elapsed": 451801, "serialpos": 1, "key_press": -1, "wordID": 1151, "type": "PRES_AUD", "trial_index": 56}, "uniqueid": "MTK2420:3LOZAJ85YEKJ94U1RXSPOX0VE0X2XM", "dateTime": 1517080182402}, {"current_trial": 57, "trialdata": {"rt": -1000, "trial_type": "single-audio", "word": "france", "stimulus": "/static/audio/wordpool/FRANCE.wav", "conditions": [18, 1200, "a", 18000], "internal_node_id": "0.0-39.0", "trial": 1, "time_elapsed": 454074, "serialpos": 2, "key_press": -1, "wordID": 600, "type": "PRES_AUD", "trial_index": 57}, "uniqueid": "MTK2420:3LOZAJ85YEKJ94U1RXSPOX0VE0X2XM", "dateTime": 1517080184675}, {"current_trial": 58, "trialdata": {"rt": -1000, "trial_type": "single-audio", "word": "nomad", "stimulus": "/static/audio/wordpool/NOMAD.wav", "conditions": [18, 1200, "a", 18000], "internal_node_id": "0.0-40.0", "trial": 1, "time_elapsed": 456189, "serialpos": 3, "key_press": -1, "wordID": 954, "type": "PRES_AUD", "trial_index": 58}, "uniqueid": "MTK2420:3LOZAJ85YEKJ94U1RXSPOX0VE0X2XM", "dateTime": 1517080186790}, {"current_trial": 59, "trialdata": {"rt": -1000, "trial_type": "single-audio", "word": "money", "stimulus": "/static/audio/wordpool/MONEY.wav", "conditions": [18, 1200, "a", 18000], "internal_node_id": "0.0-41.0", "trial": 1, "time_elapsed": 458267, "serialpos": 4, "key_press": -1, "wordID": 907, "type": "PRES_AUD", "trial_index": 59}, "uniqueid": "MTK2420:3LOZAJ85YEKJ94U1RXSPOX0VE0X2XM", "dateTime": 1517080188867}, {"current_trial": 60, "trialdata": {"rt": -1000, "trial_type": "single-audio", "word": "island", "stimulus": "/static/audio/wordpool/ISLAND.wav", "conditions": [18, 1200, "a", 18000], "internal_node_id": "0.0-42.0", "trial": 1, "time_elapsed": 460651, "serialpos": 5, "key_press": -1, "wordID": 744, "type": "PRES_AUD", "trial_index": 60}, "uniqueid": "MTK2420:3LOZAJ85YEKJ94U1RXSPOX0VE0X2XM", "dateTime": 1517080191252}, {"current_trial": 61, "trialdata": {"rt": -1000, "trial_type": "single-audio", "word": "cod", "stimulus": "/static/audio/wordpool/COD.wav", "conditions": [18, 1200, "a", 18000], "internal_node_id": "0.0-43.0", "trial": 1, "time_elapsed": 462834, "serialpos": 6, "key_press": -1, "wordID": 339, "type": "PRES_AUD", "trial_index": 61}, "uniqueid": "MTK2420:3LOZAJ85YEKJ94U1RXSPOX0VE0X2XM", "dateTime": 1517080193434}, {"current_trial": 62, "trialdata": {"rt": -1000, "trial_type": "single-audio", "word": "possum", "stimulus": "/static/audio/wordpool/POSSUM.wav", "conditions": [18, 1200, "a", 18000], "internal_node_id": "0.0-44.0", "trial": 1, "time_elapsed": 465211, "serialpos": 7, "key_press": -1, "wordID": 1111, "type": "PRES_AUD", "trial_index": 62}, "uniqueid": "MTK2420:3LOZAJ85YEKJ94U1RXSPOX0VE0X2XM", "dateTime": 1517080195811}, {"current_trial": 63, "trialdata": {"rt": -1000, "trial_type": "single-audio", "word": "truck", "stimulus": "/static/audio/wordpool/TRUCK.wav", "conditions": [18, 1200, "a", 18000], "internal_node_id": "0.0-45.0", "trial": 1, "time_elapsed": 467526, "serialpos": 8, "key_press": -1, "wordID": 1511, "type": "PRES_AUD", "trial_index": 63}, "uniqueid": "MTK2420:3LOZAJ85YEKJ94U1RXSPOX0VE0X2XM", "dateTime": 1517080198127}, {"current_trial": 64, "trialdata": {"rt": -1000, "trial_type": "single-audio", "word": "radish", "stimulus": "/static/audio/wordpool/RADISH.wav", "conditions": [18, 1200, "a", 18000], "internal_node_id": "0.0-46.0", "trial": 1, "time_elapsed": 469833, "serialpos": 9, "key_press": -1, "wordID": 1157, "type": "PRES_AUD", "trial_index": 64}, "uniqueid": "MTK2420:3LOZAJ85YEKJ94U1RXSPOX0VE0X2XM", "dateTime": 1517080200434}, {"current_trial": 65, "trialdata": {"rt": -1000, "trial_type": "single-audio", "word": "blockade", "stimulus": "/static/audio/wordpool/BLOCKADE.wav", "conditions": [18, 1200, "a", 18000], "internal_node_id": "0.0-47.0", "trial": 1, "time_elapsed": 471922, "serialpos": 10, "key_press": -1, "wordID": 136, "type": "PRES_AUD", "trial_index": 65}, "uniqueid": "MTK2420:3LOZAJ85YEKJ94U1RXSPOX0VE0X2XM", "dateTime": 1517080202522}, {"current_trial": 66, "trialdata": {"rt": -1000, "trial_type": "single-audio", "word": "glass", "stimulus": "/static/audio/wordpool/GLASS.wav", "conditions": [18, 1200, "a", 18000], "internal_node_id": "0.0-48.0", "trial": 1, "time_elapsed": 474014, "serialpos": 11, "key_press": -1, "wordID": 638, "type": "PRES_AUD", "trial_index": 66}, "uniqueid": "MTK2420:3LOZAJ85YEKJ94U1RXSPOX0VE0X2XM", "dateTime": 1517080204614}, {"current_trial": 67, "trialdata": {"rt": -1000, "trial_type": "single-audio", "word": "robber", "stimulus": "/static/audio/wordpool/ROBBER.wav", "conditions": [18, 1200, "a", 18000], "internal_node_id": "0.0-49.0", "trial": 1, "time_elapsed": 476298, "serialpos": 12, "key_press": -1, "wordID": 1196, "type": "PRES_AUD", "trial_index": 67}, "uniqueid": "MTK2420:3LOZAJ85YEKJ94U1RXSPOX0VE0X2XM", "dateTime": 1517080206899}, {"current_trial": 68, "trialdata": {"rt": -1000, "trial_type": "single-audio", "word": "lava", "stimulus": "/static/audio/wordpool/LAVA.wav", "conditions": [18, 1200, "a", 18000], "internal_node_id": "0.0-50.0", "trial": 1, "time_elapsed": 478468, "serialpos": 13, "key_press": -1, "wordID": 803, "type": "PRES_AUD", "trial_index": 68}, "uniqueid": "MTK2420:3LOZAJ85YEKJ94U1RXSPOX0VE0X2XM", "dateTime": 1517080209069}, {"current_trial": 69, "trialdata": {"rt": -1000, "trial_type": "single-audio", "word": "robin", "stimulus": "/static/audio/wordpool/ROBIN.wav", "conditions": [18, 1200, "a", 18000], "internal_node_id": "0.0-51.0", "trial": 1, "time_elapsed": 480699, "serialpos": 14, "key_press": -1, "wordID": 1198, "type": "PRES_AUD", "trial_index": 69}, "uniqueid": "MTK2420:3LOZAJ85YEKJ94U1RXSPOX0VE0X2XM", "dateTime": 1517080211303}, {"current_trial": 70, "trialdata": {"rt": -1000, "trial_type": "single-audio", "word": "termite", "stimulus": "/static/audio/wordpool/TERMITE.wav", "conditions": [18, 1200, "a", 18000], "internal_node_id": "0.0-52.0", "trial": 1, "time_elapsed": 482738, "serialpos": 15, "key_press": -1, "wordID": 1450, "type": "PRES_AUD", "trial_index": 70}, "uniqueid": "MTK2420:3LOZAJ85YEKJ94U1RXSPOX0VE0X2XM", "dateTime": 1517080213339}, {"current_trial": 71, "trialdata": {"rt": -1000, "trial_type": "single-audio", "word": "crutch", "stimulus": "/static/audio/wordpool/CRUTCH.wav", "conditions": [18, 1200, "a", 18000], "internal_node_id": "0.0-53.0", "trial": 1, "time_elapsed": 484949, "serialpos": 16, "key_press": -1, "wordID": 416, "type": "PRES_AUD", "trial_index": 71}, "uniqueid": "MTK2420:3LOZAJ85YEKJ94U1RXSPOX0VE0X2XM", "dateTime": 1517080215549}, {"current_trial": 72, "trialdata": {"rt": -1000, "trial_type": "single-audio", "word": "tutu", "stimulus": "/static/audio/wordpool/TUTU.wav", "conditions": [18, 1200, "a", 18000], "internal_node_id": "0.0-54.0", "trial": 1, "time_elapsed": 487000, "serialpos": 17, "key_press": -1, "wordID": 1523, "type": "PRES_AUD", "trial_index": 72}, "uniqueid": "MTK2420:3LOZAJ85YEKJ94U1RXSPOX0VE0X2XM", "dateTime": 1517080217600}, {"current_trial": 73, "trialdata": {"rt": -1, "trial_type": "single-stim", "stimulus": "", "internal_node_id": "0.0-55.0-0.0", "time_elapsed": 488358, "key_press": -1, "type": "PRE_RECALL_DELAY", "trial_index": 73}, "uniqueid": "MTK2420:3LOZAJ85YEKJ94U1RXSPOX0VE0X2XM", "dateTime": 1517080218958}, {"current_trial": 74, "trialdata": {"rt": -1000, "trial_type": "single-audio", "stimulus": "/static/audio/400Hz.wav", "internal_node_id": "0.0-56.0", "time_elapsed": 488859, "key_press": -1, "type": "PRE_RECALL_ALERT", "trial_index": 74}, "uniqueid": "MTK2420:3LOZAJ85YEKJ94U1RXSPOX0VE0X2XM", "dateTime": 1517080219459}, {"current_trial": 75, "trialdata": {"rt": [3199, 7608, 10921, 15960, 16353, 18809, 24280, 30760, 35759], "recwords": ["tutu", "crutch", "viking", "glass", "", "france", "rabbit", "", "robber"], "key_times": [1177, 1417, 1616, 2049, 3199, 4417, 4761, 5154, 5441, 6129, 6441, 7608, 8665, 8929, 9225, 9448, 9825, 10729, 10921, 13946, 14265, 14625, 14945, 15112, 15960, 16353, 16641, 16849, 17385, 17801, 18272, 18553, 18809, 21729, 22240, 22993, 23136, 23408, 23641, 24280, 30760, 31312, 31560, 31753, 34065, 34520, 34665, 35033, 35241, 35759], "trial_type": "free-recall", "conditions": [18, 1200, "a", 18000], "internal_node_id": "0.0-57.0-0.0", "key_presses": [84, 85, 84, 85, 13, 67, 82, 85, 84, 67, 72, 13, 86, 73, 75, 73, 78, 71, 32, 71, 76, 65, 83, 83, 13, 32, 70, 82, 65, 78, 67, 69, 32, 82, 65, 66, 66, 73, 84, 13, 32, 82, 79, 79, 8, 66, 66, 69, 82, 13], "trial": 1, "time_elapsed": 548863, "type": "FREE_RECALL", "trial_index": 75}, "uniqueid": "MTK2420:3LOZAJ85YEKJ94U1RXSPOX0VE0X2XM", "dateTime": 1517080279471}, {"current_trial": 76, "trialdata": {"rt": 669511, "trial_type": "text", "internal_node_id": "0.0-58.0", "time_elapsed": 1220385, "key_press": 32, "type": "INSTRUCTIONS", "trial_index": 76}, "uniqueid": "MTK2420:3LOZAJ85YEKJ94U1RXSPOX0VE0X2XM", "dateTime": 1517080950985}, {"current_trial": 77, "trialdata": {"rt": [3932, 8115], "trial_type": "math-distractor", "key_times": [3397, 3932, 7501, 7708, 8115], "responses": ["9", "14"], "num2": [5, 6, 3], "num3": [1, 5, 5], "conditions": [12, 1600, "a", 12000], "internal_node_id": "0.0-59.0", "key_presses": [105, 13, 97, 100, 13], "trial": 2, "time_elapsed": 1233388, "type": "DISTRACTOR", "trial_index": 77, "num1": [3, 3, 6]}, "uniqueid": "MTK2420:3LOZAJ85YEKJ94U1RXSPOX0VE0X2XM", "dateTime": 1517080963988}, {"current_trial": 78, "trialdata": {"rt": -1, "trial_type": "single-stim", "stimulus": "<p id=\"stim\">10</p>", "internal_node_id": "0.0-60.0-0.0", "time_elapsed": 1236392, "key_press": -1, "trial_index": 78}, "uniqueid": "MTK2420:3LOZAJ85YEKJ94U1RXSPOX0VE0X2XM", "dateTime": 1517080966992}, {"current_trial": 79, "trialdata": {"rt": -1, "trial_type": "single-stim", "stimulus": "<p id=\"stim\">9</p>", "internal_node_id": "0.0-60.0-1.0", "time_elapsed": 1237394, "key_press": -1, "trial_index": 79}, "uniqueid": "MTK2420:3LOZAJ85YEKJ94U1RXSPOX0VE0X2XM", "dateTime": 1517080967995}, {"current_trial": 80, "trialdata": {"rt": -1, "trial_type": "single-stim", "stimulus": "<p id=\"stim\">8</p>", "internal_node_id": "0.0-60.0-2.0", "time_elapsed": 1238397, "key_press": -1, "trial_index": 80}, "uniqueid": "MTK2420:3LOZAJ85YEKJ94U1RXSPOX0VE0X2XM", "dateTime": 1517080968998}, {"current_trial": 81, "trialdata": {"rt": -1, "trial_type": "single-stim", "stimulus": "<p id=\"stim\">7</p>", "internal_node_id": "0.0-60.0-3.0", "time_elapsed": 1239398, "key_press": -1, "trial_index": 81}, "uniqueid": "MTK2420:3LOZAJ85YEKJ94U1RXSPOX0VE0X2XM", "dateTime": 1517080969998}, {"current_trial": 82, "trialdata": {"rt": -1, "trial_type": "single-stim", "stimulus": "<p id=\"stim\">6</p>", "internal_node_id": "0.0-60.0-4.0", "time_elapsed": 1240400, "key_press": -1, "trial_index": 82}, "uniqueid": "MTK2420:3LOZAJ85YEKJ94U1RXSPOX0VE0X2XM", "dateTime": 1517080971000}, {"current_trial": 83, "trialdata": {"rt": -1, "trial_type": "single-stim", "stimulus": "<p id=\"stim\">5</p>", "internal_node_id": "0.0-60.0-5.0", "time_elapsed": 1241401, "key_press": -1, "trial_index": 83}, "uniqueid": "MTK2420:3LOZAJ85YEKJ94U1RXSPOX0VE0X2XM", "dateTime": 1517080972002}, {"current_trial": 84, "trialdata": {"rt": -1, "trial_type": "single-stim", "stimulus": "<p id=\"stim\">4</p>", "internal_node_id": "0.0-60.0-6.0", "time_elapsed": 1242404, "key_press": -1, "trial_index": 84}, "uniqueid": "MTK2420:3LOZAJ85YEKJ94U1RXSPOX0VE0X2XM", "dateTime": 1517080973004}, {"current_trial": 85, "trialdata": {"rt": -1, "trial_type": "single-stim", "stimulus": "<p id=\"stim\">3</p>", "internal_node_id": "0.0-60.0-7.0", "time_elapsed": 1243405, "key_press": -1, "trial_index": 85}, "uniqueid": "MTK2420:3LOZAJ85YEKJ94U1RXSPOX0VE0X2XM", "dateTime": 1517080974005}, {"current_trial": 86, "trialdata": {"rt": -1, "trial_type": "single-stim", "stimulus": "<p id=\"stim\">2</p>", "internal_node_id": "0.0-60.0-8.0", "time_elapsed": 1244406, "key_press": -1, "trial_index": 86}, "uniqueid": "MTK2420:3LOZAJ85YEKJ94U1RXSPOX0VE0X2XM", "dateTime": 1517080975007}, {"current_trial": 87, "trialdata": {"rt": -1, "trial_type": "single-stim", "stimulus": "<p id=\"stim\">1</p>", "internal_node_id": "0.0-60.0-9.0", "time_elapsed": 1245408, "key_press": -1, "trial_index": 87}, "uniqueid": "MTK2420:3LOZAJ85YEKJ94U1RXSPOX0VE0X2XM", "dateTime": 1517080976009}, {"current_trial": 88, "trialdata": {"rt": -1, "trial_type": "single-stim", "stimulus": "<p id=\"stim\">+</p>", "internal_node_id": "0.0-61.0-0.0", "time_elapsed": 1246911, "key_press": -1, "type": "FIXATION", "trial_index": 88}, "uniqueid": "MTK2420:3LOZAJ85YEKJ94U1RXSPOX0VE0X2XM", "dateTime": 1517080977512}, {"current_trial": 89, "trialdata": {"rt": -1000, "trial_type": "single-audio", "word": "canyon", "stimulus": "/static/audio/wordpool/CANYON.wav", "conditions": [12, 1600, "a", 12000], "internal_node_id": "0.0-62.0", "trial": 2, "time_elapsed": 1249597, "serialpos": 0, "key_press": -1, "wordID": 234, "type": "PRES_AUD", "trial_index": 89}, "uniqueid": "MTK2420:3LOZAJ85YEKJ94U1RXSPOX0VE0X2XM", "dateTime": 1517080980198}, {"current_trial": 90, "trialdata": {"rt": -1000, "trial_type": "single-audio", "word": "bunny", "stimulus": "/static/audio/wordpool/BUNNY.wav", "conditions": [12, 1600, "a", 12000], "internal_node_id": "0.0-63.0", "trial": 2, "time_elapsed": 1252358, "serialpos": 1, "key_press": -1, "wordID": 197, "type": "PRES_AUD", "trial_index": 90}, "uniqueid": "MTK2420:3LOZAJ85YEKJ94U1RXSPOX0VE0X2XM", "dateTime": 1517080982958}, {"current_trial": 91, "trialdata": {"rt": -1000, "trial_type": "single-audio", "word": "actor", "stimulus": "/static/audio/wordpool/ACTOR.wav", "conditions": [12, 1600, "a", 12000], "internal_node_id": "0.0-64.0", "trial": 2, "time_elapsed": 1254939, "serialpos": 2, "key_press": -1, "wordID": 4, "type": "PRES_AUD", "trial_index": 91}, "uniqueid": "MTK2420:3LOZAJ85YEKJ94U1RXSPOX0VE0X2XM", "dateTime": 1517080985539}, {"current_trial": 92, "trialdata": {"rt": -1000, "trial_type": "single-audio", "word": "award", "stimulus": "/static/audio/wordpool/AWARD.wav", "conditions": [12, 1600, "a", 12000], "internal_node_id": "0.0-65.0", "trial": 2, "time_elapsed": 1257475, "serialpos": 3, "key_press": -1, "wordID": 62, "type": "PRES_AUD", "trial_index": 92}, "uniqueid": "MTK2420:3LOZAJ85YEKJ94U1RXSPOX0VE0X2XM", "dateTime": 1517080988075}, {"current_trial": 93, "trialdata": {"rt": -1000, "trial_type": "single-audio", "word": "pimple", "stimulus": "/static/audio/wordpool/PIMPLE.wav", "conditions": [12, 1600, "a", 12000], "internal_node_id": "0.0-66.0", "trial": 2, "time_elapsed": 1260220, "serialpos": 4, "key_press": -1, "wordID": 1070, "type": "PRES_AUD", "trial_index": 93}, "uniqueid": "MTK2420:3LOZAJ85YEKJ94U1RXSPOX0VE0X2XM", "dateTime": 1517080990820}, {"current_trial": 94, "trialdata": {"rt": -1000, "trial_type": "single-audio", "word": "igloo", "stimulus": "/static/audio/wordpool/IGLOO.wav", "conditions": [12, 1600, "a", 12000], "internal_node_id": "0.0-67.0", "trial": 2, "time_elapsed": 1262960, "serialpos": 5, "key_press": -1, "wordID": 733, "type": "PRES_AUD", "trial_index": 94}, "uniqueid": "MTK2420:3LOZAJ85YEKJ94U1RXSPOX0VE0X2XM", "dateTime": 1517080993561}, {"current_trial": 95, "trialdata": {"rt": -1000, "trial_type": "single-audio", "word": "glove", "stimulus": "/static/audio/wordpool/GLOVE.wav", "conditions": [12, 1600, "a", 12000], "internal_node_id": "0.0-68.0", "trial": 2, "time_elapsed": 1265542, "serialpos": 6, "key_press": -1, "wordID": 641, "type": "PRES_AUD", "trial_index": 95}, "uniqueid": "MTK2420:3LOZAJ85YEKJ94U1RXSPOX0VE0X2XM", "dateTime": 1517080996143}, {"current_trial": 96, "trialdata": {"rt": -1000, "trial_type": "single-audio", "word": "zebra", "stimulus": "/static/audio/wordpool/ZEBRA.wav", "conditions": [12, 1600, "a", 12000], "internal_node_id": "0.0-69.0", "trial": 2, "time_elapsed": 1268166, "serialpos": 7, "key_press": -1, "wordID": 1634, "type": "PRES_AUD", "trial_index": 96}, "uniqueid": "MTK2420:3LOZAJ85YEKJ94U1RXSPOX0VE0X2XM", "dateTime": 1517080998769}, {"current_trial": 97, "trialdata": {"rt": -1000, "trial_type": "single-audio", "word": "leopard", "stimulus": "/static/audio/wordpool/LEOPARD.wav", "conditions": [12, 1600, "a", 12000], "internal_node_id": "0.0-70.0", "trial": 2, "time_elapsed": 1270661, "serialpos": 8, "key_press": -1, "wordID": 811, "type": "PRES_AUD", "trial_index": 97}, "uniqueid": "MTK2420:3LOZAJ85YEKJ94U1RXSPOX0VE0X2XM", "dateTime": 1517081001261}, {"current_trial": 98, "trialdata": {"rt": -1000, "trial_type": "single-audio", "word": "freckle", "stimulus": "/static/audio/wordpool/FRECKLE.wav", "conditions": [12, 1600, "a", 12000], "internal_node_id": "0.0-71.0", "trial": 2, "time_elapsed": 1273344, "serialpos": 9, "key_press": -1, "wordID": 601, "type": "PRES_AUD", "trial_index": 98}, "uniqueid": "MTK2420:3LOZAJ85YEKJ94U1RXSPOX0VE0X2XM", "dateTime": 1517081003945}, {"current_trial": 99, "trialdata": {"rt": -1000, "trial_type": "single-audio", "word": "custard", "stimulus": "/static/audio/wordpool/CUSTARD.wav", "conditions": [12, 1600, "a", 12000], "internal_node_id": "0.0-72.0", "trial": 2, "time_elapsed": 1276056, "serialpos": 10, "key_press": -1, "wordID": 428, "type": "PRES_AUD", "trial_index": 99}, "uniqueid": "MTK2420:3LOZAJ85YEKJ94U1RXSPOX0VE0X2XM", "dateTime": 1517081006656}, {"current_trial": 100, "trialdata": {"rt": -1000, "trial_type": "single-audio", "word": "church", "stimulus": "/static/audio/wordpool/CHURCH.wav", "conditions": [12, 1600, "a", 12000], "internal_node_id": "0.0-73.0", "trial": 2, "time_elapsed": 1278836, "serialpos": 11, "key_press": -1, "wordID": 306, "type": "PRES_AUD", "trial_index": 100}, "uniqueid": "MTK2420:3LOZAJ85YEKJ94U1RXSPOX0VE0X2XM", "dateTime": 1517081009436}, {"current_trial": 101, "trialdata": {"rt": -1, "trial_type": "single-stim", "stimulus": "", "internal_node_id": "0.0-74.0-0.0", "time_elapsed": 1280101, "key_press": -1, "type": "PRE_RECALL_DELAY", "trial_index": 101}, "uniqueid": "MTK2420:3LOZAJ85YEKJ94U1RXSPOX0VE0X2XM", "dateTime": 1517081010701}, {"current_trial": 102, "trialdata": {"rt": -1000, "trial_type": "single-audio", "stimulus": "/static/audio/400Hz.wav", "internal_node_id": "0.0-75.0", "time_elapsed": 1280601, "key_press": -1, "type": "PRE_RECALL_ALERT", "trial_index": 102}, "uniqueid": "MTK2420:3LOZAJ85YEKJ94U1RXSPOX0VE0X2XM", "dateTime": 1517081011201}, {"current_trial": 103, "trialdata": {"rt": [6260, 9476, 11260, 14125, 18276, 28331, 32337, 39954, 52499], "recwords": ["canyon", "actor", "award", "zebra", "chourc", "leopard", "award", "freckle", "zebra"], "key_times": [2229, 2804, 2956, 3996, 4148, 4636, 6260, 7220, 7628, 8156, 8380, 8900, 9476, 9772, 10091, 10324, 10756, 11012, 11260, 12227, 12653, 13243, 13483, 13924, 14125, 14852, 15980, 16588, 17058, 17236, 17932, 18276, 19541, 20076, 20308, 20524, 21084, 21428, 23349, 24348, 25963, 26380, 26628, 28331, 29276, 30685, 30947, 31436, 31700, 32337, 35941, 36140, 36532, 36876, 37899, 38084, 38660, 39954, 50055, 50486, 51043, 51516, 51659, 52499], "trial_type": "free-recall", "conditions": [12, 1600, "a", 12000], "internal_node_id": "0.0-76.0-0.0", "key_presses": [67, 65, 78, 89, 79, 78, 32, 65, 67, 84, 79, 82, 32, 65, 87, 65, 82, 68, 32, 90, 69, 66, 82, 65, 32, 67, 72, 79, 85, 82, 67, 32, 76, 69, 79, 80, 65, 68, 8, 8, 65, 82, 68, 13, 65, 87, 65, 82, 68, 32, 70, 82, 69, 67, 75, 76, 69, 13, 90, 69, 66, 82, 65, 13], "trial": 2, "time_elapsed": 1340606, "type": "FREE_RECALL", "trial_index": 103}, "uniqueid": "MTK2420:3LOZAJ85YEKJ94U1RXSPOX0VE0X2XM", "dateTime": 1517081071213}, {"current_trial": 104, "trialdata": {"rt": 2946, "trial_type": "text", "internal_node_id": "0.0-77.0", "time_elapsed": 1345560, "key_press": 32, "type": "INSTRUCTIONS", "trial_index": 104}, "uniqueid": "MTK2420:3LOZAJ85YEKJ94U1RXSPOX0VE0X2XM", "dateTime": 1517081076160}, {"current_trial": 105, "trialdata": {"rt": [4083, 7676, 10628, 13139, 16676, 20020, 22763], "trial_type": "math-distractor", "key_times": [3101, 3277, 4083, 6877, 7188, 7676, 9901, 10156, 10628, 12635, 13139, 16045, 16213, 16676, 18684, 19509, 20020, 21876, 22309, 22763], "responses": ["14", "10", "15", "9", "22", "19", "19"], "num2": [1, 2, 2, 4, 9, 5, 5, 6], "num3": [5, 5, 6, 1, 7, 9, 5, 9], "conditions": [12, 1600, "a", 24000], "internal_node_id": "0.0-78.0", "key_presses": [97, 100, 13, 97, 96, 13, 97, 101, 13, 105, 13, 98, 98, 13, 97, 105, 13, 97, 105, 13], "trial": 3, "time_elapsed": 1371565, "type": "DISTRACTOR", "trial_index": 105, "num1": [8, 3, 7, 4, 6, 5, 9, 2]}, "uniqueid": "MTK2420:3LOZAJ85YEKJ94U1RXSPOX0VE0X2XM", "dateTime": 1517081102165}, {"current_trial": 106, "trialdata": {"rt": -1, "trial_type": "single-stim", "stimulus": "<p id=\"stim\">10</p>", "internal_node_id": "0.0-79.0-0.0", "time_elapsed": 1374567, "key_press": -1, "trial_index": 106}, "uniqueid": "MTK2420:3LOZAJ85YEKJ94U1RXSPOX0VE0X2XM", "dateTime": 1517081105167}, {"current_trial": 107, "trialdata": {"rt": -1, "trial_type": "single-stim", "stimulus": "<p id=\"stim\">9</p>", "internal_node_id": "0.0-79.0-1.0", "time_elapsed": 1375576, "key_press": -1, "trial_index": 107}, "uniqueid": "MTK2420:3LOZAJ85YEKJ94U1RXSPOX0VE0X2XM", "dateTime": 1517081106177}, {"current_trial": 108, "trialdata": {"rt": -1, "trial_type": "single-stim", "stimulus": "<p id=\"stim\">8</p>", "internal_node_id": "0.0-79.0-2.0", "time_elapsed": 1376579, "key_press": -1, "trial_index": 108}, "uniqueid": "MTK2420:3LOZAJ85YEKJ94U1RXSPOX0VE0X2XM", "dateTime": 1517081107179}, {"current_trial": 109, "trialdata": {"rt": -1, "trial_type": "single-stim", "stimulus": "<p id=\"stim\">7</p>", "internal_node_id": "0.0-79.0-3.0", "time_elapsed": 1377580, "key_press": -1, "trial_index": 109}, "uniqueid": "MTK2420:3LOZAJ85YEKJ94U1RXSPOX0VE0X2XM", "dateTime": 1517081108180}, {"current_trial": 110, "trialdata": {"rt": -1, "trial_type": "single-stim", "stimulus": "<p id=\"stim\">6</p>", "internal_node_id": "0.0-79.0-4.0", "time_elapsed": 1378583, "key_press": -1, "trial_index": 110}, "uniqueid": "MTK2420:3LOZAJ85YEKJ94U1RXSPOX0VE0X2XM", "dateTime": 1517081109183}, {"current_trial": 111, "trialdata": {"rt": -1, "trial_type": "single-stim", "stimulus": "<p id=\"stim\">5</p>", "internal_node_id": "0.0-79.0-5.0", "time_elapsed": 1379583, "key_press": -1, "trial_index": 111}, "uniqueid": "MTK2420:3LOZAJ85YEKJ94U1RXSPOX0VE0X2XM", "dateTime": 1517081110184}, {"current_trial": 112, "trialdata": {"rt": -1, "trial_type": "single-stim", "stimulus": "<p id=\"stim\">4</p>", "internal_node_id": "0.0-79.0-6.0", "time_elapsed": 1380585, "key_press": -1, "trial_index": 112}, "uniqueid": "MTK2420:3LOZAJ85YEKJ94U1RXSPOX0VE0X2XM", "dateTime": 1517081111185}, {"current_trial": 113, "trialdata": {"rt": -1, "trial_type": "single-stim", "stimulus": "<p id=\"stim\">3</p>", "internal_node_id": "0.0-79.0-7.0", "time_elapsed": 1381586, "key_press": -1, "trial_index": 113}, "uniqueid": "MTK2420:3LOZAJ85YEKJ94U1RXSPOX0VE0X2XM", "dateTime": 1517081112186}, {"current_trial": 114, "trialdata": {"rt": -1, "trial_type": "single-stim", "stimulus": "<p id=\"stim\">2</p>", "internal_node_id": "0.0-79.0-8.0", "time_elapsed": 1382589, "key_press": -1, "trial_index": 114}, "uniqueid": "MTK2420:3LOZAJ85YEKJ94U1RXSPOX0VE0X2XM", "dateTime": 1517081113189}, {"current_trial": 115, "trialdata": {"rt": -1, "trial_type": "single-stim", "stimulus": "<p id=\"stim\">1</p>", "internal_node_id": "0.0-79.0-9.0", "time_elapsed": 1383591, "key_press": -1, "trial_index": 115}, "uniqueid": "MTK2420:3LOZAJ85YEKJ94U1RXSPOX0VE0X2XM", "dateTime": 1517081114191}, {"current_trial": 116, "trialdata": {"rt": -1, "trial_type": "single-stim", "stimulus": "<p id=\"stim\">+</p>", "internal_node_id": "0.0-80.0-0.0", "time_elapsed": 1385092, "key_press": -1, "type": "FIXATION", "trial_index": 116}, "uniqueid": "MTK2420:3LOZAJ85YEKJ94U1RXSPOX0VE0X2XM", "dateTime": 1517081115693}, {"current_trial": 117, "trialdata": {"rt": -1000, "trial_type": "single-audio", "word": "cottage", "stimulus": "/static/audio/wordpool/COTTAGE.wav", "conditions": [12, 1600, "a", 24000], "internal_node_id": "0.0-81.0", "trial": 3, "time_elapsed": 1387570, "serialpos": 0, "key_press": -1, "wordID": 383, "type": "PRES_AUD", "trial_index": 117}, "uniqueid": "MTK2420:3LOZAJ85YEKJ94U1RXSPOX0VE0X2XM", "dateTime": 1517081118170}, {"current_trial": 118, "trialdata": {"rt": -1000, "trial_type": "single-audio", "word": "beaver", "stimulus": "/static/audio/wordpool/BEAVER.wav", "conditions": [12, 1600, "a", 24000], "internal_node_id": "0.0-82.0", "trial": 3, "time_elapsed": 1390046, "serialpos": 1, "key_press": -1, "wordID": 108, "type": "PRES_AUD", "trial_index": 118}, "uniqueid": "MTK2420:3LOZAJ85YEKJ94U1RXSPOX0VE0X2XM", "dateTime": 1517081120646}, {"current_trial": 119, "trialdata": {"rt": -1000, "trial_type": "single-audio", "word": "daughter", "stimulus": "/static/audio/wordpool/DAUGHTER.wav", "conditions": [12, 1600, "a", 24000], "internal_node_id": "0.0-83.0", "trial": 3, "time_elapsed": 1392623, "serialpos": 2, "key_press": -1, "wordID": 441, "type": "PRES_AUD", "trial_index": 119}, "uniqueid": "MTK2420:3LOZAJ85YEKJ94U1RXSPOX0VE0X2XM", "dateTime": 1517081123223}, {"current_trial": 120, "trialdata": {"rt": -1000, "trial_type": "single-audio", "word": "banquet", "stimulus": "/static/audio/wordpool/BANQUET.wav", "conditions": [12, 1600, "a", 24000], "internal_node_id": "0.0-84.0", "trial": 3, "time_elapsed": 1395393, "serialpos": 3, "key_press": -1, "wordID": 85, "type": "PRES_AUD", "trial_index": 120}, "uniqueid": "MTK2420:3LOZAJ85YEKJ94U1RXSPOX0VE0X2XM", "dateTime": 1517081125993}, {"current_trial": 121, "trialdata": {"rt": -1000, "trial_type": "single-audio", "word": "survey", "stimulus": "/static/audio/wordpool/SURVEY.wav", "conditions": [12, 1600, "a", 24000], "internal_node_id": "0.0-85.0", "trial": 3, "time_elapsed": 1398073, "serialpos": 4, "key_press": -1, "wordID": 1413, "type": "PRES_AUD", "trial_index": 121}, "uniqueid": "MTK2420:3LOZAJ85YEKJ94U1RXSPOX0VE0X2XM", "dateTime": 1517081128673}, {"current_trial": 122, "trialdata": {"rt": -1000, "trial_type": "single-audio", "word": "witness", "stimulus": "/static/audio/wordpool/WITNESS.wav", "conditions": [12, 1600, "a", 24000], "internal_node_id": "0.0-86.0", "trial": 3, "time_elapsed": 1400519, "serialpos": 5, "key_press": -1, "wordID": 1617, "type": "PRES_AUD", "trial_index": 122}, "uniqueid": "MTK2420:3LOZAJ85YEKJ94U1RXSPOX0VE0X2XM", "dateTime": 1517081131120}, {"current_trial": 123, "trialdata": {"rt": -1000, "trial_type": "single-audio", "word": "napkin", "stimulus": "/static/audio/wordpool/NAPKIN.wav", "conditions": [12, 1600, "a", 24000], "internal_node_id": "0.0-87.0", "trial": 3, "time_elapsed": 1403073, "serialpos": 6, "key_press": -1, "wordID": 936, "type": "PRES_AUD", "trial_index": 123}, "uniqueid": "MTK2420:3LOZAJ85YEKJ94U1RXSPOX0VE0X2XM", "dateTime": 1517081133673}, {"current_trial": 124, "trialdata": {"rt": -1000, "trial_type": "single-audio", "word": "princess", "stimulus": "/static/audio/wordpool/PRINCESS.wav", "conditions": [12, 1600, "a", 24000], "internal_node_id": "0.0-88.0", "trial": 3, "time_elapsed": 1405850, "serialpos": 7, "key_press": -1, "wordID": 1124, "type": "PRES_AUD", "trial_index": 124}, "uniqueid": "MTK2420:3LOZAJ85YEKJ94U1RXSPOX0VE0X2XM", "dateTime": 1517081136451}, {"current_trial": 125, "trialdata": {"rt": -1000, "trial_type": "single-audio", "word": "queen", "stimulus": "/static/audio/wordpool/QUEEN.wav", "conditions": [12, 1600, "a", 24000], "internal_node_id": "0.0-89.0", "trial": 3, "time_elapsed": 1408406, "serialpos": 8, "key_press": -1, "wordID": 1148, "type": "PRES_AUD", "trial_index": 125}, "uniqueid": "MTK2420:3LOZAJ85YEKJ94U1RXSPOX0VE0X2XM", "dateTime": 1517081139007}, {"current_trial": 126, "trialdata": {"rt": -1000, "trial_type": "single-audio", "word": "omelet", "stimulus": "/static/audio/wordpool/OMELET.wav", "conditions": [12, 1600, "a", 24000], "internal_node_id": "0.0-90.0", "trial": 3, "time_elapsed": 1410960, "serialpos": 9, "key_press": -1, "wordID": 975, "type": "PRES_AUD", "trial_index": 126}, "uniqueid": "MTK2420:3LOZAJ85YEKJ94U1RXSPOX0VE0X2XM", "dateTime": 1517081141561}, {"current_trial": 127, "trialdata": {"rt": -1000, "trial_type": "single-audio", "word": "widow", "stimulus": "/static/audio/wordpool/WIDOW.wav", "conditions": [12, 1600, "a", 24000], "internal_node_id": "0.0-91.0", "trial": 3, "time_elapsed": 1413382, "serialpos": 10, "key_press": -1, "wordID": 1607, "type": "PRES_AUD", "trial_index": 127}, "uniqueid": "MTK2420:3LOZAJ85YEKJ94U1RXSPOX0VE0X2XM", "dateTime": 1517081143982}, {"current_trial": 128, "trialdata": {"rt": -1000, "trial_type": "single-audio", "word": "garbage", "stimulus": "/static/audio/wordpool/GARBAGE.wav", "conditions": [12, 1600, "a", 24000], "internal_node_id": "0.0-92.0", "trial": 3, "time_elapsed": 1415868, "serialpos": 11, "key_press": -1, "wordID": 621, "type": "PRES_AUD", "trial_index": 128}, "uniqueid": "MTK2420:3LOZAJ85YEKJ94U1RXSPOX0VE0X2XM", "dateTime": 1517081146469}, {"current_trial": 129, "trialdata": {"rt": -1, "trial_type": "single-stim", "stimulus": "", "internal_node_id": "0.0-93.0-0.0", "time_elapsed": 1417084, "key_press": -1, "type": "PRE_RECALL_DELAY", "trial_index": 129}, "uniqueid": "MTK2420:3LOZAJ85YEKJ94U1RXSPOX0VE0X2XM", "dateTime": 1517081147685}, {"current_trial": 130, "trialdata": {"rt": -1000, "trial_type": "single-audio", "stimulus": "/static/audio/400Hz.wav", "internal_node_id": "0.0-94.0", "time_elapsed": 1417587, "key_press": -1, "type": "PRE_RECALL_ALERT", "trial_index": 130}, "uniqueid": "MTK2420:3LOZAJ85YEKJ94U1RXSPOX0VE0X2XM", "dateTime": 1517081148187}, {"current_trial": 131, "trialdata": {"rt": [3385, 8842, 12530, 17546, 23258, 29033], "recwords": ["garbage", "widow", "cottage", "daughter", "princess", "beaver"], "key_times": [885, 1026, 1515, 2162, 2333, 3034, 3210, 3385, 3578, 4194, 4586, 7433, 7826, 8842, 10498, 10794, 11386, 11550, 11673, 12114, 12362, 12530, 12945, 13273, 13513, 15153, 15354, 15586, 16010, 16234, 17546, 18322, 20233, 20465, 20898, 21395, 21939, 22362, 22473, 23258, 23834, 23978, 24298, 24882, 25066, 25081, 25506, 26985, 27137, 27274, 28234, 28458, 29033], "trial_type": "free-recall", "conditions": [12, 1600, "a", 24000], "internal_node_id": "0.0-95.0-0.0", "key_presses": [71, 65, 82, 66, 65, 71, 69, 32, 87, 73, 68, 79, 87, 32, 67, 79, 84, 84, 65, 71, 69, 32, 68, 65, 85, 71, 72, 84, 69, 82, 32, 80, 82, 73, 78, 67, 69, 83, 83, 32, 66, 69, 65, 86, 87, 69, 82, 8, 8, 8, 69, 82, 32], "trial": 3, "time_elapsed": 1477591, "type": "FREE_RECALL", "trial_index": 131}, "uniqueid": "MTK2420:3LOZAJ85YEKJ94U1RXSPOX0VE0X2XM", "dateTime": 1517081208202}, {"current_trial": 132, "trialdata": {"rt": 5228, "trial_type": "text", "internal_node_id": "0.0-96.0", "time_elapsed": 1484832, "key_press": 32, "type": "INSTRUCTIONS", "trial_index": 132}, "uniqueid": "MTK2420:3LOZAJ85YEKJ94U1RXSPOX0VE0X2XM", "dateTime": 1517081215433}, {"current_trial": 133, "trialdata": {"rt": [3342, 8542, 15118, 18187, 21358], "trial_type": "math-distractor", "key_times": [2662, 2862, 3342, 7735, 7950, 8542, 11031, 11526, 11862, 14545, 15118, 17591, 17751, 18187, 20702, 20886, 21358, 23423, 23687], "responses": ["20", "20", "19", "11", "15"], "num2": [5, 6, 9, 3, 5, 3], "num3": [6, 8, 3, 5, 3, 7], "conditions": [12, 1600, "a", 24000], "internal_node_id": "0.0-97.0", "key_presses": [98, 96, 13, 98, 96, 13, 97, 105, 96, 8, 13, 97, 97, 13, 97, 101, 13, 97, 103], "trial": 4, "time_elapsed": 1510842, "type": "DISTRACTOR", "trial_index": 133, "num1": [9, 6, 7, 3, 7, 7]}, "uniqueid": "MTK2420:3LOZAJ85YEKJ94U1RXSPOX0VE0X2XM", "dateTime": 1517081241443}, {"current_trial": 134, "trialdata": {"rt": -1, "trial_type": "single-stim", "stimulus": "<p id=\"stim\">10</p>", "internal_node_id": "0.0-98.0-0.0", "time_elapsed": 1513889, "key_press": -1, "trial_index": 134}, "uniqueid": "MTK2420:3LOZAJ85YEKJ94U1RXSPOX0VE0X2XM", "dateTime": 1517081244489}, {"current_trial": 135, "trialdata": {"rt": -1, "trial_type": "single-stim", "stimulus": "<p id=\"stim\">9</p>", "internal_node_id": "0.0-98.0-1.0", "time_elapsed": 1514891, "key_press": -1, "trial_index": 135}, "uniqueid": "MTK2420:3LOZAJ85YEKJ94U1RXSPOX0VE0X2XM", "dateTime": 1517081245491}, {"current_trial": 136, "trialdata": {"rt": -1, "trial_type": "single-stim", "stimulus": "<p id=\"stim\">8</p>", "internal_node_id": "0.0-98.0-2.0", "time_elapsed": 1515892, "key_press": -1, "trial_index": 136}, "uniqueid": "MTK2420:3LOZAJ85YEKJ94U1RXSPOX0VE0X2XM", "dateTime": 1517081246493}, {"current_trial": 137, "trialdata": {"rt": -1, "trial_type": "single-stim", "stimulus": "<p id=\"stim\">7</p>", "internal_node_id": "0.0-98.0-3.0", "time_elapsed": 1516895, "key_press": -1, "trial_index": 137}, "uniqueid": "MTK2420:3LOZAJ85YEKJ94U1RXSPOX0VE0X2XM", "dateTime": 1517081247495}, {"current_trial": 138, "trialdata": {"rt": -1, "trial_type": "single-stim", "stimulus": "<p id=\"stim\">6</p>", "internal_node_id": "0.0-98.0-4.0", "time_elapsed": 1517897, "key_press": -1, "trial_index": 138}, "uniqueid": "MTK2420:3LOZAJ85YEKJ94U1RXSPOX0VE0X2XM", "dateTime": 1517081248503}, {"current_trial": 139, "trialdata": {"rt": -1, "trial_type": "single-stim", "stimulus": "<p id=\"stim\">5</p>", "internal_node_id": "0.0-98.0-5.0", "time_elapsed": 1518906, "key_press": -1, "trial_index": 139}, "uniqueid": "MTK2420:3LOZAJ85YEKJ94U1RXSPOX0VE0X2XM", "dateTime": 1517081249506}, {"current_trial": 140, "trialdata": {"rt": -1, "trial_type": "single-stim", "stimulus": "<p id=\"stim\">4</p>", "internal_node_id": "0.0-98.0-6.0", "time_elapsed": 1519908, "key_press": -1, "trial_index": 140}, "uniqueid": "MTK2420:3LOZAJ85YEKJ94U1RXSPOX0VE0X2XM", "dateTime": 1517081250508}, {"current_trial": 141, "trialdata": {"rt": -1, "trial_type": "single-stim", "stimulus": "<p id=\"stim\">3</p>", "internal_node_id": "0.0-98.0-7.0", "time_elapsed": 1520908, "key_press": -1, "trial_index": 141}, "uniqueid": "MTK2420:3LOZAJ85YEKJ94U1RXSPOX0VE0X2XM", "dateTime": 1517081251509}, {"current_trial": 142, "trialdata": {"rt": -1, "trial_type": "single-stim", "stimulus": "<p id=\"stim\">2</p>", "internal_node_id": "0.0-98.0-8.0", "time_elapsed": 1521911, "key_press": -1, "trial_index": 142}, "uniqueid": "MTK2420:3LOZAJ85YEKJ94U1RXSPOX0VE0X2XM", "dateTime": 1517081252511}, {"current_trial": 143, "trialdata": {"rt": -1, "trial_type": "single-stim", "stimulus": "<p id=\"stim\">1</p>", "internal_node_id": "0.0-98.0-9.0", "time_elapsed": 1522911, "key_press": -1, "trial_index": 143}, "uniqueid": "MTK2420:3LOZAJ85YEKJ94U1RXSPOX0VE0X2XM", "dateTime": 1517081253511}, {"current_trial": 144, "trialdata": {"rt": -1, "trial_type": "single-stim", "stimulus": "<p id=\"stim\">+</p>", "internal_node_id": "0.0-99.0-0.0", "time_elapsed": 1524412, "key_press": -1, "type": "FIXATION", "trial_index": 144}, "uniqueid": "MTK2420:3LOZAJ85YEKJ94U1RXSPOX0VE0X2XM", "dateTime": 1517081255012}, {"current_trial": 145, "trialdata": {"rt": -1000, "trial_type": "single-audio", "word": "teacher", "stimulus": "/static/audio/wordpool/TEACHER.wav", "conditions": [12, 1600, "a", 24000], "internal_node_id": "0.0-100.0", "trial": 4, "time_elapsed": 1526889, "serialpos": 0, "key_press": -1, "wordID": 1439, "type": "PRES_AUD", "trial_index": 145}, "uniqueid": "MTK2420:3LOZAJ85YEKJ94U1RXSPOX0VE0X2XM", "dateTime": 1517081257489}, {"current_trial": 146, "trialdata": {"rt": -1000, "trial_type": "single-audio", "word": "star", "stimulus": "/static/audio/wordpool/STAR.wav", "conditions": [12, 1600, "a", 24000], "internal_node_id": "0.0-101.0", "trial": 4, "time_elapsed": 1529383, "serialpos": 1, "key_press": -1, "wordID": 1372, "type": "PRES_AUD", "trial_index": 146}, "uniqueid": "MTK2420:3LOZAJ85YEKJ94U1RXSPOX0VE0X2XM", "dateTime": 1517081259983}, {"current_trial": 147, "trialdata": {"rt": -1000, "trial_type": "single-audio", "word": "scissors", "stimulus": "/static/audio/wordpool/SCISSORS.wav", "conditions": [12, 1600, "a", 24000], "internal_node_id": "0.0-102.0", "trial": 4, "time_elapsed": 1532158, "serialpos": 2, "key_press": -1, "wordID": 1249, "type": "PRES_AUD", "trial_index": 147}, "uniqueid": "MTK2420:3LOZAJ85YEKJ94U1RXSPOX0VE0X2XM", "dateTime": 1517081262758}, {"current_trial": 148, "trialdata": {"rt": -1000, "trial_type": "single-audio", "word": "knapsack", "stimulus": "/static/audio/wordpool/KNAPSACK.wav", "conditions": [12, 1600, "a", 24000], "internal_node_id": "0.0-103.0", "trial": 4, "time_elapsed": 1534729, "serialpos": 3, "key_press": -1, "wordID": 782, "type": "PRES_AUD", "trial_index": 148}, "uniqueid": "MTK2420:3LOZAJ85YEKJ94U1RXSPOX0VE0X2XM", "dateTime": 1517081265329}, {"current_trial": 149, "trialdata": {"rt": -1000, "trial_type": "single-audio", "word": "paddle", "stimulus": "/static/audio/wordpool/PADDLE.wav", "conditions": [12, 1600, "a", 24000], "internal_node_id": "0.0-104.0", "trial": 4, "time_elapsed": 1537527, "serialpos": 4, "key_press": -1, "wordID": 999, "type": "PRES_AUD", "trial_index": 149}, "uniqueid": "MTK2420:3LOZAJ85YEKJ94U1RXSPOX0VE0X2XM", "dateTime": 1517081268127}, {"current_trial": 150, "trialdata": {"rt": -1000, "trial_type": "single-audio", "word": "student", "stimulus": "/static/audio/wordpool/STUDENT.wav", "conditions": [12, 1600, "a", 24000], "internal_node_id": "0.0-105.0", "trial": 4, "time_elapsed": 1540041, "serialpos": 5, "key_press": -1, "wordID": 1394, "type": "PRES_AUD", "trial_index": 150}, "uniqueid": "MTK2420:3LOZAJ85YEKJ94U1RXSPOX0VE0X2XM", "dateTime": 1517081270641}, {"current_trial": 151, "trialdata": {"rt": -1000, "trial_type": "single-audio", "word": "dorm", "stimulus": "/static/audio/wordpool/DORM.wav", "conditions": [12, 1600, "a", 24000], "internal_node_id": "0.0-106.0", "trial": 4, "time_elapsed": 1542443, "serialpos": 6, "key_press": -1, "wordID": 487, "type": "PRES_AUD", "trial_index": 151}, "uniqueid": "MTK2420:3LOZAJ85YEKJ94U1RXSPOX0VE0X2XM", "dateTime": 1517081273043}, {"current_trial": 152, "trialdata": {"rt": -1000, "trial_type": "single-audio", "word": "uncle", "stimulus": "/static/audio/wordpool/UNCLE.wav", "conditions": [12, 1600, "a", 24000], "internal_node_id": "0.0-107.0", "trial": 4, "time_elapsed": 1545034, "serialpos": 7, "key_press": -1, "wordID": 1535, "type": "PRES_AUD", "trial_index": 152}, "uniqueid": "MTK2420:3LOZAJ85YEKJ94U1RXSPOX0VE0X2XM", "dateTime": 1517081275634}, {"current_trial": 153, "trialdata": {"rt": -1000, "trial_type": "single-audio", "word": "cellar", "stimulus": "/static/audio/wordpool/CELLAR.wav", "conditions": [12, 1600, "a", 24000], "internal_node_id": "0.0-108.0", "trial": 4, "time_elapsed": 1547612, "serialpos": 8, "key_press": -1, "wordID": 266, "type": "PRES_AUD", "trial_index": 153}, "uniqueid": "MTK2420:3LOZAJ85YEKJ94U1RXSPOX0VE0X2XM", "dateTime": 1517081278212}, {"current_trial": 154, "trialdata": {"rt": -1000, "trial_type": "single-audio", "word": "pliers", "stimulus": "/static/audio/wordpool/PLIERS.wav", "conditions": [12, 1600, "a", 24000], "internal_node_id": "0.0-109.0", "trial": 4, "time_elapsed": 1550187, "serialpos": 9, "key_press": -1, "wordID": 1088, "type": "PRES_AUD", "trial_index": 154}, "uniqueid": "MTK2420:3LOZAJ85YEKJ94U1RXSPOX0VE0X2XM", "dateTime": 1517081280787}, {"current_trial": 155, "trialdata": {"rt": -1000, "trial_type": "single-audio", "word": "subway", "stimulus": "/static/audio/wordpool/SUBWAY.wav", "conditions": [12, 1600, "a", 24000], "internal_node_id": "0.0-110.0", "trial": 4, "time_elapsed": 1552627, "serialpos": 10, "key_press": -1, "wordID": 1399, "type": "PRES_AUD", "trial_index": 155}, "uniqueid": "MTK2420:3LOZAJ85YEKJ94U1RXSPOX0VE0X2XM", "dateTime": 1517081283227}, {"current_trial": 156, "trialdata": {"rt": -1000, "trial_type": "single-audio", "word": "gallon", "stimulus": "/static/audio/wordpool/GALLON.wav", "conditions": [12, 1600, "a", 24000], "internal_node_id": "0.0-111.0", "trial": 4, "time_elapsed": 1555164, "serialpos": 11, "key_press": -1, "wordID": 617, "type": "PRES_AUD", "trial_index": 156}, "uniqueid": "MTK2420:3LOZAJ85YEKJ94U1RXSPOX0VE0X2XM", "dateTime": 1517081285764}, {"current_trial": 157, "trialdata": {"rt": -1, "trial_type": "single-stim", "stimulus": "", "internal_node_id": "0.0-112.0-0.0", "time_elapsed": 1556402, "key_press": -1, "type": "PRE_RECALL_DELAY", "trial_index": 157}, "uniqueid": "MTK2420:3LOZAJ85YEKJ94U1RXSPOX0VE0X2XM", "dateTime": 1517081287002}, {"current_trial": 158, "trialdata": {"rt": -1000, "trial_type": "single-audio", "stimulus": "/static/audio/400Hz.wav", "internal_node_id": "0.0-113.0", "time_elapsed": 1556902, "key_press": -1, "type": "PRE_RECALL_ALERT", "trial_index": 158}, "uniqueid": "MTK2420:3LOZAJ85YEKJ94U1RXSPOX0VE0X2XM", "dateTime": 1517081287502}, {"current_trial": 159, "trialdata": {"rt": [9575, 12707, 16703, 21935, 24624, 30015], "recwords": ["pliers", "subway", "gallon", "teacher", "star", "student"], "key_times": [481, 735, 1439, 1664, 1991, 4375, 4559, 4727, 5007, 6182, 7702, 9575, 10486, 11016, 11529, 11831, 12054, 12407, 12707, 13311, 13447, 15255, 15399, 15655, 16496, 16703, 19182, 19423, 19799, 20622, 20975, 21184, 21399, 21935, 23351, 23503, 23671, 24223, 24624, 26247, 26439, 27103, 28201, 28399, 28814, 29271, 30015], "trial_type": "free-recall", "conditions": [12, 1600, "a", 24000], "internal_node_id": "0.0-114.0-0.0", "key_presses": [80, 76, 69, 82, 83, 37, 37, 37, 37, 39, 73, 32, 83, 85, 66, 87, 65, 89, 32, 71, 65, 76, 76, 79, 78, 32, 84, 69, 65, 67, 72, 69, 82, 32, 83, 84, 65, 82, 32, 83, 84, 85, 68, 69, 78, 84, 32], "trial": 4, "time_elapsed": 1616905, "type": "FREE_RECALL", "trial_index": 159}, "uniqueid": "MTK2420:3LOZAJ85YEKJ94U1RXSPOX0VE0X2XM", "dateTime": 1517081347511}, {"current_trial": 160, "trialdata": {"rt": 27559, "trial_type": "text", "internal_node_id": "0.0-115.0", "time_elapsed": 1646471, "key_press": 66, "type": "INSTRUCTIONS", "trial_index": 160}, "uniqueid": "MTK2420:3LOZAJ85YEKJ94U1RXSPOX0VE0X2XM", "dateTime": 1517081377071}, {"current_trial": 161, "trialdata": {"rt": [4116, 6980, 9727], "trial_type": "math-distractor", "key_times": [3189, 3541, 4116, 6293, 6516, 6980, 9309, 9727], "responses": ["12", "10", "7"], "num2": [4, 2, 2, 4], "num3": [3, 4, 4, 4], "conditions": [12, 800, "a", 12000], "internal_node_id": "0.0-116.0", "key_presses": [97, 98, 13, 97, 96, 13, 103, 13], "trial": 5, "time_elapsed": 1660474, "type": "DISTRACTOR", "trial_index": 161, "num1": [5, 4, 1, 9]}, "uniqueid": "MTK2420:3LOZAJ85YEKJ94U1RXSPOX0VE0X2XM", "dateTime": 1517081391074}, {"current_trial": 162, "trialdata": {"rt": -1, "trial_type": "single-stim", "stimulus": "<p id=\"stim\">10</p>", "internal_node_id": "0.0-117.0-0.0", "time_elapsed": 1663476, "key_press": -1, "trial_index": 162}, "uniqueid": "MTK2420:3LOZAJ85YEKJ94U1RXSPOX0VE0X2XM", "dateTime": 1517081394076}, {"current_trial": 163, "trialdata": {"rt": -1, "trial_type": "single-stim", "stimulus": "<p id=\"stim\">9</p>", "internal_node_id": "0.0-117.0-1.0", "time_elapsed": 1664476, "key_press": -1, "trial_index": 163}, "uniqueid": "MTK2420:3LOZAJ85YEKJ94U1RXSPOX0VE0X2XM", "dateTime": 1517081395077}, {"current_trial": 164, "trialdata": {"rt": -1, "trial_type": "single-stim", "stimulus": "<p id=\"stim\">8</p>", "internal_node_id": "0.0-117.0-2.0", "time_elapsed": 1665479, "key_press": -1, "trial_index": 164}, "uniqueid": "MTK2420:3LOZAJ85YEKJ94U1RXSPOX0VE0X2XM", "dateTime": 1517081396079}, {"current_trial": 165, "trialdata": {"rt": -1, "trial_type": "single-stim", "stimulus": "<p id=\"stim\">7</p>", "internal_node_id": "0.0-117.0-3.0", "time_elapsed": 1666481, "key_press": -1, "trial_index": 165}, "uniqueid": "MTK2420:3LOZAJ85YEKJ94U1RXSPOX0VE0X2XM", "dateTime": 1517081397082}, {"current_trial": 166, "trialdata": {"rt": -1, "trial_type": "single-stim", "stimulus": "<p id=\"stim\">6</p>", "internal_node_id": "0.0-117.0-4.0", "time_elapsed": 1667483, "key_press": -1, "trial_index": 166}, "uniqueid": "MTK2420:3LOZAJ85YEKJ94U1RXSPOX0VE0X2XM", "dateTime": 1517081398083}, {"current_trial": 167, "trialdata": {"rt": -1, "trial_type": "single-stim", "stimulus": "<p id=\"stim\">5</p>", "internal_node_id": "0.0-117.0-5.0", "time_elapsed": 1668486, "key_press": -1, "trial_index": 167}, "uniqueid": "MTK2420:3LOZAJ85YEKJ94U1RXSPOX0VE0X2XM", "dateTime": 1517081399086}, {"current_trial": 168, "trialdata": {"rt": -1, "trial_type": "single-stim", "stimulus": "<p id=\"stim\">4</p>", "internal_node_id": "0.0-117.0-6.0", "time_elapsed": 1669486, "key_press": -1, "trial_index": 168}, "uniqueid": "MTK2420:3LOZAJ85YEKJ94U1RXSPOX0VE0X2XM", "dateTime": 1517081400087}, {"current_trial": 169, "trialdata": {"rt": -1, "trial_type": "single-stim", "stimulus": "<p id=\"stim\">3</p>", "internal_node_id": "0.0-117.0-7.0", "time_elapsed": 1670488, "key_press": -1, "trial_index": 169}, "uniqueid": "MTK2420:3LOZAJ85YEKJ94U1RXSPOX0VE0X2XM", "dateTime": 1517081401089}, {"current_trial": 170, "trialdata": {"rt": -1, "trial_type": "single-stim", "stimulus": "<p id=\"stim\">2</p>", "internal_node_id": "0.0-117.0-8.0", "time_elapsed": 1671490, "key_press": -1, "trial_index": 170}, "uniqueid": "MTK2420:3LOZAJ85YEKJ94U1RXSPOX0VE0X2XM", "dateTime": 1517081402091}, {"current_trial": 171, "trialdata": {"rt": -1, "trial_type": "single-stim", "stimulus": "<p id=\"stim\">1</p>", "internal_node_id": "0.0-117.0-9.0", "time_elapsed": 1672493, "key_press": -1, "trial_index": 171}, "uniqueid": "MTK2420:3LOZAJ85YEKJ94U1RXSPOX0VE0X2XM", "dateTime": 1517081403095}, {"current_trial": 172, "trialdata": {"rt": -1, "trial_type": "single-stim", "stimulus": "<p id=\"stim\">+</p>", "internal_node_id": "0.0-118.0-0.0", "time_elapsed": 1673998, "key_press": -1, "type": "FIXATION", "trial_index": 172}, "uniqueid": "MTK2420:3LOZAJ85YEKJ94U1RXSPOX0VE0X2XM", "dateTime": 1517081404602}, {"current_trial": 173, "trialdata": {"rt": -1000, "trial_type": "single-audio", "word": "cabbage", "stimulus": "/static/audio/wordpool/CABBAGE.wav", "conditions": [12, 800, "a", 12000], "internal_node_id": "0.0-119.0", "trial": 5, "time_elapsed": 1675997, "serialpos": 0, "key_press": -1, "wordID": 209, "type": "PRES_AUD", "trial_index": 173}, "uniqueid": "MTK2420:3LOZAJ85YEKJ94U1RXSPOX0VE0X2XM", "dateTime": 1517081406598}, {"current_trial": 174, "trialdata": {"rt": -1000, "trial_type": "single-audio", "word": "world", "stimulus": "/static/audio/wordpool/WORLD.wav", "conditions": [12, 800, "a", 12000], "internal_node_id": "0.0-120.0", "trial": 5, "time_elapsed": 1677742, "serialpos": 1, "key_press": -1, "wordID": 1621, "type": "PRES_AUD", "trial_index": 174}, "uniqueid": "MTK2420:3LOZAJ85YEKJ94U1RXSPOX0VE0X2XM", "dateTime": 1517081408342}, {"current_trial": 175, "trialdata": {"rt": -1000, "trial_type": "single-audio", "word": "jello", "stimulus": "/static/audio/wordpool/JELLO.wav", "conditions": [12, 800, "a", 12000], "internal_node_id": "0.0-121.0", "trial": 5, "time_elapsed": 1679719, "serialpos": 2, "key_press": -1, "wordID": 753, "type": "PRES_AUD", "trial_index": 175}, "uniqueid": "MTK2420:3LOZAJ85YEKJ94U1RXSPOX0VE0X2XM", "dateTime": 1517081410319}, {"current_trial": 176, "trialdata": {"rt": -1000, "trial_type": "single-audio", "word": "sunset", "stimulus": "/static/audio/wordpool/SUNSET.wav", "conditions": [12, 800, "a", 12000], "internal_node_id": "0.0-122.0", "trial": 5, "time_elapsed": 1681584, "serialpos": 3, "key_press": -1, "wordID": 1407, "type": "PRES_AUD", "trial_index": 176}, "uniqueid": "MTK2420:3LOZAJ85YEKJ94U1RXSPOX0VE0X2XM", "dateTime": 1517081412185}, {"current_trial": 177, "trialdata": {"rt": -1000, "trial_type": "single-audio", "word": "passage", "stimulus": "/static/audio/wordpool/PASSAGE.wav", "conditions": [12, 800, "a", 12000], "internal_node_id": "0.0-123.0", "trial": 5, "time_elapsed": 1683349, "serialpos": 4, "key_press": -1, "wordID": 1018, "type": "PRES_AUD", "trial_index": 177}, "uniqueid": "MTK2420:3LOZAJ85YEKJ94U1RXSPOX0VE0X2XM", "dateTime": 1517081413949}, {"current_trial": 178, "trialdata": {"rt": -1000, "trial_type": "single-audio", "word": "turnip", "stimulus": "/static/audio/wordpool/TURNIP.wav", "conditions": [12, 800, "a", 12000], "internal_node_id": "0.0-124.0", "trial": 5, "time_elapsed": 1685032, "serialpos": 5, "key_press": -1, "wordID": 1520, "type": "PRES_AUD", "trial_index": 178}, "uniqueid": "MTK2420:3LOZAJ85YEKJ94U1RXSPOX0VE0X2XM", "dateTime": 1517081415632}, {"current_trial": 179, "trialdata": {"rt": -1000, "trial_type": "single-audio", "word": "friend", "stimulus": "/static/audio/wordpool/FRIEND.wav", "conditions": [12, 800, "a", 12000], "internal_node_id": "0.0-125.0", "trial": 5, "time_elapsed": 1686785, "serialpos": 6, "key_press": -1, "wordID": 605, "type": "PRES_AUD", "trial_index": 179}, "uniqueid": "MTK2420:3LOZAJ85YEKJ94U1RXSPOX0VE0X2XM", "dateTime": 1517081417386}, {"current_trial": 180, "trialdata": {"rt": -1000, "trial_type": "single-audio", "word": "tile", "stimulus": "/static/audio/wordpool/TILE.wav", "conditions": [12, 800, "a", 12000], "internal_node_id": "0.0-126.0", "trial": 5, "time_elapsed": 1688636, "serialpos": 7, "key_press": -1, "wordID": 1467, "type": "PRES_AUD", "trial_index": 180}, "uniqueid": "MTK2420:3LOZAJ85YEKJ94U1RXSPOX0VE0X2XM", "dateTime": 1517081419237}, {"current_trial": 181, "trialdata": {"rt": -1000, "trial_type": "single-audio", "word": "sculpture", "stimulus": "/static/audio/wordpool/SCULPTURE.wav", "conditions": [12, 800, "a", 12000], "internal_node_id": "0.0-127.0", "trial": 5, "time_elapsed": 1690631, "serialpos": 8, "key_press": -1, "wordID": 1257, "type": "PRES_AUD", "trial_index": 181}, "uniqueid": "MTK2420:3LOZAJ85YEKJ94U1RXSPOX0VE0X2XM", "dateTime": 1517081421238}, {"current_trial": 182, "trialdata": {"rt": -1000, "trial_type": "single-audio", "word": "statue", "stimulus": "/static/audio/wordpool/STATUE.wav", "conditions": [12, 800, "a", 12000], "internal_node_id": "0.0-128.0", "trial": 5, "time_elapsed": 1692437, "serialpos": 9, "key_press": -1, "wordID": 1373, "type": "PRES_AUD", "trial_index": 182}, "uniqueid": "MTK2420:3LOZAJ85YEKJ94U1RXSPOX0VE0X2XM", "dateTime": 1517081423037}, {"current_trial": 183, "trialdata": {"rt": -1000, "trial_type": "single-audio", "word": "sister", "stimulus": "/static/audio/wordpool/SISTER.wav", "conditions": [12, 800, "a", 12000], "internal_node_id": "0.0-129.0", "trial": 5, "time_elapsed": 1694300, "serialpos": 10, "key_press": -1, "wordID": 1311, "type": "PRES_AUD", "trial_index": 183}, "uniqueid": "MTK2420:3LOZAJ85YEKJ94U1RXSPOX0VE0X2XM", "dateTime": 1517081424900}, {"current_trial": 184, "trialdata": {"rt": -1000, "trial_type": "single-audio", "word": "rocket", "stimulus": "/static/audio/wordpool/ROCKET.wav", "conditions": [12, 800, "a", 12000], "internal_node_id": "0.0-130.0", "trial": 5, "time_elapsed": 1696048, "serialpos": 11, "key_press": -1, "wordID": 1201, "type": "PRES_AUD", "trial_index": 184}, "uniqueid": "MTK2420:3LOZAJ85YEKJ94U1RXSPOX0VE0X2XM", "dateTime": 1517081426648}, {"current_trial": 185, "trialdata": {"rt": -1, "trial_type": "single-stim", "stimulus": "", "internal_node_id": "0.0-131.0-0.0", "time_elapsed": 1697423, "key_press": -1, "type": "PRE_RECALL_DELAY", "trial_index": 185}, "uniqueid": "MTK2420:3LOZAJ85YEKJ94U1RXSPOX0VE0X2XM", "dateTime": 1517081428024}, {"current_trial": 186, "trialdata": {"rt": -1000, "trial_type": "single-audio", "stimulus": "/static/audio/400Hz.wav", "internal_node_id": "0.0-132.0", "time_elapsed": 1697924, "key_press": -1, "type": "PRE_RECALL_ALERT", "trial_index": 186}, "uniqueid": "MTK2420:3LOZAJ85YEKJ94U1RXSPOX0VE0X2XM", "dateTime": 1517081428524}, {"current_trial": 187, "trialdata": {"rt": [4104, 6656, 10040, 14136, 16239, 24072, 34352], "recwords": ["rocket", "sister", "statue", "cabbage", "jello", "sculpture", "sister"], "key_times": [1593, 1832, 2249, 2768, 3056, 3792, 4104, 4272, 4817, 5345, 5904, 6080, 6336, 6656, 6816, 7048, 7296, 7511, 8080, 9280, 10040, 10608, 10976, 11544, 11706, 12401, 13056, 13400, 14136, 14680, 15072, 15407, 15559, 15776, 16239, 18144, 18452, 19376, 20144, 20328, 20928, 21136, 22257, 22440, 24072, 30574, 31823, 32151, 32777, 32960, 33127, 34352], "trial_type": "free-recall", "conditions": [12, 800, "a", 12000], "internal_node_id": "0.0-133.0-0.0", "key_presses": [82, 79, 67, 75, 69, 84, 32, 83, 73, 83, 84, 69, 82, 32, 83, 84, 65, 84, 85, 69, 32, 67, 65, 66, 66, 65, 71, 69, 32, 74, 69, 76, 76, 79, 32, 83, 67, 85, 76, 80, 84, 85, 82, 69, 32, 83, 73, 83, 84, 69, 82, 32], "trial": 5, "time_elapsed": 1757929, "type": "FREE_RECALL", "trial_index": 187}, "uniqueid": "MTK2420:3LOZAJ85YEKJ94U1RXSPOX0VE0X2XM", "dateTime": 1517081488541}, {"current_trial": 188, "trialdata": {"rt": 4337, "trial_type": "text", "internal_node_id": "0.0-134.0", "time_elapsed": 1764280, "key_press": 32, "type": "INSTRUCTIONS", "trial_index": 188}, "uniqueid": "MTK2420:3LOZAJ85YEKJ94U1RXSPOX0VE0X2XM", "dateTime": 1517081494880}, {"current_trial": 189, "trialdata": {"rt": [2676, 5228, 7948, 10251], "trial_type": "math-distractor", "key_times": [2142, 2291, 2676, 4677, 4837, 5228, 7285, 7517, 7948, 9822, 10251], "responses": ["11", "11", "15", "7"], "num2": [4, 8, 5, 4, 3], "num3": [2, 2, 3, 2, 2], "conditions": [24, 800, "a", 12000], "internal_node_id": "0.0-135.0", "key_presses": [97, 97, 13, 97, 97, 13, 97, 101, 13, 103, 13], "trial": 6, "time_elapsed": 1778283, "type": "DISTRACTOR", "trial_index": 189, "num1": [5, 1, 7, 1, 1]}, "uniqueid": "MTK2420:3LOZAJ85YEKJ94U1RXSPOX0VE0X2XM", "dateTime": 1517081508884}, {"current_trial": 190, "trialdata": {"rt": -1, "trial_type": "single-stim", "stimulus": "<p id=\"stim\">10</p>", "internal_node_id": "0.0-136.0-0.0", "time_elapsed": 1781285, "key_press": -1, "trial_index": 190}, "uniqueid": "MTK2420:3LOZAJ85YEKJ94U1RXSPOX0VE0X2XM", "dateTime": 1517081511886}, {"current_trial": 191, "trialdata": {"rt": -1, "trial_type": "single-stim", "stimulus": "<p id=\"stim\">9</p>", "internal_node_id": "0.0-136.0-1.0", "time_elapsed": 1782287, "key_press": -1, "trial_index": 191}, "uniqueid": "MTK2420:3LOZAJ85YEKJ94U1RXSPOX0VE0X2XM", "dateTime": 1517081512888}, {"current_trial": 192, "trialdata": {"rt": -1, "trial_type": "single-stim", "stimulus": "<p id=\"stim\">8</p>", "internal_node_id": "0.0-136.0-2.0", "time_elapsed": 1783290, "key_press": -1, "trial_index": 192}, "uniqueid": "MTK2420:3LOZAJ85YEKJ94U1RXSPOX0VE0X2XM", "dateTime": 1517081513890}, {"current_trial": 193, "trialdata": {"rt": -1, "trial_type": "single-stim", "stimulus": "<p id=\"stim\">7</p>", "internal_node_id": "0.0-136.0-3.0", "time_elapsed": 1784292, "key_press": -1, "trial_index": 193}, "uniqueid": "MTK2420:3LOZAJ85YEKJ94U1RXSPOX0VE0X2XM", "dateTime": 1517081514892}, {"current_trial": 194, "trialdata": {"rt": -1, "trial_type": "single-stim", "stimulus": "<p id=\"stim\">6</p>", "internal_node_id": "0.0-136.0-4.0", "time_elapsed": 1785293, "key_press": -1, "trial_index": 194}, "uniqueid": "MTK2420:3LOZAJ85YEKJ94U1RXSPOX0VE0X2XM", "dateTime": 1517081515893}, {"current_trial": 195, "trialdata": {"rt": -1, "trial_type": "single-stim", "stimulus": "<p id=\"stim\">5</p>", "internal_node_id": "0.0-136.0-5.0", "time_elapsed": 1786294, "key_press": -1, "trial_index": 195}, "uniqueid": "MTK2420:3LOZAJ85YEKJ94U1RXSPOX0VE0X2XM", "dateTime": 1517081516894}, {"current_trial": 196, "trialdata": {"rt": -1, "trial_type": "single-stim", "stimulus": "<p id=\"stim\">4</p>", "internal_node_id": "0.0-136.0-6.0", "time_elapsed": 1787295, "key_press": -1, "trial_index": 196}, "uniqueid": "MTK2420:3LOZAJ85YEKJ94U1RXSPOX0VE0X2XM", "dateTime": 1517081517895}, {"current_trial": 197, "trialdata": {"rt": -1, "trial_type": "single-stim", "stimulus": "<p id=\"stim\">3</p>", "internal_node_id": "0.0-136.0-7.0", "time_elapsed": 1788296, "key_press": -1, "trial_index": 197}, "uniqueid": "MTK2420:3LOZAJ85YEKJ94U1RXSPOX0VE0X2XM", "dateTime": 1517081518896}, {"current_trial": 198, "trialdata": {"rt": -1, "trial_type": "single-stim", "stimulus": "<p id=\"stim\">2</p>", "internal_node_id": "0.0-136.0-8.0", "time_elapsed": 1789298, "key_press": -1, "trial_index": 198}, "uniqueid": "MTK2420:3LOZAJ85YEKJ94U1RXSPOX0VE0X2XM", "dateTime": 1517081519898}, {"current_trial": 199, "trialdata": {"rt": -1, "trial_type": "single-stim", "stimulus": "<p id=\"stim\">1</p>", "internal_node_id": "0.0-136.0-9.0", "time_elapsed": 1790299, "key_press": -1, "trial_index": 199}, "uniqueid": "MTK2420:3LOZAJ85YEKJ94U1RXSPOX0VE0X2XM", "dateTime": 1517081520899}, {"current_trial": 200, "trialdata": {"rt": -1, "trial_type": "single-stim", "stimulus": "<p id=\"stim\">+</p>", "internal_node_id": "0.0-137.0-0.0", "time_elapsed": 1791802, "key_press": -1, "type": "FIXATION", "trial_index": 200}, "uniqueid": "MTK2420:3LOZAJ85YEKJ94U1RXSPOX0VE0X2XM", "dateTime": 1517081522402}, {"current_trial": 201, "trialdata": {"rt": -1000, "trial_type": "single-audio", "word": "marsh", "stimulus": "/static/audio/wordpool/MARSH.wav", "conditions": [24, 800, "a", 12000], "internal_node_id": "0.0-138.0", "trial": 6, "time_elapsed": 1793602, "serialpos": 0, "key_press": -1, "wordID": 873, "type": "PRES_AUD", "trial_index": 201}, "uniqueid": "MTK2420:3LOZAJ85YEKJ94U1RXSPOX0VE0X2XM", "dateTime": 1517081524202}, {"current_trial": 202, "trialdata": {"rt": -1000, "trial_type": "single-audio", "word": "laser", "stimulus": "/static/audio/wordpool/LASER.wav", "conditions": [24, 800, "a", 12000], "internal_node_id": "0.0-139.0", "trial": 6, "time_elapsed": 1795458, "serialpos": 1, "key_press": -1, "wordID": 800, "type": "PRES_AUD", "trial_index": 202}, "uniqueid": "MTK2420:3LOZAJ85YEKJ94U1RXSPOX0VE0X2XM", "dateTime": 1517081526058}, {"current_trial": 203, "trialdata": {"rt": -1000, "trial_type": "single-audio", "word": "tweezers", "stimulus": "/static/audio/wordpool/TWEEZERS.wav", "conditions": [24, 800, "a", 12000], "internal_node_id": "0.0-140.0", "trial": 6, "time_elapsed": 1797080, "serialpos": 2, "key_press": -1, "wordID": 1525, "type": "PRES_AUD", "trial_index": 203}, "uniqueid": "MTK2420:3LOZAJ85YEKJ94U1RXSPOX0VE0X2XM", "dateTime": 1517081527681}, {"current_trial": 204, "trialdata": {"rt": -1000, "trial_type": "single-audio", "word": "trombone", "stimulus": "/static/audio/wordpool/TROMBONE.wav", "conditions": [24, 800, "a", 12000], "internal_node_id": "0.0-141.0", "trial": 6, "time_elapsed": 1799043, "serialpos": 3, "key_press": -1, "wordID": 1507, "type": "PRES_AUD", "trial_index": 204}, "uniqueid": "MTK2420:3LOZAJ85YEKJ94U1RXSPOX0VE0X2XM", "dateTime": 1517081529643}, {"current_trial": 205, "trialdata": {"rt": -1000, "trial_type": "single-audio", "word": "piano", "stimulus": "/static/audio/wordpool/PIANO.wav", "conditions": [24, 800, "a", 12000], "internal_node_id": "0.0-142.0", "trial": 6, "time_elapsed": 1800809, "serialpos": 4, "key_press": -1, "wordID": 1056, "type": "PRES_AUD", "trial_index": 205}, "uniqueid": "MTK2420:3LOZAJ85YEKJ94U1RXSPOX0VE0X2XM", "dateTime": 1517081531409}, {"current_trial": 206, "trialdata": {"rt": -1000, "trial_type": "single-audio", "word": "wrist", "stimulus": "/static/audio/wordpool/WRIST.wav", "conditions": [24, 800, "a", 12000], "internal_node_id": "0.0-143.0", "trial": 6, "time_elapsed": 1802420, "serialpos": 5, "key_press": -1, "wordID": 1625, "type": "PRES_AUD", "trial_index": 206}, "uniqueid": "MTK2420:3LOZAJ85YEKJ94U1RXSPOX0VE0X2XM", "dateTime": 1517081533020}, {"current_trial": 207, "trialdata": {"rt": -1000, "trial_type": "single-audio", "word": "drink", "stimulus": "/static/audio/wordpool/DRINK.wav", "conditions": [24, 800, "a", 12000], "internal_node_id": "0.0-144.0", "trial": 6, "time_elapsed": 1804181, "serialpos": 6, "key_press": -1, "wordID": 497, "type": "PRES_AUD", "trial_index": 207}, "uniqueid": "MTK2420:3LOZAJ85YEKJ94U1RXSPOX0VE0X2XM", "dateTime": 1517081534781}, {"current_trial": 208, "trialdata": {"rt": -1000, "trial_type": "single-audio", "word": "washer", "stimulus": "/static/audio/wordpool/WASHER.wav", "conditions": [24, 800, "a", 12000], "internal_node_id": "0.0-145.0", "trial": 6, "time_elapsed": 1805822, "serialpos": 7, "key_press": -1, "wordID": 1591, "type": "PRES_AUD", "trial_index": 208}, "uniqueid": "MTK2420:3LOZAJ85YEKJ94U1RXSPOX0VE0X2XM", "dateTime": 1517081536422}, {"current_trial": 209, "trialdata": {"rt": -1000, "trial_type": "single-audio", "word": "suspect", "stimulus": "/static/audio/wordpool/SUSPECT.wav", "conditions": [24, 800, "a", 12000], "internal_node_id": "0.0-146.0", "trial": 6, "time_elapsed": 1807624, "serialpos": 8, "key_press": -1, "wordID": 1414, "type": "PRES_AUD", "trial_index": 209}, "uniqueid": "MTK2420:3LOZAJ85YEKJ94U1RXSPOX0VE0X2XM", "dateTime": 1517081538224}, {"current_trial": 210, "trialdata": {"rt": -1000, "trial_type": "single-audio", "word": "scarf", "stimulus": "/static/audio/wordpool/SCARF.wav", "conditions": [24, 800, "a", 12000], "internal_node_id": "0.0-147.0", "trial": 6, "time_elapsed": 1809256, "serialpos": 9, "key_press": -1, "wordID": 1245, "type": "PRES_AUD", "trial_index": 210}, "uniqueid": "MTK2420:3LOZAJ85YEKJ94U1RXSPOX0VE0X2XM", "dateTime": 1517081539856}, {"current_trial": 211, "trialdata": {"rt": -1000, "trial_type": "single-audio", "word": "baby", "stimulus": "/static/audio/wordpool/BABY.wav", "conditions": [24, 800, "a", 12000], "internal_node_id": "0.0-148.0", "trial": 6, "time_elapsed": 1811173, "serialpos": 10, "key_press": -1, "wordID": 63, "type": "PRES_AUD", "trial_index": 211}, "uniqueid": "MTK2420:3LOZAJ85YEKJ94U1RXSPOX0VE0X2XM", "dateTime": 1517081541773}, {"current_trial": 212, "trialdata": {"rt": -1000, "trial_type": "single-audio", "word": "ankle", "stimulus": "/static/audio/wordpool/ANKLE.wav", "conditions": [24, 800, "a", 12000], "internal_node_id": "0.0-149.0", "trial": 6, "time_elapsed": 1812905, "serialpos": 11, "key_press": -1, "wordID": 23, "type": "PRES_AUD", "trial_index": 212}, "uniqueid": "MTK2420:3LOZAJ85YEKJ94U1RXSPOX0VE0X2XM", "dateTime": 1517081543505}, {"current_trial": 213, "trialdata": {"rt": -1000, "trial_type": "single-audio", "word": "football", "stimulus": "/static/audio/wordpool/FOOTBALL.wav", "conditions": [24, 800, "a", 12000], "internal_node_id": "0.0-150.0", "trial": 6, "time_elapsed": 1814565, "serialpos": 12, "key_press": -1, "wordID": 590, "type": "PRES_AUD", "trial_index": 213}, "uniqueid": "MTK2420:3LOZAJ85YEKJ94U1RXSPOX0VE0X2XM", "dateTime": 1517081545165}, {"current_trial": 214, "trialdata": {"rt": -1000, "trial_type": "single-audio", "word": "dress", "stimulus": "/static/audio/wordpool/DRESS.wav", "conditions": [24, 800, "a", 12000], "internal_node_id": "0.0-151.0", "trial": 6, "time_elapsed": 1816363, "serialpos": 13, "key_press": -1, "wordID": 494, "type": "PRES_AUD", "trial_index": 214}, "uniqueid": "MTK2420:3LOZAJ85YEKJ94U1RXSPOX0VE0X2XM", "dateTime": 1517081546963}, {"current_trial": 215, "trialdata": {"rt": -1000, "trial_type": "single-audio", "word": "spider", "stimulus": "/static/audio/wordpool/SPIDER.wav", "conditions": [24, 800, "a", 12000], "internal_node_id": "0.0-152.0", "trial": 6, "time_elapsed": 1818073, "serialpos": 14, "key_press": -1, "wordID": 1350, "type": "PRES_AUD", "trial_index": 215}, "uniqueid": "MTK2420:3LOZAJ85YEKJ94U1RXSPOX0VE0X2XM", "dateTime": 1517081548674}, {"current_trial": 216, "trialdata": {"rt": -1000, "trial_type": "single-audio", "word": "cocktail", "stimulus": "/static/audio/wordpool/COCKTAIL.wav", "conditions": [24, 800, "a", 12000], "internal_node_id": "0.0-153.0", "trial": 6, "time_elapsed": 1819795, "serialpos": 15, "key_press": -1, "wordID": 337, "type": "PRES_AUD", "trial_index": 216}, "uniqueid": "MTK2420:3LOZAJ85YEKJ94U1RXSPOX0VE0X2XM", "dateTime": 1517081550395}, {"current_trial": 217, "trialdata": {"rt": -1000, "trial_type": "single-audio", "word": "tablet", "stimulus": "/static/audio/wordpool/TABLET.wav", "conditions": [24, 800, "a", 12000], "internal_node_id": "0.0-154.0", "trial": 6, "time_elapsed": 1821622, "serialpos": 16, "key_press": -1, "wordID": 1426, "type": "PRES_AUD", "trial_index": 217}, "uniqueid": "MTK2420:3LOZAJ85YEKJ94U1RXSPOX0VE0X2XM", "dateTime": 1517081552222}, {"current_trial": 218, "trialdata": {"rt": -1000, "trial_type": "single-audio", "word": "wasp", "stimulus": "/static/audio/wordpool/WASP.wav", "conditions": [24, 800, "a", 12000], "internal_node_id": "0.0-155.0", "trial": 6, "time_elapsed": 1823565, "serialpos": 17, "key_press": -1, "wordID": 1592, "type": "PRES_AUD", "trial_index": 218}, "uniqueid": "MTK2420:3LOZAJ85YEKJ94U1RXSPOX0VE0X2XM", "dateTime": 1517081554165}, {"current_trial": 219, "trialdata": {"rt": -1000, "trial_type": "single-audio", "word": "spool", "stimulus": "/static/audio/wordpool/SPOOL.wav", "conditions": [24, 800, "a", 12000], "internal_node_id": "0.0-156.0", "trial": 6, "time_elapsed": 1825444, "serialpos": 18, "key_press": -1, "wordID": 1355, "type": "PRES_AUD", "trial_index": 219}, "uniqueid": "MTK2420:3LOZAJ85YEKJ94U1RXSPOX0VE0X2XM", "dateTime": 1517081556044}, {"current_trial": 220, "trialdata": {"rt": -1000, "trial_type": "single-audio", "word": "clock", "stimulus": "/static/audio/wordpool/CLOCK.wav", "conditions": [24, 800, "a", 12000], "internal_node_id": "0.0-157.0", "trial": 6, "time_elapsed": 1827138, "serialpos": 19, "key_press": -1, "wordID": 324, "type": "PRES_AUD", "trial_index": 220}, "uniqueid": "MTK2420:3LOZAJ85YEKJ94U1RXSPOX0VE0X2XM", "dateTime": 1517081557738}, {"current_trial": 221, "trialdata": {"rt": -1000, "trial_type": "single-audio", "word": "outfit", "stimulus": "/static/audio/wordpool/OUTFIT.wav", "conditions": [24, 800, "a", 12000], "internal_node_id": "0.0-158.0", "trial": 6, "time_elapsed": 1829130, "serialpos": 20, "key_press": -1, "wordID": 987, "type": "PRES_AUD", "trial_index": 221}, "uniqueid": "MTK2420:3LOZAJ85YEKJ94U1RXSPOX0VE0X2XM", "dateTime": 1517081559731}, {"current_trial": 222, "trialdata": {"rt": -1000, "trial_type": "single-audio", "word": "cobra", "stimulus": "/static/audio/wordpool/COBRA.wav", "conditions": [24, 800, "a", 12000], "internal_node_id": "0.0-159.0", "trial": 6, "time_elapsed": 1831076, "serialpos": 21, "key_press": -1, "wordID": 335, "type": "PRES_AUD", "trial_index": 222}, "uniqueid": "MTK2420:3LOZAJ85YEKJ94U1RXSPOX0VE0X2XM", "dateTime": 1517081561677}, {"current_trial": 223, "trialdata": {"rt": -1000, "trial_type": "single-audio", "word": "plaza", "stimulus": "/static/audio/wordpool/PLAZA.wav", "conditions": [24, 800, "a", 12000], "internal_node_id": "0.0-160.0", "trial": 6, "time_elapsed": 1832749, "serialpos": 22, "key_press": -1, "wordID": 1087, "type": "PRES_AUD", "trial_index": 223}, "uniqueid": "MTK2420:3LOZAJ85YEKJ94U1RXSPOX0VE0X2XM", "dateTime": 1517081563349}, {"current_trial": 224, "trialdata": {"rt": -1000, "trial_type": "single-audio", "word": "sidewalk", "stimulus": "/static/audio/wordpool/SIDEWALK.wav", "conditions": [24, 800, "a", 12000], "internal_node_id": "0.0-161.0", "trial": 6, "time_elapsed": 1834581, "serialpos": 23, "key_press": -1, "wordID": 1302, "type": "PRES_AUD", "trial_index": 224}, "uniqueid": "MTK2420:3LOZAJ85YEKJ94U1RXSPOX0VE0X2XM", "dateTime": 1517081565181}, {"current_trial": 225, "trialdata": {"rt": -1, "trial_type": "single-stim", "stimulus": "", "internal_node_id": "0.0-162.0-0.0", "time_elapsed": 1835907, "key_press": -1, "type": "PRE_RECALL_DELAY", "trial_index": 225}, "uniqueid": "MTK2420:3LOZAJ85YEKJ94U1RXSPOX0VE0X2XM", "dateTime": 1517081566507}, {"current_trial": 226, "trialdata": {"rt": -1000, "trial_type": "single-audio", "stimulus": "/static/audio/400Hz.wav", "internal_node_id": "0.0-163.0", "time_elapsed": 1836408, "key_press": -1, "type": "PRE_RECALL_ALERT", "trial_index": 226}, "uniqueid": "MTK2420:3LOZAJ85YEKJ94U1RXSPOX0VE0X2XM", "dateTime": 1517081567008}, {"current_trial": 227, "trialdata": {"rt": [4405, 7549, 14285, 19285], "recwords": ["marsh", "cobra", "sidewalk", "quasi"], "key_times": [1790, 1894, 2397, 2709, 3252, 4405, 5477, 5805, 6446, 6733, 7149, 7549, 8244, 8589, 9646, 9813, 10157, 10446, 12695, 13869, 14285, 15749, 17149, 17318, 17565, 18165, 19285, 33511, 33932, 34389, 34589, 35310, 35557, 35829, 36219], "trial_type": "free-recall", "conditions": [24, 800, "a", 12000], "internal_node_id": "0.0-164.0-0.0", "key_presses": [77, 65, 82, 83, 72, 32, 67, 79, 66, 82, 65, 32, 83, 73, 68, 69, 87, 65, 76, 75, 32, 81, 85, 65, 83, 73, 32, 83, 73, 68, 69, 87, 65, 76, 75], "trial": 6, "time_elapsed": 1896412, "type": "FREE_RECALL", "trial_index": 227}, "uniqueid": "MTK2420:3LOZAJ85YEKJ94U1RXSPOX0VE0X2XM", "dateTime": 1517081627029}, {"current_trial": 228, "trialdata": {"rt": 2074, "trial_type": "text", "internal_node_id": "0.0-165.0", "time_elapsed": 1900503, "key_press": 32, "type": "INSTRUCTIONS", "trial_index": 228}, "uniqueid": "MTK2420:3LOZAJ85YEKJ94U1RXSPOX0VE0X2XM", "dateTime": 1517081631104}, {"current_trial": 229, "trialdata": {"rt": [3515, 7539, 10827], "trial_type": "math-distractor", "key_times": [3045, 3515, 6844, 7100, 7539, 9675, 10332, 10827], "responses": ["9", "21", "18"], "num2": [1, 6, 3, 9], "num3": [5, 8, 6, 9], "conditions": [12, 800, "a", 12000], "internal_node_id": "0.0-166.0", "key_presses": [105, 13, 98, 97, 13, 97, 104, 13], "trial": 7, "time_elapsed": 1914509, "type": "DISTRACTOR", "trial_index": 229, "num1": [3, 7, 9, 2]}, "uniqueid": "MTK2420:3LOZAJ85YEKJ94U1RXSPOX0VE0X2XM", "dateTime": 1517081645110}, {"current_trial": 230, "trialdata": {"rt": -1, "trial_type": "single-stim", "stimulus": "<p id=\"stim\">10</p>", "internal_node_id": "0.0-167.0-0.0", "time_elapsed": 1917511, "key_press": -1, "trial_index": 230}, "uniqueid": "MTK2420:3LOZAJ85YEKJ94U1RXSPOX0VE0X2XM", "dateTime": 1517081648112}, {"current_trial": 231, "trialdata": {"rt": -1, "trial_type": "single-stim", "stimulus": "<p id=\"stim\">9</p>", "internal_node_id": "0.0-167.0-1.0", "time_elapsed": 1918512, "key_press": -1, "trial_index": 231}, "uniqueid": "MTK2420:3LOZAJ85YEKJ94U1RXSPOX0VE0X2XM", "dateTime": 1517081649112}, {"current_trial": 232, "trialdata": {"rt": -1, "trial_type": "single-stim", "stimulus": "<p id=\"stim\">8</p>", "internal_node_id": "0.0-167.0-2.0", "time_elapsed": 1919513, "key_press": -1, "trial_index": 232}, "uniqueid": "MTK2420:3LOZAJ85YEKJ94U1RXSPOX0VE0X2XM", "dateTime": 1517081650114}, {"current_trial": 233, "trialdata": {"rt": -1, "trial_type": "single-stim", "stimulus": "<p id=\"stim\">7</p>", "internal_node_id": "0.0-167.0-3.0", "time_elapsed": 1920514, "key_press": -1, "trial_index": 233}, "uniqueid": "MTK2420:3LOZAJ85YEKJ94U1RXSPOX0VE0X2XM", "dateTime": 1517081651115}, {"current_trial": 234, "trialdata": {"rt": -1, "trial_type": "single-stim", "stimulus": "<p id=\"stim\">6</p>", "internal_node_id": "0.0-167.0-4.0", "time_elapsed": 1921518, "key_press": -1, "trial_index": 234}, "uniqueid": "MTK2420:3LOZAJ85YEKJ94U1RXSPOX0VE0X2XM", "dateTime": 1517081652118}, {"current_trial": 235, "trialdata": {"rt": -1, "trial_type": "single-stim", "stimulus": "<p id=\"stim\">5</p>", "internal_node_id": "0.0-167.0-5.0", "time_elapsed": 1922521, "key_press": -1, "trial_index": 235}, "uniqueid": "MTK2420:3LOZAJ85YEKJ94U1RXSPOX0VE0X2XM", "dateTime": 1517081653122}, {"current_trial": 236, "trialdata": {"rt": -1, "trial_type": "single-stim", "stimulus": "<p id=\"stim\">4</p>", "internal_node_id": "0.0-167.0-6.0", "time_elapsed": 1923523, "key_press": -1, "trial_index": 236}, "uniqueid": "MTK2420:3LOZAJ85YEKJ94U1RXSPOX0VE0X2XM", "dateTime": 1517081654131}, {"current_trial": 237, "trialdata": {"rt": -1, "trial_type": "single-stim", "stimulus": "<p id=\"stim\">3</p>", "internal_node_id": "0.0-167.0-7.0", "time_elapsed": 1924536, "key_press": -1, "trial_index": 237}, "uniqueid": "MTK2420:3LOZAJ85YEKJ94U1RXSPOX0VE0X2XM", "dateTime": 1517081655136}, {"current_trial": 238, "trialdata": {"rt": -1, "trial_type": "single-stim", "stimulus": "<p id=\"stim\">2</p>", "internal_node_id": "0.0-167.0-8.0", "time_elapsed": 1925538, "key_press": -1, "trial_index": 238}, "uniqueid": "MTK2420:3LOZAJ85YEKJ94U1RXSPOX0VE0X2XM", "dateTime": 1517081656138}, {"current_trial": 239, "trialdata": {"rt": -1, "trial_type": "single-stim", "stimulus": "<p id=\"stim\">1</p>", "internal_node_id": "0.0-167.0-9.0", "time_elapsed": 1926540, "key_press": -1, "trial_index": 239}, "uniqueid": "MTK2420:3LOZAJ85YEKJ94U1RXSPOX0VE0X2XM", "dateTime": 1517081657140}, {"current_trial": 240, "trialdata": {"rt": -1, "trial_type": "single-stim", "stimulus": "<p id=\"stim\">+</p>", "internal_node_id": "0.0-168.0-0.0", "time_elapsed": 1928043, "key_press": -1, "type": "FIXATION", "trial_index": 240}, "uniqueid": "MTK2420:3LOZAJ85YEKJ94U1RXSPOX0VE0X2XM", "dateTime": 1517081658643}, {"current_trial": 241, "trialdata": {"rt": -1000, "trial_type": "single-audio", "word": "garden", "stimulus": "/static/audio/wordpool/GARDEN.wav", "conditions": [12, 800, "a", 12000], "internal_node_id": "0.0-169.0", "trial": 7, "time_elapsed": 1929699, "serialpos": 0, "key_press": -1, "wordID": 622, "type": "PRES_AUD", "trial_index": 241}, "uniqueid": "MTK2420:3LOZAJ85YEKJ94U1RXSPOX0VE0X2XM", "dateTime": 1517081660299}, {"current_trial": 242, "trialdata": {"rt": -1000, "trial_type": "single-audio", "word": "coin", "stimulus": "/static/audio/wordpool/COIN.wav", "conditions": [12, 800, "a", 12000], "internal_node_id": "0.0-170.0", "trial": 7, "time_elapsed": 1931305, "serialpos": 1, "key_press": -1, "wordID": 342, "type": "PRES_AUD", "trial_index": 242}, "uniqueid": "MTK2420:3LOZAJ85YEKJ94U1RXSPOX0VE0X2XM", "dateTime": 1517081661906}, {"current_trial": 243, "trialdata": {"rt": -1000, "trial_type": "single-audio", "word": "nightgown", "stimulus": "/static/audio/wordpool/NIGHTGOWN.wav", "conditions": [12, 800, "a", 12000], "internal_node_id": "0.0-171.0", "trial": 7, "time_elapsed": 1933062, "serialpos": 2, "key_press": -1, "wordID": 952, "type": "PRES_AUD", "trial_index": 243}, "uniqueid": "MTK2420:3LOZAJ85YEKJ94U1RXSPOX0VE0X2XM", "dateTime": 1517081663662}, {"current_trial": 244, "trialdata": {"rt": -1000, "trial_type": "single-audio", "word": "milk", "stimulus": "/static/audio/wordpool/MILK.wav", "conditions": [12, 800, "a", 12000], "internal_node_id": "0.0-172.0", "trial": 7, "time_elapsed": 1934734, "serialpos": 3, "key_press": -1, "wordID": 894, "type": "PRES_AUD", "trial_index": 244}, "uniqueid": "MTK2420:3LOZAJ85YEKJ94U1RXSPOX0VE0X2XM", "dateTime": 1517081665334}, {"current_trial": 245, "trialdata": {"rt": -1000, "trial_type": "single-audio", "word": "honey", "stimulus": "/static/audio/wordpool/HONEY.wav", "conditions": [12, 800, "a", 12000], "internal_node_id": "0.0-173.0", "trial": 7, "time_elapsed": 1936535, "serialpos": 4, "key_press": -1, "wordID": 712, "type": "PRES_AUD", "trial_index": 245}, "uniqueid": "MTK2420:3LOZAJ85YEKJ94U1RXSPOX0VE0X2XM", "dateTime": 1517081667135}, {"current_trial": 246, "trialdata": {"rt": -1000, "trial_type": "single-audio", "word": "hand", "stimulus": "/static/audio/wordpool/HAND.wav", "conditions": [12, 800, "a", 12000], "internal_node_id": "0.0-174.0", "trial": 7, "time_elapsed": 1938391, "serialpos": 5, "key_press": -1, "wordID": 682, "type": "PRES_AUD", "trial_index": 246}, "uniqueid": "MTK2420:3LOZAJ85YEKJ94U1RXSPOX0VE0X2XM", "dateTime": 1517081668991}, {"current_trial": 247, "trialdata": {"rt": -1000, "trial_type": "single-audio", "word": "parsley", "stimulus": "/static/audio/wordpool/PARSLEY.wav", "conditions": [12, 800, "a", 12000], "internal_node_id": "0.0-175.0", "trial": 7, "time_elapsed": 1940277, "serialpos": 6, "key_press": -1, "wordID": 1015, "type": "PRES_AUD", "trial_index": 247}, "uniqueid": "MTK2420:3LOZAJ85YEKJ94U1RXSPOX0VE0X2XM", "dateTime": 1517081670878}, {"current_trial": 248, "trialdata": {"rt": -1000, "trial_type": "single-audio", "word": "blouse", "stimulus": "/static/audio/wordpool/BLOUSE.wav", "conditions": [12, 800, "a", 12000], "internal_node_id": "0.0-176.0", "trial": 7, "time_elapsed": 1941924, "serialpos": 7, "key_press": -1, "wordID": 138, "type": "PRES_AUD", "trial_index": 248}, "uniqueid": "MTK2420:3LOZAJ85YEKJ94U1RXSPOX0VE0X2XM", "dateTime": 1517081672524}, {"current_trial": 249, "trialdata": {"rt": -1000, "trial_type": "single-audio", "word": "shovel", "stimulus": "/static/audio/wordpool/SHOVEL.wav", "conditions": [12, 800, "a", 12000], "internal_node_id": "0.0-177.0", "trial": 7, "time_elapsed": 1943792, "serialpos": 8, "key_press": -1, "wordID": 1294, "type": "PRES_AUD", "trial_index": 249}, "uniqueid": "MTK2420:3LOZAJ85YEKJ94U1RXSPOX0VE0X2XM", "dateTime": 1517081674392}, {"current_trial": 250, "trialdata": {"rt": -1000, "trial_type": "single-audio", "word": "blender", "stimulus": "/static/audio/wordpool/BLENDER.wav", "conditions": [12, 800, "a", 12000], "internal_node_id": "0.0-178.0", "trial": 7, "time_elapsed": 1945497, "serialpos": 9, "key_press": -1, "wordID": 135, "type": "PRES_AUD", "trial_index": 250}, "uniqueid": "MTK2420:3LOZAJ85YEKJ94U1RXSPOX0VE0X2XM", "dateTime": 1517081676097}, {"current_trial": 251, "trialdata": {"rt": -1000, "trial_type": "single-audio", "word": "switch", "stimulus": "/static/audio/wordpool/SWITCH.wav", "conditions": [12, 800, "a", 12000], "internal_node_id": "0.0-179.0", "trial": 7, "time_elapsed": 1947140, "serialpos": 10, "key_press": -1, "wordID": 1421, "type": "PRES_AUD", "trial_index": 251}, "uniqueid": "MTK2420:3LOZAJ85YEKJ94U1RXSPOX0VE0X2XM", "dateTime": 1517081677740}, {"current_trial": 252, "trialdata": {"rt": -1000, "trial_type": "single-audio", "word": "twister", "stimulus": "/static/audio/wordpool/TWISTER.wav", "conditions": [12, 800, "a", 12000], "internal_node_id": "0.0-180.0", "trial": 7, "time_elapsed": 1948900, "serialpos": 11, "key_press": -1, "wordID": 1529, "type": "PRES_AUD", "trial_index": 252}, "uniqueid": "MTK2420:3LOZAJ85YEKJ94U1RXSPOX0VE0X2XM", "dateTime": 1517081679500}, {"current_trial": 253, "trialdata": {"rt": -1, "trial_type": "single-stim", "stimulus": "", "internal_node_id": "0.0-181.0-0.0", "time_elapsed": 1950220, "key_press": -1, "type": "PRE_RECALL_DELAY", "trial_index": 253}, "uniqueid": "MTK2420:3LOZAJ85YEKJ94U1RXSPOX0VE0X2XM", "dateTime": 1517081680