{"assignmentId": "3VW04L3ZLUDKAKXYFMDIENURSW2XX7", "workerId": "MTK2613", "questiondata": {"origin": "United States", "strat-rehearsal": "25", "marital": "Single", "education": "Associate degree", "ethnicity": "Not Hispanic", "color_depth": 24, "distracted": "No", "wrote-notes": "No", "strat-other": "I would start by imagining the first word, and then using the second word to create a scene. For example, guitar, then brandy, which I would imagine the guitar leaning against a barstool, and a glass of brandy on the bar, and then each word I would place the picture of that somewhere in my scene. I also would imagine items lying around my house, couch, curtain, etc..", "screen_width": 3440, "avail_screen_width": 3440, "avail_screen_height": 1400, "strat-image": "100", "language": "English", "gender": "Female", "age": "44", "gender_other": "", "race": [], "strat-categorize": "25", "pixel_depth": 24, "strat-spatial": "86", "strat-story": "53", "race_other": "", "screen_height": 1440}, "bonus": 0, "hitId": "33NOQL7T9O6HDUYBIUK96PXPPIB8ZM", "counterbalance": 2789, "useragent": "Mozilla/5.0 (Windows NT 10.0; Win64; x64) AppleWebKit/537.36 (KHTML, like Gecko) Chrome/63.0.3239.132 Safari/537.36", "eventdata": [{"eventtype": "initialized", "interval": 0, "value": null, "timestamp": 1519155098348}, {"eventtype": "window_resize", "interval": 0, "value": [2752, 1114], "timestamp": 1519155098348}, {"eventtype": "focus", "interval": 11329, "value": "off", "timestamp": 1519155109677}, {"eventtype": "focus", "interval": 2193, "value": "on", "timestamp": 1519155111870}], "data": [{"current_trial": 0, "trialdata": {"rt": 2618, "trial_type": "text", "internal_node_id": "0.0-0.0", "time_elapsed": 2620, "key_press": 32, "type": "INSTRUCTIONS", "trial_index": 0}, "uniqueid": "MTK2613:3VW04L3ZLUDKAKXYFMDIENURSW2XX7", "dateTime": 1519155124416}, {"current_trial": 1, "trialdata": {"rt": 38150, "trial_type": "text", "internal_node_id": "0.0-1.0", "time_elapsed": 40771, "key_press": 32, "type": "INSTRUCTIONS", "trial_index": 1}, "uniqueid": "MTK2613:3VW04L3ZLUDKAKXYFMDIENURSW2XX7", "dateTime": 1519155162566}, {"current_trial": 2, "trialdata": {"rt": [16417], "trial_type": "audio-test", "responses": ["ocean"], "internal_node_id": "0.0-2.0", "time_elapsed": 57194, "type": "AUDIO_TEST", "trial_index": 2}, "uniqueid": "MTK2613:3VW04L3ZLUDKAKXYFMDIENURSW2XX7", "dateTime": 1519155178989}, {"current_trial": 3, "trialdata": {"rt": [6712], "trial_type": "audio-test", "responses": ["crystal"], "internal_node_id": "0.0-3.0", "time_elapsed": 63909, "type": "AUDIO_TEST", "trial_index": 3}, "uniqueid": "MTK2613:3VW04L3ZLUDKAKXYFMDIENURSW2XX7", "dateTime": 1519155185704}, {"current_trial": 4, "trialdata": {"rt": [8404], "trial_type": "audio-test", "responses": ["spice"], "internal_node_id": "0.0-4.0", "time_elapsed": 72316, "type": "AUDIO_TEST", "trial_index": 4}, "uniqueid": "MTK2613:3VW04L3ZLUDKAKXYFMDIENURSW2XX7", "dateTime": 1519155194111}, {"current_trial": 5, "trialdata": {"rt": 40028, "trial_type": "survey-text", "responses": "{\"Q0\":\"10:30 p.m.\",\"Q1\":\"7:00 a.m.\",\"Q2\":\"7\"}", "internal_node_id": "0.0-5.0", "time_elapsed": 113095, "type": "SLEEP_SURVEY", "trial_index": 5}, "uniqueid": "MTK2613:3VW04L3ZLUDKAKXYFMDIENURSW2XX7", "dateTime": 1519155234890}, {"current_trial": 6, "trialdata": {"rt": 54387, "trial_type": "text", "internal_node_id": "0.0-6.0", "time_elapsed": 168483, "key_press": 32, "type": "INSTRUCTIONS", "trial_index": 6}, "uniqueid": "MTK2613:3VW04L3ZLUDKAKXYFMDIENURSW2XX7", "dateTime": 1519155290278}, {"current_trial": 7, "trialdata": {"rt": 18363, "trial_type": "text", "internal_node_id": "0.0-7.0", "time_elapsed": 187347, "key_press": 32, "type": "INSTRUCTIONS", "trial_index": 7}, "uniqueid": "MTK2613:3VW04L3ZLUDKAKXYFMDIENURSW2XX7", "dateTime": 1519155309142}, {"current_trial": 8, "trialdata": {"rt": 111567, "trial_type": "text", "internal_node_id": "0.0-8.0", "time_elapsed": 299415, "key_press": 32, "type": "INSTRUCTIONS", "trial_index": 8}, "uniqueid": "MTK2613:3VW04L3ZLUDKAKXYFMDIENURSW2XX7", "dateTime": 1519155421210}, {"current_trial": 9, "trialdata": {"rt": [4951, 7352, 9855, 12032, 15807], "trial_type": "math-distractor", "key_times": [4198, 4214, 4951, 7006, 7022, 7352, 9494, 9543, 9855, 11765, 12032, 15366, 15549, 15807, 17694, 17855], "responses": ["13", "13", "10", "4", "16"], "num2": [4, 7, 3, 1, 6, 2], "num3": [4, 4, 4, 2, 3, 2], "conditions": [18, 1200, "a", 18000], "internal_node_id": "0.0-9.0", "key_presses": [97, 99, 13, 97, 99, 13, 97, 96, 13, 100, 13, 97, 102, 13, 97, 96], "trial": 0, "time_elapsed": 318420, "type": "DISTRACTOR", "trial_index": 9, "num1": [5, 2, 3, 1, 7, 6]}, "uniqueid": "MTK2613:3VW04L3ZLUDKAKXYFMDIENURSW2XX7", "dateTime": 1519155440215}, {"current_trial": 10, "trialdata": {"rt": -1, "trial_type": "single-stim", "stimulus": "<p id=\"stim\">10</p>", "internal_node_id": "0.0-10.0-0.0", "time_elapsed": 321423, "key_press": -1, "trial_index": 10}, "uniqueid": "MTK2613:3VW04L3ZLUDKAKXYFMDIENURSW2XX7", "dateTime": 1519155443218}, {"current_trial": 11, "trialdata": {"rt": -1, "trial_type": "single-stim", "stimulus": "<p id=\"stim\">9</p>", "internal_node_id": "0.0-10.0-1.0", "time_elapsed": 322424, "key_press": -1, "trial_index": 11}, "uniqueid": "MTK2613:3VW04L3ZLUDKAKXYFMDIENURSW2XX7", "dateTime": 1519155444219}, {"current_trial": 12, "trialdata": {"rt": -1, "trial_type": "single-stim", "stimulus": "<p id=\"stim\">8</p>", "internal_node_id": "0.0-10.0-2.0", "time_elapsed": 323427, "key_press": -1, "trial_index": 12}, "uniqueid": "MTK2613:3VW04L3ZLUDKAKXYFMDIENURSW2XX7", "dateTime": 1519155445222}, {"current_trial": 13, "trialdata": {"rt": -1, "trial_type": "single-stim", "stimulus": "<p id=\"stim\">7</p>", "internal_node_id": "0.0-10.0-3.0", "time_elapsed": 324429, "key_press": -1, "trial_index": 13}, "uniqueid": "MTK2613:3VW04L3ZLUDKAKXYFMDIENURSW2XX7", "dateTime": 1519155446224}, {"current_trial": 14, "trialdata": {"rt": -1, "trial_type": "single-stim", "stimulus": "<p id=\"stim\">6</p>", "internal_node_id": "0.0-10.0-4.0", "time_elapsed": 325430, "key_press": -1, "trial_index": 14}, "uniqueid": "MTK2613:3VW04L3ZLUDKAKXYFMDIENURSW2XX7", "dateTime": 1519155447225}, {"current_trial": 15, "trialdata": {"rt": -1, "trial_type": "single-stim", "stimulus": "<p id=\"stim\">5</p>", "internal_node_id": "0.0-10.0-5.0", "time_elapsed": 326431, "key_press": -1, "trial_index": 15}, "uniqueid": "MTK2613:3VW04L3ZLUDKAKXYFMDIENURSW2XX7", "dateTime": 1519155448226}, {"current_trial": 16, "trialdata": {"rt": -1, "trial_type": "single-stim", "stimulus": "<p id=\"stim\">4</p>", "internal_node_id": "0.0-10.0-6.0", "time_elapsed": 327432, "key_press": -1, "trial_index": 16}, "uniqueid": "MTK2613:3VW04L3ZLUDKAKXYFMDIENURSW2XX7", "dateTime": 1519155449227}, {"current_trial": 17, "trialdata": {"rt": -1, "trial_type": "single-stim", "stimulus": "<p id=\"stim\">3</p>", "internal_node_id": "0.0-10.0-7.0", "time_elapsed": 328433, "key_press": -1, "trial_index": 17}, "uniqueid": "MTK2613:3VW04L3ZLUDKAKXYFMDIENURSW2XX7", "dateTime": 1519155450228}, {"current_trial": 18, "trialdata": {"rt": -1, "trial_type": "single-stim", "stimulus": "<p id=\"stim\">2</p>", "internal_node_id": "0.0-10.0-8.0", "time_elapsed": 329434, "key_press": -1, "trial_index": 18}, "uniqueid": "MTK2613:3VW04L3ZLUDKAKXYFMDIENURSW2XX7", "dateTime": 1519155451229}, {"current_trial": 19, "trialdata": {"rt": -1, "trial_type": "single-stim", "stimulus": "<p id=\"stim\">1</p>", "internal_node_id": "0.0-10.0-9.0", "time_elapsed": 330436, "key_press": -1, "trial_index": 19}, "uniqueid": "MTK2613:3VW04L3ZLUDKAKXYFMDIENURSW2XX7", "dateTime": 1519155452231}, {"current_trial": 20, "trialdata": {"rt": -1, "trial_type": "single-stim", "stimulus": "<p id=\"stim\">+</p>", "internal_node_id": "0.0-11.0-0.0", "time_elapsed": 331937, "key_press": -1, "type": "FIXATION", "trial_index": 20}, "uniqueid": "MTK2613:3VW04L3ZLUDKAKXYFMDIENURSW2XX7", "dateTime": 1519155453732}, {"current_trial": 21, "trialdata": {"rt": 1609.333333333268, "trial_type": "single-audio", "word": "plaid", "stimulus": "/static/audio/wordpool/PLAID.wav", "conditions": [18, 1200, "a", 18000], "internal_node_id": "0.0-12.0", "trial": 0, "time_elapsed": 334068, "serialpos": 0, "key_press": 175, "wordID": 1079, "type": "PRES_AUD", "trial_index": 21}, "uniqueid": "MTK2613:3VW04L3ZLUDKAKXYFMDIENURSW2XX7", "dateTime": 1519155455863}, {"current_trial": 22, "trialdata": {"rt": -1.333333333320752, "trial_type": "single-audio", "word": "rust", "stimulus": "/static/audio/wordpool/RUST.wav", "conditions": [18, 1200, "a", 18000], "internal_node_id": "0.0-13.0", "trial": 0, "time_elapsed": 336121, "serialpos": 1, "key_press": 175, "wordID": 1218, "type": "PRES_AUD", "trial_index": 22}, "uniqueid": "MTK2613:3VW04L3ZLUDKAKXYFMDIENURSW2XX7", "dateTime": 1519155457916}, {"current_trial": 23, "trialdata": {"rt": -1000, "trial_type": "single-audio", "word": "receipt", "stimulus": "/static/audio/wordpool/RECEIPT.wav", "conditions": [18, 1200, "a", 18000], "internal_node_id": "0.0-14.0", "trial": 0, "time_elapsed": 338516, "serialpos": 2, "key_press": -1, "wordID": 1172, "type": "PRES_AUD", "trial_index": 23}, "uniqueid": "MTK2613:3VW04L3ZLUDKAKXYFMDIENURSW2XX7", "dateTime": 1519155460311}, {"current_trial": 24, "trialdata": {"rt": -1000, "trial_type": "single-audio", "word": "penguin", "stimulus": "/static/audio/wordpool/PENGUIN.wav", "conditions": [18, 1200, "a", 18000], "internal_node_id": "0.0-15.0", "trial": 0, "time_elapsed": 340839, "serialpos": 3, "key_press": -1, "wordID": 1043, "type": "PRES_AUD", "trial_index": 24}, "uniqueid": "MTK2613:3VW04L3ZLUDKAKXYFMDIENURSW2XX7", "dateTime": 1519155462634}, {"current_trial": 25, "trialdata": {"rt": -1000, "trial_type": "single-audio", "word": "driver", "stimulus": "/static/audio/wordpool/DRIVER.wav", "conditions": [18, 1200, "a", 18000], "internal_node_id": "0.0-16.0", "trial": 0, "time_elapsed": 343155, "serialpos": 4, "key_press": -1, "wordID": 498, "type": "PRES_AUD", "trial_index": 25}, "uniqueid": "MTK2613:3VW04L3ZLUDKAKXYFMDIENURSW2XX7", "dateTime": 1519155464950}, {"current_trial": 26, "trialdata": {"rt": -1000, "trial_type": "single-audio", "word": "chest", "stimulus": "/static/audio/wordpool/CHEST.wav", "conditions": [18, 1200, "a", 18000], "internal_node_id": "0.0-17.0", "trial": 0, "time_elapsed": 345270, "serialpos": 5, "key_press": -1, "wordID": 294, "type": "PRES_AUD", "trial_index": 26}, "uniqueid": "MTK2613:3VW04L3ZLUDKAKXYFMDIENURSW2XX7", "dateTime": 1519155467065}, {"current_trial": 27, "trialdata": {"rt": -1000, "trial_type": "single-audio", "word": "sword", "stimulus": "/static/audio/wordpool/SWORD.wav", "conditions": [18, 1200, "a", 18000], "internal_node_id": "0.0-18.0", "trial": 0, "time_elapsed": 347496, "serialpos": 6, "key_press": -1, "wordID": 1422, "type": "PRES_AUD", "trial_index": 27}, "uniqueid": "MTK2613:3VW04L3ZLUDKAKXYFMDIENURSW2XX7", "dateTime": 1519155469291}, {"current_trial": 28, "trialdata": {"rt": -1000, "trial_type": "single-audio", "word": "japan", "stimulus": "/static/audio/wordpool/JAPAN.wav", "conditions": [18, 1200, "a", 18000], "internal_node_id": "0.0-19.0", "trial": 0, "time_elapsed": 349534, "serialpos": 7, "key_press": -1, "wordID": 748, "type": "PRES_AUD", "trial_index": 28}, "uniqueid": "MTK2613:3VW04L3ZLUDKAKXYFMDIENURSW2XX7", "dateTime": 1519155471329}, {"current_trial": 29, "trialdata": {"rt": -1000, "trial_type": "single-audio", "word": "puddle", "stimulus": "/static/audio/wordpool/PUDDLE.wav", "conditions": [18, 1200, "a", 18000], "internal_node_id": "0.0-20.0", "trial": 0, "time_elapsed": 351894, "serialpos": 8, "key_press": -1, "wordID": 1139, "type": "PRES_AUD", "trial_index": 29}, "uniqueid": "MTK2613:3VW04L3ZLUDKAKXYFMDIENURSW2XX7", "dateTime": 1519155473689}, {"current_trial": 30, "trialdata": {"rt": -1000, "trial_type": "single-audio", "word": "hatchet", "stimulus": "/static/audio/wordpool/HATCHET.wav", "conditions": [18, 1200, "a", 18000], "internal_node_id": "0.0-21.0", "trial": 0, "time_elapsed": 353997, "serialpos": 9, "key_press": -1, "wordID": 690, "type": "PRES_AUD", "trial_index": 30}, "uniqueid": "MTK2613:3VW04L3ZLUDKAKXYFMDIENURSW2XX7", "dateTime": 1519155475792}, {"current_trial": 31, "trialdata": {"rt": -1000, "trial_type": "single-audio", "word": "flute", "stimulus": "/static/audio/wordpool/FLUTE.wav", "conditions": [18, 1200, "a", 18000], "internal_node_id": "0.0-22.0", "trial": 0, "time_elapsed": 356375, "serialpos": 10, "key_press": -1, "wordID": 584, "type": "PRES_AUD", "trial_index": 31}, "uniqueid": "MTK2613:3VW04L3ZLUDKAKXYFMDIENURSW2XX7", "dateTime": 1519155478170}, {"current_trial": 32, "trialdata": {"rt": -1000, "trial_type": "single-audio", "word": "icing", "stimulus": "/static/audio/wordpool/ICING.wav", "conditions": [18, 1200, "a", 18000], "internal_node_id": "0.0-23.0", "trial": 0, "time_elapsed": 358464, "serialpos": 11, "key_press": -1, "wordID": 731, "type": "PRES_AUD", "trial_index": 32}, "uniqueid": "MTK2613:3VW04L3ZLUDKAKXYFMDIENURSW2XX7", "dateTime": 1519155480259}, {"current_trial": 33, "trialdata": {"rt": -1000, "trial_type": "single-audio", "word": "banquet", "stimulus": "/static/audio/wordpool/BANQUET.wav", "conditions": [18, 1200, "a", 18000], "internal_node_id": "0.0-24.0", "trial": 0, "time_elapsed": 360857, "serialpos": 12, "key_press": -1, "wordID": 85, "type": "PRES_AUD", "trial_index": 33}, "uniqueid": "MTK2613:3VW04L3ZLUDKAKXYFMDIENURSW2XX7", "dateTime": 1519155482652}, {"current_trial": 34, "trialdata": {"rt": -1000, "trial_type": "single-audio", "word": "dust", "stimulus": "/static/audio/wordpool/DUST.wav", "conditions": [18, 1200, "a", 18000], "internal_node_id": "0.0-25.0", "trial": 0, "time_elapsed": 362951, "serialpos": 13, "key_press": -1, "wordID": 507, "type": "PRES_AUD", "trial_index": 34}, "uniqueid": "MTK2613:3VW04L3ZLUDKAKXYFMDIENURSW2XX7", "dateTime": 1519155484746}, {"current_trial": 35, "trialdata": {"rt": -1000, "trial_type": "single-audio", "word": "parrot", "stimulus": "/static/audio/wordpool/PARROT.wav", "conditions": [18, 1200, "a", 18000], "internal_node_id": "0.0-26.0", "trial": 0, "time_elapsed": 365152, "serialpos": 14, "key_press": -1, "wordID": 1014, "type": "PRES_AUD", "trial_index": 35}, "uniqueid": "MTK2613:3VW04L3ZLUDKAKXYFMDIENURSW2XX7", "dateTime": 1519155486947}, {"current_trial": 36, "trialdata": {"rt": -1000, "trial_type": "single-audio", "word": "slide", "stimulus": "/static/audio/wordpool/SLIDE.wav", "conditions": [18, 1200, "a", 18000], "internal_node_id": "0.0-27.0", "trial": 0, "time_elapsed": 367303, "serialpos": 15, "key_press": -1, "wordID": 1325, "type": "PRES_AUD", "trial_index": 36}, "uniqueid": "MTK2613:3VW04L3ZLUDKAKXYFMDIENURSW2XX7", "dateTime": 1519155489098}, {"current_trial": 37, "trialdata": {"rt": -1000, "trial_type": "single-audio", "word": "crab", "stimulus": "/static/audio/wordpool/CRAB.wav", "conditions": [18, 1200, "a", 18000], "internal_node_id": "0.0-28.0", "trial": 0, "time_elapsed": 369667, "serialpos": 16, "key_press": -1, "wordID": 396, "type": "PRES_AUD", "trial_index": 37}, "uniqueid": "MTK2613:3VW04L3ZLUDKAKXYFMDIENURSW2XX7", "dateTime": 1519155491462}, {"current_trial": 38, "trialdata": {"rt": -1000, "trial_type": "single-audio", "word": "dentist", "stimulus": "/static/audio/wordpool/DENTIST.wav", "conditions": [18, 1200, "a", 18000], "internal_node_id": "0.0-29.0", "trial": 0, "time_elapsed": 372012, "serialpos": 17, "key_press": -1, "wordID": 446, "type": "PRES_AUD", "trial_index": 38}, "uniqueid": "MTK2613:3VW04L3ZLUDKAKXYFMDIENURSW2XX7", "dateTime": 1519155493807}, {"current_trial": 39, "trialdata": {"rt": -1, "trial_type": "single-stim", "stimulus": "", "internal_node_id": "0.0-30.0-0.0", "time_elapsed": 373289, "key_press": -1, "type": "PRE_RECALL_DELAY", "trial_index": 39}, "uniqueid": "MTK2613:3VW04L3ZLUDKAKXYFMDIENURSW2XX7", "dateTime": 1519155495085}, {"current_trial": 40, "trialdata": {"rt": -1000, "trial_type": "single-audio", "stimulus": "/static/audio/400Hz.wav", "internal_node_id": "0.0-31.0", "time_elapsed": 373791, "key_press": -1, "type": "PRE_RECALL_ALERT", "trial_index": 40}, "uniqueid": "MTK2613:3VW04L3ZLUDKAKXYFMDIENURSW2XX7", "dateTime": 1519155495586}, {"current_trial": 41, "trialdata": {"rt": [2467, 4060, 5716, 8234, 13195, 17732], "recwords": ["rust", "flag", "dentist", "penguin", "icing", "dust"], "key_times": [1754, 1842, 1962, 2074, 2467, 2841, 2970, 3114, 3226, 4060, 4346, 4490, 4602, 4674, 4690, 4930, 5578, 5716, 6338, 6522, 6642, 7634, 7747, 7794, 8018, 8234, 10338, 10939, 12555, 12666, 12754, 12850, 12986, 13195, 17346, 17410, 17530, 17626, 17732], "trial_type": "free-recall", "conditions": [18, 1200, "a", 18000], "internal_node_id": "0.0-32.0-0.0", "key_presses": [82, 85, 83, 84, 13, 70, 76, 65, 71, 13, 68, 69, 78, 84, 73, 83, 84, 13, 80, 69, 78, 71, 85, 73, 78, 13, 67, 8, 73, 67, 73, 78, 71, 13, 68, 85, 83, 84, 13], "trial": 0, "time_elapsed": 433793, "type": "FREE_RECALL", "trial_index": 41}, "uniqueid": "MTK2613:3VW04L3ZLUDKAKXYFMDIENURSW2XX7", "dateTime": 1519155555589}, {"current_trial": 42, "trialdata": {"rt": 1864, "trial_type": "text", "internal_node_id": "0.0-33.0", "time_elapsed": 437658, "key_press": 32, "type": "INSTRUCTIONS", "trial_index": 42}, "uniqueid": "MTK2613:3VW04L3ZLUDKAKXYFMDIENURSW2XX7", "dateTime": 1519155559453}, {"current_trial": 43, "trialdata": {"rt": [2589, 7223, 12606, 15446, 17590], "trial_type": "math-distractor", "key_times": [2223, 2333, 2589, 6757, 6917, 7223, 12253, 12397, 12606, 15133, 15446, 17222, 17357, 17590], "responses": ["11", "20", "14", "9", "11"], "num2": [7, 4, 6, 1, 3, 2], "num3": [2, 9, 5, 1, 6, 1], "conditions": [18, 1200, "a", 18000], "internal_node_id": "0.0-34.0", "key_presses": [97, 97, 13, 98, 96, 13, 97, 100, 13, 105, 13, 97, 97, 13], "trial": 1, "time_elapsed": 457661, "type": "DISTRACTOR", "trial_index": 43, "num1": [2, 7, 3, 7, 2, 6]}, "uniqueid": "MTK2613:3VW04L3ZLUDKAKXYFMDIENURSW2XX7", "dateTime": 1519155579456}, {"current_trial": 44, "trialdata": {"rt": -1, "trial_type": "single-stim", "stimulus": "<p id=\"stim\">10</p>", "internal_node_id": "0.0-35.0-0.0", "time_elapsed": 460662, "key_press": -1, "trial_index": 44}, "uniqueid": "MTK2613:3VW04L3ZLUDKAKXYFMDIENURSW2XX7", "dateTime": 1519155582458}, {"current_trial": 45, "trialdata": {"rt": -1, "trial_type": "single-stim", "stimulus": "<p id=\"stim\">9</p>", "internal_node_id": "0.0-35.0-1.0", "time_elapsed": 461664, "key_press": -1, "trial_index": 45}, "uniqueid": "MTK2613:3VW04L3ZLUDKAKXYFMDIENURSW2XX7", "dateTime": 1519155583459}, {"current_trial": 46, "trialdata": {"rt": -1, "trial_type": "single-stim", "stimulus": "<p id=\"stim\">8</p>", "internal_node_id": "0.0-35.0-2.0", "time_elapsed": 462665, "key_press": -1, "trial_index": 46}, "uniqueid": "MTK2613:3VW04L3ZLUDKAKXYFMDIENURSW2XX7", "dateTime": 1519155584460}, {"current_trial": 47, "trialdata": {"rt": -1, "trial_type": "single-stim", "stimulus": "<p id=\"stim\">7</p>", "internal_node_id": "0.0-35.0-3.0", "time_elapsed": 463666, "key_press": -1, "trial_index": 47}, "uniqueid": "MTK2613:3VW04L3ZLUDKAKXYFMDIENURSW2XX7", "dateTime": 1519155585461}, {"current_trial": 48, "trialdata": {"rt": -1, "trial_type": "single-stim", "stimulus": "<p id=\"stim\">6</p>", "internal_node_id": "0.0-35.0-4.0", "time_elapsed": 464666, "key_press": -1, "trial_index": 48}, "uniqueid": "MTK2613:3VW04L3ZLUDKAKXYFMDIENURSW2XX7", "dateTime": 1519155586461}, {"current_trial": 49, "trialdata": {"rt": -1, "trial_type": "single-stim", "stimulus": "<p id=\"stim\">5</p>", "internal_node_id": "0.0-35.0-5.0", "time_elapsed": 465667, "key_press": -1, "trial_index": 49}, "uniqueid": "MTK2613:3VW04L3ZLUDKAKXYFMDIENURSW2XX7", "dateTime": 1519155587463}, {"current_trial": 50, "trialdata": {"rt": -1, "trial_type": "single-stim", "stimulus": "<p id=\"stim\">4</p>", "internal_node_id": "0.0-35.0-6.0", "time_elapsed": 466669, "key_press": -1, "trial_index": 50}, "uniqueid": "MTK2613:3VW04L3ZLUDKAKXYFMDIENURSW2XX7", "dateTime": 1519155588464}, {"current_trial": 51, "trialdata": {"rt": -1, "trial_type": "single-stim", "stimulus": "<p id=\"stim\">3</p>", "internal_node_id": "0.0-35.0-7.0", "time_elapsed": 467670, "key_press": -1, "trial_index": 51}, "uniqueid": "MTK2613:3VW04L3ZLUDKAKXYFMDIENURSW2XX7", "dateTime": 1519155589465}, {"current_trial": 52, "trialdata": {"rt": -1, "trial_type": "single-stim", "stimulus": "<p id=\"stim\">2</p>", "internal_node_id": "0.0-35.0-8.0", "time_elapsed": 468671, "key_press": -1, "trial_index": 52}, "uniqueid": "MTK2613:3VW04L3ZLUDKAKXYFMDIENURSW2XX7", "dateTime": 1519155590467}, {"current_trial": 53, "trialdata": {"rt": -1, "trial_type": "single-stim", "stimulus": "<p id=\"stim\">1</p>", "internal_node_id": "0.0-35.0-9.0", "time_elapsed": 469672, "key_press": -1, "trial_index": 53}, "uniqueid": "MTK2613:3VW04L3ZLUDKAKXYFMDIENURSW2XX7", "dateTime": 1519155591467}, {"current_trial": 54, "trialdata": {"rt": -1, "trial_type": "single-stim", "stimulus": "<p id=\"stim\">+</p>", "internal_node_id": "0.0-36.0-0.0", "time_elapsed": 471174, "key_press": -1, "type": "FIXATION", "trial_index": 54}, "uniqueid": "MTK2613:3VW04L3ZLUDKAKXYFMDIENURSW2XX7", "dateTime": 1519155592970}, {"current_trial": 55, "trialdata": {"rt": -1000, "trial_type": "single-audio", "word": "cottage", "stimulus": "/static/audio/wordpool/COTTAGE.wav", "conditions": [18, 1200, "a", 18000], "internal_node_id": "0.0-37.0", "trial": 1, "time_elapsed": 473574, "serialpos": 0, "key_press": -1, "wordID": 383, "type": "PRES_AUD", "trial_index": 55}, "uniqueid": "MTK2613:3VW04L3ZLUDKAKXYFMDIENURSW2XX7", "dateTime": 1519155595369}, {"current_trial": 56, "trialdata": {"rt": -1000, "trial_type": "single-audio", "word": "foot", "stimulus": "/static/audio/wordpool/FOOT.wav", "conditions": [18, 1200, "a", 18000], "internal_node_id": "0.0-38.0", "trial": 1, "time_elapsed": 475730, "serialpos": 1, "key_press": -1, "wordID": 589, "type": "PRES_AUD", "trial_index": 56}, "uniqueid": "MTK2613:3VW04L3ZLUDKAKXYFMDIENURSW2XX7", "dateTime": 1519155597525}, {"current_trial": 57, "trialdata": {"rt": -1000, "trial_type": "single-audio", "word": "mask", "stimulus": "/static/audio/wordpool/MASK.wav", "conditions": [18, 1200, "a", 18000], "internal_node_id": "0.0-39.0", "trial": 1, "time_elapsed": 477822, "serialpos": 2, "key_press": -1, "wordID": 875, "type": "PRES_AUD", "trial_index": 57}, "uniqueid": "MTK2613:3VW04L3ZLUDKAKXYFMDIENURSW2XX7", "dateTime": 1519155599617}, {"current_trial": 58, "trialdata": {"rt": -1000, "trial_type": "single-audio", "word": "dime", "stimulus": "/static/audio/wordpool/DIME.wav", "conditions": [18, 1200, "a", 18000], "internal_node_id": "0.0-40.0", "trial": 1, "time_elapsed": 479975, "serialpos": 3, "key_press": -1, "wordID": 465, "type": "PRES_AUD", "trial_index": 58}, "uniqueid": "MTK2613:3VW04L3ZLUDKAKXYFMDIENURSW2XX7", "dateTime": 1519155601771}, {"current_trial": 59, "trialdata": {"rt": -1000, "trial_type": "single-audio", "word": "flag", "stimulus": "/static/audio/wordpool/FLAG.wav", "conditions": [18, 1200, "a", 18000], "internal_node_id": "0.0-41.0", "trial": 1, "time_elapsed": 482300, "serialpos": 4, "key_press": -1, "wordID": 572, "type": "PRES_AUD", "trial_index": 59}, "uniqueid": "MTK2613:3VW04L3ZLUDKAKXYFMDIENURSW2XX7", "dateTime": 1519155604096}, {"current_trial": 60, "trialdata": {"rt": -1000, "trial_type": "single-audio", "word": "candy", "stimulus": "/static/audio/wordpool/CANDY.wav", "conditions": [18, 1200, "a", 18000], "internal_node_id": "0.0-42.0", "trial": 1, "time_elapsed": 484512, "serialpos": 5, "key_press": -1, "wordID": 229, "type": "PRES_AUD", "trial_index": 60}, "uniqueid": "MTK2613:3VW04L3ZLUDKAKXYFMDIENURSW2XX7", "dateTime": 1519155606307}, {"current_trial": 61, "trialdata": {"rt": -1000, "trial_type": "single-audio", "word": "bubble", "stimulus": "/static/audio/wordpool/BUBBLE.wav", "conditions": [18, 1200, "a", 18000], "internal_node_id": "0.0-43.0", "trial": 1, "time_elapsed": 486871, "serialpos": 6, "key_press": -1, "wordID": 182, "type": "PRES_AUD", "trial_index": 61}, "uniqueid": "MTK2613:3VW04L3ZLUDKAKXYFMDIENURSW2XX7", "dateTime": 1519155608666}, {"current_trial": 62, "trialdata": {"rt": -1000, "trial_type": "single-audio", "word": "postage", "stimulus": "/static/audio/wordpool/POSTAGE.wav", "conditions": [18, 1200, "a", 18000], "internal_node_id": "0.0-44.0", "trial": 1, "time_elapsed": 489078, "serialpos": 7, "key_press": -1, "wordID": 1112, "type": "PRES_AUD", "trial_index": 62}, "uniqueid": "MTK2613:3VW04L3ZLUDKAKXYFMDIENURSW2XX7", "dateTime": 1519155610873}, {"current_trial": 63, "trialdata": {"rt": -1000, "trial_type": "single-audio", "word": "branch", "stimulus": "/static/audio/wordpool/BRANCH.wav", "conditions": [18, 1200, "a", 18000], "internal_node_id": "0.0-45.0", "trial": 1, "time_elapsed": 491143, "serialpos": 8, "key_press": -1, "wordID": 167, "type": "PRES_AUD", "trial_index": 63}, "uniqueid": "MTK2613:3VW04L3ZLUDKAKXYFMDIENURSW2XX7", "dateTime": 1519155612938}, {"current_trial": 64, "trialdata": {"rt": -1000, "trial_type": "single-audio", "word": "boyfriend", "stimulus": "/static/audio/wordpool/BOYFRIEND.wav", "conditions": [18, 1200, "a", 18000], "internal_node_id": "0.0-46.0", "trial": 1, "time_elapsed": 493333, "serialpos": 9, "key_press": -1, "wordID": 161, "type": "PRES_AUD", "trial_index": 64}, "uniqueid": "MTK2613:3VW04L3ZLUDKAKXYFMDIENURSW2XX7", "dateTime": 1519155615128}, {"current_trial": 65, "trialdata": {"rt": -1000, "trial_type": "single-audio", "word": "rabbit", "stimulus": "/static/audio/wordpool/RABBIT.wav", "conditions": [18, 1200, "a", 18000], "internal_node_id": "0.0-47.0", "trial": 1, "time_elapsed": 495669, "serialpos": 10, "key_press": -1, "wordID": 1151, "type": "PRES_AUD", "trial_index": 65}, "uniqueid": "MTK2613:3VW04L3ZLUDKAKXYFMDIENURSW2XX7", "dateTime": 1519155617464}, {"current_trial": 66, "trialdata": {"rt": -1000, "trial_type": "single-audio", "word": "chapel", "stimulus": "/static/audio/wordpool/CHAPEL.wav", "conditions": [18, 1200, "a", 18000], "internal_node_id": "0.0-48.0", "trial": 1, "time_elapsed": 497709, "serialpos": 11, "key_press": -1, "wordID": 279, "type": "PRES_AUD", "trial_index": 66}, "uniqueid": "MTK2613:3VW04L3ZLUDKAKXYFMDIENURSW2XX7", "dateTime": 1519155619504}, {"current_trial": 67, "trialdata": {"rt": -1000, "trial_type": "single-audio", "word": "blade", "stimulus": "/static/audio/wordpool/BLADE.wav", "conditions": [18, 1200, "a", 18000], "internal_node_id": "0.0-49.0", "trial": 1, "time_elapsed": 500057, "serialpos": 12, "key_press": -1, "wordID": 133, "type": "PRES_AUD", "trial_index": 67}, "uniqueid": "MTK2613:3VW04L3ZLUDKAKXYFMDIENURSW2XX7", "dateTime": 1519155621852}, {"current_trial": 68, "trialdata": {"rt": -1000, "trial_type": "single-audio", "word": "sausage", "stimulus": "/static/audio/wordpool/SAUSAGE.wav", "conditions": [18, 1200, "a", 18000], "internal_node_id": "0.0-50.0", "trial": 1, "time_elapsed": 502371, "serialpos": 13, "key_press": -1, "wordID": 1237, "type": "PRES_AUD", "trial_index": 68}, "uniqueid": "MTK2613:3VW04L3ZLUDKAKXYFMDIENURSW2XX7", "dateTime": 1519155624167}, {"current_trial": 69, "trialdata": {"rt": -1000, "trial_type": "single-audio", "word": "xerox", "stimulus": "/static/audio/wordpool/XEROX.wav", "conditions": [18, 1200, "a", 18000], "internal_node_id": "0.0-51.0", "trial": 1, "time_elapsed": 504396, "serialpos": 14, "key_press": -1, "wordID": 1627, "type": "PRES_AUD", "trial_index": 69}, "uniqueid": "MTK2613:3VW04L3ZLUDKAKXYFMDIENURSW2XX7", "dateTime": 1519155626191}, {"current_trial": 70, "trialdata": {"rt": -1000, "trial_type": "single-audio", "word": "relish", "stimulus": "/static/audio/wordpool/RELISH.wav", "conditions": [18, 1200, "a", 18000], "internal_node_id": "0.0-52.0", "trial": 1, "time_elapsed": 506459, "serialpos": 15, "key_press": -1, "wordID": 1182, "type": "PRES_AUD", "trial_index": 70}, "uniqueid": "MTK2613:3VW04L3ZLUDKAKXYFMDIENURSW2XX7", "dateTime": 1519155628254}, {"current_trial": 71, "trialdata": {"rt": -1000, "trial_type": "single-audio", "word": "tuba", "stimulus": "/static/audio/wordpool/TUBA.wav", "conditions": [18, 1200, "a", 18000], "internal_node_id": "0.0-53.0", "trial": 1, "time_elapsed": 508616, "serialpos": 16, "key_press": -1, "wordID": 1514, "type": "PRES_AUD", "trial_index": 71}, "uniqueid": "MTK2613:3VW04L3ZLUDKAKXYFMDIENURSW2XX7", "dateTime": 1519155630412}, {"current_trial": 72, "trialdata": {"rt": -1000, "trial_type": "single-audio", "word": "lion", "stimulus": "/static/audio/wordpool/LION.wav", "conditions": [18, 1200, "a", 18000], "internal_node_id": "0.0-54.0", "trial": 1, "time_elapsed": 510668, "serialpos": 17, "key_press": -1, "wordID": 826, "type": "PRES_AUD", "trial_index": 72}, "uniqueid": "MTK2613:3VW04L3ZLUDKAKXYFMDIENURSW2XX7", "dateTime": 1519155632463}, {"current_trial": 73, "trialdata": {"rt": -1, "trial_type": "single-stim", "stimulus": "", "internal_node_id": "0.0-55.0-0.0", "time_elapsed": 511888, "key_press": -1, "type": "PRE_RECALL_DELAY", "trial_index": 73}, "uniqueid": "MTK2613:3VW04L3ZLUDKAKXYFMDIENURSW2XX7", "dateTime": 1519155633683}, {"current_trial": 74, "trialdata": {"rt": -1000, "trial_type": "single-audio", "stimulus": "/static/audio/400Hz.wav", "internal_node_id": "0.0-56.0", "time_elapsed": 512389, "key_press": -1, "type": "PRE_RECALL_ALERT", "trial_index": 74}, "uniqueid": "MTK2613:3VW04L3ZLUDKAKXYFMDIENURSW2XX7", "dateTime": 1519155634184}, {"current_trial": 75, "trialdata": {"rt": [3253, 4437, 5349, 7445, 9109, 10061, 16437], "recwords": ["xerox", "lion", "relish", "boyfriend", "cottage", "candy", "flag"], "key_times": [1644, 1932, 2036, 2268, 2652, 3253, 3780, 3948, 4068, 4236, 4437, 4725, 4756, 4885, 4956, 5068, 5164, 5349, 6324, 6428, 6573, 6764, 6916, 6988, 7124, 7212, 7339, 7445, 8308, 8372, 8548, 8725, 8844, 8924, 9012, 9109, 9452, 9532, 9596, 9732, 9828, 10061, 15788, 15916, 16060, 16228, 16437], "trial_type": "free-recall", "conditions": [18, 1200, "a", 18000], "internal_node_id": "0.0-57.0-0.0", "key_presses": [88, 69, 82, 79, 88, 13, 76, 73, 79, 78, 13, 82, 69, 76, 73, 83, 72, 13, 66, 79, 89, 70, 82, 73, 69, 78, 68, 13, 67, 79, 84, 84, 65, 71, 69, 13, 67, 65, 78, 68, 89, 13, 70, 76, 65, 71, 13], "trial": 1, "time_elapsed": 572391, "type": "FREE_RECALL", "trial_index": 75}, "uniqueid": "MTK2613:3VW04L3ZLUDKAKXYFMDIENURSW2XX7", "dateTime": 1519155694187}, {"current_trial": 76, "trialdata": {"rt": 4216, "trial_type": "text", "internal_node_id": "0.0-58.0", "time_elapsed": 578610, "key_press": 32, "type": "INSTRUCTIONS", "trial_index": 76}, "uniqueid": "MTK2613:3VW04L3ZLUDKAKXYFMDIENURSW2XX7", "dateTime": 1519155700405}, {"current_trial": 77, "trialdata": {"rt": [2021, 4686, 8670, 10431], "trial_type": "math-distractor", "key_times": [1669, 1837, 2021, 4317, 4501, 4686, 8325, 8381, 8670, 10157, 10431], "responses": ["14", "15", "20", "9"], "num2": [9, 3, 6, 6, 2], "num3": [4, 4, 6, 2, 9], "conditions": [12, 1600, "a", 12000], "internal_node_id": "0.0-59.0", "key_presses": [97, 100, 13, 97, 101, 13, 98, 96, 13, 105, 13], "trial": 2, "time_elapsed": 591614, "type": "DISTRACTOR", "trial_index": 77, "num1": [1, 8, 8, 1, 9]}, "uniqueid": "MTK2613:3VW04L3ZLUDKAKXYFMDIENURSW2XX7", "dateTime": 1519155713409}, {"current_trial": 78, "trialdata": {"rt": -1, "trial_type": "single-stim", "stimulus": "<p id=\"stim\">10</p>", "internal_node_id": "0.0-60.0-0.0", "time_elapsed": 594616, "key_press": -1, "trial_index": 78}, "uniqueid": "MTK2613:3VW04L3ZLUDKAKXYFMDIENURSW2XX7", "dateTime": 1519155716411}, {"current_trial": 79, "trialdata": {"rt": -1, "trial_type": "single-stim", "stimulus": "<p id=\"stim\">9</p>", "internal_node_id": "0.0-60.0-1.0", "time_elapsed": 595618, "key_press": -1, "trial_index": 79}, "uniqueid": "MTK2613:3VW04L3ZLUDKAKXYFMDIENURSW2XX7", "dateTime": 1519155717413}, {"current_trial": 80, "trialdata": {"rt": -1, "trial_type": "single-stim", "stimulus": "<p id=\"stim\">8</p>", "internal_node_id": "0.0-60.0-2.0", "time_elapsed": 596619, "key_press": -1, "trial_index": 80}, "uniqueid": "MTK2613:3VW04L3ZLUDKAKXYFMDIENURSW2XX7", "dateTime": 1519155718414}, {"current_trial": 81, "trialdata": {"rt": -1, "trial_type": "single-stim", "stimulus": "<p id=\"stim\">7</p>", "internal_node_id": "0.0-60.0-3.0", "time_elapsed": 597620, "key_press": -1, "trial_index": 81}, "uniqueid": "MTK2613:3VW04L3ZLUDKAKXYFMDIENURSW2XX7", "dateTime": 1519155719415}, {"current_trial": 82, "trialdata": {"rt": -1, "trial_type": "single-stim", "stimulus": "<p id=\"stim\">6</p>", "internal_node_id": "0.0-60.0-4.0", "time_elapsed": 598621, "key_press": -1, "trial_index": 82}, "uniqueid": "MTK2613:3VW04L3ZLUDKAKXYFMDIENURSW2XX7", "dateTime": 1519155720417}, {"current_trial": 83, "trialdata": {"rt": -1, "trial_type": "single-stim", "stimulus": "<p id=\"stim\">5</p>", "internal_node_id": "0.0-60.0-5.0", "time_elapsed": 599624, "key_press": -1, "trial_index": 83}, "uniqueid": "MTK2613:3VW04L3ZLUDKAKXYFMDIENURSW2XX7", "dateTime": 1519155721419}, {"current_trial": 84, "trialdata": {"rt": -1, "trial_type": "single-stim", "stimulus": "<p id=\"stim\">4</p>", "internal_node_id": "0.0-60.0-6.0", "time_elapsed": 600624, "key_press": -1, "trial_index": 84}, "uniqueid": "MTK2613:3VW04L3ZLUDKAKXYFMDIENURSW2XX7", "dateTime": 1519155722419}, {"current_trial": 85, "trialdata": {"rt": -1, "trial_type": "single-stim", "stimulus": "<p id=\"stim\">3</p>", "internal_node_id": "0.0-60.0-7.0", "time_elapsed": 601625, "key_press": -1, "trial_index": 85}, "uniqueid": "MTK2613:3VW04L3ZLUDKAKXYFMDIENURSW2XX7", "dateTime": 1519155723421}, {"current_trial": 86, "trialdata": {"rt": -1, "trial_type": "single-stim", "stimulus": "<p id=\"stim\">2</p>", "internal_node_id": "0.0-60.0-8.0", "time_elapsed": 602627, "key_press": -1, "trial_index": 86}, "uniqueid": "MTK2613:3VW04L3ZLUDKAKXYFMDIENURSW2XX7", "dateTime": 1519155724422}, {"current_trial": 87, "trialdata": {"rt": -1, "trial_type": "single-stim", "stimulus": "<p id=\"stim\">1</p>", "internal_node_id": "0.0-60.0-9.0", "time_elapsed": 603628, "key_press": -1, "trial_index": 87}, "uniqueid": "MTK2613:3VW04L3ZLUDKAKXYFMDIENURSW2XX7", "dateTime": 1519155725423}, {"current_trial": 88, "trialdata": {"rt": -1, "trial_type": "single-stim", "stimulus": "<p id=\"stim\">+</p>", "internal_node_id": "0.0-61.0-0.0", "time_elapsed": 605129, "key_press": -1, "type": "FIXATION", "trial_index": 88}, "uniqueid": "MTK2613:3VW04L3ZLUDKAKXYFMDIENURSW2XX7", "dateTime": 1519155726924}, {"current_trial": 89, "trialdata": {"rt": -1000, "trial_type": "single-audio", "word": "gangster", "stimulus": "/static/audio/wordpool/GANGSTER.wav", "conditions": [12, 1600, "a", 12000], "internal_node_id": "0.0-62.0", "trial": 2, "time_elapsed": 607609, "serialpos": 0, "key_press": -1, "wordID": 619, "type": "PRES_AUD", "trial_index": 89}, "uniqueid": "MTK2613:3VW04L3ZLUDKAKXYFMDIENURSW2XX7", "dateTime": 1519155729404}, {"current_trial": 90, "trialdata": {"rt": -1000, "trial_type": "single-audio", "word": "drug", "stimulus": "/static/audio/wordpool/DRUG.wav", "conditions": [12, 1600, "a", 12000], "internal_node_id": "0.0-63.0", "trial": 2, "time_elapsed": 610289, "serialpos": 1, "key_press": -1, "wordID": 500, "type": "PRES_AUD", "trial_index": 90}, "uniqueid": "MTK2613:3VW04L3ZLUDKAKXYFMDIENURSW2XX7", "dateTime": 1519155732084}, {"current_trial": 91, "trialdata": {"rt": -1000, "trial_type": "single-audio", "word": "tutu", "stimulus": "/static/audio/wordpool/TUTU.wav", "conditions": [12, 1600, "a", 12000], "internal_node_id": "0.0-64.0", "trial": 2, "time_elapsed": 613038, "serialpos": 2, "key_press": -1, "wordID": 1523, "type": "PRES_AUD", "trial_index": 91}, "uniqueid": "MTK2613:3VW04L3ZLUDKAKXYFMDIENURSW2XX7", "dateTime": 1519155734833}, {"current_trial": 92, "trialdata": {"rt": -1000, "trial_type": "single-audio", "word": "dress", "stimulus": "/static/audio/wordpool/DRESS.wav", "conditions": [12, 1600, "a", 12000], "internal_node_id": "0.0-65.0", "trial": 2, "time_elapsed": 615467, "serialpos": 3, "key_press": -1, "wordID": 494, "type": "PRES_AUD", "trial_index": 92}, "uniqueid": "MTK2613:3VW04L3ZLUDKAKXYFMDIENURSW2XX7", "dateTime": 1519155737262}, {"current_trial": 93, "trialdata": {"rt": -1000, "trial_type": "single-audio", "word": "lava", "stimulus": "/static/audio/wordpool/LAVA.wav", "conditions": [12, 1600, "a", 12000], "internal_node_id": "0.0-66.0", "trial": 2, "time_elapsed": 618030, "serialpos": 4, "key_press": -1, "wordID": 803, "type": "PRES_AUD", "trial_index": 93}, "uniqueid": "MTK2613:3VW04L3ZLUDKAKXYFMDIENURSW2XX7", "dateTime": 1519155739825}, {"current_trial": 94, "trialdata": {"rt": -1000, "trial_type": "single-audio", "word": "pistol", "stimulus": "/static/audio/wordpool/PISTOL.wav", "conditions": [12, 1600, "a", 12000], "internal_node_id": "0.0-67.0", "trial": 2, "time_elapsed": 620444, "serialpos": 5, "key_press": -1, "wordID": 1074, "type": "PRES_AUD", "trial_index": 94}, "uniqueid": "MTK2613:3VW04L3ZLUDKAKXYFMDIENURSW2XX7", "dateTime": 1519155742239}, {"current_trial": 95, "trialdata": {"rt": -1000, "trial_type": "single-audio", "word": "scalpel", "stimulus": "/static/audio/wordpool/SCALPEL.wav", "conditions": [12, 1600, "a", 12000], "internal_node_id": "0.0-68.0", "trial": 2, "time_elapsed": 622929, "serialpos": 6, "key_press": -1, "wordID": 1242, "type": "PRES_AUD", "trial_index": 95}, "uniqueid": "MTK2613:3VW04L3ZLUDKAKXYFMDIENURSW2XX7", "dateTime": 1519155744724}, {"current_trial": 96, "trialdata": {"rt": -1000, "trial_type": "single-audio", "word": "rod", "stimulus": "/static/audio/wordpool/ROD.wav", "conditions": [12, 1600, "a", 12000], "internal_node_id": "0.0-69.0", "trial": 2, "time_elapsed": 625456, "serialpos": 7, "key_press": -1, "wordID": 1202, "type": "PRES_AUD", "trial_index": 96}, "uniqueid": "MTK2613:3VW04L3ZLUDKAKXYFMDIENURSW2XX7", "dateTime": 1519155747251}, {"current_trial": 97, "trialdata": {"rt": -1000, "trial_type": "single-audio", "word": "mailman", "stimulus": "/static/audio/wordpool/MAILMAN.wav", "conditions": [12, 1600, "a", 12000], "internal_node_id": "0.0-70.0", "trial": 2, "time_elapsed": 627983, "serialpos": 8, "key_press": -1, "wordID": 857, "type": "PRES_AUD", "trial_index": 97}, "uniqueid": "MTK2613:3VW04L3ZLUDKAKXYFMDIENURSW2XX7", "dateTime": 1519155749778}, {"current_trial": 98, "trialdata": {"rt": -1000, "trial_type": "single-audio", "word": "fox", "stimulus": "/static/audio/wordpool/FOX.wav", "conditions": [12, 1600, "a", 12000], "internal_node_id": "0.0-71.0", "trial": 2, "time_elapsed": 630681, "serialpos": 9, "key_press": -1, "wordID": 597, "type": "PRES_AUD", "trial_index": 98}, "uniqueid": "MTK2613:3VW04L3ZLUDKAKXYFMDIENURSW2XX7", "dateTime": 1519155752476}, {"current_trial": 99, "trialdata": {"rt": -1000, "trial_type": "single-audio", "word": "drink", "stimulus": "/static/audio/wordpool/DRINK.wav", "conditions": [12, 1600, "a", 12000], "internal_node_id": "0.0-72.0", "trial": 2, "time_elapsed": 633302, "serialpos": 10, "key_press": -1, "wordID": 497, "type": "PRES_AUD", "trial_index": 99}, "uniqueid": "MTK2613:3VW04L3ZLUDKAKXYFMDIENURSW2XX7", "dateTime": 1519155755097}, {"current_trial": 100, "trialdata": {"rt": -1000, "trial_type": "single-audio", "word": "mailbox", "stimulus": "/static/audio/wordpool/MAILBOX.wav", "conditions": [12, 1600, "a", 12000], "internal_node_id": "0.0-73.0", "trial": 2, "time_elapsed": 636045, "serialpos": 11, "key_press": -1, "wordID": 856, "type": "PRES_AUD", "trial_index": 100}, "uniqueid": "MTK2613:3VW04L3ZLUDKAKXYFMDIENURSW2XX7", "dateTime": 1519155757840}, {"current_trial": 101, "trialdata": {"rt": -1, "trial_type": "single-stim", "stimulus": "", "internal_node_id": "0.0-74.0-0.0", "time_elapsed": 637249, "key_press": -1, "type": "PRE_RECALL_DELAY", "trial_index": 101}, "uniqueid": "MTK2613:3VW04L3ZLUDKAKXYFMDIENURSW2XX7", "dateTime": 1519155759045}, {"current_trial": 102, "trialdata": {"rt": -1000, "trial_type": "single-audio", "stimulus": "/static/audio/400Hz.wav", "internal_node_id": "0.0-75.0", "time_elapsed": 637751, "key_press": -1, "type": "PRE_RECALL_ALERT", "trial_index": 102}, "uniqueid": "MTK2613:3VW04L3ZLUDKAKXYFMDIENURSW2XX7", "dateTime": 1519155759546}, {"current_trial": 103, "trialdata": {"rt": [2539, 3523, 4595, 6460, 7707, 11636, 15483, 19339, 21723, 23571], "recwords": ["gangster", "tutu", "dress", "fox", "drink", "mailbox", "postman", "scalpel", "pistol", "rod"], "key_times": [1402, 1474, 1578, 1756, 1978, 2114, 2290, 2353, 2539, 2914, 3042, 3138, 3210, 3523, 3898, 4058, 4132, 4354, 4458, 4595, 5842, 5922, 6234, 6460, 6818, 7090, 7186, 7314, 7490, 7707, 10363, 10514, 10562, 10706, 10890, 11026, 11250, 11636, 14642, 14738, 14802, 14929, 15098, 15194, 15298, 15483, 17530, 17772, 17834, 18058, 18258, 18370, 19114, 19339, 20755, 20978, 21122, 21178, 21277, 21442, 21723, 22994, 23074, 23226, 23571], "trial_type": "free-recall", "conditions": [12, 1600, "a", 12000], "internal_node_id": "0.0-76.0-0.0", "key_presses": [71, 65, 78, 71, 83, 84, 69, 82, 13, 84, 85, 84, 85, 13, 68, 82, 69, 83, 83, 13, 70, 79, 88, 13, 68, 82, 73, 78, 75, 13, 77, 65, 73, 76, 66, 79, 88, 13, 80, 79, 83, 84, 77, 65, 78, 13, 83, 67, 65, 76, 80, 69, 76, 13, 80, 73, 83, 84, 79, 76, 13, 82, 79, 68, 13], "trial": 2, "time_elapsed": 697753, "type": "FREE_RECALL", "trial_index": 103}, "uniqueid": "MTK2613:3VW04L3ZLUDKAKXYFMDIENURSW2XX7", "dateTime": 1519155819549}, {"current_trial": 104, "trialdata": {"rt": 2209, "trial_type": "text", "internal_node_id": "0.0-77.0", "time_elapsed": 701963, "key_press": 32, "type": "INSTRUCTIONS", "trial_index": 104}, "uniqueid": "MTK2613:3VW04L3ZLUDKAKXYFMDIENURSW2XX7", "dateTime": 1519155823758}, {"current_trial": 105, "trialdata": {"rt": [2486, 4366, 7135, 11118, 12790, 17127, 18694, 23254], "trial_type": "math-distractor", "key_times": [2101, 2221, 2486, 3981, 4093, 4366, 6861, 6885, 7135, 10765, 10885, 11118, 12453, 12479, 12790, 16757, 16917, 17127, 18406, 18694, 22901, 23005, 23254], "responses": ["22", "19", "20", "22", "16", "21", "9", "22"], "num2": [9, 5, 5, 6, 5, 6, 6, 8, 6], "num3": [9, 9, 8, 8, 6, 9, 2, 7, 9], "conditions": [24, 800, "a", 24000], "internal_node_id": "0.0-78.0", "key_presses": [98, 98, 13, 97, 105, 13, 98, 96, 13, 98, 98, 13, 97, 102, 13, 98, 97, 13, 105, 13, 98, 98, 13], "trial": 3, "time_elapsed": 727965, "type": "DISTRACTOR", "trial_index": 105, "num1": [4, 5, 7, 9, 5, 6, 1, 7, 4]}, "uniqueid": "MTK2613:3VW04L3ZLUDKAKXYFMDIENURSW2XX7", "dateTime": 1519155849760}, {"current_trial": 106, "trialdata": {"rt": -1, "trial_type": "single-stim", "stimulus": "<p id=\"stim\">10</p>", "internal_node_id": "0.0-79.0-0.0", "time_elapsed": 730967, "key_press": -1, "trial_index": 106}, "uniqueid": "MTK2613:3VW04L3ZLUDKAKXYFMDIENURSW2XX7", "dateTime": 1519155852762}, {"current_trial": 107, "trialdata": {"rt": -1, "trial_type": "single-stim", "stimulus": "<p id=\"stim\">9</p>", "internal_node_id": "0.0-79.0-1.0", "time_elapsed": 731969, "key_press": -1, "trial_index": 107}, "uniqueid": "MTK2613:3VW04L3ZLUDKAKXYFMDIENURSW2XX7", "dateTime": 1519155853764}, {"current_trial": 108, "trialdata": {"rt": -1, "trial_type": "single-stim", "stimulus": "<p id=\"stim\">8</p>", "internal_node_id": "0.0-79.0-2.0", "time_elapsed": 732969, "key_press": -1, "trial_index": 108}, "uniqueid": "MTK2613:3VW04L3ZLUDKAKXYFMDIENURSW2XX7", "dateTime": 1519155854765}, {"current_trial": 109, "trialdata": {"rt": -1, "trial_type": "single-stim", "stimulus": "<p id=\"stim\">7</p>", "internal_node_id": "0.0-79.0-3.0", "time_elapsed": 733970, "key_press": -1, "trial_index": 109}, "uniqueid": "MTK2613:3VW04L3ZLUDKAKXYFMDIENURSW2XX7", "dateTime": 1519155855766}, {"current_trial": 110, "trialdata": {"rt": -1, "trial_type": "single-stim", "stimulus": "<p id=\"stim\">6</p>", "internal_node_id": "0.0-79.0-4.0", "time_elapsed": 734971, "key_press": -1, "trial_index": 110}, "uniqueid": "MTK2613:3VW04L3ZLUDKAKXYFMDIENURSW2XX7", "dateTime": 1519155856766}, {"current_trial": 111, "trialdata": {"rt": -1, "trial_type": "single-stim", "stimulus": "<p id=\"stim\">5</p>", "internal_node_id": "0.0-79.0-5.0", "time_elapsed": 735972, "key_press": -1, "trial_index": 111}, "uniqueid": "MTK2613:3VW04L3ZLUDKAKXYFMDIENURSW2XX7", "dateTime": 1519155857767}, {"current_trial": 112, "trialdata": {"rt": -1, "trial_type": "single-stim", "stimulus": "<p id=\"stim\">4</p>", "internal_node_id": "0.0-79.0-6.0", "time_elapsed": 736973, "key_press": -1, "trial_index": 112}, "uniqueid": "MTK2613:3VW04L3ZLUDKAKXYFMDIENURSW2XX7", "dateTime": 1519155858768}, {"current_trial": 113, "trialdata": {"rt": -1, "trial_type": "single-stim", "stimulus": "<p id=\"stim\">3</p>", "internal_node_id": "0.0-79.0-7.0", "time_elapsed": 737974, "key_press": -1, "trial_index": 113}, "uniqueid": "MTK2613:3VW04L3ZLUDKAKXYFMDIENURSW2XX7", "dateTime": 1519155859770}, {"current_trial": 114, "trialdata": {"rt": -1, "trial_type": "single-stim", "stimulus": "<p id=\"stim\">2</p>", "internal_node_id": "0.0-79.0-8.0", "time_elapsed": 738975, "key_press": -1, "trial_index": 114}, "uniqueid": "MTK2613:3VW04L3ZLUDKAKXYFMDIENURSW2XX7", "dateTime": 1519155860770}, {"current_trial": 115, "trialdata": {"rt": -1, "trial_type": "single-stim", "stimulus": "<p id=\"stim\">1</p>", "internal_node_id": "0.0-79.0-9.0", "time_elapsed": 739976, "key_press": -1, "trial_index": 115}, "uniqueid": "MTK2613:3VW04L3ZLUDKAKXYFMDIENURSW2XX7", "dateTime": 1519155861771}, {"current_trial": 116, "trialdata": {"rt": -1, "trial_type": "single-stim", "stimulus": "<p id=\"stim\">+</p>", "internal_node_id": "0.0-80.0-0.0", "time_elapsed": 741476, "key_press": -1, "type": "FIXATION", "trial_index": 116}, "uniqueid": "MTK2613:3VW04L3ZLUDKAKXYFMDIENURSW2XX7", "dateTime": 1519155863272}, {"current_trial": 117, "trialdata": {"rt": -1000, "trial_type": "single-audio", "word": "lady", "stimulus": "/static/audio/wordpool/LADY.wav", "conditions": [24, 800, "a", 24000], "internal_node_id": "0.0-81.0", "trial": 3, "time_elapsed": 743077, "serialpos": 0, "key_press": -1, "wordID": 793, "type": "PRES_AUD", "trial_index": 117}, "uniqueid": "MTK2613:3VW04L3ZLUDKAKXYFMDIENURSW2XX7", "dateTime": 1519155864872}, {"current_trial": 118, "trialdata": {"rt": -1000, "trial_type": "single-audio", "word": "world", "stimulus": "/static/audio/wordpool/WORLD.wav", "conditions": [24, 800, "a", 24000], "internal_node_id": "0.0-82.0", "trial": 3, "time_elapsed": 744796, "serialpos": 1, "key_press": -1, "wordID": 1621, "type": "PRES_AUD", "trial_index": 118}, "uniqueid": "MTK2613:3VW04L3ZLUDKAKXYFMDIENURSW2XX7", "dateTime": 1519155866591}, {"current_trial": 119, "trialdata": {"rt": -1000, "trial_type": "single-audio", "word": "globe", "stimulus": "/static/audio/wordpool/GLOBE.wav", "conditions": [24, 800, "a", 24000], "internal_node_id": "0.0-83.0", "trial": 3, "time_elapsed": 746704, "serialpos": 2, "key_press": -1, "wordID": 640, "type": "PRES_AUD", "trial_index": 119}, "uniqueid": "MTK2613:3VW04L3ZLUDKAKXYFMDIENURSW2XX7", "dateTime": 1519155868499}, {"current_trial": 120, "trialdata": {"rt": -1000, "trial_type": "single-audio", "word": "outlaw", "stimulus": "/static/audio/wordpool/OUTLAW.wav", "conditions": [24, 800, "a", 24000], "internal_node_id": "0.0-84.0", "trial": 3, "time_elapsed": 748579, "serialpos": 3, "key_press": -1, "wordID": 988, "type": "PRES_AUD", "trial_index": 120}, "uniqueid": "MTK2613:3VW04L3ZLUDKAKXYFMDIENURSW2XX7", "dateTime": 1519155870374}, {"current_trial": 121, "trialdata": {"rt": -1000, "trial_type": "single-audio", "word": "blackboard", "stimulus": "/static/audio/wordpool/BLACKBOARD.wav", "conditions": [24, 800, "a", 24000], "internal_node_id": "0.0-85.0", "trial": 3, "time_elapsed": 750367, "serialpos": 4, "key_press": -1, "wordID": 132, "type": "PRES_AUD", "trial_index": 121}, "uniqueid": "MTK2613:3VW04L3ZLUDKAKXYFMDIENURSW2XX7", "dateTime": 1519155872162}, {"current_trial": 122, "trialdata": {"rt": -1000, "trial_type": "single-audio", "word": "ground", "stimulus": "/static/audio/wordpool/GROUND.wav", "conditions": [24, 800, "a", 24000], "internal_node_id": "0.0-86.0", "trial": 3, "time_elapsed": 752109, "serialpos": 5, "key_press": -1, "wordID": 665, "type": "PRES_AUD", "trial_index": 122}, "uniqueid": "MTK2613:3VW04L3ZLUDKAKXYFMDIENURSW2XX7", "dateTime": 1519155873904}, {"current_trial": 123, "trialdata": {"rt": -1000, "trial_type": "single-audio", "word": "stomach", "stimulus": "/static/audio/wordpool/STOMACH.wav", "conditions": [24, 800, "a", 24000], "internal_node_id": "0.0-87.0", "trial": 3, "time_elapsed": 754024, "serialpos": 6, "key_press": -1, "wordID": 1383, "type": "PRES_AUD", "trial_index": 123}, "uniqueid": "MTK2613:3VW04L3ZLUDKAKXYFMDIENURSW2XX7", "dateTime": 1519155875819}, {"current_trial": 124, "trialdata": {"rt": -1000, "trial_type": "single-audio", "word": "message", "stimulus": "/static/audio/wordpool/MESSAGE.wav", "conditions": [24, 800, "a", 24000], "internal_node_id": "0.0-88.0", "trial": 3, "time_elapsed": 755972, "serialpos": 7, "key_press": -1, "wordID": 887, "type": "PRES_AUD", "trial_index": 124}, "uniqueid": "MTK2613:3VW04L3ZLUDKAKXYFMDIENURSW2XX7", "dateTime": 1519155877767}, {"current_trial": 125, "trialdata": {"rt": -1000, "trial_type": "single-audio", "word": "cocktail", "stimulus": "/static/audio/wordpool/COCKTAIL.wav", "conditions": [24, 800, "a", 24000], "internal_node_id": "0.0-89.0", "trial": 3, "time_elapsed": 757797, "serialpos": 8, "key_press": -1, "wordID": 337, "type": "PRES_AUD", "trial_index": 125}, "uniqueid": "MTK2613:3VW04L3ZLUDKAKXYFMDIENURSW2XX7", "dateTime": 1519155879592}, {"current_trial": 126, "trialdata": {"rt": -1000, "trial_type": "single-audio", "word": "fruit", "stimulus": "/static/audio/wordpool/FRUIT.wav", "conditions": [24, 800, "a", 24000], "internal_node_id": "0.0-90.0", "trial": 3, "time_elapsed": 759562, "serialpos": 9, "key_press": -1, "wordID": 609, "type": "PRES_AUD", "trial_index": 126}, "uniqueid": "MTK2613:3VW04L3ZLUDKAKXYFMDIENURSW2XX7", "dateTime": 1519155881357}, {"current_trial": 127, "trialdata": {"rt": -1000, "trial_type": "single-audio", "word": "turkey", "stimulus": "/static/audio/wordpool/TURKEY.wav", "conditions": [24, 800, "a", 24000], "internal_node_id": "0.0-91.0", "trial": 3, "time_elapsed": 761515, "serialpos": 10, "key_press": -1, "wordID": 1519, "type": "PRES_AUD", "trial_index": 127}, "uniqueid": "MTK2613:3VW04L3ZLUDKAKXYFMDIENURSW2XX7", "dateTime": 1519155883310}, {"current_trial": 128, "trialdata": {"rt": -1000, "trial_type": "single-audio", "word": "woman", "stimulus": "/static/audio/wordpool/WOMAN.wav", "conditions": [24, 800, "a", 24000], "internal_node_id": "0.0-92.0", "trial": 3, "time_elapsed": 763398, "serialpos": 11, "key_press": -1, "wordID": 1619, "type": "PRES_AUD", "trial_index": 128}, "uniqueid": "MTK2613:3VW04L3ZLUDKAKXYFMDIENURSW2XX7", "dateTime": 1519155885193}, {"current_trial": 129, "trialdata": {"rt": -1000, "trial_type": "single-audio", "word": "garlic", "stimulus": "/static/audio/wordpool/GARLIC.wav", "conditions": [24, 800, "a", 24000], "internal_node_id": "0.0-93.0", "trial": 3, "time_elapsed": 765050, "serialpos": 12, "key_press": -1, "wordID": 623, "type": "PRES_AUD", "trial_index": 129}, "uniqueid": "MTK2613:3VW04L3ZLUDKAKXYFMDIENURSW2XX7", "dateTime": 1519155886845}, {"current_trial": 130, "trialdata": {"rt": -1000, "trial_type": "single-audio", "word": "summit", "stimulus": "/static/audio/wordpool/SUMMIT.wav", "conditions": [24, 800, "a", 24000], "internal_node_id": "0.0-94.0", "trial": 3, "time_elapsed": 766698, "serialpos": 13, "key_press": -1, "wordID": 1404, "type": "PRES_AUD", "trial_index": 130}, "uniqueid": "MTK2613:3VW04L3ZLUDKAKXYFMDIENURSW2XX7", "dateTime": 1519155888493}, {"current_trial": 131, "trialdata": {"rt": -1000, "trial_type": "single-audio", "word": "paddle", "stimulus": "/static/audio/wordpool/PADDLE.wav", "conditions": [24, 800, "a", 24000], "internal_node_id": "0.0-95.0", "trial": 3, "time_elapsed": 768441, "serialpos": 14, "key_press": -1, "wordID": 999, "type": "PRES_AUD", "trial_index": 131}, "uniqueid": "MTK2613:3VW04L3ZLUDKAKXYFMDIENURSW2XX7", "dateTime": 1519155890236}, {"current_trial": 132, "trialdata": {"rt": -1000, "trial_type": "single-audio", "word": "scarf", "stimulus": "/static/audio/wordpool/SCARF.wav", "conditions": [24, 800, "a", 24000], "internal_node_id": "0.0-96.0", "trial": 3, "time_elapsed": 770441, "serialpos": 15, "key_press": -1, "wordID": 1245, "type": "PRES_AUD", "trial_index": 132}, "uniqueid": "MTK2613:3VW04L3ZLUDKAKXYFMDIENURSW2XX7", "dateTime": 1519155892236}, {"current_trial": 133, "trialdata": {"rt": -1000, "trial_type": "single-audio", "word": "shark", "stimulus": "/static/audio/wordpool/SHARK.wav", "conditions": [24, 800, "a", 24000], "internal_node_id": "0.0-97.0", "trial": 3, "time_elapsed": 772162, "serialpos": 16, "key_press": -1, "wordID": 1274, "type": "PRES_AUD", "trial_index": 133}, "uniqueid": "MTK2613:3VW04L3ZLUDKAKXYFMDIENURSW2XX7", "dateTime": 1519155893957}, {"current_trial": 134, "trialdata": {"rt": -1000, "trial_type": "single-audio", "word": "cabbage", "stimulus": "/static/audio/wordpool/CABBAGE.wav", "conditions": [24, 800, "a", 24000], "internal_node_id": "0.0-98.0", "trial": 3, "time_elapsed": 773918, "serialpos": 17, "key_press": -1, "wordID": 209, "type": "PRES_AUD", "trial_index": 134}, "uniqueid": "MTK2613:3VW04L3ZLUDKAKXYFMDIENURSW2XX7", "dateTime": 1519155895713}, {"current_trial": 135, "trialdata": {"rt": -1000, "trial_type": "single-audio", "word": "sidewalk", "stimulus": "/static/audio/wordpool/SIDEWALK.wav", "conditions": [24, 800, "a", 24000], "internal_node_id": "0.0-99.0", "trial": 3, "time_elapsed": 775687, "serialpos": 18, "key_press": -1, "wordID": 1302, "type": "PRES_AUD", "trial_index": 135}, "uniqueid": "MTK2613:3VW04L3ZLUDKAKXYFMDIENURSW2XX7", "dateTime": 1519155897482}, {"current_trial": 136, "trialdata": {"rt": -1000, "trial_type": "single-audio", "word": "window", "stimulus": "/static/audio/wordpool/WINDOW.wav", "conditions": [24, 800, "a", 24000], "internal_node_id": "0.0-100.0", "trial": 3, "time_elapsed": 777391, "serialpos": 19, "key_press": -1, "wordID": 1610, "type": "PRES_AUD", "trial_index": 136}, "uniqueid": "MTK2613:3VW04L3ZLUDKAKXYFMDIENURSW2XX7", "dateTime": 1519155899186}, {"current_trial": 137, "trialdata": {"rt": -1000, "trial_type": "single-audio", "word": "necklace", "stimulus": "/static/audio/wordpool/NECKLACE.wav", "conditions": [24, 800, "a", 24000], "internal_node_id": "0.0-101.0", "trial": 3, "time_elapsed": 779235, "serialpos": 20, "key_press": -1, "wordID": 939, "type": "PRES_AUD", "trial_index": 137}, "uniqueid": "MTK2613:3VW04L3ZLUDKAKXYFMDIENURSW2XX7", "dateTime": 1519155901031}, {"current_trial": 138, "trialdata": {"rt": -1000, "trial_type": "single-audio", "word": "handbag", "stimulus": "/static/audio/wordpool/HANDBAG.wav", "conditions": [24, 800, "a", 24000], "internal_node_id": "0.0-102.0", "trial": 3, "time_elapsed": 780947, "serialpos": 21, "key_press": -1, "wordID": 683, "type": "PRES_AUD", "trial_index": 138}, "uniqueid": "MTK2613:3VW04L3ZLUDKAKXYFMDIENURSW2XX7", "dateTime": 1519155902742}, {"current_trial": 139, "trialdata": {"rt": -1000, "trial_type": "single-audio", "word": "salad", "stimulus": "/static/audio/wordpool/SALAD.wav", "conditions": [24, 800, "a", 24000], "internal_node_id": "0.0-103.0", "trial": 3, "time_elapsed": 782584, "serialpos": 22, "key_press": -1, "wordID": 1223, "type": "PRES_AUD", "trial_index": 139}, "uniqueid": "MTK2613:3VW04L3ZLUDKAKXYFMDIENURSW2XX7", "dateTime": 1519155904379}, {"current_trial": 140, "trialdata": {"rt": -1000, "trial_type": "single-audio", "word": "garden", "stimulus": "/static/audio/wordpool/GARDEN.wav", "conditions": [24, 800, "a", 24000], "internal_node_id": "0.0-104.0", "trial": 3, "time_elapsed": 784558, "serialpos": 23, "key_press": -1, "wordID": 622, "type": "PRES_AUD", "trial_index": 140}, "uniqueid": "MTK2613:3VW04L3ZLUDKAKXYFMDIENURSW2XX7", "dateTime": 1519155906353}, {"current_trial": 141, "trialdata": {"rt": -1, "trial_type": "single-stim", "stimulus": "", "internal_node_id": "0.0-105.0-0.0", "time_elapsed": 785940, "key_press": -1, "type": "PRE_RECALL_DELAY", "trial_index": 141}, "uniqueid": "MTK2613:3VW04L3ZLUDKAKXYFMDIENURSW2XX7", "dateTime": 1519155907735}, {"current_trial": 142, "trialdata": {"rt": -1000, "trial_type": "single-audio", "stimulus": "/static/audio/400Hz.wav", "internal_node_id": "0.0-106.0", "time_elapsed": 786442, "key_press": -1, "type": "PRE_RECALL_ALERT", "trial_index": 142}, "uniqueid": "MTK2613:3VW04L3ZLUDKAKXYFMDIENURSW2XX7", "dateTime": 1519155908237}, {"current_trial": 143, "trialdata": {"rt": [1023, 2799, 4863, 6367, 7312, 8152, 22383, 30966], "recwords": ["lady", "woman", "necklace", "globe", "world", "salad", "message", "summit"], "key_times": [486, 590, 711, 814, 1023, 2222, 2294, 2454, 2534, 2629, 2799, 3613, 3694, 3847, 3902, 4054, 4502, 4598, 4694, 4863, 5214, 5310, 5454, 5654, 6069, 6367, 6686, 6766, 6886, 6998, 7141, 7312, 7542, 7670, 7726, 7878, 8022, 8152, 20934, 21494, 21759, 21894, 22031, 22150, 22222, 22383, 30078, 30174, 30430, 30559, 30726, 30838, 30966], "trial_type": "free-recall", "conditions": [24, 800, "a", 24000], "internal_node_id": "0.0-107.0-0.0", "key_presses": [76, 65, 68, 89, 13, 87, 79, 77, 65, 78, 13, 78, 69, 67, 75, 76, 65, 67, 69, 13, 71, 76, 79, 66, 69, 13, 87, 79, 82, 76, 68, 13, 83, 65, 76, 65, 68, 13, 77, 69, 83, 83, 65, 71, 69, 13, 83, 85, 77, 77, 73, 84, 13], "trial": 3, "time_elapsed": 846443, "type": "FREE_RECALL", "trial_index": 143}, "uniqueid": "MTK2613:3VW04L3ZLUDKAKXYFMDIENURSW2XX7", "dateTime": 1519155968239}, {"current_trial": 144, "trialdata": {"rt": 1197, "trial_type": "text", "internal_node_id": "0.0-108.0", "time_elapsed": 849642, "key_press": 32, "type": "INSTRUCTIONS", "trial_index": 144}, "uniqueid": "MTK2613:3VW04L3ZLUDKAKXYFMDIENURSW2XX7", "dateTime": 1519155971437}, {"current_trial": 145, "trialdata": {"rt": [4263, 6199, 7703, 9455, 11511, 13006, 16383, 18102, 19912, 22865], "trial_type": "math-distractor", "key_times": [3878, 4038, 4263, 5830, 5974, 6199, 7342, 7478, 7703, 9030, 9198, 9455, 11166, 11278, 11511, 12598, 12750, 13006, 16054, 16078, 16383, 17870, 18102, 19550, 19686, 19912, 22166, 22342, 22865], "responses": ["25", "11", "15", "13", "12", "13", "20", "7", "15", "17"], "num2": [8, 1, 5, 2, 7, 6, 5, 4, 4, 9, 1], "num3": [9, 3, 5, 8, 4, 6, 9, 1, 7, 1, 8], "conditions": [12, 1600, "a", 24000], "internal_node_id": "0.0-109.0", "key_presses": [98, 101, 13, 97, 97, 13, 97, 101, 13, 97, 99, 13, 97, 98, 13, 97, 99, 13, 98, 96, 13, 103, 13, 97, 101, 13, 97, 103, 13], "trial": 4, "time_elapsed": 875644, "type": "DISTRACTOR", "trial_index": 145, "num1": [8, 5, 5, 3, 1, 1, 6, 2, 4, 7, 1]}, "uniqueid": "MTK2613:3VW04L3ZLUDKAKXYFMDIENURSW2XX7", "dateTime": 1519155997439}, {"current_trial": 146, "trialdata": {"rt": -1, "trial_type": "single-stim", "stimulus": "<p id=\"stim\">10</p>", "internal_node_id": "0.0-110.0-0.0", "time_elapsed": 878647, "key_press": -1, "trial_index": 146}, "uniqueid": "MTK2613:3VW04L3ZLUDKAKXYFMDIENURSW2XX7", "dateTime": 1519156000442}, {"current_trial": 147, "trialdata": {"rt": -1, "trial_type": "single-stim", "stimulus": "<p id=\"stim\">9</p>", "internal_node_id": "0.0-110.0-1.0", "time_elapsed": 879648, "key_press": -1, "trial_index": 147}, "uniqueid": "MTK2613:3VW04L3ZLUDKAKXYFMDIENURSW2XX7", "dateTime": 1519156001443}, {"current_trial": 148, "trialdata": {"rt": -1, "trial_type": "single-stim", "stimulus": "<p id=\"stim\">8</p>", "internal_node_id": "0.0-110.0-2.0", "time_elapsed": 880649, "key_press": -1, "trial_index": 148}, "uniqueid": "MTK2613:3VW04L3ZLUDKAKXYFMDIENURSW2XX7", "dateTime": 1519156002444}, {"current_trial": 149, "trialdata": {"rt": -1, "trial_type": "single-stim", "stimulus": "<p id=\"stim\">7</p>", "internal_node_id": "0.0-110.0-3.0", "time_elapsed": 881650, "key_press": -1, "trial_index": 149}, "uniqueid": "MTK2613:3VW04L3ZLUDKAKXYFMDIENURSW2XX7", "dateTime": 1519156003445}, {"current_trial": 150, "trialdata": {"rt": -1, "trial_type": "single-stim", "stimulus": "<p id=\"stim\">6</p>", "internal_node_id": "0.0-110.0-4.0", "time_elapsed": 882651, "key_press": -1, "trial_index": 150}, "uniqueid": "MTK2613:3VW04L3ZLUDKAKXYFMDIENURSW2XX7", "dateTime": 1519156004446}, {"current_trial": 151, "trialdata": {"rt": -1, "trial_type": "single-stim", "stimulus": "<p id=\"stim\">5</p>", "internal_node_id": "0.0-110.0-5.0", "time_elapsed": 883651, "key_press": -1, "trial_index": 151}, "uniqueid": "MTK2613:3VW04L3ZLUDKAKXYFMDIENURSW2XX7", "dateTime": 1519156005446}, {"current_trial": 152, "trialdata": {"rt": -1, "trial_type": "single-stim", "stimulus": "<p id=\"stim\">4</p>", "internal_node_id": "0.0-110.0-6.0", "time_elapsed": 884652, "key_press": -1, "trial_index": 152}, "uniqueid": "MTK2613:3VW04L3ZLUDKAKXYFMDIENURSW2XX7", "dateTime": 1519156006447}, {"current_trial": 153, "trialdata": {"rt": -1, "trial_type": "single-stim", "stimulus": "<p id=\"stim\">3</p>", "internal_node_id": "0.0-110.0-7.0", "time_elapsed": 885653, "key_press": -1, "trial_index": 153}, "uniqueid": "MTK2613:3VW04L3ZLUDKAKXYFMDIENURSW2XX7", "dateTime": 1519156007448}, {"current_trial": 154, "trialdata": {"rt": -1, "trial_type": "single-stim", "stimulus": "<p id=\"stim\">2</p>", "internal_node_id": "0.0-110.0-8.0", "time_elapsed": 886654, "key_press": -1, "trial_index": 154}, "uniqueid": "MTK2613:3VW04L3ZLUDKAKXYFMDIENURSW2XX7", "dateTime": 1519156008449}, {"current_trial": 155, "trialdata": {"rt": -1, "trial_type": "single-stim", "stimulus": "<p id=\"stim\">1</p>", "internal_node_id": "0.0-110.0-9.0", "time_elapsed": 887655, "key_press": -1, "trial_index": 155}, "uniqueid": "MTK2613:3VW04L3ZLUDKAKXYFMDIENURSW2XX7", "dateTime": 1519156009450}, {"current_trial": 156, "trialdata": {"rt": -1, "trial_type": "single-stim", "stimulus": "<p id=\"stim\">+</p>", "internal_node_id": "0.0-111.0-0.0", "time_elapsed": 889156, "key_press": -1, "type": "FIXATION", "trial_index": 156}, "uniqueid": "MTK2613:3VW04L3ZLUDKAKXYFMDIENURSW2XX7", "dateTime": 1519156010951}, {"current_trial": 157, "trialdata": {"rt": -1000, "trial_type": "single-audio", "word": "briefcase", "stimulus": "/static/audio/wordpool/BRIEFCASE.wav", "conditions": [12, 1600, "a", 24000], "internal_node_id": "0.0-112.0", "trial": 4, "time_elapsed": 891758, "serialpos": 0, "key_press": -1, "wordID": 174, "type": "PRES_AUD", "trial_index": 157}, "uniqueid": "MTK2613:3VW04L3ZLUDKAKXYFMDIENURSW2XX7", "dateTime": 1519156013553}, {"current_trial": 158, "trialdata": {"rt": -1000, "trial_type": "single-audio", "word": "pocket", "stimulus": "/static/audio/wordpool/POCKET.wav", "conditions": [12, 1600, "a", 24000], "internal_node_id": "0.0-113.0", "trial": 4, "time_elapsed": 894331, "serialpos": 1, "key_press": -1, "wordID": 1092, "type": "PRES_AUD", "trial_index": 158}, "uniqueid": "MTK2613:3VW04L3ZLUDKAKXYFMDIENURSW2XX7", "dateTime": 1519156016126}, {"current_trial": 159, "trialdata": {"rt": -1000, "trial_type": "single-audio", "word": "valve", "stimulus": "/static/audio/wordpool/VALVE.wav", "conditions": [12, 1600, "a", 24000], "internal_node_id": "0.0-114.0", "trial": 4, "time_elapsed": 896980, "serialpos": 2, "key_press": -1, "wordID": 1545, "type": "PRES_AUD", "trial_index": 159}, "uniqueid": "MTK2613:3VW04L3ZLUDKAKXYFMDIENURSW2XX7", "dateTime": 1519156018775}, {"current_trial": 160, "trialdata": {"rt": -1000, "trial_type": "single-audio", "word": "turnip", "stimulus": "/static/audio/wordpool/TURNIP.wav", "conditions": [12, 1600, "a", 24000], "internal_node_id": "0.0-115.0", "trial": 4, "time_elapsed": 899514, "serialpos": 3, "key_press": -1, "wordID": 1520, "type": "PRES_AUD", "trial_index": 160}, "uniqueid": "MTK2613:3VW04L3ZLUDKAKXYFMDIENURSW2XX7", "dateTime": 1519156021309}, {"current_trial": 161, "trialdata": {"rt": -1000, "trial_type": "single-audio", "word": "shoulder", "stimulus": "/static/audio/wordpool/SHOULDER.wav", "conditions": [12, 1600, "a", 24000], "internal_node_id": "0.0-116.0", "trial": 4, "time_elapsed": 902055, "serialpos": 4, "key_press": -1, "wordID": 1293, "type": "PRES_AUD", "trial_index": 161}, "uniqueid": "MTK2613:3VW04L3ZLUDKAKXYFMDIENURSW2XX7", "dateTime": 1519156023850}, {"current_trial": 162, "trialdata": {"rt": -1000, "trial_type": "single-audio", "word": "orange", "stimulus": "/static/audio/wordpool/ORANGE.wav", "conditions": [12, 1600, "a", 24000], "internal_node_id": "0.0-117.0", "trial": 4, "time_elapsed": 904719, "serialpos": 5, "key_press": -1, "wordID": 979, "type": "PRES_AUD", "trial_index": 162}, "uniqueid": "MTK2613:3VW04L3ZLUDKAKXYFMDIENURSW2XX7", "dateTime": 1519156026514}, {"current_trial": 163, "trialdata": {"rt": -1000, "trial_type": "single-audio", "word": "hawk", "stimulus": "/static/audio/wordpool/HAWK.wav", "conditions": [12, 1600, "a", 24000], "internal_node_id": "0.0-118.0", "trial": 4, "time_elapsed": 907181, "serialpos": 6, "key_press": -1, "wordID": 691, "type": "PRES_AUD", "trial_index": 163}, "uniqueid": "MTK2613:3VW04L3ZLUDKAKXYFMDIENURSW2XX7", "dateTime": 1519156028976}, {"current_trial": 164, "trialdata": {"rt": -1000, "trial_type": "single-audio", "word": "seagull", "stimulus": "/static/audio/wordpool/SEAGULL.wav", "conditions": [12, 1600, "a", 24000], "internal_node_id": "0.0-119.0", "trial": 4, "time_elapsed": 909723, "serialpos": 7, "key_press": -1, "wordID": 1260, "type": "PRES_AUD", "trial_index": 164}, "uniqueid": "MTK2613:3VW04L3ZLUDKAKXYFMDIENURSW2XX7", "dateTime": 1519156031518}, {"current_trial": 165, "trialdata": {"rt": -1000, "trial_type": "single-audio", "word": "cloud", "stimulus": "/static/audio/wordpool/CLOUD.wav", "conditions": [12, 1600, "a", 24000], "internal_node_id": "0.0-120.0", "trial": 4, "time_elapsed": 912293, "serialpos": 8, "key_press": -1, "wordID": 327, "type": "PRES_AUD", "trial_index": 165}, "uniqueid": "MTK2613:3VW04L3ZLUDKAKXYFMDIENURSW2XX7", "dateTime": 1519156034088}, {"current_trial": 166, "trialdata": {"rt": -1000, "trial_type": "single-audio", "word": "heart", "stimulus": "/static/audio/wordpool/HEART.wav", "conditions": [12, 1600, "a", 24000], "internal_node_id": "0.0-121.0", "trial": 4, "time_elapsed": 914965, "serialpos": 9, "key_press": -1, "wordID": 696, "type": "PRES_AUD", "trial_index": 166}, "uniqueid": "MTK2613:3VW04L3ZLUDKAKXYFMDIENURSW2XX7", "dateTime": 1519156036760}, {"current_trial": 167, "trialdata": {"rt": -1000, "trial_type": "single-audio", "word": "radish", "stimulus": "/static/audio/wordpool/RADISH.wav", "conditions": [12, 1600, "a", 24000], "internal_node_id": "0.0-122.0", "trial": 4, "time_elapsed": 917475, "serialpos": 10, "key_press": -1, "wordID": 1157, "type": "PRES_AUD", "trial_index": 167}, "uniqueid": "MTK2613:3VW04L3ZLUDKAKXYFMDIENURSW2XX7", "dateTime": 1519156039270}, {"current_trial": 168, "trialdata": {"rt": -1000, "trial_type": "single-audio", "word": "donor", "stimulus": "/static/audio/wordpool/DONOR.wav", "conditions": [12, 1600, "a", 24000], "internal_node_id": "0.0-123.0", "trial": 4, "time_elapsed": 919936, "serialpos": 11, "key_press": -1, "wordID": 484, "type": "PRES_AUD", "trial_index": 168}, "uniqueid": "MTK2613:3VW04L3ZLUDKAKXYFMDIENURSW2XX7", "dateTime": 1519156041731}, {"current_trial": 169, "trialdata": {"rt": -1, "trial_type": "single-stim", "stimulus": "", "internal_node_id": "0.0-124.0-0.0", "time_elapsed": 921177, "key_press": -1, "type": "PRE_RECALL_DELAY", "trial_index": 169}, "uniqueid": "MTK2613:3VW04L3ZLUDKAKXYFMDIENURSW2XX7", "dateTime": 1519156042972}, {"current_trial": 170, "trialdata": {"rt": -1000, "trial_type": "single-audio", "stimulus": "/static/audio/400Hz.wav", "internal_node_id": "0.0-125.0", "time_elapsed": 921678, "key_press": -1, "type": "PRE_RECALL_ALERT", "trial_index": 170}, "uniqueid": "MTK2613:3VW04L3ZLUDKAKXYFMDIENURSW2XX7", "dateTime": 1519156043473}, {"current_trial": 171, "trialdata": {"rt": [3931, 6699, 8467, 9939, 12347, 13387, 17457, 19915, 24764, 32026, 38724], "recwords": ["briefcase", "turnip", "valve", "radish", "cloud", "hawk", "eagle", "orange", "donor", "pocket", "shoulder"], "key_times": [2426, 2594, 2658, 2770, 2946, 3162, 3306, 3538, 3762, 3931, 5626, 5721, 5906, 6018, 6225, 6420, 6699, 7122, 7242, 7298, 8114, 8204, 8467, 8666, 8794, 9402, 9515, 9609, 9722, 9939, 10523, 10866, 10978, 11453, 11596, 11866, 12042, 12114, 12226, 12347, 12778, 12810, 12929, 13042, 13387, 15354, 15914, 16402, 16490, 16980, 17203, 17347, 17457, 19154, 19258, 19338, 19506, 19666, 19738, 19915, 24178, 24266, 24345, 24474, 24634, 24764, 31170, 31362, 31594, 31706, 31826, 31914, 32026, 37890, 38002, 38114, 38162, 38290, 38394, 38562, 38610, 38724], "trial_type": "free-recall", "conditions": [12, 1600, "a", 24000], "internal_node_id": "0.0-126.0-0.0", "key_presses": [66, 82, 73, 69, 70, 67, 65, 83, 69, 13, 84, 85, 82, 78, 73, 80, 13, 86, 65, 76, 86, 69, 13, 82, 65, 68, 73, 83, 72, 13, 67, 79, 85, 8, 8, 76, 79, 85, 68, 13, 72, 65, 87, 75, 13, 69, 65, 71, 69, 8, 76, 69, 13, 79, 82, 65, 78, 71, 69, 13, 68, 79, 78, 79, 82, 13, 80, 79, 67, 75, 69, 84, 13, 83, 72, 79, 85, 76, 68, 69, 82, 13], "trial": 4, "time_elapsed": 981681, "type": "FREE_RECALL", "trial_index": 171}, "uniqueid": "MTK2613:3VW04L3ZLUDKAKXYFMDIENURSW2XX7", "dateTime": 1519156103477}, {"current_trial": 172, "trialdata": {"rt": 1062, "trial_type": "text", "internal_node_id": "0.0-127.0", "time_elapsed": 984746, "key_press": 32, "type": "INSTRUCTIONS", "trial_index": 172}, "uniqueid": "MTK2613:3VW04L3ZLUDKAKXYFMDIENURSW2XX7", "dateTime": 1519156106541}, {"current_trial": 173, "trialdata": {"rt": [3574, 6551, 8567, 11711, 15519, 17087, 22303], "trial_type": "math-distractor", "key_times": [3206, 3342, 3574, 5295, 5310, 5902, 6551, 8198, 8358, 8567, 11254, 11453, 11711, 15046, 15254, 15519, 16653, 16814, 17087, 21902, 22110, 22303, 23982], "responses": ["25", "16", "14", "17", "16", "12", "24"], "num2": [9, 7, 1, 5, 4, 8, 7, 1], "num3": [9, 3, 7, 8, 8, 2, 8, 4], "conditions": [12, 1600, "a", 24000], "internal_node_id": "0.0-128.0", "key_presses": [98, 101, 13, 38, 97, 102, 13, 97, 100, 13, 97, 103, 13, 97, 102, 13, 97, 98, 13, 98, 100, 13, 103], "trial": 5, "time_elapsed": 1010749, "type": "DISTRACTOR", "trial_index": 173, "num1": [7, 6, 6, 4, 4, 2, 9, 2]}, "uniqueid": "MTK2613:3VW04L3ZLUDKAKXYFMDIENURSW2XX7", "dateTime": 1519156132544}, {"current_trial": 174, "trialdata": {"rt": -1, "trial_type": "single-stim", "stimulus": "<p id=\"stim\">10</p>", "internal_node_id": "0.0-129.0-0.0", "time_elapsed": 1013751, "key_press": -1, "trial_index": 174}, "uniqueid": "MTK2613:3VW04L3ZLUDKAKXYFMDIENURSW2XX7", "dateTime": 1519156135546}, {"current_trial": 175, "trialdata": {"rt": -1, "trial_type": "single-stim", "stimulus": "<p id=\"stim\">9</p>", "internal_node_id": "0.0-129.0-1.0", "time_elapsed": 1014752, "key_press": -1, "trial_index": 175}, "uniqueid": "MTK2613:3VW04L3ZLUDKAKXYFMDIENURSW2XX7", "dateTime": 1519156136547}, {"current_trial": 176, "trialdata": {"rt": -1, "trial_type": "single-stim", "stimulus": "<p id=\"stim\">8</p>", "internal_node_id": "0.0-129.0-2.0", "time_elapsed": 1015753, "key_press": -1, "trial_index": 176}, "uniqueid": "MTK2613:3VW04L3ZLUDKAKXYFMDIENURSW2XX7", "dateTime": 1519156137548}, {"current_trial": 177, "trialdata": {"rt": -1, "trial_type": "single-stim", "stimulus": "<p id=\"stim\">7</p>", "internal_node_id": "0.0-129.0-3.0", "time_elapsed": 1016754, "key_press": -1, "trial_index": 177}, "uniqueid": "MTK2613:3VW04L3ZLUDKAKXYFMDIENURSW2XX7", "dateTime": 1519156138549}, {"current_trial": 178, "trialdata": {"rt": -1, "trial_type": "single-stim", "stimulus": "<p id=\"stim\">6</p>", "internal_node_id": "0.0-129.0-4.0", "time_elapsed": 1017755, "key_press": -1, "trial_index": 178}, "uniqueid": "MTK2613:3VW04L3ZLUDKAKXYFMDIENURSW2XX7", "dateTime": 1519156139550}, {"current_trial": 179, "trialdata": {"rt": -1, "trial_type": "single-stim", "stimulus": "<p id=\"stim\">5</p>", "internal_node_id": "0.0-129.0-5.0", "time_elapsed": 1018756, "key_press": -1, "trial_index": 179}, "uniqueid": "MTK2613:3VW04L3ZLUDKAKXYFMDIENURSW2XX7", "dateTime": 1519156140552}, {"current_trial": 180, "trialdata": {"rt": -1, "trial_type": "single-stim", "stimulus": "<p id=\"stim\">4</p>", "internal_node_id": "0.0-129.0-6.0", "time_elapsed": 1019758, "key_press": -1, "trial_index": 180}, "uniqueid": "MTK2613:3VW04L3ZLUDKAKXYFMDIENURSW2XX7", "dateTime": 1519156141553}, {"current_trial": 181, "trialdata": {"rt": -1, "trial_type": "single-stim", "stimulus": "<p id=\"stim\">3</p>", "internal_node_id": "0.0-129.0-7.0", "time_elapsed": 1020759, "key_press": -1, "trial_index": 181}, "uniqueid": "MTK2613:3VW04L3ZLUDKAKXYFMDIENURSW2XX7", "dateTime": 1519156142554}, {"current_trial": 182, "trialdata": {"rt": -1, "trial_type": "single-stim", "stimulus": "<p id=\"stim\">2</p>", "internal_node_id": "0.0-129.0-8.0", "time_elapsed": 1021759, "key_press": -1, "trial_index": 182}, "uniqueid": "MTK2613:3VW04L3ZLUDKAKXYFMDIENURSW2XX7", "dateTime": 1519156143554}, {"current_trial": 183, "trialdata": {"rt": -1, "trial_type": "single-stim", "stimulus": "<p id=\"stim\">1</p>", "internal_node_id": "0.0-129.0-9.0", "time_elapsed": 1022760, "key_press": -1, "trial_index": 183}, "uniqueid": "MTK2613:3VW04L3ZLUDKAKXYFMDIENURSW2XX7", "dateTime": 1519156144555}, {"current_trial": 184, "trialdata": {"rt": -1, "trial_type": "single-stim", "stimulus": "<p id=\"stim\">+</p>", "internal_node_id": "0.0-130.0-0.0", "time_elapsed": 1024261, "key_press": -1, "type": "FIXATION", "trial_index": 184}, "uniqueid": "MTK2613:3VW04L3ZLUDKAKXYFMDIENURSW2XX7", "dateTime": 1519156146056}, {"current_trial": 185, "trialdata": {"rt": -1000, "trial_type": "single-audio", "word": "lightning", "stimulus": "/static/audio/wordpool/LIGHTNING.wav", "conditions": [12, 1600, "a", 24000], "internal_node_id": "0.0-131.0", "trial": 5, "time_elapsed": 1026987, "serialpos": 0, "key_press": -1, "wordID": 819, "type": "PRES_AUD", "trial_index": 185}, "uniqueid": "MTK2613:3VW04L3ZLUDKAKXYFMDIENURSW2XX7", "dateTime": 1519156148782}, {"current_trial": 186, "trialdata": {"rt": -1000, "trial_type": "single-audio", "word": "banjo", "stimulus": "/static/audio/wordpool/BANJO.wav", "conditions": [12, 1600, "a", 24000], "internal_node_id": "0.0-132.0", "trial": 5, "time_elapsed": 1029461, "serialpos": 1, "key_press": -1, "wordID": 81, "type": "PRES_AUD", "trial_index": 186}, "uniqueid": "MTK2613:3VW04L3ZLUDKAKXYFMDIENURSW2XX7", "dateTime": 1519156151256}, {"current_trial": 187, "trialdata": {"rt": -1000, "trial_type": "single-audio", "word": "basement", "stimulus": "/static/audio/wordpool/BASEMENT.wav", "conditions": [12, 1600, "a", 24000], "internal_node_id": "0.0-133.0", "trial": 5, "time_elapsed": 1032086, "serialpos": 2, "key_press": -1, "wordID": 93, "type": "PRES_AUD", "trial_index": 187}, "uniqueid": "MTK2613:3VW04L3ZLUDKAKXYFMDIENURSW2XX7", "dateTime": 1519156153881}, {"current_trial": 188, "trialdata": {"rt": -1000, "trial_type": "single-audio", "word": "crayon", "stimulus": "/static/audio/wordpool/CRAYON.wav", "conditions": [12, 1600, "a", 24000], "internal_node_id": "0.0-134.0", "trial": 5, "time_elapsed": 1034862, "serialpos": 3, "key_press": -1, "wordID": 400, "type": "PRES_AUD", "trial_index": 188}, "uniqueid": "MTK2613:3VW04L3ZLUDKAKXYFMDIENURSW2XX7", "dateTime": 1519156156657}, {"current_trial": 189, "trialdata": {"rt": -1000, "trial_type": "single-audio", "word": "france", "stimulus": "/static/audio/wordpool/FRANCE.wav", "conditions": [12, 1600, "a", 24000], "internal_node_id": "0.0-135.0", "trial": 5, "time_elapsed": 1037611, "serialpos": 4, "key_press": -1, "wordID": 600, "type": "PRES_AUD", "trial_index": 189}, "uniqueid": "MTK2613:3VW04L3ZLUDKAKXYFMDIENURSW2XX7", "dateTime": 1519156159406}, {"current_trial": 190, "trialdata": {"rt": -1000, "trial_type": "single-audio", "word": "friend", "stimulus": "/static/audio/wordpool/FRIEND.wav", "conditions": [12, 1600, "a", 24000], "internal_node_id": "0.0-136.0", "trial": 5, "time_elapsed": 1040017, "serialpos": 5, "key_press": -1, "wordID": 605, "type": "PRES_AUD", "trial_index": 190}, "uniqueid": "MTK2613:3VW04L3ZLUDKAKXYFMDIENURSW2XX7", "dateTime": 1519156161812}, {"current_trial": 191, "trialdata": {"rt": -1000, "trial_type": "single-audio", "word": "trombone", "stimulus": "/static/audio/wordpool/TROMBONE.wav", "conditions": [12, 1600, "a", 24000], "internal_node_id": "0.0-137.0", "trial": 5, "time_elapsed": 1042726, "serialpos": 6, "key_press": -1, "wordID": 1507, "type": "PRES_AUD", "trial_index": 191}, "uniqueid": "MTK2613:3VW04L3ZLUDKAKXYFMDIENURSW2XX7", "dateTime": 1519156164522}, {"current_trial": 192, "trialdata": {"rt": -1000, "trial_type": "single-audio", "word": "cod", "stimulus": "/static/audio/wordpool/COD.wav", "conditions": [12, 1600, "a", 24000], "internal_node_id": "0.0-138.0", "trial": 5, "time_elapsed": 1045136, "serialpos": 7, "key_press": -1, "wordID": 339, "type": "PRES_AUD", "trial_index": 192}, "uniqueid": "MTK2613:3VW04L3ZLUDKAKXYFMDIENURSW2XX7", "dateTime": 1519156166931}, {"current_trial": 193, "trialdata": {"rt": -1000, "trial_type": "single-audio", "word": "taxi", "stimulus": "/static/audio/wordpool/TAXI.wav", "conditions": [12, 1600, "a", 24000], "internal_node_id": "0.0-139.0", "trial": 5, "time_elapsed": 1047850, "serialpos": 8, "key_press": -1, "wordID": 1437, "type": "PRES_AUD", "trial_index": 193}, "uniqueid": "MTK2613:3VW04L3ZLUDKAKXYFMDIENURSW2XX7", "dateTime": 1519156169645}, {"current_trial": 194, "trialdata": {"rt": -1000, "trial_type": "single-audio", "word": "pilot", "stimulus": "/static/audio/wordpool/PILOT.wav", "conditions": [12, 1600, "a", 24000], "internal_node_id": "0.0-140.0", "trial": 5, "time_elapsed": 1050451, "serialpos": 9, "key_press": -1, "wordID": 1069, "type": "PRES_AUD", "trial_index": 194}, "uniqueid": "MTK2613:3VW04L3ZLUDKAKXYFMDIENURSW2XX7", "dateTime": 1519156172246}, {"current_trial": 195, "trialdata": {"rt": -1000, "trial_type": "single-audio", "word": "peach", "stimulus": "/static/audio/wordpool/PEACH.wav", "conditions": [12, 1600, "a", 24000], "internal_node_id": "0.0-141.0", "trial": 5, "time_elapsed": 1053174, "serialpos": 10, "key_press": -1, "wordID": 1030, "type": "PRES_AUD", "trial_index": 195}, "uniqueid": "MTK2613:3VW04L3ZLUDKAKXYFMDIENURSW2XX7", "dateTime": 1519156174969}, {"current_trial": 196, "trialdata": {"rt": -1000, "trial_type": "single-audio", "word": "citrus", "stimulus": "/static/audio/wordpool/CITRUS.wav", "conditions": [12, 1600, "a", 24000], "internal_node_id": "0.0-142.0", "trial": 5, "time_elapsed": 1055837, "serialpos": 11, "key_press": -1, "wordID": 312, "type": "PRES_AUD", "trial_index": 196}, "uniqueid": "MTK2613:3VW04L3ZLUDKAKXYFMDIENURSW2XX7", "dateTime": 1519156177632}, {"current_trial": 197, "trialdata": {"rt": -1, "trial_type": "single-stim", "stimulus": "", "internal_node_id": "0.0-143.0-0.0", "time_elapsed": 1057205, "key_press": -1, "type": "PRE_RECALL_DELAY", "trial_index": 197}, "uniqueid": "MTK2613:3VW04L3ZLUDKAKXYFMDIENURSW2XX7", "dateTime": 1519156179000}, {"current_trial": 198, "trialdata": {"rt": -1000, "trial_type": "single-audio", "stimulus": "/static/audio/400Hz.wav", "internal_node_id": "0.0-144.0", "time_elapsed": 1057705, "key_press": -1, "type": "PRE_RECALL_ALERT", "trial_index": 198}, "uniqueid": "MTK2613:3VW04L3ZLUDKAKXYFMDIENURSW2XX7", "dateTime": 1519156179500}, {"current_trial": 199, "trialdata": {"rt": [2801, 6688, 11776, 12832, 13599, 15496, 18296, 19984, 27432, 38303], "recwords": ["banjoy", "lightening", "pilot", "taxi", "cod", "citrus", "friend", "france", "basement", "trombone"], "key_times": [1801, 1951, 1983, 2143, 2383, 2583, 2801, 4511, 4703, 4759, 5312, 5441, 5663, 5751, 5863, 5951, 6023, 6119, 6247, 6302, 6439, 6688, 9399, 10799, 11096, 11303, 11496, 11631, 11776, 12151, 12223, 12463, 12615, 12832, 13279, 13351, 13479, 13599, 14711, 14799, 14919, 15079, 15167, 15367, 15496, 17639, 17791, 17847, 17999, 18071, 18207, 18296, 18823, 18951, 19103, 19151, 19367, 19863, 19984, 25489, 25623, 25687, 25999, 26223, 26455, 27000, 27096, 27222, 27327, 27432, 35439, 35615, 35721, 35943, 36472, 37551, 37783, 37926, 38023, 38135, 38303], "trial_type": "free-recall", "conditions": [12, 1600, "a", 24000], "internal_node_id": "0.0-145.0-0.0", "key_presses": [66, 65, 78, 74, 79, 89, 13, 76, 76, 73, 8, 8, 73, 71, 72, 84, 69, 78, 73, 78, 71, 13, 8, 80, 73, 76, 79, 84, 13, 84, 65, 88, 73, 13, 67, 79, 68, 13, 67, 73, 84, 82, 85, 83, 13, 70, 82, 73, 69, 78, 68, 13, 70, 82, 65, 78, 67, 69, 13, 66, 65, 83, 69, 77, 78, 8, 69, 78, 84, 13, 84, 82, 79, 66, 8, 77, 66, 79, 78, 69, 13], "trial": 5, "time_elapsed": 1117707, "type": "FREE_RECALL", "trial_index": 199}, "uniqueid": "MTK2613:3VW04L3ZLUDKAKXYFMDIENURSW2XX7", "dateTime": 1519156239504}, {"current_trial": 200, "trialdata": {"rt": 972, "trial_type": "text", "internal_node_id": "0.0-146.0", "time_elapsed": 1120682, "key_press": 32, "type": "INSTRUCTIONS", "trial_index": 200}, "uniqueid": "MTK2613:3VW04L3ZLUDKAKXYFMDIENURSW2XX7", "dateTime": 1519156242477}, {"current_trial": 201, "trialdata": {"rt": [3606, 5319, 7136, 9839, 11463, 13079, 15160, 17599, 20087, 22271], "trial_type": "math-distractor", "key_times": [3110, 3350, 3606, 4910, 5078, 5319, 6694, 6862, 7136, 9415, 9606, 9839, 11054, 11199, 11463, 12630, 12814, 13079, 14750, 14893, 15160, 17182, 17325, 17599, 19478, 19678, 20087, 21862, 22038, 22271], "responses": ["19", "14", "13", "16", "11", "10", "12", "20", "18", "16"], "num2": [8, 9, 3, 9, 6, 4, 5, 8, 8, 7, 7], "num3": [6, 4, 3, 2, 3, 5, 3, 6, 4, 4, 6], "conditions": [12, 800, "a", 24000], "internal_node_id": "0.0-147.0", "key_presses": [97, 105, 13, 97, 100, 13, 97, 99, 13, 97, 102, 13, 97, 97, 13, 97, 96, 13, 97, 98, 13, 98, 96, 13, 97, 104, 13, 97, 102, 13], "trial": 6, "time_elapsed": 1146684, "type": "DISTRACTOR", "trial_index": 201, "num1": [5, 1, 7, 5, 2, 1, 4, 6, 6, 5, 9]}, "uniqueid": "MTK2613:3VW04L3ZLUDKAKXYFMDIENURSW2XX7", "dateTime": 1519156268479}, {"current_trial": 202, "trialdata": {"rt": -1, "trial_type": "single-stim", "stimulus": "<p id=\"stim\">10</p>", "internal_node_id": "0.0-148.0-0.0", "time_elapsed": 1149687, "key_press": -1, "trial_index": 202}, "uniqueid": "MTK2613:3VW04L3ZLUDKAKXYFMDIENURSW2XX7", "dateTime": 1519156271482}, {"current_trial": 203, "trialdata": {"rt": -1, "trial_type": "single-stim", "stimulus": "<p id=\"stim\">9</p>", "internal_node_id": "0.0-148.0-1.0", "time_elapsed": 1150688, "key_press": -1, "trial_index": 203}, "uniqueid": "MTK2613:3VW04L3ZLUDKAKXYFMDIENURSW2XX7", "dateTime": 1519156272483}, {"current_trial": 204, "trialdata": {"rt": -1, "trial_type": "single-stim", "stimulus": "<p id=\"stim\">8</p>", "internal_node_id": "0.0-148.0-2.0", "time_elapsed": 1151688, "key_press": -1, "trial_index": 204}, "uniqueid": "MTK2613:3VW04L3ZLUDKAKXYFMDIENURSW2XX7", "dateTime": 1519156273483}, {"current_trial": 205, "trialdata": {"rt": -1, "trial_type": "single-stim", "stimulus": "<p id=\"stim\">7</p>", "internal_node_id": "0.0-148.0-3.0", "time_elapsed": 1152690, "key_press": -1, "trial_index": 205}, "uniqueid": "MTK2613:3VW04L3ZLUDKAKXYFMDIENURSW2XX7", "dateTime": 1519156274485}, {"current_trial": 206, "trialdata": {"rt": -1, "trial_type": "single-stim", "stimulus": "<p id=\"stim\">6</p>", "internal_node_id": "0.0-148.0-4.0", "time_elapsed": 1153692, "key_press": -1, "trial_index": 206}, "uniqueid": "MTK2613:3VW04L3ZLUDKAKXYFMDIENURSW2XX7", "dateTime": 1519156275488}, {"current_trial": 207, "trialdata": {"rt": -1, "trial_type": "single-stim", "stimulus": "<p id=\"stim\">5</p>", "internal_node_id": "0.0-148.0-5.0", "time_elapsed": 1154694, "key_press": -1, "trial_index": 207}, "uniqueid": "MTK2613:3VW04L3ZLUDKAKXYFMDIENURSW2XX7", "dateTime": 1519156276489}, {"current_trial": 208, "trialdata": {"rt": -1, "trial_type": "single-stim", "stimulus": "<p id=\"stim\">4</p>", "internal_node_id": "0.0-148.0-6.0", "time_elapsed": 1155695, "key_press": -1, "trial_index": 208}, "uniqueid": "MTK2613:3VW04L3ZLUDKAKXYFMDIENURSW2XX7", "dateTime": 1519156277490}, {"current_trial": 209, "trialdata": {"rt": -1, "trial_type": "single-stim", "stimulus": "<p id=\"stim\">3</p>", "internal_node_id": "0.0-148.0-7.0", "time_elapsed": 1156697, "key_press": -1, "trial_index": 209}, "uniqueid": "MTK2613:3VW04L3ZLUDKAKXYFMDIENURSW2XX7", "dateTime": 1519156278492}, {"current_trial": 210, "trialdata": {"rt": -1, "trial_type": "single-stim", "stimulus": "<p id=\"stim\">2</p>", "internal_node_id": "0.0-148.0-8.0", "time_elapsed": 1157699, "key_press": -1, "trial_index": 210}, "uniqueid": "MTK2613:3VW04L3ZLUDKAKXYFMDIENURSW2XX7", "dateTime": 1519156279494}, {"current_trial": 211, "trialdata": {"rt": -1, "trial_type": "single-stim", "stimulus": "<p id=\"stim\">1</p>", "internal_node_id": "0.0-148.0-9.0", "time_elapsed": 1158700, "key_press": -1, "trial_index": 211}, "uniqueid": "MTK2613:3VW04L3ZLUDKAKXYFMDIENURSW2XX7", "dateTime": 1519156280495}, {"current_trial": 212, "trialdata": {"rt": -1, "trial_type": "single-stim", "stimulus": "<p id=\"stim\">+</p>", "internal_node_id": "0.0-149.0-0.0", "time_elapsed": 1160201, "key_press": -1, "type": "FIXATION", "trial_index": 212}, "uniqueid": "MTK2613:3VW04L3ZLUDKAKXYFMDIENURSW2XX7", "dateTime": 1519156281996}, {"current_trial": 213, "trialdata": {"rt": -1000, "trial_type": "single-audio", "word": "rocket", "stimulus": "/static/audio/wordpool/ROCKET.wav", "conditions": [12, 800, "a", 24000], "internal_node_id": "0.0-150.0", "trial": 6, "time_elapsed": 1161965, "serialpos": 0, "key_press": -1, "wordID": 1201, "type": "PRES_AUD", "trial_index": 213}, "uniqueid": "MTK2613:3VW04L3ZLUDKAKXYFMDIENURSW2XX7", "dateTime": 1519156283760}, {"current_trial": 214, "trialdata": {"rt": -1000, "trial_type": "single-audio", "word": "flipper", "stimulus": "/static/audio/wordpool/FLIPPER.wav", "conditions": [12, 800, "a", 24000], "internal_node_id": "0.0-151.0", "trial": 6, "time_elapsed": 1163846, "serialpos": 1, "key_press": -1, "wordID": 579, "type": "PRES_AUD", "trial_index": 214}, "uniqueid": "MTK2613:3VW04L3ZLUDKAKXYFMDIENURSW2XX7", "dateTime": 1519156285641}, {"current_trial": 215, "trialdata": {"rt": -1000, "trial_type": "single-audio", "word": "shelter", "stimulus": "/static/audio/wordpool/SHELTER.wav", "conditions": [12, 800, "a", 24000], "internal_node_id": "0.0-152.0", "trial": 6, "time_elapsed": 1165814, "serialpos": 2, "key_press": -1, "wordID": 1281, "type": "PRES_AUD", "trial_index": 215}, "uniqueid": "MTK2613:3VW04L3ZLUDKAKXYFMDIENURSW2XX7", "dateTime": 1519156287609}, {"current_trial": 216, "trialdata": {"rt": -1000, "trial_type": "single-audio", "word": "notebook", "stimulus": "/static/audio/wordpool/NOTEBOOK.wav", "conditions": [12, 800, "a", 24000], "internal_node_id": "0.0-153.0", "trial": 6, "time_elapsed": 1167558, "serialpos": 3, "key_press": -1, "wordID": 958, "type": "PRES_AUD", "trial_index": 216}, "uniqueid": "MTK2613:3VW04L3ZLUDKAKXYFMDIENURSW2XX7", "dateTime": 1519156289353}, {"current_trial": 217, "trialdata": {"rt": -1000, "trial_type": "single-audio", "word": "knife", "stimulus": "/static/audio/wordpool/KNIFE.wav", "conditions": [12, 800, "a", 24000], "internal_node_id": "0.0-154.0", "trial": 6, "time_elapsed": 1169388, "serialpos": 4, "key_press": -1, "wordID": 784, "type": "PRES_AUD", "trial_index": 217}, "uniqueid": "MTK2613:3VW04L3ZLUDKAKXYFMDIENURSW2XX7", "dateTime": 1519156291183}, {"current_trial": 218, "trialdata": {"rt": -1000, "trial_type": "single-audio", "word": "missile", "stimulus": "/static/audio/wordpool/MISSILE.wav", "conditions": [12, 800, "a", 24000], "internal_node_id": "0.0-155.0", "trial": 6, "time_elapsed": 1171370, "serialpos": 5, "key_press": -1, "wordID": 899, "type": "PRES_AUD", "trial_index": 218}, "uniqueid": "MTK2613:3VW04L3ZLUDKAKXYFMDIENURSW2XX7", "dateTime": 1519156293165}, {"current_trial": 219, "trialdata": {"rt": -1000, "trial_type": "single-audio", "word": "climber", "stimulus": "/static/audio/wordpool/CLIMBER.wav", "conditions": [12, 800, "a", 24000], "internal_node_id": "0.0-156.0", "trial": 6, "time_elapsed": 1173119, "serialpos": 6, "key_press": -1, "wordID": 322, "type": "PRES_AUD", "trial_index": 219}, "uniqueid": "MTK2613:3VW04L3ZLUDKAKXYFMDIENURSW2XX7", "dateTime": 1519156294914}, {"current_trial": 220, "trialdata": {"rt": -1000, "trial_type": "single-audio", "word": "hero", "stimulus": "/static/audio/wordpool/HERO.wav", "conditions": [12, 800, "a", 24000], "internal_node_id": "0.0-157.0", "trial": 6, "time_elapsed": 1174995, "serialpos": 7, "key_press": -1, "wordID": 705, "type": "PRES_AUD", "trial_index": 220}, "uniqueid": "MTK2613:3VW04L3ZLUDKAKXYFMDIENURSW2XX7", "dateTime": 1519156296790}, {"current_trial": 221, "trialdata": {"rt": -1000, "trial_type": "single-audio", "word": "stove", "stimulus": "/static/audio/wordpool/STOVE.wav", "conditions": [12, 800, "a", 24000], "internal_node_id": "0.0-158.0", "trial": 6, "time_elapsed": 1176733, "serialpos": 8, "key_press": -1, "wordID": 1387, "type": "PRES_AUD", "trial_index": 221}, "uniqueid": "MTK2613:3VW04L3ZLUDKAKXYFMDIENURSW2XX7", "dateTime": 1519156298528}, {"current_trial": 222, "trialdata": {"rt": -1000, "trial_type": "single-audio", "word": "toaster", "stimulus": "/static/audio/wordpool/TOASTER.wav", "conditions": [12, 800, "a", 24000], "internal_node_id": "0.0-159.0", "trial": 6, "time_elapsed": 1178482, "serialpos": 9, "key_press": -1, "wordID": 1471, "type": "PRES_AUD", "trial_index": 222}, "uniqueid": "MTK2613:3VW04L3ZLUDKAKXYFMDIENURSW2XX7", "dateTime": 1519156300277}, {"current_trial": 223, "trialdata": {"rt": -1000, "trial_type": "single-audio", "word": "sticker", "stimulus": "/static/audio/wordpool/STICKER.wav", "conditions": [12, 800, "a", 24000], "internal_node_id": "0.0-160.0", "trial": 6, "time_elapsed": 1180131, "serialpos": 10, "key_press": -1, "wordID": 1381, "type": "PRES_AUD", "trial_index": 223}, "uniqueid": "MTK2613:3VW04L3ZLUDKAKXYFMDIENURSW2XX7", "dateTime": 1519156301926}, {"current_trial": 224, "trialdata": {"rt": -1000, "trial_type": "single-audio", "word": "onion", "stimulus": "/static/audio/wordpool/ONION.wav", "conditions": [12, 800, "a", 24000], "internal_node_id": "0.0-161.0", "trial": 6, "time_elapsed": 1182027, "serialpos": 11, "key_press": -1, "wordID": 976, "type": "PRES_AUD", "trial_index": 224}, "uniqueid": "MTK2613:3VW04L3ZLUDKAKXYFMDIENURSW2XX7", "dateTime": 1519156303822}, {"current_trial": 225, "trialdata": {"rt": -1, "trial_type": "single-stim", "stimulus": "", "internal_node_id": "0.0-162.0-0.0", "time_elapsed": 1183389, "key_press": -1, "type": "PRE_RECALL_DELAY", "trial_index": 225}, "uniqueid": "MTK2613:3VW04L3ZLUDKAKXYFMDIENURSW2XX7", "dateTime": 1519156305184}, {"current_trial": 226, "trialdata": {"rt": -1000, "trial_type": "single-audio", "stimulus": "/static/audio/400Hz.wav", "internal_node_id": "0.0-163.0", "time_elapsed": 1183891, "key_press": -1, "type": "PRE_RECALL_ALERT", "trial_index": 226}, "uniqueid": "MTK2613:3VW04L3ZLUDKAKXYFMDIENURSW2XX7", "dateTime": 1519156305686}, {"current_trial": 227, "trialdata": {"rt": [1143, 2527, 5807, 7134, 12231, 13671, 18246], "recwords": ["rocket", "shelter", "sticker", "onion", "knife", "hero", "onion"], "key_times": [430, 493, 742, 814, 958, 1054, 1143, 1790, 1806, 1958, 2071, 2213, 2382, 2446, 2527, 4110, 4206, 4302, 4470, 4502, 5191, 5311, 5462, 5558, 5678, 5717, 5807, 6134, 6446, 6678, 6750, 6910, 7134, 11486, 11622, 11837, 11974, 12086, 12231, 13134, 13246, 13342, 13438, 13671, 17286, 17485, 17718, 17806, 18046, 18246, 59318, 59518, 59927], "trial_type": "free-recall", "conditions": [12, 800, "a", 24000], "internal_node_id": "0.0-164.0-0.0", "key_presses": [82, 79, 67, 75, 69, 84, 13, 83, 72, 69, 76, 84, 69, 82, 13, 83, 84, 73, 75, 67, 8, 8, 67, 75, 69, 82, 13, 79, 78, 73, 79, 78, 13, 75, 78, 73, 70, 69, 13, 72, 69, 82, 79, 13, 79, 78, 73, 79, 78, 13, 77, 73, 83], "trial": 6, "time_elapsed": 1243892, "type": "FREE_RECALL", "trial_index": 227}, "uniqueid": "MTK2613:3VW04L3ZLUDKAKXYFMDIENURSW2XX7", "dateTime": 1519156365689}, {"current_trial": 228, "trialdata": {"rt": 1372, "trial_type": "text", "internal_node_id": "0.0-165.0", "time_elapsed": 1247266, "key_press": 32, "type": "INSTRUCTIONS", "trial_index": 228}, "uniqueid": "MTK2613:3VW04L3ZLUDKAKXYFMDIENURSW2XX7", "dateTime": 1519156369062}, {"current_trial": 229, "trialdata": {"rt": [1975, 3415, 6631, 8336], "trial_type": "math-distractor", "key_times": [1693, 1975, 3078, 3214, 3415, 6214, 6414, 6631, 8078, 8336], "responses": ["9", "15", "18", "8"], "num2": [4, 7, 4, 1, 4], "num3": [1, 7, 5, 1, 9], "conditions": [12, 800, "a", 12000], "internal_node_id": "0.0-166.0", "key_presses": [105, 13, 97, 101, 13, 97, 104, 13, 104, 13], "trial": 7, "time_elapsed": 1261268, "type": "DISTRACTOR", "trial_index": 229, "num1": [4, 1, 9, 6, 2]}, "uniqueid": "MTK2613:3VW04L3ZLUDKAKXYFMDIENURSW2XX7", "dateTime": 1519156383063}, {"current_trial": 230, "trialdata": {"rt": -1, "trial_type": "single-stim", "stimulus": "<p id=\"stim\">10</p>", "internal_node_id": "0.0-167.0-0.0", "time_elapsed": 1264271, "key_press": -1, "trial_index": 230}, "uniqueid": "MTK2613:3VW04L3ZLUDKAKXYFMDIENURSW2XX7", "dateTime": 1519156386066}, {"current_trial": 231, "trialdata": {"rt": -1, "trial_type": "single-stim", "stimulus": "<p id=\"stim\">9</p>", "internal_node_id": "0.0-167.0-1.0", "time_elapsed": 1265272, "key_press": -1, "trial_index": 231}, "uniqueid": "MTK2613:3VW04L3ZLUDKAKXYFMDIENURSW2XX7", "dateTime": 1519156387067}, {"current_trial": 232, "trialdata": {"rt": -1, "trial_type": "single-stim", "stimulus": "<p id=\"stim\">8</p>", "internal_node_id": "0.0-167.0-2.0", "time_elapsed": 1266273, "key_press": -1, "trial_index": 232}, "uniqueid": "MTK2613:3VW04L3ZLUDKAKXYFMDIENURSW2XX7", "dateTime": 1519156388068}, {"current_trial": 233, "trialdata": {"rt": -1, "trial_type": "single-stim", "stimulus": "<p id=\"stim\">7</p>", "internal_node_id": "0.0-167.0-3.0", "time_elapsed": 1267274, "key_press": -1, "trial_index": 233}, "uniqueid": "MTK2613:3VW04L3ZLUDKAKXYFMDIENURSW2XX7", "dateTime": 1519156389069}, {"current_trial": 234, "trialdata": {"rt": -1, "trial_type": "single-stim", "stimulus": "<p id=\"stim\">6</p>", "internal_node_id": "0.0-167.0-4.0", "time_elapsed": 1268275, "key_press": -1, "trial_index": 234}, "uniqueid": "MTK2613:3VW04L3ZLUDKAKXYFMDIENURSW2XX7", "dateTime": 1519156390070}, {"current_trial": 235, "trialdata": {"rt": -1, "trial_type": "single-stim", "stimulus": "<p id=\"stim\">5</p>", "internal_node_id": "0.0-167.0-5.0", "time_elapsed": 1269276, "key_press": -1, "trial_index": 235}, "uniqueid": "MTK2613:3VW04L3ZLUDKAKXYFMDIENURSW2XX7", "dateTime": 1519156391071}, {"current_trial": 236, "trialdata": {"rt": -1, "trial_type": "single-stim", "stimulus": "<p id=\"stim\">4</p>", "internal_node_id": "0.0-167.0-6.0", "time_elapsed": 1270277, "key_press": -1, "trial_index": 236}, "uniqueid": "MTK2613:3VW04L3ZLUDKAKXYFMDIENURSW2XX7", "dateTime": 1519156392072}, {"current_trial": 237, "trialdata": {"rt": -1, "trial_type": "single-stim", "stimulus": "<p id=\"stim\">3</p>", "internal_node_id": "0.0-167.0-7.0", "time_elapsed": 1271278, "key_press": -1, "trial_index": 237}, "uniqueid": "MTK2613:3VW04L3ZLUDKAKXYFMDIENURSW2XX7", "dateTime": 1519156393073}, {"current_trial": 238, "trialdata": {"rt": -1, "trial_type": "single-stim", "stimulus": "<p id=\"stim\">2</p>", "internal_node_id": "0.0-167.0-8.0", "time_elapsed": 1272279, "key_press": -1, "trial_index": 238}, "uniqueid": "MTK2613:3VW04L3ZLUDKAKXYFMDIENURSW2XX7", "dateTime": 1519156394074}, {"current_trial": 239, "trialdata": {"rt": -1, "trial_type": "single-stim", "stimulus": "<p id=\"stim\">1</p>", "internal_node_id": "0.0-167.0-9.0", "time_elapsed": 1273280, "key_press": -1, "trial_index": 239}, "uniqueid": "MTK2613:3VW04L3ZLUDKAKXYFMDIENURSW2XX7", "dateTime": 1519156395075}, {"current_trial": 240, "trialdata": {"rt": -1, "trial_type": "single-stim", "stimulus": "<p id=\"stim\">+</p>", "internal_node_id": "0.0-168.0-0.0", "time_elapsed": 1274781, "key_press": -1, "type": "FIXATION", "trial_index": 240}, "uniqueid": "MTK2613:3VW04L3ZLUDKAKXYFMDIENURSW2XX7", "dateTime": 1519156396577}, {"current_trial": 241, "trialdata": {"rt": -1000, "trial_type": "single-audio", "word": "shrub", "stimulus": "/static/audio/wordpool/SHRUB.wav", "conditions": [12, 800, "a", 12000], "internal_node_id": "0.0-169.0", "trial": 7, "time_elapsed": 1276516, "serialpos": 0, "key_press": -1, "wordID": 1298, "type": "PRES_AUD", "trial_index": 241}, "uniqueid": "MTK2613:3VW04L3ZLUDKAKXYFMDIENURSW2XX7", "dateTime": 1519156398311}, {"current_trial": 242, "trialdata": {"rt": -1000, "trial_type": "single-audio", "word": "scallop", "stimulus": "/static/audio/wordpool/SCALLOP.wav", "conditions": [12, 800, "a", 12000], "internal_node_id": "0.0-170.0", "trial": 7, "time_elapsed": 1278443, "serialpos": 1, "key_press": -1, "wordID": 1241, "type": "PRES_AUD", "trial_index": 242}, "uniqueid": "MTK2613:3VW04L3ZLUDKAKXYFMDIENURSW2XX7", "dateTime": 1519156400238}, {"current_trial": 243, "trialdata": {"rt": -1000, "trial_type": "single-audio", "word": "seafood", "stimulus": "/static/audio/wordpool/SEAFOOD.wav", "conditions": [12, 800, "a", 12000], "internal_node_id": "0.0-171.0", "trial": 7, "time_elapsed": 1280099, "serialpos": 2, "key_press": -1, "wordID": 1259, "type": "PRES_AUD", "trial_index": 243}, "uniqueid": "MTK2613:3VW04L3ZLUDKAKXYFMDIENURSW2XX7", "dateTime": 1519156401894}, {"current_trial": 244, "trialdata": {"rt": -1000, "trial_type": "single-audio", "word": "lace", "stimulus": "/static/audio/wordpool/LACE.wav", "conditions": [12, 800, "a", 12000], "internal_node_id": "0.0-172.0", "trial": 7, "time_elapsed": 1282069, "serialpos": 3, "key_press": -1, "wordID": 791, "type": "PRES_AUD", "trial_index": 244}, "uniqueid": "MTK2613:3VW04L3ZLUDKAKXYFMDIENURSW2XX7", "dateTime": 1519156403864}, {"current_trial": 245, "trialdata": {"rt": -1000, "trial_type": "single-audio", "word": "daisy", "stimulus": "/static/audio/wordpool/DAISY.wav", "conditions": [12, 800, "a", 12000], "internal_node_id": "0.0-173.0", "trial": 7, "time_elapsed": 1283906, "serialpos": 4, "key_press": -1, "wordID": 434, "type": "PRES_AUD", "trial_index": 245}, "uniqueid": "MTK2613:3VW04L3ZLUDKAKXYFMDIENURSW2XX7", "dateTime": 1519156405701}, {"current_trial": 246, "trialdata": {"rt": -1000, "trial_type": "single-audio", "word": "cafe", "stimulus": "/static/audio/wordpool/CAFE.wav", "conditions": [12, 800, "a", 12000], "internal_node_id": "0.0-174.0", "trial": 7, "time_elapsed": 1285897, "serialpos": 5, "key_press": -1, "wordID": 215, "type": "PRES_AUD", "trial_index": 246}, "uniqueid": "MTK2613:3VW04L3ZLUDKAKXYFMDIENURSW2XX7", "dateTime": 1519156407693}, {"current_trial": 247, "trialdata": {"rt": -1000, "trial_type": "single-audio", "word": "finger", "stimulus": "/static/audio/wordpool/FINGER.wav", "conditions": [12, 800, "a", 12000], "internal_node_id": "0.0-175.0", "trial": 7, "time_elapsed": 1287877, "serialpos": 6, "key_press": -1, "wordID": 566, "type": "PRES_AUD", "trial_index": 247}, "uniqueid": "MTK2613:3VW04L3ZLUDKAKXYFMDIENURSW2XX7", "dateTime": 1519156409673}, {"current_trial": 248, "trialdata": {"rt": -1000, "trial_type": "single-audio", "word": "doughnut", "stimulus": "/static/audio/wordpool/DOUGHNUT.wav", "conditions": [12, 800, "a", 12000], "internal_node_id": "0.0-176.0", "trial": 7, "time_elapsed": 1289758, "serialpos": 7, "key_press": -1, "wordID": 489, "type": "PRES_AUD", "trial_index": 248}, "uniqueid": "MTK2613:3VW04L3ZLUDKAKXYFMDIENURSW2XX7", "dateTime": 1519156411553}, {"current_trial": 249, "trialdata": {"rt": -1000, "trial_type": "single-audio", "word": "atom", "stimulus": "/static/audio/wordpool/ATOM.wav", "conditions": [12, 800, "a", 12000], "internal_node_id": "0.0-177.0", "trial": 7, "time_elapsed": 1291743, "serialpos": 8, "key_press": -1, "wordID": 54, "type": "PRES_AUD", "trial_index": 249}, "uniqueid": "MTK2613:3VW04L3ZLUDKAKXYFMDIENURSW2XX7", "dateTime": 1519156413538}, {"current_trial": 250, "trialdata": {"rt": -1000, "trial_type": "single-audio", "word": "lily", "stimulus": "/static/audio/wordpool/LILY.wav", "conditions": [12, 800, "a", 12000], "internal_node_id": "0.0-178.0", "trial": 7, "time_elapsed": 1293669, "serialpos": 9, "key_press": -1, "wordID": 820, "type": "PRES_AUD", "trial_index": 250}, "uniqueid": "MTK2613:3VW04L3ZLUDKAKXYF