{"assignmentId": "3IAEQB9FMFRRNENREHGKIXDS3DXWDQ", "workerId": "MTK2617", "questiondata": {"origin": "United States", "strat-rehearsal": "77", "marital": "Married/Domestic Partnership", "education": "Bachelor's degree", "ethnicity": "Not Hispanic", "color_depth": 24, "distracted": "No", "wrote-notes": "No", "strat-other": "", "screen_width": 1536, "avail_screen_width": 1536, "avail_screen_height": 824, "strat-image": "69", "language": "english", "gender": "Female", "age": "44", "gender_other": "", "race": ["White"], "strat-categorize": "59", "pixel_depth": 24, "strat-spatial": "68", "strat-story": "55", "race_other": "", "screen_height": 864}, "bonus": 0, "hitId": "33NOQL7T9O6HDUYBIUK96PXPPIB8ZM", "counterbalance": 2759, "useragent": "Mozilla/5.0 (Windows NT 10.0; Win64; x64) AppleWebKit/537.36 (KHTML, like Gecko) Chrome/63.0.3239.132 Safari/537.36", "eventdata": [{"eventtype": "initialized", "interval": 0, "value": null, "timestamp": 1519156106299}, {"eventtype": "window_resize", "interval": 0, "value": [1540, 816], "timestamp": 1519156106299}, {"eventtype": "focus", "interval": 29282, "value": "off", "timestamp": 1519156135581}, {"eventtype": "focus", "interval": 5983, "value": "on", "timestamp": 1519156141564}, {"eventtype": "focus", "interval": 65441, "value": "off", "timestamp": 1519156207005}, {"eventtype": "focus", "interval": 3826, "value": "on", "timestamp": 1519156210831}, {"eventtype": "focus", "interval": 1093223, "value": "off", "timestamp": 1519157304054}, {"eventtype": "focus", "interval": 5646, "value": "on", "timestamp": 1519157309700}], "data": [{"current_trial": 0, "trialdata": {"rt": 3354, "trial_type": "text", "internal_node_id": "0.0-0.0", "time_elapsed": 3356, "key_press": 74, "type": "INSTRUCTIONS", "trial_index": 0}, "uniqueid": "MTK2617:3IAEQB9FMFRRNENREHGKIXDS3DXWDQ", "dateTime": 1519156123396}, {"current_trial": 1, "trialdata": {"rt": 73978, "trial_type": "text", "internal_node_id": "0.0-1.0", "time_elapsed": 77336, "key_press": 70, "type": "INSTRUCTIONS", "trial_index": 1}, "uniqueid": "MTK2617:3IAEQB9FMFRRNENREHGKIXDS3DXWDQ", "dateTime": 1519156197375}, {"current_trial": 2, "trialdata": {"rt": [18432], "trial_type": "audio-test", "responses": ["ocean"], "internal_node_id": "0.0-2.0", "time_elapsed": 95779, "type": "AUDIO_TEST", "trial_index": 2}, "uniqueid": "MTK2617:3IAEQB9FMFRRNENREHGKIXDS3DXWDQ", "dateTime": 1519156215818}, {"current_trial": 3, "trialdata": {"rt": [8305], "trial_type": "audio-test", "responses": ["crystal"], "internal_node_id": "0.0-3.0", "time_elapsed": 104088, "type": "AUDIO_TEST", "trial_index": 3}, "uniqueid": "MTK2617:3IAEQB9FMFRRNENREHGKIXDS3DXWDQ", "dateTime": 1519156224127}, {"current_trial": 4, "trialdata": {"rt": [7610], "trial_type": "audio-test", "responses": ["spice"], "internal_node_id": "0.0-4.0", "time_elapsed": 111702, "type": "AUDIO_TEST", "trial_index": 4}, "uniqueid": "MTK2617:3IAEQB9FMFRRNENREHGKIXDS3DXWDQ", "dateTime": 1519156231741}, {"current_trial": 5, "trialdata": {"rt": 32087, "trial_type": "survey-text", "responses": "{\"Q0\":\"10:45\",\"Q1\":\"4:15\",\"Q2\":\"4\"}", "internal_node_id": "0.0-5.0", "time_elapsed": 144541, "type": "SLEEP_SURVEY", "trial_index": 5}, "uniqueid": "MTK2617:3IAEQB9FMFRRNENREHGKIXDS3DXWDQ", "dateTime": 1519156264580}, {"current_trial": 6, "trialdata": {"rt": 24080, "trial_type": "text", "internal_node_id": "0.0-6.0", "time_elapsed": 169624, "key_press": 76, "type": "INSTRUCTIONS", "trial_index": 6}, "uniqueid": "MTK2617:3IAEQB9FMFRRNENREHGKIXDS3DXWDQ", "dateTime": 1519156289663}, {"current_trial": 7, "trialdata": {"rt": 21259, "trial_type": "text", "internal_node_id": "0.0-7.0", "time_elapsed": 191385, "key_press": 76, "type": "INSTRUCTIONS", "trial_index": 7}, "uniqueid": "MTK2617:3IAEQB9FMFRRNENREHGKIXDS3DXWDQ", "dateTime": 1519156311424}, {"current_trial": 8, "trialdata": {"rt": 8259, "trial_type": "text", "internal_node_id": "0.0-8.0", "time_elapsed": 200144, "key_press": 79, "type": "INSTRUCTIONS", "trial_index": 8}, "uniqueid": "MTK2617:3IAEQB9FMFRRNENREHGKIXDS3DXWDQ", "dateTime": 1519156320184}, {"current_trial": 9, "trialdata": {"rt": [9945], "trial_type": "math-distractor", "key_times": [5640, 5862, 9945, 13036, 13195, 14907, 16624, 16725, 17639, 17851], "responses": ["14"], "num2": [4, 6], "num3": [8, 5], "conditions": [18, 1200, "a", 18000], "internal_node_id": "0.0-9.0", "key_presses": [97, 100, 13, 97, 100, 8, 97, 101, 8, 8], "trial": 0, "time_elapsed": 219149, "type": "DISTRACTOR", "trial_index": 9, "num1": [2, 4]}, "uniqueid": "MTK2617:3IAEQB9FMFRRNENREHGKIXDS3DXWDQ", "dateTime": 1519156339188}, {"current_trial": 10, "trialdata": {"rt": -1, "trial_type": "single-stim", "stimulus": "<p id=\"stim\">10</p>", "internal_node_id": "0.0-10.0-0.0", "time_elapsed": 222151, "key_press": -1, "trial_index": 10}, "uniqueid": "MTK2617:3IAEQB9FMFRRNENREHGKIXDS3DXWDQ", "dateTime": 1519156342190}, {"current_trial": 11, "trialdata": {"rt": -1, "trial_type": "single-stim", "stimulus": "<p id=\"stim\">9</p>", "internal_node_id": "0.0-10.0-1.0", "time_elapsed": 223152, "key_press": -1, "trial_index": 11}, "uniqueid": "MTK2617:3IAEQB9FMFRRNENREHGKIXDS3DXWDQ", "dateTime": 1519156343191}, {"current_trial": 12, "trialdata": {"rt": -1, "trial_type": "single-stim", "stimulus": "<p id=\"stim\">8</p>", "internal_node_id": "0.0-10.0-2.0", "time_elapsed": 224153, "key_press": -1, "trial_index": 12}, "uniqueid": "MTK2617:3IAEQB9FMFRRNENREHGKIXDS3DXWDQ", "dateTime": 1519156344192}, {"current_trial": 13, "trialdata": {"rt": -1, "trial_type": "single-stim", "stimulus": "<p id=\"stim\">7</p>", "internal_node_id": "0.0-10.0-3.0", "time_elapsed": 225154, "key_press": -1, "trial_index": 13}, "uniqueid": "MTK2617:3IAEQB9FMFRRNENREHGKIXDS3DXWDQ", "dateTime": 1519156345193}, {"current_trial": 14, "trialdata": {"rt": -1, "trial_type": "single-stim", "stimulus": "<p id=\"stim\">6</p>", "internal_node_id": "0.0-10.0-4.0", "time_elapsed": 226155, "key_press": -1, "trial_index": 14}, "uniqueid": "MTK2617:3IAEQB9FMFRRNENREHGKIXDS3DXWDQ", "dateTime": 1519156346194}, {"current_trial": 15, "trialdata": {"rt": -1, "trial_type": "single-stim", "stimulus": "<p id=\"stim\">5</p>", "internal_node_id": "0.0-10.0-5.0", "time_elapsed": 227156, "key_press": -1, "trial_index": 15}, "uniqueid": "MTK2617:3IAEQB9FMFRRNENREHGKIXDS3DXWDQ", "dateTime": 1519156347195}, {"current_trial": 16, "trialdata": {"rt": -1, "trial_type": "single-stim", "stimulus": "<p id=\"stim\">4</p>", "internal_node_id": "0.0-10.0-6.0", "time_elapsed": 228158, "key_press": -1, "trial_index": 16}, "uniqueid": "MTK2617:3IAEQB9FMFRRNENREHGKIXDS3DXWDQ", "dateTime": 1519156348197}, {"current_trial": 17, "trialdata": {"rt": -1, "trial_type": "single-stim", "stimulus": "<p id=\"stim\">3</p>", "internal_node_id": "0.0-10.0-7.0", "time_elapsed": 229160, "key_press": -1, "trial_index": 17}, "uniqueid": "MTK2617:3IAEQB9FMFRRNENREHGKIXDS3DXWDQ", "dateTime": 1519156349199}, {"current_trial": 18, "trialdata": {"rt": -1, "trial_type": "single-stim", "stimulus": "<p id=\"stim\">2</p>", "internal_node_id": "0.0-10.0-8.0", "time_elapsed": 230160, "key_press": -1, "trial_index": 18}, "uniqueid": "MTK2617:3IAEQB9FMFRRNENREHGKIXDS3DXWDQ", "dateTime": 1519156350199}, {"current_trial": 19, "trialdata": {"rt": -1, "trial_type": "single-stim", "stimulus": "<p id=\"stim\">1</p>", "internal_node_id": "0.0-10.0-9.0", "time_elapsed": 231162, "key_press": -1, "trial_index": 19}, "uniqueid": "MTK2617:3IAEQB9FMFRRNENREHGKIXDS3DXWDQ", "dateTime": 1519156351201}, {"current_trial": 20, "trialdata": {"rt": -1, "trial_type": "single-stim", "stimulus": "<p id=\"stim\">+</p>", "internal_node_id": "0.0-11.0-0.0", "time_elapsed": 232663, "key_press": -1, "type": "FIXATION", "trial_index": 20}, "uniqueid": "MTK2617:3IAEQB9FMFRRNENREHGKIXDS3DXWDQ", "dateTime": 1519156352702}, {"current_trial": 21, "trialdata": {"rt": -1000, "trial_type": "single-audio", "word": "guard", "stimulus": "/static/audio/wordpool/GUARD.wav", "conditions": [18, 1200, "a", 18000], "internal_node_id": "0.0-12.0", "trial": 0, "time_elapsed": 234673, "serialpos": 0, "key_press": -1, "wordID": 666, "type": "PRES_AUD", "trial_index": 21}, "uniqueid": "MTK2617:3IAEQB9FMFRRNENREHGKIXDS3DXWDQ", "dateTime": 1519156354712}, {"current_trial": 22, "trialdata": {"rt": -1000, "trial_type": "single-audio", "word": "twig", "stimulus": "/static/audio/wordpool/TWIG.wav", "conditions": [18, 1200, "a", 18000], "internal_node_id": "0.0-13.0", "trial": 0, "time_elapsed": 236753, "serialpos": 1, "key_press": -1, "wordID": 1526, "type": "PRES_AUD", "trial_index": 22}, "uniqueid": "MTK2617:3IAEQB9FMFRRNENREHGKIXDS3DXWDQ", "dateTime": 1519156356792}, {"current_trial": 23, "trialdata": {"rt": -1000, "trial_type": "single-audio", "word": "husband", "stimulus": "/static/audio/wordpool/HUSBAND.wav", "conditions": [18, 1200, "a", 18000], "internal_node_id": "0.0-14.0", "trial": 0, "time_elapsed": 238936, "serialpos": 2, "key_press": -1, "wordID": 727, "type": "PRES_AUD", "trial_index": 23}, "uniqueid": "MTK2617:3IAEQB9FMFRRNENREHGKIXDS3DXWDQ", "dateTime": 1519156358975}, {"current_trial": 24, "trialdata": {"rt": -1000, "trial_type": "single-audio", "word": "novel", "stimulus": "/static/audio/wordpool/NOVEL.wav", "conditions": [18, 1200, "a", 18000], "internal_node_id": "0.0-15.0", "trial": 0, "time_elapsed": 241257, "serialpos": 3, "key_press": -1, "wordID": 959, "type": "PRES_AUD", "trial_index": 24}, "uniqueid": "MTK2617:3IAEQB9FMFRRNENREHGKIXDS3DXWDQ", "dateTime": 1519156361296}, {"current_trial": 25, "trialdata": {"rt": -1000, "trial_type": "single-audio", "word": "bureau", "stimulus": "/static/audio/wordpool/BUREAU.wav", "conditions": [18, 1200, "a", 18000], "internal_node_id": "0.0-16.0", "trial": 0, "time_elapsed": 243637, "serialpos": 4, "key_press": -1, "wordID": 198, "type": "PRES_AUD", "trial_index": 25}, "uniqueid": "MTK2617:3IAEQB9FMFRRNENREHGKIXDS3DXWDQ", "dateTime": 1519156363676}, {"current_trial": 26, "trialdata": {"rt": -1000, "trial_type": "single-audio", "word": "salad", "stimulus": "/static/audio/wordpool/SALAD.wav", "conditions": [18, 1200, "a", 18000], "internal_node_id": "0.0-17.0", "trial": 0, "time_elapsed": 245756, "serialpos": 5, "key_press": -1, "wordID": 1223, "type": "PRES_AUD", "trial_index": 26}, "uniqueid": "MTK2617:3IAEQB9FMFRRNENREHGKIXDS3DXWDQ", "dateTime": 1519156365795}, {"current_trial": 27, "trialdata": {"rt": -1000, "trial_type": "single-audio", "word": "picnic", "stimulus": "/static/audio/wordpool/PICNIC.wav", "conditions": [18, 1200, "a", 18000], "internal_node_id": "0.0-18.0", "trial": 0, "time_elapsed": 248084, "serialpos": 6, "key_press": -1, "wordID": 1059, "type": "PRES_AUD", "trial_index": 27}, "uniqueid": "MTK2617:3IAEQB9FMFRRNENREHGKIXDS3DXWDQ", "dateTime": 1519156368123}, {"current_trial": 28, "trialdata": {"rt": -1000, "trial_type": "single-audio", "word": "human", "stimulus": "/static/audio/wordpool/HUMAN.wav", "conditions": [18, 1200, "a", 18000], "internal_node_id": "0.0-19.0", "trial": 0, "time_elapsed": 250110, "serialpos": 7, "key_press": -1, "wordID": 725, "type": "PRES_AUD", "trial_index": 28}, "uniqueid": "MTK2617:3IAEQB9FMFRRNENREHGKIXDS3DXWDQ", "dateTime": 1519156370150}, {"current_trial": 29, "trialdata": {"rt": -1000, "trial_type": "single-audio", "word": "dolphin", "stimulus": "/static/audio/wordpool/DOLPHIN.wav", "conditions": [18, 1200, "a", 18000], "internal_node_id": "0.0-20.0", "trial": 0, "time_elapsed": 252252, "serialpos": 8, "key_press": -1, "wordID": 482, "type": "PRES_AUD", "trial_index": 29}, "uniqueid": "MTK2617:3IAEQB9FMFRRNENREHGKIXDS3DXWDQ", "dateTime": 1519156372291}, {"current_trial": 30, "trialdata": {"rt": -1000, "trial_type": "single-audio", "word": "chapel", "stimulus": "/static/audio/wordpool/CHAPEL.wav", "conditions": [18, 1200, "a", 18000], "internal_node_id": "0.0-21.0", "trial": 0, "time_elapsed": 254642, "serialpos": 9, "key_press": -1, "wordID": 279, "type": "PRES_AUD", "trial_index": 30}, "uniqueid": "MTK2617:3IAEQB9FMFRRNENREHGKIXDS3DXWDQ", "dateTime": 1519156374681}, {"current_trial": 31, "trialdata": {"rt": -1000, "trial_type": "single-audio", "word": "lady", "stimulus": "/static/audio/wordpool/LADY.wav", "conditions": [18, 1200, "a", 18000], "internal_node_id": "0.0-22.0", "trial": 0, "time_elapsed": 256647, "serialpos": 10, "key_press": -1, "wordID": 793, "type": "PRES_AUD", "trial_index": 31}, "uniqueid": "MTK2617:3IAEQB9FMFRRNENREHGKIXDS3DXWDQ", "dateTime": 1519156376687}, {"current_trial": 32, "trialdata": {"rt": -1000, "trial_type": "single-audio", "word": "tablet", "stimulus": "/static/audio/wordpool/TABLET.wav", "conditions": [18, 1200, "a", 18000], "internal_node_id": "0.0-23.0", "trial": 0, "time_elapsed": 258987, "serialpos": 11, "key_press": -1, "wordID": 1426, "type": "PRES_AUD", "trial_index": 32}, "uniqueid": "MTK2617:3IAEQB9FMFRRNENREHGKIXDS3DXWDQ", "dateTime": 1519156379026}, {"current_trial": 33, "trialdata": {"rt": -1000, "trial_type": "single-audio", "word": "rattle", "stimulus": "/static/audio/wordpool/RATTLE.wav", "conditions": [18, 1200, "a", 18000], "internal_node_id": "0.0-24.0", "trial": 0, "time_elapsed": 261082, "serialpos": 12, "key_press": -1, "wordID": 1169, "type": "PRES_AUD", "trial_index": 33}, "uniqueid": "MTK2617:3IAEQB9FMFRRNENREHGKIXDS3DXWDQ", "dateTime": 1519156381121}, {"current_trial": 34, "trialdata": {"rt": -1000, "trial_type": "single-audio", "word": "concert", "stimulus": "/static/audio/wordpool/CONCERT.wav", "conditions": [18, 1200, "a", 18000], "internal_node_id": "0.0-25.0", "trial": 0, "time_elapsed": 263376, "serialpos": 13, "key_press": -1, "wordID": 359, "type": "PRES_AUD", "trial_index": 34}, "uniqueid": "MTK2617:3IAEQB9FMFRRNENREHGKIXDS3DXWDQ", "dateTime": 1519156383415}, {"current_trial": 35, "trialdata": {"rt": -1000, "trial_type": "single-audio", "word": "apron", "stimulus": "/static/audio/wordpool/APRON.wav", "conditions": [18, 1200, "a", 18000], "internal_node_id": "0.0-26.0", "trial": 0, "time_elapsed": 265550, "serialpos": 14, "key_press": -1, "wordID": 34, "type": "PRES_AUD", "trial_index": 35}, "uniqueid": "MTK2617:3IAEQB9FMFRRNENREHGKIXDS3DXWDQ", "dateTime": 1519156385589}, {"current_trial": 36, "trialdata": {"rt": -1000, "trial_type": "single-audio", "word": "ulcer", "stimulus": "/static/audio/wordpool/ULCER.wav", "conditions": [18, 1200, "a", 18000], "internal_node_id": "0.0-27.0", "trial": 0, "time_elapsed": 267723, "serialpos": 15, "key_press": -1, "wordID": 1532, "type": "PRES_AUD", "trial_index": 36}, "uniqueid": "MTK2617:3IAEQB9FMFRRNENREHGKIXDS3DXWDQ", "dateTime": 1519156387762}, {"current_trial": 37, "trialdata": {"rt": -1000, "trial_type": "single-audio", "word": "yacht", "stimulus": "/static/audio/wordpool/YACHT.wav", "conditions": [18, 1200, "a", 18000], "internal_node_id": "0.0-28.0", "trial": 0, "time_elapsed": 270077, "serialpos": 16, "key_press": -1, "wordID": 1628, "type": "PRES_AUD", "trial_index": 37}, "uniqueid": "MTK2617:3IAEQB9FMFRRNENREHGKIXDS3DXWDQ", "dateTime": 1519156390116}, {"current_trial": 38, "trialdata": {"rt": -1000, "trial_type": "single-audio", "word": "dentist", "stimulus": "/static/audio/wordpool/DENTIST.wav", "conditions": [18, 1200, "a", 18000], "internal_node_id": "0.0-29.0", "trial": 0, "time_elapsed": 272311, "serialpos": 17, "key_press": -1, "wordID": 446, "type": "PRES_AUD", "trial_index": 38}, "uniqueid": "MTK2617:3IAEQB9FMFRRNENREHGKIXDS3DXWDQ", "dateTime": 1519156392350}, {"current_trial": 39, "trialdata": {"rt": -1, "trial_type": "single-stim", "stimulus": "", "internal_node_id": "0.0-30.0-0.0", "time_elapsed": 273632, "key_press": -1, "type": "PRE_RECALL_DELAY", "trial_index": 39}, "uniqueid": "MTK2617:3IAEQB9FMFRRNENREHGKIXDS3DXWDQ", "dateTime": 1519156393672}, {"current_trial": 40, "trialdata": {"rt": -1000, "trial_type": "single-audio", "stimulus": "/static/audio/400Hz.wav", "internal_node_id": "0.0-31.0", "time_elapsed": 274133, "key_press": -1, "type": "PRE_RECALL_ALERT", "trial_index": 40}, "uniqueid": "MTK2617:3IAEQB9FMFRRNENREHGKIXDS3DXWDQ", "dateTime": 1519156394172}, {"current_trial": 41, "trialdata": {"rt": [7935, 12538, 15813, 21201, 25329, 29095, 32947, 35237, 38316, 39846, 44863, 47553, 50205, 52761, 55765, 59840], "recwords": ["twig", "husband", "novel", "burro", "salad", "picnic", "human", "dolphin", "chapel", "lady", "tablet", "rattle", "concert", "apron", "yaught", "dentist"], "key_times": [3896, 4065, 4247, 4558, 5464, 7022, 7935, 10867, 11044, 11134, 11466, 11639, 11745, 11971, 12538, 14900, 15059, 15191, 15398, 15494, 15813, 17151, 17315, 17453, 17703, 18086, 18268, 18426, 18577, 18755, 19360, 20001, 20193, 20389, 20505, 21201, 23566, 23807, 23929, 24443, 24709, 25329, 25855, 26077, 26204, 26786, 27549, 27978, 28159, 28398, 29095, 31720, 31877, 32135, 32487, 32689, 32947, 33135, 33267, 33499, 33997, 34178, 34750, 34909, 35237, 35403, 35541, 35670, 35870, 36091, 36276, 38316, 38783, 39031, 39283, 39584, 39846, 40156, 40274, 40559, 40724, 40825, 41355, 42030, 42782, 44863, 45339, 45533, 45855, 46255, 46385, 46610, 46714, 46860, 47553, 47780, 47923, 48040, 48484, 48736, 48858, 49100, 50205, 50932, 51163, 51311, 51638, 51912, 52761, 54197, 54376, 54574, 55146, 55260, 55360, 55765, 57368, 57538, 57689, 57858, 58076, 58246, 58646, 58768, 58953, 59840], "trial_type": "free-recall", "conditions": [18, 1200, "a", 18000], "internal_node_id": "0.0-32.0-0.0", "key_presses": [84, 87, 73, 80, 8, 71, 13, 72, 85, 83, 66, 65, 78, 68, 13, 78, 79, 86, 69, 76, 13, 86, 85, 82, 82, 8, 8, 8, 8, 8, 66, 85, 82, 82, 79, 13, 83, 65, 76, 65, 68, 13, 80, 73, 67, 8, 67, 78, 73, 67, 13, 72, 85, 77, 65, 78, 32, 68, 79, 76, 80, 72, 73, 78, 32, 67, 72, 65, 80, 69, 76, 13, 76, 65, 68, 89, 32, 84, 65, 66, 76, 69, 89, 8, 84, 13, 82, 65, 78, 8, 84, 84, 76, 69, 13, 67, 79, 78, 67, 69, 82, 84, 13, 65, 80, 82, 79, 78, 13, 89, 65, 85, 71, 72, 84, 13, 68, 69, 78, 84, 73, 67, 8, 83, 84, 13], "trial": 0, "time_elapsed": 334136, "type": "FREE_RECALL", "trial_index": 41}, "uniqueid": "MTK2617:3IAEQB9FMFRRNENREHGKIXDS3DXWDQ", "dateTime": 1519156454176}, {"current_trial": 42, "trialdata": {"rt": 2183, "trial_type": "text", "internal_node_id": "0.0-33.0", "time_elapsed": 338321, "key_press": 75, "type": "INSTRUCTIONS", "trial_index": 42}, "uniqueid": "MTK2617:3IAEQB9FMFRRNENREHGKIXDS3DXWDQ", "dateTime": 1519156458360}, {"current_trial": 43, "trialdata": {"rt": [7877, 11842, 14505, 16124], "trial_type": "math-distractor", "key_times": [6288, 6490, 7877, 11049, 11236, 11842, 13880, 14105, 14505, 15738, 16124, 17551, 17781], "responses": ["22", "12", "13", "3"], "num2": [8, 5, 7, 1, 7], "num3": [5, 3, 5, 1, 7], "conditions": [18, 1200, "a", 18000], "internal_node_id": "0.0-34.0", "key_presses": [98, 98, 13, 97, 98, 13, 97, 99, 13, 99, 13, 97, 103], "trial": 1, "time_elapsed": 358326, "type": "DISTRACTOR", "trial_index": 43, "num1": [9, 4, 1, 1, 3]}, "uniqueid": "MTK2617:3IAEQB9FMFRRNENREHGKIXDS3DXWDQ", "dateTime": 1519156478365}, {"current_trial": 44, "trialdata": {"rt": -1, "trial_type": "single-stim", "stimulus": "<p id=\"stim\">10</p>", "internal_node_id": "0.0-35.0-0.0", "time_elapsed": 361328, "key_press": -1, "trial_index": 44}, "uniqueid": "MTK2617:3IAEQB9FMFRRNENREHGKIXDS3DXWDQ", "dateTime": 1519156481367}, {"current_trial": 45, "trialdata": {"rt": -1, "trial_type": "single-stim", "stimulus": "<p id=\"stim\">9</p>", "internal_node_id": "0.0-35.0-1.0", "time_elapsed": 362329, "key_press": -1, "trial_index": 45}, "uniqueid": "MTK2617:3IAEQB9FMFRRNENREHGKIXDS3DXWDQ", "dateTime": 1519156482368}, {"current_trial": 46, "trialdata": {"rt": -1, "trial_type": "single-stim", "stimulus": "<p id=\"stim\">8</p>", "internal_node_id": "0.0-35.0-2.0", "time_elapsed": 363330, "key_press": -1, "trial_index": 46}, "uniqueid": "MTK2617:3IAEQB9FMFRRNENREHGKIXDS3DXWDQ", "dateTime": 1519156483369}, {"current_trial": 47, "trialdata": {"rt": -1, "trial_type": "single-stim", "stimulus": "<p id=\"stim\">7</p>", "internal_node_id": "0.0-35.0-3.0", "time_elapsed": 364331, "key_press": -1, "trial_index": 47}, "uniqueid": "MTK2617:3IAEQB9FMFRRNENREHGKIXDS3DXWDQ", "dateTime": 1519156484370}, {"current_trial": 48, "trialdata": {"rt": -1, "trial_type": "single-stim", "stimulus": "<p id=\"stim\">6</p>", "internal_node_id": "0.0-35.0-4.0", "time_elapsed": 365332, "key_press": -1, "trial_index": 48}, "uniqueid": "MTK2617:3IAEQB9FMFRRNENREHGKIXDS3DXWDQ", "dateTime": 1519156485371}, {"current_trial": 49, "trialdata": {"rt": -1, "trial_type": "single-stim", "stimulus": "<p id=\"stim\">5</p>", "internal_node_id": "0.0-35.0-5.0", "time_elapsed": 366334, "key_press": -1, "trial_index": 49}, "uniqueid": "MTK2617:3IAEQB9FMFRRNENREHGKIXDS3DXWDQ", "dateTime": 1519156486373}, {"current_trial": 50, "trialdata": {"rt": -1, "trial_type": "single-stim", "stimulus": "<p id=\"stim\">4</p>", "internal_node_id": "0.0-35.0-6.0", "time_elapsed": 367336, "key_press": -1, "trial_index": 50}, "uniqueid": "MTK2617:3IAEQB9FMFRRNENREHGKIXDS3DXWDQ", "dateTime": 1519156487375}, {"current_trial": 51, "trialdata": {"rt": -1, "trial_type": "single-stim", "stimulus": "<p id=\"stim\">3</p>", "internal_node_id": "0.0-35.0-7.0", "time_elapsed": 368337, "key_press": -1, "trial_index": 51}, "uniqueid": "MTK2617:3IAEQB9FMFRRNENREHGKIXDS3DXWDQ", "dateTime": 1519156488376}, {"current_trial": 52, "trialdata": {"rt": -1, "trial_type": "single-stim", "stimulus": "<p id=\"stim\">2</p>", "internal_node_id": "0.0-35.0-8.0", "time_elapsed": 369339, "key_press": -1, "trial_index": 52}, "uniqueid": "MTK2617:3IAEQB9FMFRRNENREHGKIXDS3DXWDQ", "dateTime": 1519156489378}, {"current_trial": 53, "trialdata": {"rt": -1, "trial_type": "single-stim", "stimulus": "<p id=\"stim\">1</p>", "internal_node_id": "0.0-35.0-9.0", "time_elapsed": 370340, "key_press": -1, "trial_index": 53}, "uniqueid": "MTK2617:3IAEQB9FMFRRNENREHGKIXDS3DXWDQ", "dateTime": 1519156490379}, {"current_trial": 54, "trialdata": {"rt": -1, "trial_type": "single-stim", "stimulus": "<p id=\"stim\">+</p>", "internal_node_id": "0.0-36.0-0.0", "time_elapsed": 371842, "key_press": -1, "type": "FIXATION", "trial_index": 54}, "uniqueid": "MTK2617:3IAEQB9FMFRRNENREHGKIXDS3DXWDQ", "dateTime": 1519156491881}, {"current_trial": 55, "trialdata": {"rt": -1000, "trial_type": "single-audio", "word": "bank", "stimulus": "/static/audio/wordpool/BANK.wav", "conditions": [18, 1200, "a", 18000], "internal_node_id": "0.0-37.0", "trial": 1, "time_elapsed": 373964, "serialpos": 0, "key_press": -1, "wordID": 82, "type": "PRES_AUD", "trial_index": 55}, "uniqueid": "MTK2617:3IAEQB9FMFRRNENREHGKIXDS3DXWDQ", "dateTime": 1519156494003}, {"current_trial": 56, "trialdata": {"rt": -1000, "trial_type": "single-audio", "word": "lover", "stimulus": "/static/audio/wordpool/LOVER.wav", "conditions": [18, 1200, "a", 18000], "internal_node_id": "0.0-38.0", "trial": 1, "time_elapsed": 376038, "serialpos": 1, "key_press": -1, "wordID": 845, "type": "PRES_AUD", "trial_index": 56}, "uniqueid": "MTK2617:3IAEQB9FMFRRNENREHGKIXDS3DXWDQ", "dateTime": 1519156496077}, {"current_trial": 57, "trialdata": {"rt": -1000, "trial_type": "single-audio", "word": "empire", "stimulus": "/static/audio/wordpool/EMPIRE.wav", "conditions": [18, 1200, "a", 18000], "internal_node_id": "0.0-39.0", "trial": 1, "time_elapsed": 378324, "serialpos": 2, "key_press": -1, "wordID": 529, "type": "PRES_AUD", "trial_index": 57}, "uniqueid": "MTK2617:3IAEQB9FMFRRNENREHGKIXDS3DXWDQ", "dateTime": 1519156498364}, {"current_trial": 58, "trialdata": {"rt": -1000, "trial_type": "single-audio", "word": "basement", "stimulus": "/static/audio/wordpool/BASEMENT.wav", "conditions": [18, 1200, "a", 18000], "internal_node_id": "0.0-40.0", "trial": 1, "time_elapsed": 380464, "serialpos": 3, "key_press": -1, "wordID": 93, "type": "PRES_AUD", "trial_index": 58}, "uniqueid": "MTK2617:3IAEQB9FMFRRNENREHGKIXDS3DXWDQ", "dateTime": 1519156500503}, {"current_trial": 59, "trialdata": {"rt": -1000, "trial_type": "single-audio", "word": "mister", "stimulus": "/static/audio/wordpool/MISTER.wav", "conditions": [18, 1200, "a", 18000], "internal_node_id": "0.0-41.0", "trial": 1, "time_elapsed": 382795, "serialpos": 4, "key_press": -1, "wordID": 900, "type": "PRES_AUD", "trial_index": 59}, "uniqueid": "MTK2617:3IAEQB9FMFRRNENREHGKIXDS3DXWDQ", "dateTime": 1519156502835}, {"current_trial": 60, "trialdata": {"rt": -1000, "trial_type": "single-audio", "word": "necklace", "stimulus": "/static/audio/wordpool/NECKLACE.wav", "conditions": [18, 1200, "a", 18000], "internal_node_id": "0.0-42.0", "trial": 1, "time_elapsed": 384937, "serialpos": 5, "key_press": -1, "wordID": 939, "type": "PRES_AUD", "trial_index": 60}, "uniqueid": "MTK2617:3IAEQB9FMFRRNENREHGKIXDS3DXWDQ", "dateTime": 1519156504976}, {"current_trial": 61, "trialdata": {"rt": -1000, "trial_type": "single-audio", "word": "dress", "stimulus": "/static/audio/wordpool/DRESS.wav", "conditions": [18, 1200, "a", 18000], "internal_node_id": "0.0-43.0", "trial": 1, "time_elapsed": 387186, "serialpos": 6, "key_press": -1, "wordID": 494, "type": "PRES_AUD", "trial_index": 61}, "uniqueid": "MTK2617:3IAEQB9FMFRRNENREHGKIXDS3DXWDQ", "dateTime": 1519156507226}, {"current_trial": 62, "trialdata": {"rt": -1000, "trial_type": "single-audio", "word": "snail", "stimulus": "/static/audio/wordpool/SNAIL.wav", "conditions": [18, 1200, "a", 18000], "internal_node_id": "0.0-44.0", "trial": 1, "time_elapsed": 389586, "serialpos": 7, "key_press": -1, "wordID": 1331, "type": "PRES_AUD", "trial_index": 62}, "uniqueid": "MTK2617:3IAEQB9FMFRRNENREHGKIXDS3DXWDQ", "dateTime": 1519156509625}, {"current_trial": 63, "trialdata": {"rt": -1000, "trial_type": "single-audio", "word": "hero", "stimulus": "/static/audio/wordpool/HERO.wav", "conditions": [18, 1200, "a", 18000], "internal_node_id": "0.0-45.0", "trial": 1, "time_elapsed": 391651, "serialpos": 8, "key_press": -1, "wordID": 705, "type": "PRES_AUD", "trial_index": 63}, "uniqueid": "MTK2617:3IAEQB9FMFRRNENREHGKIXDS3DXWDQ", "dateTime": 1519156511690}, {"current_trial": 64, "trialdata": {"rt": -1000, "trial_type": "single-audio", "word": "puppy", "stimulus": "/static/audio/wordpool/PUPPY.wav", "conditions": [18, 1200, "a", 18000], "internal_node_id": "0.0-46.0", "trial": 1, "time_elapsed": 393912, "serialpos": 9, "key_press": -1, "wordID": 1143, "type": "PRES_AUD", "trial_index": 64}, "uniqueid": "MTK2617:3IAEQB9FMFRRNENREHGKIXDS3DXWDQ", "dateTime": 1519156513951}, {"current_trial": 65, "trialdata": {"rt": -1000, "trial_type": "single-audio", "word": "couch", "stimulus": "/static/audio/wordpool/COUCH.wav", "conditions": [18, 1200, "a", 18000], "internal_node_id": "0.0-47.0", "trial": 1, "time_elapsed": 396256, "serialpos": 10, "key_press": -1, "wordID": 385, "type": "PRES_AUD", "trial_index": 65}, "uniqueid": "MTK2617:3IAEQB9FMFRRNENREHGKIXDS3DXWDQ", "dateTime": 1519156516295}, {"current_trial": 66, "trialdata": {"rt": -1000, "trial_type": "single-audio", "word": "cocktail", "stimulus": "/static/audio/wordpool/COCKTAIL.wav", "conditions": [18, 1200, "a", 18000], "internal_node_id": "0.0-48.0", "trial": 1, "time_elapsed": 398491, "serialpos": 11, "key_press": -1, "wordID": 337, "type": "PRES_AUD", "trial_index": 66}, "uniqueid": "MTK2617:3IAEQB9FMFRRNENREHGKIXDS3DXWDQ", "dateTime": 1519156518530}, {"current_trial": 67, "trialdata": {"rt": -1000, "trial_type": "single-audio", "word": "servant", "stimulus": "/static/audio/wordpool/SERVANT.wav", "conditions": [18, 1200, "a", 18000], "internal_node_id": "0.0-49.0", "trial": 1, "time_elapsed": 400625, "serialpos": 12, "key_press": -1, "wordID": 1270, "type": "PRES_AUD", "trial_index": 67}, "uniqueid": "MTK2617:3IAEQB9FMFRRNENREHGKIXDS3DXWDQ", "dateTime": 1519156520664}, {"current_trial": 68, "trialdata": {"rt": -1000, "trial_type": "single-audio", "word": "ointment", "stimulus": "/static/audio/wordpool/OINTMENT.wav", "conditions": [18, 1200, "a", 18000], "internal_node_id": "0.0-50.0", "trial": 1, "time_elapsed": 403019, "serialpos": 13, "key_press": -1, "wordID": 973, "type": "PRES_AUD", "trial_index": 68}, "uniqueid": "MTK2617:3IAEQB9FMFRRNENREHGKIXDS3DXWDQ", "dateTime": 1519156523060}, {"current_trial": 69, "trialdata": {"rt": -1000, "trial_type": "single-audio", "word": "woman", "stimulus": "/static/audio/wordpool/WOMAN.wav", "conditions": [18, 1200, "a", 18000], "internal_node_id": "0.0-51.0", "trial": 1, "time_elapsed": 405404, "serialpos": 14, "key_press": -1, "wordID": 1619, "type": "PRES_AUD", "trial_index": 69}, "uniqueid": "MTK2617:3IAEQB9FMFRRNENREHGKIXDS3DXWDQ", "dateTime": 1519156525443}, {"current_trial": 70, "trialdata": {"rt": -1000, "trial_type": "single-audio", "word": "primate", "stimulus": "/static/audio/wordpool/PRIMATE.wav", "conditions": [18, 1200, "a", 18000], "internal_node_id": "0.0-52.0", "trial": 1, "time_elapsed": 407549, "serialpos": 15, "key_press": -1, "wordID": 1122, "type": "PRES_AUD", "trial_index": 70}, "uniqueid": "MTK2617:3IAEQB9FMFRRNENREHGKIXDS3DXWDQ", "dateTime": 1519156527588}, {"current_trial": 71, "trialdata": {"rt": -1000, "trial_type": "single-audio", "word": "perch", "stimulus": "/static/audio/wordpool/PERCH.wav", "conditions": [18, 1200, "a", 18000], "internal_node_id": "0.0-53.0", "trial": 1, "time_elapsed": 409681, "serialpos": 16, "key_press": -1, "wordID": 1047, "type": "PRES_AUD", "trial_index": 71}, "uniqueid": "MTK2617:3IAEQB9FMFRRNENREHGKIXDS3DXWDQ", "dateTime": 1519156529720}, {"current_trial": 72, "trialdata": {"rt": -1000, "trial_type": "single-audio", "word": "blouse", "stimulus": "/static/audio/wordpool/BLOUSE.wav", "conditions": [18, 1200, "a", 18000], "internal_node_id": "0.0-54.0", "trial": 1, "time_elapsed": 412023, "serialpos": 17, "key_press": -1, "wordID": 138, "type": "PRES_AUD", "trial_index": 72}, "uniqueid": "MTK2617:3IAEQB9FMFRRNENREHGKIXDS3DXWDQ", "dateTime": 1519156532063}, {"current_trial": 73, "trialdata": {"rt": -1, "trial_type": "single-stim", "stimulus": "", "internal_node_id": "0.0-55.0-0.0", "time_elapsed": 413395, "key_press": -1, "type": "PRE_RECALL_DELAY", "trial_index": 73}, "uniqueid": "MTK2617:3IAEQB9FMFRRNENREHGKIXDS3DXWDQ", "dateTime": 1519156533434}, {"current_trial": 74, "trialdata": {"rt": -1000, "trial_type": "single-audio", "stimulus": "/static/audio/400Hz.wav", "internal_node_id": "0.0-56.0", "time_elapsed": 413895, "key_press": -1, "type": "PRE_RECALL_ALERT", "trial_index": 74}, "uniqueid": "MTK2617:3IAEQB9FMFRRNENREHGKIXDS3DXWDQ", "dateTime": 1519156533935}, {"current_trial": 75, "trialdata": {"rt": [2888, 9072, 12364, 15955, 18329, 21627, 23874, 25977, 28466, 31410, 33995, 36942, 40012, 42365, 44213, 46593, 49778, 57395], "recwords": ["bank", "lover", "empire", "basement", "mister", "necklace", "dress", "snail", "hero", "puppy", "couch", "cocktail", "servant", "ointment", "women", "primate", "blouse", ""], "key_times": [2113, 2275, 2360, 2544, 2888, 6615, 6805, 6847, 7329, 7539, 7823, 7941, 8136, 8318, 9072, 10664, 10828, 11263, 11633, 11951, 12098, 12364, 13255, 13428, 13656, 13912, 14208, 14485, 14780, 14955, 15204, 15444, 15554, 15697, 15955, 17269, 17495, 17611, 17825, 18042, 18115, 18329, 19576, 19784, 20004, 20259, 20605, 20794, 21203, 21390, 21627, 22793, 22973, 23184, 23492, 23706, 23874, 25006, 25143, 25377, 25523, 25656, 25977, 27500, 27659, 27750, 28093, 28466, 29101, 29353, 29648, 29822, 29934, 30172, 30585, 30756, 31063, 31410, 32618, 32811, 32907, 33184, 33301, 33995, 35174, 35407, 35581, 35787, 36140, 36300, 36482, 36611, 36942, 38102, 38369, 38473, 38736, 38924, 39047, 39311, 40012, 40729, 40947, 41193, 41354, 41603, 41714, 41794, 41951, 42365, 43192, 43349, 43533, 43798, 43912, 44213, 45243, 45340, 45540, 45788, 46013, 46118, 46337, 46593, 48417, 48734, 49022, 49162, 49391, 49561, 49778, 57395], "trial_type": "free-recall", "conditions": [18, 1200, "a", 18000], "internal_node_id": "0.0-57.0-0.0", "key_presses": [66, 65, 78, 75, 13, 76, 76, 86, 8, 8, 79, 86, 69, 82, 13, 69, 77, 80, 73, 82, 69, 13, 66, 65, 83, 69, 66, 77, 8, 8, 77, 69, 78, 84, 13, 77, 73, 83, 84, 69, 82, 13, 78, 69, 67, 75, 76, 65, 67, 69, 13, 68, 82, 69, 83, 83, 13, 83, 78, 65, 73, 76, 13, 72, 69, 82, 79, 13, 80, 85, 80, 80, 80, 89, 8, 8, 89, 13, 67, 79, 85, 67, 72, 13, 67, 79, 67, 75, 84, 65, 73, 76, 13, 83, 69, 82, 86, 65, 78, 84, 13, 79, 73, 78, 84, 77, 69, 78, 84, 13, 87, 79, 77, 69, 78, 13, 80, 82, 73, 77, 65, 84, 69, 13, 66, 76, 79, 85, 83, 69, 13, 13], "trial": 1, "time_elapsed": 473897, "type": "FREE_RECALL", "trial_index": 75}, "uniqueid": "MTK2617:3IAEQB9FMFRRNENREHGKIXDS3DXWDQ", "dateTime": 1519156593938}, {"current_trial": 76, "trialdata": {"rt": 3424, "trial_type": "text", "internal_node_id": "0.0-58.0", "time_elapsed": 479323, "key_press": 75, "type": "INSTRUCTIONS", "trial_index": 76}, "uniqueid": "MTK2617:3IAEQB9FMFRRNENREHGKIXDS3DXWDQ", "dateTime": 1519156599362}, {"current_trial": 77, "trialdata": {"rt": [2987, 6891, 9634, 12094, 14895, 20220, 22084], "trial_type": "math-distractor", "key_times": [1651, 1899, 2987, 6583, 6891, 9260, 9390, 9634, 11300, 11406, 12094, 13643, 14457, 14895, 19829, 19978, 20220, 21580, 21809, 22084], "responses": ["10", "9", "12", "13", "19", "25", "10"], "num2": [2, 3, 8, 1, 2, 9, 3, 6], "num3": [5, 2, 1, 7, 8, 8, 5, 2], "conditions": [24, 1600, "a", 24000], "internal_node_id": "0.0-59.0", "key_presses": [97, 96, 13, 105, 13, 97, 98, 13, 97, 99, 13, 97, 105, 13, 98, 101, 13, 97, 96, 13], "trial": 2, "time_elapsed": 504328, "type": "DISTRACTOR", "trial_index": 77, "num1": [3, 3, 3, 5, 9, 8, 2, 1]}, "uniqueid": "MTK2617:3IAEQB9FMFRRNENREHGKIXDS3DXWDQ", "dateTime": 1519156624367}, {"current_trial": 78, "trialdata": {"rt": -1, "trial_type": "single-stim", "stimulus": "<p id=\"stim\">10</p>", "internal_node_id": "0.0-60.0-0.0", "time_elapsed": 507329, "key_press": -1, "trial_index": 78}, "uniqueid": "MTK2617:3IAEQB9FMFRRNENREHGKIXDS3DXWDQ", "dateTime": 1519156627368}, {"current_trial": 79, "trialdata": {"rt": -1, "trial_type": "single-stim", "stimulus": "<p id=\"stim\">9</p>", "internal_node_id": "0.0-60.0-1.0", "time_elapsed": 508331, "key_press": -1, "trial_index": 79}, "uniqueid": "MTK2617:3IAEQB9FMFRRNENREHGKIXDS3DXWDQ", "dateTime": 1519156628370}, {"current_trial": 80, "trialdata": {"rt": -1, "trial_type": "single-stim", "stimulus": "<p id=\"stim\">8</p>", "internal_node_id": "0.0-60.0-2.0", "time_elapsed": 509332, "key_press": -1, "trial_index": 80}, "uniqueid": "MTK2617:3IAEQB9FMFRRNENREHGKIXDS3DXWDQ", "dateTime": 1519156629371}, {"current_trial": 81, "trialdata": {"rt": -1, "trial_type": "single-stim", "stimulus": "<p id=\"stim\">7</p>", "internal_node_id": "0.0-60.0-3.0", "time_elapsed": 510332, "key_press": -1, "trial_index": 81}, "uniqueid": "MTK2617:3IAEQB9FMFRRNENREHGKIXDS3DXWDQ", "dateTime": 1519156630371}, {"current_trial": 82, "trialdata": {"rt": -1, "trial_type": "single-stim", "stimulus": "<p id=\"stim\">6</p>", "internal_node_id": "0.0-60.0-4.0", "time_elapsed": 511334, "key_press": -1, "trial_index": 82}, "uniqueid": "MTK2617:3IAEQB9FMFRRNENREHGKIXDS3DXWDQ", "dateTime": 1519156631373}, {"current_trial": 83, "trialdata": {"rt": -1, "trial_type": "single-stim", "stimulus": "<p id=\"stim\">5</p>", "internal_node_id": "0.0-60.0-5.0", "time_elapsed": 512336, "key_press": -1, "trial_index": 83}, "uniqueid": "MTK2617:3IAEQB9FMFRRNENREHGKIXDS3DXWDQ", "dateTime": 1519156632375}, {"current_trial": 84, "trialdata": {"rt": -1, "trial_type": "single-stim", "stimulus": "<p id=\"stim\">4</p>", "internal_node_id": "0.0-60.0-6.0", "time_elapsed": 513337, "key_press": -1, "trial_index": 84}, "uniqueid": "MTK2617:3IAEQB9FMFRRNENREHGKIXDS3DXWDQ", "dateTime": 1519156633376}, {"current_trial": 85, "trialdata": {"rt": -1, "trial_type": "single-stim", "stimulus": "<p id=\"stim\">3</p>", "internal_node_id": "0.0-60.0-7.0", "time_elapsed": 514338, "key_press": -1, "trial_index": 85}, "uniqueid": "MTK2617:3IAEQB9FMFRRNENREHGKIXDS3DXWDQ", "dateTime": 1519156634377}, {"current_trial": 86, "trialdata": {"rt": -1, "trial_type": "single-stim", "stimulus": "<p id=\"stim\">2</p>", "internal_node_id": "0.0-60.0-8.0", "time_elapsed": 515340, "key_press": -1, "trial_index": 86}, "uniqueid": "MTK2617:3IAEQB9FMFRRNENREHGKIXDS3DXWDQ", "dateTime": 1519156635379}, {"current_trial": 87, "trialdata": {"rt": -1, "trial_type": "single-stim", "stimulus": "<p id=\"stim\">1</p>", "internal_node_id": "0.0-60.0-9.0", "time_elapsed": 516341, "key_press": -1, "trial_index": 87}, "uniqueid": "MTK2617:3IAEQB9FMFRRNENREHGKIXDS3DXWDQ", "dateTime": 1519156636380}, {"current_trial": 88, "trialdata": {"rt": -1, "trial_type": "single-stim", "stimulus": "<p id=\"stim\">+</p>", "internal_node_id": "0.0-61.0-0.0", "time_elapsed": 517843, "key_press": -1, "type": "FIXATION", "trial_index": 88}, "uniqueid": "MTK2617:3IAEQB9FMFRRNENREHGKIXDS3DXWDQ", "dateTime": 1519156637882}, {"current_trial": 89, "trialdata": {"rt": -1000, "trial_type": "single-audio", "word": "dorm", "stimulus": "/static/audio/wordpool/DORM.wav", "conditions": [24, 1600, "a", 24000], "internal_node_id": "0.0-62.0", "trial": 2, "time_elapsed": 520305, "serialpos": 0, "key_press": -1, "wordID": 487, "type": "PRES_AUD", "trial_index": 89}, "uniqueid": "MTK2617:3IAEQB9FMFRRNENREHGKIXDS3DXWDQ", "dateTime": 1519156640344}, {"current_trial": 90, "trialdata": {"rt": -1000, "trial_type": "single-audio", "word": "report", "stimulus": "/static/audio/wordpool/REPORT.wav", "conditions": [24, 1600, "a", 24000], "internal_node_id": "0.0-63.0", "trial": 2, "time_elapsed": 522941, "serialpos": 1, "key_press": -1, "wordID": 1183, "type": "PRES_AUD", "trial_index": 90}, "uniqueid": "MTK2617:3IAEQB9FMFRRNENREHGKIXDS3DXWDQ", "dateTime": 1519156642980}, {"current_trial": 91, "trialdata": {"rt": -1000, "trial_type": "single-audio", "word": "muffin", "stimulus": "/static/audio/wordpool/MUFFIN.wav", "conditions": [24, 1600, "a", 24000], "internal_node_id": "0.0-64.0", "trial": 2, "time_elapsed": 525452, "serialpos": 2, "key_press": -1, "wordID": 928, "type": "PRES_AUD", "trial_index": 91}, "uniqueid": "MTK2617:3IAEQB9FMFRRNENREHGKIXDS3DXWDQ", "dateTime": 1519156645491}, {"current_trial": 92, "trialdata": {"rt": -1000, "trial_type": "single-audio", "word": "coffee", "stimulus": "/static/audio/wordpool/COFFEE.wav", "conditions": [24, 1600, "a", 24000], "internal_node_id": "0.0-65.0", "trial": 2, "time_elapsed": 528067, "serialpos": 3, "key_press": -1, "wordID": 340, "type": "PRES_AUD", "trial_index": 92}, "uniqueid": "MTK2617:3IAEQB9FMFRRNENREHGKIXDS3DXWDQ", "dateTime": 1519156648106}, {"current_trial": 93, "trialdata": {"rt": -1000, "trial_type": "single-audio", "word": "scotch", "stimulus": "/static/audio/wordpool/SCOTCH.wav", "conditions": [24, 1600, "a", 24000], "internal_node_id": "0.0-66.0", "trial": 2, "time_elapsed": 530641, "serialpos": 4, "key_press": -1, "wordID": 1250, "type": "PRES_AUD", "trial_index": 93}, "uniqueid": "MTK2617:3IAEQB9FMFRRNENREHGKIXDS3DXWDQ", "dateTime": 1519156650680}, {"current_trial": 94, "trialdata": {"rt": -1000, "trial_type": "single-audio", "word": "brandy", "stimulus": "/static/audio/wordpool/BRANDY.wav", "conditions": [24, 1600, "a", 24000], "internal_node_id": "0.0-67.0", "trial": 2, "time_elapsed": 533119, "serialpos": 5, "key_press": -1, "wordID": 168, "type": "PRES_AUD", "trial_index": 94}, "uniqueid": "MTK2617:3IAEQB9FMFRRNENREHGKIXDS3DXWDQ", "dateTime": 1519156653159}, {"current_trial": 95, "trialdata": {"rt": -1000, "trial_type": "single-audio", "word": "shirt", "stimulus": "/static/audio/wordpool/SHIRT.wav", "conditions": [24, 1600, "a", 24000], "internal_node_id": "0.0-68.0", "trial": 2, "time_elapsed": 535644, "serialpos": 6, "key_press": -1, "wordID": 1286, "type": "PRES_AUD", "trial_index": 95}, "uniqueid": "MTK2617:3IAEQB9FMFRRNENREHGKIXDS3DXWDQ", "dateTime": 1519156655683}, {"current_trial": 96, "trialdata": {"rt": -1000, "trial_type": "single-audio", "word": "powder", "stimulus": "/static/audio/wordpool/POWDER.wav", "conditions": [24, 1600, "a", 24000], "internal_node_id": "0.0-69.0", "trial": 2, "time_elapsed": 538089, "serialpos": 7, "key_press": -1, "wordID": 1116, "type": "PRES_AUD", "trial_index": 96}, "uniqueid": "MTK2617:3IAEQB9FMFRRNENREHGKIXDS3DXWDQ", "dateTime": 1519156658128}, {"current_trial": 97, "trialdata": {"rt": -1000, "trial_type": "single-audio", "word": "sandwich", "stimulus": "/static/audio/wordpool/SANDWICH.wav", "conditions": [24, 1600, "a", 24000], "internal_node_id": "0.0-70.0", "trial": 2, "time_elapsed": 540639, "serialpos": 8, "key_press": -1, "wordID": 1231, "type": "PRES_AUD", "trial_index": 97}, "uniqueid": "MTK2617:3IAEQB9FMFRRNENREHGKIXDS3DXWDQ", "dateTime": 1519156660678}, {"current_trial": 98, "trialdata": {"rt": -1000, "trial_type": "single-audio", "word": "gangster", "stimulus": "/static/audio/wordpool/GANGSTER.wav", "conditions": [24, 1600, "a", 24000], "internal_node_id": "0.0-71.0", "trial": 2, "time_elapsed": 543219, "serialpos": 9, "key_press": -1, "wordID": 619, "type": "PRES_AUD", "trial_index": 98}, "uniqueid": "MTK2617:3IAEQB9FMFRRNENREHGKIXDS3DXWDQ", "dateTime": 1519156663258}, {"current_trial": 99, "trialdata": {"rt": -1000, "trial_type": "single-audio", "word": "blender", "stimulus": "/static/audio/wordpool/BLENDER.wav", "conditions": [24, 1600, "a", 24000], "internal_node_id": "0.0-72.0", "trial": 2, "time_elapsed": 545869, "serialpos": 10, "key_press": -1, "wordID": 135, "type": "PRES_AUD", "trial_index": 99}, "uniqueid": "MTK2617:3IAEQB9FMFRRNENREHGKIXDS3DXWDQ", "dateTime": 1519156665908}, {"current_trial": 100, "trialdata": {"rt": -1000, "trial_type": "single-audio", "word": "omelet", "stimulus": "/static/audio/wordpool/OMELET.wav", "conditions": [24, 1600, "a", 24000], "internal_node_id": "0.0-73.0", "trial": 2, "time_elapsed": 548331, "serialpos": 11, "key_press": -1, "wordID": 975, "type": "PRES_AUD", "trial_index": 100}, "uniqueid": "MTK2617:3IAEQB9FMFRRNENREHGKIXDS3DXWDQ", "dateTime": 1519156668370}, {"current_trial": 101, "trialdata": {"rt": -1000, "trial_type": "single-audio", "word": "seagull", "stimulus": "/static/audio/wordpool/SEAGULL.wav", "conditions": [24, 1600, "a", 24000], "internal_node_id": "0.0-74.0", "trial": 2, "time_elapsed": 550747, "serialpos": 12, "key_press": -1, "wordID": 1260, "type": "PRES_AUD", "trial_index": 101}, "uniqueid": "MTK2617:3IAEQB9FMFRRNENREHGKIXDS3DXWDQ", "dateTime": 1519156670786}, {"current_trial": 102, "trialdata": {"rt": -1000, "trial_type": "single-audio", "word": "quail", "stimulus": "/static/audio/wordpool/QUAIL.wav", "conditions": [24, 1600, "a", 24000], "internal_node_id": "0.0-75.0", "trial": 2, "time_elapsed": 553387, "serialpos": 13, "key_press": -1, "wordID": 1146, "type": "PRES_AUD", "trial_index": 102}, "uniqueid": "MTK2617:3IAEQB9FMFRRNENREHGKIXDS3DXWDQ", "dateTime": 1519156673426}, {"current_trial": 103, "trialdata": {"rt": -1000, "trial_type": "single-audio", "word": "teacher", "stimulus": "/static/audio/wordpool/TEACHER.wav", "conditions": [24, 1600, "a", 24000], "internal_node_id": "0.0-76.0", "trial": 2, "time_elapsed": 555947, "serialpos": 14, "key_press": -1, "wordID": 1439, "type": "PRES_AUD", "trial_index": 103}, "uniqueid": "MTK2617:3IAEQB9FMFRRNENREHGKIXDS3DXWDQ", "dateTime": 1519156675986}, {"current_trial": 104, "trialdata": {"rt": -1000, "trial_type": "single-audio", "word": "viking", "stimulus": "/static/audio/wordpool/VIKING.wav", "conditions": [24, 1600, "a", 24000], "internal_node_id": "0.0-77.0", "trial": 2, "time_elapsed": 558453, "serialpos": 15, "key_press": -1, "wordID": 1564, "type": "PRES_AUD", "trial_index": 104}, "uniqueid": "MTK2617:3IAEQB9FMFRRNENREHGKIXDS3DXWDQ", "dateTime": 1519156678492}, {"current_trial": 105, "trialdata": {"rt": -1000, "trial_type": "single-audio", "word": "lily", "stimulus": "/static/audio/wordpool/LILY.wav", "conditions": [24, 1600, "a", 24000], "internal_node_id": "0.0-78.0", "trial": 2, "time_elapsed": 561143, "serialpos": 16, "key_press": -1, "wordID": 820, "type": "PRES_AUD", "trial_index": 105}, "uniqueid": "MTK2617:3IAEQB9FMFRRNENREHGKIXDS3DXWDQ", "dateTime": 1519156681182}, {"current_trial": 106, "trialdata": {"rt": -1000, "trial_type": "single-audio", "word": "cobra", "stimulus": "/static/audio/wordpool/COBRA.wav", "conditions": [24, 1600, "a", 24000], "internal_node_id": "0.0-79.0", "trial": 2, "time_elapsed": 563886, "serialpos": 17, "key_press": -1, "wordID": 335, "type": "PRES_AUD", "trial_index": 106}, "uniqueid": "MTK2617:3IAEQB9FMFRRNENREHGKIXDS3DXWDQ", "dateTime": 1519156683925}, {"current_trial": 107, "trialdata": {"rt": -1000, "trial_type": "single-audio", "word": "termite", "stimulus": "/static/audio/wordpool/TERMITE.wav", "conditions": [24, 1600, "a", 24000], "internal_node_id": "0.0-80.0", "trial": 2, "time_elapsed": 566305, "serialpos": 18, "key_press": -1, "wordID": 1450, "type": "PRES_AUD", "trial_index": 107}, "uniqueid": "MTK2617:3IAEQB9FMFRRNENREHGKIXDS3DXWDQ", "dateTime": 1519156686344}, {"current_trial": 108, "trialdata": {"rt": -1000, "trial_type": "single-audio", "word": "daisy", "stimulus": "/static/audio/wordpool/DAISY.wav", "conditions": [24, 1600, "a", 24000], "internal_node_id": "0.0-81.0", "trial": 2, "time_elapsed": 568859, "serialpos": 19, "key_press": -1, "wordID": 434, "type": "PRES_AUD", "trial_index": 108}, "uniqueid": "MTK2617:3IAEQB9FMFRRNENREHGKIXDS3DXWDQ", "dateTime": 1519156688898}, {"current_trial": 109, "trialdata": {"rt": -1000, "trial_type": "single-audio", "word": "dust", "stimulus": "/static/audio/wordpool/DUST.wav", "conditions": [24, 1600, "a", 24000], "internal_node_id": "0.0-82.0", "trial": 2, "time_elapsed": 571638, "serialpos": 20, "key_press": -1, "wordID": 507, "type": "PRES_AUD", "trial_index": 109}, "uniqueid": "MTK2617:3IAEQB9FMFRRNENREHGKIXDS3DXWDQ", "dateTime": 1519156691678}, {"current_trial": 110, "trialdata": {"rt": -1000, "trial_type": "single-audio", "word": "popcorn", "stimulus": "/static/audio/wordpool/POPCORN.wav", "conditions": [24, 1600, "a", 24000], "internal_node_id": "0.0-83.0", "trial": 2, "time_elapsed": 574142, "serialpos": 21, "key_press": -1, "wordID": 1103, "type": "PRES_AUD", "trial_index": 110}, "uniqueid": "MTK2617:3IAEQB9FMFRRNENREHGKIXDS3DXWDQ", "dateTime": 1519156694182}, {"current_trial": 111, "trialdata": {"rt": -1000, "trial_type": "single-audio", "word": "snack", "stimulus": "/static/audio/wordpool/SNACK.wav", "conditions": [24, 1600, "a", 24000], "internal_node_id": "0.0-84.0", "trial": 2, "time_elapsed": 576690, "serialpos": 22, "key_press": -1, "wordID": 1330, "type": "PRES_AUD", "trial_index": 111}, "uniqueid": "MTK2617:3IAEQB9FMFRRNENREHGKIXDS3DXWDQ", "dateTime": 1519156696729}, {"current_trial": 112, "trialdata": {"rt": -1000, "trial_type": "single-audio", "word": "paper", "stimulus": "/static/audio/wordpool/PAPER.wav", "conditions": [24, 1600, "a", 24000], "internal_node_id": "0.0-85.0", "trial": 2, "time_elapsed": 579246, "serialpos": 23, "key_press": -1, "wordID": 1010, "type": "PRES_AUD", "trial_index": 112}, "uniqueid": "MTK2617:3IAEQB9FMFRRNENREHGKIXDS3DXWDQ", "dateTime": 1519156699285}, {"current_trial": 113, "trialdata": {"rt": -1, "trial_type": "single-stim", "stimulus": "", "internal_node_id": "0.0-86.0-0.0", "time_elapsed": 580485, "key_press": -1, "type": "PRE_RECALL_DELAY", "trial_index": 113}, "uniqueid": "MTK2617:3IAEQB9FMFRRNENREHGKIXDS3DXWDQ", "dateTime": 1519156700524}, {"current_trial": 114, "trialdata": {"rt": -1000, "trial_type": "single-audio", "stimulus": "/static/audio/400Hz.wav", "internal_node_id": "0.0-87.0", "time_elapsed": 580986, "key_press": -1, "type": "PRE_RECALL_ALERT", "trial_index": 114}, "uniqueid": "MTK2617:3IAEQB9FMFRRNENREHGKIXDS3DXWDQ", "dateTime": 1519156701025}, {"current_trial": 115, "trialdata": {"rt": [3418, 6274, 8422, 11289, 14683, 17761, 20556, 25404, 29288, 33872, 36986, 40073, 50994, 54302, 56715], "recwords": ["dorm", "dorm", "report", "muffin", "coffee", "scotch", "brandy", "powder", "sandwich", "gangster", "blender", "omelet", "teacher", "viking", "lily"], "key_times": [2594, 2770, 2934, 3099, 3418, 3831, 4606, 5245, 5432, 5642, 5818, 6274, 6948, 7109, 7455, 7652, 7757, 7995, 8422, 9925, 10168, 10420, 10596, 10702, 10852, 11289, 13498, 13667, 13839, 14033, 14228, 14426, 14683, 16217, 16467, 16679, 16806, 17234, 17404, 17761, 19253, 19506, 19687, 19831, 20014, 20239, 20556, 23380, 23723, 24510, 24859, 25069, 25154, 25404, 26536, 26812, 27027, 27372, 27897, 28031, 28297, 28451, 29288, 32137, 32346, 32442, 32623, 33158, 33314, 33541, 33630, 33872, 35494, 35844, 36012, 36205, 36355, 36555, 36634, 36986, 38498, 38779, 39042, 39298, 39572, 39778, 40073, 42975, 43299, 43488, 43764, 44077, 44165, 45798, 45986, 46152, 46343, 47427, 47977, 48017, 48056, 48094, 48133, 48171, 48210, 48248, 48287, 48325, 48366, 49314, 49704, 49890, 50289, 50426, 50557, 50640, 50994, 52407, 52622, 53034, 53303, 53563, 53722, 54302, 55524, 55777, 56035, 56384, 56715, 58193, 58477, 58693, 59011, 59257, 59550], "trial_type": "free-recall", "conditions": [24, 1600, "a", 24000], "internal_node_id": "0.0-88.0-0.0", "key_presses": [68, 79, 82, 77, 13, 82, 8, 68, 79, 82, 77, 13, 82, 69, 80, 79, 82, 84, 13, 77, 85, 70, 70, 73, 78, 13, 67, 79, 70, 70, 69, 69, 13, 83, 67, 79, 84, 67, 72, 13, 66, 82, 65, 78, 68, 89, 13, 80, 79, 87, 68, 69, 82, 13, 83, 65, 78, 68, 87, 73, 67, 72, 13, 71, 65, 78, 71, 83, 84, 69, 82, 13, 66, 76, 69, 78, 68, 69, 82, 13, 79, 77, 69, 76, 69, 84, 13, 83, 69, 65, 71, 76, 69, 8, 8, 65, 76, 8, 8, 8, 8, 8, 8, 8, 8, 8, 8, 8, 8, 84, 69, 65, 67, 72, 69, 82, 13, 86, 73, 75, 73, 78, 71, 13, 76, 73, 76, 89, 13, 67, 79, 76, 66, 82, 65], "trial": 2, "time_elapsed": 640987, "type": "FREE_RECALL", "trial_index": 115}, "uniqueid": "MTK2617:3IAEQB9FMFRRNENREHGKIXDS3DXWDQ", "dateTime": 1519156761028}, {"current_trial": 116, "trialdata": {"rt": 1115, "trial_type": "text", "internal_node_id": "0.0-89.0", "time_elapsed": 644105, "key_press": 75, "type": "INSTRUCTIONS", "trial_index": 116}, "uniqueid": "MTK2617:3IAEQB9FMFRRNENREHGKIXDS3DXWDQ", "dateTime": 1519156764144}, {"current_trial": 117, "trialdata": {"rt": [2035, 7006, 9076, 11196, 19045, 21577], "trial_type": "math-distractor", "key_times": [1364, 1465, 2035, 6300, 6496, 7006, 8285, 8428, 9076, 10942, 11196, 17272, 18080, 18681, 18849, 19045, 21037, 21265, 21577], "responses": ["15", "17", "13", "9", "25", "19"], "num2": [7, 8, 5, 5, 7, 5, 4], "num3": [5, 5, 3, 1, 9, 8, 6], "conditions": [12, 1600, "a", 24000], "internal_node_id": "0.0-90.0", "key_presses": [97, 101, 13, 97, 103, 13, 97, 99, 13, 105, 13, 97, 8, 98, 101, 13, 97, 105, 13], "trial": 3, "time_elapsed": 670108, "type": "DISTRACTOR", "trial_index": 117, "num1": [3, 4, 5, 3, 9, 6, 4]}, "uniqueid": "MTK2617:3IAEQB9FMFRRNENREHGKIXDS3DXWDQ", "dateTime": 1519156790147}, {"current_trial": 118, "trialdata": {"rt": -1, "trial_type": "single-stim", "stimulus": "<p id=\"stim\">10</p>", "internal_node_id": "0.0-91.0-0.0", "time_elapsed": 673110, "key_press": -1, "trial_index": 118}, "uniqueid": "MTK2617:3IAEQB9FMFRRNENREHGKIXDS3DXWDQ", "dateTime": 1519156793149}, {"current_trial": 119, "trialdata": {"rt": -1, "trial_type": "single-stim", "stimulus": "<p id=\"stim\">9</p>", "internal_node_id": "0.0-91.0-1.0", "time_elapsed": 674111, "key_press": -1, "trial_index": 119}, "uniqueid": "MTK2617:3IAEQB9FMFRRNENREHGKIXDS3DXWDQ", "dateTime": 1519156794150}, {"current_trial": 120, "trialdata": {"rt": -1, "trial_type": "single-stim", "stimulus": "<p id=\"stim\">8</p>", "internal_node_id": "0.0-91.0-2.0", "time_elapsed": 675112, "key_press": -1, "trial_index": 120}, "uniqueid": "MTK2617:3IAEQB9FMFRRNENREHGKIXDS3DXWDQ", "dateTime": 1519156795151}, {"current_trial": 121, "trialdata": {"rt": -1, "trial_type": "single-stim", "stimulus": "<p id=\"stim\">7</p>", "internal_node_id": "0.0-91.0-3.0", "time_elapsed": 676113, "key_press": -1, "trial_index": 121}, "uniqueid": "MTK2617:3IAEQB9FMFRRNENREHGKIXDS3DXWDQ", "dateTime": 1519156796152}, {"current_trial": 122, "trialdata": {"rt": -1, "trial_type": "single-stim", "stimulus": "<p id=\"stim\">6</p>", "internal_node_id": "0.0-91.0-4.0", "time_elapsed": 677114, "key_press": -1, "trial_index": 122}, "uniqueid": "MTK2617:3IAEQB9FMFRRNENREHGKIXDS3DXWDQ", "dateTime": 1519156797153}, {"current_trial": 123, "trialdata": {"rt": -1, "trial_type": "single-stim", "stimulus": "<p id=\"stim\">5</p>", "internal_node_id": "0.0-91.0-5.0", "time_elapsed": 678115, "key_press": -1, "trial_index": 123}, "uniqueid": "MTK2617:3IAEQB9FMFRRNENREHGKIXDS3DXWDQ", "dateTime": 1519156798154}, {"current_trial": 124, "trialdata": {"rt": -1, "trial_type": "single-stim", "stimulus": "<p id=\"stim\">4</p>", "internal_node_id": "0.0-91.0-6.0", "time_elapsed": 679116, "key_press": -1, "trial_index": 124}, "uniqueid": "MTK2617:3IAEQB9FMFRRNENREHGKIXDS3DXWDQ", "dateTime": 1519156799155}, {"current_trial": 125, "trialdata": {"rt": -1, "trial_type": "single-stim", "stimulus": "<p id=\"stim\">3</p>", "internal_node_id": "0.0-91.0-7.0", "time_elapsed": 680118, "key_press": -1, "trial_index": 125}, "uniqueid": "MTK2617:3IAEQB9FMFRRNENREHGKIXDS3DXWDQ", "dateTime": 1519156800157}, {"current_trial": 126, "trialdata": {"rt": -1, "trial_type": "single-stim", "stimulus": "<p id=\"stim\">2</p>", "internal_node_id": "0.0-91.0-8.0", "time_elapsed": 681119, "key_press": -1, "trial_index": 126}, "uniqueid": "MTK2617:3IAEQB9FMFRRNENREHGKIXDS3DXWDQ", "dateTime": 1519156801158}, {"current_trial": 127, "trialdata": {"rt": -1, "trial_type": "single-stim", "stimulus": "<p id=\"stim\">1</p>", "internal_node_id": "0.0-91.0-9.0", "time_elapsed": 682120, "key_press": -1, "trial_index": 127}, "uniqueid": "MTK2617:3IAEQB9FMFRRNENREHGKIXDS3DXWDQ", "dateTime": 1519156802159}, {"current_trial": 128, "trialdata": {"rt": -1, "trial_type": "single-stim", "stimulus": "<p id=\"stim\">+</p>", "internal_node_id": "0.0-92.0-0.0", "time_elapsed": 683621, "key_press": -1, "type": "FIXATION", "trial_index": 128}, "uniqueid": "MTK2617:3IAEQB9FMFRRNENREHGKIXDS3DXWDQ", "dateTime": 1519156803660}, {"current_trial": 129, "trialdata": {"rt": -1000, "trial_type": "single-audio", "word": "leg", "stimulus": "/static/audio/wordpool/LEG.wav", "conditions": [12, 1600, "a", 24000], "internal_node_id": "0.0-93.0", "trial": 3, "time_elapsed": 686224, "serialpos": 0, "key_press": -1, "wordID": 808, "type": "PRES_AUD", "trial_index": 129}, "uniqueid": "MTK2617:3IAEQB9FMFRRNENREHGKIXDS3DXWDQ", "dateTime": 1519156806263}, {"current_trial": 130, "trialdata": {"rt": -1000, "trial_type": "single-audio", "word": "nurse", "stimulus": "/static/audio/wordpool/NURSE.wav", "conditions": [12, 1600, "a", 24000], "internal_node_id": "0.0-94.0", "trial": 3, "time_elapsed": 688737, "serialpos": 1, "key_press": -1, "wordID": 962, "type": "PRES_AUD", "trial_index": 130}, "uniqueid": "MTK2617:3IAEQB9FMFRRNENREHGKIXDS3DXWDQ", "dateTime": 1519156808776}, {"current_trial": 131, "trialdata": {"rt": -1000, "trial_type": "single-audio", "word": "airport", "stimulus": "/static/audio/wordpool/AIRPORT.wav", "conditions": [12, 1600, "a", 24000], "internal_node_id": "0.0-95.0", "trial": 3, "time_elapsed": 691354, "serialpos": 2, "key_press": -1, "wordID": 12, "type": "PRES_AUD", "trial_index": 131}, "uniqueid": "MTK2617:3IAEQB9FMFRRNENREHGKIXDS3DXWDQ", "dateTime": 1519156811393}, {"current_trial": 132, "trialdata": {"rt": -1000, "trial_type": "single-audio", "word": "arm", "stimulus": "/static/audio/wordpool/ARM.wav", "conditions": [12, 1600, "a", 24000], "internal_node_id": "0.0-96.0", "trial": 3, "time_elapsed": 693930, "serialpos": 3, "key_press": -1, "wordID": 37, "type": "PRES_AUD", "trial_index": 132}, "uniqueid": "MTK2617:3IAEQB9FMFRRNENREHGKIXDS3DXWDQ", "dateTime": 1519156813969}, {"current_trial": 133, "trialdata": {"rt": -1000, "trial_type": "single-audio", "word": "shoulder", "stimulus": "/static/audio/wordpool/SHOULDER.wav", "conditions": [12, 1600, "a", 24000], "internal_node_id": "0.0-97.0", "trial": 3, "time_elapsed": 696434, "serialpos": 4, "key_press": -1, "wordID": 1293, "type": "PRES_AUD", "trial_index": 133}, "uniqueid": "MTK2617:3IAEQB9FMFRRNENREHGKIXDS3DXWDQ", "dateTime": 1519156816473}, {"current_trial": 134, "trialdata": {"rt": -1000, "trial_type": "single-audio", "word": "world", "stimulus": "/static/audio/wordpool/WORLD.wav", "conditions": [12, 1600, "a", 24000], "internal_node_id": "0.0-98.0", "trial": 3, "time_elapsed": 699234, "serialpos": 5, "key_press": -1, "wordID": 1621, "type": "PRES_AUD", "trial_index": 134}, "uniqueid": "MTK2617:3IAEQB9FMFRRNENREHGKIXDS3DXWDQ", "dateTime": 1519156819273}, {"current_trial": 135, "trialdata": {"rt": -1000, "trial_type": "single-audio", "word": "passage", "stimulus": "/static/audio/wordpool/PASSAGE.wav", "conditions": [12, 1600, "a", 24000], "internal_node_id": "0.0-99.0", "trial": 3, "time_elapsed": 701699, "serialpos": 6, "key_press": -1, "wordID": 1018, "type": "PRES_AUD", "trial_index": 135}, "uniqueid": "MTK2617:3IAEQB9FMFRRNENREHGKIXDS3DXWDQ", "dateTime": 1519156821738}, {"current_trial": 136, "trialdata": {"rt": -1000, "trial_type": "single-audio", "word": "knife", "stimulus": "/static/audio/wordpool/KNIFE.wav", "conditions": [12, 1600, "a", 24000], "internal_node_id": "0.0-100.0", "trial": 3, "time_elapsed": 704445, "serialpos": 7, "key_press": -1, "wordID": 784, "type": "PRES_AUD", "trial_index": 136}, "uniqueid": "MTK2617:3IAEQB9FMFRRNENREHGKIXDS3DXWDQ", "dateTime": 1519156824484}, {"current_trial": 137, "trialdata": {"rt": -1000, "trial_type": "single-audio", "word": "ox", "stimulus": "/static/audio/wordpool/OX.wav", "conditions": [12, 1600, "a", 24000], "internal_node_id": "0.0-101.0", "trial": 3, "time_elapsed": 707087, "serialpos": 8, "key_press": -1, "wordID": 993, "type": "PRES_AUD", "trial_index": 137}, "uniqueid": "MTK2617:3IAEQB9FMFRRNENREHGKIXDS3DXWDQ", "dateTime": 1519156827126}, {"current_trial": 138, "trialdata": {"rt": -1000, "trial_type": "single-audio", "word": "sunset", "stimulus": "/static/audio/wordpool/SUNSET.wav", "conditions": [12, 1600, "a", 24000], "internal_node_id": "0.0-102.0", "trial": 3, "time_elapsed": 709496, "serialpos": 9, "key_press": -1, "wordID": 1407, "type": "PRES_AUD", "trial_index": 138}, "uniqueid": "MTK2617:3IAEQB9FMFRRNENREHGKIXDS3DXWDQ", "dateTime": 1519156829535}, {"current_trial": 139, "trialdata": {"rt": -1000, "trial_type": "single-audio", "word": "globe", "stimulus": "/static/audio/wordpool/GLOBE.wav", "conditions": [12, 1600, "a", 24000], "internal_node_id": "0.0-103.0", "trial": 3, "time_elapsed": 711911, "serialpos": 10, "key_press": -1, "wordID": 640, "type": "PRES_AUD", "trial_index": 139}, "uniqueid": "MTK2617:3IAEQB9FMFRRNENREHGKIXDS3DXWDQ", "dateTime": 1519156831950}, {"current_trial": 140, "trialdata": {"rt": -1000, "trial_type": "single-audio", "word": "body", "stimulus": "/static/audio/wordpool/BODY.wav", "conditions": [12, 1600, "a", 24000], "internal_node_id": "0.0-104.0", "trial": 3, "time_elapsed": 714377, "serialpos": 11, "key_press": -1, "wordID": 144, "type": "PRES_AUD", "trial_index": 140}, "uniqueid": "MTK2617:3IAEQB9FMFRRNENREHGKIXDS3DXWDQ", "dateTime": 1519156834416}, {"current_trial": 141, "trialdata": {"rt": -1, "trial_type": "single-stim", "stimulus": "", "internal_node_id": "0.0-105.0-0.0", "time_elapsed": 715683, "key_press": -1, "type": "PRE_RECALL_DELAY", "trial_index": 141}, "uniqueid": "MTK2617:3IAEQB9FMFRRNENREHGKIXDS3DXWDQ", "dateTime": 1519156835722}, {"current_trial": 142, "trialdata": {"rt": -1000, "trial_type": "single-audio", "stimulus": "/static/audio/400Hz.wav", "internal_node_id": "0.0-106.0", "time_elapsed": 716184, "key_press": -1, "type": "PRE_RECALL_ALERT", "trial_index": 142}, "uniqueid": "MTK2617:3IAEQB9FMFRRNENREHGKIXDS3DXWDQ", "dateTime": 1519156836223}, {"current_trial": 143, "trialdata": {"rt": [2583, 5045, 10638, 12806, 14672, 17999, 20552, 22936, 25796, 28333, 30252, 34560, 46119], "recwords": ["leg", "nurse", "airport", "arm", "shoulder", "world", "globe", "body", "passage", "knife", "ox", "sunset", ""], "key_times": [1931, 2122, 2359, 2583, 3930, 4138, 4216, 4531, 4756, 5045, 6224, 6490, 6722, 6856, 7232, 7412, 7569, 7709, 7847, 8512, 8632, 8791, 9095, 9348, 9671, 9925, 10638, 12014, 12152, 12359, 12806, 13155, 13335, 13503, 13626, 13806, 13965, 14224, 14320, 14672, 16723, 16867, 16978, 17180, 17680, 17999, 19399, 19596, 19855, 20081, 20291, 20552, 21020, 21161, 21811, 22210, 22332, 22551, 22936, 24265, 24402, 24691, 24924, 25201, 25334, 25528, 25796, 26164, 26319, 26535, 26741, 26967, 27055, 27512, 27706, 27818, 28333, 29525, 29716, 30252, 30970, 31225, 31447, 32084, 32302, 32422, 34560, 46119], "trial_type": "free-recall", "conditions": [12, 1600, "a", 24000], "internal_node_id": "0.0-107.0-0.0", "key_presses": [76, 69, 71, 13, 78, 85, 82, 83, 69, 13, 67, 65, 73, 82, 8, 8, 8, 8, 8, 65, 73, 82, 80, 79, 82, 84, 13, 65, 82, 77, 13, 83, 72, 79, 85, 76, 68, 69, 82, 13, 87, 79, 82, 76, 68, 13, 71, 76, 79, 66, 69, 13, 66, 79, 67, 8, 68, 89, 13, 80, 65, 83, 83, 65, 71, 69, 13, 75, 78, 73, 70, 82, 69, 8, 8, 69, 13, 79, 88, 13, 83, 85, 78, 83, 69, 84, 13, 13], "trial": 3, "time_elapsed": 776186, "type": "FREE_RECALL", "trial_index": 143}, "uniqueid": "MTK2617:3IAEQB9FMFRRNENREHGKIXDS3DXWDQ", "dateTime": 1519156896227}, {"current_trial": 144, "trialdata": {"rt": 1492, "trial_type": "text", "internal_node_id": "0.0-108.0", "time_elapsed": 779682, "key_press": 76, "type": "INSTRUCTIONS", "trial_index": 144}, "uniqueid": "MTK2617:3IAEQB9FMFRRNENREHGKIXDS3DXWDQ", "dateTime": 1519156899721}, {"current_trial": 145, "trialdata": {"rt": [2166, 14345, 17645, 20294, 22172], "trial_type": "math-distractor", "key_times": [1428, 1529, 2166, 12456, 13389, 13948, 14111, 14345, 17257, 17363, 17645, 19911, 20006, 20294, 21620, 21862, 22172], "responses": ["18", "23", "16", "15", "17"], "num2": [3, 8, 4, 8, 6, 3], "num3": [8, 9, 5, 4, 7, 6], "conditions": [12, 800, "a", 24000], "internal_node_id": "0.0-109.0", "key_presses": [97, 104, 13, 97, 8, 98, 99, 13, 97, 102, 13, 97, 101, 13, 97, 103, 13], "trial": 4, "time_elapsed": 805684, "type": "DISTRACTOR", "trial_index": 145, "num1": [7, 6, 7, 3, 4, 4]}, "uniqueid": "MTK2617:3IAEQB9FMFRRNENREHGKIXDS3DXWDQ", "dateTime": 1519156925723}, {"current_trial": 146, "trialdata": {"rt": -1, "trial_type": "single-stim", "stimulus": "<p id=\"stim\">10</p>", "internal_node_id": "0.0-110.0-0.0", "time_elapsed": 808686, "key_press": -1, "trial_index": 146}, "uniqueid": "MTK2617:3IAEQB9FMFRRNENREHGKIXDS3DXWDQ", "dateTime": 1519156928725}, {"current_trial": 147, "trialdata": {"rt": -1, "trial_type": "single-stim", "stimulus": "<p id=\"stim\">9</p>", "internal_node_id": "0.0-110.0-1.0", "time_elapsed": 809687, "key_press": -1, "trial_index": 147}, "uniqueid": "MTK2617:3IAEQB9FMFRRNENREHGKIXDS3DXWDQ", "dateTime": 1519156929726}, {"current_trial": 148, "trialdata": {"rt": -1, "trial_type": "single-stim", "stimulus": "<p id=\"stim\">8</p>", "internal_node_id": "0.0-110.0-2.0", "time_elapsed": 810688, "key_press": -1, "trial_index": 148}, "uniqueid": "MTK2617:3IAEQB9FMFRRNENREHGKIXDS3DXWDQ", "dateTime": 1519156930727}, {"current_trial": 149, "trialdata": {"rt": -1, "trial_type": "single-stim", "stimulus": "<p id=\"stim\">7</p>", "internal_node_id": "0.0-110.0-3.0", "time_elapsed": 811689, "key_press": -1, "trial_index": 149}, "uniqueid": "MTK2617:3IAEQB9FMFRRNENREHGKIXDS3DXWDQ", "dateTime": 1519156931728}, {"current_trial": 150, "trialdata": {"rt": -1, "trial_type": "single-stim", "stimulus": "<p id=\"stim\">6</p>", "internal_node_id": "0.0-110.0-4.0", "time_elapsed": 812691, "key_press": -1, "trial_index": 150}, "uniqueid": "MTK2617:3IAEQB9FMFRRNENREHGKIXDS3DXWDQ", "dateTime": 1519156932730}, {"current_trial": 151, "trialdata": {"rt": -1, "trial_type": "single-stim", "stimulus": "<p id=\"stim\">5</p>", "internal_node_id": "0.0-110.0-5.0", "time_elapsed": 813693, "key_press": -1, "trial_index": 151}, "uniqueid": "MTK2617:3IAEQB9FMFRRNENREHGKIXDS3DXWDQ", "dateTime": 1519156933733}, {"current_trial": 152, "trialdata": {"rt": -1, "trial_type": "single-stim", "stimulus": "<p id=\"stim\">4</p>", "internal_node_id": "0.0-110.0-6.0", "time_elapsed": 814695, "key_press": -1, "trial_index": 152}, "uniqueid": "MTK2617:3IAEQB9FMFRRNENREHGKIXDS3DXWDQ", "dateTime": 1519156934734}, {"current_trial": 153, "trialdata": {"rt": -1, "trial_type": "single-stim", "stimulus": "<p id=\"stim\">3</p>", "internal_node_id": "0.0-110.0-7.0", "time_elapsed": 815696, "key_press": -1, "trial_index": 153}, "uniqueid": "MTK2617:3IAEQB9FMFRRNENREHGKIXDS3DXWDQ", "dateTime": 1519156935735}, {"current_trial": 154, "trialdata": {"rt": -1, "trial_type": "single-stim", "stimulus": "<p id=\"stim\">2</p>", "internal_node_id": "0.0-110.0-8.0", "time_elapsed": 816697, "key_press": -1, "trial_index": 154}, "uniqueid": "MTK2617:3IAEQB9FMFRRNENREHGKIXDS3DXWDQ", "dateTime": 1519156936736}, {"current_trial": 155, "trialdata": {"rt": -1, "trial_type": "single-stim", "stimulus": "<p id=\"stim\">1</p>", "internal_node_id": "0.0-110.0-9.0", "time_elapsed": 817698, "key_press": -1, "trial_index": 155}, "uniqueid": "MTK2617:3IAEQB9FMFRRNENREHGKIXDS3DXWDQ", "dateTime": 1519156937737}, {"current_trial": 156, "trialdata": {"rt": -1, "trial_type": "single-stim", "stimulus": "<p id=\"stim\">+</p>", "internal_node_id": "0.0-111.0-0.0", "time_elapsed": 819198, "key_press": -1, "type": "FIXATION", "trial_index": 156}, "uniqueid": "MTK2617:3IAEQB9FMFRRNENREHGKIXDS3DXWDQ", "dateTime": 1519156939238}, {"current_trial": 157, "trialdata": {"rt": -1000, "trial_type": "single-audio", "word": "church", "stimulus": "/static/audio/wordpool/CHURCH.wav", "conditions": [12, 800, "a", 24000], "internal_node_id": "0.0-112.0", "trial": 4, "time_elapsed": 821100, "serialpos": 0, "key_press": -1, "wordID": 306, "type": "PRES_AUD", "trial_index": 157}, "uniqueid": "MTK2617:3IAEQB9FMFRRNENREHGKIXDS3DXWDQ", "dateTime": 1519156941139}, {"current_trial": 158, "trialdata": {"rt": -1000, "trial_type": "single-audio", "word": "ground", "stimulus": "/static/audio/wordpool/GROUND.wav", "conditions": [12, 800, "a", 24000], "internal_node_id": "0.0-113.0", "trial": 4, "time_elapsed": 823026, "serialpos": 1, "key_press": -1, "wordID": 665, "type": "PRES_AUD", "trial_index": 158}, "uniqueid": "MTK2617:3IAEQB9FMFRRNENREHGKIXDS3DXWDQ", "dateTime": 1519156943065}, {"current_trial": 159, "trialdata": {"rt": -1000, "trial_type": "single-audio", "word": "tombstone", "stimulus": "/static/audio/wordpool/TOMBSTONE.wav", "conditions": [12, 800, "a", 24000], "internal_node_id": "0.0-114.0", "trial": 4, "time_elapsed": 824994, "serialpos": 2, "key_press": -1, "wordID": 1477, "type": "PRES_AUD", "trial_index": 159}, "uniqueid": "MTK2617:3IAEQB9FMFRRNENREHGKIXDS3DXWDQ", "dateTime": 1519156945033}, {"current_trial": 160, "trialdata": {"rt": -1000, "trial_type": "single-audio", "word": "casket", "stimulus": "/static/audio/wordpool/CASKET.wav", "conditions": [12, 800, "a", 24000], "internal_node_id": "0.0-115.0", "trial": 4, "time_elapsed": 826959, "serialpos": 3, "key_press": -1, "wordID": 254, "type": "PRES_AUD", "trial_index": 160}, "uniqueid": "MTK2617:3IAEQB9FMFRRNENREHGKIXDS3DXWDQ", "dateTime": 1519156946998}, {"current_trial": 161, "trialdata": {"rt": -1000, "trial_type": "single-audio", "word": "asia", "stimulus": "/static/audio/wordpool/ASIA.wav", "conditions": [12, 800, "a", 24000], "internal_node_id": "0.0-116.0", "trial": 4, "time_elapsed": 828568, "serialpos": 4, "key_press": -1, "wordID": 45, "type": "PRES_AUD", "trial_index": 161}, "uniqueid": "MTK2617:3IAEQB9FMFRRNENREHGKIXDS3DXWDQ", "dateTime": 1519156948607}, {"current_trial": 162, "trialdata": {"rt": -1000, "trial_type": "single-audio", "word": "pilot", "stimulus": "/static/audio/wordpool/PILOT.wav", "conditions": [12, 800, "a", 24000], "internal_node_id": "0.0-117.0", "trial": 4, "time_elapsed": 830235, "serialpos": 5, "key_press": -1, "wordID": 1069, "type": "PRES_AUD", "trial_index": 162}, "uniqueid": "MTK2617:3IAEQB9FMFRRNENREHGKIXDS3DXWDQ", "dateTime": 1519156950274}, {"current_trial": 163, "trialdata": {"rt": -1000, "trial_type": "single-audio", "word": "robber", "stimulus": "/static/audio/wordpool/ROBBER.wav", "conditions": [12, 800, "a", 24000], "internal_node_id": "0.0-118.0", "trial": 4, "time_elapsed": 832097, "serialpos": 6, "key_press": -1, "wordID": 1196, "type": "PRES_AUD", "trial_index": 163}, "uniqueid": "MTK2617:3IAEQB9FMFRRNENREHGKIXDS3DXWDQ", "dateTime": 1519156952136}, {"current_trial": 164, "trialdata": {"rt": -1000, "trial_type": "single-audio", "word": "author", "stimulus": "/static/audio/wordpool/AUTHOR.wav", "conditions": [12, 800, "a", 24000], "internal_node_id": "0.0-119.0", "trial": 4, "time_elapsed": 833918, "serialpos": 7, "key_press": -1, "wordID": 60, "type": "PRES_AUD", "trial_index": 164}, "uniqueid": "MTK2617:3IAEQB9FMFRRNENREHGKIXDS3DXWDQ", "dateTime": 1519156953957}, {"current_trial": 165, "trialdata": {"rt": -1000, "trial_type": "single-audio", "word": "tile", "stimulus": "/static/audio/wordpool/TILE.wav", "conditions": [12, 800, "a", 24000], "internal_node_id": "0.0-120.0", "trial": 4, "time_elapsed": 835558, "serialpos": 8, "key_press": -1, "wordID": 1467, "type": "PRES_AUD", "trial_index": 165}, "uniqueid": "MTK2617:3IAEQB9FMFRRNENREHGKIXDS3DXWDQ", "dateTime": 1519156955597}, {"current_trial": 166, "trialdata": {"rt": -1000, "trial_type": "single-audio", "word": "puddle", "stimulus": "/static/audio/wordpool/PUDDLE.wav", "conditions": [12, 800, "a", 24000], "internal_node_id": "0.0-121.0", "trial": 4, "time_elapsed": 837173, "serialpos": 9, "key_press": -1, "wordID": 1139, "type": "PRES_AUD", "trial_index": 166}, "uniqueid": "MTK2617:3IAEQB9FMFRRNENREHGKIXDS3DXWDQ", "dateTime": 1519156957212}, {"current_trial": 167, "trialdata": {"rt": -1000, "trial_type": "single-audio", "word": "tuba", "stimulus": "/static/audio/wordpool/TUBA.wav", "conditions": [12, 800, "a", 24000], "internal_node_id": "0.0-122.0", "trial": 4, "time_elapsed": 838967, "serialpos": 10, "key_press": -1, "wordID": 1514, "type": "PRES_AUD", "trial_index": 167}, "uniqueid": "MTK2617:3IAEQB9FMFRRNENREHGKIXDS3DXWDQ", "dateTime": 1519156959006}, {"current_trial": 168, "trialdata": {"rt": -1000, "trial_type": "single-audio", "word": "japan", "stimulus": "/static/audio/wordpool/JAPAN.wav", "conditions": [12, 800, "a", 24000], "internal_node_id": "0.0-123.0", "trial": 4, "time_elapsed": 840855, "serialpos": 11, "key_press": -1, "wordID": 748, "type": "PRES_AUD", "trial_index": 168}, "uniqueid": "MTK2617:3IAEQB9FMFRRNENREHGKIXDS3DXWDQ", "dateTime": 1519156960894}, {"current_trial": 169, "trialdata": {"rt": -1, "trial_type": "single-stim", "stimulus": "", "internal_node_id": "0.0-124.0-0.0", "time_elapsed": 842185, "key_press": -1, "type": "PRE_RECALL_DELAY", "trial_index": 169}, "uniqueid": "MTK2617:3IAEQB9FMFRRNENREHGKIXDS3DXWDQ", "dateTime": 1519156962224}, {"current_trial": 170, "trialdata": {"rt": -1000, "trial_type": "single-audio", "stimulus": "/static/audio/400Hz.wav", "internal_node_id": "0.0-125.0", "time_elapsed": 842687, "key_press": -1, "type": "PRE_RECALL_ALERT", "trial_index": 170}, "uniqueid": "MTK2617:3IAEQB9FMFRRNENREHGKIXDS3DXWDQ", "dateTime": 1519156962726}, {"current_trial": 171, "trialdata": {"rt": [4607, 6732, 10979, 13618, 15989, 19419, 23087, 25193, 27367, 30230, 32044, 35635, 37322], "recwords": ["church", "ground", "tombstone", "casket", "asia", "pilot", "robber", "author", "tile", "puddle", "tuba", "japan", ""], "key_times": [2106, 2233, 2650, 2976, 3165, 3278, 3747, 3884, 4607, 5342, 5585, 5725, 5843, 6189, 6338, 6732, 7741, 8200, 8391, 8627, 9230, 9361, 9724, 10037, 10174, 10417, 10544, 10979, 12396, 12635, 12708, 12981, 13119, 13368, 13618, 14917, 15207, 15508, 15802, 15989, 17291, 17548, 17704, 18082, 18240, 18464, 18591, 18815, 19059, 19419, 20819, 21013, 21214, 21476, 21903, 22036, 23087, 23433, 23546, 23922, 24212, 24404, 24660, 25193, 26621, 26808, 26943, 27057, 27367, 27779, 27965, 28347, 28539, 28629, 28774, 30230, 30767, 31008, 31375, 31660, 32044, 33501, 33752, 34891, 35006, 35229, 35635, 37322], "trial_type": "free-recall", "conditions": [12, 800, "a", 24000], "internal_node_id": "0.0-126.0-0.0", "key_presses": [67, 85, 8, 72, 85, 82, 67, 72, 13, 71, 82, 79, 85, 78, 68, 13, 84, 79, 77, 71, 8, 66, 83, 84, 79, 78, 69, 13, 67, 65, 83, 75, 69, 84, 13, 65, 83, 73, 65, 13, 80, 79, 73, 8, 8, 73, 76, 79, 84, 13, 82, 79, 66, 66, 69, 82, 13, 65, 85, 84, 72, 79, 82, 13, 84, 73, 76, 69, 13, 80, 85, 68, 68, 76, 69, 13, 84, 85, 66, 65, 32, 74, 65, 80, 65, 78, 13, 32], "trial": 4, "time_elapsed": 902688, "type": "FREE_RECALL", "trial_index": 171}, "uniqueid": "MTK2617:3IAEQB9FMFRRNENREHGKIXDS3DXWDQ", "dateTime": 1519157022729}, {"current_trial": 172, "trialdata": {"rt": 4686, "trial_type": "text", "internal_node_id": "0.0-127.0", "time_elapsed": 909377, "key_press": 188, "type": "INSTRUCTIONS", "trial_index": 172}, "uniqueid": "MTK2617:3IAEQB9FMFRRNENREHGKIXDS3DXWDQ", "dateTime": 1519157029416}, {"current_trial": 173, "trialdata": {"rt": [6652, 8925, 11099, 14019, 18390, 23047], "trial_type": "math-distractor", "key_times": [5659, 6370, 6652, 8313, 8403, 8925, 10412, 10508, 11099, 13518, 13705, 14019, 16563, 16913, 18390, 22659, 22770, 23047], "responses": ["20", "13", "13", "18", "17", "16"], "num2": [8, 1, 3, 6, 7, 9, 8], "num3": [7, 8, 7, 6, 8, 2, 8], "conditions": [24, 1600, "a", 24000], "internal_node_id": "0.0-128.0", "key_presses": [98, 96, 13, 97, 99, 13, 97, 99, 13, 97, 104, 13, 97, 103, 13, 97, 102, 13], "trial": 5, "time_elapsed": 935381, "type": "DISTRACTOR", "trial_index": 173, "num1": [5, 4, 3, 6, 2, 5, 1]}, "uniqueid": "MTK2617:3IAEQB9FMFRRNENREHGKIXDS3DXWDQ", "dateTime": 1519157055420}, {"current_trial": 174, "trialdata": {"rt": -1, "trial_type": "single-stim", "stimulus": "<p id=\"stim\">10</p>", "internal_node_id": "0.0-129.0-0.0", "time_elapsed": 938383, "key_press": -1, "trial_index": 174}, "uniqueid": "MTK2617:3IAEQB9FMFRRNENREHGKIXDS3DXWDQ", "dateTime": 1519157058422}, {"current_trial": 175, "trialdata": {"rt": -1, "trial_type": "single-stim", "stimulus": "<p id=\"stim\">9</p>", "internal_node_id": "0.0-129.0-1.0", "time_elapsed": 939384, "key_press": -1, "trial_index": 175}, "uniqueid": "MTK2617:3IAEQB9FMFRRNENREHGKIXDS3DXWDQ", "dateTime": 1519157059423}, {"current_trial": 176, "trialdata": {"rt": -1, "trial_type": "single-stim", "stimulus": "<p id=\"stim\">8</p>", "internal_node_id": "0.0-129.0-2.0", "time_elapsed": 940385, "key_press": -1, "trial_index": 176}, "uniqueid": "MTK2617:3IAEQB9FMFRRNENREHGKIXDS3DXWDQ", "dateTime": 1519157060424}, {"current_trial": 177, "trialdata": {"rt": -1, "trial_type": "single-stim", "stimulus": "<p id=\"stim\">7</p>", "internal_node_id": "0.0-129.0-3.0", "time_elapsed": 941386, "key_press": -1, "trial_index": 177}, "uniqueid": "MTK2617:3IAEQB9FMFRRNENREHGKIXDS3DXWDQ", "dateTime": 1519157061426}, {"current_trial": 178, "trialdata": {"rt": -1, "trial_type": "single-stim", "stimulus": "<p id=\"stim\">6</p>", "internal_node_id": "0.0-129.0-4.0", "time_elapsed": 942388, "key_press": -1, "trial_index": 178}, "uniqueid": "MTK2617:3IAEQB9FMFRRNENREHGKIXDS3DXWDQ", "dateTime": 1519157062427}, {"current_trial": 179, "trialdata": {"rt": -1, "trial_type": "single-stim", "stimulus": "<p id=\"stim\">5</p>", "internal_node_id": "0.0-129.0-5.0", "time_elapsed": 943389, "key_press": -1, "trial_index": 179}, "uniqueid": "MTK2617:3IAEQB9FMFRRNENREHGKIXDS3DXWDQ", "dateTime": 1519157063428}, {"current_trial": 180, "trialdata": {"rt": -1, "trial_type": "single-stim", "stimulus": "<p id=\"stim\">4</p>", "internal_node_id": "0.0-129.0-6.0", "time_elapsed": 944391, "key_press": -1, "trial_index": 180}, "uniqueid": "MTK2617:3IAEQB9FMFRRNENREHGKIXDS3DXWDQ", "dateTime": 1519157064430}, {"current_trial": 181, "trialdata": {"rt": -1, "trial_type": "single-stim", "stimulus": "<p id=\"stim\">3</p>", "internal_node_id": "0.0-129.0-7.0", "time_elapsed": 945392, "key_press": -1, "trial_index": 181}, "uniqueid": "MTK2617:3IAEQB9FMFRRNENREHGKIXDS3DXWDQ", "dateTime": 1519157065431}, {"current_trial": 182, "trialdata": {"rt": -1, "trial_type": "single-stim", "stimulus": "<p id=\"stim\">2</p>", "internal_node_id": "0.0-129.0-8.0", "time_elapsed": 946393, "key_press": -1, "trial_index": 182}, "uniqueid": "MTK2617:3IAEQB9FMFRRNENREHGKIXDS3DXWDQ", "dateTime": 1519157066432}, {"current_trial": 183, "trialdata": {"rt": -1, "trial_type": "single-stim", "stimulus": "<p id=\"stim\">1</p>", "internal_node_id": "0.0-129.0-9.0", "time_elapsed": 947394, "key_press": -1, "trial_index": 183}, "uniqueid": "MTK2617:3IAEQB9FMFRRNENREHGKIXDS3DXWDQ", "dateTime": 1519157067433}, {"current_trial": 184, "trialdata": {"rt": -1, "trial_type": "single-stim", "stimulus": "<p id=\"stim\">+</p>", "internal_node_id": "0.0-130.0-0.0", "time_elapsed": 948895, "key_press": -1, "type": "FIXATION", "trial_index": 184}, "uniqueid": "MTK2617:3IAEQB9FMFRRNENREHGKIXDS3DXWDQ", "dateTime": 1519157068934}, {"current_trial": 185, "trialdata": {"rt": -1000, "trial_type": "single-audio", "word": "fragrance", "stimulus": "/static/audio/wordpool/FRAGRANCE.wav", "conditions": [24, 1600, "a", 24000], "internal_node_id": "0.0-131.0", "trial": 5, "time_elapsed": 951407, "serialpos": 0, "key_press": -1, "wordID": 598, "type": "PRES_AUD", "trial_index": 185}, "uniqueid": "MTK2617:3IAEQB9FMFRRNENREHGKIXDS3DXWDQ", "dateTime": 1519157071446}, {"current_trial": 186, "trialdata": {"rt": -1000, "trial_type": "single-audio", "word": "gallon", "stimulus": "/static/audio/wordpool/GALLON.wav", "conditions": [24, 1600, "a", 24000], "internal_node_id": "0.0-132.0", "trial": 5, "time_elapsed": 953842, "serialpos": 1, "key_press": -1, "wordID": 617, "type": "PRES_AUD", "trial_index": 186}, "uniqueid": "MTK2617:3IAEQB9FMFRRNENREHGKIXDS3DXWDQ", "dateTime": 1519157073882}, {"current_trial": 187, "trialdata": {"rt": -1000, "trial_type": "single-audio", "word": "relish", "stimulus": "/static/audio/wordpool/RELISH.wav", "conditions": [24, 1600, "a", 24000], "internal_node_id": "0.0-133.0", "trial": 5, "time_elapsed": 956443, "serialpos": 2, "key_press": -1, "wordID": 1182, "type": "PRES_AUD", "trial_index": 187}, "uniqueid": "MTK2617:3IAEQB9FMFRRNENREHGKIXDS3DXWDQ", "dateTime": 1519157076482}, {"current_trial": 188, "trialdata": {"rt": -1000, "trial_type": "single-audio", "word": "postage", "stimulus": "/static/audio/wordpool/POSTAGE.wav", "conditions": [24, 1600, "a", 24000], "internal_node_id": "0.0-134.0", "trial": 5, "time_elapsed": 959180, "serialpos": 3, "key_press": -1, "wordID": 1112, "type": "PRES_AUD", "trial_index": 188}, "uniqueid": "MTK2617:3IAEQB9FMFRRNENREHGKIXDS3DXWDQ", "dateTime": 1519157079219}, {"current_trial": 189, "trialdata": {"rt": -1000, "trial_type": "single-audio", "word": "carriage", "stimulus": "/static/audio/wordpool/CARRIAGE.wav", "conditions": [24, 1600, "a", 24000], "internal_node_id": "0.0-135.0", "trial": 5, "time_elapsed": 961676, "serialpos": 4, "key_press": -1, "wordID": 247, "type": "PRES_AUD", "trial_index": 189}, "uniqueid": "MTK2617:3IAEQB9FMFRRNENREHGKIXDS3DXWDQ", "dateTime": 1519157081715}, {"current_trial": 190, "trialdata": {"rt": -1000, "trial_type": "single-audio", "word": "female", "stimulus": "/static/audio/wordpool/FEMALE.wav", "conditions": [24, 1600, "a", 24000], "internal_node_id": "0.0-136.0", "trial": 5, "time_elapsed": 964254, "serialpos": 5, "key_press": -1, "wordID": 558, "type": "PRES_AUD", "trial_index": 190}, "uniqueid": "MTK2617:3IAEQB9FMFRRNENREHGKIXDS3DXWDQ", "dateTime": 1519157084293}, {"current_trial": 191, "trialdata": {"rt": -1000, "trial_type": "single-audio", "word": "queen", "stimulus": "/static/audio/wordpool/QUEEN.wav", "conditions": [24, 1600, "a", 24000], "internal_node_id": "0.0-137.0", "trial": 5, "time_elapsed": 966959, "serialpos": 6, "key_press": -1, "wordID": 1148, "type": "PRES_AUD", "trial_index": 191}, "uniqueid": "MTK2617:3IAEQB9FMFRRNENREHGKIXDS3DXWDQ", "dateTime": 1519157086999}, {"current_trial": 192, "trialdata": {"rt": -1000, "trial_type": "single-audio", "word": "ketchup", "stimulus": "/static/audio/wordpool/KETCHUP.wav", "conditions": [24, 1600, "a", 24000], "internal_node_id": "0.0-138.0", "trial": 5, "time_elapsed": 969732, "serialpos": 7, "key_press": -1, "wordID": 770, "type": "PRES_AUD", "trial_index": 192}, "uniqueid": "MTK2617:3IAEQB9FMFRRNENREHGKIXDS3DXWDQ", "dateTime": 1519157089771}, {"current_trial": 193, "trialdata": {"rt": -1000, "trial_type": "single-audio", "word": "barrel", "stimulus": "/static/audio/wordpool/BARREL.wav", "conditions": [24, 1600, "a", 24000], "internal_node_id": "0.0-139.0", "trial": 5, "time_elapsed": 972275, "serialpos": 8, "key_press": -1, "wordID": 90, "type": "PRES_AUD", "trial_index": 193}, "uniqueid": "MTK2617:3IAEQB9FMFRRNENREHGKIXDS3DXWDQ", "dateTime": 1519157092314}, {"current_trial": 194, "trialdata": {"rt": -1000, "trial_type": "single-audio", "word": "scalpel", "stimulus": "/static/audio/wordpool/SCALPEL.wav", "conditions": [24, 1600, "a", 24000], "internal_node_id": "0.0-140.0", "trial": 5, "time_elapsed": 974724, "serialpos": 9, "key_press": -1, "wordID": 1242, "type": "PRES_AUD", "trial_index": 194}, "uniqueid": "MTK2617:3IAEQB9FMFRRNENREHGKIXDS3DXWDQ", "dateTime": 1519157094763}, {"current_trial": 195, "trialdata": {"rt": -1000, "trial_type": "single-audio", "word": "scissors", "stimulus": "/static/audio/wordpool/SCISSORS.wav", "conditions": [24, 1600, "a", 24000], "internal_node_id": "0.0-141.0", "trial": 5, "time_elapsed": 977277, "serialpos": 10, "key_press": -1, "wordID": 1249, "type": "PRES_AUD", "trial_index": 195}, "uniqueid": "MTK2617:3IAEQB9FMFRRNENREHGKIXDS3DXWDQ", "dateTime": 1519157097316}, {"current_trial": 196, "trialdata": {"rt": -1000, "trial_type": "single-audio", "word": "pastry", "stimulus": "/static/audio/wordpool/PASTRY.wav", "conditions": [24, 1600, "a", 24000], "internal_node_id": "0.0-142.0", "trial": 5, "time_elapsed": 979986, "serialpos": 11, "key_press": -1, "wordID": 1021, "type": "PRES_AUD", "trial_index": 196}, "uniqueid": "MTK2617:3IAEQB9FMFRRNENREHGKIXDS3DXWDQ", "dateTime": 1519157100025}, {"current_trial": 197, "trialdata": {"rt": -1000, "trial_type": "single-audio", "word": "frame", "stimulus": "/static/audio/wordpool/FRAME.wav", "conditions": [24, 1600, "a", 24000], "internal_node_id": "0.0-143.0", "trial": 5, "time_elapsed": 982674, "serialpos": 12, "key_press": -1, "wordID": 599, "type": "PRES_AUD", "trial_index": 197}, "uniqueid": "MTK2617:3IAEQB9FMFRRNENREHGKIXDS3DXWDQ", "dateTime": 1519157102713}, {"current_trial": 198, "trialdata": {"rt": -1000, "trial_type": "single-audio", "word": "rocket", "stimulus": "/static/audio/wordpool/ROCKET.wav", "conditions": [24, 1600, "a", 24000], "internal_node_id": "0.0-144.0", "trial": 5, "time_elapsed": 985178, "serialpos": 13, "key_press": -1, "wordID": 1201, "type": "PRES_AUD", "trial_index": 198}, "uniqueid": "MTK2617:3IAEQB9FMFRRNENREHGKIXDS3DXWDQ", "dateTime": 1519157105217}, {"current_trial": 199, "trialdata": {"rt": -1000, "trial_type": "single-audio", "word": "truck", "stimulus": "/static/audio/wordpool/TRUCK.wav", "conditions": [24, 1600, "a", 24000], "internal_node_id": "0.0-145.0", "trial": 5, "time_elapsed": 987617, "serialpos": 14, "key_press": -1, "wordID": 1511, "type": "PRES_AUD", "trial_index": 199}, "uniqueid": "MTK2617:3IAEQB9FMFRRNENREHGKIXDS3DXWDQ", "dateTime": 1519157107657}, {"current_trial": 200, "trialdata": {"rt": -1000, "trial_type": "single-audio", "word": "honey", "stimulus": "/static/audio/wordpool/HONEY.wav", "conditions": [24, 1600, "a", 24000], "internal_node_id": "0.0-146.0", "trial": 5, "time_elapsed": 990403, "serialpos": 15, "key_press": -1, "wordID": 712, "type": "PRES_AUD", "trial_index": 200}, "uniqueid": "MTK2617:3IAEQB9FMFRRNENREHGKIXDS3DXWDQ", "dateTime": 1519157110442}, {"current_trial": 201, "trialdata": {"rt": -1000, "trial_type": "single-audio", "word": "canal", "stimulus": "/static/audio/wordpool/CANAL.wav", "conditions": [24, 1600, "a", 24000], "internal_node_id": "0.0-147.0", "trial": 5, "time_elapsed": 992929, "serialpos": 16, "key_press": -1, "wordID": 225, "type": "PRES_AUD", "trial_index": 201}, "uniqueid": "MTK2617:3IAEQB9FMFRRNENREHGKIXDS3DXWDQ", "dateTime": 1519157112969}, {"current_trial": 202, "trialdata": {"rt": -1000, "trial_type": "single-audio", "word": "blockade", "stimulus": "/static/audio/wordpool/BLOCKADE.wav", "conditions": [24, 1600, "a", 24000], "internal_node_id": "0.0-148.0", "trial": 5, "time_elapsed": 995450, "serialpos": 17, "key_press": -1, "wordID": 136, "type": "PRES_AUD", "trial_index": 202}, "uniqueid": "MTK2617:3IAEQB9FMFRRNENREHGKIXDS3DXWDQ", "dateTime": 1519157115489}, {"current_trial": 203, "trialdata": {"rt": -1000, "trial_type": "single-audio", "word": "wasp", "stimulus": "/static/audio/wordpool/WASP.wav", "conditions": [24, 1600, "a", 24000], "internal_node_id": "0.0-149.0", "trial": 5, "time_elapsed": 998207, "serialpos": 18, "key_press": -1, "wordID": 1592, "type": "PRES_AUD", "trial_index": 203}, "uniqueid": "MTK2617:3IAEQB9FMFRRNENREHGKIXDS3DXWDQ", "dateTime": 1519157118246}, {"current_trial": 204, "trialdata": {"rt": -1000, "trial_type": "single-audio", "word": "silk", "stimulus": "/static/audio/wordpool/SILK.wav", "conditions": [24, 1600, "a", 24000], "internal_node_id": "0.0-150.0", "trial": 5, "time_elapsed": 1000624, "serialpos": 19, "key_press": -1, "wordID": 1306, "type": "PRES_AUD", "trial_index": 204}, "uniqueid": "MTK2617:3IAEQB9FMFRRNENREHGKIXDS3DXWDQ", "dateTime": 1519157120663}, {"current_trial": 205, "trialdata": {"rt": -1000, "trial_type": "single-audio", "word": "missile", "stimulus": "/static/audio/wordpool/MISSILE.wav", "conditions": [24, 1600, "a", 24000], "internal_node_id": "0.0-151.0", "trial": 5, "time_elapsed": 1003233, "serialpos": 20, "key_press": -1, "wordID": 899, "type": "PRES_AUD", "trial_index": 205}, "uniqueid": "MTK2617:3IAEQB9FMFRRNENREHGKIXDS3DXWDQ", "dateTime": 1519157123273}, {"current_trial": 206, "trialdata": {"rt": -1000, "trial_type": "single-audio", "word": "turtle", "stimulus": "/static/audio/wordpool/TURTLE.wav", "conditions": [24, 1600, "a", 24000], "internal_node_id": "0.0-152.0", "trial": 5, "time_elapsed": 1005762, "serialpos": 21, "key_press": -1, "wordID": 1521, "type": "PRES_AUD", "trial_index": 206}, "uniqueid": "MTK2617:3IAEQB9FMFRRNENREHGKIXDS3DXWDQ", "dateTime": 1519157125801}, {"current_trial": 207, "trialdata": {"rt": -1000, "trial_type": "single-audio", "word": "blade", "stimulus": "/static/audio/wordpool/BLADE.wav", "conditions": [24, 1600, "a", 24000], "internal_node_id": "0.0-153.0", "trial": 5, "time_elapsed": 1008490, "serialpos": 22, "key_press": -1, "wordID": 133, "type": "PRES_AUD", "trial_index": 207}, "uniqueid": "MTK2617:3IAEQB9FMFRRNENREHGKIXDS3DXWDQ", "dateTime": 1519157128529}, {"current_trial": 208, "trialdata": {"rt": -1000, "trial_type": "single-audio", "word": "razor", "stimulus": "/static/audio/wordpool/RAZOR.wav", "conditions": [24, 1600, "a", 24000], "internal_node_id": "0.0-154.0", "trial": 5, "time_elapsed": 1010929, "serialpos": 23, "key_press": -1, "wordID": 1170, "type": "PRES_AUD", "trial_index": 208}, "uniqueid": "MTK2617:3IAEQB9FMFRRNENREHGKIXDS3DXWDQ", "dateTime": 1519157130968}, {"current_trial": 209, "trialdata": {"rt": -1, "trial_type": "single-stim", "stimulus": "", "internal_node_id": "0.0-155.0-0.0", "time_elapsed": 1012322, "key_press": -1, "type": "PRE_RECALL_DELAY", "trial_index": 209}, "uniqueid": "MTK2617:3IAEQB9FMFRRNENREHGKIXDS3DXWDQ", "dateTime": 1519157132361}, {"current_trial": 210, "trialdata": {"rt": -1000, "trial_type": "single-audio", "stimulus": "/static/audio/400Hz.wav", "internal_node_id": "0.0-156.0", "time_elapsed": 1012822, "key_press": -1, "type": "PRE_RECALL_ALERT", "trial_index": 210}, "uniqueid": "MTK2617:3IAEQB9FMFRRNENREHGKIXDS3DXWDQ", "dateTime": 1519157132862}, {"current_trial": 211, "trialdata": {"rt": [6113, 11265, 14123, 17738, 20940, 24063, 27002, 29811, 34402, 37696, 43593, 45488, 49081, 51168, 54034], "recwords": ["fragrance", "galloon", "relish", "postage", "carriage", "female", "clean", "ketchup", "barrel", "scallop", "scissors", "pastry", "rocket", "honey", "cannel"], "key_times": [3224, 3473, 3725, 3920, 4551, 4799, 5010, 5262, 5462, 6113, 7652, 7965, 8110, 8563, 8871, 9209, 9441, 11265, 13000, 13128, 13379, 13552, 13665, 13858, 14123, 16033, 16332, 16419, 16583, 16812, 17088, 17289, 17738, 19208, 19437, 19533, 19805, 20011, 20253, 20457, 20643, 20940, 22432, 22742, 23055, 23237, 23600, 23722, 24063, 26072, 26221, 26321, 26486, 26710, 27002, 27582, 27708, 27891, 28292, 28883, 29178, 29404, 29811, 31374, 31655, 31754, 31991, 32192, 32455, 33061, 33328, 33537, 33707, 33900, 34047, 34402, 35197, 35540, 35861, 36027, 36236, 36901, 37153, 37696, 39596, 39937, 40206, 40739, 40948, 41108, 41284, 41486, 43593, 43951, 44078, 44531, 44719, 44991, 45168, 45488, 47231, 47467, 48268, 48368, 48565, 48731, 49081, 49518, 49660, 49833, 49938, 50316, 51168, 52359, 52588, 53173, 53335, 53501, 53647, 54034, 56218, 56616, 57135, 57923, 58369, 58396, 58886, 59059, 59482, 59959], "trial_type": "free-recall", "conditions": [24, 1600, "a", 24000], "internal_node_id": "0.0-157.0-0.0", "key_presses": [70, 82, 65, 71, 82, 65, 78, 67, 69, 13, 71, 65, 76, 76, 79, 79, 78, 13, 82, 69, 76, 73, 83, 72, 13, 80, 79, 83, 84, 65, 71, 69, 13, 67, 65, 82, 82, 73, 65, 71, 69, 13, 70, 69, 77, 65, 76, 69, 13, 67, 76, 69, 65, 78, 13, 75, 69, 84, 67, 72, 85, 80, 13, 66, 65, 82, 82, 79, 76, 8, 69, 8, 8, 69, 76, 13, 83, 67, 65, 76, 76, 79, 80, 13, 83, 67, 73, 83, 83, 79, 82, 83, 13, 80, 65, 83, 84, 82, 89, 13, 82, 79, 67, 75, 69, 84, 13, 72, 79, 78, 69, 89, 13, 67, 65, 78, 78, 69, 76, 13, 66, 76, 79, 67, 65, 75, 8, 8, 65, 8], "trial": 5, "time_elapsed": 1072825, "type": "FREE_RECALL", "trial_index": 211}, "uniqueid": "MTK2617:3IAEQB9FMFRRNENREHGKIXDS3DXWDQ", "dateTime": 1519157192867}, {"current_trial": 212, "trialdata": {"rt": 984, "trial_type": "text", "internal_node_id": "0.0-158.0", "time_elapsed": 1075814, "key_press": 75, "type": "INSTRUCTIONS", "trial_index": 212}, "uniqueid": "MTK2617:3IAEQB9FMFRRNENREHGKIXDS3DXWDQ", "dateTime": 1519157195853}, {"current_trial": 213, "trialdata": {"rt": [5992, 9025, 11763], "trial_type": "math-distractor", "key_times": [5542, 5698, 5992, 8350, 8440, 9025, 11111, 11265, 11763], "responses": ["18", "10", "10"], "num2": [9, 1, 1, 9], "num3": [4, 5, 5, 7], "conditions": [12, 800, "a", 12000], "internal_node_id": "0.0-159.0", "key_presses": [97, 104, 13, 97, 96, 13, 97, 96, 13], "trial": 6, "time_elapsed": 1089816, "type": "DISTRACTOR", "trial_index": 213, "num1": [5, 4, 4, 5]}, "uniqueid": "MTK2617:3IAEQB9FMFRRNENREHGKIXDS3DXWDQ", "dateTime": 1519157209855}, {"current_trial": 214, "trialdata": {"rt": -1, "trial_type": "single-stim", "stimulus": "<p id=\"stim\">10</p>", "internal_node_id": "0.0-160.0-0.0", "time_elapsed": 1092817, "key_press": -1, "trial_index": 214}, "uniqueid": "MTK2617:3IAEQB9FMFRRNENREHGKIXDS3DXWDQ", "dateTime": 1519157212856}, {"current_trial": 215, "trialdata": {"rt": -1, "trial_type": "single-stim", "stimulus": "<p id=\"stim\">9</p>", "internal_node_id": "0.0-160.0-1.0", "time_elapsed": 1093818, "key_press": -1, "trial_index": 215}, "uniqueid": "MTK2617:3IAEQB9FMFRRNENREHGKIXDS3DXWDQ", "dateTime": 1519157213857}, {"current_trial": 216, "trialdata": {"rt": -1, "trial_type": "single-stim", "stimulus": "<p id=\"stim\">8</p>", "internal_node_id": "0.0-160.0-2.0", "time_elapsed": 1094820, "key_press": -1, "trial_index": 216}, "uniqueid": "MTK2617:3IAEQB9FMFRRNENREHGKIXDS3DXWDQ", "dateTime": 1519157214859}, {"current_trial": 217, "trialdata": {"rt": -1, "trial_type": "single-stim", "stimulus": "<p id=\"stim\">7</p>", "internal_node_id": "0.0-160.0-3.0", "time_elapsed": 1095821, "key_press": -1, "trial_index": 217}, "uniqueid": "MTK2617:3IAEQB9FMFRRNENREHGKIXDS3DXWDQ", "dateTime": 1519157215860}, {"current_trial": 218, "trialdata": {"rt": -1, "trial_type": "single-stim", "stimulus": "<p id=\"stim\">6</p>", "internal_node_id": "0.0-160.0-4.0", "time_elapsed": 1096823, "key_press": -1, "trial_index": 218}, "uniqueid": "MTK2617:3IAEQB9FMFRRNENREHGKIXDS3DXWDQ", "dateTime": 1519157216862}, {"current_trial": 219, "trialdata": {"rt": -1, "trial_type": "single-stim", "stimulus": "<p id=\"stim\">5</p>", "internal_node_id": "0.0-160.0-5.0", "time_elapsed": 1097823, "key_press": -1, "trial_index": 219}, "uniqueid": "MTK2617:3IAEQB9FMFRRNENREHGKIXDS3DXWDQ", "dateTime": 1519157217862}, {"current_trial": 220, "trialdata": {"rt": -1, "trial_type": "single-stim", "stimulus": "<p id=\"stim\">4</p>", "internal_node_id": "0.0-160.0-6.0", "time_elapsed": 1098825, "key_press": -1, "trial_index": 220}, "uniqueid": "MTK2617:3IAEQB9FMFRRNENREHGKIXDS3DXWDQ", "dateTime": 1519157218864}, {"current_trial": 221, "trialdata": {"rt": -1, "trial_type": "single-stim", "stimulus": "<p id=\"stim\">3</p>", "internal_node_id": "0.0-160.0-7.0", "time_elapsed": 1099826, "key_press": -1, "trial_index": 221}, "uniqueid": "MTK2617:3IAEQB9FMFRRNENREHGKIXDS3DXWDQ", "dateTime": 1519157219865}, {"current_trial": 222, "trialdata": {"rt": -1, "trial_type": "single-stim", "stimulus": "<p id=\"stim\">2</p>", "internal_node_id": "0.0-160.0-8.0", "time_elapsed": 1100827, "key_press": -1, "trial_index": 222}, "uniqueid": "MTK2617:3IAEQB9FMFRRNENREHGKIXDS3DXWDQ", "dateTime": 1519157220866}, {"current_trial": 223, "trialdata": {"rt": -1, "trial_type": "single-stim", "stimulus": "<p id=\"stim\">1</p>", "internal_node_id": "0.0-160.0-9.0", "time_elapsed": 1101828, "key_press": -1, "trial_index": 223}, "uniqueid": "MTK2617:3IAEQB9FMFRRNENREHGKIXDS3DXWDQ", "dateTime": 1519157221867}, {"current_trial": 224, "trialdata": {"rt": -1, "trial_type": "single-stim", "stimulus": "<p id=\"stim\">+</p>", "internal_node_id": "0.0-161.0-0.0", "time_elapsed": 1103329, "key_press": -1, "type": "FIXATION", "trial_index": 224}, "uniqueid": "MTK2617:3IAEQB9FMFRRNENREHGKIXDS3DXWDQ", "dateTime": 1519157223368}, {"current_trial": 225, "trialdata": {"rt": -1000, "trial_type": "single-audio", "word": "rifle", "stimulus": "/static/audio/wordpool/RIFLE.wav", "conditions": [12, 800, "a", 12000], "internal_node_id": "0.0-162.0", "trial": 6, "time_elapsed": 1105195, "serialpos": 0, "key_press": -1, "wordID": 1191, "type": "PRES_AUD", "trial_index": 225}, "uniqueid": "MTK2617:3IAEQB9FMFRRNENREHGKIXDS3DXWDQ", "dateTime": 1519157225234}, {"current_trial": 226, "trialdata": {"rt": -1000, "trial_type": "single-audio", "word": "tribe", "stimulus": "/static/audio/wordpool/TRIBE.wav", "conditions": [12, 800, "a", 12000], "internal_node_id": "0.0-163.0", "trial": 6, "time_elapsed": 1107068, "serialpos": 1, "key_press": -1, "wordID": 1504, "type": "PRES_AUD", "trial_index": 226}, "uniqueid": "MTK2617:3IAEQB9FMFRRNENREHGKIXDS3DXWDQ", "dateTime": 1519157227107}, {"current_trial": 227, "trialdata": {"rt": -1000, "trial_type": "single-audio", "word": "shortcake", "stimulus": "/static/audio/wordpool/SHORTCAKE.wav", "conditions": [12, 800, "a", 12000], "internal_node_id": "0.0-164.0", "trial": 6, "time_elapsed": 1108995, "serialpos": 2, "key_press": -1, "wordID": 1291, "type": "PRES_AUD", "trial_index": 227}, "uniqueid": "MTK2617:3IAEQB9FMFRRNENREHGKIXDS3DXWDQ", "dateTime": 1519157229034}, {"current_trial": 228, "trialdata": {"rt": -1000, "trial_type": "single-audio", "word": "twister", "stimulus": "/static/audio/wordpool/TWISTER.wav", "conditions": [12, 800, "a", 12000], "internal_node_id": "0.0-165.0", "trial": 6, "time_elapsed": 1110817, "serialpos": 3, "key_press": -1, "wordID": 1529, "type": "PRES_AUD", "trial_index": 228}, "uniqueid": "MTK2617:3IAEQB9FMFRRNENREHGKIXDS3DXWDQ", "dateTime": 1519157230856}, {"current_trial": 229, "trialdata": {"rt": -1000, "trial_type": "single-audio", "word": "plaza", "stimulus": "/static/audio/wordpool/PLAZA.wav", "conditions": [12, 800, "a", 12000], "internal_node_id": "0.0-166.0", "trial": 6, "time_elapsed": 1112484, "serialpos": 4, "key_press": -1, "wordID": 1087, "type": "PRES_AUD", "trial_index": 229}, "uniqueid": "MTK2617:3IAEQB9FMFRRNENREHGKIXDS3DXWDQ", "dateTime": 1519157232523}, {"current_trial": 230, "trialdata": {"rt": -1000, "trial_type": "single-audio", "word": "keeper", "stimulus": "/static/audio/wordpool/KEEPER.wav", "conditions": [12, 800, "a", 12000], "internal_node_id": "0.0-167.0", "trial": 6, "time_elapsed": 1114150, "serialpos": 5, "key_press": -1, "wordID": 768, "type": "PRES_AUD", "trial_index": 230}, "uniqueid": "MTK2617:3IAEQB9FMFRRNENREHGKIXDS3DXWDQ", "dateTime": 1519157234189}, {"current_trial": 231, "trialdata": {"rt": -1000, "trial_type": "single-audio", "word": "infant", "stimulus": "/static/audio/wordpool/INFANT.wav", "conditions": [12, 800, "a", 12000], "internal_node_id": "0.0-168.0", "trial": 6, "time_elapsed": 1116092, "serialpos": 6, "key_press": -1, "wordID": 736, "type": "PRES_AUD", "trial_index": 231}, "uniqueid": "MTK2617:3IAEQB9FMFRRNENREHGKIXDS3DXWDQ", "dateTime": 1519157236131}, {"current_trial": 232, "trialdata": {"rt": -1000, "trial_type": "single-audio", "word": "child", "stimulus": "/static/audio/wordpool/CHILD.wav", "conditions": [12, 800, "a", 12000], "internal_node_id": "0.0-169.0", "trial": 6, "time_elapsed": 1117764, "serialpos": 7, "key_press": -1, "wordID": 298, "type": "PRES_AUD", "trial_index": 232}, "uniqueid": "MTK2617:3IAEQB9FMFRRNENREHGKIXDS3DXWDQ", "dateTime": 1519157237803}, {"current_trial": 233, "trialdata": {"rt": -1000, "trial_type": "single-audio", "word": "sidewalk", "stimulus": "/static/audio/wordpool/SIDEWALK.wav", "conditions": [12, 800, "a", 12000], "internal_node_id": "0.0-170.0", "trial": 6, "time_elapsed": 1119472, "serialpos": 8, "key_press": -1, "wordID": 1302, "type": "PRES_AUD", "trial_index": 233}, "uniqueid": "MTK2617:3IAEQB9FMFRRNENREHGKIXDS3DXWDQ", "dateTime": 1519157239511}, {"current_trial": 234, "trialdata": {"rt": -1000, "trial_type": "single-audio", "word": "transplant", "stimulus": "/static/audio/wordpool/TRANSPLANT.wav", "conditions": [12, 800, "a", 12000], "internal_node_id": "0.0-171.0", "trial": 6, "time_elapsed": 1121469, "serialpos": 9, "key_press": -1, "wordID": 1495, "type": "PRES_AUD", "trial_index": 234}, "uniqueid": "MTK2617:3IAEQB9FMFRRNENREHGKIXDS3DXWDQ", "dateTime": 1519157241508}, {"current_trial": 235, "trialdata": {"rt": -1000, "trial_type": "single-audio", "word": "tortoise", "stimulus": "/static/audio/wordpool/TORTOISE.wav", "conditions": [12, 800, "a", 12000], "internal_node_id": "0.0-172.0", "trial": 6, "time_elapsed": 1123294, "serialpos": 10, "key_press": -1, "wordID": 1485, "type": "PRES_AUD", "trial_index": 235}, "uniqueid": "MTK2617:3IAEQB9FMFRRNENREHGKIXDS3DXWDQ", "dateTime": 1519157243333}, {"current_trial": 236, "trialdata": {"rt": -1000, "trial_type": "single-audio", "word": "washer", "stimulus": "/static/audio/wordpool/WASHER.wav", "conditions": [12, 800, "a", 12000], "internal_node_id": "0.0-173.0", "trial": 6, "time_elapsed": 1124925, "serialpos": 11, "key_press": -1, "wordID": 1591, "type": "PRES_AUD", "trial_index": 236}, "uniqueid": "MTK2617:3IAEQB9FMFRRNENREHGKIXDS3DXWDQ", "dateTime": 1519157244964}, {"current_trial": 237, "trialdata": {"rt": -1, "trial_type": "single-stim", "stimulus": "", "internal_node_id": "0.0-174.0-0.0", "time_elapsed": 1126225, "key_press": -1, "type": "PRE_RECALL_DELAY", "trial_index": 237}, "uniqueid": "MTK2617:3IAEQB9FMFRRNENREHGKIXDS3DXWDQ", "dateTime": 1519157246264}, {"current_trial": 238, "trialdata": {"rt": -1000, "trial_type": "single-audio", "stimulus": "/static/audio/400Hz.wav", "internal_node_id": "0.0-175.0", "time_elapsed": 1126726, "key_press": -1, "type": "PRE_RECALL_ALERT", "trial_index": 238}, "uniqueid": "MTK2617:3IAEQB9FMFRRNENREHGKIXDS3DXWDQ", "dateTime": 1519157246765}, {"current_trial": 239, "trialdata": {"rt": [3948, 8609, 13237, 15463, 18562, 21983, 26203, 28632, 30549], "recwords": ["rifle", "tribe", "shortcake", "sidewalk", "twister", "plaza", "infant", "child", "washer"], "key_times": [2413, 2619, 3076, 3229, 3370, 3948, 7222, 7486, 7664, 7910, 8110, 8609, 9753, 10362, 10584, 10678, 11191, 11606, 12202, 12450, 12588, 13237, 13511, 13667, 13853, 14065, 14308, 14539, 14887, 15104, 15463, 16885, 17345, 17550, 17847, 17964, 18193, 18286, 18562, 19909, 20225, 20395, 20651, 21182, 21426, 21616, 21983, 23387, 23519, 23756, 24003, 24119, 24351, 26203, 27225, 27401, 27518, 27642, 27785, 28632, 29440, 29641, 29745, 30036, 30182, 30327, 30549]