{"assignmentId": "3PZDLQMM0USV66J601W2AKFLD9GC2J", "workerId": "MTK2258", "questiondata": {"origin": "United States", "strat-rehearsal": "38", "marital": "Married/Domestic Partnership", "education": "Bachelor's degree", "ethnicity": "Not Hispanic", "color_depth": 24, "distracted": "No", "wrote-notes": "No", "strat-other": "", "screen_width": 1440, "avail_screen_width": 1440, "avail_screen_height": 817, "strat-image": "75", "language": "English", "gender": "Male", "age": "23", "gender_other": "", "race": ["White"], "strat-categorize": "55", "pixel_depth": 24, "strat-spatial": "3", "strat-story": "14", "race_other": "", "screen_height": 900}, "bonus": 0, "hitId": "3M7OI89LVYVH1N4DX133BD0DAMG6CE", "counterbalance": 2347, "useragent": "Mozilla/5.0 (Macintosh; Intel Mac OS X 10_11_3) AppleWebKit/537.36 (KHTML, like Gecko) Chrome/63.0.3239.132 Safari/537.36", "eventdata": [{"eventtype": "initialized", "interval": 0, "value": null, "timestamp": 1516906415469}, {"eventtype": "window_resize", "interval": 0, "value": [1440, 735], "timestamp": 1516906415469}, {"eventtype": "focus", "interval": 749404, "value": "off", "timestamp": 1516907164873}, {"eventtype": "focus", "interval": 7359, "value": "on", "timestamp": 1516907172232}, {"eventtype": "focus", "interval": 760996, "value": "off", "timestamp": 1516907933228}, {"eventtype": "focus", "interval": 30416, "value": "on", "timestamp": 1516907963644}, {"eventtype": "focus", "interval": 462919, "value": "off", "timestamp": 1516908426563}, {"eventtype": "focus", "interval": 19587, "value": "on", "timestamp": 1516908446150}], "data": [{"current_trial": 0, "trialdata": {"rt": 70126, "trial_type": "text", "internal_node_id": "0.0-0.0", "time_elapsed": 70129, "key_press": 32, "type": "INSTRUCTIONS", "trial_index": 0}, "uniqueid": "MTK2258:3PZDLQMM0USV66J601W2AKFLD9GC2J", "dateTime": 1516906501084}, {"current_trial": 1, "trialdata": {"rt": 19275, "trial_type": "text", "internal_node_id": "0.0-1.0", "time_elapsed": 89407, "key_press": 32, "type": "INSTRUCTIONS", "trial_index": 1}, "uniqueid": "MTK2258:3PZDLQMM0USV66J601W2AKFLD9GC2J", "dateTime": 1516906520362}, {"current_trial": 2, "trialdata": {"rt": [6316], "trial_type": "audio-test", "responses": ["ocean"], "internal_node_id": "0.0-2.0", "time_elapsed": 95736, "type": "AUDIO_TEST", "trial_index": 2}, "uniqueid": "MTK2258:3PZDLQMM0USV66J601W2AKFLD9GC2J", "dateTime": 1516906526691}, {"current_trial": 3, "trialdata": {"rt": [5886], "trial_type": "audio-test", "responses": ["crystal"], "internal_node_id": "0.0-3.0", "time_elapsed": 101631, "type": "AUDIO_TEST", "trial_index": 3}, "uniqueid": "MTK2258:3PZDLQMM0USV66J601W2AKFLD9GC2J", "dateTime": 1516906532585}, {"current_trial": 4, "trialdata": {"rt": [4921], "trial_type": "audio-test", "responses": ["spice"], "internal_node_id": "0.0-4.0", "time_elapsed": 106559, "type": "AUDIO_TEST", "trial_index": 4}, "uniqueid": "MTK2258:3PZDLQMM0USV66J601W2AKFLD9GC2J", "dateTime": 1516906537513}, {"current_trial": 5, "trialdata": {"rt": 18014, "trial_type": "survey-text", "responses": "{\"Q0\":\"10 pm\",\"Q1\":\"4 am\",\"Q2\":\"4\"}", "internal_node_id": "0.0-5.0", "time_elapsed": 125328, "type": "SLEEP_SURVEY", "trial_index": 5}, "uniqueid": "MTK2258:3PZDLQMM0USV66J601W2AKFLD9GC2J", "dateTime": 1516906556282}, {"current_trial": 6, "trialdata": {"rt": 42050, "trial_type": "text", "internal_node_id": "0.0-6.0", "time_elapsed": 168382, "key_press": 40, "type": "INSTRUCTIONS", "trial_index": 6}, "uniqueid": "MTK2258:3PZDLQMM0USV66J601W2AKFLD9GC2J", "dateTime": 1516906599336}, {"current_trial": 7, "trialdata": {"rt": 44887, "trial_type": "text", "internal_node_id": "0.0-7.0", "time_elapsed": 213773, "key_press": 32, "type": "INSTRUCTIONS", "trial_index": 7}, "uniqueid": "MTK2258:3PZDLQMM0USV66J601W2AKFLD9GC2J", "dateTime": 1516906644727}, {"current_trial": 8, "trialdata": {"rt": 13902, "trial_type": "text", "internal_node_id": "0.0-8.0", "time_elapsed": 228180, "key_press": 78, "type": "INSTRUCTIONS", "trial_index": 8}, "uniqueid": "MTK2258:3PZDLQMM0USV66J601W2AKFLD9GC2J", "dateTime": 1516906659135}, {"current_trial": 9, "trialdata": {"rt": [2928, 5095, 6975, 9527, 11663, 13559, 15455, 17687], "trial_type": "math-distractor", "key_times": [2336, 2480, 2928, 4528, 4792, 5095, 6488, 6760, 6975, 9000, 9248, 9527, 11136, 11359, 11663, 12888, 13296, 13559, 14944, 15183, 15455, 16575, 17520, 17687], "responses": ["11", "18", "12", "16", "19", "15", "18", "18"], "num2": [2, 6, 2, 5, 3, 2, 7, 8, 8], "num3": [6, 5, 4, 2, 7, 5, 9, 2, 4], "conditions": [18, 1200, "a", 18000], "internal_node_id": "0.0-9.0", "key_presses": [49, 49, 13, 49, 56, 13, 49, 50, 13, 49, 54, 13, 49, 57, 13, 49, 53, 13, 49, 56, 13, 49, 56, 13], "trial": 0, "time_elapsed": 247190, "type": "DISTRACTOR", "trial_index": 9, "num1": [3, 7, 6, 9, 9, 8, 2, 8, 5]}, "uniqueid": "MTK2258:3PZDLQMM0USV66J601W2AKFLD9GC2J", "dateTime": 1516906678144}, {"current_trial": 10, "trialdata": {"rt": -1, "trial_type": "single-stim", "stimulus": "<p id=\"stim\">10</p>", "internal_node_id": "0.0-10.0-0.0", "time_elapsed": 250198, "key_press": -1, "trial_index": 10}, "uniqueid": "MTK2258:3PZDLQMM0USV66J601W2AKFLD9GC2J", "dateTime": 1516906681152}, {"current_trial": 11, "trialdata": {"rt": -1, "trial_type": "single-stim", "stimulus": "<p id=\"stim\">9</p>", "internal_node_id": "0.0-10.0-1.0", "time_elapsed": 251202, "key_press": -1, "trial_index": 11}, "uniqueid": "MTK2258:3PZDLQMM0USV66J601W2AKFLD9GC2J", "dateTime": 1516906682156}, {"current_trial": 12, "trialdata": {"rt": -1, "trial_type": "single-stim", "stimulus": "<p id=\"stim\">8</p>", "internal_node_id": "0.0-10.0-2.0", "time_elapsed": 252206, "key_press": -1, "trial_index": 12}, "uniqueid": "MTK2258:3PZDLQMM0USV66J601W2AKFLD9GC2J", "dateTime": 1516906683160}, {"current_trial": 13, "trialdata": {"rt": -1, "trial_type": "single-stim", "stimulus": "<p id=\"stim\">7</p>", "internal_node_id": "0.0-10.0-3.0", "time_elapsed": 253210, "key_press": -1, "trial_index": 13}, "uniqueid": "MTK2258:3PZDLQMM0USV66J601W2AKFLD9GC2J", "dateTime": 1516906684164}, {"current_trial": 14, "trialdata": {"rt": -1, "trial_type": "single-stim", "stimulus": "<p id=\"stim\">6</p>", "internal_node_id": "0.0-10.0-4.0", "time_elapsed": 254213, "key_press": -1, "trial_index": 14}, "uniqueid": "MTK2258:3PZDLQMM0USV66J601W2AKFLD9GC2J", "dateTime": 1516906685167}, {"current_trial": 15, "trialdata": {"rt": -1, "trial_type": "single-stim", "stimulus": "<p id=\"stim\">5</p>", "internal_node_id": "0.0-10.0-5.0", "time_elapsed": 255218, "key_press": -1, "trial_index": 15}, "uniqueid": "MTK2258:3PZDLQMM0USV66J601W2AKFLD9GC2J", "dateTime": 1516906686172}, {"current_trial": 16, "trialdata": {"rt": -1, "trial_type": "single-stim", "stimulus": "<p id=\"stim\">4</p>", "internal_node_id": "0.0-10.0-6.0", "time_elapsed": 256222, "key_press": -1, "trial_index": 16}, "uniqueid": "MTK2258:3PZDLQMM0USV66J601W2AKFLD9GC2J", "dateTime": 1516906687176}, {"current_trial": 17, "trialdata": {"rt": -1, "trial_type": "single-stim", "stimulus": "<p id=\"stim\">3</p>", "internal_node_id": "0.0-10.0-7.0", "time_elapsed": 257227, "key_press": -1, "trial_index": 17}, "uniqueid": "MTK2258:3PZDLQMM0USV66J601W2AKFLD9GC2J", "dateTime": 1516906688181}, {"current_trial": 18, "trialdata": {"rt": -1, "trial_type": "single-stim", "stimulus": "<p id=\"stim\">2</p>", "internal_node_id": "0.0-10.0-8.0", "time_elapsed": 258230, "key_press": -1, "trial_index": 18}, "uniqueid": "MTK2258:3PZDLQMM0USV66J601W2AKFLD9GC2J", "dateTime": 1516906689185}, {"current_trial": 19, "trialdata": {"rt": -1, "trial_type": "single-stim", "stimulus": "<p id=\"stim\">1</p>", "internal_node_id": "0.0-10.0-9.0", "time_elapsed": 259234, "key_press": -1, "trial_index": 19}, "uniqueid": "MTK2258:3PZDLQMM0USV66J601W2AKFLD9GC2J", "dateTime": 1516906690189}, {"current_trial": 20, "trialdata": {"rt": -1, "trial_type": "single-stim", "stimulus": "<p id=\"stim\">+</p>", "internal_node_id": "0.0-11.0-0.0", "time_elapsed": 260738, "key_press": -1, "type": "FIXATION", "trial_index": 20}, "uniqueid": "MTK2258:3PZDLQMM0USV66J601W2AKFLD9GC2J", "dateTime": 1516906691692}, {"current_trial": 21, "trialdata": {"rt": -1000, "trial_type": "single-audio", "word": "diner", "stimulus": "/static/audio/wordpool/DINER.wav", "conditions": [18, 1200, "a", 18000], "internal_node_id": "0.0-12.0", "trial": 0, "time_elapsed": 262913, "serialpos": 0, "key_press": -1, "wordID": 466, "type": "PRES_AUD", "trial_index": 21}, "uniqueid": "MTK2258:3PZDLQMM0USV66J601W2AKFLD9GC2J", "dateTime": 1516906693867}, {"current_trial": 22, "trialdata": {"rt": -1000, "trial_type": "single-audio", "word": "country", "stimulus": "/static/audio/wordpool/COUNTRY.wav", "conditions": [18, 1200, "a", 18000], "internal_node_id": "0.0-13.0", "trial": 0, "time_elapsed": 264979, "serialpos": 1, "key_press": -1, "wordID": 387, "type": "PRES_AUD", "trial_index": 22}, "uniqueid": "MTK2258:3PZDLQMM0USV66J601W2AKFLD9GC2J", "dateTime": 1516906695933}, {"current_trial": 23, "trialdata": {"rt": -1000, "trial_type": "single-audio", "word": "jello", "stimulus": "/static/audio/wordpool/JELLO.wav", "conditions": [18, 1200, "a", 18000], "internal_node_id": "0.0-14.0", "trial": 0, "time_elapsed": 267173, "serialpos": 2, "key_press": -1, "wordID": 753, "type": "PRES_AUD", "trial_index": 23}, "uniqueid": "MTK2258:3PZDLQMM0USV66J601W2AKFLD9GC2J", "dateTime": 1516906698128}, {"current_trial": 24, "trialdata": {"rt": -1000, "trial_type": "single-audio", "word": "agent", "stimulus": "/static/audio/wordpool/AGENT.wav", "conditions": [18, 1200, "a", 18000], "internal_node_id": "0.0-15.0", "trial": 0, "time_elapsed": 269205, "serialpos": 3, "key_press": -1, "wordID": 9, "type": "PRES_AUD", "trial_index": 24}, "uniqueid": "MTK2258:3PZDLQMM0USV66J601W2AKFLD9GC2J", "dateTime": 1516906700160}, {"current_trial": 25, "trialdata": {"rt": -1000, "trial_type": "single-audio", "word": "icing", "stimulus": "/static/audio/wordpool/ICING.wav", "conditions": [18, 1200, "a", 18000], "internal_node_id": "0.0-16.0", "trial": 0, "time_elapsed": 271272, "serialpos": 4, "key_press": -1, "wordID": 731, "type": "PRES_AUD", "trial_index": 25}, "uniqueid": "MTK2258:3PZDLQMM0USV66J601W2AKFLD9GC2J", "dateTime": 1516906702226}, {"current_trial": 26, "trialdata": {"rt": -1000, "trial_type": "single-audio", "word": "ketchup", "stimulus": "/static/audio/wordpool/KETCHUP.wav", "conditions": [18, 1200, "a", 18000], "internal_node_id": "0.0-17.0", "trial": 0, "time_elapsed": 273331, "serialpos": 5, "key_press": -1, "wordID": 770, "type": "PRES_AUD", "trial_index": 26}, "uniqueid": "MTK2258:3PZDLQMM0USV66J601W2AKFLD9GC2J", "dateTime": 1516906704285}, {"current_trial": 27, "trialdata": {"rt": -1000, "trial_type": "single-audio", "word": "victim", "stimulus": "/static/audio/wordpool/VICTIM.wav", "conditions": [18, 1200, "a", 18000], "internal_node_id": "0.0-18.0", "trial": 0, "time_elapsed": 275422, "serialpos": 6, "key_press": -1, "wordID": 1561, "type": "PRES_AUD", "trial_index": 27}, "uniqueid": "MTK2258:3PZDLQMM0USV66J601W2AKFLD9GC2J", "dateTime": 1516906706376}, {"current_trial": 28, "trialdata": {"rt": -1000, "trial_type": "single-audio", "word": "dress", "stimulus": "/static/audio/wordpool/DRESS.wav", "conditions": [18, 1200, "a", 18000], "internal_node_id": "0.0-19.0", "trial": 0, "time_elapsed": 277756, "serialpos": 7, "key_press": -1, "wordID": 494, "type": "PRES_AUD", "trial_index": 28}, "uniqueid": "MTK2258:3PZDLQMM0USV66J601W2AKFLD9GC2J", "dateTime": 1516906708710}, {"current_trial": 29, "trialdata": {"rt": -1000, "trial_type": "single-audio", "word": "casket", "stimulus": "/static/audio/wordpool/CASKET.wav", "conditions": [18, 1200, "a", 18000], "internal_node_id": "0.0-20.0", "trial": 0, "time_elapsed": 280146, "serialpos": 8, "key_press": -1, "wordID": 254, "type": "PRES_AUD", "trial_index": 29}, "uniqueid": "MTK2258:3PZDLQMM0USV66J601W2AKFLD9GC2J", "dateTime": 1516906711100}, {"current_trial": 30, "trialdata": {"rt": -1000, "trial_type": "single-audio", "word": "slide", "stimulus": "/static/audio/wordpool/SLIDE.wav", "conditions": [18, 1200, "a", 18000], "internal_node_id": "0.0-21.0", "trial": 0, "time_elapsed": 282516, "serialpos": 9, "key_press": -1, "wordID": 1325, "type": "PRES_AUD", "trial_index": 30}, "uniqueid": "MTK2258:3PZDLQMM0USV66J601W2AKFLD9GC2J", "dateTime": 1516906713470}, {"current_trial": 31, "trialdata": {"rt": -1000, "trial_type": "single-audio", "word": "mop", "stimulus": "/static/audio/wordpool/MOP.wav", "conditions": [18, 1200, "a", 18000], "internal_node_id": "0.0-22.0", "trial": 0, "time_elapsed": 284902, "serialpos": 10, "key_press": -1, "wordID": 915, "type": "PRES_AUD", "trial_index": 31}, "uniqueid": "MTK2258:3PZDLQMM0USV66J601W2AKFLD9GC2J", "dateTime": 1516906715856}, {"current_trial": 32, "trialdata": {"rt": -1000, "trial_type": "single-audio", "word": "orange", "stimulus": "/static/audio/wordpool/ORANGE.wav", "conditions": [18, 1200, "a", 18000], "internal_node_id": "0.0-23.0", "trial": 0, "time_elapsed": 286922, "serialpos": 11, "key_press": -1, "wordID": 979, "type": "PRES_AUD", "trial_index": 32}, "uniqueid": "MTK2258:3PZDLQMM0USV66J601W2AKFLD9GC2J", "dateTime": 1516906717876}, {"current_trial": 33, "trialdata": {"rt": -1000, "trial_type": "single-audio", "word": "bathtub", "stimulus": "/static/audio/wordpool/BATHTUB.wav", "conditions": [18, 1200, "a", 18000], "internal_node_id": "0.0-24.0", "trial": 0, "time_elapsed": 288982, "serialpos": 12, "key_press": -1, "wordID": 99, "type": "PRES_AUD", "trial_index": 33}, "uniqueid": "MTK2258:3PZDLQMM0USV66J601W2AKFLD9GC2J", "dateTime": 1516906719936}, {"current_trial": 34, "trialdata": {"rt": -1000, "trial_type": "single-audio", "word": "baby", "stimulus": "/static/audio/wordpool/BABY.wav", "conditions": [18, 1200, "a", 18000], "internal_node_id": "0.0-25.0", "trial": 0, "time_elapsed": 291066, "serialpos": 13, "key_press": -1, "wordID": 63, "type": "PRES_AUD", "trial_index": 34}, "uniqueid": "MTK2258:3PZDLQMM0USV66J601W2AKFLD9GC2J", "dateTime": 1516906722020}, {"current_trial": 35, "trialdata": {"rt": -1000, "trial_type": "single-audio", "word": "switch", "stimulus": "/static/audio/wordpool/SWITCH.wav", "conditions": [18, 1200, "a", 18000], "internal_node_id": "0.0-26.0", "trial": 0, "time_elapsed": 293195, "serialpos": 14, "key_press": -1, "wordID": 1421, "type": "PRES_AUD", "trial_index": 35}, "uniqueid": "MTK2258:3PZDLQMM0USV66J601W2AKFLD9GC2J", "dateTime": 1516906724149}, {"current_trial": 36, "trialdata": {"rt": -1000, "trial_type": "single-audio", "word": "jelly", "stimulus": "/static/audio/wordpool/JELLY.wav", "conditions": [18, 1200, "a", 18000], "internal_node_id": "0.0-27.0", "trial": 0, "time_elapsed": 295402, "serialpos": 15, "key_press": -1, "wordID": 754, "type": "PRES_AUD", "trial_index": 36}, "uniqueid": "MTK2258:3PZDLQMM0USV66J601W2AKFLD9GC2J", "dateTime": 1516906726356}, {"current_trial": 37, "trialdata": {"rt": -1000, "trial_type": "single-audio", "word": "hedge", "stimulus": "/static/audio/wordpool/HEDGE.wav", "conditions": [18, 1200, "a", 18000], "internal_node_id": "0.0-28.0", "trial": 0, "time_elapsed": 297724, "serialpos": 16, "key_press": -1, "wordID": 698, "type": "PRES_AUD", "trial_index": 37}, "uniqueid": "MTK2258:3PZDLQMM0USV66J601W2AKFLD9GC2J", "dateTime": 1516906728678}, {"current_trial": 38, "trialdata": {"rt": -1000, "trial_type": "single-audio", "word": "cook", "stimulus": "/static/audio/wordpool/COOK.wav", "conditions": [18, 1200, "a", 18000], "internal_node_id": "0.0-29.0", "trial": 0, "time_elapsed": 299750, "serialpos": 17, "key_press": -1, "wordID": 371, "type": "PRES_AUD", "trial_index": 38}, "uniqueid": "MTK2258:3PZDLQMM0USV66J601W2AKFLD9GC2J", "dateTime": 1516906730704}, {"current_trial": 39, "trialdata": {"rt": -1, "trial_type": "single-stim", "stimulus": "", "internal_node_id": "0.0-30.0-0.0", "time_elapsed": 300981, "key_press": -1, "type": "PRE_RECALL_DELAY", "trial_index": 39}, "uniqueid": "MTK2258:3PZDLQMM0USV66J601W2AKFLD9GC2J", "dateTime": 1516906731935}, {"current_trial": 40, "trialdata": {"rt": -1000, "trial_type": "single-audio", "stimulus": "/static/audio/400Hz.wav", "internal_node_id": "0.0-31.0", "time_elapsed": 301483, "key_press": -1, "type": "PRE_RECALL_ALERT", "trial_index": 40}, "uniqueid": "MTK2258:3PZDLQMM0USV66J601W2AKFLD9GC2J", "dateTime": 1516906732437}, {"current_trial": 41, "trialdata": {"rt": [3907, 6363, 8842, 11563, 14099, 16859, 18483, 20194, 22490, 25274, 27938, 31674, 36282, 37914, 39882, 41433, 42962, 44050], "recwords": ["diner", "country", "orange", "bathtub", "jello", "baby", "agent", "icing", "switch", "ketchup", "jelly", "victim", "hedge", "cook", "dress", "casket", "slide", "mop"], "key_times": [2988, 3115, 3315, 3395, 3467, 3907, 5371, 5491, 5563, 5795, 5867, 6035, 6131, 6363, 7962, 8099, 8203, 8307, 8443, 8618, 8842, 9859, 10043, 10227, 10355, 10979, 11147, 11299, 11563, 13163, 13355, 13499, 13635, 13827, 14099, 15818, 16011, 16211, 16539, 16859, 17651, 17867, 18003, 18123, 18259, 18483, 19499, 19634, 19739, 19898, 19987, 20194, 21443, 21619, 21811, 21946, 22163, 22267, 22490, 23827, 23954, 24131, 24339, 24466, 24818, 24995, 25274, 27114, 27266, 27371, 27523, 27722, 27938, 29666, 29834, 29954, 30170, 30691, 30820, 30906, 31145, 31220, 31409, 31674, 35611, 35722, 35890, 36066, 36138, 36282, 37202, 37354, 37490, 37642, 37914, 38753, 39146, 39186, 39410, 39554, 39882, 40650, 40786, 40914, 41042, 41114, 41298, 41433, 42314, 42418, 42642, 42698, 42857, 42962, 43338, 43578, 43794, 44050, 53643, 53730, 53834, 54162, 54693, 54860, 55012, 55146, 58706, 59034, 59169, 59369, 59754, 59889, 59953], "trial_type": "free-recall", "conditions": [18, 1200, "a", 18000], "internal_node_id": "0.0-32.0-0.0", "key_presses": [68, 73, 78, 69, 82, 13, 67, 79, 85, 78, 84, 82, 89, 13, 79, 82, 65, 78, 71, 69, 13, 66, 65, 84, 72, 84, 85, 66, 13, 74, 69, 76, 76, 79, 13, 66, 65, 66, 89, 13, 65, 71, 69, 78, 84, 13, 73, 67, 73, 78, 71, 13, 83, 87, 73, 84, 67, 72, 13, 75, 69, 84, 67, 72, 85, 80, 13, 74, 69, 76, 76, 89, 13, 86, 73, 84, 67, 8, 8, 67, 84, 73, 77, 13, 72, 69, 68, 71, 69, 13, 67, 79, 79, 75, 13, 68, 82, 69, 83, 83, 13, 67, 65, 83, 75, 69, 84, 13, 83, 76, 73, 68, 69, 13, 77, 79, 80, 13, 66, 65, 66, 89, 8, 8, 8, 8, 86, 73, 84, 67, 8, 8, 67], "trial": 0, "time_elapsed": 361488, "type": "FREE_RECALL", "trial_index": 41}, "uniqueid": "MTK2258:3PZDLQMM0USV66J601W2AKFLD9GC2J", "dateTime": 1516906792445}, {"current_trial": 42, "trialdata": {"rt": 1906, "trial_type": "text", "internal_node_id": "0.0-33.0", "time_elapsed": 365401, "key_press": 13, "type": "INSTRUCTIONS", "trial_index": 42}, "uniqueid": "MTK2258:3PZDLQMM0USV66J601W2AKFLD9GC2J", "dateTime": 1516906796355}, {"current_trial": 43, "trialdata": {"rt": [2760, 5143, 8048, 10087, 10271, 13879, 15887], "trial_type": "math-distractor", "key_times": [2264, 2760, 4559, 4927, 5143, 7071, 7503, 8048, 9578, 9839, 10087, 10271, 13311, 13503, 13879, 15303, 15719, 15887, 17983], "responses": ["8", "16", "23", "17", "", "21", "16"], "num2": [1, 5, 8, 8, 1, 9, 6, 3], "num3": [5, 9, 7, 4, 8, 5, 5, 5], "conditions": [18, 1200, "a", 18000], "internal_node_id": "0.0-34.0", "key_presses": [56, 13, 49, 54, 13, 50, 51, 13, 49, 55, 13, 13, 50, 49, 13, 49, 54, 13, 57], "trial": 1, "time_elapsed": 385411, "type": "DISTRACTOR", "trial_index": 43, "num1": [2, 2, 8, 5, 4, 7, 5, 1]}, "uniqueid": "MTK2258:3PZDLQMM0USV66J601W2AKFLD9GC2J", "dateTime": 1516906816365}, {"current_trial": 44, "trialdata": {"rt": -1, "trial_type": "single-stim", "stimulus": "<p id=\"stim\">10</p>", "internal_node_id": "0.0-35.0-0.0", "time_elapsed": 388417, "key_press": -1, "trial_index": 44}, "uniqueid": "MTK2258:3PZDLQMM0USV66J601W2AKFLD9GC2J", "dateTime": 1516906819371}, {"current_trial": 45, "trialdata": {"rt": -1, "trial_type": "single-stim", "stimulus": "<p id=\"stim\">9</p>", "internal_node_id": "0.0-35.0-1.0", "time_elapsed": 389420, "key_press": -1, "trial_index": 45}, "uniqueid": "MTK2258:3PZDLQMM0USV66J601W2AKFLD9GC2J", "dateTime": 1516906820374}, {"current_trial": 46, "trialdata": {"rt": -1, "trial_type": "single-stim", "stimulus": "<p id=\"stim\">8</p>", "internal_node_id": "0.0-35.0-2.0", "time_elapsed": 390424, "key_press": -1, "trial_index": 46}, "uniqueid": "MTK2258:3PZDLQMM0USV66J601W2AKFLD9GC2J", "dateTime": 1516906821378}, {"current_trial": 47, "trialdata": {"rt": -1, "trial_type": "single-stim", "stimulus": "<p id=\"stim\">7</p>", "internal_node_id": "0.0-35.0-3.0", "time_elapsed": 391428, "key_press": -1, "trial_index": 47}, "uniqueid": "MTK2258:3PZDLQMM0USV66J601W2AKFLD9GC2J", "dateTime": 1516906822383}, {"current_trial": 48, "trialdata": {"rt": -1, "trial_type": "single-stim", "stimulus": "<p id=\"stim\">6</p>", "internal_node_id": "0.0-35.0-4.0", "time_elapsed": 392433, "key_press": -1, "trial_index": 48}, "uniqueid": "MTK2258:3PZDLQMM0USV66J601W2AKFLD9GC2J", "dateTime": 1516906823387}, {"current_trial": 49, "trialdata": {"rt": -1, "trial_type": "single-stim", "stimulus": "<p id=\"stim\">5</p>", "internal_node_id": "0.0-35.0-5.0", "time_elapsed": 393437, "key_press": -1, "trial_index": 49}, "uniqueid": "MTK2258:3PZDLQMM0USV66J601W2AKFLD9GC2J", "dateTime": 1516906824392}, {"current_trial": 50, "trialdata": {"rt": -1, "trial_type": "single-stim", "stimulus": "<p id=\"stim\">4</p>", "internal_node_id": "0.0-35.0-6.0", "time_elapsed": 394439, "key_press": -1, "trial_index": 50}, "uniqueid": "MTK2258:3PZDLQMM0USV66J601W2AKFLD9GC2J", "dateTime": 1516906825393}, {"current_trial": 51, "trialdata": {"rt": -1, "trial_type": "single-stim", "stimulus": "<p id=\"stim\">3</p>", "internal_node_id": "0.0-35.0-7.0", "time_elapsed": 395440, "key_press": -1, "trial_index": 51}, "uniqueid": "MTK2258:3PZDLQMM0USV66J601W2AKFLD9GC2J", "dateTime": 1516906826395}, {"current_trial": 52, "trialdata": {"rt": -1, "trial_type": "single-stim", "stimulus": "<p id=\"stim\">2</p>", "internal_node_id": "0.0-35.0-8.0", "time_elapsed": 396441, "key_press": -1, "trial_index": 52}, "uniqueid": "MTK2258:3PZDLQMM0USV66J601W2AKFLD9GC2J", "dateTime": 1516906827396}, {"current_trial": 53, "trialdata": {"rt": -1, "trial_type": "single-stim", "stimulus": "<p id=\"stim\">1</p>", "internal_node_id": "0.0-35.0-9.0", "time_elapsed": 397443, "key_press": -1, "trial_index": 53}, "uniqueid": "MTK2258:3PZDLQMM0USV66J601W2AKFLD9GC2J", "dateTime": 1516906828397}, {"current_trial": 54, "trialdata": {"rt": -1, "trial_type": "single-stim", "stimulus": "<p id=\"stim\">+</p>", "internal_node_id": "0.0-36.0-0.0", "time_elapsed": 398945, "key_press": -1, "type": "FIXATION", "trial_index": 54}, "uniqueid": "MTK2258:3PZDLQMM0USV66J601W2AKFLD9GC2J", "dateTime": 1516906829899}, {"current_trial": 55, "trialdata": {"rt": -1000, "trial_type": "single-audio", "word": "scalpel", "stimulus": "/static/audio/wordpool/SCALPEL.wav", "conditions": [18, 1200, "a", 18000], "internal_node_id": "0.0-37.0", "trial": 1, "time_elapsed": 401205, "serialpos": 0, "key_press": -1, "wordID": 1242, "type": "PRES_AUD", "trial_index": 55}, "uniqueid": "MTK2258:3PZDLQMM0USV66J601W2AKFLD9GC2J", "dateTime": 1516906832160}, {"current_trial": 56, "trialdata": {"rt": -1000, "trial_type": "single-audio", "word": "taxi", "stimulus": "/static/audio/wordpool/TAXI.wav", "conditions": [18, 1200, "a", 18000], "internal_node_id": "0.0-38.0", "trial": 1, "time_elapsed": 403231, "serialpos": 1, "key_press": -1, "wordID": 1437, "type": "PRES_AUD", "trial_index": 56}, "uniqueid": "MTK2258:3PZDLQMM0USV66J601W2AKFLD9GC2J", "dateTime": 1516906834185}, {"current_trial": 57, "trialdata": {"rt": -1000, "trial_type": "single-audio", "word": "kleenex", "stimulus": "/static/audio/wordpool/KLEENEX.wav", "conditions": [18, 1200, "a", 18000], "internal_node_id": "0.0-39.0", "trial": 1, "time_elapsed": 405594, "serialpos": 2, "key_press": -1, "wordID": 781, "type": "PRES_AUD", "trial_index": 57}, "uniqueid": "MTK2258:3PZDLQMM0USV66J601W2AKFLD9GC2J", "dateTime": 1516906836548}, {"current_trial": 58, "trialdata": {"rt": -1000, "trial_type": "single-audio", "word": "judge", "stimulus": "/static/audio/wordpool/JUDGE.wav", "conditions": [18, 1200, "a", 18000], "internal_node_id": "0.0-40.0", "trial": 1, "time_elapsed": 407800, "serialpos": 3, "key_press": -1, "wordID": 760, "type": "PRES_AUD", "trial_index": 58}, "uniqueid": "MTK2258:3PZDLQMM0USV66J601W2AKFLD9GC2J", "dateTime": 1516906838754}, {"current_trial": 59, "trialdata": {"rt": -1000, "trial_type": "single-audio", "word": "pigment", "stimulus": "/static/audio/wordpool/PIGMENT.wav", "conditions": [18, 1200, "a", 18000], "internal_node_id": "0.0-41.0", "trial": 1, "time_elapsed": 410052, "serialpos": 4, "key_press": -1, "wordID": 1065, "type": "PRES_AUD", "trial_index": 59}, "uniqueid": "MTK2258:3PZDLQMM0USV66J601W2AKFLD9GC2J", "dateTime": 1516906841006}, {"current_trial": 60, "trialdata": {"rt": -1000, "trial_type": "single-audio", "word": "gymnast", "stimulus": "/static/audio/wordpool/GYMNAST.wav", "conditions": [18, 1200, "a", 18000], "internal_node_id": "0.0-42.0", "trial": 1, "time_elapsed": 412200, "serialpos": 5, "key_press": -1, "wordID": 674, "type": "PRES_AUD", "trial_index": 60}, "uniqueid": "MTK2258:3PZDLQMM0USV66J601W2AKFLD9GC2J", "dateTime": 1516906843154}, {"current_trial": 61, "trialdata": {"rt": -1000, "trial_type": "single-audio", "word": "ground", "stimulus": "/static/audio/wordpool/GROUND.wav", "conditions": [18, 1200, "a", 18000], "internal_node_id": "0.0-43.0", "trial": 1, "time_elapsed": 414435, "serialpos": 6, "key_press": -1, "wordID": 665, "type": "PRES_AUD", "trial_index": 61}, "uniqueid": "MTK2258:3PZDLQMM0USV66J601W2AKFLD9GC2J", "dateTime": 1516906845389}, {"current_trial": 62, "trialdata": {"rt": -1000, "trial_type": "single-audio", "word": "cabin", "stimulus": "/static/audio/wordpool/CABIN.wav", "conditions": [18, 1200, "a", 18000], "internal_node_id": "0.0-44.0", "trial": 1, "time_elapsed": 416809, "serialpos": 7, "key_press": -1, "wordID": 210, "type": "PRES_AUD", "trial_index": 62}, "uniqueid": "MTK2258:3PZDLQMM0USV66J601W2AKFLD9GC2J", "dateTime": 1516906847763}, {"current_trial": 63, "trialdata": {"rt": -1000, "trial_type": "single-audio", "word": "portrait", "stimulus": "/static/audio/wordpool/PORTRAIT.wav", "conditions": [18, 1200, "a", 18000], "internal_node_id": "0.0-45.0", "trial": 1, "time_elapsed": 419084, "serialpos": 8, "key_press": -1, "wordID": 1110, "type": "PRES_AUD", "trial_index": 63}, "uniqueid": "MTK2258:3PZDLQMM0USV66J601W2AKFLD9GC2J", "dateTime": 1516906850039}, {"current_trial": 64, "trialdata": {"rt": -1000, "trial_type": "single-audio", "word": "salmon", "stimulus": "/static/audio/wordpool/SALMON.wav", "conditions": [18, 1200, "a", 18000], "internal_node_id": "0.0-46.0", "trial": 1, "time_elapsed": 421209, "serialpos": 9, "key_press": -1, "wordID": 1226, "type": "PRES_AUD", "trial_index": 64}, "uniqueid": "MTK2258:3PZDLQMM0USV66J601W2AKFLD9GC2J", "dateTime": 1516906852163}, {"current_trial": 65, "trialdata": {"rt": -1000, "trial_type": "single-audio", "word": "blackboard", "stimulus": "/static/audio/wordpool/BLACKBOARD.wav", "conditions": [18, 1200, "a", 18000], "internal_node_id": "0.0-47.0", "trial": 1, "time_elapsed": 423357, "serialpos": 10, "key_press": -1, "wordID": 132, "type": "PRES_AUD", "trial_index": 65}, "uniqueid": "MTK2258:3PZDLQMM0USV66J601W2AKFLD9GC2J", "dateTime": 1516906854311}, {"current_trial": 66, "trialdata": {"rt": -1000, "trial_type": "single-audio", "word": "lava", "stimulus": "/static/audio/wordpool/LAVA.wav", "conditions": [18, 1200, "a", 18000], "internal_node_id": "0.0-48.0", "trial": 1, "time_elapsed": 425667, "serialpos": 11, "key_press": -1, "wordID": 803, "type": "PRES_AUD", "trial_index": 66}, "uniqueid": "MTK2258:3PZDLQMM0USV66J601W2AKFLD9GC2J", "dateTime": 1516906856621}, {"current_trial": 67, "trialdata": {"rt": -1000, "trial_type": "single-audio", "word": "brandy", "stimulus": "/static/audio/wordpool/BRANDY.wav", "conditions": [18, 1200, "a", 18000], "internal_node_id": "0.0-49.0", "trial": 1, "time_elapsed": 428059, "serialpos": 12, "key_press": -1, "wordID": 168, "type": "PRES_AUD", "trial_index": 67}, "uniqueid": "MTK2258:3PZDLQMM0USV66J601W2AKFLD9GC2J", "dateTime": 1516906859013}, {"current_trial": 68, "trialdata": {"rt": -1000, "trial_type": "single-audio", "word": "coin", "stimulus": "/static/audio/wordpool/COIN.wav", "conditions": [18, 1200, "a", 18000], "internal_node_id": "0.0-50.0", "trial": 1, "time_elapsed": 430195, "serialpos": 13, "key_press": -1, "wordID": 342, "type": "PRES_AUD", "trial_index": 68}, "uniqueid": "MTK2258:3PZDLQMM0USV66J601W2AKFLD9GC2J", "dateTime": 1516906861152}, {"current_trial": 69, "trialdata": {"rt": -1000, "trial_type": "single-audio", "word": "apple", "stimulus": "/static/audio/wordpool/APPLE.wav", "conditions": [18, 1200, "a", 18000], "internal_node_id": "0.0-51.0", "trial": 1, "time_elapsed": 432469, "serialpos": 14, "key_press": -1, "wordID": 32, "type": "PRES_AUD", "trial_index": 69}, "uniqueid": "MTK2258:3PZDLQMM0USV66J601W2AKFLD9GC2J", "dateTime": 1516906863424}, {"current_trial": 70, "trialdata": {"rt": -1000, "trial_type": "single-audio", "word": "mars", "stimulus": "/static/audio/wordpool/MARS.wav", "conditions": [18, 1200, "a", 18000], "internal_node_id": "0.0-52.0", "trial": 1, "time_elapsed": 434769, "serialpos": 15, "key_press": -1, "wordID": 872, "type": "PRES_AUD", "trial_index": 70}, "uniqueid": "MTK2258:3PZDLQMM0USV66J601W2AKFLD9GC2J", "dateTime": 1516906865723}, {"current_trial": 71, "trialdata": {"rt": -1000, "trial_type": "single-audio", "word": "marrow", "stimulus": "/static/audio/wordpool/MARROW.wav", "conditions": [18, 1200, "a", 18000], "internal_node_id": "0.0-53.0", "trial": 1, "time_elapsed": 437074, "serialpos": 16, "key_press": -1, "wordID": 871, "type": "PRES_AUD", "trial_index": 71}, "uniqueid": "MTK2258:3PZDLQMM0USV66J601W2AKFLD9GC2J", "dateTime": 1516906868028}, {"current_trial": 72, "trialdata": {"rt": -1000, "trial_type": "single-audio", "word": "monster", "stimulus": "/static/audio/wordpool/MONSTER.wav", "conditions": [18, 1200, "a", 18000], "internal_node_id": "0.0-54.0", "trial": 1, "time_elapsed": 439084, "serialpos": 17, "key_press": -1, "wordID": 911, "type": "PRES_AUD", "trial_index": 72}, "uniqueid": "MTK2258:3PZDLQMM0USV66J601W2AKFLD9GC2J", "dateTime": 1516906870038}, {"current_trial": 73, "trialdata": {"rt": -1, "trial_type": "single-stim", "stimulus": "", "internal_node_id": "0.0-55.0-0.0", "time_elapsed": 440459, "key_press": -1, "type": "PRE_RECALL_DELAY", "trial_index": 73}, "uniqueid": "MTK2258:3PZDLQMM0USV66J601W2AKFLD9GC2J", "dateTime": 1516906871413}, {"current_trial": 74, "trialdata": {"rt": -1000, "trial_type": "single-audio", "stimulus": "/static/audio/400Hz.wav", "internal_node_id": "0.0-56.0", "time_elapsed": 440961, "key_press": -1, "type": "PRE_RECALL_ALERT", "trial_index": 74}, "uniqueid": "MTK2258:3PZDLQMM0USV66J601W2AKFLD9GC2J", "dateTime": 1516906871915}, {"current_trial": 75, "trialdata": {"rt": [2914, 5842, 7298, 9139, 10786, 13410, 15218, 17170, 19898, 22666, 24938, 27673, 29866, 31962, 34938, 36569, 38265, 45161], "recwords": ["scalpal", "taxi", "lava", "coin", "apple", "kleenex", "judge", "pigment", "gymnast", "ground", "cabin", "portrait", "salmon", "marrow", "apple", "mars", "monster", "blackboard"], "key_times": [1387, 1867, 2018, 2130, 2370, 2482, 2611, 2914, 5122, 5210, 5434, 5586, 5842, 6602, 6754, 6906, 7003, 7298, 8163, 8394, 8594, 8850, 9139, 9914, 10122, 10266, 10466, 10570, 10786, 11947, 12274, 12402, 12570, 12818, 12866, 13122, 13410, 14370, 14626, 14737, 14913, 15002, 15218, 16194, 16386, 16481, 16650, 16762, 16866, 16978, 17170, 18554, 18850, 19114, 19306, 19426, 19545, 19682, 19898, 21586, 21754, 21826, 22002, 22306, 22450, 22666, 23826, 23938, 24113, 24281, 24506, 24938, 26234, 26450, 26529, 26682, 27018, 27194, 27362, 27514, 27673, 28738, 28914, 29066, 29234, 29433, 29520, 29866, 31050, 31242, 31338, 31482, 31594, 31721, 31962, 33755, 33954, 34105, 34282, 34490, 34938, 36090, 36163, 36282, 36378, 36569, 37402, 37602, 37706, 37850, 37906, 38025, 38090, 38265, 39802, 39978, 40073, 40226, 40385, 40850, 40978, 41121, 41258, 41385, 43602, 43771, 43881, 44010, 44161, 44449, 44593, 44681, 44769, 44970, 45161], "trial_type": "free-recall", "conditions": [18, 1200, "a", 18000], "internal_node_id": "0.0-57.0-0.0", "key_presses": [83, 67, 65, 76, 80, 65, 76, 13, 84, 65, 88, 73, 13, 76, 65, 86, 65, 13, 67, 79, 73, 78, 13, 65, 80, 80, 76, 69, 13, 75, 76, 69, 69, 78, 69, 88, 13, 74, 85, 68, 71, 69, 13, 80, 73, 71, 77, 69, 78, 84, 13, 71, 89, 77, 78, 65, 83, 84, 13, 71, 82, 79, 85, 78, 68, 13, 67, 65, 66, 73, 78, 13, 80, 79, 82, 84, 82, 65, 73, 84, 13, 83, 65, 76, 77, 79, 78, 13, 77, 65, 82, 82, 79, 87, 13, 65, 80, 80, 76, 69, 13, 77, 65, 82, 83, 13, 77, 79, 78, 83, 84, 69, 82, 13, 80, 79, 82, 84, 82, 8, 8, 8, 8, 8, 66, 76, 65, 67, 75, 66, 79, 65, 82, 68, 13], "trial": 1, "time_elapsed": 500964, "type": "FREE_RECALL", "trial_index": 75}, "uniqueid": "MTK2258:3PZDLQMM0USV66J601W2AKFLD9GC2J", "dateTime": 1516906931921}, {"current_trial": 76, "trialdata": {"rt": 4914, "trial_type": "text", "internal_node_id": "0.0-58.0", "time_elapsed": 507886, "key_press": 32, "type": "INSTRUCTIONS", "trial_index": 76}, "uniqueid": "MTK2258:3PZDLQMM0USV66J601W2AKFLD9GC2J", "dateTime": 1516906938840}, {"current_trial": 77, "trialdata": {"rt": [2614, 4550, 6583, 8390], "trial_type": "math-distractor", "key_times": [2191, 2367, 2614, 4103, 4335, 4550, 5951, 6327, 6583, 7759, 8175, 8390, 11576, 11855], "responses": ["20", "18", "14", "13"], "num2": [7, 9, 3, 1, 3], "num3": [9, 1, 9, 7, 5], "conditions": [12, 1600, "a", 12000], "internal_node_id": "0.0-59.0", "key_presses": [50, 48, 13, 49, 56, 13, 49, 52, 13, 49, 51, 13, 49, 50], "trial": 2, "time_elapsed": 520896, "type": "DISTRACTOR", "trial_index": 77, "num1": [4, 8, 2, 5, 4]}, "uniqueid": "MTK2258:3PZDLQMM0USV66J601W2AKFLD9GC2J", "dateTime": 1516906951850}, {"current_trial": 78, "trialdata": {"rt": -1, "trial_type": "single-stim", "stimulus": "<p id=\"stim\">10</p>", "internal_node_id": "0.0-60.0-0.0", "time_elapsed": 523906, "key_press": -1, "trial_index": 78}, "uniqueid": "MTK2258:3PZDLQMM0USV66J601W2AKFLD9GC2J", "dateTime": 1516906954860}, {"current_trial": 79, "trialdata": {"rt": -1, "trial_type": "single-stim", "stimulus": "<p id=\"stim\">9</p>", "internal_node_id": "0.0-60.0-1.0", "time_elapsed": 524910, "key_press": -1, "trial_index": 79}, "uniqueid": "MTK2258:3PZDLQMM0USV66J601W2AKFLD9GC2J", "dateTime": 1516906955864}, {"current_trial": 80, "trialdata": {"rt": -1, "trial_type": "single-stim", "stimulus": "<p id=\"stim\">8</p>", "internal_node_id": "0.0-60.0-2.0", "time_elapsed": 525914, "key_press": -1, "trial_index": 80}, "uniqueid": "MTK2258:3PZDLQMM0USV66J601W2AKFLD9GC2J", "dateTime": 1516906956868}, {"current_trial": 81, "trialdata": {"rt": -1, "trial_type": "single-stim", "stimulus": "<p id=\"stim\">7</p>", "internal_node_id": "0.0-60.0-3.0", "time_elapsed": 526918, "key_press": -1, "trial_index": 81}, "uniqueid": "MTK2258:3PZDLQMM0USV66J601W2AKFLD9GC2J", "dateTime": 1516906957872}, {"current_trial": 82, "trialdata": {"rt": -1, "trial_type": "single-stim", "stimulus": "<p id=\"stim\">6</p>", "internal_node_id": "0.0-60.0-4.0", "time_elapsed": 527922, "key_press": -1, "trial_index": 82}, "uniqueid": "MTK2258:3PZDLQMM0USV66J601W2AKFLD9GC2J", "dateTime": 1516906958876}, {"current_trial": 83, "trialdata": {"rt": -1, "trial_type": "single-stim", "stimulus": "<p id=\"stim\">5</p>", "internal_node_id": "0.0-60.0-5.0", "time_elapsed": 528926, "key_press": -1, "trial_index": 83}, "uniqueid": "MTK2258:3PZDLQMM0USV66J601W2AKFLD9GC2J", "dateTime": 1516906959880}, {"current_trial": 84, "trialdata": {"rt": -1, "trial_type": "single-stim", "stimulus": "<p id=\"stim\">4</p>", "internal_node_id": "0.0-60.0-6.0", "time_elapsed": 529930, "key_press": -1, "trial_index": 84}, "uniqueid": "MTK2258:3PZDLQMM0USV66J601W2AKFLD9GC2J", "dateTime": 1516906960884}, {"current_trial": 85, "trialdata": {"rt": -1, "trial_type": "single-stim", "stimulus": "<p id=\"stim\">3</p>", "internal_node_id": "0.0-60.0-7.0", "time_elapsed": 530935, "key_press": -1, "trial_index": 85}, "uniqueid": "MTK2258:3PZDLQMM0USV66J601W2AKFLD9GC2J", "dateTime": 1516906961889}, {"current_trial": 86, "trialdata": {"rt": -1, "trial_type": "single-stim", "stimulus": "<p id=\"stim\">2</p>", "internal_node_id": "0.0-60.0-8.0", "time_elapsed": 531939, "key_press": -1, "trial_index": 86}, "uniqueid": "MTK2258:3PZDLQMM0USV66J601W2AKFLD9GC2J", "dateTime": 1516906962893}, {"current_trial": 87, "trialdata": {"rt": -1, "trial_type": "single-stim", "stimulus": "<p id=\"stim\">1</p>", "internal_node_id": "0.0-60.0-9.0", "time_elapsed": 532942, "key_press": -1, "trial_index": 87}, "uniqueid": "MTK2258:3PZDLQMM0USV66J601W2AKFLD9GC2J", "dateTime": 1516906963897}, {"current_trial": 88, "trialdata": {"rt": -1, "trial_type": "single-stim", "stimulus": "<p id=\"stim\">+</p>", "internal_node_id": "0.0-61.0-0.0", "time_elapsed": 534445, "key_press": -1, "type": "FIXATION", "trial_index": 88}, "uniqueid": "MTK2258:3PZDLQMM0USV66J601W2AKFLD9GC2J", "dateTime": 1516906965399}, {"current_trial": 89, "trialdata": {"rt": -1000, "trial_type": "single-audio", "word": "snake", "stimulus": "/static/audio/wordpool/SNAKE.wav", "conditions": [12, 1600, "a", 12000], "internal_node_id": "0.0-62.0", "trial": 2, "time_elapsed": 536933, "serialpos": 0, "key_press": -1, "wordID": 1332, "type": "PRES_AUD", "trial_index": 89}, "uniqueid": "MTK2258:3PZDLQMM0USV66J601W2AKFLD9GC2J", "dateTime": 1516906967887}, {"current_trial": 90, "trialdata": {"rt": -1000, "trial_type": "single-audio", "word": "flask", "stimulus": "/static/audio/wordpool/FLASK.wav", "conditions": [12, 1600, "a", 12000], "internal_node_id": "0.0-63.0", "trial": 2, "time_elapsed": 539731, "serialpos": 1, "key_press": -1, "wordID": 575, "type": "PRES_AUD", "trial_index": 90}, "uniqueid": "MTK2258:3PZDLQMM0USV66J601W2AKFLD9GC2J", "dateTime": 1516906970685}, {"current_trial": 91, "trialdata": {"rt": -1000, "trial_type": "single-audio", "word": "actor", "stimulus": "/static/audio/wordpool/ACTOR.wav", "conditions": [12, 1600, "a", 12000], "internal_node_id": "0.0-64.0", "trial": 2, "time_elapsed": 542244, "serialpos": 2, "key_press": -1, "wordID": 4, "type": "PRES_AUD", "trial_index": 91}, "uniqueid": "MTK2258:3PZDLQMM0USV66J601W2AKFLD9GC2J", "dateTime": 1516906973199}, {"current_trial": 92, "trialdata": {"rt": -1000, "trial_type": "single-audio", "word": "film", "stimulus": "/static/audio/wordpool/FILM.wav", "conditions": [12, 1600, "a", 12000], "internal_node_id": "0.0-65.0", "trial": 2, "time_elapsed": 545008, "serialpos": 3, "key_press": -1, "wordID": 564, "type": "PRES_AUD", "trial_index": 92}, "uniqueid": "MTK2258:3PZDLQMM0USV66J601W2AKFLD9GC2J", "dateTime": 1516906975962}, {"current_trial": 93, "trialdata": {"rt": -1000, "trial_type": "single-audio", "word": "champagne", "stimulus": "/static/audio/wordpool/CHAMPAGNE.wav", "conditions": [12, 1600, "a", 12000], "internal_node_id": "0.0-66.0", "trial": 2, "time_elapsed": 547455, "serialpos": 4, "key_press": -1, "wordID": 277, "type": "PRES_AUD", "trial_index": 93}, "uniqueid": "MTK2258:3PZDLQMM0USV66J601W2AKFLD9GC2J", "dateTime": 1516906978410}, {"current_trial": 94, "trialdata": {"rt": -1000, "trial_type": "single-audio", "word": "drink", "stimulus": "/static/audio/wordpool/DRINK.wav", "conditions": [12, 1600, "a", 12000], "internal_node_id": "0.0-67.0", "trial": 2, "time_elapsed": 550093, "serialpos": 5, "key_press": -1, "wordID": 497, "type": "PRES_AUD", "trial_index": 94}, "uniqueid": "MTK2258:3PZDLQMM0USV66J601W2AKFLD9GC2J", "dateTime": 1516906981047}, {"current_trial": 95, "trialdata": {"rt": -1000, "trial_type": "single-audio", "word": "curtain", "stimulus": "/static/audio/wordpool/CURTAIN.wav", "conditions": [12, 1600, "a", 12000], "internal_node_id": "0.0-68.0", "trial": 2, "time_elapsed": 552792, "serialpos": 6, "key_press": -1, "wordID": 426, "type": "PRES_AUD", "trial_index": 95}, "uniqueid": "MTK2258:3PZDLQMM0USV66J601W2AKFLD9GC2J", "dateTime": 1516906983746}, {"current_trial": 96, "trialdata": {"rt": -1000, "trial_type": "single-audio", "word": "knife", "stimulus": "/static/audio/wordpool/KNIFE.wav", "conditions": [12, 1600, "a", 12000], "internal_node_id": "0.0-69.0", "trial": 2, "time_elapsed": 555485, "serialpos": 7, "key_press": -1, "wordID": 784, "type": "PRES_AUD", "trial_index": 96}, "uniqueid": "MTK2258:3PZDLQMM0USV66J601W2AKFLD9GC2J", "dateTime": 1516906986439}, {"current_trial": 97, "trialdata": {"rt": -1000, "trial_type": "single-audio", "word": "cobra", "stimulus": "/static/audio/wordpool/COBRA.wav", "conditions": [12, 1600, "a", 12000], "internal_node_id": "0.0-70.0", "trial": 2, "time_elapsed": 558213, "serialpos": 8, "key_press": -1, "wordID": 335, "type": "PRES_AUD", "trial_index": 97}, "uniqueid": "MTK2258:3PZDLQMM0USV66J601W2AKFLD9GC2J", "dateTime": 1516906989167}, {"current_trial": 98, "trialdata": {"rt": -1000, "trial_type": "single-audio", "word": "chapel", "stimulus": "/static/audio/wordpool/CHAPEL.wav", "conditions": [12, 1600, "a", 12000], "internal_node_id": "0.0-71.0", "trial": 2, "time_elapsed": 560994, "serialpos": 9, "key_press": -1, "wordID": 279, "type": "PRES_AUD", "trial_index": 98}, "uniqueid": "MTK2258:3PZDLQMM0USV66J601W2AKFLD9GC2J", "dateTime": 1516906991948}, {"current_trial": 99, "trialdata": {"rt": -1000, "trial_type": "single-audio", "word": "mailbox", "stimulus": "/static/audio/wordpool/MAILBOX.wav", "conditions": [12, 1600, "a", 12000], "internal_node_id": "0.0-72.0", "trial": 2, "time_elapsed": 563688, "serialpos": 10, "key_press": -1, "wordID": 856, "type": "PRES_AUD", "trial_index": 99}, "uniqueid": "MTK2258:3PZDLQMM0USV66J601W2AKFLD9GC2J", "dateTime": 1516906994642}, {"current_trial": 100, "trialdata": {"rt": -1000, "trial_type": "single-audio", "word": "catcher", "stimulus": "/static/audio/wordpool/CATCHER.wav", "conditions": [12, 1600, "a", 12000], "internal_node_id": "0.0-73.0", "trial": 2, "time_elapsed": 566381, "serialpos": 11, "key_press": -1, "wordID": 257, "type": "PRES_AUD", "trial_index": 100}, "uniqueid": "MTK2258:3PZDLQMM0USV66J601W2AKFLD9GC2J", "dateTime": 1516906997335}, {"current_trial": 101, "trialdata": {"rt": -1, "trial_type": "single-stim", "stimulus": "", "internal_node_id": "0.0-74.0-0.0", "time_elapsed": 567725, "key_press": -1, "type": "PRE_RECALL_DELAY", "trial_index": 101}, "uniqueid": "MTK2258:3PZDLQMM0USV66J601W2AKFLD9GC2J", "dateTime": 1516906998679}, {"current_trial": 102, "trialdata": {"rt": -1000, "trial_type": "single-audio", "stimulus": "/static/audio/400Hz.wav", "internal_node_id": "0.0-75.0", "time_elapsed": 568227, "key_press": -1, "type": "PRE_RECALL_ALERT", "trial_index": 102}, "uniqueid": "MTK2258:3PZDLQMM0USV66J601W2AKFLD9GC2J", "dateTime": 1516906999181}, {"current_trial": 103, "trialdata": {"rt": [3349, 5357, 6437, 8341, 9597, 10845, 13349, 14829, 16637, 17645, 19829], "recwords": ["mailbox", "film", "actor", "champagne", "snake", "flask", "drink", "curtain", "knife", "cobra", "chapel"], "key_times": [1359, 2125, 2293, 2493, 2669, 2821, 3021, 3349, 4421, 4701, 4917, 5093, 5357, 5573, 5717, 5965, 6133, 6244, 6437, 6709, 6877, 6965, 7117, 7285, 7469, 7645, 7909, 8077, 8341, 8949, 9077, 9205, 9356, 9468, 9597, 9821, 10085, 10213, 10293, 10477, 10845, 12500, 12677, 12757, 12941, 13045, 13349, 13637, 13789, 13925, 14109, 14269, 14397, 14613, 14829, 15909, 16125, 16301, 16397, 16493, 16637, 16861, 16989, 17141, 17325, 17445, 17645, 18893, 19005, 19111, 19245, 19389, 19540, 19829], "trial_type": "free-recall", "conditions": [12, 1600, "a", 12000], "internal_node_id": "0.0-76.0-0.0", "key_presses": [77, 65, 73, 76, 66, 79, 88, 13, 70, 73, 76, 77, 13, 65, 67, 84, 79, 82, 13, 67, 72, 65, 77, 80, 65, 71, 78, 69, 13, 83, 78, 65, 75, 69, 13, 70, 76, 65, 83, 75, 13, 68, 82, 73, 78, 75, 13, 67, 85, 82, 84, 65, 73, 78, 13, 75, 78, 73, 70, 69, 13, 67, 79, 66, 82, 65, 13, 67, 72, 65, 80, 69, 76, 13], "trial": 2, "time_elapsed": 628229, "type": "FREE_RECALL", "trial_index": 103}, "uniqueid": "MTK2258:3PZDLQMM0USV66J601W2AKFLD9GC2J", "dateTime": 1516907059186}, {"current_trial": 104, "trialdata": {"rt": 2124, "trial_type": "text", "internal_node_id": "0.0-77.0", "time_elapsed": 632361, "key_press": 32, "type": "INSTRUCTIONS", "trial_index": 104}, "uniqueid": "MTK2258:3PZDLQMM0USV66J601W2AKFLD9GC2J", "dateTime": 1516907063316}, {"current_trial": 105, "trialdata": {"rt": [2997, 5213, 8253, 10132, 12253, 14196, 16028, 17822, 19540, 21619], "trial_type": "math-distractor", "key_times": [1989, 2405, 2997, 4693, 4933, 5213, 6677, 7703, 8253, 9629, 9869, 10132, 11597, 11940, 12253, 13957, 14196, 15285, 15804, 16028, 17509, 17684, 17822, 19132, 19260, 19540, 21196, 21308, 21619, 23646, 23756], "responses": ["19", "10", "23", "14", "19", "7", "14", "21", "16", "12"], "num2": [3, 3, 8, 6, 4, 3, 5, 6, 1, 6, 6], "num3": [9, 3, 7, 3, 8, 2, 5, 7, 8, 4, 6], "conditions": [12, 1600, "a", 24000], "internal_node_id": "0.0-78.0", "key_presses": [49, 57, 13, 49, 48, 13, 50, 51, 13, 49, 52, 13, 49, 57, 13, 55, 13, 49, 52, 13, 50, 49, 13, 49, 54, 13, 49, 50, 13, 50, 49], "trial": 3, "time_elapsed": 658368, "type": "DISTRACTOR", "trial_index": 105, "num1": [7, 4, 8, 5, 7, 2, 4, 8, 7, 2, 9]}, "uniqueid": "MTK2258:3PZDLQMM0USV66J601W2AKFLD9GC2J", "dateTime": 1516907089322}, {"current_trial": 106, "trialdata": {"rt": -1, "trial_type": "single-stim", "stimulus": "<p id=\"stim\">10</p>", "internal_node_id": "0.0-79.0-0.0", "time_elapsed": 661374, "key_press": -1, "trial_index": 106}, "uniqueid": "MTK2258:3PZDLQMM0USV66J601W2AKFLD9GC2J", "dateTime": 1516907092328}, {"current_trial": 107, "trialdata": {"rt": -1, "trial_type": "single-stim", "stimulus": "<p id=\"stim\">9</p>", "internal_node_id": "0.0-79.0-1.0", "time_elapsed": 662378, "key_press": -1, "trial_index": 107}, "uniqueid": "MTK2258:3PZDLQMM0USV66J601W2AKFLD9GC2J", "dateTime": 1516907093332}, {"current_trial": 108, "trialdata": {"rt": -1, "trial_type": "single-stim", "stimulus": "<p id=\"stim\">8</p>", "internal_node_id": "0.0-79.0-2.0", "time_elapsed": 663382, "key_press": -1, "trial_index": 108}, "uniqueid": "MTK2258:3PZDLQMM0USV66J601W2AKFLD9GC2J", "dateTime": 1516907094336}, {"current_trial": 109, "trialdata": {"rt": -1, "trial_type": "single-stim", "stimulus": "<p id=\"stim\">7</p>", "internal_node_id": "0.0-79.0-3.0", "time_elapsed": 664386, "key_press": -1, "trial_index": 109}, "uniqueid": "MTK2258:3PZDLQMM0USV66J601W2AKFLD9GC2J", "dateTime": 1516907095340}, {"current_trial": 110, "trialdata": {"rt": -1, "trial_type": "single-stim", "stimulus": "<p id=\"stim\">6</p>", "internal_node_id": "0.0-79.0-4.0", "time_elapsed": 665390, "key_press": -1, "trial_index": 110}, "uniqueid": "MTK2258:3PZDLQMM0USV66J601W2AKFLD9GC2J", "dateTime": 1516907096344}, {"current_trial": 111, "trialdata": {"rt": -1, "trial_type": "single-stim", "stimulus": "<p id=\"stim\">5</p>", "internal_node_id": "0.0-79.0-5.0", "time_elapsed": 666394, "key_press": -1, "trial_index": 111}, "uniqueid": "MTK2258:3PZDLQMM0USV66J601W2AKFLD9GC2J", "dateTime": 1516907097348}, {"current_trial": 112, "trialdata": {"rt": -1, "trial_type": "single-stim", "stimulus": "<p id=\"stim\">4</p>", "internal_node_id": "0.0-79.0-6.0", "time_elapsed": 667398, "key_press": -1, "trial_index": 112}, "uniqueid": "MTK2258:3PZDLQMM0USV66J601W2AKFLD9GC2J", "dateTime": 1516907098352}, {"current_trial": 113, "trialdata": {"rt": -1, "trial_type": "single-stim", "stimulus": "<p id=\"stim\">3</p>", "internal_node_id": "0.0-79.0-7.0", "time_elapsed": 668402, "key_press": -1, "trial_index": 113}, "uniqueid": "MTK2258:3PZDLQMM0USV66J601W2AKFLD9GC2J", "dateTime": 1516907099356}, {"current_trial": 114, "trialdata": {"rt": -1, "trial_type": "single-stim", "stimulus": "<p id=\"stim\">2</p>", "internal_node_id": "0.0-79.0-8.0", "time_elapsed": 669406, "key_press": -1, "trial_index": 114}, "uniqueid": "MTK2258:3PZDLQMM0USV66J601W2AKFLD9GC2J", "dateTime": 1516907100361}, {"current_trial": 115, "trialdata": {"rt": -1, "trial_type": "single-stim", "stimulus": "<p id=\"stim\">1</p>", "internal_node_id": "0.0-79.0-9.0", "time_elapsed": 670410, "key_press": -1, "trial_index": 115}, "uniqueid": "MTK2258:3PZDLQMM0USV66J601W2AKFLD9GC2J", "dateTime": 1516907101364}, {"current_trial": 116, "trialdata": {"rt": -1, "trial_type": "single-stim", "stimulus": "<p id=\"stim\">+</p>", "internal_node_id": "0.0-80.0-0.0", "time_elapsed": 671914, "key_press": -1, "type": "FIXATION", "trial_index": 116}, "uniqueid": "MTK2258:3PZDLQMM0USV66J601W2AKFLD9GC2J", "dateTime": 1516907102868}, {"current_trial": 117, "trialdata": {"rt": -1000, "trial_type": "single-audio", "word": "scotch", "stimulus": "/static/audio/wordpool/SCOTCH.wav", "conditions": [12, 1600, "a", 24000], "internal_node_id": "0.0-81.0", "trial": 3, "time_elapsed": 674563, "serialpos": 0, "key_press": -1, "wordID": 1250, "type": "PRES_AUD", "trial_index": 117}, "uniqueid": "MTK2258:3PZDLQMM0USV66J601W2AKFLD9GC2J", "dateTime": 1516907105518}, {"current_trial": 118, "trialdata": {"rt": -1000, "trial_type": "single-audio", "word": "milk", "stimulus": "/static/audio/wordpool/MILK.wav", "conditions": [12, 1600, "a", 24000], "internal_node_id": "0.0-82.0", "trial": 3, "time_elapsed": 677100, "serialpos": 1, "key_press": -1, "wordID": 894, "type": "PRES_AUD", "trial_index": 118}, "uniqueid": "MTK2258:3PZDLQMM0USV66J601W2AKFLD9GC2J", "dateTime": 1516907108054}, {"current_trial": 119, "trialdata": {"rt": -1000, "trial_type": "single-audio", "word": "arm", "stimulus": "/static/audio/wordpool/ARM.wav", "conditions": [12, 1600, "a", 24000], "internal_node_id": "0.0-83.0", "trial": 3, "time_elapsed": 679662, "serialpos": 2, "key_press": -1, "wordID": 37, "type": "PRES_AUD", "trial_index": 119}, "uniqueid": "MTK2258:3PZDLQMM0USV66J601W2AKFLD9GC2J", "dateTime": 1516907110616}, {"current_trial": 120, "trialdata": {"rt": -1000, "trial_type": "single-audio", "word": "missile", "stimulus": "/static/audio/wordpool/MISSILE.wav", "conditions": [12, 1600, "a", 24000], "internal_node_id": "0.0-84.0", "trial": 3, "time_elapsed": 682284, "serialpos": 3, "key_press": -1, "wordID": 899, "type": "PRES_AUD", "trial_index": 120}, "uniqueid": "MTK2258:3PZDLQMM0USV66J601W2AKFLD9GC2J", "dateTime": 1516907113238}, {"current_trial": 121, "trialdata": {"rt": -1000, "trial_type": "single-audio", "word": "eagle", "stimulus": "/static/audio/wordpool/EAGLE.wav", "conditions": [12, 1600, "a", 24000], "internal_node_id": "0.0-85.0", "trial": 3, "time_elapsed": 684768, "serialpos": 4, "key_press": -1, "wordID": 511, "type": "PRES_AUD", "trial_index": 121}, "uniqueid": "MTK2258:3PZDLQMM0USV66J601W2AKFLD9GC2J", "dateTime": 1516907115722}, {"current_trial": 122, "trialdata": {"rt": -1000, "trial_type": "single-audio", "word": "gavel", "stimulus": "/static/audio/wordpool/GAVEL.wav", "conditions": [12, 1600, "a", 24000], "internal_node_id": "0.0-86.0", "trial": 3, "time_elapsed": 687531, "serialpos": 5, "key_press": -1, "wordID": 626, "type": "PRES_AUD", "trial_index": 122}, "uniqueid": "MTK2258:3PZDLQMM0USV66J601W2AKFLD9GC2J", "dateTime": 1516907118486}, {"current_trial": 123, "trialdata": {"rt": -1000, "trial_type": "single-audio", "word": "shoulder", "stimulus": "/static/audio/wordpool/SHOULDER.wav", "conditions": [12, 1600, "a", 24000], "internal_node_id": "0.0-87.0", "trial": 3, "time_elapsed": 690289, "serialpos": 6, "key_press": -1, "wordID": 1293, "type": "PRES_AUD", "trial_index": 123}, "uniqueid": "MTK2258:3PZDLQMM0USV66J601W2AKFLD9GC2J", "dateTime": 1516907121243}, {"current_trial": 124, "trialdata": {"rt": -1000, "trial_type": "single-audio", "word": "grape", "stimulus": "/static/audio/wordpool/GRAPE.wav", "conditions": [12, 1600, "a", 24000], "internal_node_id": "0.0-88.0", "trial": 3, "time_elapsed": 692756, "serialpos": 7, "key_press": -1, "wordID": 653, "type": "PRES_AUD", "trial_index": 124}, "uniqueid": "MTK2258:3PZDLQMM0USV66J601W2AKFLD9GC2J", "dateTime": 1516907123710}, {"current_trial": 125, "trialdata": {"rt": -1000, "trial_type": "single-audio", "word": "table", "stimulus": "/static/audio/wordpool/TABLE.wav", "conditions": [12, 1600, "a", 24000], "internal_node_id": "0.0-89.0", "trial": 3, "time_elapsed": 695530, "serialpos": 8, "key_press": -1, "wordID": 1425, "type": "PRES_AUD", "trial_index": 125}, "uniqueid": "MTK2258:3PZDLQMM0USV66J601W2AKFLD9GC2J", "dateTime": 1516907126485}, {"current_trial": 126, "trialdata": {"rt": -1000, "trial_type": "single-audio", "word": "pliers", "stimulus": "/static/audio/wordpool/PLIERS.wav", "conditions": [12, 1600, "a", 24000], "internal_node_id": "0.0-90.0", "trial": 3, "time_elapsed": 698137, "serialpos": 9, "key_press": -1, "wordID": 1088, "type": "PRES_AUD", "trial_index": 126}, "uniqueid": "MTK2258:3PZDLQMM0USV66J601W2AKFLD9GC2J", "dateTime": 1516907129091}, {"current_trial": 127, "trialdata": {"rt": -1000, "trial_type": "single-audio", "word": "tweezers", "stimulus": "/static/audio/wordpool/TWEEZERS.wav", "conditions": [12, 1600, "a", 24000], "internal_node_id": "0.0-91.0", "trial": 3, "time_elapsed": 700575, "serialpos": 10, "key_press": -1, "wordID": 1525, "type": "PRES_AUD", "trial_index": 127}, "uniqueid": "MTK2258:3PZDLQMM0USV66J601W2AKFLD9GC2J", "dateTime": 1516907131529}, {"current_trial": 128, "trialdata": {"rt": -1000, "trial_type": "single-audio", "word": "lace", "stimulus": "/static/audio/wordpool/LACE.wav", "conditions": [12, 1600, "a", 24000], "internal_node_id": "0.0-92.0", "trial": 3, "time_elapsed": 702995, "serialpos": 11, "key_press": -1, "wordID": 791, "type": "PRES_AUD", "trial_index": 128}, "uniqueid": "MTK2258:3PZDLQMM0USV66J601W2AKFLD9GC2J", "dateTime": 1516907133950}, {"current_trial": 129, "trialdata": {"rt": -1, "trial_type": "single-stim", "stimulus": "", "internal_node_id": "0.0-93.0-0.0", "time_elapsed": 704368, "key_press": -1, "type": "PRE_RECALL_DELAY", "trial_index": 129}, "uniqueid": "MTK2258:3PZDLQMM0USV66J601W2AKFLD9GC2J", "dateTime": 1516907135322}, {"current_trial": 130, "trialdata": {"rt": -1000, "trial_type": "single-audio", "stimulus": "/static/audio/400Hz.wav", "internal_node_id": "0.0-94.0", "time_elapsed": 704870, "key_press": -1, "type": "PRE_RECALL_ALERT", "trial_index": 130}, "uniqueid": "MTK2258:3PZDLQMM0USV66J601W2AKFLD9GC2J", "dateTime": 1516907135824}, {"current_trial": 131, "trialdata": {"rt": [2639, 4183, 5007, 8175, 10071, 11415, 13495, 18278, 22670, 24671, 26334, 38470], "recwords": ["scotch", "milk", "arm", "missile", "eagle", "gavel", "table", "shoulder", "grape", "tweezers", "legs", "pliers"], "key_times": [1559, 1783, 1959, 2135, 2351, 2430, 2639, 3287, 3519, 3727, 3903, 4183, 4455, 4607, 4719, 5007, 5983, 6190, 6195, 6359, 6863, 7039, 7183, 7446, 7631, 7846, 7990, 8175, 9406, 9518, 9655, 9759, 9855, 10071, 10327, 10455, 10639, 10814, 11135, 11415, 12736, 12854, 13031, 13159, 13278, 13495, 17175, 17285, 17438, 17590, 17807, 17919, 18079, 18135, 18278, 21647, 21855, 21974, 22078, 22214, 22670, 23120, 23206, 23302, 23454, 23734, 24062, 24151, 24254, 24671, 25791, 25870, 26045, 26173, 26334, 37528, 37710, 37918, 38014, 38102, 38222, 38470], "trial_type": "free-recall", "conditions": [12, 1600, "a", 24000], "internal_node_id": "0.0-95.0-0.0", "key_presses": [83, 67, 79, 84, 67, 72, 13, 77, 73, 76, 75, 13, 65, 82, 77, 13, 77, 73, 79, 83, 8, 8, 83, 83, 73, 76, 69, 13, 69, 65, 71, 76, 69, 13, 71, 65, 86, 69, 76, 13, 84, 65, 66, 76, 69, 13, 83, 72, 79, 85, 76, 68, 69, 82, 13, 71, 82, 65, 80, 69, 13, 84, 87, 69, 69, 90, 69, 82, 83, 13, 76, 69, 71, 83, 13, 80, 76, 73, 69, 82, 83, 13], "trial": 3, "time_elapsed": 764875, "type": "FREE_RECALL", "trial_index": 131}, "uniqueid": "MTK2258:3PZDLQMM0USV66J601W2AKFLD9GC2J", "dateTime": 1516907195832}, {"current_trial": 132, "trialdata": {"rt": 1149, "trial_type": "text", "internal_node_id": "0.0-96.0", "time_elapsed": 768031, "key_press": 32, "type": "INSTRUCTIONS", "trial_index": 132}, "uniqueid": "MTK2258:3PZDLQMM0USV66J601W2AKFLD9GC2J", "dateTime": 1516907198985}, {"current_trial": 133, "trialdata": {"rt": [1879, 3583, 6383, 7863, 9087, 11070, 12887, 16119, 18375, 20111, 22622], "trial_type": "math-distractor", "key_times": [1576, 1879, 3303, 3583, 5679, 5903, 6383, 7535, 7655, 7863, 8760, 8887, 9087, 10863, 10927, 11070, 12543, 12719, 12887, 15135, 15887, 16119, 17671, 18191, 18375, 19440, 19919, 20111, 22295, 22471, 22622], "responses": ["9", "9", "15", "17", "12", "12", "18", "25", "19", "16", "12"], "num2": [4, 1, 2, 7, 8, 8, 3, 8, 7, 6, 7, 8], "num3": [4, 7, 9, 4, 2, 1, 9, 9, 9, 1, 4, 3], "conditions": [24, 1600, "a", 24000], "internal_node_id": "0.0-97.0", "key_presses": [57, 13, 57, 13, 49, 53, 13, 49, 55, 13, 49, 50, 13, 49, 50, 13, 49, 56, 13, 50, 53, 13, 49, 57, 13, 49, 54, 13, 49, 50, 13], "trial": 4, "time_elapsed": 794042, "type": "DISTRACTOR", "trial_index": 133, "num1": [1, 1, 4, 6, 2, 3, 6, 8, 3, 9, 1, 4]}, "uniqueid": "MTK2258:3PZDLQMM0USV66J601W2AKFLD9GC2J", "dateTime": 1516907224996}, {"current_trial": 134, "trialdata": {"rt": -1, "trial_type": "single-stim", "stimulus": "<p id=\"stim\">10</p>", "internal_node_id": "0.0-98.0-0.0", "time_elapsed": 797048, "key_press": -1, "trial_index": 134}, "uniqueid": "MTK2258:3PZDLQMM0USV66J601W2AKFLD9GC2J", "dateTime": 1516907228002}, {"current_trial": 135, "trialdata": {"rt": -1, "trial_type": "single-stim", "stimulus": "<p id=\"stim\">9</p>", "internal_node_id": "0.0-98.0-1.0", "time_elapsed": 798052, "key_press": -1, "trial_index": 135}, "uniqueid": "MTK2258:3PZDLQMM0USV66J601W2AKFLD9GC2J", "dateTime": 1516907229006}, {"current_trial": 136, "trialdata": {"rt": -1, "trial_type": "single-stim", "stimulus": "<p id=\"stim\">8</p>", "internal_node_id": "0.0-98.0-2.0", "time_elapsed": 799056, "key_press": -1, "trial_index": 136}, "uniqueid": "MTK2258:3PZDLQMM0USV66J601W2AKFLD9GC2J", "dateTime": 1516907230010}, {"current_trial": 137, "trialdata": {"rt": -1, "trial_type": "single-stim", "stimulus": "<p id=\"stim\">7</p>", "internal_node_id": "0.0-98.0-3.0", "time_elapsed": 800060, "key_press": -1, "trial_index": 137}, "uniqueid": "MTK2258:3PZDLQMM0USV66J601W2AKFLD9GC2J", "dateTime": 1516907231016}, {"current_trial": 138, "trialdata": {"rt": -1, "trial_type": "single-stim", "stimulus": "<p id=\"stim\">6</p>", "internal_node_id": "0.0-98.0-4.0", "time_elapsed": 801064, "key_press": -1, "trial_index": 138}, "uniqueid": "MTK2258:3PZDLQMM0USV66J601W2AKFLD9GC2J", "dateTime": 1516907232018}, {"current_trial": 139, "trialdata": {"rt": -1, "trial_type": "single-stim", "stimulus": "<p id=\"stim\">5</p>", "internal_node_id": "0.0-98.0-5.0", "time_elapsed": 802068, "key_press": -1, "trial_index": 139}, "uniqueid": "MTK2258:3PZDLQMM0USV66J601W2AKFLD9GC2J", "dateTime": 1516907233022}, {"current_trial": 140, "trialdata": {"rt": -1, "trial_type": "single-stim", "stimulus": "<p id=\"stim\">4</p>", "internal_node_id": "0.0-98.0-6.0", "time_elapsed": 803072, "key_press": -1, "trial_index": 140}, "uniqueid": "MTK2258:3PZDLQMM0USV66J601W2AKFLD9GC2J", "dateTime": 1516907234026}, {"current_trial": 141, "trialdata": {"rt": -1, "trial_type": "single-stim", "stimulus": "<p id=\"stim\">3</p>", "internal_node_id": "0.0-98.0-7.0", "time_elapsed": 804076, "key_press": -1, "trial_index": 141}, "uniqueid": "MTK2258:3PZDLQMM0USV66J601W2AKFLD9GC2J", "dateTime": 1516907235030}, {"current_trial": 142, "trialdata": {"rt": -1, "trial_type": "single-stim", "stimulus": "<p id=\"stim\">2</p>", "internal_node_id": "0.0-98.0-8.0", "time_elapsed": 805080, "key_press": -1, "trial_index": 142}, "uniqueid": "MTK2258:3PZDLQMM0USV66J601W2AKFLD9GC2J", "dateTime": 1516907236034}, {"current_trial": 143, "trialdata": {"rt": -1, "trial_type": "single-stim", "stimulus": "<p id=\"stim\">1</p>", "internal_node_id": "0.0-98.0-9.0", "time_elapsed": 806084, "key_press": -1, "trial_index": 143}, "uniqueid": "MTK2258:3PZDLQMM0USV66J601W2AKFLD9GC2J", "dateTime": 1516907237039}, {"current_trial": 144, "trialdata": {"rt": -1, "trial_type": "single-stim", "stimulus": "<p id=\"stim\">+</p>", "internal_node_id": "0.0-99.0-0.0", "time_elapsed": 807588, "key_press": -1, "type": "FIXATION", "trial_index": 144}, "uniqueid": "MTK2258:3PZDLQMM0USV66J601W2AKFLD9GC2J", "dateTime": 1516907238542}, {"current_trial": 145, "trialdata": {"rt": -1000, "trial_type": "single-audio", "word": "widow", "stimulus": "/static/audio/wordpool/WIDOW.wav", "conditions": [24, 1600, "a", 24000], "internal_node_id": "0.0-100.0", "trial": 4, "time_elapsed": 810266, "serialpos": 0, "key_press": -1, "wordID": 1607, "type": "PRES_AUD", "trial_index": 145}, "uniqueid": "MTK2258:3PZDLQMM0USV66J601W2AKFLD9GC2J", "dateTime": 1516907241220}, {"current_trial": 146, "trialdata": {"rt": -1000, "trial_type": "single-audio", "word": "spool", "stimulus": "/static/audio/wordpool/SPOOL.wav", "conditions": [24, 1600, "a", 24000], "internal_node_id": "0.0-101.0", "trial": 4, "time_elapsed": 813047, "serialpos": 1, "key_press": -1, "wordID": 1355, "type": "PRES_AUD", "trial_index": 146}, "uniqueid": "MTK2258:3PZDLQMM0USV66J601W2AKFLD9GC2J", "dateTime": 1516907244001}, {"current_trial": 147, "trialdata": {"rt": -1000, "trial_type": "single-audio", "word": "lamp", "stimulus": "/static/audio/wordpool/LAMP.wav", "conditions": [24, 1600, "a", 24000], "internal_node_id": "0.0-102.0", "trial": 4, "time_elapsed": 815722, "serialpos": 2, "key_press": -1, "wordID": 797, "type": "PRES_AUD", "trial_index": 147}, "uniqueid": "MTK2258:3PZDLQMM0USV66J601W2AKFLD9GC2J", "dateTime": 1516907246677}, {"current_trial": 148, "trialdata": {"rt": -1000, "trial_type": "single-audio", "word": "glass", "stimulus": "/static/audio/wordpool/GLASS.wav", "conditions": [24, 1600, "a", 24000], "internal_node_id": "0.0-103.0", "trial": 4, "time_elapsed": 818277, "serialpos": 3, "key_press": -1, "wordID": 638, "type": "PRES_AUD", "trial_index": 148}, "uniqueid": "MTK2258:3PZDLQMM0USV66J601W2AKFLD9GC2J", "dateTime": 1516907249231}, {"current_trial": 149, "trialdata": {"rt": -1000, "trial_type": "single-audio", "word": "convict", "stimulus": "/static/audio/wordpool/CONVICT.wav", "conditions": [24, 1600, "a", 24000], "internal_node_id": "0.0-104.0", "trial": 4, "time_elapsed": 820866, "serialpos": 4, "key_press": -1, "wordID": 370, "type": "PRES_AUD", "trial_index": 149}, "uniqueid": "MTK2258:3PZDLQMM0USV66J601W2AKFLD9GC2J", "dateTime": 1516907251820}, {"current_trial": 150, "trialdata": {"rt": -1000, "trial_type": "single-audio", "word": "suspect", "stimulus": "/static/audio/wordpool/SUSPECT.wav", "conditions": [24, 1600, "a", 24000], "internal_node_id": "0.0-105.0", "trial": 4, "time_elapsed": 823292, "serialpos": 5, "key_press": -1, "wordID": 1414, "type": "PRES_AUD", "trial_index": 150}, "uniqueid": "MTK2258:3PZDLQMM0USV66J601W2AKFLD9GC2J", "dateTime": 1516907254246}, {"current_trial": 151, "trialdata": {"rt": -1000, "trial_type": "single-audio", "word": "transplant", "stimulus": "/static/audio/wordpool/TRANSPLANT.wav", "conditions": [24, 1600, "a", 24000], "internal_node_id": "0.0-106.0", "trial": 4, "time_elapsed": 826038, "serialpos": 6, "key_press": -1, "wordID": 1495, "type": "PRES_AUD", "trial_index": 151}, "uniqueid": "MTK2258:3PZDLQMM0USV66J601W2AKFLD9GC2J", "dateTime": 1516907256992}, {"current_trial": 152, "trialdata": {"rt": -1000, "trial_type": "single-audio", "word": "robber", "stimulus": "/static/audio/wordpool/ROBBER.wav", "conditions": [24, 1600, "a", 24000], "internal_node_id": "0.0-107.0", "trial": 4, "time_elapsed": 828723, "serialpos": 7, "key_press": -1, "wordID": 1196, "type": "PRES_AUD", "trial_index": 152}, "uniqueid": "MTK2258:3PZDLQMM0USV66J601W2AKFLD9GC2J", "dateTime": 1516907259678}, {"current_trial": 153, "trialdata": {"rt": -1000, "trial_type": "single-audio", "word": "leg", "stimulus": "/static/audio/wordpool/LEG.wav", "conditions": [24, 1600, "a", 24000], "internal_node_id": "0.0-108.0", "trial": 4, "time_elapsed": 831367, "serialpos": 8, "key_press": -1, "wordID": 808, "type": "PRES_AUD", "trial_index": 153}, "uniqueid": "MTK2258:3PZDLQMM0USV66J601W2AKFLD9GC2J", "dateTime": 1516907262321}, {"current_trial": 154, "trialdata": {"rt": -1000, "trial_type": "single-audio", "word": "wrist", "stimulus": "/static/audio/wordpool/WRIST.wav", "conditions": [24, 1600, "a", 24000], "internal_node_id": "0.0-109.0", "trial": 4, "time_elapsed": 833973, "serialpos": 9, "key_press": -1, "wordID": 1625, "type": "PRES_AUD", "trial_index": 154}, "uniqueid": "MTK2258:3PZDLQMM0USV66J601W2AKFLD9GC2J", "dateTime": 1516907264927}, {"current_trial": 155, "trialdata": {"rt": -1000, "trial_type": "single-audio", "word": "rod", "stimulus": "/static/audio/wordpool/ROD.wav", "conditions": [24, 1600, "a", 24000], "internal_node_id": "0.0-110.0", "trial": 4, "time_elapsed": 836544, "serialpos": 10, "key_press": -1, "wordID": 1202, "type": "PRES_AUD", "trial_index": 155}, "uniqueid": "MTK2258:3PZDLQMM0USV66J601W2AKFLD9GC2J", "dateTime": 1516907267499}, {"current_trial": 156, "trialdata": {"rt": -1000, "trial_type": "single-audio", "word": "salt", "stimulus": "/static/audio/wordpool/SALT.wav", "conditions": [24, 1600, "a", 24000], "internal_node_id": "0.0-111.0", "trial": 4, "time_elapsed": 839244, "serialpos": 11, "key_press": -1, "wordID": 1228, "type": "PRES_AUD", "trial_index": 156}, "uniqueid": "MTK2258:3PZDLQMM0USV66J601W2AKFLD9GC2J", "dateTime": 1516907270198}, {"current_trial": 157, "trialdata": {"rt": -1000, "trial_type": "single-audio", "word": "pork", "stimulus": "/static/audio/wordpool/PORK.wav", "conditions": [24, 1600, "a", 24000], "internal_node_id": "0.0-112.0", "trial": 4, "time_elapsed": 841961, "serialpos": 12, "key_press": -1, "wordID": 1107, "type": "PRES_AUD", "trial_index": 157}, "uniqueid": "MTK2258:3PZDLQMM0USV66J601W2AKFLD9GC2J", "dateTime": 1516907272915}, {"current_trial": 158, "trialdata": {"rt": -1000, "trial_type": "single-audio", "word": "headband", "stimulus": "/static/audio/wordpool/HEADBAND.wav", "conditions": [24, 1600, "a", 24000], "internal_node_id": "0.0-113.0", "trial": 4, "time_elapsed": 844440, "serialpos": 13, "key_press": -1, "wordID": 695, "type": "PRES_AUD", "trial_index": 158}, "uniqueid": "MTK2258:3PZDLQMM0USV66J601W2AKFLD9GC2J", "dateTime": 1516907275394}, {"current_trial": 159, "trialdata": {"rt": -1000, "trial_type": "single-audio", "word": "bouquet", "stimulus": "/static/audio/wordpool/BOUQUET.wav", "conditions": [24, 1600, "a", 24000], "internal_node_id": "0.0-114.0", "trial": 4, "time_elapsed": 847121, "serialpos": 14, "key_press": -1, "wordID": 156, "type": "PRES_AUD", "trial_index": 159}, "uniqueid": "MTK2258:3PZDLQMM0USV66J601W2AKFLD9GC2J", "dateTime": 1516907278075}, {"current_trial": 160, "trialdata": {"rt": -1000, "trial_type": "single-audio", "word": "patient", "stimulus": "/static/audio/wordpool/PATIENT.wav", "conditions": [24, 1600, "a", 24000], "internal_node_id": "0.0-115.0", "trial": 4, "time_elapsed": 849843, "serialpos": 15, "key_press": -1, "wordID": 1023, "type": "PRES_AUD", "trial_index": 160}, "uniqueid": "MTK2258:3PZDLQMM0USV66J601W2AKFLD9GC2J", "dateTime": 1516907280797}, {"current_trial": 161, "trialdata": {"rt": -1000, "trial_type": "single-audio", "word": "typist", "stimulus": "/static/audio/wordpool/TYPIST.wav", "conditions": [24, 1600, "a", 24000], "internal_node_id": "0.0-116.0", "trial": 4, "time_elapsed": 852392, "serialpos": 16, "key_press": -1, "wordID": 1531, "type": "PRES_AUD", "trial_index": 161}, "uniqueid": "MTK2258:3PZDLQMM0USV66J601W2AKFLD9GC2J", "dateTime": 1516907283346}, {"current_trial": 162, "trialdata": {"rt": -1000, "trial_type": "single-audio", "word": "scarecrow", "stimulus": "/static/audio/wordpool/SCARECROW.wav", "conditions": [24, 1600, "a", 24000], "internal_node_id": "0.0-117.0", "trial": 4, "time_elapsed": 855172, "serialpos": 17, "key_press": -1, "wordID": 1244, "type": "PRES_AUD", "trial_index": 162}, "uniqueid": "MTK2258:3PZDLQMM0USV66J601W2AKFLD9GC2J", "dateTime": 1516907286126}, {"current_trial": 163, "trialdata": {"rt": -1000, "trial_type": "single-audio", "word": "palace", "stimulus": "/static/audio/wordpool/PALACE.wav", "conditions": [24, 1600, "a", 24000], "internal_node_id": "0.0-118.0", "trial": 4, "time_elapsed": 857575, "serialpos": 18, "key_press": -1, "wordID": 1005, "type": "PRES_AUD", "trial_index": 163}, "uniqueid": "MTK2258:3PZDLQMM0USV66J601W2AKFLD9GC2J", "dateTime": 1516907288530}, {"current_trial": 164, "trialdata": {"rt": -1000, "trial_type": "single-audio", "word": "tombstone", "stimulus": "/static/audio/wordpool/TOMBSTONE.wav", "conditions": [24, 1600, "a", 24000], "internal_node_id": "0.0-119.0", "trial": 4, "time_elapsed": 860217, "serialpos": 19, "key_press": -1, "wordID": 1477, "type": "PRES_AUD", "trial_index": 164}, "uniqueid": "MTK2258:3PZDLQMM0USV66J601W2AKFLD9GC2J", "dateTime": 1516907291171}, {"current_trial": 165, "trialdata": {"rt": -1000, "trial_type": "single-audio", "word": "statue", "stimulus": "/static/audio/wordpool/STATUE.wav", "conditions": [24, 1600, "a", 24000], "internal_node_id": "0.0-120.0", "trial": 4, "time_elapsed": 862899, "serialpos": 20, "key_press": -1, "wordID": 1373, "type": "PRES_AUD", "trial_index": 165}, "uniqueid": "MTK2258:3PZDLQMM0USV66J601W2AKFLD9GC2J", "dateTime": 1516907293853}, {"current_trial": 166, "trialdata": {"rt": -1000, "trial_type": "single-audio", "word": "forest", "stimulus": "/static/audio/wordpool/FOREST.wav", "conditions": [24, 1600, "a", 24000], "internal_node_id": "0.0-121.0", "trial": 4, "time_elapsed": 865662, "serialpos": 21, "key_press": -1, "wordID": 592, "type": "PRES_AUD", "trial_index": 166}, "uniqueid": "MTK2258:3PZDLQMM0USV66J601W2AKFLD9GC2J", "dateTime": 1516907296616}, {"current_trial": 167, "trialdata": {"rt": -1000, "trial_type": "single-audio", "word": "nurse", "stimulus": "/static/audio/wordpool/NURSE.wav", "conditions": [24, 1600, "a", 24000], "internal_node_id": "0.0-122.0", "trial": 4, "time_elapsed": 868227, "serialpos": 22, "key_press": -1, "wordID": 962, "type": "PRES_AUD", "trial_index": 167}, "uniqueid": "MTK2258:3PZDLQMM0USV66J601W2AKFLD9GC2J", "dateTime": 1516907299181}, {"current_trial": 168, "trialdata": {"rt": -1000, "trial_type": "single-audio", "word": "cocoon", "stimulus": "/static/audio/wordpool/COCOON.wav", "conditions": [24, 1600, "a", 24000], "internal_node_id": "0.0-123.0", "trial": 4, "time_elapsed": 870932, "serialpos": 23, "key_press": -1, "wordID": 338, "type": "PRES_AUD", "trial_index": 168}, "uniqueid": "MTK2258:3PZDLQMM0USV66J601W2AKFLD9GC2J", "dateTime": 1516907301887}, {"current_trial": 169, "trialdata": {"rt": -1, "trial_type": "single-stim", "stimulus": "", "internal_node_id": "0.0-124.0-0.0", "time_elapsed": 872204, "key_press": -1, "type": "PRE_RECALL_DELAY", "trial_index": 169}, "uniqueid": "MTK2258:3PZDLQMM0USV66J601W2AKFLD9GC2J", "dateTime": 1516907303158}, {"current_trial": 170, "trialdata": {"rt": -1000, "trial_type": "single-audio", "stimulus": "/static/audio/400Hz.wav", "internal_node_id": "0.0-125.0", "time_elapsed": 872705, "key_press": -1, "type": "PRE_RECALL_ALERT", "trial_index": 170}, "uniqueid": "MTK2258:3PZDLQMM0USV66J601W2AKFLD9GC2J", "dateTime": 1516907303660}, {"current_trial": 171, "trialdata": {"rt": [2430, 3742, 4950, 7031, 8366, 11006, 13894, 16550, 19414, 22694, 24671, 26374, 27661, 29214, 30909, 31918, 34366, 36678, 39798, 41485, 42310, 44902, 49045, 50669, 52166], "recwords": ["cocoon", "statue", "forest", "patient", "typist", "scarecrow", "palace", "tombstone", "convict", "transplant", "suspect", "glass", "widow", "spool", "lamp", "wrist", "fork", "headband", "bouquet", "salt", "leg", "transplant", "robber", "rod", "suspect"], "key_times": [776, 1135, 1478, 1807, 1975, 2151, 2430, 2871, 3111, 3207, 3327, 3486, 3598, 3742, 3991, 4119, 4231, 4445, 4591, 4743, 4950, 5998, 6127, 6239, 6406, 6518, 6662, 6823, 7031, 7503, 7719, 7807, 8015, 8110, 8230, 8366, 9199, 9374, 9518, 9638, 9703, 9878, 10295, 10349, 10566, 10677, 10781, 11006, 12215, 12358, 12582, 12671, 12799, 13062, 13542, 13686, 13894, 15175, 15270, 15437, 15527, 15718, 16022, 16134, 16286, 16398, 16550, 17367, 18342, 18565, 18807, 18918, 19015, 19254, 19414, 21111, 21270, 21550, 21711, 21798, 21966, 22230, 22342, 22462, 22582, 22694, 23510, 23798, 23950, 24046, 24167, 24326, 24558, 24671, 25630, 25758, 25870, 25934, 26150, 26374, 27022, 27190, 27286, 27422, 27526, 27661, 28334, 28462, 28661, 28782, 28950, 29214, 30278, 30373, 30502, 30654, 30909, 31215, 31357, 31526, 31639, 31782, 31918, 33838, 33910, 34022, 34142, 34366, 35302, 35366, 35517, 35742, 35966, 36109, 36246, 36438, 36678, 37446, 37830, 38038, 38166, 38390, 38798, 38944, 39082, 39238, 39358, 39582, 39798, 40934, 41101, 41174, 41351, 41485, 41918, 42022, 42181, 42310, 42614, 42750, 42870, 42990, 43086, 43270, 43534, 43685, 43838, 44014, 44902, 46318, 46374, 46493, 47126, 47254, 47501, 47633, 48094, 48197, 48309, 48413, 48716, 48773, 49045, 50302, 50366, 50486, 50669, 51126, 51261, 51382, 51534, 51621, 51806, 52038, 52166], "trial_type": "free-recall", "conditions": [24, 1600, "a", 24000], "internal_node_id": "0.0-126.0-0.0", "key_presses": [67, 79, 67, 79, 79, 78, 13, 83, 84, 65, 84, 85, 69, 13, 70, 79, 82, 69, 83, 84, 13, 80, 65, 84, 73, 69, 78, 84, 13, 84, 89, 80, 73, 83, 84, 13, 83, 67, 65, 82, 69, 70, 8, 67, 82, 79, 87, 13, 80, 65, 76, 65, 67, 65, 8, 69, 13, 84, 79, 77, 66, 83, 84, 79, 78, 69, 13, 67, 79, 78, 86, 73, 67, 84, 13, 84, 82, 65, 78, 83, 80, 76, 65, 78, 84, 13, 83, 85, 83, 80, 69, 67, 84, 13, 71, 76, 65, 83, 83, 13, 87, 73, 68, 79, 87, 13, 83, 80, 79, 79, 76, 13, 76, 65, 77, 80, 13, 87, 82, 73, 83, 84, 13, 70, 79, 82, 75, 13, 72, 69, 65, 68, 66, 65, 78, 68, 13, 66, 79, 85, 71, 81, 8, 8, 81, 85, 69, 84, 13, 83, 65, 76, 84, 13, 76, 69, 71, 13, 84, 82, 65, 78, 83, 80, 76, 65, 78, 84, 13, 83, 85, 83, 8, 8, 8, 8, 82, 79, 66, 66, 69, 82, 13, 82, 79, 68, 13, 83, 85, 83, 80, 69, 67, 84, 13], "trial": 4, "time_elapsed": 932710, "type": "FREE_RECALL", "trial_index": 171}, "uniqueid": "MTK2258:3PZDLQMM0USV66J601W2AKFLD9GC2J", "dateTime": 1516907363669}, {"current_trial": 172, "trialdata": {"rt": 2021, "trial_type": "text", "internal_node_id": "0.0-127.0", "time_elapsed": 936739, "key_press": 32, "type": "INSTRUCTIONS", "trial_index": 172}, "uniqueid": "MTK2258:3PZDLQMM0USV66J601W2AKFLD9GC2J", "dateTime": 1516907367693}, {"current_trial": 173, "trialdata": {"rt": [2222, 4254, 6406, 7886, 11382], "trial_type": "math-distractor", "key_times": [1502, 1942, 2222, 3798, 4103, 4254, 6070, 6270, 6406, 7558, 7758, 7886, 11207, 11270, 11382], "responses": ["21", "10", "18", "18", "21"], "num2": [8, 2, 4, 7, 5, 8], "num3": [5, 6, 5, 4, 7, 8], "conditions": [24, 800, "a", 12000], "internal_node_id": "0.0-128.0", "key_presses": [50, 49, 13, 49, 48, 13, 49, 56, 13, 49, 56, 13, 50, 49, 13], "trial": 5, "time_elapsed": 950752, "type": "DISTRACTOR", "trial_index": 173, "num1": [8, 2, 9, 7, 9, 8]}, "uniqueid": "MTK2258:3PZDLQMM0USV66J601W2AKFLD9GC2J", "dateTime": 1516907381706}, {"current_trial": 174, "trialdata": {"rt": -1, "trial_type": "single-stim", "stimulus": "<p id=\"stim\">10</p>", "internal_node_id": "0.0-129.0-0.0", "time_elapsed": 953760, "key_press": -1, "trial_index": 174}, "uniqueid": "MTK2258:3PZDLQMM0USV66J601W2AKFLD9GC2J", "dateTime": 1516907384714}, {"current_trial": 175, "trialdata": {"rt": -1, "trial_type": "single-stim", "stimulus": "<p id=\"stim\">9</p>", "internal_node_id": "0.0-129.0-1.0", "time_elapsed": 954764, "key_press": -1, "trial_index": 175}, "uniqueid": "MTK2258:3PZDLQMM0USV66J601W2AKFLD9GC2J", "dateTime": 1516907385718}, {"current_trial": 176, "trialdata": {"rt": -1, "trial_type": "single-stim", "stimulus": "<p id=\"stim\">8</p>", "internal_node_id": "0.0-129.0-2.0", "time_elapsed": 955768, "key_press": -1, "trial_index": 176}, "uniqueid": "MTK2258:3PZDLQMM0USV66J601W2AKFLD9GC2J", "dateTime": 1516907386722}, {"current_trial": 177, "trialdata": {"rt": -1, "trial_type": "single-stim", "stimulus": "<p id=\"stim\">7</p>", "internal_node_id": "0.0-129.0-3.0", "time_elapsed": 956772, "key_press": -1, "trial_index": 177}, "uniqueid": "MTK2258:3PZDLQMM0USV66J601W2AKFLD9GC2J", "dateTime": 1516907387727}, {"current_trial": 178, "trialdata": {"rt": -1, "trial_type": "single-stim", "stimulus": "<p id=\"stim\">6</p>", "internal_node_id": "0.0-129.0-4.0", "time_elapsed": 957778, "key_press": -1, "trial_index": 178}, "uniqueid": "MTK2258:3PZDLQMM0USV66J601W2AKFLD9GC2J", "dateTime": 1516907388732}, {"current_trial": 179, "trialdata": {"rt": -1, "trial_type": "single-stim", "stimulus": "<p id=\"stim\">5</p>", "internal_node_id": "0.0-129.0-5.0", "time_elapsed": 958780, "key_press": -1, "trial_index": 179}, "uniqueid": "MTK2258:3PZDLQMM0USV66J601W2AKFLD9GC2J", "dateTime": 1516907389735}, {"current_trial": 180, "trialdata": {"rt": -1, "trial_type": "single-stim", "stimulus": "<p id=\"stim\">4</p>", "internal_node_id": "0.0-129.0-6.0", "time_elapsed": 959784, "key_press": -1, "trial_index": 180}, "uniqueid": "MTK2258:3PZDLQMM0USV66J601W2AKFLD9GC2J", "dateTime": 1516907390739}, {"current_trial": 181, "trialdata": {"rt": -1, "trial_type": "single-stim", "stimulus": "<p id=\"stim\">3</p>", "internal_node_id": "0.0-129.0-7.0", "time_elapsed": 960788, "key_press": -1, "trial_index": 181}, "uniqueid": "MTK2258:3PZDLQMM0USV66J601W2AKFLD9GC2J", "dateTime": 1516907391743}, {"current_trial": 182, "trialdata": {"rt": -1, "trial_type": "single-stim", "stimulus": "<p id=\"stim\">2</p>", "internal_node_id": "0.0-129.0-8.0", "time_elapsed": 961793, "key_press": -1, "trial_index": 182}, "uniqueid": "MTK2258:3PZDLQMM0USV66J601W2AKFLD9GC2J", "dateTime": 1516907392747}, {"current_trial": 183, "trialdata": {"rt": -1, "trial_type": "single-stim", "stimulus": "<p id=\"stim\">1</p>", "internal_node_id": "0.0-129.0-9.0", "time_elapsed": 962797, "key_press": -1, "trial_index": 183}, "uniqueid": "MTK2258:3PZDLQMM0USV66J601W2AKFLD9GC2J", "dateTime": 1516907393751}, {"current_trial": 184, "trialdata": {"rt": -1, "trial_type": "single-stim", "stimulus": "<p id=\"stim\">+</p>", "internal_node_id": "0.0-130.0-0.0", "time_elapsed": 964300, "key_press": -1, "type": "FIXATION", "trial_index": 184}, "uniqueid": "MTK2258:3PZDLQMM0USV66J601W2AKFLD9GC2J", "dateTime": 1516907395257}, {"current_trial": 185, "trialdata": {"rt": -1000, "trial_type": "single-audio", "word": "flashlight", "stimulus": "/static/audio/wordpool/FLASHLIGHT.wav", "conditions": [24, 800, "a", 12000], "internal_node_id": "0.0-131.0", "trial": 5, "time_elapsed": 966087, "serialpos": 0, "key_press": -1, "wordID": 574, "type": "PRES_AUD", "trial_index": 185}, "uniqueid": "MTK2258:3PZDLQMM0USV66J601W2AKFLD9GC2J", "dateTime": 1516907397041}, {"current_trial": 186, "trialdata": {"rt": -1000, "trial_type": "single-audio", "word": "dorm", "stimulus": "/static/audio/wordpool/DORM.wav", "conditions": [24, 800, "a", 12000], "internal_node_id": "0.0-132.0", "trial": 5, "time_elapsed": 967753, "serialpos": 1, "key_press": -1, "wordID": 487, "type": "PRES_AUD", "trial_index": 186}, "uniqueid": "MTK2258:3PZDLQMM0USV66J601W2AKFLD9GC2J", "dateTime": 1516907398707}, {"current_trial": 187, "trialdata": {"rt": -1000, "trial_type": "single-audio", "word": "banquet", "stimulus": "/static/audio/wordpool/BANQUET.wav", "conditions": [24, 800, "a", 12000], "internal_node_id": "0.0-133.0", "trial": 5, "time_elapsed": 969663, "serialpos": 2, "key_press": -1, "wordID": 85, "type": "PRES_AUD", "trial_index": 187}, "uniqueid": "MTK2258:3PZDLQMM0USV66J601W2AKFLD9GC2J", "dateTime": 1516907400617}, {"current_trial": 188, "trialdata": {"rt": -1000, "trial_type": "single-audio", "word": "citrus", "stimulus": "/static/audio/wordpool/CITRUS.wav", "conditions": [24, 800, "a", 12000], "internal_node_id": "0.0-134.0", "trial": 5, "time_elapsed": 971372, "serialpos": 3, "key_press": -1, "wordID": 312, "type": "PRES_AUD", "trial_index": 188}, "uniqueid": "MTK2258:3PZDLQMM0USV66J601W2AKFLD9GC2J", "dateTime": 1516907402326}, {"current_trial": 189, "trialdata": {"rt": -1000, "trial_type": "single-audio", "word": "ghetto", "stimulus": "/static/audio/wordpool/GHETTO.wav", "conditions": [24, 800, "a", 12000], "internal_node_id": "0.0-135.0", "trial": 5, "time_elapsed": 973146, "serialpos": 4, "key_press": -1, "wordID": 632, "type": "PRES_AUD", "trial_index": 189}, "uniqueid": "MTK2258:3PZDLQMM0USV66J601W2AKFLD9GC2J", "dateTime": 1516907404100}, {"current_trial": 190, "trialdata": {"rt": -1000, "trial_type": "single-audio", "word": "custard", "stimulus": "/static/audio/wordpool/CUSTARD.wav", "conditions": [24, 800, "a", 12000], "internal_node_id": "0.0-136.0", "trial": 5, "time_elapsed": 974846, "serialpos": 5, "key_press": -1, "wordID": 428, "type": "PRES_AUD", "trial_index": 190}, "uniqueid": "MTK2258:3PZDLQMM0USV66J601W2AKFLD9GC2J", "dateTime": 1516907405801}, {"current_trial": 191, "trialdata": {"rt": -1000, "trial_type": "single-audio", "word": "sausage", "stimulus": "/static/audio/wordpool/SAUSAGE.wav", "conditions": [24, 800, "a", 12000], "internal_node_id": "0.0-137.0", "trial": 5, "time_elapsed": 976582, "serialpos": 6, "key_press": -1, "wordID": 1237, "type": "PRES_AUD", "trial_index": 191}, "uniqueid": "MTK2258:3PZDLQMM0USV66J601W2AKFLD9GC2J", "dateTime": 1516907407536}, {"current_trial": 192, "trialdata": {"rt": -1000, "trial_type": "single-audio", "word": "highway", "stimulus": "/static/audio/wordpool/HIGHWAY.wav", "conditions": [24, 800, "a", 12000], "internal_node_id": "0.0-138.0", "trial": 5, "time_elapsed": 978457, "serialpos": 7, "key_press": -1, "wordID": 706, "type": "PRES_AUD", "trial_index": 192}, "uniqueid": "MTK2258:3PZDLQMM0USV66J601W2AKFLD9GC2J", "dateTime": 1516907409411}, {"current_trial": 193, "trialdata": {"rt": -1000, "trial_type": "single-audio", "word": "sword", "stimulus": "/static/audio/wordpool/SWORD.wav", "conditions": [24, 800, "a", 12000], "internal_node_id": "0.0-139.0", "trial": 5, "time_elapsed": 980338, "serialpos": 8, "key_press": -1, "wordID": 1422, "type": "PRES_AUD", "trial_index": 193}, "uniqueid": "MTK2258:3PZDLQMM0USV66J601W2AKFLD9GC2J", "dateTime": 1516907411292}, {"current_trial": 194, "trialdata": {"rt": -1000, "trial_type": "single-audio", "word": "peach", "stimulus": "/static/audio/wordpool/PEACH.wav", "conditions": [24, 800, "a", 12000], "internal_node_id": "0.0-140.0", "trial": 5, "time_elapsed": 982259, "serialpos": 9, "key_press": -1, "wordID": 1030, "type": "PRES_AUD", "trial_index": 194}, "uniqueid": "MTK2258:3PZDLQMM0USV66J601W2AKFLD9GC2J", "dateTime": 1516907413213}, {"current_trial": 195, "trialdata": {"rt": -1000, "trial_type": "single-audio", "word": "parent", "stimulus": "/static/audio/wordpool/PARENT.wav", "conditions": [24, 800, "a", 12000], "internal_node_id": "0.0-141.0", "trial": 5, "time_elapsed": 984227, "serialpos": 10, "key_press": -1, "wordID": 1012, "type": "PRES_AUD", "trial_index": 195}, "uniqueid": "MTK2258:3PZDLQMM0USV66J601W2AKFLD9GC2J", "dateTime": 1516907415181}, {"current_trial": 196, "trialdata": {"rt": -1000, "trial_type": "single-audio", "word": "cottage", "stimulus": "/static/audio/wordpool/COTTAGE.wav", "conditions": [24, 800, "a", 12000], "internal_node_id": "0.0-142.0", "trial": 5, "time_elapsed": 986056, "serialpos": 11, "key_press": -1, "wordID": 383, "type": "PRES_AUD", "trial_index": 196}, "uniqueid": "MTK2258:3PZDLQMM0USV66J601W2AKFLD9GC2J", "dateTime": 1516907417010}, {"current_trial": 197, "trialdata": {"rt": -1000, "trial_type": "single-audio", "word": "slope", "stimulus": "/static/audio/wordpool/SLOPE.wav", "conditions": [24, 800, "a", 12000], "internal_node_id": "0.0-143.0", "trial": 5, "time_elapsed": 987698, "serialpos": 12, "key_press": -1, "wordID": 1327, "type": "PRES_AUD", "trial_index": 197}, "uniqueid": "MTK2258:3PZDLQMM0USV66J601W2AKFLD9GC2J", "dateTime": 1516907418653}, {"current_trial": 198, "trialdata": {"rt": -1000, "trial_type": "single-audio", "word": "loft", "stimulus": "/static/audio/wordpool/LOFT.wav", "conditions": [24, 800, "a", 12000], "internal_node_id": "0.0-144.0", "trial": 5, "time_elapsed": 989409, "serialpos": 13, "key_press": -1, "wordID": 839, "type": "PRES_AUD", "trial_index": 198}, "uniqueid": "MTK2258:3PZDLQMM0USV66J601W2AKFLD9GC2J", "dateTime": 1516907420365}, {"current_trial": 199, "trialdata": {"rt": -1000, "trial_type": "single-audio", "word": "cashier", "stimulus": "/static/audio/wordpool/CASHIER.wav", "conditions": [24, 800, "a", 12000], "internal_node_id": "0.0-145.0", "trial": 5, "time_elapsed": 991306, "serialpos": 14, "key_press": -1, "wordID": 253, "type": "PRES_AUD", "trial_index": 199}, "uniqueid": "MTK2258:3PZDLQMM0USV66J601W2AKFLD9GC2J", "dateTime": 1516907422260}, {"current_trial": 200, "trialdata": {"rt": -1000, "trial_type": "single-audio", "word": "oyster", "stimulus": "/static/audio/wordpool/OYSTER.wav", "conditions": [24, 800, "a", 12000], "internal_node_id": "0.0-146.0", "trial": 5, "time_elapsed": 993016, "serialpos": 15, "key_press": -1, "wordID": 994, "type": "PRES_AUD", "trial_index": 200}, "uniqueid": "MTK2258:3PZDLQMM0USV66J601W2AKFLD9GC2J", "dateTime": 1516907423970}, {"current_trial": 201, "trialdata": {"rt": -1000, "trial_type": "single-audio", "word": "quail", "stimulus": "/static/audio/wordpool/QUAIL.wav", "conditions": [24, 800, "a", 12000], "internal_node_id": "0.0-147.0", "trial": 5, "time_elapsed": 994664, "serialpos": 16, "key_press": -1, "wordID": 1146, "type": "PRES_AUD", "trial_index": 201}, "uniqueid": "MTK2258:3PZDLQMM0USV66J601W2AKFLD9GC2J", "dateTime": 1516907425618}, {"current_trial": 202, "trialdata": {"rt": -1000, "trial_type": "single-audio", "word": "picnic", "stimulus": "/static/audio/wordpool/PICNIC.wav", "conditions": [24, 800, "a", 12000], "internal_node_id": "0.0-148.0", "trial": 5, "time_elapsed": 996434, "serialpos": 17, "key_press": -1, "wordID": 1059, "type": "PRES_AUD", "trial_index": 202}, "uniqueid": "MTK2258:3PZDLQMM0USV66J601W2AKFLD9GC2J", "dateTime": 1516907427388}, {"current_trial": 203, "trialdata": {"rt": -1000, "trial_type": "single-audio", "word": "supper", "stimulus": "/static/audio/wordpool/SUPPER.wav", "conditions": [24, 800, "a", 12000], "internal_node_id": "0.0-149.0", "trial": 5, "time_elapsed": 998414, "serialpos": 18, "key_press": -1, "wordID": 1410, "type": "PRES_AUD", "trial_index": 203}, "uniqueid": "MTK2258:3PZDLQMM0USV66J601W2AKFLD9GC2J", "dateTime": 1516907429368}, {"current_trial": 204, "trialdata": {"rt": -1000, "trial_type": "single-audio", "word": "waitress", "stimulus": "/static/audio/wordpool/WAITRESS.wav", "conditions": [24, 800, "a", 12000], "internal_node_id": "0.0-150.0", "trial": 5, "time_elapsed": 1000283, "serialpos": 19, "key_press": -1, "wordID": 1580, "type": "PRES_AUD", "trial_index": 204}, "uniqueid": "MTK2258:3PZDLQMM0USV66J601W2AKFLD9GC2J", "dateTime": 1516907431238}, {"current_trial": 205, "trialdata": {"rt": -1000, "trial_type": "single-audio", "word": "perch", "stimulus": "/static/audio/wordpool/PERCH.wav", "conditions": [24, 800, "a", 12000], "internal_node_id": "0.0-151.0", "trial": 5, "time_elapsed": 1002123, "serialpos": 20, "key_press": -1, "wordID": 1047, "type": "PRES_AUD", "trial_index": 205}, "uniqueid": "MTK2258:3PZDLQMM0USV66J601W2AKFLD9GC2J", "dateTime": 1516907433077}, {"current_trial": 206, "trialdata": {"rt": -1000, "trial_type": "single-audio", "word": "forehead", "stimulus": "/static/audio/wordpool/FOREHEAD.wav", "conditions": [24, 800, "a", 12000], "internal_node_id": "0.0-152.0", "trial": 5, "time_elapsed": 1004054, "serialpos": 21, "key_press": -1, "wordID": 591, "type": "PRES_AUD", "trial_index": 206}, "uniqueid": "MTK2258:3PZDLQMM0USV66J601W2AKFLD9GC2J", "dateTime": 1516907435008}, {"current_trial": 207, "trialdata": {"rt": -1000, "trial_type": "single-audio", "word": "barrel", "stimulus": "/static/audio/wordpool/BARREL.wav", "conditions": [24, 800, "a", 12000], "internal_node_id": "0.0-153.0", "trial": 5, "time_elapsed": 1005676, "serialpos": 22, "key_press": -1, "wordID": 90, "type": "PRES_AUD", "trial_index": 207}, "uniqueid": "MTK2258:3PZDLQMM0USV66J601W2AKFLD9GC2J", "dateTime": 1516907436630}, {"current_trial": 208, "trialdata": {"rt": -1000, "trial_type": "single-audio", "word": "rebel", "stimulus": "/static/audio/wordpool/REBEL.wav", "conditions": [24, 800, "a", 12000], "internal_node_id": "0.0-154.0", "trial": 5, "time_elapsed": 1007401, "serialpos": 23, "key_press": -1, "wordID": 1171, "type": "PRES_AUD", "trial_index": 208}, "uniqueid": "MTK2258:3PZDLQMM0USV66J601W2AKFLD9GC2J", "dateTime": 1516907438355}, {"current_trial": 209, "trialdata": {"rt": -1, "trial_type": "single-stim", "stimulus": "", "internal_node_id": "0.0-155.0-0.0", "time_elapsed": 1008747, "key_press": -1, "type": "PRE_RECALL_DELAY", "trial_index": 209}, "uniqueid": "MTK2258:3PZDLQMM0USV66J601W2AKFLD9GC2J", "dateTime": 1516907439701}, {"current_trial": 210, "trialdata": {"rt": -1000, "trial_type": "single-audio", "stimulus": "/static/audio/400Hz.wav", "internal_node_id": "0.0-156.0", "time_elapsed": 1009249, "key_press": -1, "type": "PRE_RECALL_ALERT", "trial_index": 210}, "uniqueid": "MTK2258:3PZDLQMM0USV66J601W2AKFLD9GC2J", "dateTime": 1516907440203}, {"current_trial": 211, "trialdata": {"rt": [3732, 5620, 6956, 8251, 10348, 11724, 12836, 15492, 17132, 18084, 20003, 21076, 24267, 28092, 29836, 31587, 33459, 36452, 38300, 40419, 42179, 45004], "recwords": ["perch", "rubbel", "quail", "picnic", "waitress", "forehead", "barrel", "cottage", "slope", "loft", "cashier", "peach", "parrot", "sword", "highway", "sausage", "custard", "ghetto", "citrus", "banquet", "dorm", "flashlight"], "key_times": [3141, 3164, 3228, 3420, 3484, 3732, 4532, 4693, 4836, 4964, 5236, 5364, 5620, 6100, 6236, 6348, 6492, 6718, 6956, 7260, 7540, 7652, 7757, 7948, 8060, 8251, 9060, 9212, 9388, 9500, 9652, 9716, 9892, 10044, 10348, 10700, 10836, 10932, 11004, 11196, 11284, 11412, 11556, 11724, 12028, 12203, 12283, 12395, 12492, 12596, 12836, 14541, 14731, 14908, 15020, 15172, 15236, 15348, 15492, 16412, 16516, 16716, 16876, 16972, 17132, 17588, 17780, 17812, 18004, 18084, 19092, 19244, 19444, 19532, 19724, 19787, 19856, 20003, 20380, 20508, 20635, 20795, 20884, 21076, 22892, 23067, 23252, 23388, 23996, 24132, 24267, 25005, 27652, 27748, 27837, 28012, 28092, 28972, 29123, 29220, 29277, 29395, 29548, 29620, 29836, 30772, 30899, 30996, 31100, 31316, 31348, 31468, 31587, 32580, 32715, 32764, 32908, 32980, 33108, 33283, 33459, 35597, 35700, 35812, 36028, 36164, 36268, 36452, 37525, 37708, 37844, 37996, 38068, 38195, 38300, 39388, 39523, 39628, 39932, 40051, 40140, 40283, 40419, 41636, 41772, 41899, 42003, 42179, 42595, 42731, 42883, 43251, 43403, 43604, 43684, 43749, 43890, 44100, 44323, 44427, 44539, 44643, 45004], "trial_type": "free-recall", "conditions": [24, 800, "a", 12000], "internal_node_id": "0.0-157.0-0.0", "key_presses": [80, 69, 82, 67, 72, 13, 82, 85, 66, 66, 69, 76, 13, 81, 85, 65, 73, 76, 13, 80, 73, 67, 78, 73, 67, 13, 87, 65, 73, 84, 82, 69, 83, 83, 13, 70, 79, 82, 69, 72, 69, 65, 68, 13, 66, 65, 82, 82, 69, 76, 13, 67, 79, 84, 84, 65, 71, 69, 13, 83, 76, 79, 80, 69, 13, 76, 79, 70, 84, 13, 67, 65, 83, 72, 73, 69, 82, 13, 80, 69, 65, 67, 72, 13, 80, 65, 82, 82, 79, 84, 13, 83, 87, 79, 82, 68, 13, 72, 73, 71, 72, 87, 65, 89, 13, 83, 65, 85, 83, 65, 71, 69, 13, 67, 85, 83, 84, 65, 82, 68, 13, 71, 72, 69, 84, 84, 79, 13, 67, 73, 84, 82, 85, 83, 13, 66, 65, 78, 81, 85, 69, 84, 13, 68, 79, 82, 77, 13, 70, 65, 76, 8, 8, 76, 65, 83, 72, 76, 73, 71, 72, 84, 13], "trial": 5, "time_elapsed": 1069253, "type": "FREE_RECALL", "trial_index": 211}, "uniqueid": "MTK2258:3PZDLQMM0USV66J601W2AKFLD9GC2J", "dateTime": 1516907500212}, {"current_trial": 212, "trialdata": {"rt": 931, "trial_type": "text", "internal_node_id": "0.0-158.0", "time_elapsed": 1072192, "key_press": 32, "type": "INSTRUCTIONS", "trial_index": 212}, "uniqueid": "MTK2258:3PZDLQMM0USV66J601W2AKFLD9GC2J", "dateTime": 1516907503146}, {"current_trial": 213, "trialdata": {"rt": [3407, 5087, 7510, 8982, 10398, 12871, 15007, 17174, 18614, 21102, 23406], "trial_type": "math-distractor", "key_times": [2879, 3127, 3407, 4591, 4911, 5087, 6911, 7358, 7510, 8807, 8982, 10029, 10167, 10398, 11975, 12670, 12871, 14374, 14767, 15007, 16439, 16943, 17174, 18447, 18614, 20519, 20823, 21102, 22855, 23142, 23406], "responses": ["25", "16", "18", "9", "10", "16", "16", "16", "5", "20", "20"], "num2": [9, 5, 2, 1, 5, 2, 6, 5, 1, 6, 5, 9], "num3": [8, 2, 8, 4, 1, 5, 6, 9, 3, 6, 9, 1], "conditions": [12, 800, "a", 24000], "internal_node_id": "0.0-159.0", "key_presses": [50, 53, 13, 49, 54, 13, 49, 56, 13, 57, 13, 49, 48, 13, 49, 54, 13, 49, 54, 13, 49, 54, 13, 53, 13, 50, 48, 13, 50, 48, 13], "trial": 6, "time_elapsed": 1098203, "type": "DISTRACTOR", "trial_index": 213, "num1": [8, 9, 8, 4, 4, 9, 4, 2, 1, 8, 6, 2]}, "uniqueid": "MTK2258:3PZDLQMM0USV66J601W2AKFLD9GC2J", "dateTime": 1516907529157}, {"current_trial": 214, "trialdata": {"rt": -1, "trial_type": "single-stim", "stimulus": "<p id=\"stim\">10</p>", "internal_node_id": "0.0-160.0-0.0", "time_elapsed": 1101209, "key_press": -1, "trial_index": 214}, "uniqueid": "MTK2258:3PZDLQMM0USV66J601W2AKFLD9GC2J", "dateTime": 1516907532163}, {"current_trial": 215, "trialdata": {"rt": -1, "trial_type": "single-stim", "stimulus": "<p id=\"stim\">9</p>", "internal_node_id": "0.0-160.0-1.0", "time_elapsed": 1102213, "key_press": -1, "trial_index": 215}, "uniqueid": "MTK2258:3PZDLQMM0USV66J601W2AKFLD9GC2J", "dateTime": 1516907533167}, {"current_trial": 216, "trialdata": {"rt": -1, "trial_type": "single-stim", "stimulus": "<p id=\"stim\">8</p>", "internal_node_id": "0.0-160.0-2.0", "time_elapsed": 1103217, "key_press": -1, "trial_index": 216}, "uniqueid": "MTK2258:3PZDLQMM0USV66J601W2AKFLD9GC2J", "dateTime": 1516907534171}, {"current_trial": 217, "trialdata": {"rt": -1, "trial_type": "single-stim", "stimulus": "<p id=\"stim\">7</p>", "internal_node_id": "0.0-160.0-3.0", "time_elapsed": 1104221, "key_press": -1, "trial_index": 217}, "uniqueid": "MTK2258:3PZDLQMM0USV66J601W2AKFLD9GC2J", "dateTime": 1516907535175}, {"current_trial": 218, "trialdata": {"rt": -1, "trial_type": "single-stim", "stimulus": "<p id=\"stim\">6</p>", "internal_node_id": "0.0-160.0-4.0", "time_elapsed": 1105225, "key_press": -1, "trial_index": 218}, "uniqueid": "MTK2258:3PZDLQMM0USV66J601W2AKFLD9GC2J", "dateTime": 1516907536179}, {"current_trial": 219, "trialdata": {"rt": -1, "trial_type": "single-stim", "stimulus": "<p id=\"stim\">5</p>", "internal_node_id": "0.0-160.0-5.0", "time_elapsed": 1106229, "key_press": -1, "trial_index": 219}, "uniqueid": "MTK2258:3PZDLQMM0USV66J601W2AKFLD9GC2J", "dateTime": 1516907537183}, {"current_trial": 220, "trialdata": {"rt": -1, "trial_type": "single-stim", "stimulus": "<p id=\"stim\">4</p>", "internal_node_id": "0.0-160.0-6.0", "time_elapsed": 1107233, "key_press": -1, "trial_index": 220}, "uniqueid": "MTK2258:3PZDLQMM0USV66J601W2AKFLD9GC2J", "dateTime": 1516907538187}, {"current_trial": 221, "trialdata": {"rt": -1, "trial_type": "single-stim", "stimulus": "<p id=\"stim\">3</p>", "internal_node_id": "0.0-160.0-7.0", "time_elapsed": 1108237, "key_press": -1, "trial_index": 221}, "uniqueid": "MTK2258:3PZDLQMM0USV66J601W2AKFLD9GC2J", "dateTime": 1516907539191}, {"current_trial": 222, "trialdata": {"rt": -1, "trial_type": "single-stim", "stimulus": "<p id=\"stim\">2</p>", "internal_node_id": "0.0-160.0-8.0", "time_elapsed": 1109241, "key_press": -1, "trial_index": 222}, "uniqueid": "MTK2258:3PZDLQMM0USV66J601W2AKFLD9GC2J", "dateTime": 1516907540195}, {"current_trial": 223, "trialdata": {"rt": -1, "trial_type": "single-stim", "stimulus": "<p id=\"stim\">1</p>", "internal_node_id": "0.0-160.0-9.0", "time_elapsed": 1110245, "key_press": -1, "trial_index": 223}, "uniqueid": "MTK2258:3PZDLQMM0USV66J601W2AKFLD9GC2J", "dateTime": 1516907541199}, {"current_trial": 224, "trialdata": {"rt": -1, "trial_type": "single-stim", "stimulus": "<p id=\"stim\">+</p>", "internal_node_id": "0.0-161.0-0.0", "time_elapsed": 1111748, "key_press": -1, "type": "FIXATION", "trial_index": 224}, "uniqueid": "MTK2258:3PZDLQMM0USV66J601W2AKFLD9GC2J", "dateTime": 1516907542702}, {"current_trial": 225, "trialdata": {"rt": -1000, "trial_type": "single-audio", "word": "turtle", "stimulus": "/static/audio/wordpool/TURTLE.wav", "conditions": [12, 800, "a", 24000], "internal_node_id": "0.0-162.0", "trial": 6, "time_elapsed": 1113541, "serialpos": 0, "key_press": -1, "wordID": 1521, "type": "PRES_AUD", "trial_index": 225}, "uniqueid": "MTK2258:3PZDLQMM0USV66J601W2AKFLD9GC2J", "dateTime": 1516907544495}, {"current_trial": 226, "trialdata": {"rt": -1000, "trial_type": "single-audio", "word": "cousin", "stimulus": "/static/audio/wordpool/COUSIN.wav", "conditions": [12, 800, "a", 24000], "internal_node_id": "0.0-163.0", "trial": 6, "time_elapsed": 1115207, "serialpos": 1, "key_press": -1, "wordID": 391, "type": "PRES_AUD", "trial_index": 226}, "uniqueid": "MTK2258:3PZDLQMM0USV66J601W2AKFLD9GC2J", "dateTime": 1516907546161}, {"current_trial": 227, "trialdata": {"rt": -1000, "trial_type": "single-audio", "word": "guard", "stimulus": "/static/audio/wordpool/GUARD.wav", "conditions": [12, 800, "a", 24000], "internal_node_id": "0.0-164.0", "trial": 6, "time_elapsed": 1116937, "serialpos": 2, "key_press": -1, "wordID": 666, "type": "PRES_AUD", "trial_index": 227}, "uniqueid": "MTK2258:3PZDLQMM0USV66J601W2AKFLD9GC2J", "dateTime": 1516907547891}, {"current_trial": 228, "trialdata": {"rt": -1000, "trial_type": "single-audio", "word": "atlas", "stimulus": "/static/audio/wordpool/ATLAS.wav", "conditions": [12, 800, "a", 24000], "internal_node_id": "0.0-165.0", "trial": 6, "time_elapsed": 1118603, "serialpos": 3, "key_press": -1, "wordID": 52, "type": "PRES_AUD", "trial_index": 228}, "uniqueid": "MTK2258:3PZDLQMM0USV66J601W2AKFLD9GC2J", "dateTime": 1516907549557}, {"current_trial": 229, "trialdata": {"rt": -1000, "trial_type": "single-audio", "word": "lagoon", "stimulus": "/static/audio/wordpool/LAGOON.wav", "conditions": [12, 800, "a", 24000], "internal_node_id": "0.0-166.0", "trial": 6, "time_elapsed": 1120308, "serialpos": 4, "key_press": -1, "wordID": 794, "type": "PRES_AUD", "trial_index": 229}, "uniqueid": "MTK2258:3PZDLQMM0USV66J601W2AKFLD9GC2J", "dateTime": 1516907551262}, {"current_trial": 230, "trialdata": {"rt": -1000, "trial_type": "single-audio", "word": "raft", "stimulus": "/static/audio/wordpool/RAFT.wav", "conditions": [12, 800, "a", 24000], "internal_node_id": "0.0-167.0", "trial": 6, "time_elapsed": 1121929, "serialpos": 5, "key_press": -1, "wordID": 1158, "type": "PRES_AUD", "trial_index": 230}, "uniqueid": "MTK2258:3PZDLQMM0USV66J601W2AKFLD9GC2J", "dateTime": 1516907552883}, {"current_trial": 231, "trialdata": {"rt": -1000, "trial_type": "single-audio", "word": "female", "stimulus": "/static/audio/wordpool/FEMALE.wav", "conditions": [12, 800, "a", 24000], "internal_node_id": "0.0-168.0", "trial": 6, "time_elapsed": 1123653, "serialpos": 6, "key_press": -1, "wordID": 558, "type": "PRES_AUD", "trial_index": 231}, "uniqueid": "MTK2258:3PZDLQMM0USV66J601W2AKFLD9GC2J", "dateTime": 1516907554607}, {"current_trial": 232, "trialdata": {"rt": -1000, "trial_type": "single-audio", "word": "dolphin", "stimulus": "/static/audio/wordpool/DOLPHIN.wav", "conditions": [12, 800, "a", 24000], "internal_node_id": "0.0-169.0", "trial": 6, "time_elapsed": 1125341, "serialpos": 7, "key_press": -1, "wordID": 482, "type": "PRES_AUD", "trial_index": 232}, "uniqueid": "MTK2258:3PZDLQMM0USV66J601W2AKFLD9GC2J", "dateTime": 1516907556295}, {"current_trial": 233, "trialdata": {"rt": -1000, "trial_type": "single-audio", "word": "critic", "stimulus": "/static/audio/wordpool/CRITIC.wav", "conditions": [12, 800, "a", 24000], "internal_node_id": "0.0-170.0", "trial": 6, "time_elapsed": 1127229, "serialpos": 8, "key_press": -1, "wordID": 409, "type": "PRES_AUD", "trial_index": 233}, "uniqueid": "MTK2258:3PZDLQMM0USV66J601W2AKFLD9GC2J", "dateTime": 1516907558183}, {"current_trial": 234, "trialdata": {"rt": -1000, "trial_type": "single-audio", "word": "blueprint", "stimulus": "/static/audio/wordpool/BLUEPRINT.wav", "conditions": [12, 800, "a", 24000], "internal_node_id": "0.0-171.0", "trial": 6, "time_elapsed": 1129058, "serialpos": 9, "key_press": -1, "wordID": 141, "type": "PRES_AUD", "trial_index": 234}, "uniqueid": "MTK2258:3PZDLQMM0USV66J601W2