{"assignmentId": "3IKZ72A5B5NYY4S9DMKNAE3MLVLNFA", "workerId": "MTK2445", "questiondata": {"origin": "United States", "strat-rehearsal": "70", "marital": "Divorced", "education": "Bachelor's degree", "ethnicity": "Not Hispanic", "color_depth": 24, "distracted": "No", "wrote-notes": "No", "strat-other": "", "screen_width": 1366, "avail_screen_width": 1366, "avail_screen_height": 728, "strat-image": "15", "language": "English", "gender": "Female", "age": "30", "gender_other": "", "race": ["White"], "strat-categorize": "90", "pixel_depth": 24, "strat-spatial": "0", "strat-story": "0", "race_other": "", "screen_height": 768}, "bonus": 0, "hitId": "3UXQ63NLAATGA3FE65DAPCCSI0EBL1", "counterbalance": 920, "useragent": "Mozilla/5.0 (Windows NT 6.1; Win64; x64) AppleWebKit/537.36 (KHTML, like Gecko) Chrome/64.0.3282.119 Safari/537.36", "eventdata": [{"eventtype": "initialized", "interval": 0, "value": null, "timestamp": 1517255401120}, {"eventtype": "window_resize", "interval": 0, "value": [1366, 722], "timestamp": 1517255401120}, {"eventtype": "window_resize", "interval": 6572, "value": [1366, 678], "timestamp": 1517255407692}, {"eventtype": "focus", "interval": 36154, "value": "off", "timestamp": 1517255443846}, {"eventtype": "focus", "interval": 3940, "value": "on", "timestamp": 1517255447786}, {"eventtype": "focus", "interval": 269454, "value": "off", "timestamp": 1517255717240}, {"eventtype": "focus", "interval": 4505, "value": "on", "timestamp": 1517255721745}, {"eventtype": "focus", "interval": 2506352, "value": "off", "timestamp": 1517258228097}, {"eventtype": "focus", "interval": 19978, "value": "on", "timestamp": 1517258248075}, {"eventtype": "focus", "interval": 88549, "value": "off", "timestamp": 1517258336624}, {"eventtype": "focus", "interval": 13606, "value": "on", "timestamp": 1517258350230}], "data": [{"current_trial": 0, "trialdata": {"rt": 6042, "trial_type": "text", "internal_node_id": "0.0-0.0", "time_elapsed": 6046, "key_press": 72, "type": "INSTRUCTIONS", "trial_index": 0}, "uniqueid": "MTK2445:3IKZ72A5B5NYY4S9DMKNAE3MLVLNFA", "dateTime": 1517255426751}, {"current_trial": 1, "trialdata": {"rt": 3742, "trial_type": "text", "internal_node_id": "0.0-1.0", "time_elapsed": 9794, "key_press": 175, "type": "INSTRUCTIONS", "trial_index": 1}, "uniqueid": "MTK2445:3IKZ72A5B5NYY4S9DMKNAE3MLVLNFA", "dateTime": 1517255430497}, {"current_trial": 2, "trialdata": {"rt": [21744], "trial_type": "audio-test", "responses": ["ocean"], "internal_node_id": "0.0-2.0", "time_elapsed": 31660, "type": "AUDIO_TEST", "trial_index": 2}, "uniqueid": "MTK2445:3IKZ72A5B5NYY4S9DMKNAE3MLVLNFA", "dateTime": 1517255452363}, {"current_trial": 3, "trialdata": {"rt": [7115], "trial_type": "audio-test", "responses": ["crystal"], "internal_node_id": "0.0-3.0", "time_elapsed": 38786, "type": "AUDIO_TEST", "trial_index": 3}, "uniqueid": "MTK2445:3IKZ72A5B5NYY4S9DMKNAE3MLVLNFA", "dateTime": 1517255459490}, {"current_trial": 4, "trialdata": {"rt": [9046], "trial_type": "audio-test", "responses": ["spice"], "internal_node_id": "0.0-4.0", "time_elapsed": 47838, "type": "AUDIO_TEST", "trial_index": 4}, "uniqueid": "MTK2445:3IKZ72A5B5NYY4S9DMKNAE3MLVLNFA", "dateTime": 1517255468541}, {"current_trial": 5, "trialdata": {"rt": 31272, "trial_type": "survey-text", "responses": "{\"Q0\":\"2:00\",\"Q1\":\"8:30\",\"Q2\":\"4\"}", "internal_node_id": "0.0-5.0", "time_elapsed": 79867, "type": "SLEEP_SURVEY", "trial_index": 5}, "uniqueid": "MTK2445:3IKZ72A5B5NYY4S9DMKNAE3MLVLNFA", "dateTime": 1517255500570}, {"current_trial": 6, "trialdata": {"rt": 48054, "trial_type": "text", "internal_node_id": "0.0-6.0", "time_elapsed": 128924, "key_press": 76, "type": "INSTRUCTIONS", "trial_index": 6}, "uniqueid": "MTK2445:3IKZ72A5B5NYY4S9DMKNAE3MLVLNFA", "dateTime": 1517255549627}, {"current_trial": 7, "trialdata": {"rt": 119726, "trial_type": "text", "internal_node_id": "0.0-7.0", "time_elapsed": 249152, "key_press": 74, "type": "INSTRUCTIONS", "trial_index": 7}, "uniqueid": "MTK2445:3IKZ72A5B5NYY4S9DMKNAE3MLVLNFA", "dateTime": 1517255669855}, {"current_trial": 8, "trialdata": {"rt": 22862, "trial_type": "text", "internal_node_id": "0.0-8.0", "time_elapsed": 272516, "key_press": 70, "type": "INSTRUCTIONS", "trial_index": 8}, "uniqueid": "MTK2445:3IKZ72A5B5NYY4S9DMKNAE3MLVLNFA", "dateTime": 1517255693219}, {"current_trial": 9, "trialdata": {"rt": [3906, 7130, 10780, 16006], "trial_type": "math-distractor", "key_times": [2502, 2634, 3906, 6289, 6421, 7130, 9956, 10203, 10780, 15277, 15603, 16006], "responses": ["19", "20", "21", "24"], "num2": [3, 7, 7, 9, 6], "num3": [8, 8, 6, 8, 9], "conditions": [18, 1200, "a", 18000], "internal_node_id": "0.0-9.0", "key_presses": [49, 57, 13, 50, 48, 13, 50, 49, 13, 50, 52, 13], "trial": 0, "time_elapsed": 291527, "type": "DISTRACTOR", "trial_index": 9, "num1": [8, 5, 9, 7, 2]}, "uniqueid": "MTK2445:3IKZ72A5B5NYY4S9DMKNAE3MLVLNFA", "dateTime": 1517255712231}, {"current_trial": 10, "trialdata": {"rt": -1, "trial_type": "single-stim", "stimulus": "<p id=\"stim\">10</p>", "internal_node_id": "0.0-10.0-0.0", "time_elapsed": 294532, "key_press": -1, "trial_index": 10}, "uniqueid": "MTK2445:3IKZ72A5B5NYY4S9DMKNAE3MLVLNFA", "dateTime": 1517255715235}, {"current_trial": 11, "trialdata": {"rt": -1, "trial_type": "single-stim", "stimulus": "<p id=\"stim\">9</p>", "internal_node_id": "0.0-10.0-1.0", "time_elapsed": 295535, "key_press": -1, "trial_index": 11}, "uniqueid": "MTK2445:3IKZ72A5B5NYY4S9DMKNAE3MLVLNFA", "dateTime": 1517255716238}, {"current_trial": 12, "trialdata": {"rt": -1, "trial_type": "single-stim", "stimulus": "<p id=\"stim\">8</p>", "internal_node_id": "0.0-10.0-2.0", "time_elapsed": 296549, "key_press": -1, "trial_index": 12}, "uniqueid": "MTK2445:3IKZ72A5B5NYY4S9DMKNAE3MLVLNFA", "dateTime": 1517255717252}, {"current_trial": 13, "trialdata": {"rt": -1, "trial_type": "single-stim", "stimulus": "<p id=\"stim\">7</p>", "internal_node_id": "0.0-10.0-3.0", "time_elapsed": 297552, "key_press": -1, "trial_index": 13}, "uniqueid": "MTK2445:3IKZ72A5B5NYY4S9DMKNAE3MLVLNFA", "dateTime": 1517255718255}, {"current_trial": 14, "trialdata": {"rt": -1, "trial_type": "single-stim", "stimulus": "<p id=\"stim\">6</p>", "internal_node_id": "0.0-10.0-4.0", "time_elapsed": 298556, "key_press": -1, "trial_index": 14}, "uniqueid": "MTK2445:3IKZ72A5B5NYY4S9DMKNAE3MLVLNFA", "dateTime": 1517255719259}, {"current_trial": 15, "trialdata": {"rt": -1, "trial_type": "single-stim", "stimulus": "<p id=\"stim\">5</p>", "internal_node_id": "0.0-10.0-5.0", "time_elapsed": 299558, "key_press": -1, "trial_index": 15}, "uniqueid": "MTK2445:3IKZ72A5B5NYY4S9DMKNAE3MLVLNFA", "dateTime": 1517255720261}, {"current_trial": 16, "trialdata": {"rt": -1, "trial_type": "single-stim", "stimulus": "<p id=\"stim\">4</p>", "internal_node_id": "0.0-10.0-6.0", "time_elapsed": 300559, "key_press": -1, "trial_index": 16}, "uniqueid": "MTK2445:3IKZ72A5B5NYY4S9DMKNAE3MLVLNFA", "dateTime": 1517255721262}, {"current_trial": 17, "trialdata": {"rt": -1, "trial_type": "single-stim", "stimulus": "<p id=\"stim\">3</p>", "internal_node_id": "0.0-10.0-7.0", "time_elapsed": 301561, "key_press": -1, "trial_index": 17}, "uniqueid": "MTK2445:3IKZ72A5B5NYY4S9DMKNAE3MLVLNFA", "dateTime": 1517255722265}, {"current_trial": 18, "trialdata": {"rt": -1, "trial_type": "single-stim", "stimulus": "<p id=\"stim\">2</p>", "internal_node_id": "0.0-10.0-8.0", "time_elapsed": 302564, "key_press": -1, "trial_index": 18}, "uniqueid": "MTK2445:3IKZ72A5B5NYY4S9DMKNAE3MLVLNFA", "dateTime": 1517255723267}, {"current_trial": 19, "trialdata": {"rt": -1, "trial_type": "single-stim", "stimulus": "<p id=\"stim\">1</p>", "internal_node_id": "0.0-10.0-9.0", "time_elapsed": 303565, "key_press": -1, "trial_index": 19}, "uniqueid": "MTK2445:3IKZ72A5B5NYY4S9DMKNAE3MLVLNFA", "dateTime": 1517255724268}, {"current_trial": 20, "trialdata": {"rt": -1, "trial_type": "single-stim", "stimulus": "<p id=\"stim\">+</p>", "internal_node_id": "0.0-11.0-0.0", "time_elapsed": 305068, "key_press": -1, "type": "FIXATION", "trial_index": 20}, "uniqueid": "MTK2445:3IKZ72A5B5NYY4S9DMKNAE3MLVLNFA", "dateTime": 1517255725771}, {"current_trial": 21, "trialdata": {"rt": -1000, "trial_type": "single-audio", "word": "taxi", "stimulus": "/static/audio/wordpool/TAXI.wav", "conditions": [18, 1200, "a", 18000], "internal_node_id": "0.0-12.0", "trial": 0, "time_elapsed": 307138, "serialpos": 0, "key_press": -1, "wordID": 1437, "type": "PRES_AUD", "trial_index": 21}, "uniqueid": "MTK2445:3IKZ72A5B5NYY4S9DMKNAE3MLVLNFA", "dateTime": 1517255727841}, {"current_trial": 22, "trialdata": {"rt": -1000, "trial_type": "single-audio", "word": "trombone", "stimulus": "/static/audio/wordpool/TROMBONE.wav", "conditions": [18, 1200, "a", 18000], "internal_node_id": "0.0-13.0", "trial": 0, "time_elapsed": 309333, "serialpos": 1, "key_press": -1, "wordID": 1507, "type": "PRES_AUD", "trial_index": 22}, "uniqueid": "MTK2445:3IKZ72A5B5NYY4S9DMKNAE3MLVLNFA", "dateTime": 1517255730036}, {"current_trial": 23, "trialdata": {"rt": -1000, "trial_type": "single-audio", "word": "loft", "stimulus": "/static/audio/wordpool/LOFT.wav", "conditions": [18, 1200, "a", 18000], "internal_node_id": "0.0-14.0", "trial": 0, "time_elapsed": 311423, "serialpos": 2, "key_press": -1, "wordID": 839, "type": "PRES_AUD", "trial_index": 23}, "uniqueid": "MTK2445:3IKZ72A5B5NYY4S9DMKNAE3MLVLNFA", "dateTime": 1517255732127}, {"current_trial": 24, "trialdata": {"rt": -1000, "trial_type": "single-audio", "word": "washer", "stimulus": "/static/audio/wordpool/WASHER.wav", "conditions": [18, 1200, "a", 18000], "internal_node_id": "0.0-15.0", "trial": 0, "time_elapsed": 313442, "serialpos": 3, "key_press": -1, "wordID": 1591, "type": "PRES_AUD", "trial_index": 24}, "uniqueid": "MTK2445:3IKZ72A5B5NYY4S9DMKNAE3MLVLNFA", "dateTime": 1517255734146}, {"current_trial": 25, "trialdata": {"rt": -1000, "trial_type": "single-audio", "word": "hero", "stimulus": "/static/audio/wordpool/HERO.wav", "conditions": [18, 1200, "a", 18000], "internal_node_id": "0.0-16.0", "trial": 0, "time_elapsed": 315454, "serialpos": 4, "key_press": -1, "wordID": 705, "type": "PRES_AUD", "trial_index": 25}, "uniqueid": "MTK2445:3IKZ72A5B5NYY4S9DMKNAE3MLVLNFA", "dateTime": 1517255736157}, {"current_trial": 26, "trialdata": {"rt": -1000, "trial_type": "single-audio", "word": "tablet", "stimulus": "/static/audio/wordpool/TABLET.wav", "conditions": [18, 1200, "a", 18000], "internal_node_id": "0.0-17.0", "trial": 0, "time_elapsed": 317831, "serialpos": 5, "key_press": -1, "wordID": 1426, "type": "PRES_AUD", "trial_index": 26}, "uniqueid": "MTK2445:3IKZ72A5B5NYY4S9DMKNAE3MLVLNFA", "dateTime": 1517255738534}, {"current_trial": 27, "trialdata": {"rt": -1000, "trial_type": "single-audio", "word": "stallion", "stimulus": "/static/audio/wordpool/STALLION.wav", "conditions": [18, 1200, "a", 18000], "internal_node_id": "0.0-18.0", "trial": 0, "time_elapsed": 320130, "serialpos": 6, "key_press": -1, "wordID": 1368, "type": "PRES_AUD", "trial_index": 27}, "uniqueid": "MTK2445:3IKZ72A5B5NYY4S9DMKNAE3MLVLNFA", "dateTime": 1517255740833}, {"current_trial": 28, "trialdata": {"rt": -1000, "trial_type": "single-audio", "word": "county", "stimulus": "/static/audio/wordpool/COUNTY.wav", "conditions": [18, 1200, "a", 18000], "internal_node_id": "0.0-19.0", "trial": 0, "time_elapsed": 322481, "serialpos": 7, "key_press": -1, "wordID": 388, "type": "PRES_AUD", "trial_index": 28}, "uniqueid": "MTK2445:3IKZ72A5B5NYY4S9DMKNAE3MLVLNFA", "dateTime": 1517255743184}, {"current_trial": 29, "trialdata": {"rt": -1000, "trial_type": "single-audio", "word": "machine", "stimulus": "/static/audio/wordpool/MACHINE.wav", "conditions": [18, 1200, "a", 18000], "internal_node_id": "0.0-20.0", "trial": 0, "time_elapsed": 324859, "serialpos": 8, "key_press": -1, "wordID": 851, "type": "PRES_AUD", "trial_index": 29}, "uniqueid": "MTK2445:3IKZ72A5B5NYY4S9DMKNAE3MLVLNFA", "dateTime": 1517255745562}, {"current_trial": 30, "trialdata": {"rt": -1000, "trial_type": "single-audio", "word": "palace", "stimulus": "/static/audio/wordpool/PALACE.wav", "conditions": [18, 1200, "a", 18000], "internal_node_id": "0.0-21.0", "trial": 0, "time_elapsed": 327189, "serialpos": 9, "key_press": -1, "wordID": 1005, "type": "PRES_AUD", "trial_index": 30}, "uniqueid": "MTK2445:3IKZ72A5B5NYY4S9DMKNAE3MLVLNFA", "dateTime": 1517255747893}, {"current_trial": 31, "trialdata": {"rt": -1000, "trial_type": "single-audio", "word": "breast", "stimulus": "/static/audio/wordpool/BREAST.wav", "conditions": [18, 1200, "a", 18000], "internal_node_id": "0.0-22.0", "trial": 0, "time_elapsed": 329448, "serialpos": 10, "key_press": -1, "wordID": 170, "type": "PRES_AUD", "trial_index": 31}, "uniqueid": "MTK2445:3IKZ72A5B5NYY4S9DMKNAE3MLVLNFA", "dateTime": 1517255750151}, {"current_trial": 32, "trialdata": {"rt": -1000, "trial_type": "single-audio", "word": "human", "stimulus": "/static/audio/wordpool/HUMAN.wav", "conditions": [18, 1200, "a", 18000], "internal_node_id": "0.0-23.0", "trial": 0, "time_elapsed": 331670, "serialpos": 11, "key_press": -1, "wordID": 725, "type": "PRES_AUD", "trial_index": 32}, "uniqueid": "MTK2445:3IKZ72A5B5NYY4S9DMKNAE3MLVLNFA", "dateTime": 1517255752374}, {"current_trial": 33, "trialdata": {"rt": -1000, "trial_type": "single-audio", "word": "friend", "stimulus": "/static/audio/wordpool/FRIEND.wav", "conditions": [18, 1200, "a", 18000], "internal_node_id": "0.0-24.0", "trial": 0, "time_elapsed": 333775, "serialpos": 12, "key_press": -1, "wordID": 605, "type": "PRES_AUD", "trial_index": 33}, "uniqueid": "MTK2445:3IKZ72A5B5NYY4S9DMKNAE3MLVLNFA", "dateTime": 1517255754479}, {"current_trial": 34, "trialdata": {"rt": -1000, "trial_type": "single-audio", "word": "marine", "stimulus": "/static/audio/wordpool/MARINE.wav", "conditions": [18, 1200, "a", 18000], "internal_node_id": "0.0-25.0", "trial": 0, "time_elapsed": 336058, "serialpos": 13, "key_press": -1, "wordID": 868, "type": "PRES_AUD", "trial_index": 34}, "uniqueid": "MTK2445:3IKZ72A5B5NYY4S9DMKNAE3MLVLNFA", "dateTime": 1517255756761}, {"current_trial": 35, "trialdata": {"rt": -1000, "trial_type": "single-audio", "word": "pudding", "stimulus": "/static/audio/wordpool/PUDDING.wav", "conditions": [18, 1200, "a", 18000], "internal_node_id": "0.0-26.0", "trial": 0, "time_elapsed": 338455, "serialpos": 14, "key_press": -1, "wordID": 1138, "type": "PRES_AUD", "trial_index": 35}, "uniqueid": "MTK2445:3IKZ72A5B5NYY4S9DMKNAE3MLVLNFA", "dateTime": 1517255759159}, {"current_trial": 36, "trialdata": {"rt": -1000, "trial_type": "single-audio", "word": "foot", "stimulus": "/static/audio/wordpool/FOOT.wav", "conditions": [18, 1200, "a", 18000], "internal_node_id": "0.0-27.0", "trial": 0, "time_elapsed": 340708, "serialpos": 15, "key_press": -1, "wordID": 589, "type": "PRES_AUD", "trial_index": 36}, "uniqueid": "MTK2445:3IKZ72A5B5NYY4S9DMKNAE3MLVLNFA", "dateTime": 1517255761411}, {"current_trial": 37, "trialdata": {"rt": -1000, "trial_type": "single-audio", "word": "branch", "stimulus": "/static/audio/wordpool/BRANCH.wav", "conditions": [18, 1200, "a", 18000], "internal_node_id": "0.0-28.0", "trial": 0, "time_elapsed": 342962, "serialpos": 16, "key_press": -1, "wordID": 167, "type": "PRES_AUD", "trial_index": 37}, "uniqueid": "MTK2445:3IKZ72A5B5NYY4S9DMKNAE3MLVLNFA", "dateTime": 1517255763665}, {"current_trial": 38, "trialdata": {"rt": -1000, "trial_type": "single-audio", "word": "snail", "stimulus": "/static/audio/wordpool/SNAIL.wav", "conditions": [18, 1200, "a", 18000], "internal_node_id": "0.0-29.0", "trial": 0, "time_elapsed": 345233, "serialpos": 17, "key_press": -1, "wordID": 1331, "type": "PRES_AUD", "trial_index": 38}, "uniqueid": "MTK2445:3IKZ72A5B5NYY4S9DMKNAE3MLVLNFA", "dateTime": 1517255765936}, {"current_trial": 39, "trialdata": {"rt": -1, "trial_type": "single-stim", "stimulus": "", "internal_node_id": "0.0-30.0-0.0", "time_elapsed": 346435, "key_press": -1, "type": "PRE_RECALL_DELAY", "trial_index": 39}, "uniqueid": "MTK2445:3IKZ72A5B5NYY4S9DMKNAE3MLVLNFA", "dateTime": 1517255767138}, {"current_trial": 40, "trialdata": {"rt": -1000, "trial_type": "single-audio", "stimulus": "/static/audio/400Hz.wav", "internal_node_id": "0.0-31.0", "time_elapsed": 346937, "key_press": -1, "type": "PRE_RECALL_ALERT", "trial_index": 40}, "uniqueid": "MTK2445:3IKZ72A5B5NYY4S9DMKNAE3MLVLNFA", "dateTime": 1517255767640}, {"current_trial": 41, "trialdata": {"rt": [2910, 4617, 6850, 8433, 11393, 13343, 23487, 26799], "recwords": ["taxi", "stallion", "palace", "human", "rust", "snail", "trombone", "foot"], "key_times": [934, 1147, 1541, 2565, 2910, 3231, 3366, 3539, 3665, 3820, 3982, 4168, 4282, 4617, 5043, 5525, 5895, 6054, 6207, 6325, 6498, 6620, 6850, 7461, 7681, 7875, 7952, 8130, 8433, 10321, 10477, 10553, 10665, 11393, 12374, 12537, 12653, 12803, 12986, 13343, 22085, 22258, 22389, 22523, 22748, 22860, 23010, 23241, 23487, 25701, 25895, 26032, 26095, 26799], "trial_type": "free-recall", "conditions": [18, 1200, "a", 18000], "internal_node_id": "0.0-32.0-0.0", "key_presses": [84, 65, 88, 73, 13, 83, 84, 65, 76, 76, 73, 79, 78, 13, 66, 8, 80, 65, 76, 65, 67, 69, 13, 72, 85, 77, 65, 78, 13, 82, 85, 83, 84, 13, 83, 78, 65, 73, 76, 13, 84, 82, 79, 77, 66, 79, 78, 69, 13, 70, 79, 79, 84, 13], "trial": 0, "time_elapsed": 406945, "type": "FREE_RECALL", "trial_index": 41}, "uniqueid": "MTK2445:3IKZ72A5B5NYY4S9DMKNAE3MLVLNFA", "dateTime": 1517255827653}, {"current_trial": 42, "trialdata": {"rt": 1598, "trial_type": "text", "internal_node_id": "0.0-33.0", "time_elapsed": 410550, "key_press": 75, "type": "INSTRUCTIONS", "trial_index": 42}, "uniqueid": "MTK2445:3IKZ72A5B5NYY4S9DMKNAE3MLVLNFA", "dateTime": 1517255831253}, {"current_trial": 43, "trialdata": {"rt": [3916, 7935, 11285, 14175, 17509], "trial_type": "math-distractor", "key_times": [2922, 3096, 3916, 6917, 7311, 7935, 10387, 10595, 11285, 13199, 13524, 14175, 16206, 16793, 17509], "responses": ["17", "20", "18", "17", "27"], "num2": [4, 9, 7, 9, 9, 6], "num3": [7, 7, 6, 7, 9, 6], "conditions": [18, 1200, "a", 18000], "internal_node_id": "0.0-34.0", "key_presses": [49, 55, 13, 50, 48, 13, 49, 56, 13, 49, 55, 13, 50, 55, 13], "trial": 1, "time_elapsed": 430555, "type": "DISTRACTOR", "trial_index": 43, "num1": [6, 4, 5, 1, 9, 4]}, "uniqueid": "MTK2445:3IKZ72A5B5NYY4S9DMKNAE3MLVLNFA", "dateTime": 1517255851259}, {"current_trial": 44, "trialdata": {"rt": -1, "trial_type": "single-stim", "stimulus": "<p id=\"stim\">10</p>", "internal_node_id": "0.0-35.0-0.0", "time_elapsed": 433558, "key_press": -1, "trial_index": 44}, "uniqueid": "MTK2445:3IKZ72A5B5NYY4S9DMKNAE3MLVLNFA", "dateTime": 1517255854261}, {"current_trial": 45, "trialdata": {"rt": -1, "trial_type": "single-stim", "stimulus": "<p id=\"stim\">9</p>", "internal_node_id": "0.0-35.0-1.0", "time_elapsed": 434560, "key_press": -1, "trial_index": 45}, "uniqueid": "MTK2445:3IKZ72A5B5NYY4S9DMKNAE3MLVLNFA", "dateTime": 1517255855263}, {"current_trial": 46, "trialdata": {"rt": -1, "trial_type": "single-stim", "stimulus": "<p id=\"stim\">8</p>", "internal_node_id": "0.0-35.0-2.0", "time_elapsed": 435561, "key_press": -1, "trial_index": 46}, "uniqueid": "MTK2445:3IKZ72A5B5NYY4S9DMKNAE3MLVLNFA", "dateTime": 1517255856265}, {"current_trial": 47, "trialdata": {"rt": -1, "trial_type": "single-stim", "stimulus": "<p id=\"stim\">7</p>", "internal_node_id": "0.0-35.0-3.0", "time_elapsed": 436566, "key_press": -1, "trial_index": 47}, "uniqueid": "MTK2445:3IKZ72A5B5NYY4S9DMKNAE3MLVLNFA", "dateTime": 1517255857269}, {"current_trial": 48, "trialdata": {"rt": -1, "trial_type": "single-stim", "stimulus": "<p id=\"stim\">6</p>", "internal_node_id": "0.0-35.0-4.0", "time_elapsed": 437567, "key_press": -1, "trial_index": 48}, "uniqueid": "MTK2445:3IKZ72A5B5NYY4S9DMKNAE3MLVLNFA", "dateTime": 1517255858270}, {"current_trial": 49, "trialdata": {"rt": -1, "trial_type": "single-stim", "stimulus": "<p id=\"stim\">5</p>", "internal_node_id": "0.0-35.0-5.0", "time_elapsed": 438569, "key_press": -1, "trial_index": 49}, "uniqueid": "MTK2445:3IKZ72A5B5NYY4S9DMKNAE3MLVLNFA", "dateTime": 1517255859272}, {"current_trial": 50, "trialdata": {"rt": -1, "trial_type": "single-stim", "stimulus": "<p id=\"stim\">4</p>", "internal_node_id": "0.0-35.0-6.0", "time_elapsed": 439571, "key_press": -1, "trial_index": 50}, "uniqueid": "MTK2445:3IKZ72A5B5NYY4S9DMKNAE3MLVLNFA", "dateTime": 1517255860275}, {"current_trial": 51, "trialdata": {"rt": -1, "trial_type": "single-stim", "stimulus": "<p id=\"stim\">3</p>", "internal_node_id": "0.0-35.0-7.0", "time_elapsed": 440573, "key_press": -1, "trial_index": 51}, "uniqueid": "MTK2445:3IKZ72A5B5NYY4S9DMKNAE3MLVLNFA", "dateTime": 1517255861276}, {"current_trial": 52, "trialdata": {"rt": -1, "trial_type": "single-stim", "stimulus": "<p id=\"stim\">2</p>", "internal_node_id": "0.0-35.0-8.0", "time_elapsed": 441576, "key_press": -1, "trial_index": 52}, "uniqueid": "MTK2445:3IKZ72A5B5NYY4S9DMKNAE3MLVLNFA", "dateTime": 1517255862279}, {"current_trial": 53, "trialdata": {"rt": -1, "trial_type": "single-stim", "stimulus": "<p id=\"stim\">1</p>", "internal_node_id": "0.0-35.0-9.0", "time_elapsed": 442578, "key_press": -1, "trial_index": 53}, "uniqueid": "MTK2445:3IKZ72A5B5NYY4S9DMKNAE3MLVLNFA", "dateTime": 1517255863281}, {"current_trial": 54, "trialdata": {"rt": -1, "trial_type": "single-stim", "stimulus": "<p id=\"stim\">+</p>", "internal_node_id": "0.0-36.0-0.0", "time_elapsed": 444079, "key_press": -1, "type": "FIXATION", "trial_index": 54}, "uniqueid": "MTK2445:3IKZ72A5B5NYY4S9DMKNAE3MLVLNFA", "dateTime": 1517255864783}, {"current_trial": 55, "trialdata": {"rt": -1000, "trial_type": "single-audio", "word": "sunset", "stimulus": "/static/audio/wordpool/SUNSET.wav", "conditions": [18, 1200, "a", 18000], "internal_node_id": "0.0-37.0", "trial": 1, "time_elapsed": 446341, "serialpos": 0, "key_press": -1, "wordID": 1407, "type": "PRES_AUD", "trial_index": 55}, "uniqueid": "MTK2445:3IKZ72A5B5NYY4S9DMKNAE3MLVLNFA", "dateTime": 1517255867049}, {"current_trial": 56, "trialdata": {"rt": -1000, "trial_type": "single-audio", "word": "scotch", "stimulus": "/static/audio/wordpool/SCOTCH.wav", "conditions": [18, 1200, "a", 18000], "internal_node_id": "0.0-38.0", "trial": 1, "time_elapsed": 448355, "serialpos": 1, "key_press": -1, "wordID": 1250, "type": "PRES_AUD", "trial_index": 56}, "uniqueid": "MTK2445:3IKZ72A5B5NYY4S9DMKNAE3MLVLNFA", "dateTime": 1517255869058}, {"current_trial": 57, "trialdata": {"rt": -1000, "trial_type": "single-audio", "word": "canal", "stimulus": "/static/audio/wordpool/CANAL.wav", "conditions": [18, 1200, "a", 18000], "internal_node_id": "0.0-39.0", "trial": 1, "time_elapsed": 450511, "serialpos": 2, "key_press": -1, "wordID": 225, "type": "PRES_AUD", "trial_index": 57}, "uniqueid": "MTK2445:3IKZ72A5B5NYY4S9DMKNAE3MLVLNFA", "dateTime": 1517255871214}, {"current_trial": 58, "trialdata": {"rt": -1000, "trial_type": "single-audio", "word": "server", "stimulus": "/static/audio/wordpool/SERVER.wav", "conditions": [18, 1200, "a", 18000], "internal_node_id": "0.0-40.0", "trial": 1, "time_elapsed": 452527, "serialpos": 3, "key_press": -1, "wordID": 1271, "type": "PRES_AUD", "trial_index": 58}, "uniqueid": "MTK2445:3IKZ72A5B5NYY4S9DMKNAE3MLVLNFA", "dateTime": 1517255873230}, {"current_trial": 59, "trialdata": {"rt": -1000, "trial_type": "single-audio", "word": "cook", "stimulus": "/static/audio/wordpool/COOK.wav", "conditions": [18, 1200, "a", 18000], "internal_node_id": "0.0-41.0", "trial": 1, "time_elapsed": 454745, "serialpos": 4, "key_press": -1, "wordID": 371, "type": "PRES_AUD", "trial_index": 59}, "uniqueid": "MTK2445:3IKZ72A5B5NYY4S9DMKNAE3MLVLNFA", "dateTime": 1517255875448}, {"current_trial": 60, "trialdata": {"rt": -1000, "trial_type": "single-audio", "word": "stone", "stimulus": "/static/audio/wordpool/STONE.wav", "conditions": [18, 1200, "a", 18000], "internal_node_id": "0.0-42.0", "trial": 1, "time_elapsed": 456831, "serialpos": 5, "key_press": -1, "wordID": 1384, "type": "PRES_AUD", "trial_index": 60}, "uniqueid": "MTK2445:3IKZ72A5B5NYY4S9DMKNAE3MLVLNFA", "dateTime": 1517255877535}, {"current_trial": 61, "trialdata": {"rt": -1000, "trial_type": "single-audio", "word": "rooster", "stimulus": "/static/audio/wordpool/ROOSTER.wav", "conditions": [18, 1200, "a", 18000], "internal_node_id": "0.0-43.0", "trial": 1, "time_elapsed": 458975, "serialpos": 6, "key_press": -1, "wordID": 1208, "type": "PRES_AUD", "trial_index": 61}, "uniqueid": "MTK2445:3IKZ72A5B5NYY4S9DMKNAE3MLVLNFA", "dateTime": 1517255879678}, {"current_trial": 62, "trialdata": {"rt": -1000, "trial_type": "single-audio", "word": "freckle", "stimulus": "/static/audio/wordpool/FRECKLE.wav", "conditions": [18, 1200, "a", 18000], "internal_node_id": "0.0-44.0", "trial": 1, "time_elapsed": 461306, "serialpos": 7, "key_press": -1, "wordID": 601, "type": "PRES_AUD", "trial_index": 62}, "uniqueid": "MTK2445:3IKZ72A5B5NYY4S9DMKNAE3MLVLNFA", "dateTime": 1517255882009}, {"current_trial": 63, "trialdata": {"rt": -1000, "trial_type": "single-audio", "word": "hook", "stimulus": "/static/audio/wordpool/HOOK.wav", "conditions": [18, 1200, "a", 18000], "internal_node_id": "0.0-45.0", "trial": 1, "time_elapsed": 463514, "serialpos": 8, "key_press": -1, "wordID": 714, "type": "PRES_AUD", "trial_index": 63}, "uniqueid": "MTK2445:3IKZ72A5B5NYY4S9DMKNAE3MLVLNFA", "dateTime": 1517255884218}, {"current_trial": 64, "trialdata": {"rt": -1000, "trial_type": "single-audio", "word": "convict", "stimulus": "/static/audio/wordpool/CONVICT.wav", "conditions": [18, 1200, "a", 18000], "internal_node_id": "0.0-46.0", "trial": 1, "time_elapsed": 465900, "serialpos": 9, "key_press": -1, "wordID": 370, "type": "PRES_AUD", "trial_index": 64}, "uniqueid": "MTK2445:3IKZ72A5B5NYY4S9DMKNAE3MLVLNFA", "dateTime": 1517255886603}, {"current_trial": 65, "trialdata": {"rt": -1000, "trial_type": "single-audio", "word": "swimmer", "stimulus": "/static/audio/wordpool/SWIMMER.wav", "conditions": [18, 1200, "a", 18000], "internal_node_id": "0.0-47.0", "trial": 1, "time_elapsed": 468127, "serialpos": 10, "key_press": -1, "wordID": 1419, "type": "PRES_AUD", "trial_index": 65}, "uniqueid": "MTK2445:3IKZ72A5B5NYY4S9DMKNAE3MLVLNFA", "dateTime": 1517255888831}, {"current_trial": 66, "trialdata": {"rt": -1000, "trial_type": "single-audio", "word": "clam", "stimulus": "/static/audio/wordpool/CLAM.wav", "conditions": [18, 1200, "a", 18000], "internal_node_id": "0.0-48.0", "trial": 1, "time_elapsed": 470136, "serialpos": 11, "key_press": -1, "wordID": 314, "type": "PRES_AUD", "trial_index": 66}, "uniqueid": "MTK2445:3IKZ72A5B5NYY4S9DMKNAE3MLVLNFA", "dateTime": 1517255890839}, {"current_trial": 67, "trialdata": {"rt": -1000, "trial_type": "single-audio", "word": "grave", "stimulus": "/static/audio/wordpool/GRAVE.wav", "conditions": [18, 1200, "a", 18000], "internal_node_id": "0.0-49.0", "trial": 1, "time_elapsed": 472183, "serialpos": 12, "key_press": -1, "wordID": 657, "type": "PRES_AUD", "trial_index": 67}, "uniqueid": "MTK2445:3IKZ72A5B5NYY4S9DMKNAE3MLVLNFA", "dateTime": 1517255892886}, {"current_trial": 68, "trialdata": {"rt": -1000, "trial_type": "single-audio", "word": "antler", "stimulus": "/static/audio/wordpool/ANTLER.wav", "conditions": [18, 1200, "a", 18000], "internal_node_id": "0.0-50.0", "trial": 1, "time_elapsed": 474363, "serialpos": 13, "key_press": -1, "wordID": 28, "type": "PRES_AUD", "trial_index": 68}, "uniqueid": "MTK2445:3IKZ72A5B5NYY4S9DMKNAE3MLVLNFA", "dateTime": 1517255895066}, {"current_trial": 69, "trialdata": {"rt": -1000, "trial_type": "single-audio", "word": "cyclone", "stimulus": "/static/audio/wordpool/CYCLONE.wav", "conditions": [18, 1200, "a", 18000], "internal_node_id": "0.0-51.0", "trial": 1, "time_elapsed": 476597, "serialpos": 14, "key_press": -1, "wordID": 430, "type": "PRES_AUD", "trial_index": 69}, "uniqueid": "MTK2445:3IKZ72A5B5NYY4S9DMKNAE3MLVLNFA", "dateTime": 1517255897301}, {"current_trial": 70, "trialdata": {"rt": -1000, "trial_type": "single-audio", "word": "knapsack", "stimulus": "/static/audio/wordpool/KNAPSACK.wav", "conditions": [18, 1200, "a", 18000], "internal_node_id": "0.0-52.0", "trial": 1, "time_elapsed": 478721, "serialpos": 15, "key_press": -1, "wordID": 782, "type": "PRES_AUD", "trial_index": 70}, "uniqueid": "MTK2445:3IKZ72A5B5NYY4S9DMKNAE3MLVLNFA", "dateTime": 1517255899424}, {"current_trial": 71, "trialdata": {"rt": -1000, "trial_type": "single-audio", "word": "actress", "stimulus": "/static/audio/wordpool/ACTRESS.wav", "conditions": [18, 1200, "a", 18000], "internal_node_id": "0.0-53.0", "trial": 1, "time_elapsed": 480867, "serialpos": 16, "key_press": -1, "wordID": 5, "type": "PRES_AUD", "trial_index": 71}, "uniqueid": "MTK2445:3IKZ72A5B5NYY4S9DMKNAE3MLVLNFA", "dateTime": 1517255901571}, {"current_trial": 72, "trialdata": {"rt": -1000, "trial_type": "single-audio", "word": "monster", "stimulus": "/static/audio/wordpool/MONSTER.wav", "conditions": [18, 1200, "a", 18000], "internal_node_id": "0.0-54.0", "trial": 1, "time_elapsed": 483139, "serialpos": 17, "key_press": -1, "wordID": 911, "type": "PRES_AUD", "trial_index": 72}, "uniqueid": "MTK2445:3IKZ72A5B5NYY4S9DMKNAE3MLVLNFA", "dateTime": 1517255903842}, {"current_trial": 73, "trialdata": {"rt": -1, "trial_type": "single-stim", "stimulus": "", "internal_node_id": "0.0-55.0-0.0", "time_elapsed": 484520, "key_press": -1, "type": "PRE_RECALL_DELAY", "trial_index": 73}, "uniqueid": "MTK2445:3IKZ72A5B5NYY4S9DMKNAE3MLVLNFA", "dateTime": 1517255905224}, {"current_trial": 74, "trialdata": {"rt": -1000, "trial_type": "single-audio", "stimulus": "/static/audio/400Hz.wav", "internal_node_id": "0.0-56.0", "time_elapsed": 485022, "key_press": -1, "type": "PRE_RECALL_ALERT", "trial_index": 74}, "uniqueid": "MTK2445:3IKZ72A5B5NYY4S9DMKNAE3MLVLNFA", "dateTime": 1517255905726}, {"current_trial": 75, "trialdata": {"rt": [3220, 4921, 6372, 7588, 8587, 9810, 16220, 18348, 28120], "recwords": ["actress", "monster", "sunset", "server", "cook", "canal", "scotch", "knapsack", "convict"], "key_times": [870, 1095, 1343, 1539, 1656, 1724, 2349, 2538, 2690, 2908, 3043, 3220, 3617, 4060, 4272, 4382, 4528, 4686, 4756, 4921, 5171, 5330, 5529, 5653, 5798, 6135, 6372, 6696, 6838, 6943, 7165, 7343, 7416, 7588, 7837, 7966, 8140, 8317, 8587, 8916, 9070, 9215, 9297, 9465, 9810, 14923, 15131, 15346, 15583, 15812, 15935, 16220, 16897, 17074, 17223, 17452, 17641, 17846, 17961, 18077, 18348, 26433, 26593, 26702, 26932, 27055, 27195, 27523, 28120], "trial_type": "free-recall", "conditions": [18, 1200, "a", 18000], "internal_node_id": "0.0-57.0-0.0", "key_presses": [65, 67, 84, 82, 52, 69, 8, 8, 69, 83, 83, 13, 77, 79, 78, 83, 84, 69, 82, 13, 83, 85, 78, 83, 69, 84, 13, 83, 69, 82, 86, 69, 82, 13, 67, 79, 79, 75, 13, 67, 65, 78, 65, 76, 13, 83, 67, 79, 84, 67, 72, 13, 75, 78, 65, 80, 83, 65, 67, 75, 13, 67, 79, 78, 86, 73, 67, 84, 13], "trial": 1, "time_elapsed": 545035, "type": "FREE_RECALL", "trial_index": 75}, "uniqueid": "MTK2445:3IKZ72A5B5NYY4S9DMKNAE3MLVLNFA", "dateTime": 1517255965743}, {"current_trial": 76, "trialdata": {"rt": 4789, "trial_type": "text", "internal_node_id": "0.0-58.0", "time_elapsed": 551830, "key_press": 70, "type": "INSTRUCTIONS", "trial_index": 76}, "uniqueid": "MTK2445:3IKZ72A5B5NYY4S9DMKNAE3MLVLNFA", "dateTime": 1517255972533}, {"current_trial": 77, "trialdata": {"rt": [2174, 4387, 7260, 10233], "trial_type": "math-distractor", "key_times": [1584, 1806, 2174, 3829, 4200, 4387, 6640, 7061, 7260, 9964, 10233], "responses": ["14", "15", "16", "9"], "num2": [2, 7, 5, 4, 1], "num3": [4, 3, 4, 2, 4], "conditions": [24, 800, "a", 12000], "internal_node_id": "0.0-59.0", "key_presses": [49, 52, 13, 49, 53, 13, 49, 54, 13, 57, 13], "trial": 2, "time_elapsed": 564836, "type": "DISTRACTOR", "trial_index": 77, "num1": [8, 5, 7, 3, 7]}, "uniqueid": "MTK2445:3IKZ72A5B5NYY4S9DMKNAE3MLVLNFA", "dateTime": 1517255985539}, {"current_trial": 78, "trialdata": {"rt": -1, "trial_type": "single-stim", "stimulus": "<p id=\"stim\">10</p>", "internal_node_id": "0.0-60.0-0.0", "time_elapsed": 567838, "key_press": -1, "trial_index": 78}, "uniqueid": "MTK2445:3IKZ72A5B5NYY4S9DMKNAE3MLVLNFA", "dateTime": 1517255988542}, {"current_trial": 79, "trialdata": {"rt": -1, "trial_type": "single-stim", "stimulus": "<p id=\"stim\">9</p>", "internal_node_id": "0.0-60.0-1.0", "time_elapsed": 568840, "key_press": -1, "trial_index": 79}, "uniqueid": "MTK2445:3IKZ72A5B5NYY4S9DMKNAE3MLVLNFA", "dateTime": 1517255989543}, {"current_trial": 80, "trialdata": {"rt": -1, "trial_type": "single-stim", "stimulus": "<p id=\"stim\">8</p>", "internal_node_id": "0.0-60.0-2.0", "time_elapsed": 569843, "key_press": -1, "trial_index": 80}, "uniqueid": "MTK2445:3IKZ72A5B5NYY4S9DMKNAE3MLVLNFA", "dateTime": 1517255990546}, {"current_trial": 81, "trialdata": {"rt": -1, "trial_type": "single-stim", "stimulus": "<p id=\"stim\">7</p>", "internal_node_id": "0.0-60.0-3.0", "time_elapsed": 570845, "key_press": -1, "trial_index": 81}, "uniqueid": "MTK2445:3IKZ72A5B5NYY4S9DMKNAE3MLVLNFA", "dateTime": 1517255991548}, {"current_trial": 82, "trialdata": {"rt": -1, "trial_type": "single-stim", "stimulus": "<p id=\"stim\">6</p>", "internal_node_id": "0.0-60.0-4.0", "time_elapsed": 571847, "key_press": -1, "trial_index": 82}, "uniqueid": "MTK2445:3IKZ72A5B5NYY4S9DMKNAE3MLVLNFA", "dateTime": 1517255992550}, {"current_trial": 83, "trialdata": {"rt": -1, "trial_type": "single-stim", "stimulus": "<p id=\"stim\">5</p>", "internal_node_id": "0.0-60.0-5.0", "time_elapsed": 572849, "key_press": -1, "trial_index": 83}, "uniqueid": "MTK2445:3IKZ72A5B5NYY4S9DMKNAE3MLVLNFA", "dateTime": 1517255993552}, {"current_trial": 84, "trialdata": {"rt": -1, "trial_type": "single-stim", "stimulus": "<p id=\"stim\">4</p>", "internal_node_id": "0.0-60.0-6.0", "time_elapsed": 573851, "key_press": -1, "trial_index": 84}, "uniqueid": "MTK2445:3IKZ72A5B5NYY4S9DMKNAE3MLVLNFA", "dateTime": 1517255994554}, {"current_trial": 85, "trialdata": {"rt": -1, "trial_type": "single-stim", "stimulus": "<p id=\"stim\">3</p>", "internal_node_id": "0.0-60.0-7.0", "time_elapsed": 574852, "key_press": -1, "trial_index": 85}, "uniqueid": "MTK2445:3IKZ72A5B5NYY4S9DMKNAE3MLVLNFA", "dateTime": 1517255995556}, {"current_trial": 86, "trialdata": {"rt": -1, "trial_type": "single-stim", "stimulus": "<p id=\"stim\">2</p>", "internal_node_id": "0.0-60.0-8.0", "time_elapsed": 575854, "key_press": -1, "trial_index": 86}, "uniqueid": "MTK2445:3IKZ72A5B5NYY4S9DMKNAE3MLVLNFA", "dateTime": 1517255996558}, {"current_trial": 87, "trialdata": {"rt": -1, "trial_type": "single-stim", "stimulus": "<p id=\"stim\">1</p>", "internal_node_id": "0.0-60.0-9.0", "time_elapsed": 576857, "key_press": -1, "trial_index": 87}, "uniqueid": "MTK2445:3IKZ72A5B5NYY4S9DMKNAE3MLVLNFA", "dateTime": 1517255997560}, {"current_trial": 88, "trialdata": {"rt": -1, "trial_type": "single-stim", "stimulus": "<p id=\"stim\">+</p>", "internal_node_id": "0.0-61.0-0.0", "time_elapsed": 578359, "key_press": -1, "type": "FIXATION", "trial_index": 88}, "uniqueid": "MTK2445:3IKZ72A5B5NYY4S9DMKNAE3MLVLNFA", "dateTime": 1517255999063}, {"current_trial": 89, "trialdata": {"rt": -1000, "trial_type": "single-audio", "word": "bacon", "stimulus": "/static/audio/wordpool/BACON.wav", "conditions": [24, 800, "a", 12000], "internal_node_id": "0.0-62.0", "trial": 2, "time_elapsed": 580083, "serialpos": 0, "key_press": -1, "wordID": 66, "type": "PRES_AUD", "trial_index": 89}, "uniqueid": "MTK2445:3IKZ72A5B5NYY4S9DMKNAE3MLVLNFA", "dateTime": 1517256000786}, {"current_trial": 90, "trialdata": {"rt": -1000, "trial_type": "single-audio", "word": "knife", "stimulus": "/static/audio/wordpool/KNIFE.wav", "conditions": [24, 800, "a", 12000], "internal_node_id": "0.0-63.0", "trial": 2, "time_elapsed": 581866, "serialpos": 1, "key_press": -1, "wordID": 784, "type": "PRES_AUD", "trial_index": 90}, "uniqueid": "MTK2445:3IKZ72A5B5NYY4S9DMKNAE3MLVLNFA", "dateTime": 1517256002569}, {"current_trial": 91, "trialdata": {"rt": -1000, "trial_type": "single-audio", "word": "mars", "stimulus": "/static/audio/wordpool/MARS.wav", "conditions": [24, 800, "a", 12000], "internal_node_id": "0.0-64.0", "trial": 2, "time_elapsed": 583715, "serialpos": 2, "key_press": -1, "wordID": 872, "type": "PRES_AUD", "trial_index": 91}, "uniqueid": "MTK2445:3IKZ72A5B5NYY4S9DMKNAE3MLVLNFA", "dateTime": 1517256004418}, {"current_trial": 92, "trialdata": {"rt": -1000, "trial_type": "single-audio", "word": "actor", "stimulus": "/static/audio/wordpool/ACTOR.wav", "conditions": [24, 800, "a", 12000], "internal_node_id": "0.0-65.0", "trial": 2, "time_elapsed": 585422, "serialpos": 3, "key_press": -1, "wordID": 4, "type": "PRES_AUD", "trial_index": 92}, "uniqueid": "MTK2445:3IKZ72A5B5NYY4S9DMKNAE3MLVLNFA", "dateTime": 1517256006125}, {"current_trial": 93, "trialdata": {"rt": -1000, "trial_type": "single-audio", "word": "river", "stimulus": "/static/audio/wordpool/RIVER.wav", "conditions": [24, 800, "a", 12000], "internal_node_id": "0.0-66.0", "trial": 2, "time_elapsed": 587060, "serialpos": 4, "key_press": -1, "wordID": 1193, "type": "PRES_AUD", "trial_index": 93}, "uniqueid": "MTK2445:3IKZ72A5B5NYY4S9DMKNAE3MLVLNFA", "dateTime": 1517256007763}, {"current_trial": 94, "trialdata": {"rt": -1000, "trial_type": "single-audio", "word": "lagoon", "stimulus": "/static/audio/wordpool/LAGOON.wav", "conditions": [24, 800, "a", 12000], "internal_node_id": "0.0-67.0", "trial": 2, "time_elapsed": 588802, "serialpos": 5, "key_press": -1, "wordID": 794, "type": "PRES_AUD", "trial_index": 94}, "uniqueid": "MTK2445:3IKZ72A5B5NYY4S9DMKNAE3MLVLNFA", "dateTime": 1517256009505}, {"current_trial": 95, "trialdata": {"rt": -1000, "trial_type": "single-audio", "word": "poet", "stimulus": "/static/audio/wordpool/POET.wav", "conditions": [24, 800, "a", 12000], "internal_node_id": "0.0-68.0", "trial": 2, "time_elapsed": 590654, "serialpos": 6, "key_press": -1, "wordID": 1094, "type": "PRES_AUD", "trial_index": 95}, "uniqueid": "MTK2445:3IKZ72A5B5NYY4S9DMKNAE3MLVLNFA", "dateTime": 1517256011358}, {"current_trial": 96, "trialdata": {"rt": -1000, "trial_type": "single-audio", "word": "possum", "stimulus": "/static/audio/wordpool/POSSUM.wav", "conditions": [24, 800, "a", 12000], "internal_node_id": "0.0-69.0", "trial": 2, "time_elapsed": 592638, "serialpos": 7, "key_press": -1, "wordID": 1111, "type": "PRES_AUD", "trial_index": 96}, "uniqueid": "MTK2445:3IKZ72A5B5NYY4S9DMKNAE3MLVLNFA", "dateTime": 1517256013341}, {"current_trial": 97, "trialdata": {"rt": -1000, "trial_type": "single-audio", "word": "omelet", "stimulus": "/static/audio/wordpool/OMELET.wav", "conditions": [24, 800, "a", 12000], "internal_node_id": "0.0-70.0", "trial": 2, "time_elapsed": 594613, "serialpos": 8, "key_press": -1, "wordID": 975, "type": "PRES_AUD", "trial_index": 97}, "uniqueid": "MTK2445:3IKZ72A5B5NYY4S9DMKNAE3MLVLNFA", "dateTime": 1517256015317}, {"current_trial": 98, "trialdata": {"rt": -1000, "trial_type": "single-audio", "word": "table", "stimulus": "/static/audio/wordpool/TABLE.wav", "conditions": [24, 800, "a", 12000], "internal_node_id": "0.0-71.0", "trial": 2, "time_elapsed": 596565, "serialpos": 9, "key_press": -1, "wordID": 1425, "type": "PRES_AUD", "trial_index": 98}, "uniqueid": "MTK2445:3IKZ72A5B5NYY4S9DMKNAE3MLVLNFA", "dateTime": 1517256017268}, {"current_trial": 99, "trialdata": {"rt": -1000, "trial_type": "single-audio", "word": "fireplace", "stimulus": "/static/audio/wordpool/FIREPLACE.wav", "conditions": [24, 800, "a", 12000], "internal_node_id": "0.0-72.0", "trial": 2, "time_elapsed": 598386, "serialpos": 10, "key_press": -1, "wordID": 569, "type": "PRES_AUD", "trial_index": 99}, "uniqueid": "MTK2445:3IKZ72A5B5NYY4S9DMKNAE3MLVLNFA", "dateTime": 1517256019089}, {"current_trial": 100, "trialdata": {"rt": -1000, "trial_type": "single-audio", "word": "plaid", "stimulus": "/static/audio/wordpool/PLAID.wav", "conditions": [24, 800, "a", 12000], "internal_node_id": "0.0-73.0", "trial": 2, "time_elapsed": 600254, "serialpos": 11, "key_press": -1, "wordID": 1079, "type": "PRES_AUD", "trial_index": 100}, "uniqueid": "MTK2445:3IKZ72A5B5NYY4S9DMKNAE3MLVLNFA", "dateTime": 1517256020958}, {"current_trial": 101, "trialdata": {"rt": -1000, "trial_type": "single-audio", "word": "scarf", "stimulus": "/static/audio/wordpool/SCARF.wav", "conditions": [24, 800, "a", 12000], "internal_node_id": "0.0-74.0", "trial": 2, "time_elapsed": 602203, "serialpos": 12, "key_press": -1, "wordID": 1245, "type": "PRES_AUD", "trial_index": 101}, "uniqueid": "MTK2445:3IKZ72A5B5NYY4S9DMKNAE3MLVLNFA", "dateTime": 1517256022906}, {"current_trial": 102, "trialdata": {"rt": -1000, "trial_type": "single-audio", "word": "blouse", "stimulus": "/static/audio/wordpool/BLOUSE.wav", "conditions": [24, 800, "a", 12000], "internal_node_id": "0.0-75.0", "trial": 2, "time_elapsed": 603845, "serialpos": 13, "key_press": -1, "wordID": 138, "type": "PRES_AUD", "trial_index": 102}, "uniqueid": "MTK2445:3IKZ72A5B5NYY4S9DMKNAE3MLVLNFA", "dateTime": 1517256024548}, {"current_trial": 103, "trialdata": {"rt": -1000, "trial_type": "single-audio", "word": "crib", "stimulus": "/static/audio/wordpool/CRIB.wav", "conditions": [24, 800, "a", 12000], "internal_node_id": "0.0-76.0", "trial": 2, "time_elapsed": 605788, "serialpos": 14, "key_press": -1, "wordID": 406, "type": "PRES_AUD", "trial_index": 103}, "uniqueid": "MTK2445:3IKZ72A5B5NYY4S9DMKNAE3MLVLNFA", "dateTime": 1517256026491}, {"current_trial": 104, "trialdata": {"rt": -1000, "trial_type": "single-audio", "word": "kidney", "stimulus": "/static/audio/wordpool/KIDNEY.wav", "conditions": [24, 800, "a", 12000], "internal_node_id": "0.0-77.0", "trial": 2, "time_elapsed": 607643, "serialpos": 15, "key_press": -1, "wordID": 775, "type": "PRES_AUD", "trial_index": 104}, "uniqueid": "MTK2445:3IKZ72A5B5NYY4S9DMKNAE3MLVLNFA", "dateTime": 1517256028346}, {"current_trial": 105, "trialdata": {"rt": -1000, "trial_type": "single-audio", "word": "box", "stimulus": "/static/audio/wordpool/BOX.wav", "conditions": [24, 800, "a", 12000], "internal_node_id": "0.0-78.0", "trial": 2, "time_elapsed": 609295, "serialpos": 16, "key_press": -1, "wordID": 158, "type": "PRES_AUD", "trial_index": 105}, "uniqueid": "MTK2445:3IKZ72A5B5NYY4S9DMKNAE3MLVLNFA", "dateTime": 1517256029999}, {"current_trial": 106, "trialdata": {"rt": -1000, "trial_type": "single-audio", "word": "headband", "stimulus": "/static/audio/wordpool/HEADBAND.wav", "conditions": [24, 800, "a", 12000], "internal_node_id": "0.0-79.0", "trial": 2, "time_elapsed": 611215, "serialpos": 17, "key_press": -1, "wordID": 695, "type": "PRES_AUD", "trial_index": 106}, "uniqueid": "MTK2445:3IKZ72A5B5NYY4S9DMKNAE3MLVLNFA", "dateTime": 1517256031918}, {"current_trial": 107, "trialdata": {"rt": -1000, "trial_type": "single-audio", "word": "laser", "stimulus": "/static/audio/wordpool/LASER.wav", "conditions": [24, 800, "a", 12000], "internal_node_id": "0.0-80.0", "trial": 2, "time_elapsed": 613029, "serialpos": 18, "key_press": -1, "wordID": 800, "type": "PRES_AUD", "trial_index": 107}, "uniqueid": "MTK2445:3IKZ72A5B5NYY4S9DMKNAE3MLVLNFA", "dateTime": 1517256033732}, {"current_trial": 108, "trialdata": {"rt": -1000, "trial_type": "single-audio", "word": "infant", "stimulus": "/static/audio/wordpool/INFANT.wav", "conditions": [24, 800, "a", 12000], "internal_node_id": "0.0-81.0", "trial": 2, "time_elapsed": 614827, "serialpos": 19, "key_press": -1, "wordID": 736, "type": "PRES_AUD", "trial_index": 108}, "uniqueid": "MTK2445:3IKZ72A5B5NYY4S9DMKNAE3MLVLNFA", "dateTime": 1517256035530}, {"current_trial": 109, "trialdata": {"rt": -1000, "trial_type": "single-audio", "word": "patrol", "stimulus": "/static/audio/wordpool/PATROL.wav", "conditions": [24, 800, "a", 12000], "internal_node_id": "0.0-82.0", "trial": 2, "time_elapsed": 616634, "serialpos": 20, "key_press": -1, "wordID": 1026, "type": "PRES_AUD", "trial_index": 109}, "uniqueid": "MTK2445:3IKZ72A5B5NYY4S9DMKNAE3MLVLNFA", "dateTime": 1517256037337}, {"current_trial": 110, "trialdata": {"rt": -1000, "trial_type": "single-audio", "word": "rifle", "stimulus": "/static/audio/wordpool/RIFLE.wav", "conditions": [24, 800, "a", 12000], "internal_node_id": "0.0-83.0", "trial": 2, "time_elapsed": 618407, "serialpos": 21, "key_press": -1, "wordID": 1191, "type": "PRES_AUD", "trial_index": 110}, "uniqueid": "MTK2445:3IKZ72A5B5NYY4S9DMKNAE3MLVLNFA", "dateTime": 1517256039110}, {"current_trial": 111, "trialdata": {"rt": -1000, "trial_type": "single-audio", "word": "typist", "stimulus": "/static/audio/wordpool/TYPIST.wav", "conditions": [24, 800, "a", 12000], "internal_node_id": "0.0-84.0", "trial": 2, "time_elapsed": 620220, "serialpos": 22, "key_press": -1, "wordID": 1531, "type": "PRES_AUD", "trial_index": 111}, "uniqueid": "MTK2445:3IKZ72A5B5NYY4S9DMKNAE3MLVLNFA", "dateTime": 1517256040923}, {"current_trial": 112, "trialdata": {"rt": -1000, "trial_type": "single-audio", "word": "scissors", "stimulus": "/static/audio/wordpool/SCISSORS.wav", "conditions": [24, 800, "a", 12000], "internal_node_id": "0.0-85.0", "trial": 2, "time_elapsed": 621908, "serialpos": 23, "key_press": -1, "wordID": 1249, "type": "PRES_AUD", "trial_index": 112}, "uniqueid": "MTK2445:3IKZ72A5B5NYY4S9DMKNAE3MLVLNFA", "dateTime": 1517256042611}, {"current_trial": 113, "trialdata": {"rt": -1, "trial_type": "single-stim", "stimulus": "", "internal_node_id": "0.0-86.0-0.0", "time_elapsed": 623252, "key_press": -1, "type": "PRE_RECALL_DELAY", "trial_index": 113}, "uniqueid": "MTK2445:3IKZ72A5B5NYY4S9DMKNAE3MLVLNFA", "dateTime": 1517256043955}, {"current_trial": 114, "trialdata": {"rt": -1000, "trial_type": "single-audio", "stimulus": "/static/audio/400Hz.wav", "internal_node_id": "0.0-87.0", "time_elapsed": 623753, "key_press": -1, "type": "PRE_RECALL_ALERT", "trial_index": 114}, "uniqueid": "MTK2445:3IKZ72A5B5NYY4S9DMKNAE3MLVLNFA", "dateTime": 1517256044457}, {"current_trial": 115, "trialdata": {"rt": [2774, 4513, 6052, 7739, 9896, 11457, 16196, 17716, 32040, 41036, 42370], "recwords": ["typist", "scissors", "actor", "poet", "crib", "infant", "bacon", "omelette", "office", "rifle", "patrol"], "key_times": [1661, 1870, 2055, 2305, 2435, 2572, 2774, 3229, 3394, 3539, 3689, 3838, 3993, 4142, 4296, 4513, 5001, 5128, 5364, 5488, 5608, 6052, 7004, 7203, 7363, 7577, 7739, 8860, 9069, 9283, 9643, 9896, 10623, 10728, 10848, 11002, 11106, 11215, 11457, 15297, 15494, 15614, 15838, 15965, 16196, 16490, 16656, 16815, 16983, 17080, 17290, 17438, 17549, 17716, 30389, 30557, 30695, 30818, 30947, 31077, 32040, 40238, 40405, 40573, 40750, 40875, 41036, 41347, 41460, 41616, 41782, 41888, 42090, 42370], "trial_type": "free-recall", "conditions": [24, 800, "a", 12000], "internal_node_id": "0.0-88.0-0.0", "key_presses": [84, 89, 80, 73, 83, 84, 13, 83, 67, 73, 83, 83, 79, 82, 83, 13, 65, 67, 84, 79, 82, 13, 80, 79, 69, 84, 13, 67, 82, 73, 66, 13, 73, 78, 70, 65, 78, 84, 13, 66, 65, 67, 79, 78, 13, 79, 77, 69, 76, 69, 84, 84, 69, 13, 79, 70, 70, 73, 67, 69, 13, 82, 73, 70, 76, 69, 13, 80, 65, 84, 82, 79, 76, 13], "trial": 2, "time_elapsed": 683760, "type": "FREE_RECALL", "trial_index": 115}, "uniqueid": "MTK2445:3IKZ72A5B5NYY4S9DMKNAE3MLVLNFA", "dateTime": 1517256104469}, {"current_trial": 116, "trialdata": {"rt": 9274, "trial_type": "text", "internal_node_id": "0.0-89.0", "time_elapsed": 695041, "key_press": 73, "type": "INSTRUCTIONS", "trial_index": 116}, "uniqueid": "MTK2445:3IKZ72A5B5NYY4S9DMKNAE3MLVLNFA", "dateTime": 1517256115744}, {"current_trial": 117, "trialdata": {"rt": [3225, 5769, 8702, 11187, 13636, 16583, 19242, 22067], "trial_type": "math-distractor", "key_times": [2339, 2503, 3225, 4844, 5057, 5769, 7803, 8202, 8702, 10352, 10519, 11187, 12829, 13050, 13636, 15795, 15952, 16583, 18378, 18573, 19242, 20947, 21331, 22067], "responses": ["15", "10", "20", "10", "17", "11", "17", "13"], "num2": [4, 5, 5, 5, 6, 1, 6, 9, 2], "num3": [6, 1, 8, 1, 2, 3, 9, 1, 7], "conditions": [24, 1600, "a", 24000], "internal_node_id": "0.0-90.0", "key_presses": [49, 53, 13, 49, 48, 13, 50, 48, 13, 49, 48, 13, 49, 55, 13, 49, 49, 13, 49, 55, 13, 49, 51, 13], "trial": 3, "time_elapsed": 721046, "type": "DISTRACTOR", "trial_index": 117, "num1": [5, 4, 7, 4, 9, 7, 2, 3, 1]}, "uniqueid": "MTK2445:3IKZ72A5B5NYY4S9DMKNAE3MLVLNFA", "dateTime": 1517256141749}, {"current_trial": 118, "trialdata": {"rt": -1, "trial_type": "single-stim", "stimulus": "<p id=\"stim\">10</p>", "internal_node_id": "0.0-91.0-0.0", "time_elapsed": 724049, "key_press": -1, "trial_index": 118}, "uniqueid": "MTK2445:3IKZ72A5B5NYY4S9DMKNAE3MLVLNFA", "dateTime": 1517256144752}, {"current_trial": 119, "trialdata": {"rt": -1, "trial_type": "single-stim", "stimulus": "<p id=\"stim\">9</p>", "internal_node_id": "0.0-91.0-1.0", "time_elapsed": 725051, "key_press": -1, "trial_index": 119}, "uniqueid": "MTK2445:3IKZ72A5B5NYY4S9DMKNAE3MLVLNFA", "dateTime": 1517256145754}, {"current_trial": 120, "trialdata": {"rt": -1, "trial_type": "single-stim", "stimulus": "<p id=\"stim\">8</p>", "internal_node_id": "0.0-91.0-2.0", "time_elapsed": 726053, "key_press": -1, "trial_index": 120}, "uniqueid": "MTK2445:3IKZ72A5B5NYY4S9DMKNAE3MLVLNFA", "dateTime": 1517256146756}, {"current_trial": 121, "trialdata": {"rt": -1, "trial_type": "single-stim", "stimulus": "<p id=\"stim\">7</p>", "internal_node_id": "0.0-91.0-3.0", "time_elapsed": 727054, "key_press": -1, "trial_index": 121}, "uniqueid": "MTK2445:3IKZ72A5B5NYY4S9DMKNAE3MLVLNFA", "dateTime": 1517256147758}, {"current_trial": 122, "trialdata": {"rt": -1, "trial_type": "single-stim", "stimulus": "<p id=\"stim\">6</p>", "internal_node_id": "0.0-91.0-4.0", "time_elapsed": 728057, "key_press": -1, "trial_index": 122}, "uniqueid": "MTK2445:3IKZ72A5B5NYY4S9DMKNAE3MLVLNFA", "dateTime": 1517256148760}, {"current_trial": 123, "trialdata": {"rt": -1, "trial_type": "single-stim", "stimulus": "<p id=\"stim\">5</p>", "internal_node_id": "0.0-91.0-5.0", "time_elapsed": 729059, "key_press": -1, "trial_index": 123}, "uniqueid": "MTK2445:3IKZ72A5B5NYY4S9DMKNAE3MLVLNFA", "dateTime": 1517256149762}, {"current_trial": 124, "trialdata": {"rt": -1, "trial_type": "single-stim", "stimulus": "<p id=\"stim\">4</p>", "internal_node_id": "0.0-91.0-6.0", "time_elapsed": 730061, "key_press": -1, "trial_index": 124}, "uniqueid": "MTK2445:3IKZ72A5B5NYY4S9DMKNAE3MLVLNFA", "dateTime": 1517256150764}, {"current_trial": 125, "trialdata": {"rt": -1, "trial_type": "single-stim", "stimulus": "<p id=\"stim\">3</p>", "internal_node_id": "0.0-91.0-7.0", "time_elapsed": 731063, "key_press": -1, "trial_index": 125}, "uniqueid": "MTK2445:3IKZ72A5B5NYY4S9DMKNAE3MLVLNFA", "dateTime": 1517256151766}, {"current_trial": 126, "trialdata": {"rt": -1, "trial_type": "single-stim", "stimulus": "<p id=\"stim\">2</p>", "internal_node_id": "0.0-91.0-8.0", "time_elapsed": 732065, "key_press": -1, "trial_index": 126}, "uniqueid": "MTK2445:3IKZ72A5B5NYY4S9DMKNAE3MLVLNFA", "dateTime": 1517256152768}, {"current_trial": 127, "trialdata": {"rt": -1, "trial_type": "single-stim", "stimulus": "<p id=\"stim\">1</p>", "internal_node_id": "0.0-91.0-9.0", "time_elapsed": 733067, "key_press": -1, "trial_index": 127}, "uniqueid": "MTK2445:3IKZ72A5B5NYY4S9DMKNAE3MLVLNFA", "dateTime": 1517256153770}, {"current_trial": 128, "trialdata": {"rt": -1, "trial_type": "single-stim", "stimulus": "<p id=\"stim\">+</p>", "internal_node_id": "0.0-92.0-0.0", "time_elapsed": 734569, "key_press": -1, "type": "FIXATION", "trial_index": 128}, "uniqueid": "MTK2445:3IKZ72A5B5NYY4S9DMKNAE3MLVLNFA", "dateTime": 1517256155272}, {"current_trial": 129, "trialdata": {"rt": -1000, "trial_type": "single-audio", "word": "truck", "stimulus": "/static/audio/wordpool/TRUCK.wav", "conditions": [24, 1600, "a", 24000], "internal_node_id": "0.0-93.0", "trial": 3, "time_elapsed": 737195, "serialpos": 0, "key_press": -1, "wordID": 1511, "type": "PRES_AUD", "trial_index": 129}, "uniqueid": "MTK2445:3IKZ72A5B5NYY4S9DMKNAE3MLVLNFA", "dateTime": 1517256157899}, {"current_trial": 130, "trialdata": {"rt": -1000, "trial_type": "single-audio", "word": "costume", "stimulus": "/static/audio/wordpool/COSTUME.wav", "conditions": [24, 1600, "a", 24000], "internal_node_id": "0.0-94.0", "trial": 3, "time_elapsed": 739847, "serialpos": 1, "key_press": -1, "wordID": 382, "type": "PRES_AUD", "trial_index": 130}, "uniqueid": "MTK2445:3IKZ72A5B5NYY4S9DMKNAE3MLVLNFA", "dateTime": 1517256160551}, {"current_trial": 131, "trialdata": {"rt": -1000, "trial_type": "single-audio", "word": "puppy", "stimulus": "/static/audio/wordpool/PUPPY.wav", "conditions": [24, 1600, "a", 24000], "internal_node_id": "0.0-95.0", "trial": 3, "time_elapsed": 742309, "serialpos": 2, "key_press": -1, "wordID": 1143, "type": "PRES_AUD", "trial_index": 131}, "uniqueid": "MTK2445:3IKZ72A5B5NYY4S9DMKNAE3MLVLNFA", "dateTime": 1517256163012}, {"current_trial": 132, "trialdata": {"rt": -1000, "trial_type": "single-audio", "word": "beast", "stimulus": "/static/audio/wordpool/BEAST.wav", "conditions": [24, 1600, "a", 24000], "internal_node_id": "0.0-96.0", "trial": 3, "time_elapsed": 744848, "serialpos": 3, "key_press": -1, "wordID": 107, "type": "PRES_AUD", "trial_index": 132}, "uniqueid": "MTK2445:3IKZ72A5B5NYY4S9DMKNAE3MLVLNFA", "dateTime": 1517256165551}, {"current_trial": 133, "trialdata": {"rt": -1000, "trial_type": "single-audio", "word": "bullet", "stimulus": "/static/audio/wordpool/BULLET.wav", "conditions": [24, 1600, "a", 24000], "internal_node_id": "0.0-97.0", "trial": 3, "time_elapsed": 747575, "serialpos": 4, "key_press": -1, "wordID": 193, "type": "PRES_AUD", "trial_index": 133}, "uniqueid": "MTK2445:3IKZ72A5B5NYY4S9DMKNAE3MLVLNFA", "dateTime": 1517256168278}, {"current_trial": 134, "trialdata": {"rt": -1000, "trial_type": "single-audio", "word": "puddle", "stimulus": "/static/audio/wordpool/PUDDLE.wav", "conditions": [24, 1600, "a", 24000], "internal_node_id": "0.0-98.0", "trial": 3, "time_elapsed": 750072, "serialpos": 5, "key_press": -1, "wordID": 1139, "type": "PRES_AUD", "trial_index": 134}, "uniqueid": "MTK2445:3IKZ72A5B5NYY4S9DMKNAE3MLVLNFA", "dateTime": 1517256170775}, {"current_trial": 135, "trialdata": {"rt": -1000, "trial_type": "single-audio", "word": "piston", "stimulus": "/static/audio/wordpool/PISTON.wav", "conditions": [24, 1600, "a", 24000], "internal_node_id": "0.0-99.0", "trial": 3, "time_elapsed": 752494, "serialpos": 6, "key_press": -1, "wordID": 1075, "type": "PRES_AUD", "trial_index": 135}, "uniqueid": "MTK2445:3IKZ72A5B5NYY4S9DMKNAE3MLVLNFA", "dateTime": 1517256173198}, {"current_trial": 136, "trialdata": {"rt": -1000, "trial_type": "single-audio", "word": "valve", "stimulus": "/static/audio/wordpool/VALVE.wav", "conditions": [24, 1600, "a", 24000], "internal_node_id": "0.0-100.0", "trial": 3, "time_elapsed": 754971, "serialpos": 7, "key_press": -1, "wordID": 1545, "type": "PRES_AUD", "trial_index": 136}, "uniqueid": "MTK2445:3IKZ72A5B5NYY4S9DMKNAE3MLVLNFA", "dateTime": 1517256175674}, {"current_trial": 137, "trialdata": {"rt": -1000, "trial_type": "single-audio", "word": "peach", "stimulus": "/static/audio/wordpool/PEACH.wav", "conditions": [24, 1600, "a", 24000], "internal_node_id": "0.0-101.0", "trial": 3, "time_elapsed": 757480, "serialpos": 8, "key_press": -1, "wordID": 1030, "type": "PRES_AUD", "trial_index": 137}, "uniqueid": "MTK2445:3IKZ72A5B5NYY4S9DMKNAE3MLVLNFA", "dateTime": 1517256178183}, {"current_trial": 138, "trialdata": {"rt": -1000, "trial_type": "single-audio", "word": "blockade", "stimulus": "/static/audio/wordpool/BLOCKADE.wav", "conditions": [24, 1600, "a", 24000], "internal_node_id": "0.0-102.0", "trial": 3, "time_elapsed": 760076, "serialpos": 9, "key_press": -1, "wordID": 136, "type": "PRES_AUD", "trial_index": 138}, "uniqueid": "MTK2445:3IKZ72A5B5NYY4S9DMKNAE3MLVLNFA", "dateTime": 1517256180779}, {"current_trial": 139, "trialdata": {"rt": -1000, "trial_type": "single-audio", "word": "forest", "stimulus": "/static/audio/wordpool/FOREST.wav", "conditions": [24, 1600, "a", 24000], "internal_node_id": "0.0-103.0", "trial": 3, "time_elapsed": 762700, "serialpos": 10, "key_press": -1, "wordID": 592, "type": "PRES_AUD", "trial_index": 139}, "uniqueid": "MTK2445:3IKZ72A5B5NYY4S9DMKNAE3MLVLNFA", "dateTime": 1517256183403}, {"current_trial": 140, "trialdata": {"rt": -1000, "trial_type": "single-audio", "word": "scarecrow", "stimulus": "/static/audio/wordpool/SCARECROW.wav", "conditions": [24, 1600, "a", 24000], "internal_node_id": "0.0-104.0", "trial": 3, "time_elapsed": 765299, "serialpos": 11, "key_press": -1, "wordID": 1244, "type": "PRES_AUD", "trial_index": 140}, "uniqueid": "MTK2445:3IKZ72A5B5NYY4S9DMKNAE3MLVLNFA", "dateTime": 1517256186003}, {"current_trial": 141, "trialdata": {"rt": -1000, "trial_type": "single-audio", "word": "crevice", "stimulus": "/static/audio/wordpool/CREVICE.wav", "conditions": [24, 1600, "a", 24000], "internal_node_id": "0.0-105.0", "trial": 3, "time_elapsed": 767867, "serialpos": 12, "key_press": -1, "wordID": 404, "type": "PRES_AUD", "trial_index": 141}, "uniqueid": "MTK2445:3IKZ72A5B5NYY4S9DMKNAE3MLVLNFA", "dateTime": 1517256188571}, {"current_trial": 142, "trialdata": {"rt": -1000, "trial_type": "single-audio", "word": "pilot", "stimulus": "/static/audio/wordpool/PILOT.wav", "conditions": [24, 1600, "a", 24000], "internal_node_id": "0.0-106.0", "trial": 3, "time_elapsed": 770341, "serialpos": 13, "key_press": -1, "wordID": 1069, "type": "PRES_AUD", "trial_index": 142}, "uniqueid": "MTK2445:3IKZ72A5B5NYY4S9DMKNAE3MLVLNFA", "dateTime": 1517256191044}, {"current_trial": 143, "trialdata": {"rt": -1000, "trial_type": "single-audio", "word": "couch", "stimulus": "/static/audio/wordpool/COUCH.wav", "conditions": [24, 1600, "a", 24000], "internal_node_id": "0.0-107.0", "trial": 3, "time_elapsed": 772751, "serialpos": 14, "key_press": -1, "wordID": 385, "type": "PRES_AUD", "trial_index": 143}, "uniqueid": "MTK2445:3IKZ72A5B5NYY4S9DMKNAE3MLVLNFA", "dateTime": 1517256193454}, {"current_trial": 144, "trialdata": {"rt": -1000, "trial_type": "single-audio", "word": "dancer", "stimulus": "/static/audio/wordpool/DANCER.wav", "conditions": [24, 1600, "a", 24000], "internal_node_id": "0.0-108.0", "trial": 3, "time_elapsed": 775348, "serialpos": 15, "key_press": -1, "wordID": 436, "type": "PRES_AUD", "trial_index": 144}, "uniqueid": "MTK2445:3IKZ72A5B5NYY4S9DMKNAE3MLVLNFA", "dateTime": 1517256196051}, {"current_trial": 145, "trialdata": {"rt": -1000, "trial_type": "single-audio", "word": "gymnast", "stimulus": "/static/audio/wordpool/GYMNAST.wav", "conditions": [24, 1600, "a", 24000], "internal_node_id": "0.0-109.0", "trial": 3, "time_elapsed": 777886, "serialpos": 16, "key_press": -1, "wordID": 674, "type": "PRES_AUD", "trial_index": 145}, "uniqueid": "MTK2445:3IKZ72A5B5NYY4S9DMKNAE3MLVLNFA", "dateTime": 1517256198590}, {"current_trial": 146, "trialdata": {"rt": -1000, "trial_type": "single-audio", "word": "paper", "stimulus": "/static/audio/wordpool/PAPER.wav", "conditions": [24, 1600, "a", 24000], "internal_node_id": "0.0-110.0", "trial": 3, "time_elapsed": 780621, "serialpos": 17, "key_press": -1, "wordID": 1010, "type": "PRES_AUD", "trial_index": 146}, "uniqueid": "MTK2445:3IKZ72A5B5NYY4S9DMKNAE3MLVLNFA", "dateTime": 1517256201324}, {"current_trial": 147, "trialdata": {"rt": -1000, "trial_type": "single-audio", "word": "penguin", "stimulus": "/static/audio/wordpool/PENGUIN.wav", "conditions": [24, 1600, "a", 24000], "internal_node_id": "0.0-111.0", "trial": 3, "time_elapsed": 783371, "serialpos": 18, "key_press": -1, "wordID": 1043, "type": "PRES_AUD", "trial_index": 147}, "uniqueid": "MTK2445:3IKZ72A5B5NYY4S9DMKNAE3MLVLNFA", "dateTime": 1517256204075}, {"current_trial": 148, "trialdata": {"rt": -1000, "trial_type": "single-audio", "word": "airplane", "stimulus": "/static/audio/wordpool/AIRPLANE.wav", "conditions": [24, 1600, "a", 24000], "internal_node_id": "0.0-112.0", "trial": 3, "time_elapsed": 786065, "serialpos": 19, "key_press": -1, "wordID": 11, "type": "PRES_AUD", "trial_index": 148}, "uniqueid": "MTK2445:3IKZ72A5B5NYY4S9DMKNAE3MLVLNFA", "dateTime": 1517256206768}, {"current_trial": 149, "trialdata": {"rt": -1000, "trial_type": "single-audio", "word": "ox", "stimulus": "/static/audio/wordpool/OX.wav", "conditions": [24, 1600, "a", 24000], "internal_node_id": "0.0-113.0", "trial": 3, "time_elapsed": 788593, "serialpos": 20, "key_press": -1, "wordID": 993, "type": "PRES_AUD", "trial_index": 149}, "uniqueid": "MTK2445:3IKZ72A5B5NYY4S9DMKNAE3MLVLNFA", "dateTime": 1517256209296}, {"current_trial": 150, "trialdata": {"rt": -1000, "trial_type": "single-audio", "word": "mattress", "stimulus": "/static/audio/wordpool/MATTRESS.wav", "conditions": [24, 1600, "a", 24000], "internal_node_id": "0.0-114.0", "trial": 3, "time_elapsed": 791194, "serialpos": 21, "key_press": -1, "wordID": 878, "type": "PRES_AUD", "trial_index": 150}, "uniqueid": "MTK2445:3IKZ72A5B5NYY4S9DMKNAE3MLVLNFA", "dateTime": 1517256211897}, {"current_trial": 151, "trialdata": {"rt": -1000, "trial_type": "single-audio", "word": "seagull", "stimulus": "/static/audio/wordpool/SEAGULL.wav", "conditions": [24, 1600, "a", 24000], "internal_node_id": "0.0-115.0", "trial": 3, "time_elapsed": 793803, "serialpos": 22, "key_press": -1, "wordID": 1260, "type": "PRES_AUD", "trial_index": 151}, "uniqueid": "MTK2445:3IKZ72A5B5NYY4S9DMKNAE3MLVLNFA", "dateTime": 1517256214507}, {"current_trial": 152, "trialdata": {"rt": -1000, "trial_type": "single-audio", "word": "iceberg", "stimulus": "/static/audio/wordpool/ICEBERG.wav", "conditions": [24, 1600, "a", 24000], "internal_node_id": "0.0-116.0", "trial": 3, "time_elapsed": 796501, "serialpos": 23, "key_press": -1, "wordID": 730, "type": "PRES_AUD", "trial_index": 152}, "uniqueid": "MTK2445:3IKZ72A5B5NYY4S9DMKNAE3MLVLNFA", "dateTime": 1517256217204}, {"current_trial": 153, "trialdata": {"rt": -1, "trial_type": "single-stim", "stimulus": "", "internal_node_id": "0.0-117.0-0.0", "time_elapsed": 797761, "key_press": -1, "type": "PRE_RECALL_DELAY", "trial_index": 153}, "uniqueid": "MTK2445:3IKZ72A5B5NYY4S9DMKNAE3MLVLNFA", "dateTime": 1517256218464}, {"current_trial": 154, "trialdata": {"rt": -1000, "trial_type": "single-audio", "stimulus": "/static/audio/400Hz.wav", "internal_node_id": "0.0-118.0", "time_elapsed": 798263, "key_press": -1, "type": "PRE_RECALL_ALERT", "trial_index": 154}, "uniqueid": "MTK2445:3IKZ72A5B5NYY4S9DMKNAE3MLVLNFA", "dateTime": 1517256218966}, {"current_trial": 155, "trialdata": {"rt": [2314, 3868, 5799, 7322, 8407, 9181, 13339, 15319, 23199, 26097], "recwords": ["iceberg", "puppy", "penguin", "seagull", "beast", "ox", "mattress", "crevice", "pilot", "airplane"], "key_times": [1067, 1209, 1389, 1609, 1760, 1848, 2099, 2314, 2964, 3149, 3356, 3514, 3667, 3868, 4654, 4758, 4902, 5065, 5226, 5386, 5535, 5799, 6034, 6255, 6455, 6644, 6740, 6950, 7122, 7322, 7624, 7717, 7915, 7978, 8161, 8407, 8795, 8948, 9181, 12127, 12250, 12410, 12541, 12742, 12825, 13030, 13165, 13339, 14193, 14416, 14515, 14765, 14913, 15057, 15155, 15319, 21157, 21422, 21654, 21844, 21935, 23199, 24835, 24999, 25095, 25333, 25544, 25690, 25824, 25885, 26097, 59768, 59983], "trial_type": "free-recall", "conditions": [24, 1600, "a", 24000], "internal_node_id": "0.0-119.0-0.0", "key_presses": [73, 67, 69, 66, 69, 82, 71, 13, 80, 85, 80, 80, 89, 13, 80, 69, 78, 71, 85, 73, 78, 13, 83, 69, 65, 71, 85, 76, 76, 13, 66, 69, 65, 83, 84, 13, 79, 88, 13, 77, 65, 84, 84, 82, 69, 83, 83, 13, 67, 82, 69, 86, 73, 67, 69, 13, 80, 73, 76, 79, 84, 13, 65, 73, 82, 80, 76, 65, 78, 69, 13, 71, 89], "trial": 3, "time_elapsed": 858268, "type": "FREE_RECALL", "trial_index": 155}, "uniqueid": "MTK2445:3IKZ72A5B5NYY4S9DMKNAE3MLVLNFA", "dateTime": 1517256278978}, {"current_trial": 156, "trialdata": {"rt": 1584, "trial_type": "text", "internal_node_id": "0.0-120.0", "time_elapsed": 861860, "key_press": 74, "type": "INSTRUCTIONS", "trial_index": 156}, "uniqueid": "MTK2445:3IKZ72A5B5NYY4S9DMKNAE3MLVLNFA", "dateTime": 1517256282564}, {"current_trial": 157, "trialdata": {"rt": [2536, 4310, 6850, 9434, 11869, 13545, 16630, 19033, 22151], "trial_type": "math-distractor", "key_times": [1569, 1835, 2536, 4087, 4310, 6653, 6850, 8867, 9269, 9434, 11467, 11634, 11869, 13246, 13412, 13545, 15896, 16466, 16630, 18389, 18852, 19033, 21519, 21922, 22151, 23922], "responses": ["15", "5", "8", "15", "11", "11", "18", "16", "15"], "num2": [4, 2, 2, 2, 2, 1, 4, 6, 9, 1], "num3": [3, 1, 3, 9, 2, 5, 7, 4, 4, 6], "conditions": [12, 800, "a", 24000], "internal_node_id": "0.0-121.0", "key_presses": [49, 53, 13, 53, 13, 56, 13, 49, 53, 13, 49, 49, 13, 49, 49, 13, 49, 56, 13, 49, 54, 13, 49, 53, 13, 49], "trial": 4, "time_elapsed": 887866, "type": "DISTRACTOR", "trial_index": 157, "num1": [8, 2, 3, 4, 7, 5, 7, 6, 2, 7]}, "uniqueid": "MTK2445:3IKZ72A5B5NYY4S9DMKNAE3MLVLNFA", "dateTime": 1517256308569}, {"current_trial": 158, "trialdata": {"rt": -1, "trial_type": "single-stim", "stimulus": "<p id=\"stim\">10</p>", "internal_node_id": "0.0-122.0-0.0", "time_elapsed": 890868, "key_press": -1, "trial_index": 158}, "uniqueid": "MTK2445:3IKZ72A5B5NYY4S9DMKNAE3MLVLNFA", "dateTime": 1517256311571}, {"current_trial": 159, "trialdata": {"rt": -1, "trial_type": "single-stim", "stimulus": "<p id=\"stim\">9</p>", "internal_node_id": "0.0-122.0-1.0", "time_elapsed": 891870, "key_press": -1, "trial_index": 159}, "uniqueid": "MTK2445:3IKZ72A5B5NYY4S9DMKNAE3MLVLNFA", "dateTime": 1517256312573}, {"current_trial": 160, "trialdata": {"rt": -1, "trial_type": "single-stim", "stimulus": "<p id=\"stim\">8</p>", "internal_node_id": "0.0-122.0-2.0", "time_elapsed": 892872, "key_press": -1, "trial_index": 160}, "uniqueid": "MTK2445:3IKZ72A5B5NYY4S9DMKNAE3MLVLNFA", "dateTime": 1517256313575}, {"current_trial": 161, "trialdata": {"rt": -1, "trial_type": "single-stim", "stimulus": "<p id=\"stim\">7</p>", "internal_node_id": "0.0-122.0-3.0", "time_elapsed": 893874, "key_press": -1, "trial_index": 161}, "uniqueid": "MTK2445:3IKZ72A5B5NYY4S9DMKNAE3MLVLNFA", "dateTime": 1517256314578}, {"current_trial": 162, "trialdata": {"rt": -1, "trial_type": "single-stim", "stimulus": "<p id=\"stim\">6</p>", "internal_node_id": "0.0-122.0-4.0", "time_elapsed": 894876, "key_press": -1, "trial_index": 162}, "uniqueid": "MTK2445:3IKZ72A5B5NYY4S9DMKNAE3MLVLNFA", "dateTime": 1517256315580}, {"current_trial": 163, "trialdata": {"rt": -1, "trial_type": "single-stim", "stimulus": "<p id=\"stim\">5</p>", "internal_node_id": "0.0-122.0-5.0", "time_elapsed": 895878, "key_press": -1, "trial_index": 163}, "uniqueid": "MTK2445:3IKZ72A5B5NYY4S9DMKNAE3MLVLNFA", "dateTime": 1517256316582}, {"current_trial": 164, "trialdata": {"rt": -1, "trial_type": "single-stim", "stimulus": "<p id=\"stim\">4</p>", "internal_node_id": "0.0-122.0-6.0", "time_elapsed": 896880, "key_press": -1, "trial_index": 164}, "uniqueid": "MTK2445:3IKZ72A5B5NYY4S9DMKNAE3MLVLNFA", "dateTime": 1517256317584}, {"current_trial": 165, "trialdata": {"rt": -1, "trial_type": "single-stim", "stimulus": "<p id=\"stim\">3</p>", "internal_node_id": "0.0-122.0-7.0", "time_elapsed": 897882, "key_press": -1, "trial_index": 165}, "uniqueid": "MTK2445:3IKZ72A5B5NYY4S9DMKNAE3MLVLNFA", "dateTime": 1517256318586}, {"current_trial": 166, "trialdata": {"rt": -1, "trial_type": "single-stim", "stimulus": "<p id=\"stim\">2</p>", "internal_node_id": "0.0-122.0-8.0", "time_elapsed": 898884, "key_press": -1, "trial_index": 166}, "uniqueid": "MTK2445:3IKZ72A5B5NYY4S9DMKNAE3MLVLNFA", "dateTime": 1517256319588}, {"current_trial": 167, "trialdata": {"rt": -1, "trial_type": "single-stim", "stimulus": "<p id=\"stim\">1</p>", "internal_node_id": "0.0-122.0-9.0", "time_elapsed": 899887, "key_press": -1, "trial_index": 167}, "uniqueid": "MTK2445:3IKZ72A5B5NYY4S9DMKNAE3MLVLNFA", "dateTime": 1517256320590}, {"current_trial": 168, "trialdata": {"rt": -1, "trial_type": "single-stim", "stimulus": "<p id=\"stim\">+</p>", "internal_node_id": "0.0-123.0-0.0", "time_elapsed": 901388, "key_press": -1, "type": "FIXATION", "trial_index": 168}, "uniqueid": "MTK2445:3IKZ72A5B5NYY4S9DMKNAE3MLVLNFA", "dateTime": 1517256322094}, {"current_trial": 169, "trialdata": {"rt": -1000, "trial_type": "single-audio", "word": "stamp", "stimulus": "/static/audio/wordpool/STAMP.wav", "conditions": [12, 800, "a", 24000], "internal_node_id": "0.0-124.0", "trial": 4, "time_elapsed": 903075, "serialpos": 0, "key_press": -1, "wordID": 1369, "type": "PRES_AUD", "trial_index": 169}, "uniqueid": "MTK2445:3IKZ72A5B5NYY4S9DMKNAE3MLVLNFA", "dateTime": 1517256323778}, {"current_trial": 170, "trialdata": {"rt": -1000, "trial_type": "single-audio", "word": "cookbook", "stimulus": "/static/audio/wordpool/COOKBOOK.wav", "conditions": [12, 800, "a", 24000], "internal_node_id": "0.0-125.0", "trial": 4, "time_elapsed": 904972, "serialpos": 1, "key_press": -1, "wordID": 372, "type": "PRES_AUD", "trial_index": 170}, "uniqueid": "MTK2445:3IKZ72A5B5NYY4S9DMKNAE3MLVLNFA", "dateTime": 1517256325675}, {"current_trial": 171, "trialdata": {"rt": -1000, "trial_type": "single-audio", "word": "girl", "stimulus": "/static/audio/wordpool/GIRL.wav", "conditions": [12, 800, "a", 24000], "internal_node_id": "0.0-126.0", "trial": 4, "time_elapsed": 906771, "serialpos": 2, "key_press": -1, "wordID": 636, "type": "PRES_AUD", "trial_index": 171}, "uniqueid": "MTK2445:3IKZ72A5B5NYY4S9DMKNAE3MLVLNFA", "dateTime": 1517256327474}, {"current_trial": 172, "trialdata": {"rt": -1000, "trial_type": "single-audio", "word": "blackboard", "stimulus": "/static/audio/wordpool/BLACKBOARD.wav", "conditions": [12, 800, "a", 24000], "internal_node_id": "0.0-127.0", "trial": 4, "time_elapsed": 908422, "serialpos": 3, "key_press": -1, "wordID": 132, "type": "PRES_AUD", "trial_index": 172}, "uniqueid": "MTK2445:3IKZ72A5B5NYY4S9DMKNAE3MLVLNFA", "dateTime": 1517256329126}, {"current_trial": 173, "trialdata": {"rt": -1000, "trial_type": "single-audio", "word": "cashew", "stimulus": "/static/audio/wordpool/CASHEW.wav", "conditions": [12, 800, "a", 24000], "internal_node_id": "0.0-128.0", "trial": 4, "time_elapsed": 910258, "serialpos": 4, "key_press": -1, "wordID": 252, "type": "PRES_AUD", "trial_index": 173}, "uniqueid": "MTK2445:3IKZ72A5B5NYY4S9DMKNAE3MLVLNFA", "dateTime": 1517256330961}, {"current_trial": 174, "trialdata": {"rt": -1000, "trial_type": "single-audio", "word": "gallon", "stimulus": "/static/audio/wordpool/GALLON.wav", "conditions": [12, 800, "a", 24000], "internal_node_id": "0.0-129.0", "trial": 4, "time_elapsed": 911865, "serialpos": 5, "key_press": -1, "wordID": 617, "type": "PRES_AUD", "trial_index": 174}, "uniqueid": "MTK2445:3IKZ72A5B5NYY4S9DMKNAE3MLVLNFA", "dateTime": 1517256332568}, {"current_trial": 175, "trialdata": {"rt": -1000, "trial_type": "single-audio", "word": "doughnut", "stimulus": "/static/audio/wordpool/DOUGHNUT.wav", "conditions": [12, 800, "a", 24000], "internal_node_id": "0.0-130.0", "trial": 4, "time_elapsed": 913700, "serialpos": 6, "key_press": -1, "wordID": 489, "type": "PRES_AUD", "trial_index": 175}, "uniqueid": "MTK2445:3IKZ72A5B5NYY4S9DMKNAE3MLVLNFA", "dateTime": 1517256334404}, {"current_trial": 176, "trialdata": {"rt": -1000, "trial_type": "single-audio", "word": "country", "stimulus": "/static/audio/wordpool/COUNTRY.wav", "conditions": [12, 800, "a", 24000], "internal_node_id": "0.0-131.0", "trial": 4, "time_elapsed": 915525, "serialpos": 7, "key_press": -1, "wordID": 387, "type": "PRES_AUD", "trial_index": 176}, "uniqueid": "MTK2445:3IKZ72A5B5NYY4S9DMKNAE3MLVLNFA", "dateTime": 1517256336229}, {"current_trial": 177, "trialdata": {"rt": -1000, "trial_type": "single-audio", "word": "uncle", "stimulus": "/static/audio/wordpool/UNCLE.wav", "conditions": [12, 800, "a", 24000], "internal_node_id": "0.0-132.0", "trial": 4, "time_elapsed": 917406, "serialpos": 8, "key_press": -1, "wordID": 1535, "type": "PRES_AUD", "trial_index": 177}, "uniqueid": "MTK2445:3IKZ72A5B5NYY4S9DMKNAE3MLVLNFA", "dateTime": 1517256338109}, {"current_trial": 178, "trialdata": {"rt": -1000, "trial_type": "single-audio", "word": "wife", "stimulus": "/static/audio/wordpool/WIFE.wav", "conditions": [12, 800, "a", 24000], "internal_node_id": "0.0-133.0", "trial": 4, "time_elapsed": 919227, "serialpos": 9, "key_press": -1, "wordID": 1608, "type": "PRES_AUD", "trial_index": 178}, "uniqueid": "MTK2445:3IKZ72A5B5NYY4S9DMKNAE3MLVLNFA", "dateTime": 1517256339931}, {"current_trial": 179, "trialdata": {"rt": -1000, "trial_type": "single-audio", "word": "daughter", "stimulus": "/static/audio/wordpool/DAUGHTER.wav", "conditions": [12, 800, "a", 24000], "internal_node_id": "0.0-134.0", "trial": 4, "time_elapsed": 921195, "serialpos": 10, "key_press": -1, "wordID": 441, "type": "PRES_AUD", "trial_index": 179}, "uniqueid": "MTK2445:3IKZ72A5B5NYY4S9DMKNAE3MLVLNFA", "dateTime": 1517256341898}, {"current_trial": 180, "trialdata": {"rt": -1000, "trial_type": "single-audio", "word": "empire", "stimulus": "/static/audio/wordpool/EMPIRE.wav", "conditions": [12, 800, "a", 24000], "internal_node_id": "0.0-135.0", "trial": 4, "time_elapsed": 923041, "serialpos": 11, "key_press": -1, "wordID": 529, "type": "PRES_AUD", "trial_index": 180}, "uniqueid": "MTK2445:3IKZ72A5B5NYY4S9DMKNAE3MLVLNFA", "dateTime": 1517256343744}, {"current_trial": 181, "trialdata": {"rt": -1, "trial_type": "single-stim", "stimulus": "", "internal_node_id": "0.0-136.0-0.0", "time_elapsed": 924259, "key_press": -1, "type": "PRE_RECALL_DELAY", "trial_index": 181}, "uniqueid": "MTK2445:3IKZ72A5B5NYY4S9DMKNAE3MLVLNFA", "dateTime": 1517256344962}, {"current_trial": 182, "trialdata": {"rt": -1000, "trial_type": "single-audio", "stimulus": "/static/audio/400Hz.wav", "internal_node_id": "0.0-137.0", "time_elapsed": 924761, "key_press": -1, "type": "PRE_RECALL_ALERT", "trial_index": 182}, "uniqueid": "MTK2445:3IKZ72A5B5NYY4S9DMKNAE3MLVLNFA", "dateTime": 1517256345464}, {"current_trial": 183, "trialdata": {"rt": [2790, 3829, 4682, 6652, 9278, 12562, 24106], "recwords": ["empire", "uncle", "girl", "daughter", "blackboard", "teacher", "wife"], "key_times": [1339, 1652, 1884, 2060, 2194, 2282, 2790, 3083, 3283, 3415, 3538, 3661, 3829, 4103, 4216, 4350, 4447, 4682, 5394, 5580, 5713, 5858, 6006, 6242, 6387, 6480, 6652, 7686, 7906, 8018, 8146, 8225, 8498, 8623, 8784, 8887, 9052, 9278, 11645, 11781, 11982, 12075, 12226, 12283, 12375, 12562, 23076, 23299, 23571, 23712, 24106], "trial_type": "free-recall", "conditions": [12, 800, "a", 24000], "internal_node_id": "0.0-138.0-0.0", "key_presses": [69, 77, 80, 73, 82, 69, 13, 85, 78, 67, 76, 69, 13, 71, 73, 82, 76, 13, 68, 65, 85, 71, 72, 84, 69, 82, 13, 66, 76, 65, 67, 75, 66, 79, 65, 82, 68, 13, 84, 69, 65, 67, 72, 69, 82, 13, 87, 73, 70, 69, 13], "trial": 4, "time_elapsed": 984767, "type": "FREE_RECALL", "trial_index": 183}, "uniqueid": "MTK2445:3IKZ72A5B5NYY4S9DMKNAE3MLVLNFA", "dateTime": 1517256405479}, {"current_trial": 184, "trialdata": {"rt": 36469, "trial_type": "text", "internal_node_id": "0.0-139.0", "time_elapsed": 1023246, "key_press": 74, "type": "INSTRUCTIONS", "trial_index": 184}, "uniqueid": "MTK2445:3IKZ72A5B5NYY4S9DMKNAE3MLVLNFA", "dateTime": 1517256443950}, {"current_trial": 185, "trialdata": {"rt": [2452, 5655, 8229, 10829], "trial_type": "math-distractor", "key_times": [1652, 2016, 2452, 4734, 4982, 5655, 7389, 7751, 8229, 9657, 9951, 10829], "responses": ["15", "12", "10", "15"], "num2": [6, 2, 4, 4, 3], "num3": [1, 5, 4, 7, 2], "conditions": [24, 1600, "a", 12000], "internal_node_id": "0.0-140.0", "key_presses": [49, 53, 13, 49, 50, 13, 49, 48, 13, 49, 53, 13], "trial": 5, "time_elapsed": 1037252, "type": "DISTRACTOR", "trial_index": 185, "num1": [8, 5, 2, 4, 7]}, "uniqueid": "MTK2445:3IKZ72A5B5NYY4S9DMKNAE3MLVLNFA", "dateTime": 1517256457956}, {"current_trial": 186, "trialdata": {"rt": -1, "trial_type": "single-stim", "stimulus": "<p id=\"stim\">10</p>", "internal_node_id": "0.0-141.0-0.0", "time_elapsed": 1040256, "key_press": -1, "trial_index": 186}, "uniqueid": "MTK2445:3IKZ72A5B5NYY4S9DMKNAE3MLVLNFA", "dateTime": 1517256460959}, {"current_trial": 187, "trialdata": {"rt": -1, "trial_type": "single-stim", "stimulus": "<p id=\"stim\">9</p>", "internal_node_id": "0.0-141.0-1.0", "time_elapsed": 1041258, "key_press": -1, "trial_index": 187}, "uniqueid": "MTK2445:3IKZ72A5B5NYY4S9DMKNAE3MLVLNFA", "dateTime": 1517256461961}, {"current_trial": 188, "trialdata": {"rt": -1, "trial_type": "single-stim", "stimulus": "<p id=\"stim\">8</p>", "internal_node_id": "0.0-141.0-2.0", "time_elapsed": 1042260, "key_press": -1, "trial_index": 188}, "uniqueid": "MTK2445:3IKZ72A5B5NYY4S9DMKNAE3MLVLNFA", "dateTime": 1517256462963}, {"current_trial": 189, "trialdata": {"rt": -1, "trial_type": "single-stim", "stimulus": "<p id=\"stim\">7</p>", "internal_node_id": "0.0-141.0-3.0", "time_elapsed": 1043262, "key_press": -1, "trial_index": 189}, "uniqueid": "MTK2445:3IKZ72A5B5NYY4S9DMKNAE3MLVLNFA", "dateTime": 1517256463966}, {"current_trial": 190, "trialdata": {"rt": -1, "trial_type": "single-stim", "stimulus": "<p id=\"stim\">6</p>", "internal_node_id": "0.0-141.0-4.0", "time_elapsed": 1044264, "key_press": -1, "trial_index": 190}, "uniqueid": "MTK2445:3IKZ72A5B5NYY4S9DMKNAE3MLVLNFA", "dateTime": 1517256464967}, {"current_trial": 191, "trialdata": {"rt": -1, "trial_type": "single-stim", "stimulus": "<p id=\"stim\">5</p>", "internal_node_id": "0.0-141.0-5.0", "time_elapsed": 1045266, "key_press": -1, "trial_index": 191}, "uniqueid": "MTK2445:3IKZ72A5B5NYY4S9DMKNAE3MLVLNFA", "dateTime": 1517256465970}, {"current_trial": 192, "trialdata": {"rt": -1, "trial_type": "single-stim", "stimulus": "<p id=\"stim\">4</p>", "internal_node_id": "0.0-141.0-6.0", "time_elapsed": 1046268, "key_press": -1, "trial_index": 192}, "uniqueid": "MTK2445:3IKZ72A5B5NYY4S9DMKNAE3MLVLNFA", "dateTime": 1517256466972}, {"current_trial": 193, "trialdata": {"rt": -1, "trial_type": "single-stim", "stimulus": "<p id=\"stim\">3</p>", "internal_node_id": "0.0-141.0-7.0", "time_elapsed": 1047270, "key_press": -1, "trial_index": 193}, "uniqueid": "MTK2445:3IKZ72A5B5NYY4S9DMKNAE3MLVLNFA", "dateTime": 1517256467974}, {"current_trial": 194, "trialdata": {"rt": -1, "trial_type": "single-stim", "stimulus": "<p id=\"stim\">2</p>", "internal_node_id": "0.0-141.0-8.0", "time_elapsed": 1048272, "key_press": -1, "trial_index": 194}, "uniqueid": "MTK2445:3IKZ72A5B5NYY4S9DMKNAE3MLVLNFA", "dateTime": 1517256468975}, {"current_trial": 195, "trialdata": {"rt": -1, "trial_type": "single-stim", "stimulus": "<p id=\"stim\">1</p>", "internal_node_id": "0.0-141.0-9.0", "time_elapsed": 1049274, "key_press": -1, "trial_index": 195}, "uniqueid": "MTK2445:3IKZ72A5B5NYY4S9DMKNAE3MLVLNFA", "dateTime": 1517256469978}, {"current_trial": 196, "trialdata": {"rt": -1, "trial_type": "single-stim", "stimulus": "<p id=\"stim\">+</p>", "internal_node_id": "0.0-142.0-0.0", "time_elapsed": 1050777, "key_press": -1, "type": "FIXATION", "trial_index": 196}, "uniqueid": "MTK2445:3IKZ72A5B5NYY4S9DMKNAE3MLVLNFA", "dateTime": 1517256471480}, {"current_trial": 197, "trialdata": {"rt": -1000, "trial_type": "single-audio", "word": "keeper", "stimulus": "/static/audio/wordpool/KEEPER.wav", "conditions": [24, 1600, "a", 12000], "internal_node_id": "0.0-143.0", "trial": 5, "time_elapsed": 1053365, "serialpos": 0, "key_press": -1, "wordID": 768, "type": "PRES_AUD", "trial_index": 197}, "uniqueid": "MTK2445:3IKZ72A5B5NYY4S9DMKNAE3MLVLNFA", "dateTime": 1517256474069}, {"current_trial": 198, "trialdata": {"rt": -1000, "trial_type": "single-audio", "word": "shovel", "stimulus": "/static/audio/wordpool/SHOVEL.wav", "conditions": [24, 1600, "a", 12000], "internal_node_id": "0.0-144.0", "trial": 5, "time_elapsed": 1056073, "serialpos": 1, "key_press": -1, "wordID": 1294, "type": "PRES_AUD", "trial_index": 198}, "uniqueid": "MTK2445:3IKZ72A5B5NYY4S9DMKNAE3MLVLNFA", "dateTime": 1517256476777}, {"current_trial": 199, "trialdata": {"rt": -1000, "trial_type": "single-audio", "word": "baby", "stimulus": "/static/audio/wordpool/BABY.wav", "conditions": [24, 1600, "a", 12000], "internal_node_id": "0.0-145.0", "trial": 5, "time_elapsed": 1058484, "serialpos": 2, "key_press": -1, "wordID": 63, "type": "PRES_AUD", "trial_index": 199}, "uniqueid": "MTK2445:3IKZ72A5B5NYY4S9DMKNAE3MLVLNFA", "dateTime": 1517256479187}, {"current_trial": 200, "trialdata": {"rt": -1000, "trial_type": "single-audio", "word": "subway", "stimulus": "/static/audio/wordpool/SUBWAY.wav", "conditions": [24, 1600, "a", 12000], "internal_node_id": "0.0-146.0", "trial": 5, "time_elapsed": 1061038, "serialpos": 3, "key_press": -1, "wordID": 1399, "type": "PRES_AUD", "trial_index": 200}, "uniqueid": "MTK2445:3IKZ72A5B5NYY4S9DMKNAE3MLVLNFA", "dateTime": 1517256481742}, {"current_trial": 201, "trialdata": {"rt": -1000, "trial_type": "single-audio", "word": "chapel", "stimulus": "/static/audio/wordpool/CHAPEL.wav", "conditions": [24, 1600, "a", 12000], "internal_node_id": "0.0-147.0", "trial": 5, "time_elapsed": 1063602, "serialpos": 4, "key_press": -1, "wordID": 279, "type": "PRES_AUD", "trial_index": 201}, "uniqueid": "MTK2445:3IKZ72A5B5NYY4S9DMKNAE3MLVLNFA", "dateTime": 1517256484307}, {"current_trial": 202, "trialdata": {"rt": -1000, "trial_type": "single-audio", "word": "tweezers", "stimulus": "/static/audio/wordpool/TWEEZERS.wav", "conditions": [24, 1600, "a", 12000], "internal_node_id": "0.0-148.0", "trial": 5, "time_elapsed": 1066025, "serialpos": 5, "key_press": -1, "wordID": 1525, "type": "PRES_AUD", "trial_index": 202}, "uniqueid": "MTK2445:3IKZ72A5B5NYY4S9DMKNAE3MLVLNFA", "dateTime": 1517256486729}, {"current_trial": 203, "trialdata": {"rt": -1000, "trial_type": "single-audio", "word": "honey", "stimulus": "/static/audio/wordpool/HONEY.wav", "conditions": [24, 1600, "a", 12000], "internal_node_id": "0.0-149.0", "trial": 5, "time_elapsed": 1068512, "serialpos": 6, "key_press": -1, "wordID": 712, "type": "PRES_AUD", "trial_index": 203}, "uniqueid": "MTK2445:3IKZ72A5B5NYY4S9DMKNAE3MLVLNFA", "dateTime": 1517256489216}, {"current_trial": 204, "trialdata": {"rt": -1000, "trial_type": "single-audio", "word": "farmer", "stimulus": "/static/audio/wordpool/FARMER.wav", "conditions": [24, 1600, "a", 12000], "internal_node_id": "0.0-150.0", "trial": 5, "time_elapsed": 1071043, "serialpos": 7, "key_press": -1, "wordID": 552, "type": "PRES_AUD", "trial_index": 204}, "uniqueid": "MTK2445:3IKZ72A5B5NYY4S9DMKNAE3MLVLNFA", "dateTime": 1517256491746}, {"current_trial": 205, "trialdata": {"rt": -1000, "trial_type": "single-audio", "word": "whiskers", "stimulus": "/static/audio/wordpool/WHISKERS.wav", "conditions": [24, 1600, "a", 12000], "internal_node_id": "0.0-151.0", "trial": 5, "time_elapsed": 1073579, "serialpos": 8, "key_press": -1, "wordID": 1604, "type": "PRES_AUD", "trial_index": 205}, "uniqueid": "MTK2445:3IKZ72A5B5NYY4S9DMKNAE3MLVLNFA", "dateTime": 1517256494283}, {"current_trial": 206, "trialdata": {"rt": -1000, "trial_type": "single-audio", "word": "survey", "stimulus": "/static/audio/wordpool/SURVEY.wav", "conditions": [24, 1600, "a", 12000], "internal_node_id": "0.0-152.0", "trial": 5, "time_elapsed": 1076126, "serialpos": 9, "key_press": -1, "wordID": 1413, "type": "PRES_AUD", "trial_index": 206}, "uniqueid": "MTK2445:3IKZ72A5B5NYY4S9DMKNAE3MLVLNFA", "dateTime": 1517256496829}, {"current_trial": 207, "trialdata": {"rt": -1000, "trial_type": "single-audio", "word": "report", "stimulus": "/static/audio/wordpool/REPORT.wav", "conditions": [24, 1600, "a", 12000], "internal_node_id": "0.0-153.0", "trial": 5, "time_elapsed": 1078554, "serialpos": 10, "key_press": -1, "wordID": 1183, "type": "PRES_AUD", "trial_index": 207}, "uniqueid": "MTK2445:3IKZ72A5B5NYY4S9DMKNAE3MLVLNFA", "dateTime": 1517256499257}, {"current_trial": 208, "trialdata": {"rt": -1000, "trial_type": "single-audio", "word": "church", "stimulus": "/static/audio/wordpool/CHURCH.wav", "conditions": [24, 1600, "a", 12000], "internal_node_id": "0.0-154.0", "trial": 5, "time_elapsed": 1081098, "serialpos": 11, "key_press": -1, "wordID": 306, "type": "PRES_AUD", "trial_index": 208}, "uniqueid": "MTK2445:3IKZ72A5B5NYY4S9DMKNAE3MLVLNFA", "dateTime": 1517256501802}, {"current_trial": 209, "trialdata": {"rt": -1000, "trial_type": "single-audio", "word": "trout", "stimulus": "/static/audio/wordpool/TROUT.wav", "conditions": [24, 1600, "a", 12000], "internal_node_id": "0.0-155.0", "trial": 5, "time_elapsed": 1083859, "serialpos": 12, "key_press": -1, "wordID": 1510, "type": "PRES_AUD", "trial_index": 209}, "uniqueid": "MTK2445:3IKZ72A5B5NYY4S9DMKNAE3MLVLNFA", "dateTime": 1517256504563}, {"current_trial": 210, "trialdata": {"rt": -1000, "trial_type": "single-audio", "word": "turkey", "stimulus": "/static/audio/wordpool/TURKEY.wav", "conditions": [24, 1600, "a", 12000], "internal_node_id": "0.0-156.0", "trial": 5, "time_elapsed": 1086537, "serialpos": 13, "key_press": -1, "wordID": 1519, "type": "PRES_AUD", "trial_index": 210}, "uniqueid": "MTK2445:3IKZ72A5B5NYY4S9DMKNAE3MLVLNFA", "dateTime": 1517256507240}, {"current_trial": 211, "trialdata": {"rt": -1000, "trial_type": "single-audio", "word": "razor", "stimulus": "/static/audio/wordpool/RAZOR.wav", "conditions": [24, 1600, "a", 12000], "internal_node_id": "0.0-157.0", "trial": 5, "time_elapsed": 1089176, "serialpos": 14, "key_press": -1, "wordID": 1170, "type": "PRES_AUD", "trial_index": 211}, "uniqueid": "MTK2445:3IKZ72A5B5NYY4S9DMKNAE3MLVLNFA", "dateTime": 1517256509879}, {"current_trial": 212, "trialdata": {"rt": -1000, "trial_type": "single-audio", "word": "scalpel", "stimulus": "/static/audio/wordpool/SCALPEL.wav", "conditions": [24, 1600, "a", 12000], "internal_node_id": "0.0-158.0", "trial": 5, "time_elapsed": 1091858, "serialpos": 15, "key_press": -1, "wordID": 1242, "type": "PRES_AUD", "trial_index": 212}, "uniqueid": "MTK2445:3IKZ72A5B5NYY4S9DMKNAE3MLVLNFA", "dateTime": 1517256512561}, {"current_trial": 213, "trialdata": {"rt": -1000, "trial_type": "single-audio", "word": "scallop", "stimulus": "/static/audio/wordpool/SCALLOP.wav", "conditions": [24, 1600, "a", 12000], "internal_node_id": "0.0-159.0", "trial": 5, "time_elapsed": 1094473, "serialpos": 16, "key_press": -1, "wordID": 1241, "type": "PRES_AUD", "trial_index": 213}, "uniqueid": "MTK2445:3IKZ72A5B5NYY4S9DMKNAE3MLVLNFA", "dateTime": 1517256515177}, {"current_trial": 214, "trialdata": {"rt": -1000, "trial_type": "single-audio", "word": "padding", "stimulus": "/static/audio/wordpool/PADDING.wav", "conditions": [24, 1600, "a", 12000], "internal_node_id": "0.0-160.0", "trial": 5, "time_elapsed": 1097220, "serialpos": 17, "key_press": -1, "wordID": 998, "type": "PRES_AUD", "trial_index": 214}, "uniqueid": "MTK2445:3IKZ72A5B5NYY4S9DMKNAE3MLVLNFA", "dateTime": 1517256517923}, {"current_trial": 215, "trialdata": {"rt": -1000, "trial_type": "single-audio", "word": "apron", "stimulus": "/static/audio/wordpool/APRON.wav", "conditions": [24, 1600, "a", 12000], "internal_node_id": "0.0-161.0", "trial": 5, "time_elapsed": 1099699, "serialpos": 18, "key_press": -1, "wordID": 34, "type": "PRES_AUD", "trial_index": 215}, "uniqueid": "MTK2445:3IKZ72A5B5NYY4S9DMKNAE3MLVLNFA", "dateTime": 1517256520402}, {"current_trial": 216, "trialdata": {"rt": -1000, "trial_type": "single-audio", "word": "neutron", "stimulus": "/static/audio/wordpool/NEUTRON.wav", "conditions": [24, 1600, "a", 12000], "internal_node_id": "0.0-162.0", "trial": 5, "time_elapsed": 1102437, "serialpos": 19, "key_press": -1, "wordID": 946, "type": "PRES_AUD", "trial_index": 216}, "uniqueid": "MTK2445:3IKZ72A5B5NYY4S9DMKNAE3MLVLNFA", "dateTime": 1517256523140}, {"current_trial": 217, "trialdata": {"rt": -1000, "trial_type": "single-audio", "word": "chest", "stimulus": "/static/audio/wordpool/CHEST.wav", "conditions": [24, 1600, "a", 12000], "internal_node_id": "0.0-163.0", "trial": 5, "time_elapsed": 1105031, "serialpos": 20, "key_press": -1, "wordID": 294, "type": "PRES_AUD", "trial_index": 217}, "uniqueid": "MTK2445:3IKZ72A5B5NYY4S9DMKNAE3MLVLNFA", "dateTime": 1517256525734}, {"current_trial": 218, "trialdata": {"rt": -1000, "trial_type": "single-audio", "word": "salmon", "stimulus": "/static/audio/wordpool/SALMON.wav", "conditions": [24, 1600, "a", 12000], "internal_node_id": "0.0-164.0", "trial": 5, "time_elapsed": 1107744, "serialpos": 21, "key_press": -1, "wordID": 1226, "type": "PRES_AUD", "trial_index": 218}, "uniqueid": "MTK2445:3IKZ72A5B5NYY4S9DMKNAE3MLVLNFA", "dateTime": 1517256528447}, {"current_trial": 219, "trialdata": {"rt": -1000, "trial_type": "single-audio", "word": "rabbit", "stimulus": "/static/audio/wordpool/RABBIT.wav", "conditions": [24, 1600, "a", 12000], "internal_node_id": "0.0-165.0", "trial": 5, "time_elapsed": 1110330, "serialpos": 22, "key_press": -1, "wordID": 1151, "type": "PRES_AUD", "trial_index": 219}, "uniqueid": "MTK2445:3IKZ72A5B5NYY4S9DMKNAE3MLVLNFA", "dateTime": 1517256531033}, {"current_trial": 220, "trialdata": {"rt": -1000, "trial_type": "single-audio", "word": "preacher", "stimulus": "/static/audio/wordpool/PREACHER.wav", "conditions": [24, 1600, "a", 12000], "internal_node_id": "0.0-166.0", "trial": 5, "time_elapsed": 1112773, "serialpos": 23, "key_press": -1, "wordID": 1118, "type": "PRES_AUD", "trial_index": 220}, "uniqueid": "MTK2445:3IKZ72A5B5NYY4S9DMKNAE3MLVLNFA", "dateTime": 1517256533476}, {"current_trial": 221, "trialdata": {"rt": -1, "trial_type": "single-stim", "stimulus": "", "internal_node_id": "0.0-167.0-0.0", "time_elapsed": 1114076, "key_press": -1, "type": "PRE_RECALL_DELAY", "trial_index": 221}, "uniqueid": "MTK2445:3IKZ72A5B5NYY4S9DMKNAE3MLVLNFA", "dateTime": 1517256534779}, {"current_trial": 222, "trialdata": {"rt": -1000, "trial_type": "single-audio", "stimulus": "/static/audio/400Hz.wav", "internal_node_id": "0.0-168.0", "time_elapsed": 1114578, "key_press": -1, "type": "PRE_RECALL_ALERT", "trial_index": 222}, "uniqueid": "MTK2445:3IKZ72A5B5NYY4S9DMKNAE3MLVLNFA", "dateTime": 1517256535281}, {"current_trial": 223, "trialdata": {"rt": [1945, 3154, 5085, 6651, 7726, 8959, 10965, 12736, 14331, 24713, 34786], "recwords": ["farmer", "keeper", "scalpel", "razor", "baby", "report", "survey", "trout", "salmon", "preacher", "chest"], "key_times": [976, 1173, 1279, 1453, 1585, 1690, 1945, 2210, 2312, 2452, 2634, 2755, 2842, 3154, 3731, 3886, 4042, 4119, 4451, 4610, 4773, 5085, 5763, 5929, 6178, 6321, 6431, 6651, 7052, 7167, 7303, 7552, 7726, 8011, 8099, 8341, 8519, 8613, 8792, 8959, 9175, 9349, 9447, 9776, 9975, 10269, 10965, 11376, 11562, 11671, 11802, 11945, 12736, 13020, 13225, 13354, 13611, 13927, 14050, 14331, 23547, 23628, 23720, 23893, 24008, 24152, 24236, 24316, 24713, 33872, 34026, 34109, 34285, 34383, 34786], "trial_type": "free-recall", "conditions": [24, 1600, "a", 12000], "internal_node_id": "0.0-169.0-0.0", "key_presses": [70, 65, 82, 77, 69, 82, 13, 75, 69, 69, 80, 69, 82, 13, 83, 67, 65, 76, 80, 69, 76, 13, 82, 65, 90, 79, 82, 13, 66, 65, 66, 89, 13, 82, 69, 80, 79, 82, 84, 13, 83, 85, 82, 86, 69, 89, 13, 84, 82, 79, 85, 84, 13, 83, 65, 76, 77, 79, 78, 13, 80, 82, 69, 65, 67, 72, 69, 82, 13, 67, 72, 69, 83, 84, 13], "trial": 5, "time_elapsed": 1174584, "type": "FREE_RECALL", "trial_index": 223}, "uniqueid": "MTK2445:3IKZ72A5B5NYY4S9DMKNAE3MLVLNFA", "dateTime": 1517256595296}, {"current_trial": 224, "trialdata": {"rt": 26838, "trial_type": "text", "internal_node_id": "0.0-170.0", "time_elapsed": 1203433, "key_press": 70, "type": "INSTRUCTIONS", "trial_index": 224}, "uniqueid": "MTK2445:3IKZ72A5B5NYY4S9DMKNAE3MLVLNFA", "dateTime": 1517256624137}, {"current_trial": 225, "trialdata": {"rt": [2514, 4809, 7986, 11146], "trial_type": "math-distractor", "key_times": [1586, 1781, 2514, 4161, 4349, 4809, 7402, 7986, 10120, 10484, 11146], "responses": ["14", "12", "8", "18"], "num2": [2, 7, 2, 7, 5], "num3": [6, 4, 2, 3, 8], "conditions": [12, 1600, "a", 12000], "internal_node_id": "0.0-171.0", "key_presses": [49, 52, 13, 49, 50, 13, 56, 13, 49, 56, 13], "trial": 6, "time_elapsed": 1217439, "type": "DISTRACTOR", "trial_index": 225, "num1": [6, 1, 4, 9, 3]}, "uniqueid": "MTK2445:3IKZ72A5B5NYY4S9DMKNAE3MLVLNFA", "dateTime": 1517256638142}, {"current_trial": 226, "trialdata": {"rt": -1, "trial_type": "single-stim", "stimulus": "<p id=\"stim\">10</p>", "internal_node_id": "0.0-172.0-0.0", "time_elapsed": 1220443, "key_press": -1, "trial_index": 226}, "uniqueid": "MTK2445:3IKZ72A5B5NYY4S9DMKNAE3MLVLNFA", "dateTime": 1517256641147}, {"current_trial": 227, "trialdata": {"rt": -1, "trial_type": "single-stim", "stimulus": "<p id=\"stim\">9</p>", "internal_node_id": "0.0-172.0-1.0", "time_elapsed": 1221445, "key_press": -1, "trial_index": 227}, "uniqueid": "MTK2445:3IKZ72A5B5NYY4S9DMKNAE3MLVLNFA", "dateTime": 1517256642148}, {"current_trial": 228, "trialdata": {"rt": -1, "trial_type": "single-stim", "stimulus": "<p id=\"stim\">8</p>", "internal_node_id": "0.0-172.0-2.0", "time_elapsed": 1222447, "key_press": -1, "trial_index": 228}, "uniqueid": "MTK2445:3IKZ72A5B5NYY4S9DMKNAE3MLVLNFA", "dateTime": 1517256643150}, {"current_trial": 229, "trialdata": {"rt": -1, "trial_type": "single-stim", "stimulus": "<p id=\"stim\">7</p>", "internal_node_id": "0.0-172.0-3.0", "time_elapsed": 1223449, "key_press": -1, "trial_index": 229}, "uniqueid": "MTK2445:3IKZ72A5B5NYY4S9DMKNAE3MLVLNFA", "dateTime": 1517256644152}, {"current_trial": 230, "trialdata": {"rt": -1, "trial_type": "single-stim", "stimulus": "<p id=\"stim\">6</p>", "internal_node_id": "0.0-172.0-4.0", "time_elapsed": 1224451, "key_press": -1, "trial_index": 230}, "uniqueid": "MTK2445:3IKZ72A5B5NYY4S9DMKNAE3MLVLNFA", "dateTime": 1517256645156}, {"current_trial": 231, "trialdata": {"rt": -1, "trial_type": "single-stim", "stimulus": "<p id=\"stim\">5</p>", "internal_node_id": "0.0-172.0-5.0", "time_elapsed": 1225455, "key_press": -1, "trial_index": 231}, "uniqueid": "MTK2445:3IKZ72A5B5NYY4S9DMKNAE3MLVLNFA", "dateTime": 1517256646158}, {"current_trial": 232, "trialdata": {"rt": -1, "trial_type": "single-stim", "stimulus": "<p id=\"stim\">4</p>", "internal_node_id": "0.0-172.0-6.0", "time_elapsed": 1226457, "key_press": -1, "trial_index": 232}, "uniqueid": "MTK2445:3IKZ72A5B5NYY4S9DMKNAE3MLVLNFA", "dateTime": 1517256647161}, {"current_trial": 233, "trialdata": {"rt": -1, "trial_type": "single-stim", "stimulus": "<p id=\"stim\">3</p>", "internal_node_id": "0.0-172.0-7.0", "time_elapsed": 1227459, "key_press": -1, "trial_index": 233}, "uniqueid": "MTK2445:3IKZ72A5B5NYY4S9DMKNAE3MLVLNFA", "dateTime": 1517256648162}, {"current_trial": 234, "trialdata": {"rt": -1, "trial_type": "single-stim", "stimulus": "<p id=\"stim\">2</p>", "internal_node_id": "0.0-172.0-8.0", "time_elapsed": 1228462, "key_press": -1, "trial_index": 234}, "uniqueid": "MTK2445:3IKZ72A5B5NYY4S9DMKNAE3MLVLNFA", "dateTime": 1517256649165}, {"current_trial": 235, "trialdata": {"rt": -1, "trial_type": "single-stim", "stimulus": "<p id=\"stim\">1</p>", "internal_node_id": "0.0-172.0-9.0", "time_elapsed": 1229463, "key_press": -1, "trial_index": 235}, "uniqueid": "MTK2445:3IKZ72A5B5NYY4S9DMKNAE3MLVLNFA", "dateTime": 1517256650167}, {"current_trial": 236, "trialdata": {"rt": -1, "trial_type": "single-stim", "stimulus": "<p id=\"stim\">+</p>", "internal_node_id": "0.0-173.0-0.0", "time_elapsed": 1230965, "key_press": -1, "type": "FIXATION", "trial_index": 236}, "uniqueid": "MTK2445:3IKZ72A5B5NYY4S9DMKNAE3MLVLNFA", "dateTime": 1517256651669}, {"current_trial": 237, "trialdata": {"rt": -1000, "trial_type": "single-audio", "word": "soda", "stimulus": "/static/audio/wordpool/SODA.wav", "conditions": [12, 1600, "a", 12000], "internal_node_id": "0.0-174.0", "trial": 6, "time_elapsed": 1233619, "serialpos": 0, "key_press": -1, "wordID": 1340, "type": "PRES_AUD", "trial_index": 237}, "uniqueid": "MTK2445:3IKZ72A5B5NYY4S9DMKNAE3MLVLNFA", "dateTime": 1517256654323}, {"current_trial": 238, "trialdata": {"rt": -1000, "trial_type": "single-audio", "word": "body", "stimulus": "/static/audio/wordpool/BODY.wav", "conditions": [12, 1600, "a", 12000], "internal_node_id": "0.0-175.0", "trial": 6, "time_elapsed": 1236044, "serialpos": 1, "key_press": -1, "wordID": 144, "type": "PRES_AUD", "trial_index": 238}, "uniqueid": "MTK2445:3IKZ72A5B5NYY4S9DMKNAE3MLVLNFA", "dateTime": 1517256656747}, {"current_trial": 239, "trialdata": {"rt": -1000, "trial_type": "single-audio", "word": "lizard", "stimulus": "/static/audio/wordpool/LIZARD.wav", "conditions": [12, 1600, "a", 12000], "internal_node_id": "0.0-176.0", "trial": 6, "time_elapsed": 1238546, "serialpos": 2, "key_press": -1, "wordID": 833, "type": "PRES_AUD", "trial_index": 239}, "uniqueid": "MTK2445:3IKZ72A5B5NYY4S9DMKNAE3MLVLNFA", "dateTime": 1517256659249}, {"current_trial": 240, "trialdata": {"rt": -1000, "trial_type": "single-audio", "word": "suspect", "stimulus": "/static/audio/wordpool/SUSPECT.wav", "conditions": [12, 1600, "a", 12000], "internal_node_id": "0.0-177.0", "trial": 6, "time_elapsed": 1241290, "serialpos": 3, "key_press": -1, "wordID": 1414, "type": "PRES_AUD", "trial_index": 240}, "uniqueid": "MTK2445:3IKZ72A5B5NYY4S9DMKNAE3MLVLNFA", "dateTime": 1517256661993}, {"current_trial": 241, "trialdata": {"rt": -1000, "trial_type": "single-audio", "word": "dentist", "stimulus": "/static/audio/wordpool/DENTIST.wav", "conditions": [12, 1600, "a", 12000], "internal_node_id": "0.0-178.0", "trial": 6, "time_elapsed": 1243868, "serialpos": 4, "key_press": -1, "wordID": 446, "type": "PRES_AUD", "trial_index": 241}, "uniqueid": "MTK2445:3IKZ72A5B5NYY4S9DMKNAE3MLVLNFA", "dateTime": 1517256664571}, {"current_trial": 242, "trialdata": {"rt": -1000, "trial_type": "single-audio", "word": "cabbage", "stimulus": "/static/audio/wordpool/CABBAGE.wav", "conditions": [12, 1600, "a", 12000], "internal_node_id": "0.0-179.0", "trial": 6, "time_elapsed": 1246336, "serialpos": 5, "key_press": -1, "wordID": 209, "type": "PRES_AUD", "trial_index": 242}, "uniqueid": "MTK2445:3IKZ72A5B5NYY4S9DMKNAE3MLVLNFA", "dateTime": 1517256667040}, {"current_trial": 243, "trialdata": {"rt": -1000, "trial_type": "single-audio", "word": "peanut", "stimulus": "/static/audio/wordpool/PEANUT.wav", "conditions": [12, 1600, "a", 12000], "internal_node_id": "0.0-180.0", "trial": 6, "time_elapsed": 1249103, "serialpos": 6, "key_press": -1, "wordID": 1031, "type": "PRES_AUD", "trial_index": 243}, "uniqueid": "MTK2445:3IKZ72A5B5NYY4S9DMKNAE3MLVLNFA", "dateTime": 1517256669806}, {"current_trial": 244, "trialdata": {"rt": -1000, "trial_type": "single-audio", "word": "ozone", "stimulus": "/static/audio/wordpool/OZONE.wav", "conditions": [12, 1600, "a", 12000], "internal_node_id": "0.0-181.0", "trial": 6, "time_elapsed": 1251818, "serialpos": 7, "key_press": -1, "wordID": 995, "type": "PRES_AUD", "trial_index": 244}, "uniqueid": "MTK2445:3IKZ72A5B5NYY4S9DMKNAE3MLVLNFA", "dateTime": 1517256672522}, {"current_trial": 245, "trialdata": {"rt": -1000, "trial_type": "single-audio", "word": "wasp", "stimulus": "/static/audio/wordpool/WASP.wav", "conditions": [12, 1600, "a", 12000], "internal_node_id": "0.0-182.0", "trial": 6, "time_elapsed": 1254223, "serialpos": 8, "key_press": -1, "wordID": 1592, "type": "PRES_AUD", "trial_index": 245}, "uniqueid": "MTK2445:3IKZ72A5B5NYY4S9DMKNAE3MLVLNFA", "dateTime": 1517256674927}, {"current_trial": 246, "trialdata": {"rt": -1000, "trial_type": "single-audio", "word": "hornet", "stimulus": "/static/audio/wordpool/HORNET.wav", "conditions": [12, 1600, "a", 12000], "internal_node_id": "0.0-183.0", "trial": 6, "time_elapsed": 1256876, "serialpos": 9, "key_press": -1, "wordID": 717, "type": "PRES_AUD", "trial_index": 246}, "uniqueid": "MTK2445:3IKZ72A5B5NYY4S9DMKNAE3MLVLNFA", "dateTime": 1517256677580}, {"current_trial": 247, "trialdata": {"rt": -1000, "trial_type": "single-audio", "word": "fox", "stimulus": "/static/audio/wordpool/FOX.wav", "conditions": [12, 1600, "a", 12000], "internal_node_id": "0.0-184.0", "trial": 6, "time_elapsed": 1259327, "serialpos": 10, "key_press": -1, "wordID": 597, "type": "PRES_AUD", "trial_index": 247}, "uniqueid": "MTK2445:3IKZ72A5B5NYY4S9DMKNAE3MLVLNFA", "dateTime": 1517256680030}, {"current_trial": 248, "trialdata": {"rt": -1000, "trial_type": "single-audio", "word": "journal", "stimulus": "/static/audio/wordpool/JOURNAL.wav", "conditions": [12, 1600, "a", 1200