{"assignmentId": "3LKC68YZ3BAIRBEG4QU0TRPR5EMOW5", "workerId": "MTK2070", "questiondata": {"origin": "United States", "strat-rehearsal": "22", "marital": "Married/Domestic Partnership", "education": "High school diploma", "ethnicity": "Not Hispanic", "color_depth": 24, "distracted": "No", "wrote-notes": "No", "strat-other": "", "screen_width": 1536, "avail_screen_width": 1536, "avail_screen_height": 824, "strat-image": "61", "language": "english", "gender": "Male", "age": "32", "gender_other": "", "race": ["White"], "strat-categorize": "89", "pixel_depth": 24, "strat-spatial": "4", "strat-story": "41", "race_other": "", "screen_height": 864}, "bonus": 0, "hitId": "382GHPVPHSYF904GLKZNLCC58BT34A", "counterbalance": 202, "useragent": "Mozilla/5.0 (Windows NT 10.0; Win64; x64) AppleWebKit/537.36 (KHTML, like Gecko) Chrome/63.0.3239.132 Safari/537.36", "eventdata": [{"eventtype": "initialized", "interval": 0, "value": null, "timestamp": 1516675122946}, {"eventtype": "window_resize", "interval": 0, "value": [1540, 816], "timestamp": 1516675122946}, {"eventtype": "focus", "interval": 88291, "value": "off", "timestamp": 1516675211237}, {"eventtype": "focus", "interval": 2, "value": "on", "timestamp": 1516675211239}, {"eventtype": "focus", "interval": 1425790, "value": "off", "timestamp": 1516676637029}, {"eventtype": "focus", "interval": 16119, "value": "on", "timestamp": 1516676653148}, {"eventtype": "window_resize", "interval": 2613, "value": [1536, 774], "timestamp": 1516676655761}, {"eventtype": "focus", "interval": 1599475, "value": "off", "timestamp": 1516678255236}, {"eventtype": "focus", "interval": 3, "value": "on", "timestamp": 1516678255239}], "data": [{"current_trial": 0, "trialdata": {"rt": 1528, "trial_type": "text", "internal_node_id": "0.0-0.0", "time_elapsed": 1530, "key_press": 13, "type": "INSTRUCTIONS", "trial_index": 0}, "uniqueid": "MTK2070:3LKC68YZ3BAIRBEG4QU0TRPR5EMOW5", "dateTime": 1516675148498}, {"current_trial": 1, "trialdata": {"rt": 31824, "trial_type": "text", "internal_node_id": "0.0-1.0", "time_elapsed": 33356, "key_press": 13, "type": "INSTRUCTIONS", "trial_index": 1}, "uniqueid": "MTK2070:3LKC68YZ3BAIRBEG4QU0TRPR5EMOW5", "dateTime": 1516675180323}, {"current_trial": 2, "trialdata": {"rt": [18736], "trial_type": "audio-test", "responses": ["ocean"], "internal_node_id": "0.0-2.0", "time_elapsed": 52101, "type": "AUDIO_TEST", "trial_index": 2}, "uniqueid": "MTK2070:3LKC68YZ3BAIRBEG4QU0TRPR5EMOW5", "dateTime": 1516675199068}, {"current_trial": 3, "trialdata": {"rt": [9479, 16732], "trial_type": "audio-test", "responses": ["crysta", "crystal"], "internal_node_id": "0.0-3.0", "time_elapsed": 68838, "type": "AUDIO_TEST", "trial_index": 3}, "uniqueid": "MTK2070:3LKC68YZ3BAIRBEG4QU0TRPR5EMOW5", "dateTime": 1516675215805}, {"current_trial": 4, "trialdata": {"rt": [6495], "trial_type": "audio-test", "responses": ["spice"], "internal_node_id": "0.0-4.0", "time_elapsed": 75337, "type": "AUDIO_TEST", "trial_index": 4}, "uniqueid": "MTK2070:3LKC68YZ3BAIRBEG4QU0TRPR5EMOW5", "dateTime": 1516675222304}, {"current_trial": 5, "trialdata": {"rt": 11569, "trial_type": "survey-text", "responses": "{\"Q0\":\"11\",\"Q1\":\"6 \",\"Q2\":\"5\"}", "internal_node_id": "0.0-5.0", "time_elapsed": 87662, "type": "SLEEP_SURVEY", "trial_index": 5}, "uniqueid": "MTK2070:3LKC68YZ3BAIRBEG4QU0TRPR5EMOW5", "dateTime": 1516675234629}, {"current_trial": 6, "trialdata": {"rt": 4319, "trial_type": "text", "internal_node_id": "0.0-6.0", "time_elapsed": 92983, "key_press": 32, "type": "INSTRUCTIONS", "trial_index": 6}, "uniqueid": "MTK2070:3LKC68YZ3BAIRBEG4QU0TRPR5EMOW5", "dateTime": 1516675239950}, {"current_trial": 7, "trialdata": {"rt": 2775, "trial_type": "text", "internal_node_id": "0.0-7.0", "time_elapsed": 96260, "key_press": 32, "type": "INSTRUCTIONS", "trial_index": 7}, "uniqueid": "MTK2070:3LKC68YZ3BAIRBEG4QU0TRPR5EMOW5", "dateTime": 1516675243227}, {"current_trial": 8, "trialdata": {"rt": 2264, "trial_type": "text", "internal_node_id": "0.0-8.0", "time_elapsed": 99026, "key_press": 32, "type": "INSTRUCTIONS", "trial_index": 8}, "uniqueid": "MTK2070:3LKC68YZ3BAIRBEG4QU0TRPR5EMOW5", "dateTime": 1516675245993}, {"current_trial": 9, "trialdata": {"rt": [3504, 8374, 13569, 16268], "trial_type": "math-distractor", "key_times": [2885, 2964, 3504, 7893, 8084, 8374, 12455, 12800, 13569, 15814, 16099, 16268], "responses": ["12", "11", "14", "17"], "num2": [5, 2, 8, 2, 9], "num3": [2, 5, 2, 6, 3], "conditions": [18, 1200, "a", 18000], "internal_node_id": "0.0-9.0", "key_presses": [49, 50, 13, 49, 49, 13, 49, 52, 13, 49, 55, 13], "trial": 0, "time_elapsed": 118043, "type": "DISTRACTOR", "trial_index": 9, "num1": [5, 4, 4, 9, 6]}, "uniqueid": "MTK2070:3LKC68YZ3BAIRBEG4QU0TRPR5EMOW5", "dateTime": 1516675265010}, {"current_trial": 10, "trialdata": {"rt": -1, "trial_type": "single-stim", "stimulus": "<p id=\"stim\">10</p>", "internal_node_id": "0.0-10.0-0.0", "time_elapsed": 121046, "key_press": -1, "trial_index": 10}, "uniqueid": "MTK2070:3LKC68YZ3BAIRBEG4QU0TRPR5EMOW5", "dateTime": 1516675268013}, {"current_trial": 11, "trialdata": {"rt": -1, "trial_type": "single-stim", "stimulus": "<p id=\"stim\">9</p>", "internal_node_id": "0.0-10.0-1.0", "time_elapsed": 122070, "key_press": -1, "trial_index": 11}, "uniqueid": "MTK2070:3LKC68YZ3BAIRBEG4QU0TRPR5EMOW5", "dateTime": 1516675269037}, {"current_trial": 12, "trialdata": {"rt": -1, "trial_type": "single-stim", "stimulus": "<p id=\"stim\">8</p>", "internal_node_id": "0.0-10.0-2.0", "time_elapsed": 123071, "key_press": -1, "trial_index": 12}, "uniqueid": "MTK2070:3LKC68YZ3BAIRBEG4QU0TRPR5EMOW5", "dateTime": 1516675270038}, {"current_trial": 13, "trialdata": {"rt": -1, "trial_type": "single-stim", "stimulus": "<p id=\"stim\">7</p>", "internal_node_id": "0.0-10.0-3.0", "time_elapsed": 124072, "key_press": -1, "trial_index": 13}, "uniqueid": "MTK2070:3LKC68YZ3BAIRBEG4QU0TRPR5EMOW5", "dateTime": 1516675271039}, {"current_trial": 14, "trialdata": {"rt": -1, "trial_type": "single-stim", "stimulus": "<p id=\"stim\">6</p>", "internal_node_id": "0.0-10.0-4.0", "time_elapsed": 125074, "key_press": -1, "trial_index": 14}, "uniqueid": "MTK2070:3LKC68YZ3BAIRBEG4QU0TRPR5EMOW5", "dateTime": 1516675272041}, {"current_trial": 15, "trialdata": {"rt": -1, "trial_type": "single-stim", "stimulus": "<p id=\"stim\">5</p>", "internal_node_id": "0.0-10.0-5.0", "time_elapsed": 126079, "key_press": -1, "trial_index": 15}, "uniqueid": "MTK2070:3LKC68YZ3BAIRBEG4QU0TRPR5EMOW5", "dateTime": 1516675273046}, {"current_trial": 16, "trialdata": {"rt": -1, "trial_type": "single-stim", "stimulus": "<p id=\"stim\">4</p>", "internal_node_id": "0.0-10.0-6.0", "time_elapsed": 127080, "key_press": -1, "trial_index": 16}, "uniqueid": "MTK2070:3LKC68YZ3BAIRBEG4QU0TRPR5EMOW5", "dateTime": 1516675274047}, {"current_trial": 17, "trialdata": {"rt": -1, "trial_type": "single-stim", "stimulus": "<p id=\"stim\">3</p>", "internal_node_id": "0.0-10.0-7.0", "time_elapsed": 128082, "key_press": -1, "trial_index": 17}, "uniqueid": "MTK2070:3LKC68YZ3BAIRBEG4QU0TRPR5EMOW5", "dateTime": 1516675275049}, {"current_trial": 18, "trialdata": {"rt": -1, "trial_type": "single-stim", "stimulus": "<p id=\"stim\">2</p>", "internal_node_id": "0.0-10.0-8.0", "time_elapsed": 129083, "key_press": -1, "trial_index": 18}, "uniqueid": "MTK2070:3LKC68YZ3BAIRBEG4QU0TRPR5EMOW5", "dateTime": 1516675276050}, {"current_trial": 19, "trialdata": {"rt": -1, "trial_type": "single-stim", "stimulus": "<p id=\"stim\">1</p>", "internal_node_id": "0.0-10.0-9.0", "time_elapsed": 130085, "key_press": -1, "trial_index": 19}, "uniqueid": "MTK2070:3LKC68YZ3BAIRBEG4QU0TRPR5EMOW5", "dateTime": 1516675277052}, {"current_trial": 20, "trialdata": {"rt": -1, "trial_type": "single-stim", "stimulus": "<p id=\"stim\">+</p>", "internal_node_id": "0.0-11.0-0.0", "time_elapsed": 131587, "key_press": -1, "type": "FIXATION", "trial_index": 20}, "uniqueid": "MTK2070:3LKC68YZ3BAIRBEG4QU0TRPR5EMOW5", "dateTime": 1516675278554}, {"current_trial": 21, "trialdata": {"rt": -1000, "trial_type": "single-audio", "word": "flipper", "stimulus": "/static/audio/wordpool/FLIPPER.wav", "conditions": [18, 1200, "a", 18000], "internal_node_id": "0.0-12.0", "trial": 0, "time_elapsed": 133840, "serialpos": 0, "key_press": -1, "wordID": 579, "type": "PRES_AUD", "trial_index": 21}, "uniqueid": "MTK2070:3LKC68YZ3BAIRBEG4QU0TRPR5EMOW5", "dateTime": 1516675280807}, {"current_trial": 22, "trialdata": {"rt": -1000, "trial_type": "single-audio", "word": "mummy", "stimulus": "/static/audio/wordpool/MUMMY.wav", "conditions": [18, 1200, "a", 18000], "internal_node_id": "0.0-13.0", "trial": 0, "time_elapsed": 135990, "serialpos": 1, "key_press": -1, "wordID": 931, "type": "PRES_AUD", "trial_index": 22}, "uniqueid": "MTK2070:3LKC68YZ3BAIRBEG4QU0TRPR5EMOW5", "dateTime": 1516675282957}, {"current_trial": 23, "trialdata": {"rt": -1000, "trial_type": "single-audio", "word": "dress", "stimulus": "/static/audio/wordpool/DRESS.wav", "conditions": [18, 1200, "a", 18000], "internal_node_id": "0.0-14.0", "trial": 0, "time_elapsed": 138146, "serialpos": 2, "key_press": -1, "wordID": 494, "type": "PRES_AUD", "trial_index": 23}, "uniqueid": "MTK2070:3LKC68YZ3BAIRBEG4QU0TRPR5EMOW5", "dateTime": 1516675285114}, {"current_trial": 24, "trialdata": {"rt": -1000, "trial_type": "single-audio", "word": "pepper", "stimulus": "/static/audio/wordpool/PEPPER.wav", "conditions": [18, 1200, "a", 18000], "internal_node_id": "0.0-15.0", "trial": 0, "time_elapsed": 140203, "serialpos": 3, "key_press": -1, "wordID": 1046, "type": "PRES_AUD", "trial_index": 24}, "uniqueid": "MTK2070:3LKC68YZ3BAIRBEG4QU0TRPR5EMOW5", "dateTime": 1516675287171}, {"current_trial": 25, "trialdata": {"rt": -1000, "trial_type": "single-audio", "word": "mailman", "stimulus": "/static/audio/wordpool/MAILMAN.wav", "conditions": [18, 1200, "a", 18000], "internal_node_id": "0.0-16.0", "trial": 0, "time_elapsed": 142498, "serialpos": 4, "key_press": -1, "wordID": 857, "type": "PRES_AUD", "trial_index": 25}, "uniqueid": "MTK2070:3LKC68YZ3BAIRBEG4QU0TRPR5EMOW5", "dateTime": 1516675289466}, {"current_trial": 26, "trialdata": {"rt": -1000, "trial_type": "single-audio", "word": "leopard", "stimulus": "/static/audio/wordpool/LEOPARD.wav", "conditions": [18, 1200, "a", 18000], "internal_node_id": "0.0-17.0", "trial": 0, "time_elapsed": 144721, "serialpos": 5, "key_press": -1, "wordID": 811, "type": "PRES_AUD", "trial_index": 26}, "uniqueid": "MTK2070:3LKC68YZ3BAIRBEG4QU0TRPR5EMOW5", "dateTime": 1516675291689}, {"current_trial": 27, "trialdata": {"rt": -1000, "trial_type": "single-audio", "word": "agent", "stimulus": "/static/audio/wordpool/AGENT.wav", "conditions": [18, 1200, "a", 18000], "internal_node_id": "0.0-18.0", "trial": 0, "time_elapsed": 146895, "serialpos": 6, "key_press": -1, "wordID": 9, "type": "PRES_AUD", "trial_index": 27}, "uniqueid": "MTK2070:3LKC68YZ3BAIRBEG4QU0TRPR5EMOW5", "dateTime": 1516675293862}, {"current_trial": 28, "trialdata": {"rt": -1000, "trial_type": "single-audio", "word": "sponge", "stimulus": "/static/audio/wordpool/SPONGE.wav", "conditions": [18, 1200, "a", 18000], "internal_node_id": "0.0-19.0", "trial": 0, "time_elapsed": 148897, "serialpos": 7, "key_press": -1, "wordID": 1354, "type": "PRES_AUD", "trial_index": 28}, "uniqueid": "MTK2070:3LKC68YZ3BAIRBEG4QU0TRPR5EMOW5", "dateTime": 1516675295865}, {"current_trial": 29, "trialdata": {"rt": -1000, "trial_type": "single-audio", "word": "costume", "stimulus": "/static/audio/wordpool/COSTUME.wav", "conditions": [18, 1200, "a", 18000], "internal_node_id": "0.0-20.0", "trial": 0, "time_elapsed": 151029, "serialpos": 8, "key_press": -1, "wordID": 382, "type": "PRES_AUD", "trial_index": 29}, "uniqueid": "MTK2070:3LKC68YZ3BAIRBEG4QU0TRPR5EMOW5", "dateTime": 1516675297996}, {"current_trial": 30, "trialdata": {"rt": -1000, "trial_type": "single-audio", "word": "sketch", "stimulus": "/static/audio/wordpool/SKETCH.wav", "conditions": [18, 1200, "a", 18000], "internal_node_id": "0.0-21.0", "trial": 0, "time_elapsed": 153403, "serialpos": 9, "key_press": -1, "wordID": 1314, "type": "PRES_AUD", "trial_index": 30}, "uniqueid": "MTK2070:3LKC68YZ3BAIRBEG4QU0TRPR5EMOW5", "dateTime": 1516675300370}, {"current_trial": 31, "trialdata": {"rt": -1000, "trial_type": "single-audio", "word": "dresser", "stimulus": "/static/audio/wordpool/DRESSER.wav", "conditions": [18, 1200, "a", 18000], "internal_node_id": "0.0-22.0", "trial": 0, "time_elapsed": 155783, "serialpos": 10, "key_press": -1, "wordID": 495, "type": "PRES_AUD", "trial_index": 31}, "uniqueid": "MTK2070:3LKC68YZ3BAIRBEG4QU0TRPR5EMOW5", "dateTime": 1516675302750}, {"current_trial": 32, "trialdata": {"rt": -1000, "trial_type": "single-audio", "word": "atom", "stimulus": "/static/audio/wordpool/ATOM.wav", "conditions": [18, 1200, "a", 18000], "internal_node_id": "0.0-23.0", "trial": 0, "time_elapsed": 158002, "serialpos": 11, "key_press": -1, "wordID": 54, "type": "PRES_AUD", "trial_index": 32}, "uniqueid": "MTK2070:3LKC68YZ3BAIRBEG4QU0TRPR5EMOW5", "dateTime": 1516675304969}, {"current_trial": 33, "trialdata": {"rt": -1000, "trial_type": "single-audio", "word": "blockade", "stimulus": "/static/audio/wordpool/BLOCKADE.wav", "conditions": [18, 1200, "a", 18000], "internal_node_id": "0.0-24.0", "trial": 0, "time_elapsed": 160073, "serialpos": 12, "key_press": -1, "wordID": 136, "type": "PRES_AUD", "trial_index": 33}, "uniqueid": "MTK2070:3LKC68YZ3BAIRBEG4QU0TRPR5EMOW5", "dateTime": 1516675307040}, {"current_trial": 34, "trialdata": {"rt": -1000, "trial_type": "single-audio", "word": "swimmer", "stimulus": "/static/audio/wordpool/SWIMMER.wav", "conditions": [18, 1200, "a", 18000], "internal_node_id": "0.0-25.0", "trial": 0, "time_elapsed": 162129, "serialpos": 13, "key_press": -1, "wordID": 1419, "type": "PRES_AUD", "trial_index": 34}, "uniqueid": "MTK2070:3LKC68YZ3BAIRBEG4QU0TRPR5EMOW5", "dateTime": 1516675309096}, {"current_trial": 35, "trialdata": {"rt": -1000, "trial_type": "single-audio", "word": "bison", "stimulus": "/static/audio/wordpool/BISON.wav", "conditions": [18, 1200, "a", 18000], "internal_node_id": "0.0-26.0", "trial": 0, "time_elapsed": 164477, "serialpos": 14, "key_press": -1, "wordID": 130, "type": "PRES_AUD", "trial_index": 35}, "uniqueid": "MTK2070:3LKC68YZ3BAIRBEG4QU0TRPR5EMOW5", "dateTime": 1516675311444}, {"current_trial": 36, "trialdata": {"rt": -1000, "trial_type": "single-audio", "word": "bullet", "stimulus": "/static/audio/wordpool/BULLET.wav", "conditions": [18, 1200, "a", 18000], "internal_node_id": "0.0-27.0", "trial": 0, "time_elapsed": 166585, "serialpos": 15, "key_press": -1, "wordID": 193, "type": "PRES_AUD", "trial_index": 36}, "uniqueid": "MTK2070:3LKC68YZ3BAIRBEG4QU0TRPR5EMOW5", "dateTime": 1516675313552}, {"current_trial": 37, "trialdata": {"rt": -1000, "trial_type": "single-audio", "word": "star", "stimulus": "/static/audio/wordpool/STAR.wav", "conditions": [18, 1200, "a", 18000], "internal_node_id": "0.0-28.0", "trial": 0, "time_elapsed": 168667, "serialpos": 16, "key_press": -1, "wordID": 1372, "type": "PRES_AUD", "trial_index": 37}, "uniqueid": "MTK2070:3LKC68YZ3BAIRBEG4QU0TRPR5EMOW5", "dateTime": 1516675315634}, {"current_trial": 38, "trialdata": {"rt": -1000, "trial_type": "single-audio", "word": "slug", "stimulus": "/static/audio/wordpool/SLUG.wav", "conditions": [18, 1200, "a", 18000], "internal_node_id": "0.0-29.0", "trial": 0, "time_elapsed": 170900, "serialpos": 17, "key_press": -1, "wordID": 1328, "type": "PRES_AUD", "trial_index": 38}, "uniqueid": "MTK2070:3LKC68YZ3BAIRBEG4QU0TRPR5EMOW5", "dateTime": 1516675317867}, {"current_trial": 39, "trialdata": {"rt": -1, "trial_type": "single-stim", "stimulus": "", "internal_node_id": "0.0-30.0-0.0", "time_elapsed": 172273, "key_press": -1, "type": "PRE_RECALL_DELAY", "trial_index": 39}, "uniqueid": "MTK2070:3LKC68YZ3BAIRBEG4QU0TRPR5EMOW5", "dateTime": 1516675319240}, {"current_trial": 40, "trialdata": {"rt": -1000, "trial_type": "single-audio", "stimulus": "/static/audio/400Hz.wav", "internal_node_id": "0.0-31.0", "time_elapsed": 172774, "key_press": -1, "type": "PRE_RECALL_ALERT", "trial_index": 40}, "uniqueid": "MTK2070:3LKC68YZ3BAIRBEG4QU0TRPR5EMOW5", "dateTime": 1516675319741}, {"current_trial": 41, "trialdata": {"rt": [3092, 5961, 21678, 36126, 53094], "recwords": ["slug", "bullet", "archery", "nanny", ""], "key_times": [1419, 1641, 1905, 2055, 2339, 3092, 3821, 4021, 4682, 4813, 4913, 5135, 5961, 19295, 19476, 19702, 19829, 20098, 20860, 21179, 21255, 21469, 21678, 25578, 27708, 34345, 34696, 35201, 35340, 35550, 36126, 53094], "trial_type": "free-recall", "conditions": [18, 1200, "a", 18000], "internal_node_id": "0.0-32.0-0.0", "key_presses": [83, 76, 85, 71, 37, 13, 66, 85, 76, 76, 69, 84, 13, 65, 82, 67, 72, 82, 8, 69, 82, 89, 13, 66, 8, 78, 65, 78, 78, 89, 13, 13], "trial": 0, "time_elapsed": 232781, "type": "FREE_RECALL", "trial_index": 41}, "uniqueid": "MTK2070:3LKC68YZ3BAIRBEG4QU0TRPR5EMOW5", "dateTime": 1516675379752}, {"current_trial": 42, "trialdata": {"rt": 11895, "trial_type": "text", "internal_node_id": "0.0-33.0", "time_elapsed": 246682, "key_press": 13, "type": "INSTRUCTIONS", "trial_index": 42}, "uniqueid": "MTK2070:3LKC68YZ3BAIRBEG4QU0TRPR5EMOW5", "dateTime": 1516675393649}, {"current_trial": 43, "trialdata": {"rt": [7825, 9582, 11122, 15281], "trial_type": "math-distractor", "key_times": [5887, 6167, 6476, 7825, 9080, 9446, 9582, 10983, 11122, 14819, 15063, 15281], "responses": ["20", "14", "4", "14"], "num2": [8, 9, 1, 5, 8], "num3": [7, 1, 1, 3, 5], "conditions": [18, 1200, "a", 18000], "internal_node_id": "0.0-34.0", "key_presses": [50, 48, 37, 13, 49, 52, 13, 52, 13, 49, 52, 13], "trial": 1, "time_elapsed": 266686, "type": "DISTRACTOR", "trial_index": 43, "num1": [4, 4, 2, 6, 7]}, "uniqueid": "MTK2070:3LKC68YZ3BAIRBEG4QU0TRPR5EMOW5", "dateTime": 1516675413653}, {"current_trial": 44, "trialdata": {"rt": -1, "trial_type": "single-stim", "stimulus": "<p id=\"stim\">10</p>", "internal_node_id": "0.0-35.0-0.0", "time_elapsed": 269689, "key_press": -1, "trial_index": 44}, "uniqueid": "MTK2070:3LKC68YZ3BAIRBEG4QU0TRPR5EMOW5", "dateTime": 1516675416656}, {"current_trial": 45, "trialdata": {"rt": -1, "trial_type": "single-stim", "stimulus": "<p id=\"stim\">9</p>", "internal_node_id": "0.0-35.0-1.0", "time_elapsed": 270690, "key_press": -1, "trial_index": 45}, "uniqueid": "MTK2070:3LKC68YZ3BAIRBEG4QU0TRPR5EMOW5", "dateTime": 1516675417657}, {"current_trial": 46, "trialdata": {"rt": -1, "trial_type": "single-stim", "stimulus": "<p id=\"stim\">8</p>", "internal_node_id": "0.0-35.0-2.0", "time_elapsed": 271692, "key_press": -1, "trial_index": 46}, "uniqueid": "MTK2070:3LKC68YZ3BAIRBEG4QU0TRPR5EMOW5", "dateTime": 1516675418659}, {"current_trial": 47, "trialdata": {"rt": -1, "trial_type": "single-stim", "stimulus": "<p id=\"stim\">7</p>", "internal_node_id": "0.0-35.0-3.0", "time_elapsed": 272696, "key_press": -1, "trial_index": 47}, "uniqueid": "MTK2070:3LKC68YZ3BAIRBEG4QU0TRPR5EMOW5", "dateTime": 1516675419663}, {"current_trial": 48, "trialdata": {"rt": -1, "trial_type": "single-stim", "stimulus": "<p id=\"stim\">6</p>", "internal_node_id": "0.0-35.0-4.0", "time_elapsed": 273697, "key_press": -1, "trial_index": 48}, "uniqueid": "MTK2070:3LKC68YZ3BAIRBEG4QU0TRPR5EMOW5", "dateTime": 1516675420665}, {"current_trial": 49, "trialdata": {"rt": -1, "trial_type": "single-stim", "stimulus": "<p id=\"stim\">5</p>", "internal_node_id": "0.0-35.0-5.0", "time_elapsed": 274699, "key_press": -1, "trial_index": 49}, "uniqueid": "MTK2070:3LKC68YZ3BAIRBEG4QU0TRPR5EMOW5", "dateTime": 1516675421666}, {"current_trial": 50, "trialdata": {"rt": -1, "trial_type": "single-stim", "stimulus": "<p id=\"stim\">4</p>", "internal_node_id": "0.0-35.0-6.0", "time_elapsed": 275700, "key_press": -1, "trial_index": 50}, "uniqueid": "MTK2070:3LKC68YZ3BAIRBEG4QU0TRPR5EMOW5", "dateTime": 1516675422667}, {"current_trial": 51, "trialdata": {"rt": -1, "trial_type": "single-stim", "stimulus": "<p id=\"stim\">3</p>", "internal_node_id": "0.0-35.0-7.0", "time_elapsed": 276703, "key_press": -1, "trial_index": 51}, "uniqueid": "MTK2070:3LKC68YZ3BAIRBEG4QU0TRPR5EMOW5", "dateTime": 1516675423670}, {"current_trial": 52, "trialdata": {"rt": -1, "trial_type": "single-stim", "stimulus": "<p id=\"stim\">2</p>", "internal_node_id": "0.0-35.0-8.0", "time_elapsed": 277705, "key_press": -1, "trial_index": 52}, "uniqueid": "MTK2070:3LKC68YZ3BAIRBEG4QU0TRPR5EMOW5", "dateTime": 1516675424672}, {"current_trial": 53, "trialdata": {"rt": -1, "trial_type": "single-stim", "stimulus": "<p id=\"stim\">1</p>", "internal_node_id": "0.0-35.0-9.0", "time_elapsed": 278710, "key_press": -1, "trial_index": 53}, "uniqueid": "MTK2070:3LKC68YZ3BAIRBEG4QU0TRPR5EMOW5", "dateTime": 1516675425677}, {"current_trial": 54, "trialdata": {"rt": -1, "trial_type": "single-stim", "stimulus": "<p id=\"stim\">+</p>", "internal_node_id": "0.0-36.0-0.0", "time_elapsed": 280221, "key_press": -1, "type": "FIXATION", "trial_index": 54}, "uniqueid": "MTK2070:3LKC68YZ3BAIRBEG4QU0TRPR5EMOW5", "dateTime": 1516675427188}, {"current_trial": 55, "trialdata": {"rt": -1000, "trial_type": "single-audio", "word": "poet", "stimulus": "/static/audio/wordpool/POET.wav", "conditions": [18, 1200, "a", 18000], "internal_node_id": "0.0-37.0", "trial": 1, "time_elapsed": 282280, "serialpos": 0, "key_press": -1, "wordID": 1094, "type": "PRES_AUD", "trial_index": 55}, "uniqueid": "MTK2070:3LKC68YZ3BAIRBEG4QU0TRPR5EMOW5", "dateTime": 1516675429247}, {"current_trial": 56, "trialdata": {"rt": -1000, "trial_type": "single-audio", "word": "office", "stimulus": "/static/audio/wordpool/OFFICE.wav", "conditions": [18, 1200, "a", 18000], "internal_node_id": "0.0-38.0", "trial": 1, "time_elapsed": 284461, "serialpos": 1, "key_press": -1, "wordID": 971, "type": "PRES_AUD", "trial_index": 56}, "uniqueid": "MTK2070:3LKC68YZ3BAIRBEG4QU0TRPR5EMOW5", "dateTime": 1516675431428}, {"current_trial": 57, "trialdata": {"rt": -1000, "trial_type": "single-audio", "word": "seagull", "stimulus": "/static/audio/wordpool/SEAGULL.wav", "conditions": [18, 1200, "a", 18000], "internal_node_id": "0.0-39.0", "trial": 1, "time_elapsed": 286518, "serialpos": 2, "key_press": -1, "wordID": 1260, "type": "PRES_AUD", "trial_index": 57}, "uniqueid": "MTK2070:3LKC68YZ3BAIRBEG4QU0TRPR5EMOW5", "dateTime": 1516675433485}, {"current_trial": 58, "trialdata": {"rt": -1000, "trial_type": "single-audio", "word": "hawk", "stimulus": "/static/audio/wordpool/HAWK.wav", "conditions": [18, 1200, "a", 18000], "internal_node_id": "0.0-40.0", "trial": 1, "time_elapsed": 288543, "serialpos": 3, "key_press": -1, "wordID": 691, "type": "PRES_AUD", "trial_index": 58}, "uniqueid": "MTK2070:3LKC68YZ3BAIRBEG4QU0TRPR5EMOW5", "dateTime": 1516675435510}, {"current_trial": 59, "trialdata": {"rt": -1000, "trial_type": "single-audio", "word": "drink", "stimulus": "/static/audio/wordpool/DRINK.wav", "conditions": [18, 1200, "a", 18000], "internal_node_id": "0.0-41.0", "trial": 1, "time_elapsed": 290845, "serialpos": 4, "key_press": -1, "wordID": 497, "type": "PRES_AUD", "trial_index": 59}, "uniqueid": "MTK2070:3LKC68YZ3BAIRBEG4QU0TRPR5EMOW5", "dateTime": 1516675437812}, {"current_trial": 60, "trialdata": {"rt": -1000, "trial_type": "single-audio", "word": "receipt", "stimulus": "/static/audio/wordpool/RECEIPT.wav", "conditions": [18, 1200, "a", 18000], "internal_node_id": "0.0-42.0", "trial": 1, "time_elapsed": 292888, "serialpos": 5, "key_press": -1, "wordID": 1172, "type": "PRES_AUD", "trial_index": 60}, "uniqueid": "MTK2070:3LKC68YZ3BAIRBEG4QU0TRPR5EMOW5", "dateTime": 1516675439855}, {"current_trial": 61, "trialdata": {"rt": -1000, "trial_type": "single-audio", "word": "infant", "stimulus": "/static/audio/wordpool/INFANT.wav", "conditions": [18, 1200, "a", 18000], "internal_node_id": "0.0-43.0", "trial": 1, "time_elapsed": 295158, "serialpos": 6, "key_press": -1, "wordID": 736, "type": "PRES_AUD", "trial_index": 61}, "uniqueid": "MTK2070:3LKC68YZ3BAIRBEG4QU0TRPR5EMOW5", "dateTime": 1516675442125}, {"current_trial": 62, "trialdata": {"rt": -1000, "trial_type": "single-audio", "word": "pork", "stimulus": "/static/audio/wordpool/PORK.wav", "conditions": [18, 1200, "a", 18000], "internal_node_id": "0.0-44.0", "trial": 1, "time_elapsed": 297387, "serialpos": 7, "key_press": -1, "wordID": 1107, "type": "PRES_AUD", "trial_index": 62}, "uniqueid": "MTK2070:3LKC68YZ3BAIRBEG4QU0TRPR5EMOW5", "dateTime": 1516675444355}, {"current_trial": 63, "trialdata": {"rt": 419.9999999999591, "trial_type": "single-audio", "word": "zipper", "stimulus": "/static/audio/wordpool/ZIPPER.wav", "conditions": [18, 1200, "a", 18000], "internal_node_id": "0.0-45.0", "trial": 1, "time_elapsed": 299516, "serialpos": 8, "key_press": 175, "wordID": 1635, "type": "PRES_AUD", "trial_index": 63}, "uniqueid": "MTK2070:3LKC68YZ3BAIRBEG4QU0TRPR5EMOW5", "dateTime": 1516675446484}, {"current_trial": 64, "trialdata": {"rt": -1000, "trial_type": "single-audio", "word": "soda", "stimulus": "/static/audio/wordpool/SODA.wav", "conditions": [18, 1200, "a", 18000], "internal_node_id": "0.0-46.0", "trial": 1, "time_elapsed": 301602, "serialpos": 9, "key_press": -1, "wordID": 1340, "type": "PRES_AUD", "trial_index": 64}, "uniqueid": "MTK2070:3LKC68YZ3BAIRBEG4QU0TRPR5EMOW5", "dateTime": 1516675448569}, {"current_trial": 65, "trialdata": {"rt": -1000, "trial_type": "single-audio", "word": "coffee", "stimulus": "/static/audio/wordpool/COFFEE.wav", "conditions": [18, 1200, "a", 18000], "internal_node_id": "0.0-47.0", "trial": 1, "time_elapsed": 303723, "serialpos": 10, "key_press": -1, "wordID": 340, "type": "PRES_AUD", "trial_index": 65}, "uniqueid": "MTK2070:3LKC68YZ3BAIRBEG4QU0TRPR5EMOW5", "dateTime": 1516675450690}, {"current_trial": 66, "trialdata": {"rt": -1000, "trial_type": "single-audio", "word": "mustard", "stimulus": "/static/audio/wordpool/MUSTARD.wav", "conditions": [18, 1200, "a", 18000], "internal_node_id": "0.0-48.0", "trial": 1, "time_elapsed": 305904, "serialpos": 11, "key_press": -1, "wordID": 934, "type": "PRES_AUD", "trial_index": 66}, "uniqueid": "MTK2070:3LKC68YZ3BAIRBEG4QU0TRPR5EMOW5", "dateTime": 1516675452871}, {"current_trial": 67, "trialdata": {"rt": -1000, "trial_type": "single-audio", "word": "staple", "stimulus": "/static/audio/wordpool/STAPLE.wav", "conditions": [18, 1200, "a", 18000], "internal_node_id": "0.0-49.0", "trial": 1, "time_elapsed": 307983, "serialpos": 12, "key_press": -1, "wordID": 1370, "type": "PRES_AUD", "trial_index": 67}, "uniqueid": "MTK2070:3LKC68YZ3BAIRBEG4QU0TRPR5EMOW5", "dateTime": 1516675454951}, {"current_trial": 68, "trialdata": {"rt": -1000, "trial_type": "single-audio", "word": "waiter", "stimulus": "/static/audio/wordpool/WAITER.wav", "conditions": [18, 1200, "a", 18000], "internal_node_id": "0.0-50.0", "trial": 1, "time_elapsed": 310327, "serialpos": 13, "key_press": -1, "wordID": 1579, "type": "PRES_AUD", "trial_index": 68}, "uniqueid": "MTK2070:3LKC68YZ3BAIRBEG4QU0TRPR5EMOW5", "dateTime": 1516675457295}, {"current_trial": 69, "trialdata": {"rt": -1000, "trial_type": "single-audio", "word": "coin", "stimulus": "/static/audio/wordpool/COIN.wav", "conditions": [18, 1200, "a", 18000], "internal_node_id": "0.0-51.0", "trial": 1, "time_elapsed": 312649, "serialpos": 14, "key_press": -1, "wordID": 342, "type": "PRES_AUD", "trial_index": 69}, "uniqueid": "MTK2070:3LKC68YZ3BAIRBEG4QU0TRPR5EMOW5", "dateTime": 1516675459617}, {"current_trial": 70, "trialdata": {"rt": -1000, "trial_type": "single-audio", "word": "sandwich", "stimulus": "/static/audio/wordpool/SANDWICH.wav", "conditions": [18, 1200, "a", 18000], "internal_node_id": "0.0-52.0", "trial": 1, "time_elapsed": 314717, "serialpos": 15, "key_press": -1, "wordID": 1231, "type": "PRES_AUD", "trial_index": 70}, "uniqueid": "MTK2070:3LKC68YZ3BAIRBEG4QU0TRPR5EMOW5", "dateTime": 1516675461684}, {"current_trial": 71, "trialdata": {"rt": -1000, "trial_type": "single-audio", "word": "box", "stimulus": "/static/audio/wordpool/BOX.wav", "conditions": [18, 1200, "a", 18000], "internal_node_id": "0.0-53.0", "trial": 1, "time_elapsed": 317100, "serialpos": 16, "key_press": -1, "wordID": 158, "type": "PRES_AUD", "trial_index": 71}, "uniqueid": "MTK2070:3LKC68YZ3BAIRBEG4QU0TRPR5EMOW5", "dateTime": 1516675464067}, {"current_trial": 72, "trialdata": {"rt": -1000, "trial_type": "single-audio", "word": "brick", "stimulus": "/static/audio/wordpool/BRICK.wav", "conditions": [18, 1200, "a", 18000], "internal_node_id": "0.0-54.0", "trial": 1, "time_elapsed": 319461, "serialpos": 17, "key_press": -1, "wordID": 171, "type": "PRES_AUD", "trial_index": 72}, "uniqueid": "MTK2070:3LKC68YZ3BAIRBEG4QU0TRPR5EMOW5", "dateTime": 1516675466428}, {"current_trial": 73, "trialdata": {"rt": -1, "trial_type": "single-stim", "stimulus": "", "internal_node_id": "0.0-55.0-0.0", "time_elapsed": 320685, "key_press": -1, "type": "PRE_RECALL_DELAY", "trial_index": 73}, "uniqueid": "MTK2070:3LKC68YZ3BAIRBEG4QU0TRPR5EMOW5", "dateTime": 1516675467652}, {"current_trial": 74, "trialdata": {"rt": -1000, "trial_type": "single-audio", "stimulus": "/static/audio/400Hz.wav", "internal_node_id": "0.0-56.0", "time_elapsed": 321188, "key_press": -1, "type": "PRE_RECALL_ALERT", "trial_index": 74}, "uniqueid": "MTK2070:3LKC68YZ3BAIRBEG4QU0TRPR5EMOW5", "dateTime": 1516675468155}, {"current_trial": 75, "trialdata": {"rt": [5011, 9413, 16032, 19883, 24416], "recwords": ["brick", "poet", "sanwhich", "mail", "mailman"], "key_times": [2156, 2367, 2694, 2923, 3121, 4129, 4523, 5011, 5684, 5957, 6250, 7394, 7552, 8266, 8431, 8590, 9413, 10043, 10098, 10332, 11215, 11551, 11689, 11919, 12644, 12811, 12945, 13467, 14251, 14654, 14911, 15106, 15235, 15387, 16032, 16726, 16869, 16958, 17122, 18206, 18354, 18484, 18698, 19480, 19553, 19883, 20056, 20868, 21059, 21713, 22277, 22402, 22719, 23290, 23549, 23680, 23776, 24416], "trial_type": "free-recall", "conditions": [18, 1200, "a", 18000], "internal_node_id": "0.0-57.0-0.0", "key_presses": [66, 82, 73, 67, 76, 8, 75, 13, 80, 69, 84, 8, 8, 79, 69, 84, 13, 83, 65, 77, 8, 78, 68, 87, 8, 144, 144, 144, 8, 87, 72, 73, 67, 72, 13, 77, 69, 65, 79, 8, 8, 8, 65, 73, 76, 188, 65, 144, 144, 8, 77, 65, 73, 76, 77, 65, 78, 13], "trial": 1, "time_elapsed": 381192, "type": "FREE_RECALL", "trial_index": 75}, "uniqueid": "MTK2070:3LKC68YZ3BAIRBEG4QU0TRPR5EMOW5", "dateTime": 1516675528160}, {"current_trial": 76, "trialdata": {"rt": 4494, "trial_type": "text", "internal_node_id": "0.0-58.0", "time_elapsed": 387689, "key_press": 32, "type": "INSTRUCTIONS", "trial_index": 76}, "uniqueid": "MTK2070:3LKC68YZ3BAIRBEG4QU0TRPR5EMOW5", "dateTime": 1516675534656}, {"current_trial": 77, "trialdata": {"rt": [3494, 5955, 8085, 10793], "trial_type": "math-distractor", "key_times": [2862, 3012, 3494, 5477, 5648, 5955, 7827, 7981, 8085, 10301, 10386, 10793], "responses": ["22", "11", "11", "11"], "num2": [9, 2, 2, 2, 4], "num3": [9, 3, 8, 8, 2], "conditions": [24, 1600, "a", 12000], "internal_node_id": "0.0-59.0", "key_presses": [50, 50, 13, 49, 49, 13, 49, 49, 13, 49, 49, 13], "trial": 2, "time_elapsed": 400692, "type": "DISTRACTOR", "trial_index": 77, "num1": [4, 6, 1, 1, 8]}, "uniqueid": "MTK2070:3LKC68YZ3BAIRBEG4QU0TRPR5EMOW5", "dateTime": 1516675547659}, {"current_trial": 78, "trialdata": {"rt": -1, "trial_type": "single-stim", "stimulus": "<p id=\"stim\">10</p>", "internal_node_id": "0.0-60.0-0.0", "time_elapsed": 403695, "key_press": -1, "trial_index": 78}, "uniqueid": "MTK2070:3LKC68YZ3BAIRBEG4QU0TRPR5EMOW5", "dateTime": 1516675550662}, {"current_trial": 79, "trialdata": {"rt": -1, "trial_type": "single-stim", "stimulus": "<p id=\"stim\">9</p>", "internal_node_id": "0.0-60.0-1.0", "time_elapsed": 404697, "key_press": -1, "trial_index": 79}, "uniqueid": "MTK2070:3LKC68YZ3BAIRBEG4QU0TRPR5EMOW5", "dateTime": 1516675551664}, {"current_trial": 80, "trialdata": {"rt": -1, "trial_type": "single-stim", "stimulus": "<p id=\"stim\">8</p>", "internal_node_id": "0.0-60.0-2.0", "time_elapsed": 405698, "key_press": -1, "trial_index": 80}, "uniqueid": "MTK2070:3LKC68YZ3BAIRBEG4QU0TRPR5EMOW5", "dateTime": 1516675552665}, {"current_trial": 81, "trialdata": {"rt": -1, "trial_type": "single-stim", "stimulus": "<p id=\"stim\">7</p>", "internal_node_id": "0.0-60.0-3.0", "time_elapsed": 406699, "key_press": -1, "trial_index": 81}, "uniqueid": "MTK2070:3LKC68YZ3BAIRBEG4QU0TRPR5EMOW5", "dateTime": 1516675553666}, {"current_trial": 82, "trialdata": {"rt": -1, "trial_type": "single-stim", "stimulus": "<p id=\"stim\">6</p>", "internal_node_id": "0.0-60.0-4.0", "time_elapsed": 407701, "key_press": -1, "trial_index": 82}, "uniqueid": "MTK2070:3LKC68YZ3BAIRBEG4QU0TRPR5EMOW5", "dateTime": 1516675554668}, {"current_trial": 83, "trialdata": {"rt": -1, "trial_type": "single-stim", "stimulus": "<p id=\"stim\">5</p>", "internal_node_id": "0.0-60.0-5.0", "time_elapsed": 408702, "key_press": -1, "trial_index": 83}, "uniqueid": "MTK2070:3LKC68YZ3BAIRBEG4QU0TRPR5EMOW5", "dateTime": 1516675555669}, {"current_trial": 84, "trialdata": {"rt": -1, "trial_type": "single-stim", "stimulus": "<p id=\"stim\">4</p>", "internal_node_id": "0.0-60.0-6.0", "time_elapsed": 409704, "key_press": -1, "trial_index": 84}, "uniqueid": "MTK2070:3LKC68YZ3BAIRBEG4QU0TRPR5EMOW5", "dateTime": 1516675556671}, {"current_trial": 85, "trialdata": {"rt": -1, "trial_type": "single-stim", "stimulus": "<p id=\"stim\">3</p>", "internal_node_id": "0.0-60.0-7.0", "time_elapsed": 410711, "key_press": -1, "trial_index": 85}, "uniqueid": "MTK2070:3LKC68YZ3BAIRBEG4QU0TRPR5EMOW5", "dateTime": 1516675557678}, {"current_trial": 86, "trialdata": {"rt": -1, "trial_type": "single-stim", "stimulus": "<p id=\"stim\">2</p>", "internal_node_id": "0.0-60.0-8.0", "time_elapsed": 411715, "key_press": -1, "trial_index": 86}, "uniqueid": "MTK2070:3LKC68YZ3BAIRBEG4QU0TRPR5EMOW5", "dateTime": 1516675558683}, {"current_trial": 87, "trialdata": {"rt": -1, "trial_type": "single-stim", "stimulus": "<p id=\"stim\">1</p>", "internal_node_id": "0.0-60.0-9.0", "time_elapsed": 412718, "key_press": -1, "trial_index": 87}, "uniqueid": "MTK2070:3LKC68YZ3BAIRBEG4QU0TRPR5EMOW5", "dateTime": 1516675559686}, {"current_trial": 88, "trialdata": {"rt": -1, "trial_type": "single-stim", "stimulus": "<p id=\"stim\">+</p>", "internal_node_id": "0.0-61.0-0.0", "time_elapsed": 414221, "key_press": -1, "type": "FIXATION", "trial_index": 88}, "uniqueid": "MTK2070:3LKC68YZ3BAIRBEG4QU0TRPR5EMOW5", "dateTime": 1516675561188}, {"current_trial": 89, "trialdata": {"rt": -1000, "trial_type": "single-audio", "word": "summit", "stimulus": "/static/audio/wordpool/SUMMIT.wav", "conditions": [24, 1600, "a", 12000], "internal_node_id": "0.0-62.0", "trial": 2, "time_elapsed": 416700, "serialpos": 0, "key_press": -1, "wordID": 1404, "type": "PRES_AUD", "trial_index": 89}, "uniqueid": "MTK2070:3LKC68YZ3BAIRBEG4QU0TRPR5EMOW5", "dateTime": 1516675563669}, {"current_trial": 90, "trialdata": {"rt": -1000, "trial_type": "single-audio", "word": "banquet", "stimulus": "/static/audio/wordpool/BANQUET.wav", "conditions": [24, 1600, "a", 12000], "internal_node_id": "0.0-63.0", "trial": 2, "time_elapsed": 419317, "serialpos": 1, "key_press": -1, "wordID": 85, "type": "PRES_AUD", "trial_index": 90}, "uniqueid": "MTK2070:3LKC68YZ3BAIRBEG4QU0TRPR5EMOW5", "dateTime": 1516675566284}, {"current_trial": 91, "trialdata": {"rt": -1000, "trial_type": "single-audio", "word": "wrench", "stimulus": "/static/audio/wordpool/WRENCH.wav", "conditions": [24, 1600, "a", 12000], "internal_node_id": "0.0-64.0", "trial": 2, "time_elapsed": 421857, "serialpos": 2, "key_press": -1, "wordID": 1624, "type": "PRES_AUD", "trial_index": 91}, "uniqueid": "MTK2070:3LKC68YZ3BAIRBEG4QU0TRPR5EMOW5", "dateTime": 1516675568824}, {"current_trial": 92, "trialdata": {"rt": -1000, "trial_type": "single-audio", "word": "fungus", "stimulus": "/static/audio/wordpool/FUNGUS.wav", "conditions": [24, 1600, "a", 12000], "internal_node_id": "0.0-65.0", "trial": 2, "time_elapsed": 424588, "serialpos": 3, "key_press": -1, "wordID": 613, "type": "PRES_AUD", "trial_index": 92}, "uniqueid": "MTK2070:3LKC68YZ3BAIRBEG4QU0TRPR5EMOW5", "dateTime": 1516675571555}, {"current_trial": 93, "trialdata": {"rt": -1000, "trial_type": "single-audio", "word": "wasp", "stimulus": "/static/audio/wordpool/WASP.wav", "conditions": [24, 1600, "a", 12000], "internal_node_id": "0.0-66.0", "trial": 2, "time_elapsed": 427124, "serialpos": 4, "key_press": -1, "wordID": 1592, "type": "PRES_AUD", "trial_index": 93}, "uniqueid": "MTK2070:3LKC68YZ3BAIRBEG4QU0TRPR5EMOW5", "dateTime": 1516675574091}, {"current_trial": 94, "trialdata": {"rt": -1000, "trial_type": "single-audio", "word": "fruit", "stimulus": "/static/audio/wordpool/FRUIT.wav", "conditions": [24, 1600, "a", 12000], "internal_node_id": "0.0-67.0", "trial": 2, "time_elapsed": 429528, "serialpos": 5, "key_press": -1, "wordID": 609, "type": "PRES_AUD", "trial_index": 94}, "uniqueid": "MTK2070:3LKC68YZ3BAIRBEG4QU0TRPR5EMOW5", "dateTime": 1516675576495}, {"current_trial": 95, "trialdata": {"rt": -1000, "trial_type": "single-audio", "word": "dustpan", "stimulus": "/static/audio/wordpool/DUSTPAN.wav", "conditions": [24, 1600, "a", 12000], "internal_node_id": "0.0-68.0", "trial": 2, "time_elapsed": 432270, "serialpos": 6, "key_press": -1, "wordID": 508, "type": "PRES_AUD", "trial_index": 95}, "uniqueid": "MTK2070:3LKC68YZ3BAIRBEG4QU0TRPR5EMOW5", "dateTime": 1516675579237}, {"current_trial": 96, "trialdata": {"rt": -1000, "trial_type": "single-audio", "word": "breast", "stimulus": "/static/audio/wordpool/BREAST.wav", "conditions": [24, 1600, "a", 12000], "internal_node_id": "0.0-69.0", "trial": 2, "time_elapsed": 434857, "serialpos": 7, "key_press": -1, "wordID": 170, "type": "PRES_AUD", "trial_index": 96}, "uniqueid": "MTK2070:3LKC68YZ3BAIRBEG4QU0TRPR5EMOW5", "dateTime": 1516675581824}, {"current_trial": 97, "trialdata": {"rt": -1000, "trial_type": "single-audio", "word": "bank", "stimulus": "/static/audio/wordpool/BANK.wav", "conditions": [24, 1600, "a", 12000], "internal_node_id": "0.0-70.0", "trial": 2, "time_elapsed": 437521, "serialpos": 8, "key_press": -1, "wordID": 82, "type": "PRES_AUD", "trial_index": 97}, "uniqueid": "MTK2070:3LKC68YZ3BAIRBEG4QU0TRPR5EMOW5", "dateTime": 1516675584488}, {"current_trial": 98, "trialdata": {"rt": -1000, "trial_type": "single-audio", "word": "turtle", "stimulus": "/static/audio/wordpool/TURTLE.wav", "conditions": [24, 1600, "a", 12000], "internal_node_id": "0.0-71.0", "trial": 2, "time_elapsed": 440155, "serialpos": 9, "key_press": -1, "wordID": 1521, "type": "PRES_AUD", "trial_index": 98}, "uniqueid": "MTK2070:3LKC68YZ3BAIRBEG4QU0TRPR5EMOW5", "dateTime": 1516675587122}, {"current_trial": 99, "trialdata": {"rt": -1000, "trial_type": "single-audio", "word": "salad", "stimulus": "/static/audio/wordpool/SALAD.wav", "conditions": [24, 1600, "a", 12000], "internal_node_id": "0.0-72.0", "trial": 2, "time_elapsed": 442910, "serialpos": 10, "key_press": -1, "wordID": 1223, "type": "PRES_AUD", "trial_index": 99}, "uniqueid": "MTK2070:3LKC68YZ3BAIRBEG4QU0TRPR5EMOW5", "dateTime": 1516675589877}, {"current_trial": 100, "trialdata": {"rt": -1000, "trial_type": "single-audio", "word": "banker", "stimulus": "/static/audio/wordpool/BANKER.wav", "conditions": [24, 1600, "a", 12000], "internal_node_id": "0.0-73.0", "trial": 2, "time_elapsed": 445621, "serialpos": 11, "key_press": -1, "wordID": 83, "type": "PRES_AUD", "trial_index": 100}, "uniqueid": "MTK2070:3LKC68YZ3BAIRBEG4QU0TRPR5EMOW5", "dateTime": 1516675592588}, {"current_trial": 101, "trialdata": {"rt": -1000, "trial_type": "single-audio", "word": "gravel", "stimulus": "/static/audio/wordpool/GRAVEL.wav", "conditions": [24, 1600, "a", 12000], "internal_node_id": "0.0-74.0", "trial": 2, "time_elapsed": 448373, "serialpos": 12, "key_press": -1, "wordID": 658, "type": "PRES_AUD", "trial_index": 101}, "uniqueid": "MTK2070:3LKC68YZ3BAIRBEG4QU0TRPR5EMOW5", "dateTime": 1516675595340}, {"current_trial": 102, "trialdata": {"rt": -1000, "trial_type": "single-audio", "word": "dragon", "stimulus": "/static/audio/wordpool/DRAGON.wav", "conditions": [24, 1600, "a", 12000], "internal_node_id": "0.0-75.0", "trial": 2, "time_elapsed": 450953, "serialpos": 13, "key_press": -1, "wordID": 491, "type": "PRES_AUD", "trial_index": 102}, "uniqueid": "MTK2070:3LKC68YZ3BAIRBEG4QU0TRPR5EMOW5", "dateTime": 1516675597920}, {"current_trial": 103, "trialdata": {"rt": -1000, "trial_type": "single-audio", "word": "ox", "stimulus": "/static/audio/wordpool/OX.wav", "conditions": [24, 1600, "a", 12000], "internal_node_id": "0.0-76.0", "trial": 2, "time_elapsed": 453697, "serialpos": 14, "key_press": -1, "wordID": 993, "type": "PRES_AUD", "trial_index": 103}, "uniqueid": "MTK2070:3LKC68YZ3BAIRBEG4QU0TRPR5EMOW5", "dateTime": 1516675600664}, {"current_trial": 104, "trialdata": {"rt": -1000, "trial_type": "single-audio", "word": "crutch", "stimulus": "/static/audio/wordpool/CRUTCH.wav", "conditions": [24, 1600, "a", 12000], "internal_node_id": "0.0-77.0", "trial": 2, "time_elapsed": 456399, "serialpos": 15, "key_press": -1, "wordID": 416, "type": "PRES_AUD", "trial_index": 104}, "uniqueid": "MTK2070:3LKC68YZ3BAIRBEG4QU0TRPR5EMOW5", "dateTime": 1516675603366}, {"current_trial": 105, "trialdata": {"rt": -1000, "trial_type": "single-audio", "word": "arm", "stimulus": "/static/audio/wordpool/ARM.wav", "conditions": [24, 1600, "a", 12000], "internal_node_id": "0.0-78.0", "trial": 2, "time_elapsed": 458880, "serialpos": 16, "key_press": -1, "wordID": 37, "type": "PRES_AUD", "trial_index": 105}, "uniqueid": "MTK2070:3LKC68YZ3BAIRBEG4QU0TRPR5EMOW5", "dateTime": 1516675605847}, {"current_trial": 106, "trialdata": {"rt": -1000, "trial_type": "single-audio", "word": "shoulder", "stimulus": "/static/audio/wordpool/SHOULDER.wav", "conditions": [24, 1600, "a", 12000], "internal_node_id": "0.0-79.0", "trial": 2, "time_elapsed": 461522, "serialpos": 17, "key_press": -1, "wordID": 1293, "type": "PRES_AUD", "trial_index": 106}, "uniqueid": "MTK2070:3LKC68YZ3BAIRBEG4QU0TRPR5EMOW5", "dateTime": 1516675608489}, {"current_trial": 107, "trialdata": {"rt": -1000, "trial_type": "single-audio", "word": "jungle", "stimulus": "/static/audio/wordpool/JUNGLE.wav", "conditions": [24, 1600, "a", 12000], "internal_node_id": "0.0-80.0", "trial": 2, "time_elapsed": 463951, "serialpos": 18, "key_press": -1, "wordID": 763, "type": "PRES_AUD", "trial_index": 107}, "uniqueid": "MTK2070:3LKC68YZ3BAIRBEG4QU0TRPR5EMOW5", "dateTime": 1516675610918}, {"current_trial": 108, "trialdata": {"rt": -1000, "trial_type": "single-audio", "word": "cook", "stimulus": "/static/audio/wordpool/COOK.wav", "conditions": [24, 1600, "a", 12000], "internal_node_id": "0.0-81.0", "trial": 2, "time_elapsed": 466748, "serialpos": 19, "key_press": -1, "wordID": 371, "type": "PRES_AUD", "trial_index": 108}, "uniqueid": "MTK2070:3LKC68YZ3BAIRBEG4QU0TRPR5EMOW5", "dateTime": 1516675613716}, {"current_trial": 109, "trialdata": {"rt": -1000, "trial_type": "single-audio", "word": "police", "stimulus": "/static/audio/wordpool/POLICE.wav", "conditions": [24, 1600, "a", 12000], "internal_node_id": "0.0-82.0", "trial": 2, "time_elapsed": 469325, "serialpos": 20, "key_press": -1, "wordID": 1097, "type": "PRES_AUD", "trial_index": 109}, "uniqueid": "MTK2070:3LKC68YZ3BAIRBEG4QU0TRPR5EMOW5", "dateTime": 1516675616292}, {"current_trial": 110, "trialdata": {"rt": -1000, "trial_type": "single-audio", "word": "salt", "stimulus": "/static/audio/wordpool/SALT.wav", "conditions": [24, 1600, "a", 12000], "internal_node_id": "0.0-83.0", "trial": 2, "time_elapsed": 472091, "serialpos": 21, "key_press": -1, "wordID": 1228, "type": "PRES_AUD", "trial_index": 110}, "uniqueid": "MTK2070:3LKC68YZ3BAIRBEG4QU0TRPR5EMOW5", "dateTime": 1516675619058}, {"current_trial": 111, "trialdata": {"rt": -1000, "trial_type": "single-audio", "word": "goblin", "stimulus": "/static/audio/wordpool/GOBLIN.wav", "conditions": [24, 1600, "a", 12000], "internal_node_id": "0.0-84.0", "trial": 2, "time_elapsed": 474578, "serialpos": 22, "key_press": -1, "wordID": 644, "type": "PRES_AUD", "trial_index": 111}, "uniqueid": "MTK2070:3LKC68YZ3BAIRBEG4QU0TRPR5EMOW5", "dateTime": 1516675621545}, {"current_trial": 112, "trialdata": {"rt": -1000, "trial_type": "single-audio", "word": "milk", "stimulus": "/static/audio/wordpool/MILK.wav", "conditions": [24, 1600, "a", 12000], "internal_node_id": "0.0-85.0", "trial": 2, "time_elapsed": 477144, "serialpos": 23, "key_press": -1, "wordID": 894, "type": "PRES_AUD", "trial_index": 112}, "uniqueid": "MTK2070:3LKC68YZ3BAIRBEG4QU0TRPR5EMOW5", "dateTime": 1516675624111}, {"current_trial": 113, "trialdata": {"rt": -1, "trial_type": "single-stim", "stimulus": "", "internal_node_id": "0.0-86.0-0.0", "time_elapsed": 478482, "key_press": -1, "type": "PRE_RECALL_DELAY", "trial_index": 113}, "uniqueid": "MTK2070:3LKC68YZ3BAIRBEG4QU0TRPR5EMOW5", "dateTime": 1516675625449}, {"current_trial": 114, "trialdata": {"rt": -1000, "trial_type": "single-audio", "stimulus": "/static/audio/400Hz.wav", "internal_node_id": "0.0-87.0", "time_elapsed": 478982, "key_press": -1, "type": "PRE_RECALL_ALERT", "trial_index": 114}, "uniqueid": "MTK2070:3LKC68YZ3BAIRBEG4QU0TRPR5EMOW5", "dateTime": 1516675625950}, {"current_trial": 115, "trialdata": {"rt": [3400, 7525, 9317, 10404, 21439, 26605, 28989, 31185, 34480], "recwords": ["milk", "gobblin", "police", "ox", "banquet", "summit", "arm", "shoulder", "jungle"], "key_times": [1998, 2195, 2442, 2614, 3400, 3924, 4056, 4671, 4799, 5039, 5517, 6489, 7156, 7271, 7525, 8090, 8311, 8511, 8709, 8887, 9095, 9317, 9898, 10186, 10404, 16863, 17661, 18080, 18771, 19003, 19142, 19414, 19768, 20656, 21439, 21794, 22105, 22378, 23960, 24173, 24343, 24662, 25535, 26605, 27824, 28020, 28410, 28989, 29502, 29801, 30129, 30232, 30440, 30570, 30725, 30871, 31185, 31766, 32025, 32342, 33229, 33547, 33731, 34117, 34217, 34480], "trial_type": "free-recall", "conditions": [24, 1600, "a", 12000], "internal_node_id": "0.0-88.0-0.0", "key_presses": [77, 73, 76, 75, 13, 71, 79, 66, 66, 76, 78, 8, 73, 78, 13, 80, 79, 76, 73, 67, 69, 13, 79, 88, 13, 66, 65, 78, 81, 85, 69, 84, 100, 8, 13, 83, 85, 77, 77, 73, 84, 100, 8, 13, 65, 82, 77, 13, 83, 72, 79, 85, 76, 68, 69, 82, 13, 74, 85, 77, 8, 78, 71, 76, 69, 13], "trial": 2, "time_elapsed": 538988, "type": "FREE_RECALL", "trial_index": 115}, "uniqueid": "MTK2070:3LKC68YZ3BAIRBEG4QU0TRPR5EMOW5", "dateTime": 1516675685961}, {"current_trial": 116, "trialdata": {"rt": 3397, "trial_type": "text", "internal_node_id": "0.0-89.0", "time_elapsed": 544391, "key_press": 32, "type": "INSTRUCTIONS", "trial_index": 116}, "uniqueid": "MTK2070:3LKC68YZ3BAIRBEG4QU0TRPR5EMOW5", "dateTime": 1516675691358}, {"current_trial": 117, "trialdata": {"rt": [3100, 6130, 8984, 10882, 13847, 17135, 20926, 22808], "trial_type": "math-distractor", "key_times": [2896, 3100, 5498, 5902, 6130, 8663, 8769, 8984, 10417, 10760, 10882, 13587, 13740, 13847, 16655, 16996, 17135, 20368, 20764, 20926, 22720, 22808], "responses": ["8", "17", "12", "15", "23", "15", "19", "4"], "num2": [4, 3, 3, 6, 9, 5, 6, 1, 5], "num3": [3, 6, 8, 1, 9, 7, 5, 2, 4], "conditions": [24, 800, "a", 24000], "internal_node_id": "0.0-90.0", "key_presses": [56, 13, 49, 55, 13, 49, 50, 13, 49, 53, 13, 50, 51, 13, 49, 53, 13, 49, 57, 13, 52, 13], "trial": 3, "time_elapsed": 570395, "type": "DISTRACTOR", "trial_index": 117, "num1": [1, 8, 1, 8, 5, 3, 8, 1, 1]}, "uniqueid": "MTK2070:3LKC68YZ3BAIRBEG4QU0TRPR5EMOW5", "dateTime": 1516675717362}, {"current_trial": 118, "trialdata": {"rt": -1, "trial_type": "single-stim", "stimulus": "<p id=\"stim\">10</p>", "internal_node_id": "0.0-91.0-0.0", "time_elapsed": 573400, "key_press": -1, "trial_index": 118}, "uniqueid": "MTK2070:3LKC68YZ3BAIRBEG4QU0TRPR5EMOW5", "dateTime": 1516675720367}, {"current_trial": 119, "trialdata": {"rt": -1, "trial_type": "single-stim", "stimulus": "<p id=\"stim\">9</p>", "internal_node_id": "0.0-91.0-1.0", "time_elapsed": 574405, "key_press": -1, "trial_index": 119}, "uniqueid": "MTK2070:3LKC68YZ3BAIRBEG4QU0TRPR5EMOW5", "dateTime": 1516675721374}, {"current_trial": 120, "trialdata": {"rt": -1, "trial_type": "single-stim", "stimulus": "<p id=\"stim\">8</p>", "internal_node_id": "0.0-91.0-2.0", "time_elapsed": 575414, "key_press": -1, "trial_index": 120}, "uniqueid": "MTK2070:3LKC68YZ3BAIRBEG4QU0TRPR5EMOW5", "dateTime": 1516675722381}, {"current_trial": 121, "trialdata": {"rt": -1, "trial_type": "single-stim", "stimulus": "<p id=\"stim\">7</p>", "internal_node_id": "0.0-91.0-3.0", "time_elapsed": 576415, "key_press": -1, "trial_index": 121}, "uniqueid": "MTK2070:3LKC68YZ3BAIRBEG4QU0TRPR5EMOW5", "dateTime": 1516675723382}, {"current_trial": 122, "trialdata": {"rt": -1, "trial_type": "single-stim", "stimulus": "<p id=\"stim\">6</p>", "internal_node_id": "0.0-91.0-4.0", "time_elapsed": 577416, "key_press": -1, "trial_index": 122}, "uniqueid": "MTK2070:3LKC68YZ3BAIRBEG4QU0TRPR5EMOW5", "dateTime": 1516675724383}, {"current_trial": 123, "trialdata": {"rt": -1, "trial_type": "single-stim", "stimulus": "<p id=\"stim\">5</p>", "internal_node_id": "0.0-91.0-5.0", "time_elapsed": 578418, "key_press": -1, "trial_index": 123}, "uniqueid": "MTK2070:3LKC68YZ3BAIRBEG4QU0TRPR5EMOW5", "dateTime": 1516675725385}, {"current_trial": 124, "trialdata": {"rt": -1, "trial_type": "single-stim", "stimulus": "<p id=\"stim\">4</p>", "internal_node_id": "0.0-91.0-6.0", "time_elapsed": 579420, "key_press": -1, "trial_index": 124}, "uniqueid": "MTK2070:3LKC68YZ3BAIRBEG4QU0TRPR5EMOW5", "dateTime": 1516675726387}, {"current_trial": 125, "trialdata": {"rt": -1, "trial_type": "single-stim", "stimulus": "<p id=\"stim\">3</p>", "internal_node_id": "0.0-91.0-7.0", "time_elapsed": 580433, "key_press": -1, "trial_index": 125}, "uniqueid": "MTK2070:3LKC68YZ3BAIRBEG4QU0TRPR5EMOW5", "dateTime": 1516675727400}, {"current_trial": 126, "trialdata": {"rt": -1, "trial_type": "single-stim", "stimulus": "<p id=\"stim\">2</p>", "internal_node_id": "0.0-91.0-8.0", "time_elapsed": 581441, "key_press": -1, "trial_index": 126}, "uniqueid": "MTK2070:3LKC68YZ3BAIRBEG4QU0TRPR5EMOW5", "dateTime": 1516675728408}, {"current_trial": 127, "trialdata": {"rt": -1, "trial_type": "single-stim", "stimulus": "<p id=\"stim\">1</p>", "internal_node_id": "0.0-91.0-9.0", "time_elapsed": 582442, "key_press": -1, "trial_index": 127}, "uniqueid": "MTK2070:3LKC68YZ3BAIRBEG4QU0TRPR5EMOW5", "dateTime": 1516675729409}, {"current_trial": 128, "trialdata": {"rt": -1, "trial_type": "single-stim", "stimulus": "<p id=\"stim\">+</p>", "internal_node_id": "0.0-92.0-0.0", "time_elapsed": 583943, "key_press": -1, "type": "FIXATION", "trial_index": 128}, "uniqueid": "MTK2070:3LKC68YZ3BAIRBEG4QU0TRPR5EMOW5", "dateTime": 1516675730910}, {"current_trial": 129, "trialdata": {"rt": -1000, "trial_type": "single-audio", "word": "chapel", "stimulus": "/static/audio/wordpool/CHAPEL.wav", "conditions": [24, 800, "a", 24000], "internal_node_id": "0.0-93.0", "trial": 3, "time_elapsed": 585548, "serialpos": 0, "key_press": -1, "wordID": 279, "type": "PRES_AUD", "trial_index": 129}, "uniqueid": "MTK2070:3LKC68YZ3BAIRBEG4QU0TRPR5EMOW5", "dateTime": 1516675732515}, {"current_trial": 130, "trialdata": {"rt": -1000, "trial_type": "single-audio", "word": "brandy", "stimulus": "/static/audio/wordpool/BRANDY.wav", "conditions": [24, 800, "a", 24000], "internal_node_id": "0.0-94.0", "trial": 3, "time_elapsed": 587177, "serialpos": 1, "key_press": -1, "wordID": 168, "type": "PRES_AUD", "trial_index": 130}, "uniqueid": "MTK2070:3LKC68YZ3BAIRBEG4QU0TRPR5EMOW5", "dateTime": 1516675734145}, {"current_trial": 131, "trialdata": {"rt": -1000, "trial_type": "single-audio", "word": "valley", "stimulus": "/static/audio/wordpool/VALLEY.wav", "conditions": [24, 800, "a", 24000], "internal_node_id": "0.0-95.0", "trial": 3, "time_elapsed": 588880, "serialpos": 2, "key_press": -1, "wordID": 1544, "type": "PRES_AUD", "trial_index": 131}, "uniqueid": "MTK2070:3LKC68YZ3BAIRBEG4QU0TRPR5EMOW5", "dateTime": 1516675735847}, {"current_trial": 132, "trialdata": {"rt": -1000, "trial_type": "single-audio", "word": "belly", "stimulus": "/static/audio/wordpool/BELLY.wav", "conditions": [24, 800, "a", 24000], "internal_node_id": "0.0-96.0", "trial": 3, "time_elapsed": 590653, "serialpos": 3, "key_press": -1, "wordID": 118, "type": "PRES_AUD", "trial_index": 132}, "uniqueid": "MTK2070:3LKC68YZ3BAIRBEG4QU0TRPR5EMOW5", "dateTime": 1516675737620}, {"current_trial": 133, "trialdata": {"rt": -1000, "trial_type": "single-audio", "word": "grave", "stimulus": "/static/audio/wordpool/GRAVE.wav", "conditions": [24, 800, "a", 24000], "internal_node_id": "0.0-97.0", "trial": 3, "time_elapsed": 592619, "serialpos": 4, "key_press": -1, "wordID": 657, "type": "PRES_AUD", "trial_index": 133}, "uniqueid": "MTK2070:3LKC68YZ3BAIRBEG4QU0TRPR5EMOW5", "dateTime": 1516675739586}, {"current_trial": 134, "trialdata": {"rt": -1000, "trial_type": "single-audio", "word": "convict", "stimulus": "/static/audio/wordpool/CONVICT.wav", "conditions": [24, 800, "a", 24000], "internal_node_id": "0.0-98.0", "trial": 3, "time_elapsed": 594481, "serialpos": 5, "key_press": -1, "wordID": 370, "type": "PRES_AUD", "trial_index": 134}, "uniqueid": "MTK2070:3LKC68YZ3BAIRBEG4QU0TRPR5EMOW5", "dateTime": 1516675741448}, {"current_trial": 135, "trialdata": {"rt": -1000, "trial_type": "single-audio", "word": "boyfriend", "stimulus": "/static/audio/wordpool/BOYFRIEND.wav", "conditions": [24, 800, "a", 24000], "internal_node_id": "0.0-99.0", "trial": 3, "time_elapsed": 596295, "serialpos": 6, "key_press": -1, "wordID": 161, "type": "PRES_AUD", "trial_index": 135}, "uniqueid": "MTK2070:3LKC68YZ3BAIRBEG4QU0TRPR5EMOW5", "dateTime": 1516675743262}, {"current_trial": 136, "trialdata": {"rt": -1000, "trial_type": "single-audio", "word": "church", "stimulus": "/static/audio/wordpool/CHURCH.wav", "conditions": [24, 800, "a", 24000], "internal_node_id": "0.0-100.0", "trial": 3, "time_elapsed": 598114, "serialpos": 7, "key_press": -1, "wordID": 306, "type": "PRES_AUD", "trial_index": 136}, "uniqueid": "MTK2070:3LKC68YZ3BAIRBEG4QU0TRPR5EMOW5", "dateTime": 1516675745081}, {"current_trial": 137, "trialdata": {"rt": -1000, "trial_type": "single-audio", "word": "county", "stimulus": "/static/audio/wordpool/COUNTY.wav", "conditions": [24, 800, "a", 24000], "internal_node_id": "0.0-101.0", "trial": 3, "time_elapsed": 599999, "serialpos": 8, "key_press": -1, "wordID": 388, "type": "PRES_AUD", "trial_index": 137}, "uniqueid": "MTK2070:3LKC68YZ3BAIRBEG4QU0TRPR5EMOW5", "dateTime": 1516675746966}, {"current_trial": 138, "trialdata": {"rt": -1000, "trial_type": "single-audio", "word": "daisy", "stimulus": "/static/audio/wordpool/DAISY.wav", "conditions": [24, 800, "a", 24000], "internal_node_id": "0.0-102.0", "trial": 3, "time_elapsed": 601994, "serialpos": 9, "key_press": -1, "wordID": 434, "type": "PRES_AUD", "trial_index": 138}, "uniqueid": "MTK2070:3LKC68YZ3BAIRBEG4QU0TRPR5EMOW5", "dateTime": 1516675748962}, {"current_trial": 139, "trialdata": {"rt": -1000, "trial_type": "single-audio", "word": "flower", "stimulus": "/static/audio/wordpool/FLOWER.wav", "conditions": [24, 800, "a", 24000], "internal_node_id": "0.0-103.0", "trial": 3, "time_elapsed": 603795, "serialpos": 10, "key_press": -1, "wordID": 583, "type": "PRES_AUD", "trial_index": 139}, "uniqueid": "MTK2070:3LKC68YZ3BAIRBEG4QU0TRPR5EMOW5", "dateTime": 1516675750762}, {"current_trial": 140, "trialdata": {"rt": -1000, "trial_type": "single-audio", "word": "snake", "stimulus": "/static/audio/wordpool/SNAKE.wav", "conditions": [24, 800, "a", 24000], "internal_node_id": "0.0-104.0", "trial": 3, "time_elapsed": 605420, "serialpos": 11, "key_press": -1, "wordID": 1332, "type": "PRES_AUD", "trial_index": 140}, "uniqueid": "MTK2070:3LKC68YZ3BAIRBEG4QU0TRPR5EMOW5", "dateTime": 1516675752387}, {"current_trial": 141, "trialdata": {"rt": -1000, "trial_type": "single-audio", "word": "window", "stimulus": "/static/audio/wordpool/WINDOW.wav", "conditions": [24, 800, "a", 24000], "internal_node_id": "0.0-105.0", "trial": 3, "time_elapsed": 607074, "serialpos": 12, "key_press": -1, "wordID": 1610, "type": "PRES_AUD", "trial_index": 141}, "uniqueid": "MTK2070:3LKC68YZ3BAIRBEG4QU0TRPR5EMOW5", "dateTime": 1516675754041}, {"current_trial": 142, "trialdata": {"rt": -1000, "trial_type": "single-audio", "word": "panther", "stimulus": "/static/audio/wordpool/PANTHER.wav", "conditions": [24, 800, "a", 24000], "internal_node_id": "0.0-106.0", "trial": 3, "time_elapsed": 608757, "serialpos": 13, "key_press": -1, "wordID": 1008, "type": "PRES_AUD", "trial_index": 142}, "uniqueid": "MTK2070:3LKC68YZ3BAIRBEG4QU0TRPR5EMOW5", "dateTime": 1516675755724}, {"current_trial": 143, "trialdata": {"rt": -1000, "trial_type": "single-audio", "word": "stove", "stimulus": "/static/audio/wordpool/STOVE.wav", "conditions": [24, 800, "a", 24000], "internal_node_id": "0.0-107.0", "trial": 3, "time_elapsed": 610391, "serialpos": 14, "key_press": -1, "wordID": 1387, "type": "PRES_AUD", "trial_index": 143}, "uniqueid": "MTK2070:3LKC68YZ3BAIRBEG4QU0TRPR5EMOW5", "dateTime": 1516675757358}, {"current_trial": 144, "trialdata": {"rt": -1000, "trial_type": "single-audio", "word": "film", "stimulus": "/static/audio/wordpool/FILM.wav", "conditions": [24, 800, "a", 24000], "internal_node_id": "0.0-108.0", "trial": 3, "time_elapsed": 612240, "serialpos": 15, "key_press": -1, "wordID": 564, "type": "PRES_AUD", "trial_index": 144}, "uniqueid": "MTK2070:3LKC68YZ3BAIRBEG4QU0TRPR5EMOW5", "dateTime": 1516675759207}, {"current_trial": 145, "trialdata": {"rt": -1000, "trial_type": "single-audio", "word": "onion", "stimulus": "/static/audio/wordpool/ONION.wav", "conditions": [24, 800, "a", 24000], "internal_node_id": "0.0-109.0", "trial": 3, "time_elapsed": 614125, "serialpos": 16, "key_press": -1, "wordID": 976, "type": "PRES_AUD", "trial_index": 145}, "uniqueid": "MTK2070:3LKC68YZ3BAIRBEG4QU0TRPR5EMOW5", "dateTime": 1516675761092}, {"current_trial": 146, "trialdata": {"rt": -1000, "trial_type": "single-audio", "word": "cabbage", "stimulus": "/static/audio/wordpool/CABBAGE.wav", "conditions": [24, 800, "a", 24000], "internal_node_id": "0.0-110.0", "trial": 3, "time_elapsed": 615770, "serialpos": 17, "key_press": -1, "wordID": 209, "type": "PRES_AUD", "trial_index": 146}, "uniqueid": "MTK2070:3LKC68YZ3BAIRBEG4QU0TRPR5EMOW5", "dateTime": 1516675762737}, {"current_trial": 147, "trialdata": {"rt": -1000, "trial_type": "single-audio", "word": "dolphin", "stimulus": "/static/audio/wordpool/DOLPHIN.wav", "conditions": [24, 800, "a", 24000], "internal_node_id": "0.0-111.0", "trial": 3, "time_elapsed": 617513, "serialpos": 18, "key_press": -1, "wordID": 482, "type": "PRES_AUD", "trial_index": 147}, "uniqueid": "MTK2070:3LKC68YZ3BAIRBEG4QU0TRPR5EMOW5", "dateTime": 1516675764480}, {"current_trial": 148, "trialdata": {"rt": -1000, "trial_type": "single-audio", "word": "skirt", "stimulus": "/static/audio/wordpool/SKIRT.wav", "conditions": [24, 800, "a", 24000], "internal_node_id": "0.0-112.0", "trial": 3, "time_elapsed": 619434, "serialpos": 19, "key_press": -1, "wordID": 1318, "type": "PRES_AUD", "trial_index": 148}, "uniqueid": "MTK2070:3LKC68YZ3BAIRBEG4QU0TRPR5EMOW5", "dateTime": 1516675766401}, {"current_trial": 149, "trialdata": {"rt": -1000, "trial_type": "single-audio", "word": "motor", "stimulus": "/static/audio/wordpool/MOTOR.wav", "conditions": [24, 800, "a", 24000], "internal_node_id": "0.0-113.0", "trial": 3, "time_elapsed": 621191, "serialpos": 20, "key_press": -1, "wordID": 921, "type": "PRES_AUD", "trial_index": 149}, "uniqueid": "MTK2070:3LKC68YZ3BAIRBEG4QU0TRPR5EMOW5", "dateTime": 1516675768159}, {"current_trial": 150, "trialdata": {"rt": -1000, "trial_type": "single-audio", "word": "taxi", "stimulus": "/static/audio/wordpool/TAXI.wav", "conditions": [24, 800, "a", 24000], "internal_node_id": "0.0-114.0", "trial": 3, "time_elapsed": 623073, "serialpos": 21, "key_press": -1, "wordID": 1437, "type": "PRES_AUD", "trial_index": 150}, "uniqueid": "MTK2070:3LKC68YZ3BAIRBEG4QU0TRPR5EMOW5", "dateTime": 1516675770040}, {"current_trial": 151, "trialdata": {"rt": -1000, "trial_type": "single-audio", "word": "buggy", "stimulus": "/static/audio/wordpool/BUGGY.wav", "conditions": [24, 800, "a", 24000], "internal_node_id": "0.0-115.0", "trial": 3, "time_elapsed": 624979, "serialpos": 22, "key_press": -1, "wordID": 187, "type": "PRES_AUD", "trial_index": 151}, "uniqueid": "MTK2070:3LKC68YZ3BAIRBEG4QU0TRPR5EMOW5", "dateTime": 1516675771946}, {"current_trial": 152, "trialdata": {"rt": -1000, "trial_type": "single-audio", "word": "mammal", "stimulus": "/static/audio/wordpool/MAMMAL.wav", "conditions": [24, 800, "a", 24000], "internal_node_id": "0.0-116.0", "trial": 3, "time_elapsed": 626801, "serialpos": 23, "key_press": -1, "wordID": 860, "type": "PRES_AUD", "trial_index": 152}, "uniqueid": "MTK2070:3LKC68YZ3BAIRBEG4QU0TRPR5EMOW5", "dateTime": 1516675773768}, {"current_trial": 153, "trialdata": {"rt": -1, "trial_type": "single-stim", "stimulus": "", "internal_node_id": "0.0-117.0-0.0", "time_elapsed": 628062, "key_press": -1, "type": "PRE_RECALL_DELAY", "trial_index": 153}, "uniqueid": "MTK2070:3LKC68YZ3BAIRBEG4QU0TRPR5EMOW5", "dateTime": 1516675775030}, {"current_trial": 154, "trialdata": {"rt": -1000, "trial_type": "single-audio", "stimulus": "/static/audio/400Hz.wav", "internal_node_id": "0.0-118.0", "time_elapsed": 628563, "key_press": -1, "type": "PRE_RECALL_ALERT", "trial_index": 154}, "uniqueid": "MTK2070:3LKC68YZ3BAIRBEG4QU0TRPR5EMOW5", "dateTime": 1516675775530}, {"current_trial": 155, "trialdata": {"rt": [4301, 7526, 9891, 12168, 14532, 18005, 23430, 29041], "recwords": ["chapel", "mummy", "convict", "boyfriend", "valley", "grave", "mammel", "mountain"], "key_times": [2169, 2380, 2586, 3352, 3456, 3638, 4301, 5311, 5576, 6500, 6636, 6762, 7526, 7944, 8412, 8538, 9092, 9295, 9393, 9703, 9891, 10449, 10722, 10824, 11067, 11298, 11411, 11562, 11755, 11841, 12168, 12714, 13674, 13947, 14074, 14159, 14401, 14532, 16446, 16700, 16811, 17488, 17698, 18005, 21179, 22067, 22217, 22358, 22520, 22670, 23430, 27385, 27737, 27834, 28086, 28203, 28443, 28552, 28653, 29041], "trial_type": "free-recall", "conditions": [24, 800, "a", 24000], "internal_node_id": "0.0-119.0-0.0", "key_presses": [67, 72, 65, 80, 69, 76, 13, 77, 85, 77, 77, 89, 13, 67, 79, 78, 86, 73, 67, 84, 13, 66, 79, 89, 70, 82, 73, 69, 78, 68, 13, 86, 65, 76, 76, 69, 89, 13, 71, 82, 65, 86, 69, 13, 77, 65, 77, 77, 69, 76, 13, 77, 79, 85, 78, 84, 65, 73, 78, 13], "trial": 3, "time_elapsed": 688566, "type": "FREE_RECALL", "trial_index": 155}, "uniqueid": "MTK2070:3LKC68YZ3BAIRBEG4QU0TRPR5EMOW5", "dateTime": 1516675835535}, {"current_trial": 156, "trialdata": {"rt": 5433, "trial_type": "text", "internal_node_id": "0.0-120.0", "time_elapsed": 696003, "key_press": 13, "type": "INSTRUCTIONS", "trial_index": 156}, "uniqueid": "MTK2070:3LKC68YZ3BAIRBEG4QU0TRPR5EMOW5", "dateTime": 1516675842970}, {"current_trial": 157, "trialdata": {"rt": [5153, 7818, 9516], "trial_type": "math-distractor", "key_times": [4373, 4552, 5153, 7293, 7700, 7818, 9123, 9411, 9516], "responses": ["21", "18", "16"], "num2": [9, 2, 8, 9], "num3": [6, 7, 7, 2], "conditions": [12, 1600, "a", 12000], "internal_node_id": "0.0-121.0", "key_presses": [50, 49, 13, 49, 56, 13, 49, 54, 13], "trial": 4, "time_elapsed": 710012, "type": "DISTRACTOR", "trial_index": 157, "num1": [6, 9, 1, 2]}, "uniqueid": "MTK2070:3LKC68YZ3BAIRBEG4QU0TRPR5EMOW5", "dateTime": 1516675856979}, {"current_trial": 158, "trialdata": {"rt": -1, "trial_type": "single-stim", "stimulus": "<p id=\"stim\">10</p>", "internal_node_id": "0.0-122.0-0.0", "time_elapsed": 713014, "key_press": -1, "trial_index": 158}, "uniqueid": "MTK2070:3LKC68YZ3BAIRBEG4QU0TRPR5EMOW5", "dateTime": 1516675859981}, {"current_trial": 159, "trialdata": {"rt": -1, "trial_type": "single-stim", "stimulus": "<p id=\"stim\">9</p>", "internal_node_id": "0.0-122.0-1.0", "time_elapsed": 714016, "key_press": -1, "trial_index": 159}, "uniqueid": "MTK2070:3LKC68YZ3BAIRBEG4QU0TRPR5EMOW5", "dateTime": 1516675860983}, {"current_trial": 160, "trialdata": {"rt": -1, "trial_type": "single-stim", "stimulus": "<p id=\"stim\">8</p>", "internal_node_id": "0.0-122.0-2.0", "time_elapsed": 715017, "key_press": -1, "trial_index": 160}, "uniqueid": "MTK2070:3LKC68YZ3BAIRBEG4QU0TRPR5EMOW5", "dateTime": 1516675861985}, {"current_trial": 161, "trialdata": {"rt": -1, "trial_type": "single-stim", "stimulus": "<p id=\"stim\">7</p>", "internal_node_id": "0.0-122.0-3.0", "time_elapsed": 716023, "key_press": -1, "trial_index": 161}, "uniqueid": "MTK2070:3LKC68YZ3BAIRBEG4QU0TRPR5EMOW5", "dateTime": 1516675862990}, {"current_trial": 162, "trialdata": {"rt": -1, "trial_type": "single-stim", "stimulus": "<p id=\"stim\">6</p>", "internal_node_id": "0.0-122.0-4.0", "time_elapsed": 717024, "key_press": -1, "trial_index": 162}, "uniqueid": "MTK2070:3LKC68YZ3BAIRBEG4QU0TRPR5EMOW5", "dateTime": 1516675863991}, {"current_trial": 163, "trialdata": {"rt": -1, "trial_type": "single-stim", "stimulus": "<p id=\"stim\">5</p>", "internal_node_id": "0.0-122.0-5.0", "time_elapsed": 718025, "key_press": -1, "trial_index": 163}, "uniqueid": "MTK2070:3LKC68YZ3BAIRBEG4QU0TRPR5EMOW5", "dateTime": 1516675864992}, {"current_trial": 164, "trialdata": {"rt": -1, "trial_type": "single-stim", "stimulus": "<p id=\"stim\">4</p>", "internal_node_id": "0.0-122.0-6.0", "time_elapsed": 719028, "key_press": -1, "trial_index": 164}, "uniqueid": "MTK2070:3LKC68YZ3BAIRBEG4QU0TRPR5EMOW5", "dateTime": 1516675865995}, {"current_trial": 165, "trialdata": {"rt": -1, "trial_type": "single-stim", "stimulus": "<p id=\"stim\">3</p>", "internal_node_id": "0.0-122.0-7.0", "time_elapsed": 720030, "key_press": -1, "trial_index": 165}, "uniqueid": "MTK2070:3LKC68YZ3BAIRBEG4QU0TRPR5EMOW5", "dateTime": 1516675866997}, {"current_trial": 166, "trialdata": {"rt": -1, "trial_type": "single-stim", "stimulus": "<p id=\"stim\">2</p>", "internal_node_id": "0.0-122.0-8.0", "time_elapsed": 721033, "key_press": -1, "trial_index": 166}, "uniqueid": "MTK2070:3LKC68YZ3BAIRBEG4QU0TRPR5EMOW5", "dateTime": 1516675868000}, {"current_trial": 167, "trialdata": {"rt": -1, "trial_type": "single-stim", "stimulus": "<p id=\"stim\">1</p>", "internal_node_id": "0.0-122.0-9.0", "time_elapsed": 722035, "key_press": -1, "trial_index": 167}, "uniqueid": "MTK2070:3LKC68YZ3BAIRBEG4QU0TRPR5EMOW5", "dateTime": 1516675869002}, {"current_trial": 168, "trialdata": {"rt": -1, "trial_type": "single-stim", "stimulus": "<p id=\"stim\">+</p>", "internal_node_id": "0.0-123.0-0.0", "time_elapsed": 723536, "key_press": -1, "type": "FIXATION", "trial_index": 168}, "uniqueid": "MTK2070:3LKC68YZ3BAIRBEG4QU0TRPR5EMOW5", "dateTime": 1516675870503}, {"current_trial": 169, "trialdata": {"rt": -1000, "trial_type": "single-audio", "word": "server", "stimulus": "/static/audio/wordpool/SERVER.wav", "conditions": [12, 1600, "a", 12000], "internal_node_id": "0.0-124.0", "trial": 4, "time_elapsed": 726106, "serialpos": 0, "key_press": -1, "wordID": 1271, "type": "PRES_AUD", "trial_index": 169}, "uniqueid": "MTK2070:3LKC68YZ3BAIRBEG4QU0TRPR5EMOW5", "dateTime": 1516675873073}, {"current_trial": 170, "trialdata": {"rt": -1000, "trial_type": "single-audio", "word": "mister", "stimulus": "/static/audio/wordpool/MISTER.wav", "conditions": [12, 1600, "a", 12000], "internal_node_id": "0.0-125.0", "trial": 4, "time_elapsed": 728905, "serialpos": 1, "key_press": -1, "wordID": 900, "type": "PRES_AUD", "trial_index": 170}, "uniqueid": "MTK2070:3LKC68YZ3BAIRBEG4QU0TRPR5EMOW5", "dateTime": 1516675875872}, {"current_trial": 171, "trialdata": {"rt": -1000, "trial_type": "single-audio", "word": "banjo", "stimulus": "/static/audio/wordpool/BANJO.wav", "conditions": [12, 1600, "a", 12000], "internal_node_id": "0.0-126.0", "trial": 4, "time_elapsed": 731703, "serialpos": 2, "key_press": -1, "wordID": 81, "type": "PRES_AUD", "trial_index": 171}, "uniqueid": "MTK2070:3LKC68YZ3BAIRBEG4QU0TRPR5EMOW5", "dateTime": 1516675878670}, {"current_trial": 172, "trialdata": {"rt": -1000, "trial_type": "single-audio", "word": "freckle", "stimulus": "/static/audio/wordpool/FRECKLE.wav", "conditions": [12, 1600, "a", 12000], "internal_node_id": "0.0-127.0", "trial": 4, "time_elapsed": 734453, "serialpos": 3, "key_press": -1, "wordID": 601, "type": "PRES_AUD", "trial_index": 172}, "uniqueid": "MTK2070:3LKC68YZ3BAIRBEG4QU0TRPR5EMOW5", "dateTime": 1516675881420}, {"current_trial": 173, "trialdata": {"rt": -1000, "trial_type": "single-audio", "word": "college", "stimulus": "/static/audio/wordpool/COLLEGE.wav", "conditions": [12, 1600, "a", 12000], "internal_node_id": "0.0-128.0", "trial": 4, "time_elapsed": 736877, "serialpos": 4, "key_press": -1, "wordID": 345, "type": "PRES_AUD", "trial_index": 173}, "uniqueid": "MTK2070:3LKC68YZ3BAIRBEG4QU0TRPR5EMOW5", "dateTime": 1516675883844}, {"current_trial": 174, "trialdata": {"rt": -1000, "trial_type": "single-audio", "word": "student", "stimulus": "/static/audio/wordpool/STUDENT.wav", "conditions": [12, 1600, "a", 12000], "internal_node_id": "0.0-129.0", "trial": 4, "time_elapsed": 739564, "serialpos": 5, "key_press": -1, "wordID": 1394, "type": "PRES_AUD", "trial_index": 174}, "uniqueid": "MTK2070:3LKC68YZ3BAIRBEG4QU0TRPR5EMOW5", "dateTime": 1516675886531}, {"current_trial": 175, "trialdata": {"rt": -1000, "trial_type": "single-audio", "word": "piano", "stimulus": "/static/audio/wordpool/PIANO.wav", "conditions": [12, 1600, "a", 12000], "internal_node_id": "0.0-130.0", "trial": 4, "time_elapsed": 742207, "serialpos": 6, "key_press": -1, "wordID": 1056, "type": "PRES_AUD", "trial_index": 175}, "uniqueid": "MTK2070:3LKC68YZ3BAIRBEG4QU0TRPR5EMOW5", "dateTime": 1516675889174}, {"current_trial": 176, "trialdata": {"rt": -1000, "trial_type": "single-audio", "word": "outfit", "stimulus": "/static/audio/wordpool/OUTFIT.wav", "conditions": [12, 1600, "a", 12000], "internal_node_id": "0.0-131.0", "trial": 4, "time_elapsed": 744752, "serialpos": 7, "key_press": -1, "wordID": 987, "type": "PRES_AUD", "trial_index": 176}, "uniqueid": "MTK2070:3LKC68YZ3BAIRBEG4QU0TRPR5EMOW5", "dateTime": 1516675891719}, {"current_trial": 177, "trialdata": {"rt": -1000, "trial_type": "single-audio", "word": "sidewalk", "stimulus": "/static/audio/wordpool/SIDEWALK.wav", "conditions": [12, 1600, "a", 12000], "internal_node_id": "0.0-132.0", "trial": 4, "time_elapsed": 747320, "serialpos": 8, "key_press": -1, "wordID": 1302, "type": "PRES_AUD", "trial_index": 177}, "uniqueid": "MTK2070:3LKC68YZ3BAIRBEG4QU0TRPR5EMOW5", "dateTime": 1516675894287}, {"current_trial": 178, "trialdata": {"rt": -1000, "trial_type": "single-audio", "word": "gallon", "stimulus": "/static/audio/wordpool/GALLON.wav", "conditions": [12, 1600, "a", 12000], "internal_node_id": "0.0-133.0", "trial": 4, "time_elapsed": 749833, "serialpos": 9, "key_press": -1, "wordID": 617, "type": "PRES_AUD", "trial_index": 178}, "uniqueid": "MTK2070:3LKC68YZ3BAIRBEG4QU0TRPR5EMOW5", "dateTime": 1516675896800}, {"current_trial": 179, "trialdata": {"rt": -1000, "trial_type": "single-audio", "word": "lettuce", "stimulus": "/static/audio/wordpool/LETTUCE.wav", "conditions": [12, 1600, "a", 12000], "internal_node_id": "0.0-134.0", "trial": 4, "time_elapsed": 752235, "serialpos": 10, "key_press": -1, "wordID": 813, "type": "PRES_AUD", "trial_index": 179}, "uniqueid": "MTK2070:3LKC68YZ3BAIRBEG4QU0TRPR5EMOW5", "dateTime": 1516675899203}, {"current_trial": 180, "trialdata": {"rt": -1000, "trial_type": "single-audio", "word": "perfume", "stimulus": "/static/audio/wordpool/PERFUME.wav", "conditions": [12, 1600, "a", 12000], "internal_node_id": "0.0-135.0", "trial": 4, "time_elapsed": 754693, "serialpos": 11, "key_press": -1, "wordID": 1048, "type": "PRES_AUD", "trial_index": 180}, "uniqueid": "MTK2070:3LKC68YZ3BAIRBEG4QU0TRPR5EMOW5", "dateTime": 1516675901660}, {"current_trial": 181, "trialdata": {"rt": -1, "trial_type": "single-stim", "stimulus": "", "internal_node_id": "0.0-136.0-0.0", "time_elapsed": 755900, "key_press": -1, "type": "PRE_RECALL_DELAY", "trial_index": 181}, "uniqueid": "MTK2070:3LKC68YZ3BAIRBEG4QU0TRPR5EMOW5", "dateTime": 1516675902867}, {"current_trial": 182, "trialdata": {"rt": -1000, "trial_type": "single-audio", "stimulus": "/static/audio/400Hz.wav", "internal_node_id": "0.0-137.0", "time_elapsed": 756401, "key_press": -1, "type": "PRE_RECALL_ALERT", "trial_index": 182}, "uniqueid": "MTK2070:3LKC68YZ3BAIRBEG4QU0TRPR5EMOW5", "dateTime": 1516675903369}, {"current_trial": 183, "trialdata": {"rt": [4020, 7418, 11172, 12594, 16290, 21830, 30006], "recwords": ["perfu", "perfume", "lettuce", "sidewa", "sidewalk", "outlet", "piano"], "key_times": [2914, 3205, 3309, 3502, 3674, 4020, 5558, 5657, 5740, 6199, 6466, 6584, 6835, 7418, 8239, 8321, 8479, 8627, 8781, 8930, 9560, 9702, 10156, 10251, 10456, 11172, 11511, 11757, 11897, 11998, 12263, 12359, 12594, 12697, 13586, 13793, 14656, 14803, 14914, 15163, 15300, 15930, 15997, 16290, 20302, 20536, 20614, 20940, 21372, 21569, 21830, 26976, 27237, 27422, 27551, 28414, 28724, 29114, 30006], "trial_type": "free-recall", "conditions": [12, 1600, "a", 12000], "internal_node_id": "0.0-138.0-0.0", "key_presses": [80, 69, 82, 70, 85, 188, 80, 69, 82, 70, 85, 77, 69, 13, 76, 69, 84, 84, 73, 67, 8, 8, 85, 67, 69, 13, 83, 73, 68, 69, 87, 65, 186, 76, 8, 83, 73, 68, 69, 87, 65, 76, 75, 13, 79, 85, 84, 76, 69, 84, 13, 80, 73, 65, 77, 8, 78, 79, 13], "trial": 4, "time_elapsed": 816405, "type": "FREE_RECALL", "trial_index": 183}, "uniqueid": "MTK2070:3LKC68YZ3BAIRBEG4QU0TRPR5EMOW5", "dateTime": 1516675963374}, {"current_trial": 184, "trialdata": {"rt": 2273, "trial_type": "text", "internal_node_id": "0.0-139.0", "time_elapsed": 820688, "key_press": 13, "type": "INSTRUCTIONS", "trial_index": 184}, "uniqueid": "MTK2070:3LKC68YZ3BAIRBEG4QU0TRPR5EMOW5", "dateTime": 1516675967655}, {"current_trial": 185, "trialdata": {"rt": [2191, 5602, 7870], "trial_type": "math-distractor", "key_times": [1907, 2062, 2191, 5046, 5444, 5602, 7405, 7741, 7870, 11830], "responses": ["11", "20", "20"], "num2": [4, 8, 2, 5], "num3": [6, 7, 9, 9], "conditions": [12, 800, "a", 12000], "internal_node_id": "0.0-140.0", "key_presses": [49, 49, 13, 50, 48, 13, 50, 48, 13, 49], "trial": 5, "time_elapsed": 834699, "type": "DISTRACTOR", "trial_index": 185, "num1": [1, 4, 9, 2]}, "uniqueid": "MTK2070:3LKC68YZ3BAIRBEG4QU0TRPR5EMOW5", "dateTime": 1516675981666}, {"current_trial": 186, "trialdata": {"rt": -1, "trial_type": "single-stim", "stimulus": "<p id=\"stim\">10</p>", "internal_node_id": "0.0-141.0-0.0", "time_elapsed": 837704, "key_press": -1, "trial_index": 186}, "uniqueid": "MTK2070:3LKC68YZ3BAIRBEG4QU0TRPR5EMOW5", "dateTime": 1516675984671}, {"current_trial": 187, "trialdata": {"rt": -1, "trial_type": "single-stim", "stimulus": "<p id=\"stim\">9</p>", "internal_node_id": "0.0-141.0-1.0", "time_elapsed": 838705, "key_press": -1, "trial_index": 187}, "uniqueid": "MTK2070:3LKC68YZ3BAIRBEG4QU0TRPR5EMOW5", "dateTime": 1516675985672}, {"current_trial": 188, "trialdata": {"rt": -1, "trial_type": "single-stim", "stimulus": "<p id=\"stim\">8</p>", "internal_node_id": "0.0-141.0-2.0", "time_elapsed": 839707, "key_press": -1, "trial_index": 188}, "uniqueid": "MTK2070:3LKC68YZ3BAIRBEG4QU0TRPR5EMOW5", "dateTime": 1516675986674}, {"current_trial": 189, "trialdata": {"rt": -1, "trial_type": "single-stim", "stimulus": "<p id=\"stim\">7</p>", "internal_node_id": "0.0-141.0-3.0", "time_elapsed": 840708, "key_press": -1, "trial_index": 189}, "uniqueid": "MTK2070:3LKC68YZ3BAIRBEG4QU0TRPR5EMOW5", "dateTime": 1516675987675}, {"current_trial": 190, "trialdata": {"rt": -1, "trial_type": "single-stim", "stimulus": "<p id=\"stim\">6</p>", "internal_node_id": "0.0-141.0-4.0", "time_elapsed": 841709, "key_press": -1, "trial_index": 190}, "uniqueid": "MTK2070:3LKC68YZ3BAIRBEG4QU0TRPR5EMOW5", "dateTime": 1516675988676}, {"current_trial": 191, "trialdata": {"rt": -1, "trial_type": "single-stim", "stimulus": "<p id=\"stim\">5</p>", "internal_node_id": "0.0-141.0-5.0", "time_elapsed": 842711, "key_press": -1, "trial_index": 191}, "uniqueid": "MTK2070:3LKC68YZ3BAIRBEG4QU0TRPR5EMOW5", "dateTime": 1516675989678}, {"current_trial": 192, "trialdata": {"rt": -1, "trial_type": "single-stim", "stimulus": "<p id=\"stim\">4</p>", "internal_node_id": "0.0-141.0-6.0", "time_elapsed": 843713, "key_press": -1, "trial_index": 192}, "uniqueid": "MTK2070:3LKC68YZ3BAIRBEG4QU0TRPR5EMOW5", "dateTime": 1516675990680}, {"current_trial": 193, "trialdata": {"rt": -1, "trial_type": "single-stim", "stimulus": "<p id=\"stim\">3</p>", "internal_node_id": "0.0-141.0-7.0", "time_elapsed": 844715, "key_press": -1, "trial_index": 193}, "uniqueid": "MTK2070:3LKC68YZ3BAIRBEG4QU0TRPR5EMOW5", "dateTime": 1516675991682}, {"current_trial": 194, "trialdata": {"rt": -1, "trial_type": "single-stim", "stimulus": "<p id=\"stim\">2</p>", "internal_node_id": "0.0-141.0-8.0", "time_elapsed": 845716, "key_press": -1, "trial_index": 194}, "uniqueid": "MTK2070:3LKC68YZ3BAIRBEG4QU0TRPR5EMOW5", "dateTime": 1516675992683}, {"current_trial": 195, "trialdata": {"rt": -1, "trial_type": "single-stim", "stimulus": "<p id=\"stim\">1</p>", "internal_node_id": "0.0-141.0-9.0", "time_elapsed": 846718, "key_press": -1, "trial_index": 195}, "uniqueid": "MTK2070:3LKC68YZ3BAIRBEG4QU0TRPR5EMOW5", "dateTime": 1516675993686}, {"current_trial": 196, "trialdata": {"rt": -1, "trial_type": "single-stim", "stimulus": "<p id=\"stim\">+</p>", "internal_node_id": "0.0-142.0-0.0", "time_elapsed": 848220, "key_press": -1, "type": "FIXATION", "trial_index": 196}, "uniqueid": "MTK2070:3LKC68YZ3BAIRBEG4QU0TRPR5EMOW5", "dateTime": 1516675995187}, {"current_trial": 197, "trialdata": {"rt": -1000, "trial_type": "single-audio", "word": "cobra", "stimulus": "/static/audio/wordpool/COBRA.wav", "conditions": [12, 800, "a", 12000], "internal_node_id": "0.0-143.0", "trial": 5, "time_elapsed": 850219, "serialpos": 0, "key_press": -1, "wordID": 335, "type": "PRES_AUD", "trial_index": 197}, "uniqueid": "MTK2070:3LKC68YZ3BAIRBEG4QU0TRPR5EMOW5", "dateTime": 1516675997186}, {"current_trial": 198, "trialdata": {"rt": -1000, "trial_type": "single-audio", "word": "cashier", "stimulus": "/static/audio/wordpool/CASHIER.wav", "conditions": [12, 800, "a", 12000], "internal_node_id": "0.0-144.0", "trial": 5, "time_elapsed": 851879, "serialpos": 1, "key_press": -1, "wordID": 253, "type": "PRES_AUD", "trial_index": 198}, "uniqueid": "MTK2070:3LKC68YZ3BAIRBEG4QU0TRPR5EMOW5", "dateTime": 1516675998847}, {"current_trial": 199, "trialdata": {"rt": -1000, "trial_type": "single-audio", "word": "denim", "stimulus": "/static/audio/wordpool/DENIM.wav", "conditions": [12, 800, "a", 12000], "internal_node_id": "0.0-145.0", "trial": 5, "time_elapsed": 853854, "serialpos": 2, "key_press": -1, "wordID": 445, "type": "PRES_AUD", "trial_index": 199}, "uniqueid": "MTK2070:3LKC68YZ3BAIRBEG4QU0TRPR5EMOW5", "dateTime": 1516676000821}, {"current_trial": 200, "trialdata": {"rt": -1000, "trial_type": "single-audio", "word": "necklace", "stimulus": "/static/audio/wordpool/NECKLACE.wav", "conditions": [12, 800, "a", 12000], "internal_node_id": "0.0-146.0", "trial": 5, "time_elapsed": 855555, "serialpos": 3, "key_press": -1, "wordID": 939, "type": "PRES_AUD", "trial_index": 200}, "uniqueid": "MTK2070:3LKC68YZ3BAIRBEG4QU0TRPR5EMOW5", "dateTime": 1516676002522}, {"current_trial": 201, "trialdata": {"rt": -1000, "trial_type": "single-audio", "word": "scallop", "stimulus": "/static/audio/wordpool/SCALLOP.wav", "conditions": [12, 800, "a", 12000], "internal_node_id": "0.0-147.0", "trial": 5, "time_elapsed": 857164, "serialpos": 4, "key_press": -1, "wordID": 1241, "type": "PRES_AUD", "trial_index": 201}, "uniqueid": "MTK2070:3LKC68YZ3BAIRBEG4QU0TRPR5EMOW5", "dateTime": 1516676004131}, {"current_trial": 202, "trialdata": {"rt": -1000, "trial_type": "single-audio", "word": "seafood", "stimulus": "/static/audio/wordpool/SEAFOOD.wav", "conditions": [12, 800, "a", 12000], "internal_node_id": "0.0-148.0", "trial": 5, "time_elapsed": 858817, "serialpos": 5, "key_press": -1, "wordID": 1259, "type": "PRES_AUD", "trial_index": 202}, "uniqueid": "MTK2070:3LKC68YZ3BAIRBEG4QU0TRPR5EMOW5", "dateTime": 1516676005784}, {"current_trial": 203, "trialdata": {"rt": -1000, "trial_type": "single-audio", "word": "jelly", "stimulus": "/static/audio/wordpool/JELLY.wav", "conditions": [12, 800, "a", 12000], "internal_node_id": "0.0-149.0", "trial": 5, "time_elapsed": 860654, "serialpos": 6, "key_press": -1, "wordID": 754, "type": "PRES_AUD", "trial_index": 203}, "uniqueid": "MTK2070:3LKC68YZ3BAIRBEG4QU0TRPR5EMOW5", "dateTime": 1516676007621}, {"current_trial": 204, "trialdata": {"rt": -1000, "trial_type": "single-audio", "word": "lizard", "stimulus": "/static/audio/wordpool/LIZARD.wav", "conditions": [12, 800, "a", 12000], "internal_node_id": "0.0-150.0", "trial": 5, "time_elapsed": 862462, "serialpos": 7, "key_press": -1, "wordID": 833, "type": "PRES_AUD", "trial_index": 204}, "uniqueid": "MTK2070:3LKC68YZ3BAIRBEG4QU0TRPR5EMOW5", "dateTime": 1516676009430}, {"current_trial": 205, "trialdata": {"rt": -1000, "trial_type": "single-audio", "word": "uncle", "stimulus": "/static/audio/wordpool/UNCLE.wav", "conditions": [12, 800, "a", 12000], "internal_node_id": "0.0-151.0", "trial": 5, "time_elapsed": 864323, "serialpos": 8, "key_press": -1, "wordID": 1535, "type": "PRES_AUD", "trial_index": 205}, "uniqueid": "MTK2070:3LKC68YZ3BAIRBEG4QU0TRPR5EMOW5", "dateTime": 1516676011290}, {"current_trial": 206, "trialdata": {"rt": -1000, "trial_type": "single-audio", "word": "patrol", "stimulus": "/static/audio/wordpool/PATROL.wav", "conditions": [12, 800, "a", 12000], "internal_node_id": "0.0-152.0", "trial": 5, "time_elapsed": 865956, "serialpos": 9, "key_press": -1, "wordID": 1026, "type": "PRES_AUD", "trial_index": 206}, "uniqueid": "MTK2070:3LKC68YZ3BAIRBEG4QU0TRPR5EMOW5", "dateTime": 1516676012923}, {"current_trial": 207, "trialdata": {"rt": -1000, "trial_type": "single-audio", "word": "stomach", "stimulus": "/static/audio/wordpool/STOMACH.wav", "conditions": [12, 800, "a", 12000], "internal_node_id": "0.0-153.0", "trial": 5, "time_elapsed": 867714, "serialpos": 10, "key_press": -1, "wordID": 1383, "type": "PRES_AUD", "trial_index": 207}, "uniqueid": "MTK2070:3LKC68YZ3BAIRBEG4QU0TRPR5EMOW5", "dateTime": 1516676014681}, {"current_trial": 208, "trialdata": {"rt": -1000, "trial_type": "single-audio", "word": "fox", "stimulus": "/static/audio/wordpool/FOX.wav", "conditions": [12, 800, "a", 12000], "internal_node_id": "0.0-154.0", "trial": 5, "time_elapsed": 869427, "serialpos": 11, "key_press": -1, "wordID": 597, "type": "PRES_AUD", "trial_index": 208}, "uniqueid": "MTK2070:3LKC68YZ3BAIRBEG4QU0TRPR5EMOW5", "dateTime": 1516676016394}, {"current_trial": 209, "trialdata": {"rt": -1, "trial_type": "single-stim", "stimulus": "", "internal_node_id": "0.0-155.0-0.0", "time_elapsed": 870759, "key_press": -1, "type": "PRE_RECALL_DELAY", "trial_index": 209}, "uniqueid": "MTK2070:3LKC68YZ3BAIRBEG4QU0TRPR5EMOW5", "dateTime": 1516676017727}, {"current_trial": 210, "trialdata": {"rt": -1000, "trial_type": "single-audio", "stimulus": "/static/audio/400Hz.wav", "internal_node_id": "0.0-156.0", "time_elapsed": 871261, "key_press": -1, "type": "PRE_RECALL_ALERT", "trial_index": 210}, "uniqueid": "MTK2070:3LKC68YZ3BAIRBEG4QU0TRPR5EMOW5", "dateTime": 1516676018228}, {"current_trial": 211, "trialdata": {"rt": [2933, 5290, 7484, 9173, 12815, 15822], "recwords": ["uncle", "stomach", "patrol", "fox", "seafood", "scallion"], "key_times": [1174, 1458, 1712, 2017, 2147, 2933, 3292, 3618, 3876, 4027, 4128, 4278, 4998, 5290, 5835, 5935, 6226, 6342, 6457, 6996, 7484, 7930, 8138, 8402, 9173, 9528, 9893, 10182, 10873, 11500, 11634, 11738, 12815, 13181, 13384, 13628, 14257, 14418, 14614, 14695, 14923, 15822], "trial_type": "free-recall", "conditions": [12, 800, "a", 12000], "internal_node_id": "0.0-157.0-0.0", "key_presses": [85, 78, 67, 76, 69, 13, 83, 84, 79, 77, 65, 67, 72, 13, 80, 65, 84, 82, 79, 76, 13, 70, 79, 88, 13, 83, 69, 65, 70, 79, 79, 68, 13, 83, 67, 65, 76, 76, 73, 79, 78, 13], "trial": 5, "time_elapsed": 931264, "type": "FREE_RECALL", "trial_index": 211}, "uniqueid": "MTK2070:3LKC68YZ3BAIRBEG4QU0TRPR5EMOW5", "dateTime": 1516676078233}, {"current_trial": 212, "trialdata": {"rt": 3855, "trial_type": "text", "internal_node_id": "0.0-158.0", "time_elapsed": 937123, "key_press": 13, "type": "INSTRUCTIONS", "trial_index": 212}, "uniqueid": "MTK2070:3LKC68YZ3BAIRBEG4QU0TRPR5EMOW5", "dateTime": 1516676084090}, {"current_trial": 213, "trialdata": {"rt": [3279, 4999, 6773, 8860, 10483], "trial_type": "math-distractor", "key_times": [2772, 2897, 3279, 4498, 4706, 4999, 6240, 6679, 6773, 8415, 8757, 8860, 10172, 10361, 10483], "responses": ["13", "12", "16", "20", "14"], "num2": [3, 5, 6, 6, 6, 5], "num3": [2, 7, 1, 7, 2, 7], "conditions": [24, 800, "a", 12000], "internal_node_id": "0.0-159.0", "key_presses": [49, 51, 13, 49, 50, 13, 49, 54, 13, 50, 48, 13, 49, 52, 13], "trial": 6, "time_elapsed": 951131, "type": "DISTRACTOR", "trial_index": 213, "num1": [8, 1, 9, 6, 6, 8]}, "uniqueid": "MTK2070:3LKC68YZ3BAIRBEG4QU0TRPR5EMOW5", "dateTime": 1516676098098}, {"current_trial": 214, "trialdata": {"rt": -1, "trial_type": "single-stim", "stimulus": "<p id=\"stim\">10</p>", "internal_node_id": "0.0-160.0-0.0", "time_elapsed": 954135, "key_press": -1, "trial_index": 214}, "uniqueid": "MTK2070:3LKC68YZ3BAIRBEG4QU0TRPR5EMOW5", "dateTime": 1516676101102}, {"current_trial": 215, "trialdata": {"rt": -1, "trial_type": "single-stim", "stimulus": "<p id=\"stim\">9</p>", "internal_node_id": "0.0-160.0-1.0", "time_elapsed": 955136, "key_press": -1, "trial_index": 215}, "uniqueid": "MTK2070:3LKC68YZ3BAIRBEG4QU0TRPR5EMOW5", "dateTime": 1516676102103}, {"current_trial": 216, "trialdata": {"rt": -1, "trial_type": "single-stim", "stimulus": "<p id=\"stim\">8</p>", "internal_node_id": "0.0-160.0-2.0", "time_elapsed": 956138, "key_press": -1, "trial_index": 216}, "uniqueid": "MTK2070:3LKC68YZ3BAIRBEG4QU0TRPR5EMOW5", "dateTime": 1516676103105}, {"current_trial": 217, "trialdata": {"rt": -1, "trial_type": "single-stim", "stimulus": "<p id=\"stim\">7</p>", "internal_node_id": "0.0-160.0-3.0", "time_elapsed": 957139, "key_press": -1, "trial_index": 217}, "uniqueid": "MTK2070:3LKC68YZ3BAIRBEG4QU0TRPR5EMOW5", "dateTime": 1516676104106}, {"current_trial": 218, "trialdata": {"rt": -1, "trial_type": "single-stim", "stimulus": "<p id=\"stim\">6</p>", "internal_node_id": "0.0-160.0-4.0", "time_elapsed": 958140, "key_press": -1, "trial_index": 218}, "uniqueid": "MTK2070:3LKC68YZ3BAIRBEG4QU0TRPR5EMOW5", "dateTime": 1516676105107}, {"current_trial": 219, "trialdata": {"rt": -1, "trial_type": "single-stim", "stimulus": "<p id=\"stim\">5</p>", "internal_node_id": "0.0-160.0-5.0", "time_elapsed": 959142, "key_press": -1, "trial_index": 219}, "uniqueid": "MTK2070:3LKC68YZ3BAIRBEG4QU0TRPR5EMOW5", "dateTime": 1516676106109}, {"current_trial": 220, "trialdata": {"rt": -1, "trial_type": "single-stim", "stimulus": "<p id=\"stim\">4</p>", "internal_node_id": "0.0-160.0-6.0", "time_elapsed": 960143, "key_press": -1, "trial_index": 220}, "uniqueid": "MTK2070:3LKC68YZ3BAIRBEG4QU0TRPR5EMOW5", "dateTime": 1516676107111}, {"current_trial": 221, "trialdata": {"rt": -1, "trial_type": "single-stim", "stimulus": "<p id=\"stim\">3</p>", "internal_node_id": "0.0-160.0-7.0", "time_elapsed": 961145, "key_press": -1, "trial_index": 221}, "uniqueid": "MTK2070:3LKC68YZ3BAIRBEG4QU0TRPR5EMOW5", "dateTime": 1516676108112}, {"current_trial": 222, "trialdata": {"rt": -1, "trial_type": "single-stim", "stimulus": "<p id=\"stim\">2</p>", "internal_node_id": "0.0-160.0-8.0", "time_elapsed": 962147, "key_press": -1, "trial_index": 222}, "uniqueid": "MTK2070:3LKC68YZ3BAIRBEG4QU0TRPR5EMOW5", "dateTime": 1516676109114}, {"current_trial": 223, "trialdata": {"rt": -1, "trial_type": "single-stim", "stimulus": "<p id=\"stim\">1</p>", "internal_node_id": "0.0-160.0-9.0", "time_elapsed": 963148, "key_press": -1, "trial_index": 223}, "uniqueid": "MTK2070:3LKC68YZ3BAIRBEG4QU0TRPR5EMOW5", "dateTime": 1516676110115}, {"current_trial": 224, "trialdata": {"rt": -1, "trial_type": "single-stim", "stimulus": "<p id=\"stim\">+</p>", "internal_node_id": "0.0-161.0-0.0", "time_elapsed": 964649, "key_press": -1, "type": "FIXATION", "trial_index": 224}, "uniqueid": "MTK2070:3LKC68YZ3BAIRBEG4QU0TRPR5EMOW5", "dateTime": 1516676111616}, {"current_trial": 225, "trialdata": {"rt": -1000, "trial_type": "single-audio", "word": "robin", "stimulus": "/static/audio/wordpool/ROBIN.wav", "conditions": [24, 800, "a", 12000], "internal_node_id": "0.0-162.0", "trial": 6, "time_elapsed": 966308, "serialpos": 0, "key_press": -1, "wordID": 1198, "type": "PRES_AUD", "trial_index": 225}, "uniqueid": "MTK2070:3LKC68YZ3BAIRBEG4QU0TRPR5EMOW5", "dateTime": 1516676113275}, {"current_trial": 226, "trialdata": {"rt": -1000, "trial_type": "single-audio", "word": "sparrow", "stimulus": "/static/audio/wordpool/SPARROW.wav", "conditions": [24, 800, "a", 12000], "internal_node_id": "0.0-163.0", "trial": 6, "time_elapsed": 968094, "serialpos": 1, "key_press": -1, "wordID": 1346, "type": "PRES_AUD", "trial_index": 226}, "uniqueid": "MTK2070:3LKC68YZ3BAIRBEG4QU0TRPR5EMOW5", "dateTime": 1516676115061}, {"current_trial": 227, "trialdata": {"rt": -1000, "trial_type": "single-audio", "word": "burglar", "stimulus": "/static/audio/wordpool/BURGLAR.wav", "conditions": [24, 800, "a", 12000], "internal_node_id": "0.0-164.0", "trial": 6, "time_elapsed": 970060, "serialpos": 2, "key_press": -1, "wordID": 199, "type": "PRES_AUD", "trial_index": 227}, "uniqueid": "MTK2070:3LKC68YZ3BAIRBEG4QU0TRPR5EMOW5", "dateTime": 1516676117027}, {"current_trial": 228, "trialdata": {"rt": -1000, "trial_type": "single-audio", "word": "parrot", "stimulus": "/static/audio/wordpool/PARROT.wav", "conditions": [24, 800, "a", 12000], "internal_node_id": "0.0-165.0", "trial": 6, "time_elapsed": 971834, "serialpos": 3, "key_press": -1, "wordID": 1014, "type": "PRES_AUD", "trial_index": 228}, "uniqueid": "MTK2070:3LKC68YZ3BAIRBEG4QU0TRPR5EMOW5", "dateTime": 1516676118801}, {"current_trial": 229, "trialdata": {"rt": -1000, "trial_type": "single-audio", "word": "tart", "stimulus": "/static/audio/wordpool/TART.wav", "conditions": [24, 800, "a", 12000], "internal_node_id": "0.0-166.0", "trial": 6, "time_elapsed": 973505, "serialpos": 4, "key_press": -1, "wordID": 1435, "type": "PRES_AUD", "trial_index": 229}, "uniqueid": "MTK2070:3LKC68YZ3BAIRBEG4QU0TRPR5EMOW5", "dateTime": 1516676120472}, {"current_trial": 230, "trialdata": {"rt": -1000, "trial_type": "single-audio", "word": "crater", "stimulus": "/static/audio/wordpool/CRATER.wav", "conditions": [24, 800, "a", 12000], "internal_node_id": "0.0-167.0", "trial": 6, "time_elapsed": 975201, "serialpos": 5, "key_press": -1, "wordID": 399, "type": "PRES_AUD", "trial_index": 230}, "uniqueid": "MTK2070:3LKC68YZ3BAIRBEG4QU0TRPR5EMOW5", "dateTime": 1516676122168}, {"current_trial": 231, "trialdata": {"rt": -1000, "trial_type": "single-audio", "word": "sphinx", "stimulus": "/static/audio/wordpool/SPHINX.wav", "conditions": [24, 800, "a", 12000], "internal_node_id": "0.0-168.0", "trial": 6, "time_elapsed": 976879, "serialpos": 6, "key_press": -1, "wordID": 1348, "type": "PRES_AUD", "trial_index": 231}, "uniqueid": "MTK2070:3LKC68YZ3BAIRBEG4QU0TRPR5EMOW5", "dateTime": 1516676123846}, {"current_trial": 232, "trialdata": {"rt": -1000, "trial_type": "single-audio", "word": "freezer", "stimulus": "/static/audio/wordpool/FREEZER.wav", "conditions": [24, 800, "a", 12000], "internal_node_id": "0.0-169.0", "trial": 6, "time_elapsed": 978807, "serialpos": 7, "key_press": -1, "wordID": 603, "type": "PRES_AUD", "trial_index": 232}, "uniqueid": "MTK2070:3LKC68YZ3BAIRBEG4QU0TRPR5EMOW5", "dateTime": 1516676125774}, {"current_trial": 233, "trialdata": {"rt": -1000, "trial_type": "single-audio", "word": "robber", "stimulus": "/static/audio/wordpool/ROBBER.wav", "conditions": [24, 800, "a", 12000], "internal_node_id": "0.0-170.0", "trial": 6, "time_elapsed": 980454, "serialpos": 8, "key_press": -1, "wordID": 1196, "type": "PRES_AUD", "trial_index": 233}, "uniqueid": "MTK2070:3LKC68YZ3BAIRBEG4QU0TRPR5EMOW5", "dateTime": 1516676127421}, {"current_trial": 234, "trialdata": {"rt": -1000, "trial_type": "single-audio", "word": "france", "stimulus": "/static/audio/wordpool/FRANCE.wav", "conditions": [24, 800, "a", 12000], "internal_node_id": "0.0-171.0", "trial": 6, "time_elapsed": 982360, "serialpos": 9, "key_press": -1, "wordID": 600, "type": "PRES_AUD", "trial_index": 234}, "uniqueid": "MTK2070:3LKC68YZ3BAIRBEG4QU0TRPR5EMOW5", "dateTime": 1516676129327}, {"current_trial": 235, "trialdata": {"rt": 761.3333333332548, "trial_type": "single-audio", "word": "country", "stimulus": "/static/audio/wordpool/COUNTRY.wav", "conditions": [24, 800, "a", 12000], "internal_node_id": "0.0-172.0", "trial": 6, "time_elapsed": 984133, "serialpos": 10, "key_press": 175, "wordID": 387, "type": "PRES_AUD", "trial_index": 235}, "uniqueid": "MTK2070:3LKC68YZ3BAIRBEG4QU0TRPR5EMOW5", "dateTime": 1516676131100}, {"current_trial": 236, "trialdata": {"rt": 19.99999999998181, "trial_type": "single-audio", "word": "marrow", "stimulus": "/static/audio/wordpool/MARROW.wav", "conditions": [24, 800, "a", 12000], "internal_node_id": "0.0-173.0", "trial": 6, "time_elapsed": 986125, "serialpos": 11, "key_press": 175, "wordID": 871, "type": "PRES_AUD", "trial_index": 236}, "uniqueid": "MTK2070:3LKC68YZ3BAIRBEG4QU0TRPR5EMOW5", "dateTime": 1516676133093}, {"current_trial": 237, "trialdata": {"rt": -1000, "trial_type": "single-audio", "word": "gymnast", "stimulus": "/static/audio/wordpool/GYMNAST.wav", "conditions": [24, 800, "a", 12000], "internal_node_id": "0.0-174.0", "trial": 6, "time_elapsed": 987899, "serialpos": 12, "key_press": -1, "wordID": 674, "type": "PRES_AUD", "trial_index": 237}, "uniqueid": "MTK2070:3LKC68YZ3BAIRBEG4QU0TRPR5EMOW5", "dateTime": 1516676134866}, {"current_trial": 238, "trialdata": {"rt": -1000, "trial_type": "single-audio", "word": "dancer", "stimulus": "/static/audio/wordpool/DANCER.wav", "conditions": [24, 800, "a", 12000], "internal_node_id": "0.0-175.0", "trial": 6, "time_elapsed": 989711, "serialpos": 13, "key_press": -1, "wordID": 436, "type": "PRES_AUD", "trial_index": 238}, "uniqueid": "MTK2070:3LKC68YZ3BAIRBEG4QU0TRPR5EMOW5", "dateTime": 1516676136678}, {"current_trial": 239, "trialdata": {"rt": -1000, "trial_type": "single-audio", "word": "tortoise", "stimulus": "/static/audio/wordpool/TORTOISE.wav", "conditions": [24, 800, "a", 12000], "internal_node_id": "0.0-176.0", "trial": 6, "time_elapsed": 991467, "serialpos": 14, "key_press": -1, "wordID": 1485, "type": "PRES_AUD", "trial_index": 239}, "uniqueid": "MTK2070:3LKC68YZ3BAIRBEG4QU0TRPR5EMOW5", "dateTime": 1516676138434}, {"current_trial": 240, "trialdata": {"rt": -1000, "trial_type": "single-audio", "word": "scotch", "stimulus": "/static/audio/wordpool/SCOTCH.wav", "conditions": [24, 800, "a", 12000], "internal_node_id": "0.0-177.0", "trial": 6, "time_elapsed": 993086, "serialpos": 15, "key_press": -1, "wordID": 1250, "type": "PRES_AUD", "trial_index": 240}, "uniqueid": "MTK2070:3LKC68YZ3BAIRBEG4QU0TRPR5EMOW5", "dateTime": 1516676140053}, {"current_trial": 241, "trialdata": {"rt": -1000, "trial_type": "single-audio", "word": "hatchet", "stimulus": "/static/audio/wordpool/HATCHET.wav", "conditions": [24, 800, "a", 12000], "internal_node_id": "0.0-178.0", "trial": 6, "time_elapsed": 994795, "serialpos": 16, "key_press": -1, "wordID": 690, "type": "PRES_AUD", "trial_index": 241}, "uniqueid": "MTK2070:3LKC68YZ3BAIRBEG4QU0TRPR5EMOW5", "dateTime": 1516676141762}, {"current_trial": 242, "trialdata": {"rt": -1000, "trial_type": "single-audio", "word": "chest", "stimulus": "/static/audio/wordpool/CHEST.wav", "conditions": [24, 800, "a", 12000], "internal_node_id": "0.0-179.0", "trial": 6, "time_elapsed": 996753, "serialpos": 17, "key_press": -1, "wordID": 294, "type": "PRES_AUD", "trial_index": 242}, "uniqueid": "MTK2070:3LKC68YZ3BAIRBEG4QU0TRPR5EMOW5", "dateTime": 1516676143721}, {"current_trial": 243, "trialdata": {"rt": -1000, "trial_type": "single-audio", "word": "flask", "stimulus": "/static/audio/wordpool/FLASK.wav", "conditions": [24, 800, "a", 12000], "internal_node_id": "0.0-180.0", "trial": 6, "time_elapsed": 998426, "serialpos": 18, "key_press": -1, "wordID": 575, "type": "PRES_AUD", "trial_index": 243}, "uniqueid": "MTK2070:3LKC68YZ3BAIRBEG4QU0TRPR5EMOW5", "dateTime": 1516676145395}, {"current_trial": 244, "trialdata": {"rt": -1000, "trial_type": "single-audio", "word": "europe", "stimulus": "/static/audio/wordpool/EUROPE.wav", "conditions": [24, 800, "a", 12000], "internal_node_id": "0.0-181.0", "trial": 6, "time_elapsed": 1000044, "serialpos": 19, "key_press": -1, "wordID": 540, "type": "PRES_AUD", "trial_index": 244}, "uniqueid": "MTK2070:3LKC68YZ3BAIRBEG4QU0TRPR5EMOW5", "dateTime": 1516676147012}, {"current_trial": 245, "trialdata": {"rt": -1000, "trial_type": "single-audio", "word": "gift", "stimulus": "/static/audio/wordpool/GIFT.wav", "conditions": [24, 800, "a", 12000], "internal_node_id": "0.0-182.0", "trial": 6, "time_elapsed": 1001676, "serialpos": 20, "key_press": -1, "wordID": 634, "type": "PRES_AUD", "trial_index": 245}, "uniqueid": "MTK2070:3LKC68YZ3BAIRBEG4QU0TRPR5EMOW5", "dateTime": 1516676148643}, {"current_trial": 246, "trialdata": {"rt": -1000, "trial_type": "single-audio", "word": "lake", "stimulus": "/static/audio/wordpool/LAKE.wav", "conditions": [24, 800, "a", 12000], "internal_node_id": "0.0-183.0", "trial": 6, "time_elapsed": 1003591, "serialpos": 21, "key_press": -1, "wordID": 795, "type": "PRES_AUD", "trial_index": 246}, "uniqueid": "MTK2070:3LKC68YZ3BAIRBEG4QU0TRPR5EMOW5", "dateTime": 1516676150558}, {"current_trial": 247, "trialdata": {"rt": -1000, "trial_type": "single-audio", "word": "champagne", "stimulus": "/static/audio/wordpool/CHAMPAGNE.wav", "conditions": [24, 800, "a", 12000], "internal_node_id": "0.0-184.0", "trial": 6, "time_elapsed": 1005252, "serialpos": 22, "key_press": -1, "wordID": 277, "type": "PRES_AUD", "trial_index": 247}, "uniqueid": "MTK2070:3LKC68YZ3BAIRBEG4QU0TRPR5EMOW5", "dateTime": 1516676152219}, {"current_trial": 248, "trialdata": {"rt": -1000, "trial_type": "single-audio", "word": "rabbit", "stimulus": "/static/audio/wordpool/RABBIT.wav", "conditions": [24, 800, "a", 12000], "internal_node_id": "0.0-185.0", "trial": 6, "time_elapsed": 1007081, "serialpos": 23, "key_press": -1, "wordID": 1151, "type": "PRES_AUD", "trial_index": 248}, "uniqueid": "MTK2070:3LKC68YZ3BAIRBEG4QU0TRPR5EMOW5", "dateTime": 1516676154049}, {"current_trial": 249, "trialdata": {"rt": -1, "trial_type": "single-stim", "stimulus": "", "internal_node_id": "0.0-186.0-0.0", "time_elapsed": 1008311, "key_press": -1, "type": "PRE_RECALL_DELAY", "trial_index": 249}, "uniqueid": "MTK2070:3LKC68YZ3BAIRBEG4QU0TRPR5EMOW5", "dateTime": 1516676155278}, {"current_trial": 250, "trialdata": {"rt": -1000, "trial_type": "single-audio", "stimulus": "/static/audio/400Hz.wav", "internal_node_id": "0.0-187.0", "time_elapsed": 1008812, "key_press": -1, "type": "PRE_RECALL_ALERT", "trial_index": 250}, "uniqueid": "MTK2070:3LKC68YZ3BAIRBEG4QU0TRPR5EMOW5", "dateTime": 1516676155779}, {"current_trial": 251, "trialdata": {"rt": [4325, 7021, 8713, 10829, 14688, 17805, 20300, 23009, 36315, 39514], "recwords": ["rabbit", "tortise", "parrot", "sparrow", "bird", "hatchet", "scotch", "champaign", "robbery", "burgler"], "key_times": [1819, 1915, 2266, 2403, 2629, 2745, 2985, 4020, 4325, 4888, 5271, 5383, 5637, 5959, 6219, 6346, 7021, 7852, 7949, 8152, 8291, 8379, 8511, 8713, 9017, 9380, 9717, 9953, 10077, 10347, 10457, 10829, 12935, 13597, 13734, 13974, 14688, 15623, 15749, 16530, 16770, 16874, 17035, 17216, 17805, 18735, 18946, 19369, 19523, 19738, 19865, 20300, 20751, 20931, 21060, 21222, 21427, 21786, 22335, 22521, 22643, 23009, 34683, 34879, 35117, 35247, 35316, 35442, 36038, 36315, 36944, 37200, 37342, 37778, 38603, 38663, 387