{"assignmentId": "3OVR4I9USQQ93L8C9XGLN41033E4QH", "workerId": "MTK2736", "questiondata": {"origin": "United States", "strat-rehearsal": "61", "marital": "Married/Domestic Partnership", "education": "High school diploma", "ethnicity": "Not Hispanic", "color_depth": 24, "distracted": "Yes", "wrote-notes": "Yes", "strat-other": "", "screen_width": 1280, "avail_screen_width": 1280, "avail_screen_height": 680, "strat-image": "27", "language": "english", "gender": "Female", "age": "57", "gender_other": "", "race": ["White"], "strat-categorize": "76", "pixel_depth": 24, "strat-spatial": "4", "strat-story": "1", "race_other": "", "screen_height": 720}, "bonus": 0, "hitId": "3BAKUKE49HJQ03SZ9SHH5C8I2W2R1A", "counterbalance": 2207, "useragent": "Mozilla/5.0 (Windows NT 10.0; Win64; x64) AppleWebKit/537.36 (KHTML, like Gecko) Chrome/64.0.3282.167 Safari/537.36", "eventdata": [{"eventtype": "initialized", "interval": 0, "value": null, "timestamp": 1519316170998}, {"eventtype": "window_resize", "interval": 0, "value": [1283, 672], "timestamp": 1519316170998}, {"eventtype": "focus", "interval": 327455, "value": "off", "timestamp": 1519316498453}, {"eventtype": "focus", "interval": 52793, "value": "on", "timestamp": 1519316551246}, {"eventtype": "focus", "interval": 1, "value": "off", "timestamp": 1519316551247}, {"eventtype": "focus", "interval": 16, "value": "on", "timestamp": 1519316551263}, {"eventtype": "window_resize", "interval": 13999, "value": [1280, 630], "timestamp": 1519316565262}, {"eventtype": "focus", "interval": 1354, "value": "off", "timestamp": 1519316566616}, {"eventtype": "focus", "interval": 24971, "value": "on", "timestamp": 1519316591587}, {"eventtype": "focus", "interval": 11, "value": "off", "timestamp": 1519316591598}, {"eventtype": "focus", "interval": 9, "value": "on", "timestamp": 1519316591607}], "data": [{"current_trial": 0, "trialdata": {"rt": 3022, "trial_type": "text", "internal_node_id": "0.0-0.0", "time_elapsed": 3026, "key_press": 13, "type": "INSTRUCTIONS", "trial_index": 0}, "uniqueid": "MTK2736:3OVR4I9USQQ93L8C9XGLN41033E4QH", "dateTime": 1519316199336}, {"current_trial": 1, "trialdata": {"rt": 7127, "trial_type": "text", "internal_node_id": "0.0-1.0", "time_elapsed": 10155, "key_press": 175, "type": "INSTRUCTIONS", "trial_index": 1}, "uniqueid": "MTK2736:3OVR4I9USQQ93L8C9XGLN41033E4QH", "dateTime": 1519316206467}, {"current_trial": 2, "trialdata": {"rt": [76671], "trial_type": "audio-test", "responses": ["ocean"], "internal_node_id": "0.0-2.0", "time_elapsed": 86847, "type": "AUDIO_TEST", "trial_index": 2}, "uniqueid": "MTK2736:3OVR4I9USQQ93L8C9XGLN41033E4QH", "dateTime": 1519316283157}, {"current_trial": 3, "trialdata": {"rt": [21336], "trial_type": "audio-test", "responses": ["crystal"], "internal_node_id": "0.0-3.0", "time_elapsed": 108187, "type": "AUDIO_TEST", "trial_index": 3}, "uniqueid": "MTK2736:3OVR4I9USQQ93L8C9XGLN41033E4QH", "dateTime": 1519316304497}, {"current_trial": 4, "trialdata": {"rt": [21695], "trial_type": "audio-test", "responses": ["spice"], "internal_node_id": "0.0-4.0", "time_elapsed": 129886, "type": "AUDIO_TEST", "trial_index": 4}, "uniqueid": "MTK2736:3OVR4I9USQQ93L8C9XGLN41033E4QH", "dateTime": 1519316326196}, {"current_trial": 5, "trialdata": {"rt": 61508, "trial_type": "survey-text", "responses": "{\"Q0\":\"11:30 PM\",\"Q1\":\"6:30\",\"Q2\":\"5\\n5\"}", "internal_node_id": "0.0-5.0", "time_elapsed": 192148, "type": "SLEEP_SURVEY", "trial_index": 5}, "uniqueid": "MTK2736:3OVR4I9USQQ93L8C9XGLN41033E4QH", "dateTime": 1519316388459}, {"current_trial": 6, "trialdata": {"rt": 26834, "trial_type": "text", "internal_node_id": "0.0-6.0", "time_elapsed": 219985, "key_press": 13, "type": "INSTRUCTIONS", "trial_index": 6}, "uniqueid": "MTK2736:3OVR4I9USQQ93L8C9XGLN41033E4QH", "dateTime": 1519316416295}, {"current_trial": 7, "trialdata": {"rt": 32249, "trial_type": "text", "internal_node_id": "0.0-7.0", "time_elapsed": 252734, "key_press": 13, "type": "INSTRUCTIONS", "trial_index": 7}, "uniqueid": "MTK2736:3OVR4I9USQQ93L8C9XGLN41033E4QH", "dateTime": 1519316449044}, {"current_trial": 8, "trialdata": {"rt": 16671, "trial_type": "text", "internal_node_id": "0.0-8.0", "time_elapsed": 269906, "key_press": 13, "type": "INSTRUCTIONS", "trial_index": 8}, "uniqueid": "MTK2736:3OVR4I9USQQ93L8C9XGLN41033E4QH", "dateTime": 1519316466216}, {"current_trial": 9, "trialdata": {"rt": [3182], "trial_type": "math-distractor", "key_times": [2543, 3182, 4687], "responses": ["6"], "num2": [2, 3], "num3": [2, 8], "conditions": [18, 1200, "a", 18000], "internal_node_id": "0.0-9.0", "key_presses": [54, 13, 54], "trial": 0, "time_elapsed": 288914, "type": "DISTRACTOR", "trial_index": 9, "num1": [2, 9]}, "uniqueid": "MTK2736:3OVR4I9USQQ93L8C9XGLN41033E4QH", "dateTime": 1519316485224}, {"current_trial": 10, "trialdata": {"rt": -1, "trial_type": "single-stim", "stimulus": "<p id=\"stim\">10</p>", "internal_node_id": "0.0-10.0-0.0", "time_elapsed": 291919, "key_press": -1, "trial_index": 10}, "uniqueid": "MTK2736:3OVR4I9USQQ93L8C9XGLN41033E4QH", "dateTime": 1519316488229}, {"current_trial": 11, "trialdata": {"rt": -1, "trial_type": "single-stim", "stimulus": "<p id=\"stim\">9</p>", "internal_node_id": "0.0-10.0-1.0", "time_elapsed": 292921, "key_press": -1, "trial_index": 11}, "uniqueid": "MTK2736:3OVR4I9USQQ93L8C9XGLN41033E4QH", "dateTime": 1519316489232}, {"current_trial": 12, "trialdata": {"rt": -1, "trial_type": "single-stim", "stimulus": "<p id=\"stim\">8</p>", "internal_node_id": "0.0-10.0-2.0", "time_elapsed": 293923, "key_press": -1, "trial_index": 12}, "uniqueid": "MTK2736:3OVR4I9USQQ93L8C9XGLN41033E4QH", "dateTime": 1519316490233}, {"current_trial": 13, "trialdata": {"rt": -1, "trial_type": "single-stim", "stimulus": "<p id=\"stim\">7</p>", "internal_node_id": "0.0-10.0-3.0", "time_elapsed": 294926, "key_press": -1, "trial_index": 13}, "uniqueid": "MTK2736:3OVR4I9USQQ93L8C9XGLN41033E4QH", "dateTime": 1519316491236}, {"current_trial": 14, "trialdata": {"rt": -1, "trial_type": "single-stim", "stimulus": "<p id=\"stim\">6</p>", "internal_node_id": "0.0-10.0-4.0", "time_elapsed": 295928, "key_press": -1, "trial_index": 14}, "uniqueid": "MTK2736:3OVR4I9USQQ93L8C9XGLN41033E4QH", "dateTime": 1519316492238}, {"current_trial": 15, "trialdata": {"rt": -1, "trial_type": "single-stim", "stimulus": "<p id=\"stim\">5</p>", "internal_node_id": "0.0-10.0-5.0", "time_elapsed": 296930, "key_press": -1, "trial_index": 15}, "uniqueid": "MTK2736:3OVR4I9USQQ93L8C9XGLN41033E4QH", "dateTime": 1519316493240}, {"current_trial": 16, "trialdata": {"rt": -1, "trial_type": "single-stim", "stimulus": "<p id=\"stim\">4</p>", "internal_node_id": "0.0-10.0-6.0", "time_elapsed": 297932, "key_press": -1, "trial_index": 16}, "uniqueid": "MTK2736:3OVR4I9USQQ93L8C9XGLN41033E4QH", "dateTime": 1519316494242}, {"current_trial": 17, "trialdata": {"rt": -1, "trial_type": "single-stim", "stimulus": "<p id=\"stim\">3</p>", "internal_node_id": "0.0-10.0-7.0", "time_elapsed": 298935, "key_press": -1, "trial_index": 17}, "uniqueid": "MTK2736:3OVR4I9USQQ93L8C9XGLN41033E4QH", "dateTime": 1519316495245}, {"current_trial": 18, "trialdata": {"rt": -1, "trial_type": "single-stim", "stimulus": "<p id=\"stim\">2</p>", "internal_node_id": "0.0-10.0-8.0", "time_elapsed": 299937, "key_press": -1, "trial_index": 18}, "uniqueid": "MTK2736:3OVR4I9USQQ93L8C9XGLN41033E4QH", "dateTime": 1519316496247}, {"current_trial": 19, "trialdata": {"rt": -1, "trial_type": "single-stim", "stimulus": "<p id=\"stim\">1</p>", "internal_node_id": "0.0-10.0-9.0", "time_elapsed": 300939, "key_press": -1, "trial_index": 19}, "uniqueid": "MTK2736:3OVR4I9USQQ93L8C9XGLN41033E4QH", "dateTime": 1519316497249}, {"current_trial": 20, "trialdata": {"rt": -1, "trial_type": "single-stim", "stimulus": "<p id=\"stim\">+</p>", "internal_node_id": "0.0-11.0-0.0", "time_elapsed": 302455, "key_press": -1, "type": "FIXATION", "trial_index": 20}, "uniqueid": "MTK2736:3OVR4I9USQQ93L8C9XGLN41033E4QH", "dateTime": 1519316498766}, {"current_trial": 21, "trialdata": {"rt": -1000, "trial_type": "single-audio", "word": "sword", "stimulus": "/static/audio/wordpool/SWORD.wav", "conditions": [18, 1200, "a", 18000], "internal_node_id": "0.0-12.0", "trial": 0, "time_elapsed": 304553, "serialpos": 0, "key_press": -1, "wordID": 1422, "type": "PRES_AUD", "trial_index": 21}, "uniqueid": "MTK2736:3OVR4I9USQQ93L8C9XGLN41033E4QH", "dateTime": 1519316500863}, {"current_trial": 22, "trialdata": {"rt": -1000, "trial_type": "single-audio", "word": "daughter", "stimulus": "/static/audio/wordpool/DAUGHTER.wav", "conditions": [18, 1200, "a", 18000], "internal_node_id": "0.0-13.0", "trial": 0, "time_elapsed": 306638, "serialpos": 1, "key_press": -1, "wordID": 441, "type": "PRES_AUD", "trial_index": 22}, "uniqueid": "MTK2736:3OVR4I9USQQ93L8C9XGLN41033E4QH", "dateTime": 1519316502948}, {"current_trial": 23, "trialdata": {"rt": -1000, "trial_type": "single-audio", "word": "cabbage", "stimulus": "/static/audio/wordpool/CABBAGE.wav", "conditions": [18, 1200, "a", 18000], "internal_node_id": "0.0-14.0", "trial": 0, "time_elapsed": 308905, "serialpos": 2, "key_press": -1, "wordID": 209, "type": "PRES_AUD", "trial_index": 23}, "uniqueid": "MTK2736:3OVR4I9USQQ93L8C9XGLN41033E4QH", "dateTime": 1519316505216}, {"current_trial": 24, "trialdata": {"rt": -1000, "trial_type": "single-audio", "word": "uncle", "stimulus": "/static/audio/wordpool/UNCLE.wav", "conditions": [18, 1200, "a", 18000], "internal_node_id": "0.0-15.0", "trial": 0, "time_elapsed": 311107, "serialpos": 3, "key_press": -1, "wordID": 1535, "type": "PRES_AUD", "trial_index": 24}, "uniqueid": "MTK2736:3OVR4I9USQQ93L8C9XGLN41033E4QH", "dateTime": 1519316507417}, {"current_trial": 25, "trialdata": {"rt": -1000, "trial_type": "single-audio", "word": "guitar", "stimulus": "/static/audio/wordpool/GUITAR.wav", "conditions": [18, 1200, "a", 18000], "internal_node_id": "0.0-16.0", "trial": 0, "time_elapsed": 313264, "serialpos": 4, "key_press": -1, "wordID": 669, "type": "PRES_AUD", "trial_index": 25}, "uniqueid": "MTK2736:3OVR4I9USQQ93L8C9XGLN41033E4QH", "dateTime": 1519316509575}, {"current_trial": 26, "trialdata": {"rt": -1000, "trial_type": "single-audio", "word": "catcher", "stimulus": "/static/audio/wordpool/CATCHER.wav", "conditions": [18, 1200, "a", 18000], "internal_node_id": "0.0-17.0", "trial": 0, "time_elapsed": 315526, "serialpos": 5, "key_press": -1, "wordID": 257, "type": "PRES_AUD", "trial_index": 26}, "uniqueid": "MTK2736:3OVR4I9USQQ93L8C9XGLN41033E4QH", "dateTime": 1519316511836}, {"current_trial": 27, "trialdata": {"rt": -1000, "trial_type": "single-audio", "word": "chest", "stimulus": "/static/audio/wordpool/CHEST.wav", "conditions": [18, 1200, "a", 18000], "internal_node_id": "0.0-18.0", "trial": 0, "time_elapsed": 317676, "serialpos": 6, "key_press": -1, "wordID": 294, "type": "PRES_AUD", "trial_index": 27}, "uniqueid": "MTK2736:3OVR4I9USQQ93L8C9XGLN41033E4QH", "dateTime": 1519316513987}, {"current_trial": 28, "trialdata": {"rt": -1000, "trial_type": "single-audio", "word": "handbag", "stimulus": "/static/audio/wordpool/HANDBAG.wav", "conditions": [18, 1200, "a", 18000], "internal_node_id": "0.0-19.0", "trial": 0, "time_elapsed": 319736, "serialpos": 7, "key_press": -1, "wordID": 683, "type": "PRES_AUD", "trial_index": 28}, "uniqueid": "MTK2736:3OVR4I9USQQ93L8C9XGLN41033E4QH", "dateTime": 1519316516047}, {"current_trial": 29, "trialdata": {"rt": -1000, "trial_type": "single-audio", "word": "muffin", "stimulus": "/static/audio/wordpool/MUFFIN.wav", "conditions": [18, 1200, "a", 18000], "internal_node_id": "0.0-20.0", "trial": 0, "time_elapsed": 322106, "serialpos": 8, "key_press": -1, "wordID": 928, "type": "PRES_AUD", "trial_index": 29}, "uniqueid": "MTK2736:3OVR4I9USQQ93L8C9XGLN41033E4QH", "dateTime": 1519316518416}, {"current_trial": 30, "trialdata": {"rt": -1000, "trial_type": "single-audio", "word": "leader", "stimulus": "/static/audio/wordpool/LEADER.wav", "conditions": [18, 1200, "a", 18000], "internal_node_id": "0.0-21.0", "trial": 0, "time_elapsed": 324275, "serialpos": 9, "key_press": -1, "wordID": 806, "type": "PRES_AUD", "trial_index": 30}, "uniqueid": "MTK2736:3OVR4I9USQQ93L8C9XGLN41033E4QH", "dateTime": 1519316520585}, {"current_trial": 31, "trialdata": {"rt": -1000, "trial_type": "single-audio", "word": "jungle", "stimulus": "/static/audio/wordpool/JUNGLE.wav", "conditions": [18, 1200, "a", 18000], "internal_node_id": "0.0-22.0", "trial": 0, "time_elapsed": 326354, "serialpos": 10, "key_press": -1, "wordID": 763, "type": "PRES_AUD", "trial_index": 31}, "uniqueid": "MTK2736:3OVR4I9USQQ93L8C9XGLN41033E4QH", "dateTime": 1519316522665}, {"current_trial": 32, "trialdata": {"rt": -1000, "trial_type": "single-audio", "word": "liver", "stimulus": "/static/audio/wordpool/LIVER.wav", "conditions": [18, 1200, "a", 18000], "internal_node_id": "0.0-23.0", "trial": 0, "time_elapsed": 328720, "serialpos": 11, "key_press": -1, "wordID": 832, "type": "PRES_AUD", "trial_index": 32}, "uniqueid": "MTK2736:3OVR4I9USQQ93L8C9XGLN41033E4QH", "dateTime": 1519316525031}, {"current_trial": 33, "trialdata": {"rt": -1000, "trial_type": "single-audio", "word": "banjo", "stimulus": "/static/audio/wordpool/BANJO.wav", "conditions": [18, 1200, "a", 18000], "internal_node_id": "0.0-24.0", "trial": 0, "time_elapsed": 330731, "serialpos": 12, "key_press": -1, "wordID": 81, "type": "PRES_AUD", "trial_index": 33}, "uniqueid": "MTK2736:3OVR4I9USQQ93L8C9XGLN41033E4QH", "dateTime": 1519316527041}, {"current_trial": 34, "trialdata": {"rt": -1000, "trial_type": "single-audio", "word": "shelter", "stimulus": "/static/audio/wordpool/SHELTER.wav", "conditions": [18, 1200, "a", 18000], "internal_node_id": "0.0-25.0", "trial": 0, "time_elapsed": 332987, "serialpos": 13, "key_press": -1, "wordID": 1281, "type": "PRES_AUD", "trial_index": 34}, "uniqueid": "MTK2736:3OVR4I9USQQ93L8C9XGLN41033E4QH", "dateTime": 1519316529297}, {"current_trial": 35, "trialdata": {"rt": -1000, "trial_type": "single-audio", "word": "gift", "stimulus": "/static/audio/wordpool/GIFT.wav", "conditions": [18, 1200, "a", 18000], "internal_node_id": "0.0-26.0", "trial": 0, "time_elapsed": 335275, "serialpos": 14, "key_press": -1, "wordID": 634, "type": "PRES_AUD", "trial_index": 35}, "uniqueid": "MTK2736:3OVR4I9USQQ93L8C9XGLN41033E4QH", "dateTime": 1519316531585}, {"current_trial": 36, "trialdata": {"rt": -1000, "trial_type": "single-audio", "word": "mammal", "stimulus": "/static/audio/wordpool/MAMMAL.wav", "conditions": [18, 1200, "a", 18000], "internal_node_id": "0.0-27.0", "trial": 0, "time_elapsed": 337643, "serialpos": 15, "key_press": -1, "wordID": 860, "type": "PRES_AUD", "trial_index": 36}, "uniqueid": "MTK2736:3OVR4I9USQQ93L8C9XGLN41033E4QH", "dateTime": 1519316533953}, {"current_trial": 37, "trialdata": {"rt": -1000, "trial_type": "single-audio", "word": "marine", "stimulus": "/static/audio/wordpool/MARINE.wav", "conditions": [18, 1200, "a", 18000], "internal_node_id": "0.0-28.0", "trial": 0, "time_elapsed": 339853, "serialpos": 16, "key_press": -1, "wordID": 868, "type": "PRES_AUD", "trial_index": 37}, "uniqueid": "MTK2736:3OVR4I9USQQ93L8C9XGLN41033E4QH", "dateTime": 1519316536163}, {"current_trial": 38, "trialdata": {"rt": -1000, "trial_type": "single-audio", "word": "scribble", "stimulus": "/static/audio/wordpool/SCRIBBLE.wav", "conditions": [18, 1200, "a", 18000], "internal_node_id": "0.0-29.0", "trial": 0, "time_elapsed": 341864, "serialpos": 17, "key_press": -1, "wordID": 1255, "type": "PRES_AUD", "trial_index": 38}, "uniqueid": "MTK2736:3OVR4I9USQQ93L8C9XGLN41033E4QH", "dateTime": 1519316538174}, {"current_trial": 39, "trialdata": {"rt": -1, "trial_type": "single-stim", "stimulus": "", "internal_node_id": "0.0-30.0-0.0", "time_elapsed": 343183, "key_press": -1, "type": "PRE_RECALL_DELAY", "trial_index": 39}, "uniqueid": "MTK2736:3OVR4I9USQQ93L8C9XGLN41033E4QH", "dateTime": 1519316539493}, {"current_trial": 40, "trialdata": {"rt": -1000, "trial_type": "single-audio", "stimulus": "/static/audio/400Hz.wav", "internal_node_id": "0.0-31.0", "time_elapsed": 343684, "key_press": -1, "type": "PRE_RECALL_ALERT", "trial_index": 40}, "uniqueid": "MTK2736:3OVR4I9USQQ93L8C9XGLN41033E4QH", "dateTime": 1519316539994}, {"current_trial": 41, "trialdata": {"rt": [65312], "recwords": ["scribble"], "key_times": [60921, 61217, 61505, 61922, 62814, 62977, 63733, 64007, 65312], "trial_type": "free-recall", "conditions": [18, 1200, "a", 18000], "internal_node_id": "0.0-32.0-0.0", "key_presses": [83, 67, 82, 73, 66, 66, 76, 69, 13], "trial": 0, "time_elapsed": 411246, "type": "FREE_RECALL", "trial_index": 41}, "uniqueid": "MTK2736:3OVR4I9USQQ93L8C9XGLN41033E4QH", "dateTime": 1519316607560}, {"current_trial": 42, "trialdata": {"rt": 3211, "trial_type": "text", "internal_node_id": "0.0-33.0", "time_elapsed": 416463, "key_press": 13, "type": "INSTRUCTIONS", "trial_index": 42}, "uniqueid": "MTK2736:3OVR4I9USQQ93L8C9XGLN41033E4QH", "dateTime": 1519316612773}, {"current_trial": 43, "trialdata": {"rt": [], "trial_type": "math-distractor", "key_times": [4514, 5249], "responses": [], "num2": [6], "num3": [7], "conditions": [18, 1200, "a", 18000], "internal_node_id": "0.0-34.0", "key_presses": [49, 56], "trial": 1, "time_elapsed": 436468, "type": "DISTRACTOR", "trial_index": 43, "num1": [5]}, "uniqueid": "MTK2736:3OVR4I9USQQ93L8C9XGLN41033E4QH", "dateTime": 1519316632778}, {"current_trial": 44, "trialdata": {"rt": -1, "trial_type": "single-stim", "stimulus": "<p id=\"stim\">10</p>", "internal_node_id": "0.0-35.0-0.0", "time_elapsed": 439471, "key_press": -1, "trial_index": 44}, "uniqueid": "MTK2736:3OVR4I9USQQ93L8C9XGLN41033E4QH", "dateTime": 1519316635782}, {"current_trial": 45, "trialdata": {"rt": -1, "trial_type": "single-stim", "stimulus": "<p id=\"stim\">9</p>", "internal_node_id": "0.0-35.0-1.0", "time_elapsed": 440473, "key_press": -1, "trial_index": 45}, "uniqueid": "MTK2736:3OVR4I9USQQ93L8C9XGLN41033E4QH", "dateTime": 1519316636783}, {"current_trial": 46, "trialdata": {"rt": -1, "trial_type": "single-stim", "stimulus": "<p id=\"stim\">8</p>", "internal_node_id": "0.0-35.0-2.0", "time_elapsed": 441475, "key_press": -1, "trial_index": 46}, "uniqueid": "MTK2736:3OVR4I9USQQ93L8C9XGLN41033E4QH", "dateTime": 1519316637785}, {"current_trial": 47, "trialdata": {"rt": -1, "trial_type": "single-stim", "stimulus": "<p id=\"stim\">7</p>", "internal_node_id": "0.0-35.0-3.0", "time_elapsed": 442477, "key_press": -1, "trial_index": 47}, "uniqueid": "MTK2736:3OVR4I9USQQ93L8C9XGLN41033E4QH", "dateTime": 1519316638787}, {"current_trial": 48, "trialdata": {"rt": -1, "trial_type": "single-stim", "stimulus": "<p id=\"stim\">6</p>", "internal_node_id": "0.0-35.0-4.0", "time_elapsed": 443478, "key_press": -1, "trial_index": 48}, "uniqueid": "MTK2736:3OVR4I9USQQ93L8C9XGLN41033E4QH", "dateTime": 1519316639788}, {"current_trial": 49, "trialdata": {"rt": -1, "trial_type": "single-stim", "stimulus": "<p id=\"stim\">5</p>", "internal_node_id": "0.0-35.0-5.0", "time_elapsed": 444481, "key_press": -1, "trial_index": 49}, "uniqueid": "MTK2736:3OVR4I9USQQ93L8C9XGLN41033E4QH", "dateTime": 1519316640791}, {"current_trial": 50, "trialdata": {"rt": -1, "trial_type": "single-stim", "stimulus": "<p id=\"stim\">4</p>", "internal_node_id": "0.0-35.0-6.0", "time_elapsed": 445483, "key_press": -1, "trial_index": 50}, "uniqueid": "MTK2736:3OVR4I9USQQ93L8C9XGLN41033E4QH", "dateTime": 1519316641793}, {"current_trial": 51, "trialdata": {"rt": -1, "trial_type": "single-stim", "stimulus": "<p id=\"stim\">3</p>", "internal_node_id": "0.0-35.0-7.0", "time_elapsed": 446486, "key_press": -1, "trial_index": 51}, "uniqueid": "MTK2736:3OVR4I9USQQ93L8C9XGLN41033E4QH", "dateTime": 1519316642796}, {"current_trial": 52, "trialdata": {"rt": -1, "trial_type": "single-stim", "stimulus": "<p id=\"stim\">2</p>", "internal_node_id": "0.0-35.0-8.0", "time_elapsed": 447487, "key_press": -1, "trial_index": 52}, "uniqueid": "MTK2736:3OVR4I9USQQ93L8C9XGLN41033E4QH", "dateTime": 1519316643797}, {"current_trial": 53, "trialdata": {"rt": -1, "trial_type": "single-stim", "stimulus": "<p id=\"stim\">1</p>", "internal_node_id": "0.0-35.0-9.0", "time_elapsed": 448488, "key_press": -1, "trial_index": 53}, "uniqueid": "MTK2736:3OVR4I9USQQ93L8C9XGLN41033E4QH", "dateTime": 1519316644798}, {"current_trial": 54, "trialdata": {"rt": -1, "trial_type": "single-stim", "stimulus": "<p id=\"stim\">+</p>", "internal_node_id": "0.0-36.0-0.0", "time_elapsed": 449991, "key_press": -1, "type": "FIXATION", "trial_index": 54}, "uniqueid": "MTK2736:3OVR4I9USQQ93L8C9XGLN41033E4QH", "dateTime": 1519316646301}, {"current_trial": 55, "trialdata": {"rt": -1000, "trial_type": "single-audio", "word": "outlaw", "stimulus": "/static/audio/wordpool/OUTLAW.wav", "conditions": [18, 1200, "a", 18000], "internal_node_id": "0.0-37.0", "trial": 1, "time_elapsed": 452049, "serialpos": 0, "key_press": -1, "wordID": 988, "type": "PRES_AUD", "trial_index": 55}, "uniqueid": "MTK2736:3OVR4I9USQQ93L8C9XGLN41033E4QH", "dateTime": 1519316648359}, {"current_trial": 56, "trialdata": {"rt": -1000, "trial_type": "single-audio", "word": "flag", "stimulus": "/static/audio/wordpool/FLAG.wav", "conditions": [18, 1200, "a", 18000], "internal_node_id": "0.0-38.0", "trial": 1, "time_elapsed": 454168, "serialpos": 1, "key_press": -1, "wordID": 572, "type": "PRES_AUD", "trial_index": 56}, "uniqueid": "MTK2736:3OVR4I9USQQ93L8C9XGLN41033E4QH", "dateTime": 1519316650478}, {"current_trial": 57, "trialdata": {"rt": -1000, "trial_type": "single-audio", "word": "pistol", "stimulus": "/static/audio/wordpool/PISTOL.wav", "conditions": [18, 1200, "a", 18000], "internal_node_id": "0.0-39.0", "trial": 1, "time_elapsed": 456411, "serialpos": 2, "key_press": -1, "wordID": 1074, "type": "PRES_AUD", "trial_index": 57}, "uniqueid": "MTK2736:3OVR4I9USQQ93L8C9XGLN41033E4QH", "dateTime": 1519316652721}, {"current_trial": 58, "trialdata": {"rt": -1000, "trial_type": "single-audio", "word": "lightning", "stimulus": "/static/audio/wordpool/LIGHTNING.wav", "conditions": [18, 1200, "a", 18000], "internal_node_id": "0.0-40.0", "trial": 1, "time_elapsed": 458429, "serialpos": 3, "key_press": -1, "wordID": 819, "type": "PRES_AUD", "trial_index": 58}, "uniqueid": "MTK2736:3OVR4I9USQQ93L8C9XGLN41033E4QH", "dateTime": 1519316654739}, {"current_trial": 59, "trialdata": {"rt": -1000, "trial_type": "single-audio", "word": "sphinx", "stimulus": "/static/audio/wordpool/SPHINX.wav", "conditions": [18, 1200, "a", 18000], "internal_node_id": "0.0-41.0", "trial": 1, "time_elapsed": 460808, "serialpos": 4, "key_press": -1, "wordID": 1348, "type": "PRES_AUD", "trial_index": 59}, "uniqueid": "MTK2736:3OVR4I9USQQ93L8C9XGLN41033E4QH", "dateTime": 1519316657118}, {"current_trial": 60, "trialdata": {"rt": -1000, "trial_type": "single-audio", "word": "cookbook", "stimulus": "/static/audio/wordpool/COOKBOOK.wav", "conditions": [18, 1200, "a", 18000], "internal_node_id": "0.0-42.0", "trial": 1, "time_elapsed": 463192, "serialpos": 5, "key_press": -1, "wordID": 372, "type": "PRES_AUD", "trial_index": 60}, "uniqueid": "MTK2736:3OVR4I9USQQ93L8C9XGLN41033E4QH", "dateTime": 1519316659503}, {"current_trial": 61, "trialdata": {"rt": -1000, "trial_type": "single-audio", "word": "igloo", "stimulus": "/static/audio/wordpool/IGLOO.wav", "conditions": [18, 1200, "a", 18000], "internal_node_id": "0.0-43.0", "trial": 1, "time_elapsed": 465379, "serialpos": 6, "key_press": -1, "wordID": 733, "type": "PRES_AUD", "trial_index": 61}, "uniqueid": "MTK2736:3OVR4I9USQQ93L8C9XGLN41033E4QH", "dateTime": 1519316661689}, {"current_trial": 62, "trialdata": {"rt": -1000, "trial_type": "single-audio", "word": "piano", "stimulus": "/static/audio/wordpool/PIANO.wav", "conditions": [18, 1200, "a", 18000], "internal_node_id": "0.0-44.0", "trial": 1, "time_elapsed": 467512, "serialpos": 7, "key_press": -1, "wordID": 1056, "type": "PRES_AUD", "trial_index": 62}, "uniqueid": "MTK2736:3OVR4I9USQQ93L8C9XGLN41033E4QH", "dateTime": 1519316663823}, {"current_trial": 63, "trialdata": {"rt": -1000, "trial_type": "single-audio", "word": "ketchup", "stimulus": "/static/audio/wordpool/KETCHUP.wav", "conditions": [18, 1200, "a", 18000], "internal_node_id": "0.0-45.0", "trial": 1, "time_elapsed": 469721, "serialpos": 8, "key_press": -1, "wordID": 770, "type": "PRES_AUD", "trial_index": 63}, "uniqueid": "MTK2736:3OVR4I9USQQ93L8C9XGLN41033E4QH", "dateTime": 1519316666031}, {"current_trial": 64, "trialdata": {"rt": -1000, "trial_type": "single-audio", "word": "cross", "stimulus": "/static/audio/wordpool/CROSS.wav", "conditions": [18, 1200, "a", 18000], "internal_node_id": "0.0-46.0", "trial": 1, "time_elapsed": 472115, "serialpos": 9, "key_press": -1, "wordID": 412, "type": "PRES_AUD", "trial_index": 64}, "uniqueid": "MTK2736:3OVR4I9USQQ93L8C9XGLN41033E4QH", "dateTime": 1519316668425}, {"current_trial": 65, "trialdata": {"rt": -1000, "trial_type": "single-audio", "word": "tribe", "stimulus": "/static/audio/wordpool/TRIBE.wav", "conditions": [18, 1200, "a", 18000], "internal_node_id": "0.0-47.0", "trial": 1, "time_elapsed": 474274, "serialpos": 10, "key_press": -1, "wordID": 1504, "type": "PRES_AUD", "trial_index": 65}, "uniqueid": "MTK2736:3OVR4I9USQQ93L8C9XGLN41033E4QH", "dateTime": 1519316670584}, {"current_trial": 66, "trialdata": {"rt": -1000, "trial_type": "single-audio", "word": "mustard", "stimulus": "/static/audio/wordpool/MUSTARD.wav", "conditions": [18, 1200, "a", 18000], "internal_node_id": "0.0-48.0", "trial": 1, "time_elapsed": 476317, "serialpos": 11, "key_press": -1, "wordID": 934, "type": "PRES_AUD", "trial_index": 66}, "uniqueid": "MTK2736:3OVR4I9USQQ93L8C9XGLN41033E4QH", "dateTime": 1519316672627}, {"current_trial": 67, "trialdata": {"rt": -1000, "trial_type": "single-audio", "word": "farmer", "stimulus": "/static/audio/wordpool/FARMER.wav", "conditions": [18, 1200, "a", 18000], "internal_node_id": "0.0-49.0", "trial": 1, "time_elapsed": 478443, "serialpos": 12, "key_press": -1, "wordID": 552, "type": "PRES_AUD", "trial_index": 67}, "uniqueid": "MTK2736:3OVR4I9USQQ93L8C9XGLN41033E4QH", "dateTime": 1519316674753}, {"current_trial": 68, "trialdata": {"rt": -1000, "trial_type": "single-audio", "word": "brick", "stimulus": "/static/audio/wordpool/BRICK.wav", "conditions": [18, 1200, "a", 18000], "internal_node_id": "0.0-50.0", "trial": 1, "time_elapsed": 480763, "serialpos": 13, "key_press": -1, "wordID": 171, "type": "PRES_AUD", "trial_index": 68}, "uniqueid": "MTK2736:3OVR4I9USQQ93L8C9XGLN41033E4QH", "dateTime": 1519316677076}, {"current_trial": 69, "trialdata": {"rt": -1000, "trial_type": "single-audio", "word": "raft", "stimulus": "/static/audio/wordpool/RAFT.wav", "conditions": [18, 1200, "a", 18000], "internal_node_id": "0.0-51.0", "trial": 1, "time_elapsed": 482950, "serialpos": 14, "key_press": -1, "wordID": 1158, "type": "PRES_AUD", "trial_index": 69}, "uniqueid": "MTK2736:3OVR4I9USQQ93L8C9XGLN41033E4QH", "dateTime": 1519316679260}, {"current_trial": 70, "trialdata": {"rt": -1000, "trial_type": "single-audio", "word": "knife", "stimulus": "/static/audio/wordpool/KNIFE.wav", "conditions": [18, 1200, "a", 18000], "internal_node_id": "0.0-52.0", "trial": 1, "time_elapsed": 485318, "serialpos": 15, "key_press": -1, "wordID": 784, "type": "PRES_AUD", "trial_index": 70}, "uniqueid": "MTK2736:3OVR4I9USQQ93L8C9XGLN41033E4QH", "dateTime": 1519316681628}, {"current_trial": 71, "trialdata": {"rt": -1000, "trial_type": "single-audio", "word": "harp", "stimulus": "/static/audio/wordpool/HARP.wav", "conditions": [18, 1200, "a", 18000], "internal_node_id": "0.0-53.0", "trial": 1, "time_elapsed": 487544, "serialpos": 16, "key_press": -1, "wordID": 688, "type": "PRES_AUD", "trial_index": 71}, "uniqueid": "MTK2736:3OVR4I9USQQ93L8C9XGLN41033E4QH", "dateTime": 1519316683854}, {"current_trial": 72, "trialdata": {"rt": -1000, "trial_type": "single-audio", "word": "branch", "stimulus": "/static/audio/wordpool/BRANCH.wav", "conditions": [18, 1200, "a", 18000], "internal_node_id": "0.0-54.0", "trial": 1, "time_elapsed": 489862, "serialpos": 17, "key_press": -1, "wordID": 167, "type": "PRES_AUD", "trial_index": 72}, "uniqueid": "MTK2736:3OVR4I9USQQ93L8C9XGLN41033E4QH", "dateTime": 1519316686172}, {"current_trial": 73, "trialdata": {"rt": -1, "trial_type": "single-stim", "stimulus": "", "internal_node_id": "0.0-55.0-0.0", "time_elapsed": 491184, "key_press": -1, "type": "PRE_RECALL_DELAY", "trial_index": 73}, "uniqueid": "MTK2736:3OVR4I9USQQ93L8C9XGLN41033E4QH", "dateTime": 1519316687495}, {"current_trial": 74, "trialdata": {"rt": -1000, "trial_type": "single-audio", "stimulus": "/static/audio/400Hz.wav", "internal_node_id": "0.0-56.0", "time_elapsed": 491688, "key_press": -1, "type": "PRE_RECALL_ALERT", "trial_index": 74}, "uniqueid": "MTK2736:3OVR4I9USQQ93L8C9XGLN41033E4QH", "dateTime": 1519316687998}, {"current_trial": 75, "trialdata": {"rt": [8713, 13661, 17867, 23966, 28146, 32619, 35956, 41153, 45482, 54145], "recwords": ["cookbook", "farmer", "igloo", "picnic", "tribe", "flag", "pistol", "raft", "raft", "brick"], "key_times": [4061, 4429, 4589, 5511, 6018, 6652, 6809, 7044, 8713, 11335, 11539, 11939, 12271, 12488, 12732, 13661, 15199, 15636, 16116, 16455, 16600, 17867, 19871, 20828, 21180, 21539, 22103, 23178, 23966, 25673, 25998, 26507, 26940, 27189, 28146, 30621, 31169, 31312, 31682, 32619, 33715, 33969, 34208, 34542, 35062, 35389, 35956, 39767, 39919, 40341, 40797, 41153, 43737, 43881, 44198, 44601, 45482, 52213, 52449, 52737, 53068, 53366, 54145, 58914, 59344, 59759, 59918], "trial_type": "free-recall", "conditions": [18, 1200, "a", 18000], "internal_node_id": "0.0-57.0-0.0", "key_presses": [67, 79, 79, 75, 66, 79, 79, 75, 13, 70, 65, 82, 77, 69, 82, 13, 73, 71, 76, 79, 79, 13, 80, 73, 67, 78, 73, 67, 13, 84, 82, 73, 66, 69, 13, 70, 76, 65, 71, 13, 80, 73, 83, 84, 79, 76, 13, 82, 65, 70, 84, 32, 82, 65, 70, 84, 13, 66, 82, 73, 67, 75, 13, 76, 73, 71, 72], "trial": 1, "time_elapsed": 551692, "type": "FREE_RECALL", "trial_index": 75}, "uniqueid": "MTK2736:3OVR4I9USQQ93L8C9XGLN41033E4QH", "dateTime": 1519316748005}, {"current_trial": 76, "trialdata": {"rt": 6453, "trial_type": "text", "internal_node_id": "0.0-58.0", "time_elapsed": 560152, "key_press": 13, "type": "INSTRUCTIONS", "trial_index": 76}, "uniqueid": "MTK2736:3OVR4I9USQQ93L8C9XGLN41033E4QH", "dateTime": 1519316756462}, {"current_trial": 77, "trialdata": {"rt": [], "trial_type": "math-distractor", "key_times": [3538], "responses": [], "num2": [4], "num3": [3], "conditions": [24, 800, "a", 12000], "internal_node_id": "0.0-59.0", "key_presses": [57], "trial": 2, "time_elapsed": 573157, "type": "DISTRACTOR", "trial_index": 77, "num1": [2]}, "uniqueid": "MTK2736:3OVR4I9USQQ93L8C9XGLN41033E4QH", "dateTime": 1519316769467}, {"current_trial": 78, "trialdata": {"rt": -1, "trial_type": "single-stim", "stimulus": "<p id=\"stim\">10</p>", "internal_node_id": "0.0-60.0-0.0", "time_elapsed": 576160, "key_press": -1, "trial_index": 78}, "uniqueid": "MTK2736:3OVR4I9USQQ93L8C9XGLN41033E4QH", "dateTime": 1519316772470}, {"current_trial": 79, "trialdata": {"rt": -1, "trial_type": "single-stim", "stimulus": "<p id=\"stim\">9</p>", "internal_node_id": "0.0-60.0-1.0", "time_elapsed": 577162, "key_press": -1, "trial_index": 79}, "uniqueid": "MTK2736:3OVR4I9USQQ93L8C9XGLN41033E4QH", "dateTime": 1519316773472}, {"current_trial": 80, "trialdata": {"rt": -1, "trial_type": "single-stim", "stimulus": "<p id=\"stim\">8</p>", "internal_node_id": "0.0-60.0-2.0", "time_elapsed": 578164, "key_press": -1, "trial_index": 80}, "uniqueid": "MTK2736:3OVR4I9USQQ93L8C9XGLN41033E4QH", "dateTime": 1519316774474}, {"current_trial": 81, "trialdata": {"rt": -1, "trial_type": "single-stim", "stimulus": "<p id=\"stim\">7</p>", "internal_node_id": "0.0-60.0-3.0", "time_elapsed": 579166, "key_press": -1, "trial_index": 81}, "uniqueid": "MTK2736:3OVR4I9USQQ93L8C9XGLN41033E4QH", "dateTime": 1519316775476}, {"current_trial": 82, "trialdata": {"rt": -1, "trial_type": "single-stim", "stimulus": "<p id=\"stim\">6</p>", "internal_node_id": "0.0-60.0-4.0", "time_elapsed": 580168, "key_press": -1, "trial_index": 82}, "uniqueid": "MTK2736:3OVR4I9USQQ93L8C9XGLN41033E4QH", "dateTime": 1519316776478}, {"current_trial": 83, "trialdata": {"rt": -1, "trial_type": "single-stim", "stimulus": "<p id=\"stim\">5</p>", "internal_node_id": "0.0-60.0-5.0", "time_elapsed": 581170, "key_press": -1, "trial_index": 83}, "uniqueid": "MTK2736:3OVR4I9USQQ93L8C9XGLN41033E4QH", "dateTime": 1519316777480}, {"current_trial": 84, "trialdata": {"rt": -1, "trial_type": "single-stim", "stimulus": "<p id=\"stim\">4</p>", "internal_node_id": "0.0-60.0-6.0", "time_elapsed": 582171, "key_press": -1, "trial_index": 84}, "uniqueid": "MTK2736:3OVR4I9USQQ93L8C9XGLN41033E4QH", "dateTime": 1519316778482}, {"current_trial": 85, "trialdata": {"rt": -1, "trial_type": "single-stim", "stimulus": "<p id=\"stim\">3</p>", "internal_node_id": "0.0-60.0-7.0", "time_elapsed": 583173, "key_press": -1, "trial_index": 85}, "uniqueid": "MTK2736:3OVR4I9USQQ93L8C9XGLN41033E4QH", "dateTime": 1519316779483}, {"current_trial": 86, "trialdata": {"rt": -1, "trial_type": "single-stim", "stimulus": "<p id=\"stim\">2</p>", "internal_node_id": "0.0-60.0-8.0", "time_elapsed": 584176, "key_press": -1, "trial_index": 86}, "uniqueid": "MTK2736:3OVR4I9USQQ93L8C9XGLN41033E4QH", "dateTime": 1519316780486}, {"current_trial": 87, "trialdata": {"rt": -1, "trial_type": "single-stim", "stimulus": "<p id=\"stim\">1</p>", "internal_node_id": "0.0-60.0-9.0", "time_elapsed": 585178, "key_press": -1, "trial_index": 87}, "uniqueid": "MTK2736:3OVR4I9USQQ93L8C9XGLN41033E4QH", "dateTime": 1519316781488}, {"current_trial": 88, "trialdata": {"rt": -1, "trial_type": "single-stim", "stimulus": "<p id=\"stim\">+</p>", "internal_node_id": "0.0-61.0-0.0", "time_elapsed": 586681, "key_press": -1, "type": "FIXATION", "trial_index": 88}, "uniqueid": "MTK2736:3OVR4I9USQQ93L8C9XGLN41033E4QH", "dateTime": 1519316782991}, {"current_trial": 89, "trialdata": {"rt": -1000, "trial_type": "single-audio", "word": "perfume", "stimulus": "/static/audio/wordpool/PERFUME.wav", "conditions": [24, 800, "a", 12000], "internal_node_id": "0.0-62.0", "trial": 2, "time_elapsed": 588441, "serialpos": 0, "key_press": -1, "wordID": 1048, "type": "PRES_AUD", "trial_index": 89}, "uniqueid": "MTK2736:3OVR4I9USQQ93L8C9XGLN41033E4QH", "dateTime": 1519316784751}, {"current_trial": 90, "trialdata": {"rt": -1000, "trial_type": "single-audio", "word": "fragrance", "stimulus": "/static/audio/wordpool/FRAGRANCE.wav", "conditions": [24, 800, "a", 12000], "internal_node_id": "0.0-63.0", "trial": 2, "time_elapsed": 590241, "serialpos": 1, "key_press": -1, "wordID": 598, "type": "PRES_AUD", "trial_index": 90}, "uniqueid": "MTK2736:3OVR4I9USQQ93L8C9XGLN41033E4QH", "dateTime": 1519316786551}, {"current_trial": 91, "trialdata": {"rt": -1000, "trial_type": "single-audio", "word": "headband", "stimulus": "/static/audio/wordpool/HEADBAND.wav", "conditions": [24, 800, "a", 12000], "internal_node_id": "0.0-64.0", "trial": 2, "time_elapsed": 592090, "serialpos": 2, "key_press": -1, "wordID": 695, "type": "PRES_AUD", "trial_index": 91}, "uniqueid": "MTK2736:3OVR4I9USQQ93L8C9XGLN41033E4QH", "dateTime": 1519316788400}, {"current_trial": 92, "trialdata": {"rt": -1000, "trial_type": "single-audio", "word": "pastry", "stimulus": "/static/audio/wordpool/PASTRY.wav", "conditions": [24, 800, "a", 12000], "internal_node_id": "0.0-65.0", "trial": 2, "time_elapsed": 593748, "serialpos": 3, "key_press": -1, "wordID": 1021, "type": "PRES_AUD", "trial_index": 92}, "uniqueid": "MTK2736:3OVR4I9USQQ93L8C9XGLN41033E4QH", "dateTime": 1519316790058}, {"current_trial": 93, "trialdata": {"rt": -1000, "trial_type": "single-audio", "word": "badge", "stimulus": "/static/audio/wordpool/BADGE.wav", "conditions": [24, 800, "a", 12000], "internal_node_id": "0.0-66.0", "trial": 2, "time_elapsed": 595701, "serialpos": 4, "key_press": -1, "wordID": 67, "type": "PRES_AUD", "trial_index": 93}, "uniqueid": "MTK2736:3OVR4I9USQQ93L8C9XGLN41033E4QH", "dateTime": 1519316792011}, {"current_trial": 94, "trialdata": {"rt": -1000, "trial_type": "single-audio", "word": "outfit", "stimulus": "/static/audio/wordpool/OUTFIT.wav", "conditions": [24, 800, "a", 12000], "internal_node_id": "0.0-67.0", "trial": 2, "time_elapsed": 597358, "serialpos": 5, "key_press": -1, "wordID": 987, "type": "PRES_AUD", "trial_index": 94}, "uniqueid": "MTK2736:3OVR4I9USQQ93L8C9XGLN41033E4QH", "dateTime": 1519316793668}, {"current_trial": 95, "trialdata": {"rt": -1000, "trial_type": "single-audio", "word": "pliers", "stimulus": "/static/audio/wordpool/PLIERS.wav", "conditions": [24, 800, "a", 12000], "internal_node_id": "0.0-68.0", "trial": 2, "time_elapsed": 599152, "serialpos": 6, "key_press": -1, "wordID": 1088, "type": "PRES_AUD", "trial_index": 95}, "uniqueid": "MTK2736:3OVR4I9USQQ93L8C9XGLN41033E4QH", "dateTime": 1519316795462}, {"current_trial": 96, "trialdata": {"rt": -1000, "trial_type": "single-audio", "word": "friend", "stimulus": "/static/audio/wordpool/FRIEND.wav", "conditions": [24, 800, "a", 12000], "internal_node_id": "0.0-69.0", "trial": 2, "time_elapsed": 601132, "serialpos": 7, "key_press": -1, "wordID": 605, "type": "PRES_AUD", "trial_index": 96}, "uniqueid": "MTK2736:3OVR4I9USQQ93L8C9XGLN41033E4QH", "dateTime": 1519316797442}, {"current_trial": 97, "trialdata": {"rt": -1000, "trial_type": "single-audio", "word": "shortcake", "stimulus": "/static/audio/wordpool/SHORTCAKE.wav", "conditions": [24, 800, "a", 12000], "internal_node_id": "0.0-70.0", "trial": 2, "time_elapsed": 602953, "serialpos": 8, "key_press": -1, "wordID": 1291, "type": "PRES_AUD", "trial_index": 97}, "uniqueid": "MTK2736:3OVR4I9USQQ93L8C9XGLN41033E4QH", "dateTime": 1519316799263}, {"current_trial": 98, "trialdata": {"rt": -1000, "trial_type": "single-audio", "word": "star", "stimulus": "/static/audio/wordpool/STAR.wav", "conditions": [24, 800, "a", 12000], "internal_node_id": "0.0-71.0", "trial": 2, "time_elapsed": 604672, "serialpos": 9, "key_press": -1, "wordID": 1372, "type": "PRES_AUD", "trial_index": 98}, "uniqueid": "MTK2736:3OVR4I9USQQ93L8C9XGLN41033E4QH", "dateTime": 1519316800982}, {"current_trial": 99, "trialdata": {"rt": -1000, "trial_type": "single-audio", "word": "football", "stimulus": "/static/audio/wordpool/FOOTBALL.wav", "conditions": [24, 800, "a", 12000], "internal_node_id": "0.0-72.0", "trial": 2, "time_elapsed": 606397, "serialpos": 10, "key_press": -1, "wordID": 590, "type": "PRES_AUD", "trial_index": 99}, "uniqueid": "MTK2736:3OVR4I9USQQ93L8C9XGLN41033E4QH", "dateTime": 1519316802707}, {"current_trial": 100, "trialdata": {"rt": -1000, "trial_type": "single-audio", "word": "cricket", "stimulus": "/static/audio/wordpool/CRICKET.wav", "conditions": [24, 800, "a", 12000], "internal_node_id": "0.0-73.0", "trial": 2, "time_elapsed": 608270, "serialpos": 11, "key_press": -1, "wordID": 407, "type": "PRES_AUD", "trial_index": 100}, "uniqueid": "MTK2736:3OVR4I9USQQ93L8C9XGLN41033E4QH", "dateTime": 1519316804580}, {"current_trial": 101, "trialdata": {"rt": -1000, "trial_type": "single-audio", "word": "sheriff", "stimulus": "/static/audio/wordpool/SHERIFF.wav", "conditions": [24, 800, "a", 12000], "internal_node_id": "0.0-74.0", "trial": 2, "time_elapsed": 609950, "serialpos": 12, "key_press": -1, "wordID": 1283, "type": "PRES_AUD", "trial_index": 101}, "uniqueid": "MTK2736:3OVR4I9USQQ93L8C9XGLN41033E4QH", "dateTime": 1519316806261}, {"current_trial": 102, "trialdata": {"rt": -1000, "trial_type": "single-audio", "word": "frame", "stimulus": "/static/audio/wordpool/FRAME.wav", "conditions": [24, 800, "a", 12000], "internal_node_id": "0.0-75.0", "trial": 2, "time_elapsed": 611892, "serialpos": 13, "key_press": -1, "wordID": 599, "type": "PRES_AUD", "trial_index": 102}, "uniqueid": "MTK2736:3OVR4I9USQQ93L8C9XGLN41033E4QH", "dateTime": 1519316808202}, {"current_trial": 103, "trialdata": {"rt": -1000, "trial_type": "single-audio", "word": "antler", "stimulus": "/static/audio/wordpool/ANTLER.wav", "conditions": [24, 800, "a", 12000], "internal_node_id": "0.0-76.0", "trial": 2, "time_elapsed": 613715, "serialpos": 14, "key_press": -1, "wordID": 28, "type": "PRES_AUD", "trial_index": 103}, "uniqueid": "MTK2736:3OVR4I9USQQ93L8C9XGLN41033E4QH", "dateTime": 1519316810026}, {"current_trial": 104, "trialdata": {"rt": -1000, "trial_type": "single-audio", "word": "fungus", "stimulus": "/static/audio/wordpool/FUNGUS.wav", "conditions": [24, 800, "a", 12000], "internal_node_id": "0.0-77.0", "trial": 2, "time_elapsed": 615425, "serialpos": 15, "key_press": -1, "wordID": 613, "type": "PRES_AUD", "trial_index": 104}, "uniqueid": "MTK2736:3OVR4I9USQQ93L8C9XGLN41033E4QH", "dateTime": 1519316811735}, {"current_trial": 105, "trialdata": {"rt": -1000, "trial_type": "single-audio", "word": "creature", "stimulus": "/static/audio/wordpool/CREATURE.wav", "conditions": [24, 800, "a", 12000], "internal_node_id": "0.0-78.0", "trial": 2, "time_elapsed": 617195, "serialpos": 16, "key_press": -1, "wordID": 402, "type": "PRES_AUD", "trial_index": 105}, "uniqueid": "MTK2736:3OVR4I9USQQ93L8C9XGLN41033E4QH", "dateTime": 1519316813505}, {"current_trial": 106, "trialdata": {"rt": -1000, "trial_type": "single-audio", "word": "seafood", "stimulus": "/static/audio/wordpool/SEAFOOD.wav", "conditions": [24, 800, "a", 12000], "internal_node_id": "0.0-79.0", "trial": 2, "time_elapsed": 618864, "serialpos": 17, "key_press": -1, "wordID": 1259, "type": "PRES_AUD", "trial_index": 106}, "uniqueid": "MTK2736:3OVR4I9USQQ93L8C9XGLN41033E4QH", "dateTime": 1519316815174}, {"current_trial": 107, "trialdata": {"rt": -1000, "trial_type": "single-audio", "word": "blockade", "stimulus": "/static/audio/wordpool/BLOCKADE.wav", "conditions": [24, 800, "a", 12000], "internal_node_id": "0.0-80.0", "trial": 2, "time_elapsed": 620779, "serialpos": 18, "key_press": -1, "wordID": 136, "type": "PRES_AUD", "trial_index": 107}, "uniqueid": "MTK2736:3OVR4I9USQQ93L8C9XGLN41033E4QH", "dateTime": 1519316817089}, {"current_trial": 108, "trialdata": {"rt": -1000, "trial_type": "single-audio", "word": "beast", "stimulus": "/static/audio/wordpool/BEAST.wav", "conditions": [24, 800, "a", 12000], "internal_node_id": "0.0-81.0", "trial": 2, "time_elapsed": 622775, "serialpos": 19, "key_press": -1, "wordID": 107, "type": "PRES_AUD", "trial_index": 108}, "uniqueid": "MTK2736:3OVR4I9USQQ93L8C9XGLN41033E4QH", "dateTime": 1519316819085}, {"current_trial": 109, "trialdata": {"rt": -1000, "trial_type": "single-audio", "word": "casket", "stimulus": "/static/audio/wordpool/CASKET.wav", "conditions": [24, 800, "a", 12000], "internal_node_id": "0.0-82.0", "trial": 2, "time_elapsed": 624718, "serialpos": 20, "key_press": -1, "wordID": 254, "type": "PRES_AUD", "trial_index": 109}, "uniqueid": "MTK2736:3OVR4I9USQQ93L8C9XGLN41033E4QH", "dateTime": 1519316821028}, {"current_trial": 110, "trialdata": {"rt": -1000, "trial_type": "single-audio", "word": "valve", "stimulus": "/static/audio/wordpool/VALVE.wav", "conditions": [24, 800, "a", 12000], "internal_node_id": "0.0-83.0", "trial": 2, "time_elapsed": 626490, "serialpos": 21, "key_press": -1, "wordID": 1545, "type": "PRES_AUD", "trial_index": 110}, "uniqueid": "MTK2736:3OVR4I9USQQ93L8C9XGLN41033E4QH", "dateTime": 1519316822801}, {"current_trial": 111, "trialdata": {"rt": -1000, "trial_type": "single-audio", "word": "piston", "stimulus": "/static/audio/wordpool/PISTON.wav", "conditions": [24, 800, "a", 12000], "internal_node_id": "0.0-84.0", "trial": 2, "time_elapsed": 628152, "serialpos": 22, "key_press": -1, "wordID": 1075, "type": "PRES_AUD", "trial_index": 111}, "uniqueid": "MTK2736:3OVR4I9USQQ93L8C9XGLN41033E4QH", "dateTime": 1519316824462}, {"current_trial": 112, "trialdata": {"rt": -1000, "trial_type": "single-audio", "word": "gavel", "stimulus": "/static/audio/wordpool/GAVEL.wav", "conditions": [24, 800, "a", 12000], "internal_node_id": "0.0-85.0", "trial": 2, "time_elapsed": 629822, "serialpos": 23, "key_press": -1, "wordID": 626, "type": "PRES_AUD", "trial_index": 112}, "uniqueid": "MTK2736:3OVR4I9USQQ93L8C9XGLN41033E4QH", "dateTime": 1519316826132}, {"current_trial": 113, "trialdata": {"rt": -1, "trial_type": "single-stim", "stimulus": "", "internal_node_id": "0.0-86.0-0.0", "time_elapsed": 631083, "key_press": -1, "type": "PRE_RECALL_DELAY", "trial_index": 113}, "uniqueid": "MTK2736:3OVR4I9USQQ93L8C9XGLN41033E4QH", "dateTime": 1519316827393}, {"current_trial": 114, "trialdata": {"rt": -1000, "trial_type": "single-audio", "stimulus": "/static/audio/400Hz.wav", "internal_node_id": "0.0-87.0", "time_elapsed": 631585, "key_press": -1, "type": "PRE_RECALL_ALERT", "trial_index": 114}, "uniqueid": "MTK2736:3OVR4I9USQQ93L8C9XGLN41033E4QH", "dateTime": 1519316827895}, {"current_trial": 115, "trialdata": {"rt": [6887, 13572, 23336, 28986, 34338, 40117, 45683, 51928, 56067], "recwords": ["gavel", "perfume", "fragrance", "pastry", "football", "shortcake", "cricket", "seafood", "casket"], "key_times": [2348, 3281, 3712, 4301, 4530, 4986, 6887, 10558, 10914, 11143, 11535, 11812, 12154, 12443, 13572, 18060, 18310, 18555, 19162, 19499, 19861, 20352, 21004, 21460, 23336, 25273, 25623, 25864, 26350, 26602, 26853, 28986, 30379, 30769, 30940, 31832, 32249, 32497, 32884, 33038, 34338, 35737, 35971, 36427, 36795, 37027, 37598, 38025, 38345, 38599, 40117, 41955, 42319, 42786, 43864, 44035, 44415, 44728, 45683, 48668, 49069, 49214, 49573, 50165, 50310, 50686, 51928, 53622, 53935, 54207, 54546, 54941, 55195, 56067, 58663, 59007, 59277, 59527], "trial_type": "free-recall", "conditions": [24, 800, "a", 12000], "internal_node_id": "0.0-88.0-0.0", "key_presses": [71, 20, 65, 86, 69, 76, 13, 80, 69, 82, 70, 85, 77, 69, 13, 70, 82, 65, 71, 82, 65, 78, 67, 69, 13, 80, 65, 83, 84, 82, 89, 13, 70, 79, 79, 84, 66, 65, 76, 76, 13, 83, 72, 79, 82, 84, 67, 65, 75, 69, 13, 67, 82, 73, 67, 75, 69, 84, 13, 83, 69, 65, 70, 79, 79, 68, 13, 67, 65, 83, 75, 69, 84, 13, 72, 69, 65, 68], "trial": 2, "time_elapsed": 691588, "type": "FREE_RECALL", "trial_index": 115}, "uniqueid": "MTK2736:3OVR4I9USQQ93L8C9XGLN41033E4QH", "dateTime": 1519316887901}, {"current_trial": 116, "trialdata": {"rt": 5150, "trial_type": "text", "internal_node_id": "0.0-89.0", "time_elapsed": 698744, "key_press": 13, "type": "INSTRUCTIONS", "trial_index": 116}, "uniqueid": "MTK2736:3OVR4I9USQQ93L8C9XGLN41033E4QH", "dateTime": 1519316895054}, {"current_trial": 117, "trialdata": {"rt": [5877, 12146, 16714, 23314], "trial_type": "math-distractor", "key_times": [4020, 4261, 5877, 10258, 10774, 12146, 15290, 15533, 16714, 19674, 20447, 23314], "responses": ["12", "14", "12", "16"], "num2": [1, 1, 1, 2, 7], "num3": [6, 4, 7, 8, 6], "conditions": [24, 800, "a", 24000], "internal_node_id": "0.0-90.0", "key_presses": [49, 50, 13, 49, 52, 13, 49, 50, 13, 49, 54, 13], "trial": 3, "time_elapsed": 724749, "type": "DISTRACTOR", "trial_index": 117, "num1": [5, 9, 4, 6, 1]}, "uniqueid": "MTK2736:3OVR4I9USQQ93L8C9XGLN41033E4QH", "dateTime": 1519316921059}, {"current_trial": 118, "trialdata": {"rt": -1, "trial_type": "single-stim", "stimulus": "<p id=\"stim\">10</p>", "internal_node_id": "0.0-91.0-0.0", "time_elapsed": 727752, "key_press": -1, "trial_index": 118}, "uniqueid": "MTK2736:3OVR4I9USQQ93L8C9XGLN41033E4QH", "dateTime": 1519316924062}, {"current_trial": 119, "trialdata": {"rt": -1, "trial_type": "single-stim", "stimulus": "<p id=\"stim\">9</p>", "internal_node_id": "0.0-91.0-1.0", "time_elapsed": 728753, "key_press": -1, "trial_index": 119}, "uniqueid": "MTK2736:3OVR4I9USQQ93L8C9XGLN41033E4QH", "dateTime": 1519316925063}, {"current_trial": 120, "trialdata": {"rt": -1, "trial_type": "single-stim", "stimulus": "<p id=\"stim\">8</p>", "internal_node_id": "0.0-91.0-2.0", "time_elapsed": 729755, "key_press": -1, "trial_index": 120}, "uniqueid": "MTK2736:3OVR4I9USQQ93L8C9XGLN41033E4QH", "dateTime": 1519316926065}, {"current_trial": 121, "trialdata": {"rt": -1, "trial_type": "single-stim", "stimulus": "<p id=\"stim\">7</p>", "internal_node_id": "0.0-91.0-3.0", "time_elapsed": 730757, "key_press": -1, "trial_index": 121}, "uniqueid": "MTK2736:3OVR4I9USQQ93L8C9XGLN41033E4QH", "dateTime": 1519316927067}, {"current_trial": 122, "trialdata": {"rt": -1, "trial_type": "single-stim", "stimulus": "<p id=\"stim\">6</p>", "internal_node_id": "0.0-91.0-4.0", "time_elapsed": 731760, "key_press": -1, "trial_index": 122}, "uniqueid": "MTK2736:3OVR4I9USQQ93L8C9XGLN41033E4QH", "dateTime": 1519316928070}, {"current_trial": 123, "trialdata": {"rt": -1, "trial_type": "single-stim", "stimulus": "<p id=\"stim\">5</p>", "internal_node_id": "0.0-91.0-5.0", "time_elapsed": 732761, "key_press": -1, "trial_index": 123}, "uniqueid": "MTK2736:3OVR4I9USQQ93L8C9XGLN41033E4QH", "dateTime": 1519316929071}, {"current_trial": 124, "trialdata": {"rt": -1, "trial_type": "single-stim", "stimulus": "<p id=\"stim\">4</p>", "internal_node_id": "0.0-91.0-6.0", "time_elapsed": 733764, "key_press": -1, "trial_index": 124}, "uniqueid": "MTK2736:3OVR4I9USQQ93L8C9XGLN41033E4QH", "dateTime": 1519316930074}, {"current_trial": 125, "trialdata": {"rt": -1, "trial_type": "single-stim", "stimulus": "<p id=\"stim\">3</p>", "internal_node_id": "0.0-91.0-7.0", "time_elapsed": 734766, "key_press": -1, "trial_index": 125}, "uniqueid": "MTK2736:3OVR4I9USQQ93L8C9XGLN41033E4QH", "dateTime": 1519316931076}, {"current_trial": 126, "trialdata": {"rt": -1, "trial_type": "single-stim", "stimulus": "<p id=\"stim\">2</p>", "internal_node_id": "0.0-91.0-8.0", "time_elapsed": 735767, "key_press": -1, "trial_index": 126}, "uniqueid": "MTK2736:3OVR4I9USQQ93L8C9XGLN41033E4QH", "dateTime": 1519316932077}, {"current_trial": 127, "trialdata": {"rt": -1, "trial_type": "single-stim", "stimulus": "<p id=\"stim\">1</p>", "internal_node_id": "0.0-91.0-9.0", "time_elapsed": 736770, "key_press": -1, "trial_index": 127}, "uniqueid": "MTK2736:3OVR4I9USQQ93L8C9XGLN41033E4QH", "dateTime": 1519316933080}, {"current_trial": 128, "trialdata": {"rt": -1, "trial_type": "single-stim", "stimulus": "<p id=\"stim\">+</p>", "internal_node_id": "0.0-92.0-0.0", "time_elapsed": 738272, "key_press": -1, "type": "FIXATION", "trial_index": 128}, "uniqueid": "MTK2736:3OVR4I9USQQ93L8C9XGLN41033E4QH", "dateTime": 1519316934582}, {"current_trial": 129, "trialdata": {"rt": -1000, "trial_type": "single-audio", "word": "thread", "stimulus": "/static/audio/wordpool/THREAD.wav", "conditions": [24, 800, "a", 24000], "internal_node_id": "0.0-93.0", "trial": 3, "time_elapsed": 740136, "serialpos": 0, "key_press": -1, "wordID": 1459, "type": "PRES_AUD", "trial_index": 129}, "uniqueid": "MTK2736:3OVR4I9USQQ93L8C9XGLN41033E4QH", "dateTime": 1519316936446}, {"current_trial": 130, "trialdata": {"rt": -1000, "trial_type": "single-audio", "word": "mister", "stimulus": "/static/audio/wordpool/MISTER.wav", "conditions": [24, 800, "a", 24000], "internal_node_id": "0.0-94.0", "trial": 3, "time_elapsed": 741777, "serialpos": 1, "key_press": -1, "wordID": 900, "type": "PRES_AUD", "trial_index": 130}, "uniqueid": "MTK2736:3OVR4I9USQQ93L8C9XGLN41033E4QH", "dateTime": 1519316938087}, {"current_trial": 131, "trialdata": {"rt": -1000, "trial_type": "single-audio", "word": "portrait", "stimulus": "/static/audio/wordpool/PORTRAIT.wav", "conditions": [24, 800, "a", 24000], "internal_node_id": "0.0-95.0", "trial": 3, "time_elapsed": 743560, "serialpos": 2, "key_press": -1, "wordID": 1110, "type": "PRES_AUD", "trial_index": 131}, "uniqueid": "MTK2736:3OVR4I9USQQ93L8C9XGLN41033E4QH", "dateTime": 1519316939870}, {"current_trial": 132, "trialdata": {"rt": -1000, "trial_type": "single-audio", "word": "zebra", "stimulus": "/static/audio/wordpool/ZEBRA.wav", "conditions": [24, 800, "a", 24000], "internal_node_id": "0.0-96.0", "trial": 3, "time_elapsed": 745464, "serialpos": 3, "key_press": -1, "wordID": 1634, "type": "PRES_AUD", "trial_index": 132}, "uniqueid": "MTK2736:3OVR4I9USQQ93L8C9XGLN41033E4QH", "dateTime": 1519316941774}, {"current_trial": 133, "trialdata": {"rt": -1000, "trial_type": "single-audio", "word": "donkey", "stimulus": "/static/audio/wordpool/DONKEY.wav", "conditions": [24, 800, "a", 24000], "internal_node_id": "0.0-97.0", "trial": 3, "time_elapsed": 747424, "serialpos": 4, "key_press": -1, "wordID": 483, "type": "PRES_AUD", "trial_index": 133}, "uniqueid": "MTK2736:3OVR4I9USQQ93L8C9XGLN41033E4QH", "dateTime": 1519316943735}, {"current_trial": 134, "trialdata": {"rt": -1000, "trial_type": "single-audio", "word": "picture", "stimulus": "/static/audio/wordpool/PICTURE.wav", "conditions": [24, 800, "a", 24000], "internal_node_id": "0.0-98.0", "trial": 3, "time_elapsed": 749206, "serialpos": 5, "key_press": -1, "wordID": 1060, "type": "PRES_AUD", "trial_index": 134}, "uniqueid": "MTK2736:3OVR4I9USQQ93L8C9XGLN41033E4QH", "dateTime": 1519316945516}, {"current_trial": 135, "trialdata": {"rt": -1000, "trial_type": "single-audio", "word": "rust", "stimulus": "/static/audio/wordpool/RUST.wav", "conditions": [24, 800, "a", 24000], "internal_node_id": "0.0-99.0", "trial": 3, "time_elapsed": 751042, "serialpos": 6, "key_press": -1, "wordID": 1218, "type": "PRES_AUD", "trial_index": 135}, "uniqueid": "MTK2736:3OVR4I9USQQ93L8C9XGLN41033E4QH", "dateTime": 1519316947352}, {"current_trial": 136, "trialdata": {"rt": -1000, "trial_type": "single-audio", "word": "grave", "stimulus": "/static/audio/wordpool/GRAVE.wav", "conditions": [24, 800, "a", 24000], "internal_node_id": "0.0-100.0", "trial": 3, "time_elapsed": 752878, "serialpos": 7, "key_press": -1, "wordID": 657, "type": "PRES_AUD", "trial_index": 136}, "uniqueid": "MTK2736:3OVR4I9USQQ93L8C9XGLN41033E4QH", "dateTime": 1519316949188}, {"current_trial": 137, "trialdata": {"rt": -1000, "trial_type": "single-audio", "word": "shovel", "stimulus": "/static/audio/wordpool/SHOVEL.wav", "conditions": [24, 800, "a", 24000], "internal_node_id": "0.0-101.0", "trial": 3, "time_elapsed": 754805, "serialpos": 8, "key_press": -1, "wordID": 1294, "type": "PRES_AUD", "trial_index": 137}, "uniqueid": "MTK2736:3OVR4I9USQQ93L8C9XGLN41033E4QH", "dateTime": 1519316951115}, {"current_trial": 138, "trialdata": {"rt": -1000, "trial_type": "single-audio", "word": "france", "stimulus": "/static/audio/wordpool/FRANCE.wav", "conditions": [24, 800, "a", 24000], "internal_node_id": "0.0-102.0", "trial": 3, "time_elapsed": 756552, "serialpos": 9, "key_press": -1, "wordID": 600, "type": "PRES_AUD", "trial_index": 138}, "uniqueid": "MTK2736:3OVR4I9USQQ93L8C9XGLN41033E4QH", "dateTime": 1519316952863}, {"current_trial": 139, "trialdata": {"rt": -1000, "trial_type": "single-audio", "word": "london", "stimulus": "/static/audio/wordpool/LONDON.wav", "conditions": [24, 800, "a", 24000], "internal_node_id": "0.0-103.0", "trial": 3, "time_elapsed": 758347, "serialpos": 10, "key_press": -1, "wordID": 842, "type": "PRES_AUD", "trial_index": 139}, "uniqueid": "MTK2736:3OVR4I9USQQ93L8C9XGLN41033E4QH", "dateTime": 1519316954657}, {"current_trial": 140, "trialdata": {"rt": -1000, "trial_type": "single-audio", "word": "flute", "stimulus": "/static/audio/wordpool/FLUTE.wav", "conditions": [24, 800, "a", 24000], "internal_node_id": "0.0-104.0", "trial": 3, "time_elapsed": 759980, "serialpos": 11, "key_press": -1, "wordID": 584, "type": "PRES_AUD", "trial_index": 140}, "uniqueid": "MTK2736:3OVR4I9USQQ93L8C9XGLN41033E4QH", "dateTime": 1519316956290}, {"current_trial": 141, "trialdata": {"rt": -1000, "trial_type": "single-audio", "word": "champagne", "stimulus": "/static/audio/wordpool/CHAMPAGNE.wav", "conditions": [24, 800, "a", 24000], "internal_node_id": "0.0-105.0", "trial": 3, "time_elapsed": 761878, "serialpos": 12, "key_press": -1, "wordID": 277, "type": "PRES_AUD", "trial_index": 141}, "uniqueid": "MTK2736:3OVR4I9USQQ93L8C9XGLN41033E4QH", "dateTime": 1519316958188}, {"current_trial": 142, "trialdata": {"rt": -1000, "trial_type": "single-audio", "word": "rooster", "stimulus": "/static/audio/wordpool/ROOSTER.wav", "conditions": [24, 800, "a", 24000], "internal_node_id": "0.0-106.0", "trial": 3, "time_elapsed": 763719, "serialpos": 13, "key_press": -1, "wordID": 1208, "type": "PRES_AUD", "trial_index": 142}, "uniqueid": "MTK2736:3OVR4I9USQQ93L8C9XGLN41033E4QH", "dateTime": 1519316960029}, {"current_trial": 143, "trialdata": {"rt": -1000, "trial_type": "single-audio", "word": "river", "stimulus": "/static/audio/wordpool/RIVER.wav", "conditions": [24, 800, "a", 24000], "internal_node_id": "0.0-107.0", "trial": 3, "time_elapsed": 765419, "serialpos": 14, "key_press": -1, "wordID": 1193, "type": "PRES_AUD", "trial_index": 143}, "uniqueid": "MTK2736:3OVR4I9USQQ93L8C9XGLN41033E4QH", "dateTime": 1519316961729}, {"current_trial": 144, "trialdata": {"rt": -1000, "trial_type": "single-audio", "word": "brook", "stimulus": "/static/audio/wordpool/BROOK.wav", "conditions": [24, 800, "a", 24000], "internal_node_id": "0.0-108.0", "trial": 3, "time_elapsed": 767263, "serialpos": 15, "key_press": -1, "wordID": 176, "type": "PRES_AUD", "trial_index": 144}, "uniqueid": "MTK2736:3OVR4I9USQQ93L8C9XGLN41033E4QH", "dateTime": 1519316963574}, {"current_trial": 145, "trialdata": {"rt": -1000, "trial_type": "single-audio", "word": "cashier", "stimulus": "/static/audio/wordpool/CASHIER.wav", "conditions": [24, 800, "a", 24000], "internal_node_id": "0.0-109.0", "trial": 3, "time_elapsed": 768910, "serialpos": 16, "key_press": -1, "wordID": 253, "type": "PRES_AUD", "trial_index": 145}, "uniqueid": "MTK2736:3OVR4I9USQQ93L8C9XGLN41033E4QH", "dateTime": 1519316965221}, {"current_trial": 146, "trialdata": {"rt": -1000, "trial_type": "single-audio", "word": "sister", "stimulus": "/static/audio/wordpool/SISTER.wav", "conditions": [24, 800, "a", 24000], "internal_node_id": "0.0-110.0", "trial": 3, "time_elapsed": 770545, "serialpos": 17, "key_press": -1, "wordID": 1311, "type": "PRES_AUD", "trial_index": 146}, "uniqueid": "MTK2736:3OVR4I9USQQ93L8C9XGLN41033E4QH", "dateTime": 1519316966855}, {"current_trial": 147, "trialdata": {"rt": -1000, "trial_type": "single-audio", "word": "girl", "stimulus": "/static/audio/wordpool/GIRL.wav", "conditions": [24, 800, "a", 24000], "internal_node_id": "0.0-111.0", "trial": 3, "time_elapsed": 772191, "serialpos": 18, "key_press": -1, "wordID": 636, "type": "PRES_AUD", "trial_index": 147}, "uniqueid": "MTK2736:3OVR4I9USQQ93L8C9XGLN41033E4QH", "dateTime": 1519316968502}, {"current_trial": 148, "trialdata": {"rt": -1000, "trial_type": "single-audio", "word": "gangster", "stimulus": "/static/audio/wordpool/GANGSTER.wav", "conditions": [24, 800, "a", 24000], "internal_node_id": "0.0-112.0", "trial": 3, "time_elapsed": 774023, "serialpos": 19, "key_press": -1, "wordID": 619, "type": "PRES_AUD", "trial_index": 148}, "uniqueid": "MTK2736:3OVR4I9USQQ93L8C9XGLN41033E4QH", "dateTime": 1519316970333}, {"current_trial": 149, "trialdata": {"rt": -1000, "trial_type": "single-audio", "word": "tourist", "stimulus": "/static/audio/wordpool/TOURIST.wav", "conditions": [24, 800, "a", 24000], "internal_node_id": "0.0-113.0", "trial": 3, "time_elapsed": 775873, "serialpos": 20, "key_press": -1, "wordID": 1487, "type": "PRES_AUD", "trial_index": 149}, "uniqueid": "MTK2736:3OVR4I9USQQ93L8C9XGLN41033E4QH", "dateTime": 1519316972183}, {"current_trial": 150, "trialdata": {"rt": -1000, "trial_type": "single-audio", "word": "pigment", "stimulus": "/static/audio/wordpool/PIGMENT.wav", "conditions": [24, 800, "a", 24000], "internal_node_id": "0.0-114.0", "trial": 3, "time_elapsed": 777475, "serialpos": 21, "key_press": -1, "wordID": 1065, "type": "PRES_AUD", "trial_index": 150}, "uniqueid": "MTK2736:3OVR4I9USQQ93L8C9XGLN41033E4QH", "dateTime": 1519316973785}, {"current_trial": 151, "trialdata": {"rt": -1000, "trial_type": "single-audio", "word": "baby", "stimulus": "/static/audio/wordpool/BABY.wav", "conditions": [24, 800, "a", 24000], "internal_node_id": "0.0-115.0", "trial": 3, "time_elapsed": 779463, "serialpos": 22, "key_press": -1, "wordID": 63, "type": "PRES_AUD", "trial_index": 151}, "uniqueid": "MTK2736:3OVR4I9USQQ93L8C9XGLN41033E4QH", "dateTime": 1519316975773}, {"current_trial": 152, "trialdata": {"rt": -1000, "trial_type": "single-audio", "word": "chauffeur", "stimulus": "/static/audio/wordpool/CHAUFFEUR.wav", "conditions": [24, 800, "a", 24000], "internal_node_id": "0.0-116.0", "trial": 3, "time_elapsed": 781409, "serialpos": 23, "key_press": -1, "wordID": 282, "type": "PRES_AUD", "trial_index": 152}, "uniqueid": "MTK2736:3OVR4I9USQQ93L8C9XGLN41033E4QH", "dateTime": 1519316977719}, {"current_trial": 153, "trialdata": {"rt": -1, "trial_type": "single-stim", "stimulus": "", "internal_node_id": "0.0-117.0-0.0", "time_elapsed": 782690, "key_press": -1, "type": "PRE_RECALL_DELAY", "trial_index": 153}, "uniqueid": "MTK2736:3OVR4I9USQQ93L8C9XGLN41033E4QH", "dateTime": 1519316979001}, {"current_trial": 154, "trialdata": {"rt": -1000, "trial_type": "single-audio", "stimulus": "/static/audio/400Hz.wav", "internal_node_id": "0.0-118.0", "time_elapsed": 783192, "key_press": -1, "type": "PRE_RECALL_ALERT", "trial_index": 154}, "uniqueid": "MTK2736:3OVR4I9USQQ93L8C9XGLN41033E4QH", "dateTime": 1519316979502}, {"current_trial": 155, "trialdata": {"rt": [7161, 10619, 14699, 18940, 23665, 27959, 34087, 38823, 42258, 48387, 54338, 59330], "recwords": ["chaufer", "baby", "gangster", "tourist", "girl", "sister", "london", "gavel", "shovel", "zebra", "donkey", "mister"], "key_times": [1696, 1876, 2246, 2846, 3706, 4259, 4456, 7161, 8953, 9138, 9566, 9940, 10619, 10995, 11178, 11530, 12112, 12397, 12840, 13012, 13241, 14699, 15721, 15948, 16274, 16614, 16964, 17331, 17826, 18940, 21466, 21740, 22574, 22805, 23665, 25872, 26299, 26451, 26849, 27138, 27370, 27959, 30795, 31042, 31372, 31847, 32142, 33006, 34087, 36976, 37181, 37457, 37748, 38283, 38823, 39954, 40152, 40699, 41080, 41253, 41749, 42258, 44883, 45236, 45827, 46737, 46981, 48387, 51900, 52179, 52477, 52951, 53176, 53622, 54338, 57172, 57549, 57768, 58205, 58457, 58670, 59330], "trial_type": "free-recall", "conditions": [24, 800, "a", 24000], "internal_node_id": "0.0-119.0-0.0", "key_presses": [67, 72, 65, 85, 70, 69, 82, 13, 66, 65, 66, 89, 32, 71, 65, 78, 71, 83, 84, 69, 82, 32, 84, 79, 85, 82, 73, 83, 84, 13, 71, 73, 82, 76, 13, 83, 73, 83, 84, 69, 82, 13, 76, 79, 78, 68, 79, 78, 13, 71, 65, 86, 69, 76, 13, 83, 72, 79, 86, 69, 76, 13, 90, 69, 66, 82, 65, 32, 68, 79, 78, 75, 69, 89, 13, 77, 73, 83, 84, 69, 82, 13], "trial": 3, "time_elapsed": 843195, "type": "FREE_RECALL", "trial_index": 155}, "uniqueid": "MTK2736:3OVR4I9USQQ93L8C9XGLN41033E4QH", "dateTime": 1519317039508}, {"current_trial": 156, "trialdata": {"rt": 4658, "trial_type": "text", "internal_node_id": "0.0-120.0", "time_elapsed": 849858, "key_press": 13, "type": "INSTRUCTIONS", "trial_index": 156}, "uniqueid": "MTK2736:3OVR4I9USQQ93L8C9XGLN41033E4QH", "dateTime": 1519317046168}, {"current_trial": 157, "trialdata": {"rt": [6713, 10174, 14496, 16939, 20363, 23389], "trial_type": "math-distractor", "key_times": [4445, 4714, 6713, 8774, 10174, 14087, 14496, 16295, 16526, 16939, 19574, 20135, 20363, 22317, 22884, 23389], "responses": ["23", "5", "7", "12", "16", "18"], "num2": [7, 1, 2, 5, 3, 1, 9], "num3": [8, 1, 2, 5, 8, 8, 4], "conditions": [24, 800, "a", 24000], "internal_node_id": "0.0-121.0", "key_presses": [50, 51, 13, 53, 13, 55, 13, 49, 50, 13, 49, 54, 13, 49, 56, 13], "trial": 4, "time_elapsed": 875864, "type": "DISTRACTOR", "trial_index": 157, "num1": [8, 3, 3, 2, 5, 9, 9]}, "uniqueid": "MTK2736:3OVR4I9USQQ93L8C9XGLN41033E4QH", "dateTime": 1519317072174}, {"current_trial": 158, "trialdata": {"rt": -1, "trial_type": "single-stim", "stimulus": "<p id=\"stim\">10</p>", "internal_node_id": "0.0-122.0-0.0", "time_elapsed": 878866, "key_press": -1, "trial_index": 158}, "uniqueid": "MTK2736:3OVR4I9USQQ93L8C9XGLN41033E4QH", "dateTime": 1519317075176}, {"current_trial": 159, "trialdata": {"rt": -1, "trial_type": "single-stim", "stimulus": "<p id=\"stim\">9</p>", "internal_node_id": "0.0-122.0-1.0", "time_elapsed": 879869, "key_press": -1, "trial_index": 159}, "uniqueid": "MTK2736:3OVR4I9USQQ93L8C9XGLN41033E4QH", "dateTime": 1519317076179}, {"current_trial": 160, "trialdata": {"rt": -1, "trial_type": "single-stim", "stimulus": "<p id=\"stim\">8</p>", "internal_node_id": "0.0-122.0-2.0", "time_elapsed": 880870, "key_press": -1, "trial_index": 160}, "uniqueid": "MTK2736:3OVR4I9USQQ93L8C9XGLN41033E4QH", "dateTime": 1519317077180}, {"current_trial": 161, "trialdata": {"rt": -1, "trial_type": "single-stim", "stimulus": "<p id=\"stim\">7</p>", "internal_node_id": "0.0-122.0-3.0", "time_elapsed": 881872, "key_press": -1, "trial_index": 161}, "uniqueid": "MTK2736:3OVR4I9USQQ93L8C9XGLN41033E4QH", "dateTime": 1519317078182}, {"current_trial": 162, "trialdata": {"rt": -1, "trial_type": "single-stim", "stimulus": "<p id=\"stim\">6</p>", "internal_node_id": "0.0-122.0-4.0", "time_elapsed": 882874, "key_press": -1, "trial_index": 162}, "uniqueid": "MTK2736:3OVR4I9USQQ93L8C9XGLN41033E4QH", "dateTime": 1519317079184}, {"current_trial": 163, "trialdata": {"rt": -1, "trial_type": "single-stim", "stimulus": "<p id=\"stim\">5</p>", "internal_node_id": "0.0-122.0-5.0", "time_elapsed": 883875, "key_press": -1, "trial_index": 163}, "uniqueid": "MTK2736:3OVR4I9USQQ93L8C9XGLN41033E4QH", "dateTime": 1519317080185}, {"current_trial": 164, "trialdata": {"rt": -1, "trial_type": "single-stim", "stimulus": "<p id=\"stim\">4</p>", "internal_node_id": "0.0-122.0-6.0", "time_elapsed": 884877, "key_press": -1, "trial_index": 164}, "uniqueid": "MTK2736:3OVR4I9USQQ93L8C9XGLN41033E4QH", "dateTime": 1519317081187}, {"current_trial": 165, "trialdata": {"rt": -1, "trial_type": "single-stim", "stimulus": "<p id=\"stim\">3</p>", "internal_node_id": "0.0-122.0-7.0", "time_elapsed": 885878, "key_press": -1, "trial_index": 165}, "uniqueid": "MTK2736:3OVR4I9USQQ93L8C9XGLN41033E4QH", "dateTime": 1519317082188}, {"current_trial": 166, "trialdata": {"rt": -1, "trial_type": "single-stim", "stimulus": "<p id=\"stim\">2</p>", "internal_node_id": "0.0-122.0-8.0", "time_elapsed": 886879, "key_press": -1, "trial_index": 166}, "uniqueid": "MTK2736:3OVR4I9USQQ93L8C9XGLN41033E4QH", "dateTime": 1519317083189}, {"current_trial": 167, "trialdata": {"rt": -1, "trial_type": "single-stim", "stimulus": "<p id=\"stim\">1</p>", "internal_node_id": "0.0-122.0-9.0", "time_elapsed": 887880, "key_press": -1, "trial_index": 167}, "uniqueid": "MTK2736:3OVR4I9USQQ93L8C9XGLN41033E4QH", "dateTime": 1519317084190}, {"current_trial": 168, "trialdata": {"rt": -1, "trial_type": "single-stim", "stimulus": "<p id=\"stim\">+</p>", "internal_node_id": "0.0-123.0-0.0", "time_elapsed": 889383, "key_press": -1, "type": "FIXATION", "trial_index": 168}, "uniqueid": "MTK2736:3OVR4I9USQQ93L8C9XGLN41033E4QH", "dateTime": 1519317085693}, {"current_trial": 169, "trialdata": {"rt": -1000, "trial_type": "single-audio", "word": "dashboard", "stimulus": "/static/audio/wordpool/DASHBOARD.wav", "conditions": [24, 800, "a", 24000], "internal_node_id": "0.0-124.0", "trial": 4, "time_elapsed": 891127, "serialpos": 0, "key_press": -1, "wordID": 440, "type": "PRES_AUD", "trial_index": 169}, "uniqueid": "MTK2736:3OVR4I9USQQ93L8C9XGLN41033E4QH", "dateTime": 1519317087437}, {"current_trial": 170, "trialdata": {"rt": -1000, "trial_type": "single-audio", "word": "judge", "stimulus": "/static/audio/wordpool/JUDGE.wav", "conditions": [24, 800, "a", 24000], "internal_node_id": "0.0-125.0", "trial": 4, "time_elapsed": 892900, "serialpos": 1, "key_press": -1, "wordID": 760, "type": "PRES_AUD", "trial_index": 170}, "uniqueid": "MTK2736:3OVR4I9USQQ93L8C9XGLN41033E4QH", "dateTime": 1519317089211}, {"current_trial": 171, "trialdata": {"rt": -1000, "trial_type": "single-audio", "word": "chipmunk", "stimulus": "/static/audio/wordpool/CHIPMUNK.wav", "conditions": [24, 800, "a", 24000], "internal_node_id": "0.0-126.0", "trial": 4, "time_elapsed": 894682, "serialpos": 2, "key_press": -1, "wordID": 303, "type": "PRES_AUD", "trial_index": 171}, "uniqueid": "MTK2736:3OVR4I9USQQ93L8C9XGLN41033E4QH", "dateTime": 1519317090992}, {"current_trial": 172, "trialdata": {"rt": -1000, "trial_type": "single-audio", "word": "patient", "stimulus": "/static/audio/wordpool/PATIENT.wav", "conditions": [24, 800, "a", 24000], "internal_node_id": "0.0-127.0", "trial": 4, "time_elapsed": 896377, "serialpos": 3, "key_press": -1, "wordID": 1023, "type": "PRES_AUD", "trial_index": 172}, "uniqueid": "MTK2736:3OVR4I9USQQ93L8C9XGLN41033E4QH", "dateTime": 1519317092687}, {"current_trial": 173, "trialdata": {"rt": -1000, "trial_type": "single-audio", "word": "lace", "stimulus": "/static/audio/wordpool/LACE.wav", "conditions": [24, 800, "a", 24000], "internal_node_id": "0.0-128.0", "trial": 4, "time_elapsed": 898344, "serialpos": 4, "key_press": -1, "wordID": 791, "type": "PRES_AUD", "trial_index": 173}, "uniqueid": "MTK2736:3OVR4I9USQQ93L8C9XGLN41033E4QH", "dateTime": 1519317094654}, {"current_trial": 174, "trialdata": {"rt": -1000, "trial_type": "single-audio", "word": "couch", "stimulus": "/static/audio/wordpool/COUCH.wav", "conditions": [24, 800, "a", 24000], "internal_node_id": "0.0-129.0", "trial": 4, "time_elapsed": 900341, "serialpos": 5, "key_press": -1, "wordID": 385, "type": "PRES_AUD", "trial_index": 174}, "uniqueid": "MTK2736:3OVR4I9USQQ93L8C9XGLN41033E4QH", "dateTime": 1519317096651}, {"current_trial": 175, "trialdata": {"rt": -1000, "trial_type": "single-audio", "word": "shelf", "stimulus": "/static/audio/wordpool/SHELF.wav", "conditions": [24, 800, "a", 24000], "internal_node_id": "0.0-130.0", "trial": 4, "time_elapsed": 902341, "serialpos": 6, "key_press": -1, "wordID": 1279, "type": "PRES_AUD", "trial_index": 175}, "uniqueid": "MTK2736:3OVR4I9USQQ93L8C9XGLN41033E4QH", "dateTime": 1519317098651}, {"current_trial": 176, "trialdata": {"rt": -1000, "trial_type": "single-audio", "word": "cupboard", "stimulus": "/static/audio/wordpool/CUPBOARD.wav", "conditions": [24, 800, "a", 24000], "internal_node_id": "0.0-131.0", "trial": 4, "time_elapsed": 903991, "serialpos": 7, "key_press": -1, "wordID": 424, "type": "PRES_AUD", "trial_index": 176}, "uniqueid": "MTK2736:3OVR4I9USQQ93L8C9XGLN41033E4QH", "dateTime": 1519317100301}, {"current_trial": 177, "trialdata": {"rt": -1000, "trial_type": "single-audio", "word": "truck", "stimulus": "/static/audio/wordpool/TRUCK.wav", "conditions": [24, 800, "a", 24000], "internal_node_id": "0.0-132.0", "trial": 4, "time_elapsed": 905763, "serialpos": 8, "key_press": -1, "wordID": 1511, "type": "PRES_AUD", "trial_index": 177}, "uniqueid": "MTK2736:3OVR4I9USQQ93L8C9XGLN41033E4QH", "dateTime": 1519317102073}, {"current_trial": 178, "trialdata": {"rt": -1000, "trial_type": "single-audio", "word": "wagon", "stimulus": "/static/audio/wordpool/WAGON.wav", "conditions": [24, 800, "a", 24000], "internal_node_id": "0.0-133.0", "trial": 4, "time_elapsed": 907514, "serialpos": 9, "key_press": -1, "wordID": 1577, "type": "PRES_AUD", "trial_index": 178}, "uniqueid": "MTK2736:3OVR4I9USQQ93L8C9XGLN41033E4QH", "dateTime": 1519317103824}, {"current_trial": 179, "trialdata": {"rt": -1000, "trial_type": "single-audio", "word": "scalpel", "stimulus": "/static/audio/wordpool/SCALPEL.wav", "conditions": [24, 800, "a", 24000], "internal_node_id": "0.0-134.0", "trial": 4, "time_elapsed": 909491, "serialpos": 10, "key_press": -1, "wordID": 1242, "type": "PRES_AUD", "trial_index": 179}, "uniqueid": "MTK2736:3OVR4I9USQQ93L8C9XGLN41033E4QH", "dateTime": 1519317105802}, {"current_trial": 180, "trialdata": {"rt": -1000, "trial_type": "single-audio", "word": "bunny", "stimulus": "/static/audio/wordpool/BUNNY.wav", "conditions": [24, 800, "a", 24000], "internal_node_id": "0.0-135.0", "trial": 4, "time_elapsed": 911355, "serialpos": 11, "key_press": -1, "wordID": 197, "type": "PRES_AUD", "trial_index": 180}, "uniqueid": "MTK2736:3OVR4I9USQQ93L8C9XGLN41033E4QH", "dateTime": 1519317107665}, {"current_trial": 181, "trialdata": {"rt": -1000, "trial_type": "single-audio", "word": "snake", "stimulus": "/static/audio/wordpool/SNAKE.wav", "conditions": [24, 800, "a", 24000], "internal_node_id": "0.0-136.0", "trial": 4, "time_elapsed": 912975, "serialpos": 12, "key_press": -1, "wordID": 1332, "type": "PRES_AUD", "trial_index": 181}, "uniqueid": "MTK2736:3OVR4I9USQQ93L8C9XGLN41033E4QH", "dateTime": 1519317109285}, {"current_trial": 182, "trialdata": {"rt": -1000, "trial_type": "single-audio", "word": "custard", "stimulus": "/static/audio/wordpool/CUSTARD.wav", "conditions": [24, 800, "a", 24000], "internal_node_id": "0.0-137.0", "trial": 4, "time_elapsed": 914822, "serialpos": 13, "key_press": -1, "wordID": 428, "type": "PRES_AUD", "trial_index": 182}, "uniqueid": "MTK2736:3OVR4I9USQQ93L8C9XGLN41033E4QH", "dateTime": 1519317111132}, {"current_trial": 183, "trialdata": {"rt": -1000, "trial_type": "single-audio", "word": "garbage", "stimulus": "/static/audio/wordpool/GARBAGE.wav", "conditions": [24, 800, "a", 24000], "internal_node_id": "0.0-138.0", "trial": 4, "time_elapsed": 916819, "serialpos": 14, "key_press": -1, "wordID": 621, "type": "PRES_AUD", "trial_index": 183}, "uniqueid": "MTK2736:3OVR4I9USQQ93L8C9XGLN41033E4QH", "dateTime": 1519317113129}, {"current_trial": 184, "trialdata": {"rt": -1000, "trial_type": "single-audio", "word": "onion", "stimulus": "/static/audio/wordpool/ONION.wav", "conditions": [24, 800, "a", 24000], "internal_node_id": "0.0-139.0", "trial": 4, "time_elapsed": 918693, "serialpos": 15, "key_press": -1, "wordID": 976, "type": "PRES_AUD", "trial_index": 184}, "uniqueid": "MTK2736:3OVR4I9USQQ93L8C9XGLN41033E4QH", "dateTime": 1519317115003}, {"current_trial": 185, "trialdata": {"rt": -1000, "trial_type": "single-audio", "word": "briefcase", "stimulus": "/static/audio/wordpool/BRIEFCASE.wav", "conditions": [24, 800, "a", 24000], "internal_node_id": "0.0-140.0", "trial": 4, "time_elapsed": 920558, "serialpos": 16, "key_press": -1, "wordID": 174, "type": "PRES_AUD", "trial_index": 185}, "uniqueid": "MTK2736:3OVR4I9USQQ93L8C9XGLN41033E4QH", "dateTime": 1519317116868}, {"current_trial": 186, "trialdata": {"rt": -1000, "trial_type": "single-audio", "word": "student", "stimulus": "/static/audio/wordpool/STUDENT.wav", "conditions": [24, 800, "a", 24000], "internal_node_id": "0.0-141.0", "trial": 4, "time_elapsed": 922366, "serialpos": 17, "key_press": -1, "wordID": 1394, "type": "PRES_AUD", "trial_index": 186}, "uniqueid": "MTK2736:3OVR4I9USQQ93L8C9XGLN41033E4QH", "dateTime": 1519317118677}, {"current_trial": 187, "trialdata": {"rt": -1000, "trial_type": "single-audio", "word": "college", "stimulus": "/static/audio/wordpool/COLLEGE.wav", "conditions": [24, 800, "a", 24000], "internal_node_id": "0.0-142.0", "trial": 4, "time_elapsed": 924168, "serialpos": 18, "key_press": -1, "wordID": 345, "type": "PRES_AUD", "trial_index": 187}, "uniqueid": "MTK2736:3OVR4I9USQQ93L8C9XGLN41033E4QH", "dateTime": 1519317120478}, {"current_trial": 188, "trialdata": {"rt": -1000, "trial_type": "single-audio", "word": "receipt", "stimulus": "/static/audio/wordpool/RECEIPT.wav", "conditions": [24, 800, "a", 24000], "internal_node_id": "0.0-143.0", "trial": 4, "time_elapsed": 925947, "serialpos": 19, "key_press": -1, "wordID": 1172, "type": "PRES_AUD", "trial_index": 188}, "uniqueid": "MTK2736:3OVR4I9USQQ93L8C9XGLN41033E4QH", "dateTime": 1519317122258}, {"current_trial": 189, "trialdata": {"rt": -1000, "trial_type": "single-audio", "word": "luggage", "stimulus": "/static/audio/wordpool/LUGGAGE.wav", "conditions": [24, 800, "a", 24000], "internal_node_id": "0.0-144.0", "trial": 4, "time_elapsed": 927788, "serialpos": 20, "key_press": -1, "wordID": 846, "type": "PRES_AUD", "trial_index": 189}, "uniqueid": "MTK2736:3OVR4I9USQQ93L8C9XGLN41033E4QH", "dateTime": 1519317124099}, {"current_trial": 190, "trialdata": {"rt": -1000, "trial_type": "single-audio", "word": "hatchet", "stimulus": "/static/audio/wordpool/HATCHET.wav", "conditions": [24, 800, "a", 24000], "internal_node_id": "0.0-145.0", "trial": 4, "time_elapsed": 929417, "serialpos": 21, "key_press": -1, "wordID": 690, "type": "PRES_AUD", "trial_index": 190}, "uniqueid": "MTK2736:3OVR4I9USQQ93L8C9XGLN41033E4QH", "dateTime": 1519317125728}, {"current_trial": 191, "trialdata": {"rt": -1000, "trial_type": "single-audio", "word": "tweezers", "stimulus": "/static/audio/wordpool/TWEEZERS.wav", "conditions": [24, 800, "a", 24000], "internal_node_id": "0.0-146.0", "trial": 4, "time_elapsed": 931228, "serialpos": 22, "key_press": -1, "wordID": 1525, "type": "PRES_AUD", "trial_index": 191}, "uniqueid": "MTK2736:3OVR4I9USQQ93L8C9XGLN41033E4QH", "dateTime": 1519317127538}, {"current_trial": 192, "trialdata": {"rt": -1000, "trial_type": "single-audio", "word": "cobra", "stimulus": "/static/audio/wordpool/COBRA.wav", "conditions": [24, 800, "a", 24000], "internal_node_id": "0.0-147.0", "trial": 4, "time_elapsed": 933015, "serialpos": 23, "key_press": -1, "wordID": 335, "type": "PRES_AUD", "trial_index": 192}, "uniqueid": "MTK2736:3OVR4I9USQQ93L8C9XGLN41033E4QH", "dateTime": 1519317129325}, {"current_trial": 193, "trialdata": {"rt": -1, "trial_type": "single-stim", "stimulus": "", "internal_node_id": "0.0-148.0-0.0", "time_elapsed": 934251, "key_press": -1, "type": "PRE_RECALL_DELAY", "trial_index": 193}, "uniqueid": "MTK2736:3OVR4I9USQQ93L8C9XGLN41033E4QH", "dateTime": 1519317130561}, {"current_trial": 194, "trialdata": {"rt": -1000, "trial_type": "single-audio", "stimulus": "/static/audio/400Hz.wav", "internal_node_id": "0.0-149.0", "time_elapsed": 934753, "key_press": -1, "type": "PRE_RECALL_ALERT", "trial_index": 194}, "uniqueid": "MTK2736:3OVR4I9USQQ93L8C9XGLN41033E4QH", "dateTime": 1519317131063}, {"current_trial": 195, "trialdata": {"rt": [4822, 8529, 15185, 19462, 24217, 28469, 31909, 42695, 53152], "recwords": ["tweezers", "college", "dashboard", "judge", "patient", "snake", "funny", "custard", "onion"], "key_times": [1837, 2186, 2443, 2924, 3500, 3863, 4131, 4551, 4822, 5970, 6399, 6684, 6841, 7049, 7441, 7792, 8529, 11017, 11190, 11410, 11768, 12448, 12699, 13050, 13414, 13689, 15185, 15940, 16495, 17276, 18051, 18230, 19462, 21216, 21466, 21930, 22199, 22672, 23023, 23352, 24217, 26222, 26382, 26660, 27367, 27596, 28469, 29994, 30361, 30803, 30969, 31450, 31909, 33590, 34111, 34671, 34841, 36674, 36845, 36995, 37180, 39737, 40031, 40504, 40806, 41070, 41314, 42313, 42695, 45065, 45285, 45664, 47580, 48372, 50167, 50658, 51460, 51981, 52181, 52446, 53152], "trial_type": "free-recall", "conditions": [24, 800, "a", 24000], "internal_node_id": "0.0-150.0-0.0", "key_presses": [84, 87, 69, 69, 90, 69, 82, 83, 32, 67, 79, 76, 76, 69, 71, 69, 13, 68, 65, 83, 72, 66, 79, 65, 82, 68, 13, 74, 85, 68, 71, 69, 13, 80, 65, 84, 73, 69, 78, 84, 13, 83, 78, 65, 75, 69, 13, 70, 85, 78, 78, 89, 32, 70, 85, 78, 78, 8, 8, 8, 8, 67, 85, 83, 84, 65, 82, 68, 13, 79, 73, 78, 8, 78, 8, 8, 78, 73, 79, 78, 13], "trial": 4, "time_elapsed": 994757, "type": "FREE_RECALL", "trial_index": 195}, "uniqueid": "MTK2736:3OVR4I9USQQ93L8C9XGLN41033E4QH", "dateTime": 1519317191071}, {"current_trial": 196, "trialdata": {"rt": 6614, "trial_type": "text", "internal_node_id": "0.0-151.0", "time_elapsed": 1003378, "key_press": 82, "type": "INSTRUCTIONS", "trial_index": 196}, "uniqueid": "MTK2736:3OVR4I9USQQ93L8C9XGLN41033E4QH", "dateTime": 1519317199688}, {"current_trial": 197, "trialdata": {"rt": [5839, 9053], "trial_type": "math-distractor", "key_times": [4680, 5171, 5839, 8201, 8603, 9053], "responses": ["16", "14"], "num2": [9, 3, 5], "num3": [4, 7, 9], "conditions": [12, 800, "a", 12000], "internal_node_id": "0.0-152.0", "key_presses": [49, 54, 13, 49, 52, 13], "trial": 5, "time_elapsed": 1017382, "type": "DISTRACTOR", "trial_index": 197, "num1": [3, 4, 6]}, "uniqueid": "MTK2736:3OVR4I9USQQ93L8C9XGLN41033E4QH", "dateTime": 1519317213692}, {"current_trial": 198, "trialdata": {"rt": -1, "trial_type": "single-stim", "stimulus": "<p id=\"stim\">10</p>", "internal_node_id": "0.0-153.0-0.0", "time_elapsed": 1020385, "key_press": -1, "trial_index": 198}, "uniqueid": "MTK2736:3OVR4I9USQQ93L8C9XGLN41033E4QH", "dateTime": 1519317216696}, {"current_trial": 199, "trialdata": {"rt": -1, "trial_type": "single-stim", "stimulus": "<p id=\"stim\">9</p>", "internal_node_id": "0.0-153.0-1.0", "time_elapsed": 1021387, "key_press": -1, "trial_index": 199}, "uniqueid": "MTK2736:3OVR4I9USQQ93L8C9XGLN41033E4QH", "dateTime": 1519317217697}, {"current_trial": 200, "trialdata": {"rt": -1, "trial_type": "single-stim", "stimulus": "<p id=\"stim\">8</p>", "internal_node_id": "0.0-153.0-2.0", "time_elapsed": 1022389, "key_press": -1, "trial_index": 200}, "uniqueid": "MTK2736:3OVR4I9USQQ93L8C9XGLN41033E4QH", "dateTime": 1519317218699}, {"current_trial": 201, "trialdata": {"rt": -1, "trial_type": "single-stim", "stimulus": "<p id=\"stim\">7</p>", "internal_node_id": "0.0-153.0-3.0", "time_elapsed": 1023391, "key_press": -1, "trial_index": 201}, "uniqueid": "MTK2736:3OVR4I9USQQ93L8C9XGLN41033E4QH", "dateTime": 1519317219701}, {"current_trial": 202, "trialdata": {"rt": -1, "trial_type": "single-stim", "stimulus": "<p id=\"stim\">6</p>", "internal_node_id": "0.0-153.0-4.0", "time_elapsed": 1024391, "key_press": -1, "trial_index": 202}, "uniqueid": "MTK2736:3OVR4I9USQQ93L8C9XGLN41033E4QH", "dateTime": 1519317220702}, {"current_trial": 203, "trialdata": {"rt": -1, "trial_type": "single-stim", "stimulus": "<p id=\"stim\">5</p>", "internal_node_id": "0.0-153.0-5.0", "time_elapsed": 1025395, "key_press": -1, "trial_index": 203}, "uniqueid": "MTK2736:3OVR4I9USQQ93L8C9XGLN41033E4QH", "dateTime": 1519317221705}, {"current_trial": 204, "trialdata": {"rt": -1, "trial_type": "single-stim", "stimulus": "<p id=\"stim\">4</p>", "internal_node_id": "0.0-153.0-6.0", "time_elapsed": 1026398, "key_press": -1, "trial_index": 204}, "uniqueid": "MTK2736:3OVR4I9USQQ93L8C9XGLN41033E4QH", "dateTime": 1519317222708}, {"current_trial": 205, "trialdata": {"rt": -1, "trial_type": "single-stim", "stimulus": "<p id=\"stim\">3</p>", "internal_node_id": "0.0-153.0-7.0", "time_elapsed": 1027401, "key_press": -1, "trial_index": 205}, "uniqueid": "MTK2736:3OVR4I9USQQ93L8C9XGLN41033E4QH", "dateTime": 1519317223711}, {"current_trial": 206, "trialdata": {"rt": -1, "trial_type": "single-stim", "stimulus": "<p id=\"stim\">2</p>", "internal_node_id": "0.0-153.0-8.0", "time_elapsed": 1028403, "key_press": -1, "trial_index": 206}, "uniqueid": "MTK2736:3OVR4I9USQQ93L8C9XGLN41033E4QH", "dateTime": 1519317224715}, {"current_trial": 207, "trialdata": {"rt": -1, "trial_type": "single-stim", "stimulus": "<p id=\"stim\">1</p>", "internal_node_id": "0.0-153.0-9.0", "time_elapsed": 1029405, "key_press": -1, "trial_index": 207}, "uniqueid": "MTK2736:3OVR4I9USQQ93L8C9XGLN41033E4QH", "dateTime": 1519317225715}, {"current_trial": 208, "trialdata": {"rt": -1, "trial_type": "single-stim", "stimulus": "<p id=\"stim\">+</p>", "internal_node_id": "0.0-154.0-0.0", "time_elapsed": 1030907, "key_press": -1, "type": "FIXATION", "trial_index": 208}, "uniqueid": "MTK2736:3OVR4I9USQQ93L8C9XGLN41033E4QH", "dateTime": 1519317227217}, {"current_trial": 209, "trialdata": {"rt": -1000, "trial_type": "single-audio", "word": "lava", "stimulus": "/static/audio/wordpool/LAVA.wav", "conditions": [12, 800, "a", 12000], "internal_node_id": "0.0-155.0", "trial": 5, "time_elapsed": 1032789, "serialpos": 0, "key_press": -1, "wordID": 803, "type": "PRES_AUD", "trial_index": 209}, "uniqueid": "MTK2736:3OVR4I9USQQ93L8C9XGLN41033E4QH", "dateTime": 1519317229099}, {"current_trial": 210, "trialdata": {"rt": -1000, "trial_type": "single-audio", "word": "lodge", "stimulus": "/static/audio/wordpool/LODGE.wav", "conditions": [12, 800, "a", 12000], "internal_node_id": "0.0-156.0", "trial": 5, "time_elapsed": 1034760, "serialpos": 1, "key_press": -1, "wordID": 838, "type": "PRES_AUD", "trial_index": 210}, "uniqueid": "MTK2736:3OVR4I9USQQ93L8C9XGLN41033E4QH", "dateTime": 1519317231071}, {"current_trial": 211, "trialdata": {"rt": -1000, "trial_type": "single-audio", "word": "flesh", "stimulus": "/static/audio/wordpool/FLESH.wav", "conditions": [12, 800, "a", 12000], "internal_node_id": "0.0-157.0", "trial": 5, "time_elapsed": 1036694, "serialpos": 2, "key_press": -1, "wordID": 578, "type": "PRES_AUD", "trial_index": 211}, "uniqueid": "MTK2736:3OVR4I9USQQ93L8C9XGLN41033E4QH", "dateTime": 1519317233004}, {"current_trial": 212, "trialdata": {"rt": -1000, "trial_type": "single-audio", "word": "scissors", "stimulus": "/static/audio/wordpool/SCISSORS.wav", "conditions": [12, 800, "a", 12000], "internal_node_id": "0.0-158.0", "trial": 5, "time_elapsed": 1038495, "serialpos": 3, "key_press": -1, "wordID": 1249, "type": "PRES_AUD", "trial_index": 212}, "uniqueid": "MTK2736:3OVR4I9USQQ93L8C9XGLN41033E4QH", "dateTime": 1519317234805}, {"current_trial": 213, "trialdata": {"rt": -1000, "trial_type": "single-audio", "word": "bathtub", "stimulus": "/static/audio/wordpool/BATHTUB.wav", "conditions": [12, 800, "a", 12000], "internal_node_id": "0.0-159.0", "trial": 5, "time_elapsed": 1040418, "serialpos": 4, "key_press": -1, "wordID": 99, "type": "PRES_AUD", "trial_index": 213}, "uniqueid": "MTK2736:3OVR4I9USQQ93L8C9XGLN41033E4QH", "dateTime": 1519317236728}, {"current_trial": 214, "trialdata": {"rt": -1000, "trial_type": "single-audio", "word": "fruit", "stimulus": "/static/audio/wordpool/FRUIT.wav", "conditions": [12, 800, "a", 12000], "internal_node_id": "0.0-160.0", "trial": 5, "time_elapsed": 1042271, "serialpos": 5, "key_press": -1, "wordID": 609, "type": "PRES_AUD", "trial_index": 214}, "uniqueid": "MTK2736:3OVR4I9USQQ93L8C9XGLN41033E4QH", "dateTime": 1519317238581}, {"current_trial": 215, "trialdata": {"rt": -1000, "trial_type": "single-audio", "word": "forehead", "stimulus": "/static/audio/wordpool/FOREHEAD.wav", "conditions": [12, 800, "a", 12000], "internal_node_id": "0.0-161.0", "trial": 5, "time_elapsed": 1043994, "serialpos": 6, "key_press": -1, "wordID": 591, "type": "PRES_AUD", "trial_index": 215}, "uniqueid": "MTK2736:3OVR4I9USQQ93L8C9XGLN41033E4QH", "dateTime": 1519317240305}, {"current_trial": 216, "trialdata": {"rt": -1000, "trial_type": "single-audio", "word": "seal", "stimulus": "/static/audio/wordpool/SEAL.wav", "conditions": [12, 800, "a", 12000], "internal_node_id": "0.0-162.0", "trial": 5, "time_elapsed": 1045763, "serialpos": 7, "key_press": -1, "wordID": 1261, "type": "PRES_AUD", "trial_index": 216}, "uniqueid": "MTK2736:3OVR4I9USQQ93L8C9XGLN41033E4QH", "dateTime": 1519317242074}, {"current_trial": 217, "trialdata": {"rt": -1000, "trial_type": "single-audio", "word": "lettuce", "stimulus": "/static/audio/wordpool/LETTUCE.wav", "conditions": [12, 800, "a", 12000], "internal_node_id": "0.0-163.0", "trial": 5, "time_elapsed": 1047440, "serialpos": 8, "key_press": -1, "wordID": 813, "type": "PRES_AUD", "trial_index": 217}, "uniqueid": "MTK2736:3OVR4I9USQQ93L8C9XGLN41033E4QH", "dateTime": 1519317243751}, {"current_trial": 218, "trialdata": {"rt": -1000, "trial_type": "single-audio", "word": "pizza", "stimulus": "/static/audio/wordpool/PIZZA.wav", "conditions": [12, 800, "a", 12000], "internal_node_id": "0.0-164.0", "trial": 5, "time_elapsed": 1049260, "serialpos": 9, "key_press": -1, "wordID": 1078, "type": "PRES_AUD", "trial_index": 218}, "uniqueid": "MTK2736:3OVR4I9USQQ93L8C9XGLN41033E4QH", "dateTime": 1519317245570}, {"current_trial": 219, "trialdata": {"rt": -1000, "trial_type": "single-audio", "word": "pasta", "stimulus": "/static/audio/wordpool/PASTA.wav", "conditions": [12, 800, "a", 12000], "internal_node_id": "0.0-165.0", "trial": 5, "time_elapsed": 1051046, "serialpos": 10, "key_press": -1, "wordID": 1020, "type": "PRES_AUD", "trial_index": 219}, "uniqueid": "MTK2736:3OVR4I9USQQ93L8C9XGLN41033E4QH", "dateTime": 1519317247356}, {"current_trial": 220, "trialdata": {"rt": -1000, "trial_type": "single-audio", "word": "finger", "stimulus": "/static/audio/wordpool/FINGER.wav", "conditions": [12, 800, "a", 12000], "internal_node_id": "0.0-166.0", "trial": 5, "time_elapsed": 1052929, "serialpos": 11, "key_press": -1, "wordID": 566, "type": "PRES_AUD", "trial_index": 220}, "uniqueid": "MTK2736:3OVR4I9USQQ93L8C9XGLN41033E4QH", "dateTime": 1519317249239}, {"current_trial": 221, "trialdata": {"rt": -1, "trial_type": "single-stim", "stimulus": "", "internal_node_id": "0.0-167.0-0.0", "time_elapsed": 1054328, "key_press": -1, "type": "PRE_RECALL_DELAY", "trial_index": 221}, "uniqueid": "MTK2736:3OVR4I9USQQ93L8C9XGLN41033E4QH", "dateTime": 1519317250639}, {"current_trial": 222, "trialdata": {"rt": -1000, "trial_type": "single-audio", "stimulus": "/static/audio/400Hz.wav", "internal_node_id": "0.0-168.0", "time_elapsed": 1054830, "key_press": -1, "type": "PRE_RECALL_ALERT", "trial_index": 222}, "uniqueid": "MTK2736:3OVR4I9USQQ93L8C9XGLN41033E4QH", "dateTime": 1519317251140}, {"current_trial": 223, "trialdata": {"rt": [5763, 8339, 11524, 18449, 23723, 37920, 44255, 48350, 51918, 55810], "recwords": ["finger", "lettuce", "pasta", "lava", "bathtub", "scissors", "forehead", "fruit", "flesh", "lodge"], "key_times": [3536, 4003, 4293, 4744, 5308, 5560, 5763, 6386, 6614, 6948, 7108, 7370, 7761, 8049, 8339, 8996, 9239, 9551, 10035, 10710, 11524, 16485, 17097, 17456, 17902, 18449, 20833, 21029, 21691, 21874, 22416, 22730, 23081, 23723, 25327, 25781, 26174, 26349, 26619, 27353, 29526, 31611, 31790, 31980, 32158, 32603, 33088, 33842, 34253, 34734, 34914, 36079, 36441, 37528, 37920, 39790, 40023, 40310, 41648, 41930, 42384, 42858, 43022, 43356, 43645, 44255, 46030, 46433, 46902, 47194, 47560, 48350, 49608, 49917, 50213, 50561, 51270, 51918, 53876, 54142, 54420, 54737, 55170, 55810], "trial_type": "free-recall", "conditions": [12, 800, "a", 12000], "internal_node_id": "0.0-169.0-0.0", "key_presses": [70, 73, 78, 71, 69, 82, 32, 76, 69, 84, 84, 85, 67, 69, 32, 80, 65, 83, 84, 65, 13, 76, 65, 86, 65, 13, 66, 65, 84, 72, 84, 85, 66, 13, 83, 73, 83, 83, 79, 82, 220, 8, 8, 8, 8, 8, 8, 67, 73, 83, 83, 79, 82, 83, 13, 70, 79, 69, 8, 82, 69, 72, 69, 65, 68, 13, 70, 82, 85, 73, 84, 13, 70, 76, 69, 83, 72, 13, 76, 79, 68, 71, 69, 13], "trial": 5, "time_elapsed": 1114834, "type": "FREE_RECALL", "trial_index": 223}, "uniqueid": "MTK2736:3OVR4I9USQQ93L8C9XGLN41033E4QH", "dateTime": 1519317311150}, {"current_trial": 224, "trialdata": {"rt": 4136, "trial_type": "text", "internal_node_id": "0.0-170.0", "time_elapsed": 1120977, "key_press": 13, "type": "INSTRUCTIONS", "trial_index": 224}, "uniqueid": "MTK2736:3OVR4I9USQQ93L8C9XGLN41033E4QH", "dateTime": 1519317317287}, {"current_trial": 225, "trialdata": {"rt": [3195, 6922, 9481, 14266, 17150, 20448], "trial_type": "math-distractor", "key_times": [2298, 2598, 3195, 5880, 6302, 6922, 9175, 9481, 13406, 13843, 14266, 16177, 16800, 17150, 19416, 19896, 20448, 23567], "responses": ["20", "18", "7", "16", "14", "15"], "num2": [7, 6, 1, 9, 6, 9, 2], "num3": [5, 5, 3, 2, 5, 1, 1], "conditions": [12, 1600, "a", 24000], "internal_node_id": "0.0-171.0", "key_presses": [50, 48, 13, 49, 56, 13, 55, 13, 49, 54, 13, 49, 52, 13, 49, 53, 13, 53], "trial": 6, "time_elapsed": 1146981, "type": "DISTRACTOR", "trial_index": 225, "num1": [8, 7, 3, 5, 3, 5, 3]}, "uniqueid": "MTK2736:3OVR4I9USQQ93L8C9XGLN41033E4QH", "dateTime": 1519317343291}, {"current_trial": 226, "trialdata": {"rt": -1, "trial_type": "single-stim", "stimulus": "<p id=\"stim\">10</p>", "internal_node_id": "0.0-172.0-0.0", "time_elapsed": 1149985, "key_press": -1, "trial_index": 226}, "uniqueid": "MTK2736:3OVR4I9USQQ93L8C9XGLN41033E4QH", "dateTime": 1519317346295}, {"current_trial": 227, "trialdata": {"rt": -1, "trial_type": "single-stim", "stimulus": "<p id=\"stim\">9</p>", "internal_node_id": "0.0-172.0-1.0", "time_elapsed": 1150988, "key_press": -1, "trial_index": 227}, "uniqueid": "MTK2736:3OVR4I9USQQ93L8C9XGLN41033E4QH", "dateTime": 1519317347298}, {"current_trial": 228, "trialdata": {"rt": -1, "trial_type": "single-stim", "stimulus": "<p id=\"stim\">8</p>", "internal_node_id": "0.0-172.0-2.0", "time_elapsed": 1151989, "key_press": -1, "trial_index": 228}, "uniqueid": "MTK2736:3OVR4I9USQQ93L8C9XGLN41033E4QH", "dateTime": 1519317348299}, {"current_trial": 229, "trialdata": {"rt": -1, "trial_type": "single-stim", "stimulus": "<p id=\"stim\">7</p>", "internal_node_id": "0.0-172.0-3.0", "time_elapsed": 1152990, "key_press": -1, "trial_index": 229}, "uniqueid": "MTK2736:3OVR4I9USQQ93L8C9XGLN41033E4QH", "dateTime": 1519317349300}, {"current_trial": 230, "trialdata": {"rt": -1, "trial_type": "single-stim", "stimulus": "<p id=\"stim\">6</p>", "internal_node_id": "0.0-172.0-4.0", "time_elapsed": 1153993, "key_press": -1, "trial_index": 230}, "uniqueid": "MTK2736:3OVR4I9USQQ93L8C9XGLN41033E4QH", "dateTime": 1519317350303}, {"current_trial": 231, "trialdata": {"rt": -1, "trial_type": "single-stim", "stimulus": "<p id=\"stim\">5</p>", "internal_node_id": "0.0-172.0-5.0", "time_elapsed": 1154994, "key_press": -1, "trial_index": 231}, "uniqueid": "MTK2736:3OVR4I9USQQ93L8C9XGLN41033E4QH", "dateTime": 1519317351304}, {"current_trial": 232, "trialdata": {"rt": -1, "trial_type": "single-stim", "stimulus": "<p id=\"stim\">4</p>", "internal_node_id": "0.0-172.0-6.0", "time_elapsed": 1155998, "key_press": -1, "trial_index": 232}, "uniqueid": "MTK2736:3OVR4I9USQQ93L8C9XGLN41033E4QH", "dateTime": 1519317352308}, {"current_trial": 233, "trialdata": {"rt": -1, "trial_type": "single-stim", "stimulus": "<p id=\"stim\">3</p>", "internal_node_id": "0.0-172.0-7.0", "time_elapsed": 1157000, "key_press": -1, "trial_index": 233}, "uniqueid": "MTK2736:3OVR4I9USQQ93L8C9XGLN41033E4QH", "dateTime": 1519317353310}, {"current_trial": 234, "trialdata": {"rt": -1, "trial_type": "single-stim", "stimulus": "<p id=\"stim\">2</p>", "internal_node_id": "0.0-172.0-8.0", "time_elapsed": 1158002, "key_press": -1, "trial_index": 234}, "uniqueid": "MTK2736:3OVR4I9USQQ93L8C9XGLN41033E4QH", "dateTime": 1519317354312}, {"current_trial": 235, "trialdata": {"rt": -1, "trial_type": "single-stim", "stimulus": "<p id=\"stim\">1</p>", "internal_node_id": "0.0-172.0-9.0", "time_elapsed": 1159005, "key_press": -1, "trial_index": 235}, "uniqueid": "MTK2736:3OVR4I9USQQ93L8C9XGLN41033E4QH", "dateTime": 1519317355315}, {"current_trial": 236, "trialdata": {"rt": -1, "trial_type": "single-stim", "stimulus": "<p id=\"stim\">+</p>", "internal_node_id": "0.0-173.0-0.0", "time_elapsed": 1160506, "key_press": -1, "type": "FIXATION", "trial_index": 236}, "uniqueid": "MTK2736:3OVR4I9USQQ93L8C9XGLN41033E4QH", "dateTime": 1519317356816}, {"current_trial": 237, "trialdata": {"rt": -1000, "trial_type": "single-audio", "word": "robber", "stimulus": "/static/audio/wordpool/ROBBER.wav", "conditions": [12, 1600, "a", 24000], "internal_node_id": "0.0-174.0", "trial": 6, "time_elapsed": 1163079, "serialpos": 0, "key_press": -1, "wordID": 1196, "type": "PRES_AUD", "trial_index": 237}, "uniqueid": "MTK2736:3OVR4I9USQQ93L8C9XGLN41033E4QH", "dateTime": 1519317359390}, {"current_trial": 238, "trialdata": {"rt": -1000, "trial_type": "single-audio", "word": "boyfriend", "stimulus": "/static/audio/wordpool/BOYFRIEND.wav", "conditions": [12, 1600, "a", 24000], "internal_node_id": "0.0-175.0", "trial": 6, "time_elapsed": 1165530, "serialpos": 1, "key_press": -1, "wordID": 161, "type": "PRES_AUD", "trial_index": 238}, "uniqueid": "MTK2736:3OVR4I9USQQ93L8C9XGLN41033E4QH", "dateTime": 1519317361840}, {"current_trial": 239, "trialdata": {"rt": -1000, "trial_type": "single-audio", "word": "egypt", "stimulus": "/static/audio/wordpool/EGYPT.wav", "conditions": [12, 1600, "a", 24000], "internal_node_id": "0.0-176.0", "trial": 6, "time_elapsed": 1168029, "serialpos": 2, "key_press": -1, "wordID": 518, "type": "PRES_AUD", "trial_index": 239}, "uniqueid": "MTK2736:3OVR4I9USQQ93L8C9XGLN41033E4QH", "dateTime": 1519317364339}, {"current_trial": 240, "trialdata": {"rt": -1000, "trial_type": "single-audio", "word": "wardrobe", "stimulus": "/static/audio/wordpool/WARDROBE.wav", "conditions": [12, 1600, "a", 24000], "internal_node_id": "0.0-177.0", "trial": 6, "time_elapsed": 1170691, "serialpos": 3, "key_press": -1, "wordID": 1586, "type": "PRES_AUD", "trial_index": 240}, "uniqueid": "MTK2736:3OVR4I9USQQ93L8C9XGLN41033E4QH", "dateTime": 1519317367001}, {"current_trial": 241, "trialdata": {"rt": -1000, "trial_type": "single-audio", "word": "costume", "stimulus": "/static/audio/wordpool/COSTUME.wav", "conditions": [12, 1600, "a", 24000], "internal_node_id": "0.0-178.0", "trial": 6, "time_elapsed": 1173319, "serialpos": 4, "key_press": -1, "wordID": 382, "type": "PRES_AUD", "trial_index": 241}, "uniqueid": "MTK2736:3OVR4I9USQQ93L8C9XGLN41033E4QH", "dateTime": 1519317369629}, {"current_trial": 242, "trialdata": {"rt": -1000, "trial_type": "single-audio", "word": "europe", "stimulus": "/static/audio/wordpool/EUROPE.wav", "conditions": [12, 1600, "a", 24000], "internal_node_id": "0.0-179.0", "trial": 6, "time_elapsed": 1175903, "serialpos": 5, "key_press": -1, "wordID": 540, "type": "PRES_AUD", "trial_index": 242}, "uniqueid": "MTK2736:3OVR4I9USQQ93L8C9XGLN41033E4QH", "dateTime": 1519317372213}, {"current_trial": 243, "trialdata": {"rt": -1000, "trial_type": "single-audio", "word": "skillet", "stimulus": "/static/audio/wordpool/SKILLET.wav", "conditions": [12, 1600, "a", 24000], "internal_node_id": "0.0-180.0", "trial": 6, "time_elapsed": 1178313, "serialpos": 6, "key_press": -1, "wordID": 1316, "type": "PRES_AUD", "trial_index": 243}, "uniqueid": "MTK2736:3OVR4I9USQQ93L8C9XGLN41033E4QH", "dateTime": 1519317374623}, {"current_trial": 244, "trialdata": {"rt": -1000, "trial_type": "single-audio", "word": "loft", "stimulus": "/static/audio/wordpool/LOFT.wav", "conditions": [12, 1600, "a", 24000], "internal_node_id": "0.0-181.0", "trial": 6, "time_elapsed": 1180913, "serialpos": 7, "key_press": -1, "wordID": 839, "type": "PRES_AUD", "trial_index": 244}, "uniqueid": "MTK2736:3OVR4I9USQQ93L8C9XGLN41033E4QH", "dateTime": 1519317377223}, {"current_trial": 245, "trialdata": {"rt": -1000, "trial_type": "single-audio", "word": "dustpan", "stimulus": "/static/audio/wordpool/DUSTPAN.wav", "conditions": [12, 1600, "a", 24000], "internal_node_id": "0.0-182.0", "trial": 6, "time_elapsed": 1183528, "serialpos": 8, "key_press": -1, "wordID": 508, "type": "PRES_AUD", "trial_index": 245}, "uniqueid": "MTK2736:3OVR4I9USQQ93L8C9XGLN41033E4QH", "dateTime": 1519317379838}, {"current_trial": 246, "trialdata": {"rt": -1000, "trial_type": "single-audio", "word": "apron", "stimulus": "/static/audio/wordpool/APRON.wav", "conditions": [12, 1600, "a", 24000], "internal_node_id": "0.0-183.0", "trial": 6, "time_elapsed": 1186260, "serialpos": 9, "key_press": -1, "wordID": 34, "type": "PRES_AUD", "trial_index": 246}, "uniqueid": "MTK2736:3OVR4I9USQQ93L8C9XGLN41033E4QH", "dateTime": 1519317382570}, {"current_trial": 247, "trialdata": {"rt": -1000, "trial_type": "single-audio", "word": "blouse", "stimulus": "/static/audio/wordpool/BLOUSE.wav", "conditions": [12, 1600, "a", 24000], "internal_node_id": "0.0-184.0", "trial": 6, "time_elapsed": 1188962, "serialpos": 10, "key_press": -1, "wordID": 138, "type": "PRES_AUD", "trial_index": 247}, "uniqueid": "MTK2736:3OVR4I9USQQ93L8C9XGLN41033E4QH", "dateTime": 1519317385272}, {"current_trial": 248, "trialdata": {"rt": -1000, "trial_type": "single-audio", "word": "hostess", "stimulus": "/static/audio/wordpool/HOSTESS.wav", "conditions": [12, 1600, "a", 24000], "internal_node_id": "0.0-185.0", "trial": 6, "time_elapsed": 1191380, "serialpos": 11, "key_press": -1, "wordID": 722, "type": "PRES_AUD", "trial_index": 248}, "uniqueid": "MTK2736:3OVR4I9USQQ93L8C9XGLN41033E4QH", "dateTime": 1519317387690}, {"current_trial": 249, "trialdata": {"rt": -1, "trial_type": "single-stim", "stimulus": "", "internal_node_id": "0.0-186.0-0.0", "time_elapsed": 1192712, "key_press": -1, "type": "PRE_RECALL_DELAY", "trial_index": 249}, "uniqueid": "MTK2736:3OVR4I9USQQ93L8C9XGLN41033E4QH", "dateTime": 1519317389022}, {"current_trial": 250, "trialdata": {"rt": -1000, "trial_type": "single-audio", "stimulus": "/static/audio/400Hz.wav", "internal_node_id": "0.0-187.0", "time_elapsed": 1193214, "key_press": -1, "type": "PRE_RECALL_ALER