{"assignmentId": "39ASUFLU6YEB4K6HKHNQQY9KD2VXER", "workerId": "MTK2916", "questiondata": {"origin": "United States", "strat-rehearsal": "26", "marital": "Single", "education": "Some college", "ethnicity": "Hispanic", "color_depth": 24, "distracted": "No", "wrote-notes": "No", "strat-other": "I would repeat all the words aloud after hearing them", "screen_width": 2560, "avail_screen_width": 2501, "avail_screen_height": 1440, "strat-image": "57", "language": "English", "gender": "Male", "age": "25", "gender_other": "", "race": ["White"], "strat-categorize": "92", "pixel_depth": 24, "strat-spatial": "13", "strat-story": "15", "race_other": "", "screen_height": 1440}, "bonus": 0, "hitId": "34KYK9TV2RF3EGA4QEAB1YQNAE6SBK", "counterbalance": 2314, "useragent": "Mozilla/5.0 (Windows NT 6.1; Win64; x64) AppleWebKit/537.36 (KHTML, like Gecko) Chrome/63.0.3239.132 Safari/537.36", "eventdata": [{"eventtype": "initialized", "interval": 0, "value": null, "timestamp": 1519587081140}, {"eventtype": "window_resize", "interval": 0, "value": [2501, 1386], "timestamp": 1519587081140}, {"eventtype": "window_resize", "interval": 3850, "value": [2509, 1380], "timestamp": 1519587084990}, {"eventtype": "focus", "interval": 5497, "value": "off", "timestamp": 1519587090487}, {"eventtype": "focus", "interval": 806, "value": "on", "timestamp": 1519587091293}, {"eventtype": "focus", "interval": 59597, "value": "off", "timestamp": 1519587150890}, {"eventtype": "focus", "interval": 8985, "value": "on", "timestamp": 1519587159875}, {"eventtype": "window_resize", "interval": 2746818, "value": [2501, 1386], "timestamp": 1519589906693}], "data": [{"current_trial": 0, "trialdata": {"rt": 2257, "trial_type": "text", "internal_node_id": "0.0-0.0", "time_elapsed": 2258, "key_press": 32, "type": "INSTRUCTIONS", "trial_index": 0}, "uniqueid": "MTK2916:39ASUFLU6YEB4K6HKHNQQY9KD2VXER", "dateTime": 1519587096158}, {"current_trial": 1, "trialdata": {"rt": 45326, "trial_type": "text", "internal_node_id": "0.0-1.0", "time_elapsed": 47586, "key_press": 32, "type": "INSTRUCTIONS", "trial_index": 1}, "uniqueid": "MTK2916:39ASUFLU6YEB4K6HKHNQQY9KD2VXER", "dateTime": 1519587141485}, {"current_trial": 2, "trialdata": {"rt": [27866], "trial_type": "audio-test", "responses": ["ocean"], "internal_node_id": "0.0-2.0", "time_elapsed": 75459, "type": "AUDIO_TEST", "trial_index": 2}, "uniqueid": "MTK2916:39ASUFLU6YEB4K6HKHNQQY9KD2VXER", "dateTime": 1519587169358}, {"current_trial": 3, "trialdata": {"rt": [4148], "trial_type": "audio-test", "responses": ["crystal"], "internal_node_id": "0.0-3.0", "time_elapsed": 79610, "type": "AUDIO_TEST", "trial_index": 3}, "uniqueid": "MTK2916:39ASUFLU6YEB4K6HKHNQQY9KD2VXER", "dateTime": 1519587173509}, {"current_trial": 4, "trialdata": {"rt": [3156], "trial_type": "audio-test", "responses": ["spice"], "internal_node_id": "0.0-4.0", "time_elapsed": 82770, "type": "AUDIO_TEST", "trial_index": 4}, "uniqueid": "MTK2916:39ASUFLU6YEB4K6HKHNQQY9KD2VXER", "dateTime": 1519587176669}, {"current_trial": 5, "trialdata": {"rt": 30522, "trial_type": "survey-text", "responses": "{\"Q0\":\"3:00 A.N.\",\"Q1\":\"11:00 A.M.\",\"Q2\":\"3\"}", "internal_node_id": "0.0-5.0", "time_elapsed": 114044, "type": "SLEEP_SURVEY", "trial_index": 5}, "uniqueid": "MTK2916:39ASUFLU6YEB4K6HKHNQQY9KD2VXER", "dateTime": 1519587207943}, {"current_trial": 6, "trialdata": {"rt": 107436, "trial_type": "text", "internal_node_id": "0.0-6.0", "time_elapsed": 222479, "key_press": 32, "type": "INSTRUCTIONS", "trial_index": 6}, "uniqueid": "MTK2916:39ASUFLU6YEB4K6HKHNQQY9KD2VXER", "dateTime": 1519587316378}, {"current_trial": 7, "trialdata": {"rt": 4299, "trial_type": "text", "internal_node_id": "0.0-7.0", "time_elapsed": 227279, "key_press": 32, "type": "INSTRUCTIONS", "trial_index": 7}, "uniqueid": "MTK2916:39ASUFLU6YEB4K6HKHNQQY9KD2VXER", "dateTime": 1519587321178}, {"current_trial": 8, "trialdata": {"rt": 2419, "trial_type": "text", "internal_node_id": "0.0-8.0", "time_elapsed": 230198, "key_press": 32, "type": "INSTRUCTIONS", "trial_index": 8}, "uniqueid": "MTK2916:39ASUFLU6YEB4K6HKHNQQY9KD2VXER", "dateTime": 1519587324098}, {"current_trial": 9, "trialdata": {"rt": [4332, 7510, 12492], "trial_type": "math-distractor", "key_times": [3813, 4332, 7092, 7510, 11604, 11700, 12492], "responses": ["8", "8", "14"], "num2": [2, 4, 5, 3], "num3": [5, 1, 5, 6], "conditions": [18, 1200, "a", 18000], "internal_node_id": "0.0-9.0", "key_presses": [56, 13, 56, 13, 49, 52, 13], "trial": 0, "time_elapsed": 249233, "type": "DISTRACTOR", "trial_index": 9, "num1": [1, 3, 4, 8]}, "uniqueid": "MTK2916:39ASUFLU6YEB4K6HKHNQQY9KD2VXER", "dateTime": 1519587343133}, {"current_trial": 10, "trialdata": {"rt": -1, "trial_type": "single-stim", "stimulus": "<p id=\"stim\">10</p>", "internal_node_id": "0.0-10.0-0.0", "time_elapsed": 252234, "key_press": -1, "trial_index": 10}, "uniqueid": "MTK2916:39ASUFLU6YEB4K6HKHNQQY9KD2VXER", "dateTime": 1519587346133}, {"current_trial": 11, "trialdata": {"rt": -1, "trial_type": "single-stim", "stimulus": "<p id=\"stim\">9</p>", "internal_node_id": "0.0-10.0-1.0", "time_elapsed": 253234, "key_press": -1, "trial_index": 11}, "uniqueid": "MTK2916:39ASUFLU6YEB4K6HKHNQQY9KD2VXER", "dateTime": 1519587347133}, {"current_trial": 12, "trialdata": {"rt": -1, "trial_type": "single-stim", "stimulus": "<p id=\"stim\">8</p>", "internal_node_id": "0.0-10.0-2.0", "time_elapsed": 254234, "key_press": -1, "trial_index": 12}, "uniqueid": "MTK2916:39ASUFLU6YEB4K6HKHNQQY9KD2VXER", "dateTime": 1519587348133}, {"current_trial": 13, "trialdata": {"rt": -1, "trial_type": "single-stim", "stimulus": "<p id=\"stim\">7</p>", "internal_node_id": "0.0-10.0-3.0", "time_elapsed": 255235, "key_press": -1, "trial_index": 13}, "uniqueid": "MTK2916:39ASUFLU6YEB4K6HKHNQQY9KD2VXER", "dateTime": 1519587349134}, {"current_trial": 14, "trialdata": {"rt": 994, "trial_type": "single-stim", "stimulus": "<p id=\"stim\">6</p>", "internal_node_id": "0.0-10.0-4.0", "time_elapsed": 256235, "key_press": 32, "trial_index": 14}, "uniqueid": "MTK2916:39ASUFLU6YEB4K6HKHNQQY9KD2VXER", "dateTime": 1519587350134}, {"current_trial": 15, "trialdata": {"rt": 634, "trial_type": "single-stim", "stimulus": "<p id=\"stim\">5</p>", "internal_node_id": "0.0-10.0-5.0", "time_elapsed": 257235, "key_press": 49, "trial_index": 15}, "uniqueid": "MTK2916:39ASUFLU6YEB4K6HKHNQQY9KD2VXER", "dateTime": 1519587351134}, {"current_trial": 16, "trialdata": {"rt": -1, "trial_type": "single-stim", "stimulus": "<p id=\"stim\">4</p>", "internal_node_id": "0.0-10.0-6.0", "time_elapsed": 258235, "key_press": -1, "trial_index": 16}, "uniqueid": "MTK2916:39ASUFLU6YEB4K6HKHNQQY9KD2VXER", "dateTime": 1519587352134}, {"current_trial": 17, "trialdata": {"rt": -1, "trial_type": "single-stim", "stimulus": "<p id=\"stim\">3</p>", "internal_node_id": "0.0-10.0-7.0", "time_elapsed": 259235, "key_press": -1, "trial_index": 17}, "uniqueid": "MTK2916:39ASUFLU6YEB4K6HKHNQQY9KD2VXER", "dateTime": 1519587353134}, {"current_trial": 18, "trialdata": {"rt": -1, "trial_type": "single-stim", "stimulus": "<p id=\"stim\">2</p>", "internal_node_id": "0.0-10.0-8.0", "time_elapsed": 260235, "key_press": -1, "trial_index": 18}, "uniqueid": "MTK2916:39ASUFLU6YEB4K6HKHNQQY9KD2VXER", "dateTime": 1519587354134}, {"current_trial": 19, "trialdata": {"rt": -1, "trial_type": "single-stim", "stimulus": "<p id=\"stim\">1</p>", "internal_node_id": "0.0-10.0-9.0", "time_elapsed": 261235, "key_press": -1, "trial_index": 19}, "uniqueid": "MTK2916:39ASUFLU6YEB4K6HKHNQQY9KD2VXER", "dateTime": 1519587355134}, {"current_trial": 20, "trialdata": {"rt": -1, "trial_type": "single-stim", "stimulus": "<p id=\"stim\">+</p>", "internal_node_id": "0.0-11.0-0.0", "time_elapsed": 262735, "key_press": -1, "type": "FIXATION", "trial_index": 20}, "uniqueid": "MTK2916:39ASUFLU6YEB4K6HKHNQQY9KD2VXER", "dateTime": 1519587356634}, {"current_trial": 21, "trialdata": {"rt": -1000, "trial_type": "single-audio", "word": "taxi", "stimulus": "/static/audio/wordpool/TAXI.wav", "conditions": [18, 1200, "a", 18000], "internal_node_id": "0.0-12.0", "trial": 0, "time_elapsed": 264791, "serialpos": 0, "key_press": -1, "wordID": 1437, "type": "PRES_AUD", "trial_index": 21}, "uniqueid": "MTK2916:39ASUFLU6YEB4K6HKHNQQY9KD2VXER", "dateTime": 1519587358690}, {"current_trial": 22, "trialdata": {"rt": -1000, "trial_type": "single-audio", "word": "airport", "stimulus": "/static/audio/wordpool/AIRPORT.wav", "conditions": [18, 1200, "a", 18000], "internal_node_id": "0.0-13.0", "trial": 0, "time_elapsed": 267119, "serialpos": 1, "key_press": -1, "wordID": 12, "type": "PRES_AUD", "trial_index": 22}, "uniqueid": "MTK2916:39ASUFLU6YEB4K6HKHNQQY9KD2VXER", "dateTime": 1519587361018}, {"current_trial": 23, "trialdata": {"rt": -1000, "trial_type": "single-audio", "word": "match", "stimulus": "/static/audio/wordpool/MATCH.wav", "conditions": [18, 1200, "a", 18000], "internal_node_id": "0.0-14.0", "trial": 0, "time_elapsed": 269479, "serialpos": 2, "key_press": -1, "wordID": 877, "type": "PRES_AUD", "trial_index": 23}, "uniqueid": "MTK2916:39ASUFLU6YEB4K6HKHNQQY9KD2VXER", "dateTime": 1519587363378}, {"current_trial": 24, "trialdata": {"rt": -1000, "trial_type": "single-audio", "word": "window", "stimulus": "/static/audio/wordpool/WINDOW.wav", "conditions": [18, 1200, "a", 18000], "internal_node_id": "0.0-15.0", "trial": 0, "time_elapsed": 271498, "serialpos": 3, "key_press": -1, "wordID": 1610, "type": "PRES_AUD", "trial_index": 24}, "uniqueid": "MTK2916:39ASUFLU6YEB4K6HKHNQQY9KD2VXER", "dateTime": 1519587365397}, {"current_trial": 25, "trialdata": {"rt": -1000, "trial_type": "single-audio", "word": "flipper", "stimulus": "/static/audio/wordpool/FLIPPER.wav", "conditions": [18, 1200, "a", 18000], "internal_node_id": "0.0-16.0", "trial": 0, "time_elapsed": 273570, "serialpos": 4, "key_press": -1, "wordID": 579, "type": "PRES_AUD", "trial_index": 25}, "uniqueid": "MTK2916:39ASUFLU6YEB4K6HKHNQQY9KD2VXER", "dateTime": 1519587367469}, {"current_trial": 26, "trialdata": {"rt": -1000, "trial_type": "single-audio", "word": "sheriff", "stimulus": "/static/audio/wordpool/SHERIFF.wav", "conditions": [18, 1200, "a", 18000], "internal_node_id": "0.0-17.0", "trial": 0, "time_elapsed": 275739, "serialpos": 5, "key_press": -1, "wordID": 1283, "type": "PRES_AUD", "trial_index": 26}, "uniqueid": "MTK2916:39ASUFLU6YEB4K6HKHNQQY9KD2VXER", "dateTime": 1519587369638}, {"current_trial": 27, "trialdata": {"rt": -1000, "trial_type": "single-audio", "word": "skirt", "stimulus": "/static/audio/wordpool/SKIRT.wav", "conditions": [18, 1200, "a", 18000], "internal_node_id": "0.0-18.0", "trial": 0, "time_elapsed": 278049, "serialpos": 6, "key_press": -1, "wordID": 1318, "type": "PRES_AUD", "trial_index": 27}, "uniqueid": "MTK2916:39ASUFLU6YEB4K6HKHNQQY9KD2VXER", "dateTime": 1519587371948}, {"current_trial": 28, "trialdata": {"rt": -1000, "trial_type": "single-audio", "word": "crayon", "stimulus": "/static/audio/wordpool/CRAYON.wav", "conditions": [18, 1200, "a", 18000], "internal_node_id": "0.0-19.0", "trial": 0, "time_elapsed": 280072, "serialpos": 7, "key_press": -1, "wordID": 400, "type": "PRES_AUD", "trial_index": 28}, "uniqueid": "MTK2916:39ASUFLU6YEB4K6HKHNQQY9KD2VXER", "dateTime": 1519587373971}, {"current_trial": 29, "trialdata": {"rt": -1000, "trial_type": "single-audio", "word": "pluto", "stimulus": "/static/audio/wordpool/PLUTO.wav", "conditions": [18, 1200, "a", 18000], "internal_node_id": "0.0-20.0", "trial": 0, "time_elapsed": 282160, "serialpos": 8, "key_press": -1, "wordID": 1091, "type": "PRES_AUD", "trial_index": 29}, "uniqueid": "MTK2916:39ASUFLU6YEB4K6HKHNQQY9KD2VXER", "dateTime": 1519587376059}, {"current_trial": 30, "trialdata": {"rt": -1000, "trial_type": "single-audio", "word": "driver", "stimulus": "/static/audio/wordpool/DRIVER.wav", "conditions": [18, 1200, "a", 18000], "internal_node_id": "0.0-21.0", "trial": 0, "time_elapsed": 284171, "serialpos": 9, "key_press": -1, "wordID": 498, "type": "PRES_AUD", "trial_index": 30}, "uniqueid": "MTK2916:39ASUFLU6YEB4K6HKHNQQY9KD2VXER", "dateTime": 1519587378070}, {"current_trial": 31, "trialdata": {"rt": -1000, "trial_type": "single-audio", "word": "marker", "stimulus": "/static/audio/wordpool/MARKER.wav", "conditions": [18, 1200, "a", 18000], "internal_node_id": "0.0-22.0", "trial": 0, "time_elapsed": 286218, "serialpos": 10, "key_press": -1, "wordID": 869, "type": "PRES_AUD", "trial_index": 31}, "uniqueid": "MTK2916:39ASUFLU6YEB4K6HKHNQQY9KD2VXER", "dateTime": 1519587380117}, {"current_trial": 32, "trialdata": {"rt": -1000, "trial_type": "single-audio", "word": "pasta", "stimulus": "/static/audio/wordpool/PASTA.wav", "conditions": [18, 1200, "a", 18000], "internal_node_id": "0.0-23.0", "trial": 0, "time_elapsed": 288543, "serialpos": 11, "key_press": -1, "wordID": 1020, "type": "PRES_AUD", "trial_index": 32}, "uniqueid": "MTK2916:39ASUFLU6YEB4K6HKHNQQY9KD2VXER", "dateTime": 1519587382442}, {"current_trial": 33, "trialdata": {"rt": -1000, "trial_type": "single-audio", "word": "cattle", "stimulus": "/static/audio/wordpool/CATTLE.wav", "conditions": [18, 1200, "a", 18000], "internal_node_id": "0.0-24.0", "trial": 0, "time_elapsed": 290566, "serialpos": 12, "key_press": -1, "wordID": 260, "type": "PRES_AUD", "trial_index": 33}, "uniqueid": "MTK2916:39ASUFLU6YEB4K6HKHNQQY9KD2VXER", "dateTime": 1519587384465}, {"current_trial": 34, "trialdata": {"rt": -1000, "trial_type": "single-audio", "word": "coin", "stimulus": "/static/audio/wordpool/COIN.wav", "conditions": [18, 1200, "a", 18000], "internal_node_id": "0.0-25.0", "trial": 0, "time_elapsed": 292770, "serialpos": 13, "key_press": -1, "wordID": 342, "type": "PRES_AUD", "trial_index": 34}, "uniqueid": "MTK2916:39ASUFLU6YEB4K6HKHNQQY9KD2VXER", "dateTime": 1519587386669}, {"current_trial": 35, "trialdata": {"rt": -1000, "trial_type": "single-audio", "word": "slug", "stimulus": "/static/audio/wordpool/SLUG.wav", "conditions": [18, 1200, "a", 18000], "internal_node_id": "0.0-26.0", "trial": 0, "time_elapsed": 294841, "serialpos": 14, "key_press": -1, "wordID": 1328, "type": "PRES_AUD", "trial_index": 35}, "uniqueid": "MTK2916:39ASUFLU6YEB4K6HKHNQQY9KD2VXER", "dateTime": 1519587388740}, {"current_trial": 36, "trialdata": {"rt": -1000, "trial_type": "single-audio", "word": "partner", "stimulus": "/static/audio/wordpool/PARTNER.wav", "conditions": [18, 1200, "a", 18000], "internal_node_id": "0.0-27.0", "trial": 0, "time_elapsed": 296999, "serialpos": 15, "key_press": -1, "wordID": 1016, "type": "PRES_AUD", "trial_index": 36}, "uniqueid": "MTK2916:39ASUFLU6YEB4K6HKHNQQY9KD2VXER", "dateTime": 1519587390898}, {"current_trial": 37, "trialdata": {"rt": -1000, "trial_type": "single-audio", "word": "clam", "stimulus": "/static/audio/wordpool/CLAM.wav", "conditions": [18, 1200, "a", 18000], "internal_node_id": "0.0-28.0", "trial": 0, "time_elapsed": 299332, "serialpos": 16, "key_press": -1, "wordID": 314, "type": "PRES_AUD", "trial_index": 37}, "uniqueid": "MTK2916:39ASUFLU6YEB4K6HKHNQQY9KD2VXER", "dateTime": 1519587393231}, {"current_trial": 38, "trialdata": {"rt": -1000, "trial_type": "single-audio", "word": "hound", "stimulus": "/static/audio/wordpool/HOUND.wav", "conditions": [18, 1200, "a", 18000], "internal_node_id": "0.0-29.0", "trial": 0, "time_elapsed": 301550, "serialpos": 17, "key_press": -1, "wordID": 723, "type": "PRES_AUD", "trial_index": 38}, "uniqueid": "MTK2916:39ASUFLU6YEB4K6HKHNQQY9KD2VXER", "dateTime": 1519587395449}, {"current_trial": 39, "trialdata": {"rt": -1, "trial_type": "single-stim", "stimulus": "", "internal_node_id": "0.0-30.0-0.0", "time_elapsed": 302817, "key_press": -1, "type": "PRE_RECALL_DELAY", "trial_index": 39}, "uniqueid": "MTK2916:39ASUFLU6YEB4K6HKHNQQY9KD2VXER", "dateTime": 1519587396716}, {"current_trial": 40, "trialdata": {"rt": -1000, "trial_type": "single-audio", "stimulus": "/static/audio/400Hz.wav", "internal_node_id": "0.0-31.0", "time_elapsed": 303317, "key_press": -1, "type": "PRE_RECALL_ALERT", "trial_index": 40}, "uniqueid": "MTK2916:39ASUFLU6YEB4K6HKHNQQY9KD2VXER", "dateTime": 1519587397216}, {"current_trial": 41, "trialdata": {"rt": [2318, 4278, 6334, 8614, 10374], "recwords": ["taxi", "airport", "window", "hound", "harbor"], "key_times": [1567, 1662, 1910, 2245, 2318, 2902, 3022, 3166, 3302, 3414, 3574, 3742, 4278, 5534, 5766, 5767, 5768, 5872, 6014, 6334, 7750, 7830, 7934, 8110, 8222, 8614, 9518, 9630, 9710, 9789, 9917, 10030, 10374], "trial_type": "free-recall", "conditions": [18, 1200, "a", 18000], "internal_node_id": "0.0-32.0-0.0", "key_presses": [84, 65, 88, 73, 13, 65, 73, 82, 80, 79, 82, 84, 13, 87, 73, 78, 68, 79, 87, 13, 72, 79, 85, 78, 68, 13, 72, 65, 82, 66, 79, 82, 13], "trial": 0, "time_elapsed": 363318, "type": "FREE_RECALL", "trial_index": 41}, "uniqueid": "MTK2916:39ASUFLU6YEB4K6HKHNQQY9KD2VXER", "dateTime": 1519587457219}, {"current_trial": 42, "trialdata": {"rt": 189343, "trial_type": "text", "internal_node_id": "0.0-33.0", "time_elapsed": 554664, "key_press": 32, "type": "INSTRUCTIONS", "trial_index": 42}, "uniqueid": "MTK2916:39ASUFLU6YEB4K6HKHNQQY9KD2VXER", "dateTime": 1519587648563}, {"current_trial": 43, "trialdata": {"rt": [10463, 14967], "trial_type": "math-distractor", "key_times": [9728, 10127, 10463, 14487, 14687, 14967], "responses": ["16", "21"], "num2": [5, 7, 6], "num3": [5, 7, 8], "conditions": [18, 1200, "a", 18000], "internal_node_id": "0.0-34.0", "key_presses": [97, 102, 13, 98, 97, 13], "trial": 1, "time_elapsed": 574664, "type": "DISTRACTOR", "trial_index": 43, "num1": [6, 7, 3]}, "uniqueid": "MTK2916:39ASUFLU6YEB4K6HKHNQQY9KD2VXER", "dateTime": 1519587668563}, {"current_trial": 44, "trialdata": {"rt": -1, "trial_type": "single-stim", "stimulus": "<p id=\"stim\">10</p>", "internal_node_id": "0.0-35.0-0.0", "time_elapsed": 577664, "key_press": -1, "trial_index": 44}, "uniqueid": "MTK2916:39ASUFLU6YEB4K6HKHNQQY9KD2VXER", "dateTime": 1519587671563}, {"current_trial": 45, "trialdata": {"rt": -1, "trial_type": "single-stim", "stimulus": "<p id=\"stim\">9</p>", "internal_node_id": "0.0-35.0-1.0", "time_elapsed": 578664, "key_press": -1, "trial_index": 45}, "uniqueid": "MTK2916:39ASUFLU6YEB4K6HKHNQQY9KD2VXER", "dateTime": 1519587672563}, {"current_trial": 46, "trialdata": {"rt": -1, "trial_type": "single-stim", "stimulus": "<p id=\"stim\">8</p>", "internal_node_id": "0.0-35.0-2.0", "time_elapsed": 579664, "key_press": -1, "trial_index": 46}, "uniqueid": "MTK2916:39ASUFLU6YEB4K6HKHNQQY9KD2VXER", "dateTime": 1519587673563}, {"current_trial": 47, "trialdata": {"rt": -1, "trial_type": "single-stim", "stimulus": "<p id=\"stim\">7</p>", "internal_node_id": "0.0-35.0-3.0", "time_elapsed": 580664, "key_press": -1, "trial_index": 47}, "uniqueid": "MTK2916:39ASUFLU6YEB4K6HKHNQQY9KD2VXER", "dateTime": 1519587674563}, {"current_trial": 48, "trialdata": {"rt": -1, "trial_type": "single-stim", "stimulus": "<p id=\"stim\">6</p>", "internal_node_id": "0.0-35.0-4.0", "time_elapsed": 581664, "key_press": -1, "trial_index": 48}, "uniqueid": "MTK2916:39ASUFLU6YEB4K6HKHNQQY9KD2VXER", "dateTime": 1519587675563}, {"current_trial": 49, "trialdata": {"rt": -1, "trial_type": "single-stim", "stimulus": "<p id=\"stim\">5</p>", "internal_node_id": "0.0-35.0-5.0", "time_elapsed": 582664, "key_press": -1, "trial_index": 49}, "uniqueid": "MTK2916:39ASUFLU6YEB4K6HKHNQQY9KD2VXER", "dateTime": 1519587676563}, {"current_trial": 50, "trialdata": {"rt": -1, "trial_type": "single-stim", "stimulus": "<p id=\"stim\">4</p>", "internal_node_id": "0.0-35.0-6.0", "time_elapsed": 583664, "key_press": -1, "trial_index": 50}, "uniqueid": "MTK2916:39ASUFLU6YEB4K6HKHNQQY9KD2VXER", "dateTime": 1519587677563}, {"current_trial": 51, "trialdata": {"rt": -1, "trial_type": "single-stim", "stimulus": "<p id=\"stim\">3</p>", "internal_node_id": "0.0-35.0-7.0", "time_elapsed": 584664, "key_press": -1, "trial_index": 51}, "uniqueid": "MTK2916:39ASUFLU6YEB4K6HKHNQQY9KD2VXER", "dateTime": 1519587678563}, {"current_trial": 52, "trialdata": {"rt": -1, "trial_type": "single-stim", "stimulus": "<p id=\"stim\">2</p>", "internal_node_id": "0.0-35.0-8.0", "time_elapsed": 585664, "key_press": -1, "trial_index": 52}, "uniqueid": "MTK2916:39ASUFLU6YEB4K6HKHNQQY9KD2VXER", "dateTime": 1519587679563}, {"current_trial": 53, "trialdata": {"rt": -1, "trial_type": "single-stim", "stimulus": "<p id=\"stim\">1</p>", "internal_node_id": "0.0-35.0-9.0", "time_elapsed": 586664, "key_press": -1, "trial_index": 53}, "uniqueid": "MTK2916:39ASUFLU6YEB4K6HKHNQQY9KD2VXER", "dateTime": 1519587680563}, {"current_trial": 54, "trialdata": {"rt": -1, "trial_type": "single-stim", "stimulus": "<p id=\"stim\">+</p>", "internal_node_id": "0.0-36.0-0.0", "time_elapsed": 588164, "key_press": -1, "type": "FIXATION", "trial_index": 54}, "uniqueid": "MTK2916:39ASUFLU6YEB4K6HKHNQQY9KD2VXER", "dateTime": 1519587682063}, {"current_trial": 55, "trialdata": {"rt": -1000, "trial_type": "single-audio", "word": "lover", "stimulus": "/static/audio/wordpool/LOVER.wav", "conditions": [18, 1200, "a", 18000], "internal_node_id": "0.0-37.0", "trial": 1, "time_elapsed": 590438, "serialpos": 0, "key_press": -1, "wordID": 845, "type": "PRES_AUD", "trial_index": 55}, "uniqueid": "MTK2916:39ASUFLU6YEB4K6HKHNQQY9KD2VXER", "dateTime": 1519587684337}, {"current_trial": 56, "trialdata": {"rt": -1000, "trial_type": "single-audio", "word": "pastry", "stimulus": "/static/audio/wordpool/PASTRY.wav", "conditions": [18, 1200, "a", 18000], "internal_node_id": "0.0-38.0", "trial": 1, "time_elapsed": 592587, "serialpos": 1, "key_press": -1, "wordID": 1021, "type": "PRES_AUD", "trial_index": 56}, "uniqueid": "MTK2916:39ASUFLU6YEB4K6HKHNQQY9KD2VXER", "dateTime": 1519587686486}, {"current_trial": 57, "trialdata": {"rt": -1000, "trial_type": "single-audio", "word": "france", "stimulus": "/static/audio/wordpool/FRANCE.wav", "conditions": [18, 1200, "a", 18000], "internal_node_id": "0.0-39.0", "trial": 1, "time_elapsed": 594780, "serialpos": 2, "key_press": -1, "wordID": 600, "type": "PRES_AUD", "trial_index": 57}, "uniqueid": "MTK2916:39ASUFLU6YEB4K6HKHNQQY9KD2VXER", "dateTime": 1519587688679}, {"current_trial": 58, "trialdata": {"rt": -1000, "trial_type": "single-audio", "word": "carriage", "stimulus": "/static/audio/wordpool/CARRIAGE.wav", "conditions": [18, 1200, "a", 18000], "internal_node_id": "0.0-40.0", "trial": 1, "time_elapsed": 596798, "serialpos": 3, "key_press": -1, "wordID": 247, "type": "PRES_AUD", "trial_index": 58}, "uniqueid": "MTK2916:39ASUFLU6YEB4K6HKHNQQY9KD2VXER", "dateTime": 1519587690697}, {"current_trial": 59, "trialdata": {"rt": -1000, "trial_type": "single-audio", "word": "poison", "stimulus": "/static/audio/wordpool/POISON.wav", "conditions": [18, 1200, "a", 18000], "internal_node_id": "0.0-41.0", "trial": 1, "time_elapsed": 599076, "serialpos": 4, "key_press": -1, "wordID": 1095, "type": "PRES_AUD", "trial_index": 59}, "uniqueid": "MTK2916:39ASUFLU6YEB4K6HKHNQQY9KD2VXER", "dateTime": 1519587692975}, {"current_trial": 60, "trialdata": {"rt": -1000, "trial_type": "single-audio", "word": "ozone", "stimulus": "/static/audio/wordpool/OZONE.wav", "conditions": [18, 1200, "a", 18000], "internal_node_id": "0.0-42.0", "trial": 1, "time_elapsed": 601451, "serialpos": 5, "key_press": -1, "wordID": 995, "type": "PRES_AUD", "trial_index": 60}, "uniqueid": "MTK2916:39ASUFLU6YEB4K6HKHNQQY9KD2VXER", "dateTime": 1519587695350}, {"current_trial": 61, "trialdata": {"rt": -1000, "trial_type": "single-audio", "word": "freezer", "stimulus": "/static/audio/wordpool/FREEZER.wav", "conditions": [18, 1200, "a", 18000], "internal_node_id": "0.0-43.0", "trial": 1, "time_elapsed": 603564, "serialpos": 6, "key_press": -1, "wordID": 603, "type": "PRES_AUD", "trial_index": 61}, "uniqueid": "MTK2916:39ASUFLU6YEB4K6HKHNQQY9KD2VXER", "dateTime": 1519587697463}, {"current_trial": 62, "trialdata": {"rt": -1000, "trial_type": "single-audio", "word": "stallion", "stimulus": "/static/audio/wordpool/STALLION.wav", "conditions": [18, 1200, "a", 18000], "internal_node_id": "0.0-44.0", "trial": 1, "time_elapsed": 605928, "serialpos": 7, "key_press": -1, "wordID": 1368, "type": "PRES_AUD", "trial_index": 62}, "uniqueid": "MTK2916:39ASUFLU6YEB4K6HKHNQQY9KD2VXER", "dateTime": 1519587699827}, {"current_trial": 63, "trialdata": {"rt": -1000, "trial_type": "single-audio", "word": "swamp", "stimulus": "/static/audio/wordpool/SWAMP.wav", "conditions": [18, 1200, "a", 18000], "internal_node_id": "0.0-45.0", "trial": 1, "time_elapsed": 608171, "serialpos": 8, "key_press": -1, "wordID": 1415, "type": "PRES_AUD", "trial_index": 63}, "uniqueid": "MTK2916:39ASUFLU6YEB4K6HKHNQQY9KD2VXER", "dateTime": 1519587702070}, {"current_trial": 64, "trialdata": {"rt": -1000, "trial_type": "single-audio", "word": "lettuce", "stimulus": "/static/audio/wordpool/LETTUCE.wav", "conditions": [18, 1200, "a", 18000], "internal_node_id": "0.0-46.0", "trial": 1, "time_elapsed": 610403, "serialpos": 9, "key_press": -1, "wordID": 813, "type": "PRES_AUD", "trial_index": 64}, "uniqueid": "MTK2916:39ASUFLU6YEB4K6HKHNQQY9KD2VXER", "dateTime": 1519587704302}, {"current_trial": 65, "trialdata": {"rt": -1000, "trial_type": "single-audio", "word": "couch", "stimulus": "/static/audio/wordpool/COUCH.wav", "conditions": [18, 1200, "a", 18000], "internal_node_id": "0.0-47.0", "trial": 1, "time_elapsed": 612453, "serialpos": 10, "key_press": -1, "wordID": 385, "type": "PRES_AUD", "trial_index": 65}, "uniqueid": "MTK2916:39ASUFLU6YEB4K6HKHNQQY9KD2VXER", "dateTime": 1519587706352}, {"current_trial": 66, "trialdata": {"rt": -1000, "trial_type": "single-audio", "word": "widow", "stimulus": "/static/audio/wordpool/WIDOW.wav", "conditions": [18, 1200, "a", 18000], "internal_node_id": "0.0-48.0", "trial": 1, "time_elapsed": 614499, "serialpos": 11, "key_press": -1, "wordID": 1607, "type": "PRES_AUD", "trial_index": 66}, "uniqueid": "MTK2916:39ASUFLU6YEB4K6HKHNQQY9KD2VXER", "dateTime": 1519587708398}, {"current_trial": 67, "trialdata": {"rt": -1000, "trial_type": "single-audio", "word": "blouse", "stimulus": "/static/audio/wordpool/BLOUSE.wav", "conditions": [18, 1200, "a", 18000], "internal_node_id": "0.0-49.0", "trial": 1, "time_elapsed": 616676, "serialpos": 12, "key_press": -1, "wordID": 138, "type": "PRES_AUD", "trial_index": 67}, "uniqueid": "MTK2916:39ASUFLU6YEB4K6HKHNQQY9KD2VXER", "dateTime": 1519587710575}, {"current_trial": 68, "trialdata": {"rt": -1000, "trial_type": "single-audio", "word": "venus", "stimulus": "/static/audio/wordpool/VENUS.wav", "conditions": [18, 1200, "a", 18000], "internal_node_id": "0.0-50.0", "trial": 1, "time_elapsed": 618856, "serialpos": 13, "key_press": -1, "wordID": 1556, "type": "PRES_AUD", "trial_index": 68}, "uniqueid": "MTK2916:39ASUFLU6YEB4K6HKHNQQY9KD2VXER", "dateTime": 1519587712755}, {"current_trial": 69, "trialdata": {"rt": -1000, "trial_type": "single-audio", "word": "notebook", "stimulus": "/static/audio/wordpool/NOTEBOOK.wav", "conditions": [18, 1200, "a", 18000], "internal_node_id": "0.0-51.0", "trial": 1, "time_elapsed": 621016, "serialpos": 14, "key_press": -1, "wordID": 958, "type": "PRES_AUD", "trial_index": 69}, "uniqueid": "MTK2916:39ASUFLU6YEB4K6HKHNQQY9KD2VXER", "dateTime": 1519587714915}, {"current_trial": 70, "trialdata": {"rt": -1000, "trial_type": "single-audio", "word": "mailman", "stimulus": "/static/audio/wordpool/MAILMAN.wav", "conditions": [18, 1200, "a", 18000], "internal_node_id": "0.0-52.0", "trial": 1, "time_elapsed": 623047, "serialpos": 15, "key_press": -1, "wordID": 857, "type": "PRES_AUD", "trial_index": 70}, "uniqueid": "MTK2916:39ASUFLU6YEB4K6HKHNQQY9KD2VXER", "dateTime": 1519587716946}, {"current_trial": 71, "trialdata": {"rt": -1000, "trial_type": "single-audio", "word": "transplant", "stimulus": "/static/audio/wordpool/TRANSPLANT.wav", "conditions": [18, 1200, "a", 18000], "internal_node_id": "0.0-53.0", "trial": 1, "time_elapsed": 625556, "serialpos": 16, "key_press": -1, "wordID": 1495, "type": "PRES_AUD", "trial_index": 71}, "uniqueid": "MTK2916:39ASUFLU6YEB4K6HKHNQQY9KD2VXER", "dateTime": 1519587719455}, {"current_trial": 72, "trialdata": {"rt": -1000, "trial_type": "single-audio", "word": "oyster", "stimulus": "/static/audio/wordpool/OYSTER.wav", "conditions": [18, 1200, "a", 18000], "internal_node_id": "0.0-54.0", "trial": 1, "time_elapsed": 627685, "serialpos": 17, "key_press": -1, "wordID": 994, "type": "PRES_AUD", "trial_index": 72}, "uniqueid": "MTK2916:39ASUFLU6YEB4K6HKHNQQY9KD2VXER", "dateTime": 1519587721584}, {"current_trial": 73, "trialdata": {"rt": -1, "trial_type": "single-stim", "stimulus": "", "internal_node_id": "0.0-55.0-0.0", "time_elapsed": 629064, "key_press": -1, "type": "PRE_RECALL_DELAY", "trial_index": 73}, "uniqueid": "MTK2916:39ASUFLU6YEB4K6HKHNQQY9KD2VXER", "dateTime": 1519587722963}, {"current_trial": 74, "trialdata": {"rt": -1000, "trial_type": "single-audio", "stimulus": "/static/audio/400Hz.wav", "internal_node_id": "0.0-56.0", "time_elapsed": 629564, "key_press": -1, "type": "PRE_RECALL_ALERT", "trial_index": 74}, "uniqueid": "MTK2916:39ASUFLU6YEB4K6HKHNQQY9KD2VXER", "dateTime": 1519587723463}, {"current_trial": 75, "trialdata": {"rt": [8314, 9970, 11481, 14001], "recwords": ["lover", "carriage", "paris", "oyster"], "key_times": [7451, 7634, 7818, 7946, 8074, 8314, 8794, 8898, 9018, 9130, 9226, 9354, 9394, 9514, 9970, 10738, 11001, 11058, 11194, 11306, 11481, 12241, 12625, 13081, 13233, 13377, 13449, 14001], "trial_type": "free-recall", "conditions": [18, 1200, "a", 18000], "internal_node_id": "0.0-57.0-0.0", "key_presses": [76, 79, 86, 69, 82, 13, 67, 65, 82, 82, 73, 65, 71, 69, 13, 80, 65, 82, 73, 83, 13, 79, 89, 83, 84, 69, 82, 13], "trial": 1, "time_elapsed": 689564, "type": "FREE_RECALL", "trial_index": 75}, "uniqueid": "MTK2916:39ASUFLU6YEB4K6HKHNQQY9KD2VXER", "dateTime": 1519587783465}, {"current_trial": 76, "trialdata": {"rt": 2319, "trial_type": "text", "internal_node_id": "0.0-58.0", "time_elapsed": 693885, "key_press": 32, "type": "INSTRUCTIONS", "trial_index": 76}, "uniqueid": "MTK2916:39ASUFLU6YEB4K6HKHNQQY9KD2VXER", "dateTime": 1519587787784}, {"current_trial": 77, "trialdata": {"rt": [5414, 8022], "trial_type": "math-distractor", "key_times": [4974, 5078, 5414, 7622, 7702, 8022, 11775, 11951], "responses": ["16", "16"], "num2": [8, 2, 8], "num3": [6, 5, 8], "conditions": [12, 800, "a", 12000], "internal_node_id": "0.0-59.0", "key_presses": [97, 102, 13, 97, 102, 13, 98, 98], "trial": 2, "time_elapsed": 706886, "type": "DISTRACTOR", "trial_index": 77, "num1": [2, 9, 6]}, "uniqueid": "MTK2916:39ASUFLU6YEB4K6HKHNQQY9KD2VXER", "dateTime": 1519587800785}, {"current_trial": 78, "trialdata": {"rt": -1, "trial_type": "single-stim", "stimulus": "<p id=\"stim\">10</p>", "internal_node_id": "0.0-60.0-0.0", "time_elapsed": 709886, "key_press": -1, "trial_index": 78}, "uniqueid": "MTK2916:39ASUFLU6YEB4K6HKHNQQY9KD2VXER", "dateTime": 1519587803785}, {"current_trial": 79, "trialdata": {"rt": -1, "trial_type": "single-stim", "stimulus": "<p id=\"stim\">9</p>", "internal_node_id": "0.0-60.0-1.0", "time_elapsed": 710886, "key_press": -1, "trial_index": 79}, "uniqueid": "MTK2916:39ASUFLU6YEB4K6HKHNQQY9KD2VXER", "dateTime": 1519587804785}, {"current_trial": 80, "trialdata": {"rt": -1, "trial_type": "single-stim", "stimulus": "<p id=\"stim\">8</p>", "internal_node_id": "0.0-60.0-2.0", "time_elapsed": 711886, "key_press": -1, "trial_index": 80}, "uniqueid": "MTK2916:39ASUFLU6YEB4K6HKHNQQY9KD2VXER", "dateTime": 1519587805785}, {"current_trial": 81, "trialdata": {"rt": -1, "trial_type": "single-stim", "stimulus": "<p id=\"stim\">7</p>", "internal_node_id": "0.0-60.0-3.0", "time_elapsed": 712886, "key_press": -1, "trial_index": 81}, "uniqueid": "MTK2916:39ASUFLU6YEB4K6HKHNQQY9KD2VXER", "dateTime": 1519587806785}, {"current_trial": 82, "trialdata": {"rt": -1, "trial_type": "single-stim", "stimulus": "<p id=\"stim\">6</p>", "internal_node_id": "0.0-60.0-4.0", "time_elapsed": 713886, "key_press": -1, "trial_index": 82}, "uniqueid": "MTK2916:39ASUFLU6YEB4K6HKHNQQY9KD2VXER", "dateTime": 1519587807785}, {"current_trial": 83, "trialdata": {"rt": -1, "trial_type": "single-stim", "stimulus": "<p id=\"stim\">5</p>", "internal_node_id": "0.0-60.0-5.0", "time_elapsed": 714886, "key_press": -1, "trial_index": 83}, "uniqueid": "MTK2916:39ASUFLU6YEB4K6HKHNQQY9KD2VXER", "dateTime": 1519587808785}, {"current_trial": 84, "trialdata": {"rt": -1, "trial_type": "single-stim", "stimulus": "<p id=\"stim\">4</p>", "internal_node_id": "0.0-60.0-6.0", "time_elapsed": 715886, "key_press": -1, "trial_index": 84}, "uniqueid": "MTK2916:39ASUFLU6YEB4K6HKHNQQY9KD2VXER", "dateTime": 1519587809785}, {"current_trial": 85, "trialdata": {"rt": -1, "trial_type": "single-stim", "stimulus": "<p id=\"stim\">3</p>", "internal_node_id": "0.0-60.0-7.0", "time_elapsed": 716887, "key_press": -1, "trial_index": 85}, "uniqueid": "MTK2916:39ASUFLU6YEB4K6HKHNQQY9KD2VXER", "dateTime": 1519587810786}, {"current_trial": 86, "trialdata": {"rt": -1, "trial_type": "single-stim", "stimulus": "<p id=\"stim\">2</p>", "internal_node_id": "0.0-60.0-8.0", "time_elapsed": 717887, "key_press": -1, "trial_index": 86}, "uniqueid": "MTK2916:39ASUFLU6YEB4K6HKHNQQY9KD2VXER", "dateTime": 1519587811786}, {"current_trial": 87, "trialdata": {"rt": -1, "trial_type": "single-stim", "stimulus": "<p id=\"stim\">1</p>", "internal_node_id": "0.0-60.0-9.0", "time_elapsed": 718887, "key_press": -1, "trial_index": 87}, "uniqueid": "MTK2916:39ASUFLU6YEB4K6HKHNQQY9KD2VXER", "dateTime": 1519587812786}, {"current_trial": 88, "trialdata": {"rt": -1, "trial_type": "single-stim", "stimulus": "<p id=\"stim\">+</p>", "internal_node_id": "0.0-61.0-0.0", "time_elapsed": 720387, "key_press": -1, "type": "FIXATION", "trial_index": 88}, "uniqueid": "MTK2916:39ASUFLU6YEB4K6HKHNQQY9KD2VXER", "dateTime": 1519587814286}, {"current_trial": 89, "trialdata": {"rt": -1000, "trial_type": "single-audio", "word": "river", "stimulus": "/static/audio/wordpool/RIVER.wav", "conditions": [12, 800, "a", 12000], "internal_node_id": "0.0-62.0", "trial": 2, "time_elapsed": 722023, "serialpos": 0, "key_press": -1, "wordID": 1193, "type": "PRES_AUD", "trial_index": 89}, "uniqueid": "MTK2916:39ASUFLU6YEB4K6HKHNQQY9KD2VXER", "dateTime": 1519587815922}, {"current_trial": 90, "trialdata": {"rt": -1000, "trial_type": "single-audio", "word": "dustpan", "stimulus": "/static/audio/wordpool/DUSTPAN.wav", "conditions": [12, 800, "a", 12000], "internal_node_id": "0.0-63.0", "trial": 2, "time_elapsed": 723650, "serialpos": 1, "key_press": -1, "wordID": 508, "type": "PRES_AUD", "trial_index": 90}, "uniqueid": "MTK2916:39ASUFLU6YEB4K6HKHNQQY9KD2VXER", "dateTime": 1519587817549}, {"current_trial": 91, "trialdata": {"rt": -1000, "trial_type": "single-audio", "word": "jelly", "stimulus": "/static/audio/wordpool/JELLY.wav", "conditions": [12, 800, "a", 12000], "internal_node_id": "0.0-64.0", "trial": 2, "time_elapsed": 725625, "serialpos": 2, "key_press": -1, "wordID": 754, "type": "PRES_AUD", "trial_index": 91}, "uniqueid": "MTK2916:39ASUFLU6YEB4K6HKHNQQY9KD2VXER", "dateTime": 1519587819524}, {"current_trial": 92, "trialdata": {"rt": -1000, "trial_type": "single-audio", "word": "bouquet", "stimulus": "/static/audio/wordpool/BOUQUET.wav", "conditions": [12, 800, "a", 12000], "internal_node_id": "0.0-65.0", "trial": 2, "time_elapsed": 727260, "serialpos": 3, "key_press": -1, "wordID": 156, "type": "PRES_AUD", "trial_index": 92}, "uniqueid": "MTK2916:39ASUFLU6YEB4K6HKHNQQY9KD2VXER", "dateTime": 1519587821159}, {"current_trial": 93, "trialdata": {"rt": -1000, "trial_type": "single-audio", "word": "beaker", "stimulus": "/static/audio/wordpool/BEAKER.wav", "conditions": [12, 800, "a", 12000], "internal_node_id": "0.0-66.0", "trial": 2, "time_elapsed": 729019, "serialpos": 4, "key_press": -1, "wordID": 103, "type": "PRES_AUD", "trial_index": 93}, "uniqueid": "MTK2916:39ASUFLU6YEB4K6HKHNQQY9KD2VXER", "dateTime": 1519587822918}, {"current_trial": 94, "trialdata": {"rt": -1000, "trial_type": "single-audio", "word": "badge", "stimulus": "/static/audio/wordpool/BADGE.wav", "conditions": [12, 800, "a", 12000], "internal_node_id": "0.0-67.0", "trial": 2, "time_elapsed": 730979, "serialpos": 5, "key_press": -1, "wordID": 67, "type": "PRES_AUD", "trial_index": 94}, "uniqueid": "MTK2916:39ASUFLU6YEB4K6HKHNQQY9KD2VXER", "dateTime": 1519587824878}, {"current_trial": 95, "trialdata": {"rt": -1000, "trial_type": "single-audio", "word": "beast", "stimulus": "/static/audio/wordpool/BEAST.wav", "conditions": [12, 800, "a", 12000], "internal_node_id": "0.0-68.0", "trial": 2, "time_elapsed": 732722, "serialpos": 6, "key_press": -1, "wordID": 107, "type": "PRES_AUD", "trial_index": 95}, "uniqueid": "MTK2916:39ASUFLU6YEB4K6HKHNQQY9KD2VXER", "dateTime": 1519587826621}, {"current_trial": 96, "trialdata": {"rt": -1000, "trial_type": "single-audio", "word": "powder", "stimulus": "/static/audio/wordpool/POWDER.wav", "conditions": [12, 800, "a", 12000], "internal_node_id": "0.0-69.0", "trial": 2, "time_elapsed": 734403, "serialpos": 7, "key_press": -1, "wordID": 1116, "type": "PRES_AUD", "trial_index": 96}, "uniqueid": "MTK2916:39ASUFLU6YEB4K6HKHNQQY9KD2VXER", "dateTime": 1519587828302}, {"current_trial": 97, "trialdata": {"rt": -1000, "trial_type": "single-audio", "word": "coffee", "stimulus": "/static/audio/wordpool/COFFEE.wav", "conditions": [12, 800, "a", 12000], "internal_node_id": "0.0-70.0", "trial": 2, "time_elapsed": 736140, "serialpos": 8, "key_press": -1, "wordID": 340, "type": "PRES_AUD", "trial_index": 97}, "uniqueid": "MTK2916:39ASUFLU6YEB4K6HKHNQQY9KD2VXER", "dateTime": 1519587830039}, {"current_trial": 98, "trialdata": {"rt": -1000, "trial_type": "single-audio", "word": "soda", "stimulus": "/static/audio/wordpool/SODA.wav", "conditions": [12, 800, "a", 12000], "internal_node_id": "0.0-71.0", "trial": 2, "time_elapsed": 738260, "serialpos": 9, "key_press": -1, "wordID": 1340, "type": "PRES_AUD", "trial_index": 98}, "uniqueid": "MTK2916:39ASUFLU6YEB4K6HKHNQQY9KD2VXER", "dateTime": 1519587832159}, {"current_trial": 99, "trialdata": {"rt": -1000, "trial_type": "single-audio", "word": "compass", "stimulus": "/static/audio/wordpool/COMPASS.wav", "conditions": [12, 800, "a", 12000], "internal_node_id": "0.0-72.0", "trial": 2, "time_elapsed": 740067, "serialpos": 10, "key_press": -1, "wordID": 357, "type": "PRES_AUD", "trial_index": 99}, "uniqueid": "MTK2916:39ASUFLU6YEB4K6HKHNQQY9KD2VXER", "dateTime": 1519587833966}, {"current_trial": 100, "trialdata": {"rt": -1000, "trial_type": "single-audio", "word": "lagoon", "stimulus": "/static/audio/wordpool/LAGOON.wav", "conditions": [12, 800, "a", 12000], "internal_node_id": "0.0-73.0", "trial": 2, "time_elapsed": 741834, "serialpos": 11, "key_press": -1, "wordID": 794, "type": "PRES_AUD", "trial_index": 100}, "uniqueid": "MTK2916:39ASUFLU6YEB4K6HKHNQQY9KD2VXER", "dateTime": 1519587835733}, {"current_trial": 101, "trialdata": {"rt": -1, "trial_type": "single-stim", "stimulus": "", "internal_node_id": "0.0-74.0-0.0", "time_elapsed": 743212, "key_press": -1, "type": "PRE_RECALL_DELAY", "trial_index": 101}, "uniqueid": "MTK2916:39ASUFLU6YEB4K6HKHNQQY9KD2VXER", "dateTime": 1519587837111}, {"current_trial": 102, "trialdata": {"rt": -1000, "trial_type": "single-audio", "stimulus": "/static/audio/400Hz.wav", "internal_node_id": "0.0-75.0", "time_elapsed": 743712, "key_press": -1, "type": "PRE_RECALL_ALERT", "trial_index": 102}, "uniqueid": "MTK2916:39ASUFLU6YEB4K6HKHNQQY9KD2VXER", "dateTime": 1519587837611}, {"current_trial": 103, "trialdata": {"rt": [2867, 5130, 7187, 11379], "recwords": ["lagoon", "compass", "river", "dustpan"], "key_times": [2196, 2300, 2404, 2507, 2651, 2740, 2867, 3243, 3347, 3427, 3627, 3851, 4035, 4163, 5130, 5611, 5737, 5867, 6019, 6099, 7187, 9907, 10107, 10203, 10291, 10899, 10979, 11131, 11379], "trial_type": "free-recall", "conditions": [12, 800, "a", 12000], "internal_node_id": "0.0-76.0-0.0", "key_presses": [76, 65, 71, 79, 79, 78, 32, 67, 79, 77, 80, 65, 83, 83, 13, 82, 73, 86, 69, 82, 13, 68, 85, 83, 84, 80, 65, 78, 13], "trial": 2, "time_elapsed": 803712, "type": "FREE_RECALL", "trial_index": 103}, "uniqueid": "MTK2916:39ASUFLU6YEB4K6HKHNQQY9KD2VXER", "dateTime": 1519587897613}, {"current_trial": 104, "trialdata": {"rt": 2160, "trial_type": "text", "internal_node_id": "0.0-77.0", "time_elapsed": 807875, "key_press": 32, "type": "INSTRUCTIONS", "trial_index": 104}, "uniqueid": "MTK2916:39ASUFLU6YEB4K6HKHNQQY9KD2VXER", "dateTime": 1519587901774}, {"current_trial": 105, "trialdata": {"rt": [3231, 6783, 10295], "trial_type": "math-distractor", "key_times": [2904, 3039, 3231, 6399, 6551, 6783, 9455, 9591, 10295], "responses": ["14", "15", "12"], "num2": [6, 6, 4, 4], "num3": [3, 6, 3, 8], "conditions": [24, 800, "a", 12000], "internal_node_id": "0.0-78.0", "key_presses": [49, 52, 13, 49, 53, 13, 49, 50, 13], "trial": 3, "time_elapsed": 821875, "type": "DISTRACTOR", "trial_index": 105, "num1": [5, 3, 5, 7]}, "uniqueid": "MTK2916:39ASUFLU6YEB4K6HKHNQQY9KD2VXER", "dateTime": 1519587915774}, {"current_trial": 106, "trialdata": {"rt": -1, "trial_type": "single-stim", "stimulus": "<p id=\"stim\">10</p>", "internal_node_id": "0.0-79.0-0.0", "time_elapsed": 824875, "key_press": -1, "trial_index": 106}, "uniqueid": "MTK2916:39ASUFLU6YEB4K6HKHNQQY9KD2VXER", "dateTime": 1519587918774}, {"current_trial": 107, "trialdata": {"rt": -1, "trial_type": "single-stim", "stimulus": "<p id=\"stim\">9</p>", "internal_node_id": "0.0-79.0-1.0", "time_elapsed": 826042, "key_press": -1, "trial_index": 107}, "uniqueid": "MTK2916:39ASUFLU6YEB4K6HKHNQQY9KD2VXER", "dateTime": 1519587919941}, {"current_trial": 108, "trialdata": {"rt": -1, "trial_type": "single-stim", "stimulus": "<p id=\"stim\">8</p>", "internal_node_id": "0.0-79.0-2.0", "time_elapsed": 827042, "key_press": -1, "trial_index": 108}, "uniqueid": "MTK2916:39ASUFLU6YEB4K6HKHNQQY9KD2VXER", "dateTime": 1519587920941}, {"current_trial": 109, "trialdata": {"rt": -1, "trial_type": "single-stim", "stimulus": "<p id=\"stim\">7</p>", "internal_node_id": "0.0-79.0-3.0", "time_elapsed": 828042, "key_press": -1, "trial_index": 109}, "uniqueid": "MTK2916:39ASUFLU6YEB4K6HKHNQQY9KD2VXER", "dateTime": 1519587921941}, {"current_trial": 110, "trialdata": {"rt": -1, "trial_type": "single-stim", "stimulus": "<p id=\"stim\">6</p>", "internal_node_id": "0.0-79.0-4.0", "time_elapsed": 829042, "key_press": -1, "trial_index": 110}, "uniqueid": "MTK2916:39ASUFLU6YEB4K6HKHNQQY9KD2VXER", "dateTime": 1519587922941}, {"current_trial": 111, "trialdata": {"rt": -1, "trial_type": "single-stim", "stimulus": "<p id=\"stim\">5</p>", "internal_node_id": "0.0-79.0-5.0", "time_elapsed": 830042, "key_press": -1, "trial_index": 111}, "uniqueid": "MTK2916:39ASUFLU6YEB4K6HKHNQQY9KD2VXER", "dateTime": 1519587923941}, {"current_trial": 112, "trialdata": {"rt": -1, "trial_type": "single-stim", "stimulus": "<p id=\"stim\">4</p>", "internal_node_id": "0.0-79.0-6.0", "time_elapsed": 831042, "key_press": -1, "trial_index": 112}, "uniqueid": "MTK2916:39ASUFLU6YEB4K6HKHNQQY9KD2VXER", "dateTime": 1519587924941}, {"current_trial": 113, "trialdata": {"rt": -1, "trial_type": "single-stim", "stimulus": "<p id=\"stim\">3</p>", "internal_node_id": "0.0-79.0-7.0", "time_elapsed": 832042, "key_press": -1, "trial_index": 113}, "uniqueid": "MTK2916:39ASUFLU6YEB4K6HKHNQQY9KD2VXER", "dateTime": 1519587925941}, {"current_trial": 114, "trialdata": {"rt": -1, "trial_type": "single-stim", "stimulus": "<p id=\"stim\">2</p>", "internal_node_id": "0.0-79.0-8.0", "time_elapsed": 833052, "key_press": -1, "trial_index": 114}, "uniqueid": "MTK2916:39ASUFLU6YEB4K6HKHNQQY9KD2VXER", "dateTime": 1519587926952}, {"current_trial": 115, "trialdata": {"rt": -1, "trial_type": "single-stim", "stimulus": "<p id=\"stim\">1</p>", "internal_node_id": "0.0-79.0-9.0", "time_elapsed": 834053, "key_press": -1, "trial_index": 115}, "uniqueid": "MTK2916:39ASUFLU6YEB4K6HKHNQQY9KD2VXER", "dateTime": 1519587927952}, {"current_trial": 116, "trialdata": {"rt": -1, "trial_type": "single-stim", "stimulus": "<p id=\"stim\">+</p>", "internal_node_id": "0.0-80.0-0.0", "time_elapsed": 835553, "key_press": -1, "type": "FIXATION", "trial_index": 116}, "uniqueid": "MTK2916:39ASUFLU6YEB4K6HKHNQQY9KD2VXER", "dateTime": 1519587929452}, {"current_trial": 117, "trialdata": {"rt": -1000, "trial_type": "single-audio", "word": "lapel", "stimulus": "/static/audio/wordpool/LAPEL.wav", "conditions": [24, 800, "a", 12000], "internal_node_id": "0.0-81.0", "trial": 3, "time_elapsed": 837171, "serialpos": 0, "key_press": -1, "wordID": 799, "type": "PRES_AUD", "trial_index": 117}, "uniqueid": "MTK2916:39ASUFLU6YEB4K6HKHNQQY9KD2VXER", "dateTime": 1519587931070}, {"current_trial": 118, "trialdata": {"rt": -1000, "trial_type": "single-audio", "word": "muffin", "stimulus": "/static/audio/wordpool/MUFFIN.wav", "conditions": [24, 800, "a", 12000], "internal_node_id": "0.0-82.0", "trial": 3, "time_elapsed": 838857, "serialpos": 1, "key_press": -1, "wordID": 928, "type": "PRES_AUD", "trial_index": 118}, "uniqueid": "MTK2916:39ASUFLU6YEB4K6HKHNQQY9KD2VXER", "dateTime": 1519587932756}, {"current_trial": 119, "trialdata": {"rt": -1000, "trial_type": "single-audio", "word": "burglar", "stimulus": "/static/audio/wordpool/BURGLAR.wav", "conditions": [24, 800, "a", 12000], "internal_node_id": "0.0-83.0", "trial": 3, "time_elapsed": 840766, "serialpos": 2, "key_press": -1, "wordID": 199, "type": "PRES_AUD", "trial_index": 119}, "uniqueid": "MTK2916:39ASUFLU6YEB4K6HKHNQQY9KD2VXER", "dateTime": 1519587934665}, {"current_trial": 120, "trialdata": {"rt": -1000, "trial_type": "single-audio", "word": "tourist", "stimulus": "/static/audio/wordpool/TOURIST.wav", "conditions": [24, 800, "a", 12000], "internal_node_id": "0.0-84.0", "trial": 3, "time_elapsed": 842762, "serialpos": 3, "key_press": -1, "wordID": 1487, "type": "PRES_AUD", "trial_index": 120}, "uniqueid": "MTK2916:39ASUFLU6YEB4K6HKHNQQY9KD2VXER", "dateTime": 1519587936661}, {"current_trial": 121, "trialdata": {"rt": -1000, "trial_type": "single-audio", "word": "marsh", "stimulus": "/static/audio/wordpool/MARSH.wav", "conditions": [24, 800, "a", 12000], "internal_node_id": "0.0-85.0", "trial": 3, "time_elapsed": 844590, "serialpos": 4, "key_press": -1, "wordID": 873, "type": "PRES_AUD", "trial_index": 121}, "uniqueid": "MTK2916:39ASUFLU6YEB4K6HKHNQQY9KD2VXER", "dateTime": 1519587938489}, {"current_trial": 122, "trialdata": {"rt": -1000, "trial_type": "single-audio", "word": "thief", "stimulus": "/static/audio/wordpool/THIEF.wav", "conditions": [24, 800, "a", 12000], "internal_node_id": "0.0-86.0", "trial": 3, "time_elapsed": 846301, "serialpos": 5, "key_press": -1, "wordID": 1455, "type": "PRES_AUD", "trial_index": 122}, "uniqueid": "MTK2916:39ASUFLU6YEB4K6HKHNQQY9KD2VXER", "dateTime": 1519587940200}, {"current_trial": 123, "trialdata": {"rt": -1000, "trial_type": "single-audio", "word": "foot", "stimulus": "/static/audio/wordpool/FOOT.wav", "conditions": [24, 800, "a", 12000], "internal_node_id": "0.0-87.0", "trial": 3, "time_elapsed": 848135, "serialpos": 6, "key_press": -1, "wordID": 589, "type": "PRES_AUD", "trial_index": 123}, "uniqueid": "MTK2916:39ASUFLU6YEB4K6HKHNQQY9KD2VXER", "dateTime": 1519587942034}, {"current_trial": 124, "trialdata": {"rt": -1000, "trial_type": "single-audio", "word": "headband", "stimulus": "/static/audio/wordpool/HEADBAND.wav", "conditions": [24, 800, "a", 12000], "internal_node_id": "0.0-88.0", "trial": 3, "time_elapsed": 849836, "serialpos": 7, "key_press": -1, "wordID": 695, "type": "PRES_AUD", "trial_index": 124}, "uniqueid": "MTK2916:39ASUFLU6YEB4K6HKHNQQY9KD2VXER", "dateTime": 1519587943736}, {"current_trial": 125, "trialdata": {"rt": -1000, "trial_type": "single-audio", "word": "student", "stimulus": "/static/audio/wordpool/STUDENT.wav", "conditions": [24, 800, "a", 12000], "internal_node_id": "0.0-89.0", "trial": 3, "time_elapsed": 851635, "serialpos": 8, "key_press": -1, "wordID": 1394, "type": "PRES_AUD", "trial_index": 125}, "uniqueid": "MTK2916:39ASUFLU6YEB4K6HKHNQQY9KD2VXER", "dateTime": 1519587945534}, {"current_trial": 126, "trialdata": {"rt": -1000, "trial_type": "single-audio", "word": "dorm", "stimulus": "/static/audio/wordpool/DORM.wav", "conditions": [24, 800, "a", 12000], "internal_node_id": "0.0-90.0", "trial": 3, "time_elapsed": 853422, "serialpos": 9, "key_press": -1, "wordID": 487, "type": "PRES_AUD", "trial_index": 126}, "uniqueid": "MTK2916:39ASUFLU6YEB4K6HKHNQQY9KD2VXER", "dateTime": 1519587947321}, {"current_trial": 127, "trialdata": {"rt": -1000, "trial_type": "single-audio", "word": "onion", "stimulus": "/static/audio/wordpool/ONION.wav", "conditions": [24, 800, "a", 12000], "internal_node_id": "0.0-91.0", "trial": 3, "time_elapsed": 855160, "serialpos": 10, "key_press": -1, "wordID": 976, "type": "PRES_AUD", "trial_index": 127}, "uniqueid": "MTK2916:39ASUFLU6YEB4K6HKHNQQY9KD2VXER", "dateTime": 1519587949059}, {"current_trial": 128, "trialdata": {"rt": -1000, "trial_type": "single-audio", "word": "award", "stimulus": "/static/audio/wordpool/AWARD.wav", "conditions": [24, 800, "a", 12000], "internal_node_id": "0.0-92.0", "trial": 3, "time_elapsed": 857019, "serialpos": 11, "key_press": -1, "wordID": 62, "type": "PRES_AUD", "trial_index": 128}, "uniqueid": "MTK2916:39ASUFLU6YEB4K6HKHNQQY9KD2VXER", "dateTime": 1519587950918}, {"current_trial": 129, "trialdata": {"rt": -1000, "trial_type": "single-audio", "word": "gymnast", "stimulus": "/static/audio/wordpool/GYMNAST.wav", "conditions": [24, 800, "a", 12000], "internal_node_id": "0.0-93.0", "trial": 3, "time_elapsed": 858718, "serialpos": 12, "key_press": -1, "wordID": 674, "type": "PRES_AUD", "trial_index": 129}, "uniqueid": "MTK2916:39ASUFLU6YEB4K6HKHNQQY9KD2VXER", "dateTime": 1519587952617}, {"current_trial": 130, "trialdata": {"rt": -1000, "trial_type": "single-audio", "word": "dancer", "stimulus": "/static/audio/wordpool/DANCER.wav", "conditions": [24, 800, "a", 12000], "internal_node_id": "0.0-94.0", "trial": 3, "time_elapsed": 860638, "serialpos": 13, "key_press": -1, "wordID": 436, "type": "PRES_AUD", "trial_index": 130}, "uniqueid": "MTK2916:39ASUFLU6YEB4K6HKHNQQY9KD2VXER", "dateTime": 1519587954537}, {"current_trial": 131, "trialdata": {"rt": -1000, "trial_type": "single-audio", "word": "hand", "stimulus": "/static/audio/wordpool/HAND.wav", "conditions": [24, 800, "a", 12000], "internal_node_id": "0.0-95.0", "trial": 3, "time_elapsed": 862614, "serialpos": 14, "key_press": -1, "wordID": 682, "type": "PRES_AUD", "trial_index": 131}, "uniqueid": "MTK2916:39ASUFLU6YEB4K6HKHNQQY9KD2VXER", "dateTime": 1519587956513}, {"current_trial": 132, "trialdata": {"rt": -1000, "trial_type": "single-audio", "word": "lizard", "stimulus": "/static/audio/wordpool/LIZARD.wav", "conditions": [24, 800, "a", 12000], "internal_node_id": "0.0-96.0", "trial": 3, "time_elapsed": 864263, "serialpos": 15, "key_press": -1, "wordID": 833, "type": "PRES_AUD", "trial_index": 132}, "uniqueid": "MTK2916:39ASUFLU6YEB4K6HKHNQQY9KD2VXER", "dateTime": 1519587958162}, {"current_trial": 133, "trialdata": {"rt": -1000, "trial_type": "single-audio", "word": "peanut", "stimulus": "/static/audio/wordpool/PEANUT.wav", "conditions": [24, 800, "a", 12000], "internal_node_id": "0.0-97.0", "trial": 3, "time_elapsed": 866002, "serialpos": 16, "key_press": -1, "wordID": 1031, "type": "PRES_AUD", "trial_index": 133}, "uniqueid": "MTK2916:39ASUFLU6YEB4K6HKHNQQY9KD2VXER", "dateTime": 1519587959901}, {"current_trial": 134, "trialdata": {"rt": -1000, "trial_type": "single-audio", "word": "tuba", "stimulus": "/static/audio/wordpool/TUBA.wav", "conditions": [24, 800, "a", 12000], "internal_node_id": "0.0-98.0", "trial": 3, "time_elapsed": 867853, "serialpos": 17, "key_press": -1, "wordID": 1514, "type": "PRES_AUD", "trial_index": 134}, "uniqueid": "MTK2916:39ASUFLU6YEB4K6HKHNQQY9KD2VXER", "dateTime": 1519587961752}, {"current_trial": 135, "trialdata": {"rt": -1000, "trial_type": "single-audio", "word": "tart", "stimulus": "/static/audio/wordpool/TART.wav", "conditions": [24, 800, "a", 12000], "internal_node_id": "0.0-99.0", "trial": 3, "time_elapsed": 869830, "serialpos": 18, "key_press": -1, "wordID": 1435, "type": "PRES_AUD", "trial_index": 135}, "uniqueid": "MTK2916:39ASUFLU6YEB4K6HKHNQQY9KD2VXER", "dateTime": 1519587963729}, {"current_trial": 136, "trialdata": {"rt": -1000, "trial_type": "single-audio", "word": "temple", "stimulus": "/static/audio/wordpool/TEMPLE.wav", "conditions": [24, 800, "a", 12000], "internal_node_id": "0.0-100.0", "trial": 3, "time_elapsed": 871660, "serialpos": 19, "key_press": -1, "wordID": 1447, "type": "PRES_AUD", "trial_index": 136}, "uniqueid": "MTK2916:39ASUFLU6YEB4K6HKHNQQY9KD2VXER", "dateTime": 1519587965559}, {"current_trial": 137, "trialdata": {"rt": -1000, "trial_type": "single-audio", "word": "crater", "stimulus": "/static/audio/wordpool/CRATER.wav", "conditions": [24, 800, "a", 12000], "internal_node_id": "0.0-101.0", "trial": 3, "time_elapsed": 873384, "serialpos": 20, "key_press": -1, "wordID": 399, "type": "PRES_AUD", "trial_index": 137}, "uniqueid": "MTK2916:39ASUFLU6YEB4K6HKHNQQY9KD2VXER", "dateTime": 1519587967283}, {"current_trial": 138, "trialdata": {"rt": -1000, "trial_type": "single-audio", "word": "chipmunk", "stimulus": "/static/audio/wordpool/CHIPMUNK.wav", "conditions": [24, 800, "a", 12000], "internal_node_id": "0.0-102.0", "trial": 3, "time_elapsed": 875181, "serialpos": 21, "key_press": -1, "wordID": 303, "type": "PRES_AUD", "trial_index": 138}, "uniqueid": "MTK2916:39ASUFLU6YEB4K6HKHNQQY9KD2VXER", "dateTime": 1519587969080}, {"current_trial": 139, "trialdata": {"rt": -1000, "trial_type": "single-audio", "word": "parrot", "stimulus": "/static/audio/wordpool/PARROT.wav", "conditions": [24, 800, "a", 12000], "internal_node_id": "0.0-103.0", "trial": 3, "time_elapsed": 876966, "serialpos": 22, "key_press": -1, "wordID": 1014, "type": "PRES_AUD", "trial_index": 139}, "uniqueid": "MTK2916:39ASUFLU6YEB4K6HKHNQQY9KD2VXER", "dateTime": 1519587970865}, {"current_trial": 140, "trialdata": {"rt": -1000, "trial_type": "single-audio", "word": "hatchet", "stimulus": "/static/audio/wordpool/HATCHET.wav", "conditions": [24, 800, "a", 12000], "internal_node_id": "0.0-104.0", "trial": 3, "time_elapsed": 878623, "serialpos": 23, "key_press": -1, "wordID": 690, "type": "PRES_AUD", "trial_index": 140}, "uniqueid": "MTK2916:39ASUFLU6YEB4K6HKHNQQY9KD2VXER", "dateTime": 1519587972522}, {"current_trial": 141, "trialdata": {"rt": -1, "trial_type": "single-stim", "stimulus": "", "internal_node_id": "0.0-105.0-0.0", "time_elapsed": 879829, "key_press": -1, "type": "PRE_RECALL_DELAY", "trial_index": 141}, "uniqueid": "MTK2916:39ASUFLU6YEB4K6HKHNQQY9KD2VXER", "dateTime": 1519587973728}, {"current_trial": 142, "trialdata": {"rt": -1000, "trial_type": "single-audio", "stimulus": "/static/audio/400Hz.wav", "internal_node_id": "0.0-106.0", "time_elapsed": 880329, "key_press": -1, "type": "PRE_RECALL_ALERT", "trial_index": 142}, "uniqueid": "MTK2916:39ASUFLU6YEB4K6HKHNQQY9KD2VXER", "dateTime": 1519587974228}, {"current_trial": 143, "trialdata": {"rt": [2215, 9399, 11494, 20383, 24110], "recwords": ["door", "chimpmunk", "hatchet", "campus", "people"], "key_times": [1855, 1935, 2079, 2127, 2215, 2551, 2815, 2967, 3127, 3151, 3415, 3527, 5535, 6079, 6327, 6551, 6775, 6855, 9399, 10062, 10166, 10271, 10486, 10590, 10686, 10774, 11494, 19548, 19628, 19703, 19823, 19967, 20095, 20383, 23462, 23566, 23663, 23726, 23830, 23902, 24110], "trial_type": "free-recall", "conditions": [24, 800, "a", 12000], "internal_node_id": "0.0-107.0-0.0", "key_presses": [68, 79, 79, 82, 32, 72, 8, 67, 72, 73, 77, 80, 8, 80, 77, 85, 78, 75, 13, 72, 65, 84, 67, 72, 69, 84, 13, 67, 65, 77, 80, 85, 83, 13, 80, 69, 79, 80, 76, 69, 13], "trial": 3, "time_elapsed": 940330, "type": "FREE_RECALL", "trial_index": 143}, "uniqueid": "MTK2916:39ASUFLU6YEB4K6HKHNQQY9KD2VXER", "dateTime": 1519588034231}, {"current_trial": 144, "trialdata": {"rt": 27564, "trial_type": "text", "internal_node_id": "0.0-108.0", "time_elapsed": 969896, "key_press": 40, "type": "INSTRUCTIONS", "trial_index": 144}, "uniqueid": "MTK2916:39ASUFLU6YEB4K6HKHNQQY9KD2VXER", "dateTime": 1519588063795}, {"current_trial": 145, "trialdata": {"rt": [3278, 7006, 10965], "trial_type": "math-distractor", "key_times": [2838, 2990, 3278, 6526, 6830, 7006, 10574, 10725, 10965], "responses": ["13", "18", "19"], "num2": [1, 7, 6, 7], "num3": [4, 2, 4, 3], "conditions": [12, 1600, "a", 12000], "internal_node_id": "0.0-109.0", "key_presses": [49, 51, 13, 49, 56, 13, 49, 57, 13], "trial": 4, "time_elapsed": 983897, "type": "DISTRACTOR", "trial_index": 145, "num1": [8, 9, 9, 3]}, "uniqueid": "MTK2916:39ASUFLU6YEB4K6HKHNQQY9KD2VXER", "dateTime": 1519588077796}, {"current_trial": 146, "trialdata": {"rt": -1, "trial_type": "single-stim", "stimulus": "<p id=\"stim\">10</p>", "internal_node_id": "0.0-110.0-0.0", "time_elapsed": 986897, "key_press": -1, "trial_index": 146}, "uniqueid": "MTK2916:39ASUFLU6YEB4K6HKHNQQY9KD2VXER", "dateTime": 1519588080796}, {"current_trial": 147, "trialdata": {"rt": -1, "trial_type": "single-stim", "stimulus": "<p id=\"stim\">9</p>", "internal_node_id": "0.0-110.0-1.0", "time_elapsed": 987897, "key_press": -1, "trial_index": 147}, "uniqueid": "MTK2916:39ASUFLU6YEB4K6HKHNQQY9KD2VXER", "dateTime": 1519588081796}, {"current_trial": 148, "trialdata": {"rt": -1, "trial_type": "single-stim", "stimulus": "<p id=\"stim\">8</p>", "internal_node_id": "0.0-110.0-2.0", "time_elapsed": 988897, "key_press": -1, "trial_index": 148}, "uniqueid": "MTK2916:39ASUFLU6YEB4K6HKHNQQY9KD2VXER", "dateTime": 1519588082796}, {"current_trial": 149, "trialdata": {"rt": -1, "trial_type": "single-stim", "stimulus": "<p id=\"stim\">7</p>", "internal_node_id": "0.0-110.0-3.0", "time_elapsed": 989897, "key_press": -1, "trial_index": 149}, "uniqueid": "MTK2916:39ASUFLU6YEB4K6HKHNQQY9KD2VXER", "dateTime": 1519588083796}, {"current_trial": 150, "trialdata": {"rt": -1, "trial_type": "single-stim", "stimulus": "<p id=\"stim\">6</p>", "internal_node_id": "0.0-110.0-4.0", "time_elapsed": 990897, "key_press": -1, "trial_index": 150}, "uniqueid": "MTK2916:39ASUFLU6YEB4K6HKHNQQY9KD2VXER", "dateTime": 1519588084796}, {"current_trial": 151, "trialdata": {"rt": -1, "trial_type": "single-stim", "stimulus": "<p id=\"stim\">5</p>", "internal_node_id": "0.0-110.0-5.0", "time_elapsed": 991897, "key_press": -1, "trial_index": 151}, "uniqueid": "MTK2916:39ASUFLU6YEB4K6HKHNQQY9KD2VXER", "dateTime": 1519588085796}, {"current_trial": 152, "trialdata": {"rt": -1, "trial_type": "single-stim", "stimulus": "<p id=\"stim\">4</p>", "internal_node_id": "0.0-110.0-6.0", "time_elapsed": 992897, "key_press": -1, "trial_index": 152}, "uniqueid": "MTK2916:39ASUFLU6YEB4K6HKHNQQY9KD2VXER", "dateTime": 1519588086796}, {"current_trial": 153, "trialdata": {"rt": -1, "trial_type": "single-stim", "stimulus": "<p id=\"stim\">3</p>", "internal_node_id": "0.0-110.0-7.0", "time_elapsed": 993897, "key_press": -1, "trial_index": 153}, "uniqueid": "MTK2916:39ASUFLU6YEB4K6HKHNQQY9KD2VXER", "dateTime": 1519588087796}, {"current_trial": 154, "trialdata": {"rt": -1, "trial_type": "single-stim", "stimulus": "<p id=\"stim\">2</p>", "internal_node_id": "0.0-110.0-8.0", "time_elapsed": 994897, "key_press": -1, "trial_index": 154}, "uniqueid": "MTK2916:39ASUFLU6YEB4K6HKHNQQY9KD2VXER", "dateTime": 1519588088796}, {"current_trial": 155, "trialdata": {"rt": -1, "trial_type": "single-stim", "stimulus": "<p id=\"stim\">1</p>", "internal_node_id": "0.0-110.0-9.0", "time_elapsed": 995897, "key_press": -1, "trial_index": 155}, "uniqueid": "MTK2916:39ASUFLU6YEB4K6HKHNQQY9KD2VXER", "dateTime": 1519588089796}, {"current_trial": 156, "trialdata": {"rt": -1, "trial_type": "single-stim", "stimulus": "<p id=\"stim\">+</p>", "internal_node_id": "0.0-111.0-0.0", "time_elapsed": 997397, "key_press": -1, "type": "FIXATION", "trial_index": 156}, "uniqueid": "MTK2916:39ASUFLU6YEB4K6HKHNQQY9KD2VXER", "dateTime": 1519588091296}, {"current_trial": 157, "trialdata": {"rt": -1000, "trial_type": "single-audio", "word": "bank", "stimulus": "/static/audio/wordpool/BANK.wav", "conditions": [12, 1600, "a", 12000], "internal_node_id": "0.0-112.0", "trial": 4, "time_elapsed": 999969, "serialpos": 0, "key_press": -1, "wordID": 82, "type": "PRES_AUD", "trial_index": 157}, "uniqueid": "MTK2916:39ASUFLU6YEB4K6HKHNQQY9KD2VXER", "dateTime": 1519588093868}, {"current_trial": 158, "trialdata": {"rt": -1000, "trial_type": "single-audio", "word": "flute", "stimulus": "/static/audio/wordpool/FLUTE.wav", "conditions": [12, 1600, "a", 12000], "internal_node_id": "0.0-113.0", "trial": 4, "time_elapsed": 1002561, "serialpos": 1, "key_press": -1, "wordID": 584, "type": "PRES_AUD", "trial_index": 158}, "uniqueid": "MTK2916:39ASUFLU6YEB4K6HKHNQQY9KD2VXER", "dateTime": 1519588096460}, {"current_trial": 159, "trialdata": {"rt": -1000, "trial_type": "single-audio", "word": "servant", "stimulus": "/static/audio/wordpool/SERVANT.wav", "conditions": [12, 1600, "a", 12000], "internal_node_id": "0.0-114.0", "trial": 4, "time_elapsed": 1005169, "serialpos": 2, "key_press": -1, "wordID": 1270, "type": "PRES_AUD", "trial_index": 159}, "uniqueid": "MTK2916:39ASUFLU6YEB4K6HKHNQQY9KD2VXER", "dateTime": 1519588099068}, {"current_trial": 160, "trialdata": {"rt": -1000, "trial_type": "single-audio", "word": "pebble", "stimulus": "/static/audio/wordpool/PEBBLE.wav", "conditions": [12, 1600, "a", 12000], "internal_node_id": "0.0-115.0", "trial": 4, "time_elapsed": 1007764, "serialpos": 3, "key_press": -1, "wordID": 1034, "type": "PRES_AUD", "trial_index": 160}, "uniqueid": "MTK2916:39ASUFLU6YEB4K6HKHNQQY9KD2VXER", "dateTime": 1519588101663}, {"current_trial": 161, "trialdata": {"rt": -1000, "trial_type": "single-audio", "word": "banker", "stimulus": "/static/audio/wordpool/BANKER.wav", "conditions": [12, 1600, "a", 12000], "internal_node_id": "0.0-116.0", "trial": 4, "time_elapsed": 1010558, "serialpos": 4, "key_press": -1, "wordID": 83, "type": "PRES_AUD", "trial_index": 161}, "uniqueid": "MTK2916:39ASUFLU6YEB4K6HKHNQQY9KD2VXER", "dateTime": 1519588104457}, {"current_trial": 162, "trialdata": {"rt": -1000, "trial_type": "single-audio", "word": "girl", "stimulus": "/static/audio/wordpool/GIRL.wav", "conditions": [12, 1600, "a", 12000], "internal_node_id": "0.0-117.0", "trial": 4, "time_elapsed": 1013238, "serialpos": 5, "key_press": -1, "wordID": 636, "type": "PRES_AUD", "trial_index": 162}, "uniqueid": "MTK2916:39ASUFLU6YEB4K6HKHNQQY9KD2VXER", "dateTime": 1519588107137}, {"current_trial": 163, "trialdata": {"rt": -1000, "trial_type": "single-audio", "word": "creature", "stimulus": "/static/audio/wordpool/CREATURE.wav", "conditions": [12, 1600, "a", 12000], "internal_node_id": "0.0-118.0", "trial": 4, "time_elapsed": 1015942, "serialpos": 6, "key_press": -1, "wordID": 402, "type": "PRES_AUD", "trial_index": 163}, "uniqueid": "MTK2916:39ASUFLU6YEB4K6HKHNQQY9KD2VXER", "dateTime": 1519588109841}, {"current_trial": 164, "trialdata": {"rt": -1000, "trial_type": "single-audio", "word": "lace", "stimulus": "/static/audio/wordpool/LACE.wav", "conditions": [12, 1600, "a", 12000], "internal_node_id": "0.0-119.0", "trial": 4, "time_elapsed": 1018430, "serialpos": 7, "key_press": -1, "wordID": 791, "type": "PRES_AUD", "trial_index": 164}, "uniqueid": "MTK2916:39ASUFLU6YEB4K6HKHNQQY9KD2VXER", "dateTime": 1519588112329}, {"current_trial": 165, "trialdata": {"rt": -1000, "trial_type": "single-audio", "word": "shrub", "stimulus": "/static/audio/wordpool/SHRUB.wav", "conditions": [12, 1600, "a", 12000], "internal_node_id": "0.0-120.0", "trial": 4, "time_elapsed": 1021110, "serialpos": 8, "key_press": -1, "wordID": 1298, "type": "PRES_AUD", "trial_index": 165}, "uniqueid": "MTK2916:39ASUFLU6YEB4K6HKHNQQY9KD2VXER", "dateTime": 1519588115009}, {"current_trial": 166, "trialdata": {"rt": -1000, "trial_type": "single-audio", "word": "flower", "stimulus": "/static/audio/wordpool/FLOWER.wav", "conditions": [12, 1600, "a", 12000], "internal_node_id": "0.0-121.0", "trial": 4, "time_elapsed": 1023812, "serialpos": 9, "key_press": -1, "wordID": 583, "type": "PRES_AUD", "trial_index": 166}, "uniqueid": "MTK2916:39ASUFLU6YEB4K6HKHNQQY9KD2VXER", "dateTime": 1519588117711}, {"current_trial": 167, "trialdata": {"rt": -1000, "trial_type": "single-audio", "word": "hamper", "stimulus": "/static/audio/wordpool/HAMPER.wav", "conditions": [12, 1600, "a", 12000], "internal_node_id": "0.0-122.0", "trial": 4, "time_elapsed": 1026633, "serialpos": 10, "key_press": -1, "wordID": 681, "type": "PRES_AUD", "trial_index": 167}, "uniqueid": "MTK2916:39ASUFLU6YEB4K6HKHNQQY9KD2VXER", "dateTime": 1519588120532}, {"current_trial": 168, "trialdata": {"rt": -1000, "trial_type": "single-audio", "word": "luggage", "stimulus": "/static/audio/wordpool/LUGGAGE.wav", "conditions": [12, 1600, "a", 12000], "internal_node_id": "0.0-123.0", "trial": 4, "time_elapsed": 1029089, "serialpos": 11, "key_press": -1, "wordID": 846, "type": "PRES_AUD", "trial_index": 168}, "uniqueid": "MTK2916:39ASUFLU6YEB4K6HKHNQQY9KD2VXER", "dateTime": 1519588122988}, {"current_trial": 169, "trialdata": {"rt": -1, "trial_type": "single-stim", "stimulus": "", "internal_node_id": "0.0-124.0-0.0", "time_elapsed": 1030441, "key_press": -1, "type": "PRE_RECALL_DELAY", "trial_index": 169}, "uniqueid": "MTK2916:39ASUFLU6YEB4K6HKHNQQY9KD2VXER", "dateTime": 1519588124340}, {"current_trial": 170, "trialdata": {"rt": -1000, "trial_type": "single-audio", "stimulus": "/static/audio/400Hz.wav", "internal_node_id": "0.0-125.0", "time_elapsed": 1030941, "key_press": -1, "type": "PRE_RECALL_ALERT", "trial_index": 170}, "uniqueid": "MTK2916:39ASUFLU6YEB4K6HKHNQQY9KD2VXER", "dateTime": 1519588124840}, {"current_trial": 171, "trialdata": {"rt": [4168, 5112, 6199, 8265], "recwords": ["banker", "flute", "servant", "pebble"], "key_times": [2688, 2700, 3145, 3537, 3720, 3784, 4168, 4512, 4624, 4744, 4832, 4936, 5112, 5248, 5320, 5408, 5616, 5712, 5817, 5921, 6199, 6633, 6905, 7161, 7417, 7521, 7641, 7761, 7873, 8265], "trial_type": "free-recall", "conditions": [12, 1600, "a", 12000], "internal_node_id": "0.0-126.0-0.0", "key_presses": [66, 65, 78, 75, 69, 82, 13, 70, 76, 85, 84, 69, 13, 83, 69, 82, 86, 65, 78, 84, 13, 80, 69, 80, 8, 66, 66, 76, 69, 13], "trial": 4, "time_elapsed": 1090941, "type": "FREE_RECALL", "trial_index": 171}, "uniqueid": "MTK2916:39ASUFLU6YEB4K6HKHNQQY9KD2VXER", "dateTime": 1519588184842}, {"current_trial": 172, "trialdata": {"rt": 2086, "trial_type": "text", "internal_node_id": "0.0-127.0", "time_elapsed": 1095030, "key_press": 40, "type": "INSTRUCTIONS", "trial_index": 172}, "uniqueid": "MTK2916:39ASUFLU6YEB4K6HKHNQQY9KD2VXER", "dateTime": 1519588188929}, {"current_trial": 173, "trialdata": {"rt": [3134, 5453, 7541, 11326], "trial_type": "math-distractor", "key_times": [2758, 3109, 3134, 5037, 5261, 5453, 6805, 7045, 7541, 10766, 10998, 11326], "responses": ["10", "16", "13", "15"], "num2": [1, 3, 3, 3, 6], "num3": [1, 8, 3, 9, 6], "conditions": [24, 1600, "a", 12000], "internal_node_id": "0.0-128.0", "key_presses": [97, 96, 13, 49, 54, 13, 49, 51, 13, 49, 53, 13], "trial": 5, "time_elapsed": 1109031, "type": "DISTRACTOR", "trial_index": 173, "num1": [8, 5, 7, 3, 1]}, "uniqueid": "MTK2916:39ASUFLU6YEB4K6HKHNQQY9KD2VXER", "dateTime": 1519588202930}, {"current_trial": 174, "trialdata": {"rt": -1, "trial_type": "single-stim", "stimulus": "<p id=\"stim\">10</p>", "internal_node_id": "0.0-129.0-0.0", "time_elapsed": 1112031, "key_press": -1, "trial_index": 174}, "uniqueid": "MTK2916:39ASUFLU6YEB4K6HKHNQQY9KD2VXER", "dateTime": 1519588205930}, {"current_trial": 175, "trialdata": {"rt": -1, "trial_type": "single-stim", "stimulus": "<p id=\"stim\">9</p>", "internal_node_id": "0.0-129.0-1.0", "time_elapsed": 1113031, "key_press": -1, "trial_index": 175}, "uniqueid": "MTK2916:39ASUFLU6YEB4K6HKHNQQY9KD2VXER", "dateTime": 1519588206930}, {"current_trial": 176, "trialdata": {"rt": -1, "trial_type": "single-stim", "stimulus": "<p id=\"stim\">8</p>", "internal_node_id": "0.0-129.0-2.0", "time_elapsed": 1114069, "key_press": -1, "trial_index": 176}, "uniqueid": "MTK2916:39ASUFLU6YEB4K6HKHNQQY9KD2VXER", "dateTime": 1519588207968}, {"current_trial": 177, "trialdata": {"rt": -1, "trial_type": "single-stim", "stimulus": "<p id=\"stim\">7</p>", "internal_node_id": "0.0-129.0-3.0", "time_elapsed": 1115069, "key_press": -1, "trial_index": 177}, "uniqueid": "MTK2916:39ASUFLU6YEB4K6HKHNQQY9KD2VXER", "dateTime": 1519588208968}, {"current_trial": 178, "trialdata": {"rt": -1, "trial_type": "single-stim", "stimulus": "<p id=\"stim\">6</p>", "internal_node_id": "0.0-129.0-4.0", "time_elapsed": 1116069, "key_press": -1, "trial_index": 178}, "uniqueid": "MTK2916:39ASUFLU6YEB4K6HKHNQQY9KD2VXER", "dateTime": 1519588209968}, {"current_trial": 179, "trialdata": {"rt": -1, "trial_type": "single-stim", "stimulus": "<p id=\"stim\">5</p>", "internal_node_id": "0.0-129.0-5.0", "time_elapsed": 1117069, "key_press": -1, "trial_index": 179}, "uniqueid": "MTK2916:39ASUFLU6YEB4K6HKHNQQY9KD2VXER", "dateTime": 1519588210968}, {"current_trial": 180, "trialdata": {"rt": -1, "trial_type": "single-stim", "stimulus": "<p id=\"stim\">4</p>", "internal_node_id": "0.0-129.0-6.0", "time_elapsed": 1118069, "key_press": -1, "trial_index": 180}, "uniqueid": "MTK2916:39ASUFLU6YEB4K6HKHNQQY9KD2VXER", "dateTime": 1519588211968}, {"current_trial": 181, "trialdata": {"rt": -1, "trial_type": "single-stim", "stimulus": "<p id=\"stim\">3</p>", "internal_node_id": "0.0-129.0-7.0", "time_elapsed": 1119069, "key_press": -1, "trial_index": 181}, "uniqueid": "MTK2916:39ASUFLU6YEB4K6HKHNQQY9KD2VXER", "dateTime": 1519588212968}, {"current_trial": 182, "trialdata": {"rt": -1, "trial_type": "single-stim", "stimulus": "<p id=\"stim\">2</p>", "internal_node_id": "0.0-129.0-8.0", "time_elapsed": 1120069, "key_press": -1, "trial_index": 182}, "uniqueid": "MTK2916:39ASUFLU6YEB4K6HKHNQQY9KD2VXER", "dateTime": 1519588213968}, {"current_trial": 183, "trialdata": {"rt": -1, "trial_type": "single-stim", "stimulus": "<p id=\"stim\">1</p>", "internal_node_id": "0.0-129.0-9.0", "time_elapsed": 1121110, "key_press": -1, "trial_index": 183}, "uniqueid": "MTK2916:39ASUFLU6YEB4K6HKHNQQY9KD2VXER", "dateTime": 1519588215009}, {"current_trial": 184, "trialdata": {"rt": -1, "trial_type": "single-stim", "stimulus": "<p id=\"stim\">+</p>", "internal_node_id": "0.0-130.0-0.0", "time_elapsed": 1122610, "key_press": -1, "type": "FIXATION", "trial_index": 184}, "uniqueid": "MTK2916:39ASUFLU6YEB4K6HKHNQQY9KD2VXER", "dateTime": 1519588216509}, {"current_trial": 185, "trialdata": {"rt": -1000, "trial_type": "single-audio", "word": "turtle", "stimulus": "/static/audio/wordpool/TURTLE.wav", "conditions": [24, 1600, "a", 12000], "internal_node_id": "0.0-131.0", "trial": 5, "time_elapsed": 1125182, "serialpos": 0, "key_press": -1, "wordID": 1521, "type": "PRES_AUD", "trial_index": 185}, "uniqueid": "MTK2916:39ASUFLU6YEB4K6HKHNQQY9KD2VXER", "dateTime": 1519588219081}, {"current_trial": 186, "trialdata": {"rt": -1000, "trial_type": "single-audio", "word": "dolphin", "stimulus": "/static/audio/wordpool/DOLPHIN.wav", "conditions": [24, 1600, "a", 12000], "internal_node_id": "0.0-132.0", "trial": 5, "time_elapsed": 1127896, "serialpos": 1, "key_press": -1, "wordID": 482, "type": "PRES_AUD", "trial_index": 186}, "uniqueid": "MTK2916:39ASUFLU6YEB4K6HKHNQQY9KD2VXER", "dateTime": 1519588221795}, {"current_trial": 187, "trialdata": {"rt": -1000, "trial_type": "single-audio", "word": "spouse", "stimulus": "/static/audio/wordpool/SPOUSE.wav", "conditions": [24, 1600, "a", 12000], "internal_node_id": "0.0-133.0", "trial": 5, "time_elapsed": 1130530, "serialpos": 2, "key_press": -1, "wordID": 1357, "type": "PRES_AUD", "trial_index": 187}, "uniqueid": "MTK2916:39ASUFLU6YEB4K6HKHNQQY9KD2VXER", "dateTime": 1519588224429}, {"current_trial": 188, "trialdata": {"rt": -1000, "trial_type": "single-audio", "word": "inmate", "stimulus": "/static/audio/wordpool/INMATE.wav", "conditions": [24, 1600, "a", 12000], "internal_node_id": "0.0-134.0", "trial": 5, "time_elapsed": 1133286, "serialpos": 3, "key_press": -1, "wordID": 737, "type": "PRES_AUD", "trial_index": 188}, "uniqueid": "MTK2916:39ASUFLU6YEB4K6HKHNQQY9KD2VXER", "dateTime": 1519588227185}, {"current_trial": 189, "trialdata": {"rt": -1000, "trial_type": "single-audio", "word": "machine", "stimulus": "/static/audio/wordpool/MACHINE.wav", "conditions": [24, 1600, "a", 12000], "internal_node_id": "0.0-135.0", "trial": 5, "time_elapsed": 1135743, "serialpos": 4, "key_press": -1, "wordID": 851, "type": "PRES_AUD", "trial_index": 189}, "uniqueid": "MTK2916:39ASUFLU6YEB4K6HKHNQQY9KD2VXER", "dateTime": 1519588229642}, {"current_trial": 190, "trialdata": {"rt": -1000, "trial_type": "single-audio", "word": "tunnel", "stimulus": "/static/audio/wordpool/TUNNEL.wav", "conditions": [24, 1600, "a", 12000], "internal_node_id": "0.0-136.0", "trial": 5, "time_elapsed": 1138336, "serialpos": 5, "key_press": -1, "wordID": 1518, "type": "PRES_AUD", "trial_index": 190}, "uniqueid": "MTK2916:39ASUFLU6YEB4K6HKHNQQY9KD2VXER", "dateTime": 1519588232235}, {"current_trial": 191, "trialdata": {"rt": -1000, "trial_type": "single-audio", "word": "uncle", "stimulus": "/static/audio/wordpool/UNCLE.wav", "conditions": [24, 1600, "a", 12000], "internal_node_id": "0.0-137.0", "trial": 5, "time_elapsed": 1140833, "serialpos": 6, "key_press": -1, "wordID": 1535, "type": "PRES_AUD", "trial_index": 191}, "uniqueid": "MTK2916:39ASUFLU6YEB4K6HKHNQQY9KD2VXER", "dateTime": 1519588234732}, {"current_trial": 192, "trialdata": {"rt": -1000, "trial_type": "single-audio", "word": "wife", "stimulus": "/static/audio/wordpool/WIFE.wav", "conditions": [24, 1600, "a", 12000], "internal_node_id": "0.0-138.0", "trial": 5, "time_elapsed": 1143496, "serialpos": 7, "key_press": -1, "wordID": 1608, "type": "PRES_AUD", "trial_index": 192}, "uniqueid": "MTK2916:39ASUFLU6YEB4K6HKHNQQY9KD2VXER", "dateTime": 1519588237395}, {"current_trial": 193, "trialdata": {"rt": -1000, "trial_type": "single-audio", "word": "outdoors", "stimulus": "/static/audio/wordpool/OUTDOORS.wav", "conditions": [24, 1600, "a", 12000], "internal_node_id": "0.0-139.0", "trial": 5, "time_elapsed": 1146100, "serialpos": 8, "key_press": -1, "wordID": 986, "type": "PRES_AUD", "trial_index": 193}, "uniqueid": "MTK2916:39ASUFLU6YEB4K6HKHNQQY9KD2VXER", "dateTime": 1519588239999}, {"current_trial": 194, "trialdata": {"rt": -1000, "trial_type": "single-audio", "word": "mildew", "stimulus": "/static/audio/wordpool/MILDEW.wav", "conditions": [24, 1600, "a", 12000], "internal_node_id": "0.0-140.0", "trial": 5, "time_elapsed": 1148631, "serialpos": 9, "key_press": -1, "wordID": 892, "type": "PRES_AUD", "trial_index": 194}, "uniqueid": "MTK2916:39ASUFLU6YEB4K6HKHNQQY9KD2VXER", "dateTime": 1519588242530}, {"current_trial": 195, "trialdata": {"rt": -1000, "trial_type": "single-audio", "word": "portrait", "stimulus": "/static/audio/wordpool/PORTRAIT.wav", "conditions": [24, 1600, "a", 12000], "internal_node_id": "0.0-141.0", "trial": 5, "time_elapsed": 1151418, "serialpos": 10, "key_press": -1, "wordID": 1110, "type": "PRES_AUD", "trial_index": 195}, "uniqueid": "MTK2916:39ASUFLU6YEB4K6HKHNQQY9KD2VXER", "dateTime": 1519588245317}, {"current_trial": 196, "trialdata": {"rt": -1000, "trial_type": "single-audio", "word": "jello", "stimulus": "/static/audio/wordpool/JELLO.wav", "conditions": [24, 1600, "a", 12000], "internal_node_id": "0.0-142.0", "trial": 5, "time_elapsed": 1154082, "serialpos": 11, "key_press": -1, "wordID": 753, "type": "PRES_AUD", "trial_index": 196}, "uniqueid": "MTK2916:39ASUFLU6YEB4K6HKHNQQY9KD2VXER", "dateTime": 1519588247981}, {"current_trial": 197, "trialdata": {"rt": -1000, "trial_type": "single-audio", "word": "barley", "stimulus": "/static/audio/wordpool/BARLEY.wav", "conditions": [24, 1600, "a", 12000], "internal_node_id": "0.0-143.0", "trial": 5, "time_elapsed": 1156634, "serialpos": 12, "key_press": -1, "wordID": 87, "type": "PRES_AUD", "trial_index": 197}, "uniqueid": "MTK2916:39ASUFLU6YEB4K6HKHNQQY9KD2VXER", "dateTime": 1519588250533}, {"current_trial": 198, "trialdata": {"rt": -1000, "trial_type": "single-audio", "word": "donor", "stimulus": "/static/audio/wordpool/DONOR.wav", "conditions": [24, 1600, "a", 12000], "internal_node_id": "0.0-144.0", "trial": 5, "time_elapsed": 1159072, "serialpos": 13, "key_press": -1, "wordID": 484, "type": "PRES_AUD", "trial_index": 198}, "uniqueid": "MTK2916:39ASUFLU6YEB4K6HKHNQQY9KD2VXER", "dateTime": 1519588252971}, {"current_trial": 199, "trialdata": {"rt": -1000, "trial_type": "single-audio", "word": "catcher", "stimulus": "/static/audio/wordpool/CATCHER.wav", "conditions": [24, 1600, "a", 12000], "internal_node_id": "0.0-145.0", "trial": 5, "time_elapsed": 1161666, "serialpos": 14, "key_press": -1, "wordID": 257, "type": "PRES_AUD", "trial_index": 199}, "uniqueid": "MTK2916:39ASUFLU6YEB4K6HKHNQQY9KD2VXER", "dateTime": 1519588255565}, {"current_trial": 200, "trialdata": {"rt": -1000, "trial_type": "single-audio", "word": "cook", "stimulus": "/static/audio/wordpool/COOK.wav", "conditions": [24, 1600, "a", 12000], "internal_node_id": "0.0-146.0", "trial": 5, "time_elapsed": 1164267, "serialpos": 15, "key_press": -1, "wordID": 371, "type": "PRES_AUD", "trial_index": 200}, "uniqueid": "MTK2916:39ASUFLU6YEB4K6HKHNQQY9KD2VXER", "dateTime": 1519588258166}, {"current_trial": 201, "trialdata": {"rt": -1000, "trial_type": "single-audio", "word": "kitchen", "stimulus": "/static/audio/wordpool/KITCHEN.wav", "conditions": [24, 1600, "a", 12000], "internal_node_id": "0.0-147.0", "trial": 5, "time_elapsed": 1166677, "serialpos": 16, "key_press": -1, "wordID": 777, "type": "PRES_AUD", "trial_index": 201}, "uniqueid": "MTK2916:39ASUFLU6YEB4K6HKHNQQY9KD2VXER", "dateTime": 1519588260576}, {"current_trial": 202, "trialdata": {"rt": -1000, "trial_type": "single-audio", "word": "grape", "stimulus": "/static/audio/wordpool/GRAPE.wav", "conditions": [24, 1600, "a", 12000], "internal_node_id": "0.0-148.0", "trial": 5, "time_elapsed": 1169295, "serialpos": 17, "key_press": -1, "wordID": 653, "type": "PRES_AUD", "trial_index": 202}, "uniqueid": "MTK2916:39ASUFLU6YEB4K6HKHNQQY9KD2VXER", "dateTime": 1519588263194}, {"current_trial": 203, "trialdata": {"rt": -1000, "trial_type": "single-audio", "word": "banquet", "stimulus": "/static/audio/wordpool/BANQUET.wav", "conditions": [24, 1600, "a", 12000], "internal_node_id": "0.0-149.0", "trial": 5, "time_elapsed": 1171740, "serialpos": 18, "key_press": -1, "wordID": 85, "type": "PRES_AUD", "trial_index": 203}, "uniqueid": "MTK2916:39ASUFLU6YEB4K6HKHNQQY9KD2VXER", "dateTime": 1519588265639}, {"current_trial": 204, "trialdata": {"rt": -1000, "trial_type": "single-audio", "word": "author", "stimulus": "/static/audio/wordpool/AUTHOR.wav", "conditions": [24, 1600, "a", 12000], "internal_node_id": "0.0-150.0", "trial": 5, "time_elapsed": 1174197, "serialpos": 19, "key_press": -1, "wordID": 60, "type": "PRES_AUD", "trial_index": 204}, "uniqueid": "MTK2916:39ASUFLU6YEB4K6HKHNQQY9KD2VXER", "dateTime": 1519588268096}, {"current_trial": 205, "trialdata": {"rt": -1000, "trial_type": "single-audio", "word": "receipt", "stimulus": "/static/audio/wordpool/RECEIPT.wav", "conditions": [24, 1600, "a", 12000], "internal_node_id": "0.0-151.0", "trial": 5, "time_elapsed": 1176927, "serialpos": 20, "key_press": -1, "wordID": 1172, "type": "PRES_AUD", "trial_index": 205}, "uniqueid": "MTK2916:39ASUFLU6YEB4K6HKHNQQY9KD2VXER", "dateTime": 1519588270826}, {"current_trial": 206, "trialdata": {"rt": -1000, "trial_type": "single-audio", "word": "stamp", "stimulus": "/static/audio/wordpool/STAMP.wav", "conditions": [24, 1600, "a", 12000], "internal_node_id": "0.0-152.0", "trial": 5, "time_elapsed": 1179714, "serialpos": 21, "key_press": -1, "wordID": 1369, "type": "PRES_AUD", "trial_index": 206}, "uniqueid": "MTK2916:39ASUFLU6YEB4K6HKHNQQY9KD2VXER", "dateTime": 1519588273613}, {"current_trial": 207, "trialdata": {"rt": -1000, "trial_type": "single-audio", "word": "guitar", "stimulus": "/static/audio/wordpool/GUITAR.wav", "conditions": [24, 1600, "a", 12000], "internal_node_id": "0.0-153.0", "trial": 5, "time_elapsed": 1182204, "serialpos": 22, "key_press": -1, "wordID": 669, "type": "PRES_AUD", "trial_index": 207}, "uniqueid": "MTK2916:39ASUFLU6YEB4K6HKHNQQY9KD2VXER", "dateTime": 1519588276103}, {"current_trial": 208, "trialdata": {"rt": -1000, "trial_type": "single-audio", "word": "valley", "stimulus": "/static/audio/wordpool/VALLEY.wav", "conditions": [24, 1600, "a", 12000], "internal_node_id": "0.0-154.0", "trial": 5, "time_elapsed": 1184800, "serialpos": 23, "key_press": -1, "wordID": 1544, "type": "PRES_AUD", "trial_index": 208}, "uniqueid": "MTK2916:39ASUFLU6YEB4K6HKHNQQY9KD2VXER", "dateTime": 1519588278699}, {"current_trial": 209, "trialdata": {"rt": -1, "trial_type": "single-stim", "stimulus": "", "internal_node_id": "0.0-155.0-0.0", "time_elapsed": 1186141, "key_press": -1, "type": "PRE_RECALL_DELAY", "trial_index": 209}, "uniqueid": "MTK2916:39ASUFLU6YEB4K6HKHNQQY9KD2VXER", "dateTime": 1519588280040}, {"current_trial": 210, "trialdata": {"rt": -1000, "trial_type": "single-audio", "stimulus": "/static/audio/400Hz.wav", "internal_node_id": "0.0-156.0", "time_elapsed": 1186641, "key_press": -1, "type": "PRE_RECALL_ALERT", "trial_index": 210}, "uniqueid": "MTK2916:39ASUFLU6YEB4K6HKHNQQY9KD2VXER", "dateTime": 1519588280540}, {"current_trial": 211, "trialdata": {"rt": [1794, 3530, 4394, 5402, 6289], "recwords": ["grape", "banquet", "stamp", "guitar", "valley"], "key_times": [1082, 1286, 1346, 1450, 1546, 1794, 2234, 2330, 2522, 2778, 2922, 2994, 3122, 3530, 3786, 3898, 3994, 4074, 4154, 4394, 4578, 4783, 4783, 4834, 4962, 5026, 5402, 5569, 5657, 5753, 5889, 5945, 6073, 6289], "trial_type": "free-recall", "conditions": [24, 1600, "a", 12000], "internal_node_id": "0.0-157.0-0.0", "key_presses": [71, 82, 65, 80, 69, 13, 66, 65, 78, 81, 85, 69, 84, 13, 83, 84, 65, 77, 80, 13, 71, 85, 73, 84, 65, 82, 13, 86, 65, 76, 76, 69, 89, 13], "trial": 5, "time_elapsed": 1246641, "type": "FREE_RECALL", "trial_index": 211}, "uniqueid": "MTK2916:39ASUFLU6YEB4K6HKHNQQY9KD2VXER", "dateTime": 1519588340543}, {"current_trial": 212, "trialdata": {"rt": 1134, "trial_type": "text", "internal_node_id": "0.0-158.0", "time_elapsed": 1249779, "key_press": 32, "type": "INSTRUCTIONS", "trial_index": 212}, "uniqueid": "MTK2916:39ASUFLU6YEB4K6HKHNQQY9KD2VXER", "dateTime": 1519588343678}, {"current_trial": 213, "trialdata": {"rt": [2638, 6157, 8069, 11437, 13454, 15478, 17150, 20681, 23749], "trial_type": "math-distractor", "key_times": [2230, 2462, 2638, 5558, 5629, 6157, 7685, 7845, 8069, 11037, 11269, 11437, 13062, 13450, 13454, 15302, 15478, 16934, 17014, 17150, 20022, 20357, 20681, 23445, 23589, 23749], "responses": ["16", "19", "13", "16", "16", "9", "16", "16", "22"], "num2": [1, 9, 1, 4, 9, 4, 2, 4, 6, 6], "num3": [9, 7, 3, 7, 1, 1, 6, 3, 8, 6], "conditions": [12, 800, "a", 24000], "internal_node_id": "0.0-159.0", "key_presses": [49, 54, 13, 49, 57, 13, 49, 51, 13, 49, 54, 13, 49, 54, 13, 57, 13, 49, 54, 13, 49, 54, 13, 50, 50, 13], "trial": 6, "time_elapsed": 1275981, "type": "DISTRACTOR", "trial_index": 213, "num1": [6, 3, 9, 5, 6, 4, 8, 9, 8, 8]}, "uniqueid": "MTK2916:39ASUFLU6YEB4K6HKHNQQY9KD2VXER", "dateTime": 1519588369880}, {"current_trial": 214, "trialdata": {"rt": -1, "trial_type": "single-stim", "stimulus": "<p id=\"stim\">10</p>", "internal_node_id": "0.0-160.0-0.0", "time_elapsed": 1278981, "key_press": -1, "trial_index": 214}, "uniqueid": "MTK2916:39ASUFLU6YEB4K6HKHNQQY9KD2VXER", "dateTime": 1519588372880}, {"current_trial": 215, "trialdata": {"rt": -1, "trial_type": "single-stim", "stimulus": "<p id=\"stim\">9</p>", "internal_node_id": "0.0-160.0-1.0", "time_elapsed": 1279981, "key_press": -1, "trial_index": 215}, "uniqueid": "MTK2916:39ASUFLU6YEB4K6HKHNQQY9KD2VXER", "dateTime": 1519588373880}, {"current_trial": 216, "trialdata": {"rt": -1, "trial_type": "single-stim", "stimulus": "<p id=\"stim\">8</p>", "internal_node_id": "0.0-160.0-2.0", "time_elapsed": 1280981, "key_press": -1, "trial_index": 216}, "uniqueid": "MTK2916:39ASUFLU6YEB4K6HKHNQQY9KD2VXER", "dateTime": 1519588374880}, {"current_trial": 217, "trialdata": {"rt": -1, "trial_type": "single-stim", "stimulus": "<p id=\"stim\">7</p>", "internal_node_id": "0.0-160.0-3.0", "time_elapsed": 1281981, "key_press": -1, "trial_index": 217}, "uniqueid": "MTK2916:39ASUFLU6YEB4K6HKHNQQY9KD2VXER", "dateTime": 1519588375880}, {"current_trial": 218, "trialdata": {"rt": -1, "trial_type": "single-stim", "stimulus": "<p id=\"stim\">6</p>", "internal_node_id": "0.0-160.0-4.0", "time_elapsed": 1282981, "key_press": -1, "trial_index": 218}, "uniqueid": "MTK2916:39ASUFLU6YEB4K6HKHNQQY9KD2VXER", "dateTime": 1519588376880}, {"current_trial": 219, "trialdata": {"rt": -1, "trial_type": "single-stim", "stimulus": "<p id=\"stim\">5</p>", "internal_node_id": "0.0-160.0-5.0", "time_elapsed": 1283981, "key_press": -1, "trial_index": 219}, "uniqueid": "MTK2916:39ASUFLU6YEB4K6HKHNQQY9KD2VXER", "dateTime": 1519588377880}, {"current_trial": 220, "trialdata": {"rt": -1, "trial_type": "single-stim", "stimulus": "<p id=\"stim\">4</p>", "internal_node_id": "0.0-160.0-6.0", "time_elapsed": 1284981, "key_press": -1, "trial_index": 220}, "uniqueid": "MTK2916:39ASUFLU6YEB4K6HKHNQQY9KD2VXER", "dateTime": 1519588378880}, {"current_trial": 221, "trialdata": {"rt": -1, "trial_type": "single-stim", "stimulus": "<p id=\"stim\">3</p>", "internal_node_id": "0.0-160.0-7.0", "time_elapsed": 1285981, "key_press": -1, "trial_index": 221}, "uniqueid": "MTK2916:39ASUFLU6YEB4K6HKHNQQY9KD2VXER", "dateTime": 1519588379880}, {"current_trial": 222, "trialdata": {"rt": -1, "trial_type": "single-stim", "stimulus": "<p id=\"stim\">2</p>", "internal_node_id": "0.0-160.0-8.0", "time_elapsed": 1286981, "key_press": -1, "trial_index": 222}, "uniqueid": "MTK2916:39ASUFLU6YEB4K6HKHNQQY9KD2VXER", "dateTime": 1519588380880}, {"current_trial": 223, "trialdata": {"rt": -1, "trial_type": "single-stim", "stimulus": "<p id=\"stim\">1</p>", "internal_node_id": "0.0-160.0-9.0", "time_elapsed": 1287981, "key_press": -1, "trial_index": 223}, "uniqueid": "MTK2916:39ASUFLU6YEB4K6HKHNQQY9KD2VXER", "dateTime": 1519588381880}, {"current_trial": 224, "trialdata": {"rt": -1, "trial_type": "single-stim", "stimulus": "<p id=\"stim\">+</p>", "internal_node_id": "0.0-161.0-0.0", "time_elapsed": 1289481, "key_press": -1, "type": "FIXATION", "trial_index": 224}, "uniqueid": "MTK2916:39ASUFLU6YEB4K6HKHNQQY9KD2VXER", "dateTime": 1519588383380}, {"current_trial": 225, "trialdata": {"rt": -1000, "trial_type": "single-audio", "word": "expert", "stimulus": "/static/audio/wordpool/EXPERT.wav", "conditions": [12, 800, "a", 24000], "internal_node_id": "0.0-162.0", "trial": 6, "time_elapsed": 1291242, "serialpos": 0, "key_press": -1, "wordID": 542, "type": "PRES_AUD", "trial_index": 225}, "uniqueid": "MTK2916:39ASUFLU6YEB4K6HKHNQQY9KD2VXER", "dateTime": 1519588385141}, {"current_trial": 226, "trialdata": {"rt": -1000, "trial_type": "single-audio", "word": "swimmer", "stimulus": "/static/audio/wordpool/SWIMMER.wav", "conditions": [12, 800, "a", 24000], "internal_node_id": "0.0-163.0", "trial": 6, "time_elapsed": 1293189, "serialpos": 1, "key_press": -1, "wordID": 1419, "type": "PRES_AUD", "trial_index": 226}, "uniqueid": "MTK2916:39ASUFLU6YEB4K6HKHNQQY9KD2VXER", "dateTime": 1519588387088}, {"current_trial": 227, "trialdata": {"rt": -1000, "trial_type": "single-audio", "word": "diver", "stimulus": "/static/audio/wordpool/DIVER.wav", "conditions": [12, 800, "a", 24000], "internal_node_id": "0.0-164.0", "trial": 6, "time_elapsed": 1294989, "serialpos": 2, "key_press": -1, "wordID": 475, "type": "PRES_AUD", "trial_index": 227}, "uniqueid": "MTK2916:39ASUFLU6YEB4K6HKHNQQY9KD2VXER", "dateTime": 1519588388888}, {"current_trial": 228, "trialdata": {"rt": -1000, "trial_type": "single-audio", "word": "rug", "stimulus": "/static/audio/wordpool/RUG.wav", "conditions": [12, 800, "a", 24000], "internal_node_id": "0.0-165.0", "trial": 6, "time_elapsed": 1296723, "serialpos": 3, "key_press": -1, "wordID": 1214, "type": "PRES_AUD", "trial_index": 228}, "uniqueid": "MTK2916:39ASUFLU6YEB4K6HKHNQQY9KD2VXER", "dateTime": 1519588390622}, {"current_trial": 229, "trialdata": {"rt": -1000, "trial_type": "single-audio", "word": "shortcake", "stimulus": "/static/audio/wordpool/SHORTCAKE.wav", "conditions": [12, 800, "a", 24000], "internal_node_id": "0.0-166.0", "trial": 6, "time_elapsed": 1298441, "serialpos": 4, "key_press": -1, "wordID": 1291, "type": "PRES_AUD", "trial_index": 229}, "uniqueid": "MTK2916:39ASUFLU6YEB4K6HKHNQQY9KD2VXER", "dateTime": 1519588392340}, {"current_trial": 230, "trialdata": {"rt": -1000, "trial_type": "single-audio", "word": "shovel", "stimulus": "/static/audio/wordpool/SHOVEL.wav", "conditions": [12, 800, "a", 24000], "internal_node_id": "0.0-167.0", "trial": 6, "time_elapsed": 1300231, "serialpos": 5, "key_press": -1, "wordID": 1294, "type": "PRES_AUD", "trial_index": 230}, "uniqueid": "MTK2916:39ASUFLU6YEB4K6HKHNQQY9KD2VXER", "dateTime": 1519588394130}, {"current_trial": 231, "trialdata": {"rt": -1000, "trial_type": "single-audio", "word": "slime", "stimulus": "/static/audio/wordpool/SLIME.wav", "conditions": [12, 800, "a", 24000], "internal_node_id": "0.0-168.0", "trial": 6, "time_elapsed": 1302221, "serialpos": 6, "key_press": -1, "wordID": 1326, "type": "PRES_AUD", "trial_index": 231}, "uniqueid": "MTK2916:39ASUFLU6YEB4K6HKHNQQY9KD2VXER", "dateTime": 1519588396120}, {"current_trial": 232, "trialdata": {"rt": -1000, "trial_type": "single-audio", "word": "silk", "stimulus": "/static/audio/wordpool/SILK.wav", "conditions": [12, 800, "a", 24000], "internal_node_id": "0.0-169.0", "trial": 6, "time_elapsed": 1303924, "serialpos": 7, "key_press": -1, "wordID": 1306, "type": "PRES_AUD", "trial_index": 232}, "uniqueid": "MTK2916:39ASUFLU6YEB4K6HKHNQQY9KD2VXER", "dateTime": 1519588397823}, {"current_trial": 233, "trialdata": {"rt": -1000, "trial_type": "single-audio", "word": "knapsack", "stimulus": "/static/audio/wordpool/KNAPSACK.wav", "conditions": [12, 800, "a", 24000], "internal_node_id": "0.0-170.0", "trial": 6, "time_elapsed": 1305664, "serialpos": 8, "key_press": -1, "wordID": 782, "type": "PRES_AUD", "trial_index": 233}, "uniqueid": "MTK2916:39ASUFLU6YEB4K6HKHNQQY9KD2VXER", "dateTime": 1519588399563}, {"current_trial": 234, "trialdata": {"rt": -1000, "trial_type": "single-audio", "word": "salad", "stimulus": "/static/audio/wordpool/SALAD.wav", "conditions": [12, 800, "a", 24000], "internal_node_id": "0.0-171.0", "trial": 6, "time_elapsed": 1307371, "serialpos": 9, "key_press": -1, "wordID": 1223, "type": "PRES_AUD", "trial_index": 234}, "uniqueid": "MTK2916:39ASUFLU6YEB4K6HKHNQQY9KD2VXER", "dateTime": 1519588401270}, {"current_trial": 235, "trialdata": {"rt": -1000, "trial_type": "single-audio", "word": "agent", "stimulus": "/static/audio/wordpool/AGENT.wav", "conditions": [12, 800, "a", 24000], "internal_node_id": "0.0-172.0", "trial": 6, "time_elapsed": 1309230, "serialpos": 10, "key_press": -1, "wordID": 9, "type": "PRES_AUD", "trial_index": 235}, "uniqueid": "MTK2916:39ASUFLU6YEB4K6HKHNQQY9KD2VXER", "dateTime": 1519588403129}, {"current_trial": 236, "trialdata": {"rt": -1000, "trial_type": "single-audio", "word": "bubble", "stimulus": "/static/audio/wordpool/BUBBLE.wav", "conditions": [12, 800, "a", 24000], "internal_node_id": "0.0-173.0", "trial": 6, "time_elapsed": 1311351, "serialpos": 11, "key_press": -1, "wordID": 182, "type": "PRES_AUD", "trial_index": 236}, "uniqueid": "MTK2916:39ASUFLU6YEB4K6HKHNQQY9KD2VXER", "dateTime": 1519588405250}, {"current_trial": 237, "trialdata": {"rt": -1, "trial_type": "single-stim", "stimulus": "", "internal_node_id": "0.0-174.0-0.0", "time_elapsed": 1312715, "key_press": -1, "type": "PRE_RECALL_DELAY", "trial_index": 237}, "uniqueid": "MTK2916:39ASUFLU6YEB4K6HKHNQQY9KD2VXER", "dateTime": 1519588406614}, {"current_trial": 238, "trialdata": {"rt": -1000, "trial_type": "single-audio", "stimulus": "/static/audio/400Hz.wav", "internal_node_id": "0.0-175.0", "time_elapsed": 1313215, "key_press": -1, "type": "PRE_RECALL_ALERT", "trial_index": 238}, "uniqueid": "MTK2916:39ASUFLU6YEB4K6HKHNQQY9KD2VXER", "dateTime": 1519588407114}, {"current_trial": 239, "trialdata": {"rt": [5609, 6809, 7641, 9417, 10585, 11504, 12512], "recwords": ["expert", "swimmer", "diver", "rug", "salad", "agent", "bubble"], "key_times": [3690, 3889, 3905, 4337, 4521, 4633, 4705, 4921, 5177, 5251, 5609, 5753, 6041, 6153, 6249, 6377, 6457, 6505, 6809, 6953, 7089, 7169, 7289, 7385, 7641, 7905, 8129, 8605, 9417, 9608, 9688, 9832, 9913, 10056, 10585, 10832, 10984, 11056, 11200, 11312, 11504, 11672, 11800, 11880, 12108, 12113, 12216, 12512], "trial_type": "free-recall", "conditions": [12, 800, "a", 24000], "internal_node_id": "0.0-176.0-0.0", "key_presses": [69, 88, 67, 8, 80, 69, 82, 67, 8, 84, 13, 83, 87, 73, 77, 77, 69, 82, 13, 68, 73, 86, 69, 82, 13, 82, 85, 71, 13, 83, 65, 76, 65, 68, 13, 65, 71, 69, 78, 84, 13, 66, 85, 66, 66, 76, 69, 13], "trial": 6, "time_elapsed": 1373216, "type": "FREE_RECALL", "trial_index": 239}, "uniqueid": "MTK2916:39ASUFLU6YEB4K6HKHNQQY9KD2VXER", "dateTime": 1519588467118}, {"current_trial": 240, "trialdata": {"rt": 1101, "trial_type": "text", "internal_node_id": "0.0-177.0", "time_elapsed": 1376320, "key_press": 32, "type": "INSTRUCTIONS", "trial_index": 240}, "uniqueid": "MTK2916:39ASUFLU6YEB4K6HKHNQQY9KD2VXER", "dateTime": 1519588470219}, {"current_trial": 241, "trialdata": {"rt": [6670, 9910, 11798, 13958, 18926, 23901], "trial_type": "math-distractor", "key_times": [6430, 6526, 6670, 9615, 9718, 9910, 11454, 11558, 11798, 13638, 13872, 13958, 18614, 18742, 18926, 23686, 23901], "responses": ["13", "13", "12", "13", "13", "9"], "num2": [1, 2, 2, 6, 7, 6, 3], "num3": [6, 2, 1, 3, 1, 2, 2], "conditions": [24, 1600, "a", 24000], "internal_node_id": "0.0-178.0", "key_presses": [49, 51, 13, 49, 51, 13, 49, 50, 13, 49, 51, 13, 49, 51, 13, 57, 13], "trial": 7, "time_elapsed": 1402321, "type": "DISTRACTOR", "trial_index": 241, "num1": [7, 9, 9, 4, 5, 1, 4]}, "uniqueid": "MTK2916:39ASUFLU6YEB4K6HKHNQQY9KD2VXER", "dateTime": 1519588496220}, {"current_trial": 242, "trialdata": {"rt": -1, "trial_type": "single-stim", "stimulus": "<p id=\"stim\">10</p>", "internal_node_id": "0.0-179.0-0.0", "time_elapsed": 1405321, "key_press": -1, "trial_index": 242}, "uniqueid": "MTK2916:39ASUFLU6YEB4K6HKHNQQY9KD2VXER", "dateTime": 1519588499220}, {"current_trial": 243, "trialdata": {"rt": -1, "trial_type": "single-stim", "stimulus": "<p id=\"stim\">9</p>", "internal_node_id": "0.0-179.0-1.0", "time_elapsed": 1406321, "key_press": -1, "trial_index": 243}, "uniqueid": "MTK2916:39ASUFLU6YEB4K6HKHNQQY9KD2VXER", "dateTime": 1519588500220}, {"current_trial": 244, "trialdata": {"rt": -1, "trial_type": "single-stim", "stimulus": "<p id=\"stim\">8</p>", "internal_node_id": "0.0-179.0-2.0", "time_elapsed": 1407321, "key_press": -1, "trial_index": 244}, "uniqueid": "MTK2916:39ASUFLU6YEB4K6HKHNQQY9KD2VXER", "dateTime": 1519588501220}, {"current_trial": 245, "trialdata": {"rt": -1, "trial_type": "single-stim", "stimulus": "<p id=\"stim\">7</p>", "internal_node_id": "0.0-179.0-3.0", "time_elapsed": 1408321, "key_press": -1, "trial_index": 245}, "uniqueid": "MTK2916:39ASUFLU6YEB4K6HKHNQQY9KD2VXER", "dateTime": 1519588502220}, {"current_trial": 246, "trialdata": {"rt": -1, "trial_type": "single-stim", "stimulus": "<p id=\"stim\">6</p>", "internal_node_id": "0.0-179.0-4.0", "time_elapsed": 1409321, "key_press": -1, "trial_index": 246}, "uniqueid": "MTK2916:39ASUFLU6YEB4K6HKHNQQY9KD2VXER", "dateTime": 1519588503220}, {"current_trial": 247, "trialdata": {"rt": -1, "trial_type": "single-stim", "stimulus": "<p id=\"stim\">5</p>", "internal_node_id": "0.0-179.0-5.0", "time_elapsed": 1410321, "key_press": -1, "trial_index": 247}, "uniqueid": "MTK2916:39ASUFLU6YEB4K6HKHNQQY9KD2VXER", "dateTime": 1519588504220}, {"current_trial": 248, "trialdata": {"rt": -1, "trial_type": "single-stim", "stimulus": "<p id=\"stim\">4</p>", "internal_node_id": "0.0-179.0-6.0", "time_elapsed": 1411321, "key_press": -1, "trial_index": 248}, "uniqueid": "MTK2916:39ASUFLU6YEB4K6HKHNQQY9KD2VXER", "dateTime": 1519588505220}, {"current_trial": 249, "trialdata": {"rt": -1, "trial_type": "single-stim", "stimulus": "<p id=\"stim\">3</p>", "internal_node_id": "0.0-179.0-7.0", "time_elapsed": 1412321, "key_press": -1, "trial_index": 249}, "uniqueid": "MTK2916:39ASUFLU6YEB4K6HKHNQQY9KD2VXER", "dateTime": 1519588506220}, {"current_trial": 250, "trialdata": {"rt": -1, "trial_type": "single-stim", "stimulus": "<p id=\"stim\">2</p>", "internal_node_id": "0.0-179.0-8.0", "time_elapsed": 1413321, "key_press": -1, "trial_index": 250}, "uniqueid": "MTK2916:39ASUFLU6YEB4K6HKHNQQY9KD2VXER", "dateTime": 1519588507220}, {"current_trial": 251, "trialdata": {"rt": -1, "trial_type": "single-stim", "stimulus": "<p id=\"stim\">1</p>", "internal_node_id": "0.0-179.0-9.0", "time_elapsed": 1414321, "key_press": -1, "trial_index": 251}, "uniqueid": "MTK2916:39ASUFLU6YEB4K6HKHNQQY9KD2VXER", "dateTime": 1519588508220}, {"current_trial": 252, "trialdata": {"rt": -1, "trial_type": "single-stim", "stimulus": "<p id=\"stim\">+</p>", "internal_node_id": "0.0-180.0-0.0", "time_elapsed": 1415821, "key_press": -1, "type": "FIXATION", "trial_index": 252}, "uniqueid": "MTK2916:39ASUFLU6YEB4K6HKHNQQY9KD2VXER", "dateTime": 1519588509720}, {"current_trial": 253, "trialdata": {"rt": -1000, "trial_type": "single-audio", "word": "denim", "stimulus": "/static/audio/wordpool/DENIM.wav", "conditions": [24, 1600, "a", 24000], "internal_node_id": "0.0-181.0", "trial": 7, "time_elapsed": 1418313, "serialpos": 0, "key_press": -1, "wordID": 445, "type": "PRES_AUD", "trial_index": 253}, "uniqueid": "MTK2916:39ASUFLU6YEB4K6HKHNQQY9KD2VXER", "dateTime": 1519588512212}, {"current_trial": 254, "trialdata": {"rt": -1000, "trial_type": "single-audio", "word": "plaster", "stimulus": "/static/audio/wordpool/PLASTER.wav", "conditions": [24, 1600, "a", 24000], "internal_node_id": "0.0-182.0", "trial": 7, "time_elapsed": 1420832, "serialpos": 1, "key_press": -1, "wordID": 1084, "type": "PRES_AUD", "trial_index": 254}, "uniqueid": "MTK2916:39ASUFLU6YEB4K6HKHNQQY9KD2VXER", "dateTime": 1519588514731}, {"current_trial": 255, "trialdata": {"rt": -1000, "trial_type": "single-audio", "word": "drink", "stimulus": "/static/audio/wordpool/DRINK.wav", "conditions": [24, 1600, "a", 24000], "internal_node_id": "0.0-183.0", "trial": 7, "time_elapsed": 1423636, "serialpos": 2, "key_press": -1, "wordID": 497, "type": "PRES_AUD", "trial_index": 255}, "uniqueid": "MTK2916:39ASUFLU6YEB4K6HKHNQQY9KD2VXER", "dateTime": 1519588517535}, {"current_trial": 256, "trialdata": {"rt": -1000, "trial_type": "single-audio", "word": "chest", "stimulus": "/static/audio/wordpool/CHEST.wav", "conditions": [24, 1600, "a", 24000], "internal_node_id": "0.0-184.0", "trial": 7, "time_elapsed": 1426341, "serialpos": 3, "key_press": -1, "wordID": 294, "type": "PRES_AUD", "trial_index": 256}, "uniqueid": "MTK2916:39ASUFLU6YEB4K6HKHNQQY9KD2VXER", "dateTime": 1519588520240}, {"current_trial": 257, "trialdata": {"rt": -1000, "trial_type": "single-audio", "word": "sparrow", "stimulus": "/static/audio/wordpool/SPARROW.wav", "conditions": [24, 1600, "a", 24000], "internal_node_id": "0.0-185.0", "trial": 7, "time_elapsed": 1428925, "serialpos": 4, "key_press": -1, "wordID": 1346, "type": "PRES_AUD", "trial_index": 257}, "uniqueid": "MTK2916:39ASUFLU6YEB4K6HKHNQQY9KD2VXER", "dateTime": 1519588522824}, {"current_trial": 258, "trialdata": {"rt": -1000, "trial_type": "single-audio", "word": "plaid", "stimulus": "/static/audio/wordpool/PLAID.wav", "conditions": [24, 1600, "a", 24000], "internal_node_id": "0.0-186.0", "trial": 7, "time_elapsed": 1431598, "serialpos": 5, "key_press": -1, "wordID": 1079, "type": "PRES_AUD", "trial_index": 258}, 