{"assignmentId": "33M4IA01QH80DOBM6N7QP583SRNXR6", "workerId": "MTK2920", "questiondata": {"avail_screen_height": 738, "color_depth": 24, "screen_width": 1366, "pixel_depth": 24, "avail_screen_width": 1366, "screen_height": 768}, "bonus": 0, "hitId": "37SDSEDIN99KIYD3AJBHEVDDC8918B", "counterbalance": 810, "useragent": "Mozilla/5.0 (Windows NT 6.1; Win64; x64; rv:58.0) Gecko/20100101 Firefox/58.0", "eventdata": [{"eventtype": "initialized", "interval": 0, "value": null, "timestamp": 1519590713729}, {"eventtype": "window_resize", "interval": 0, "value": [1366, 767], "timestamp": 1519590713729}, {"eventtype": "window_resize", "interval": 3056, "value": [1366, 709], "timestamp": 1519590716785}, {"eventtype": "focus", "interval": 9331, "value": "off", "timestamp": 1519590726116}, {"eventtype": "focus", "interval": 549, "value": "on", "timestamp": 1519590726665}, {"eventtype": "focus", "interval": 327, "value": "off", "timestamp": 1519590726992}, {"eventtype": "focus", "interval": 725, "value": "on", "timestamp": 1519590727717}, {"eventtype": "focus", "interval": 344, "value": "off", "timestamp": 1519590728061}, {"eventtype": "focus", "interval": 718, "value": "on", "timestamp": 1519590728779}, {"eventtype": "window_resize", "interval": 3954, "value": [1366, 709], "timestamp": 1519590732733}, {"eventtype": "focus", "interval": 1249, "value": "off", "timestamp": 1519590733982}, {"eventtype": "focus", "interval": 37374, "value": "on", "timestamp": 1519590771356}, {"eventtype": "focus", "interval": 2463, "value": "off", "timestamp": 1519590773819}, {"eventtype": "focus", "interval": 2, "value": "on", "timestamp": 1519590773821}, {"eventtype": "window_resize", "interval": 49839, "value": [1366, 767], "timestamp": 1519590823660}, {"eventtype": "focus", "interval": 2152779, "value": "off", "timestamp": 1519592976439}, {"eventtype": "focus", "interval": 2955, "value": "on", "timestamp": 1519592979394}], "data": [{"current_trial": 0, "trialdata": {"rt": 23060, "trial_type": "text", "internal_node_id": "0.0-0.0", "time_elapsed": 23064, "key_press": 32, "type": "INSTRUCTIONS", "trial_index": 0}, "uniqueid": "MTK2920:33M4IA01QH80DOBM6N7QP583SRNXR6", "dateTime": 1519590775876}, {"current_trial": 1, "trialdata": {"rt": 4299, "trial_type": "text", "internal_node_id": "0.0-1.0", "time_elapsed": 27370, "key_press": 183, "type": "INSTRUCTIONS", "trial_index": 1}, "uniqueid": "MTK2920:33M4IA01QH80DOBM6N7QP583SRNXR6", "dateTime": 1519590780181}, {"current_trial": 2, "trialdata": {"rt": [10395], "trial_type": "audio-test", "responses": ["ocean"], "internal_node_id": "0.0-2.0", "time_elapsed": 37865, "type": "AUDIO_TEST", "trial_index": 2}, "uniqueid": "MTK2920:33M4IA01QH80DOBM6N7QP583SRNXR6", "dateTime": 1519590790676}, {"current_trial": 3, "trialdata": {"rt": [7391], "trial_type": "audio-test", "responses": ["crystal"], "internal_node_id": "0.0-3.0", "time_elapsed": 45296, "type": "AUDIO_TEST", "trial_index": 3}, "uniqueid": "MTK2920:33M4IA01QH80DOBM6N7QP583SRNXR6", "dateTime": 1519590798107}, {"current_trial": 4, "trialdata": {"rt": [4632], "trial_type": "audio-test", "responses": ["spice"], "internal_node_id": "0.0-4.0", "time_elapsed": 49951, "type": "AUDIO_TEST", "trial_index": 4}, "uniqueid": "MTK2920:33M4IA01QH80DOBM6N7QP583SRNXR6", "dateTime": 1519590802761}, {"current_trial": 5, "trialdata": {"rt": 14466, "trial_type": "survey-text", "responses": "{\"Q0\":\"11 pm\",\"Q1\":\"7 am\",\"Q2\":\"5\"}", "internal_node_id": "0.0-5.0", "time_elapsed": 65178, "type": "SLEEP_SURVEY", "trial_index": 5}, "uniqueid": "MTK2920:33M4IA01QH80DOBM6N7QP583SRNXR6", "dateTime": 1519590817989}, {"current_trial": 6, "trialdata": {"rt": 2894, "trial_type": "text", "internal_node_id": "0.0-6.0", "time_elapsed": 69085, "key_press": 122, "type": "INSTRUCTIONS", "trial_index": 6}, "uniqueid": "MTK2920:33M4IA01QH80DOBM6N7QP583SRNXR6", "dateTime": 1519590821895}, {"current_trial": 7, "trialdata": {"rt": 9361, "trial_type": "text", "internal_node_id": "0.0-7.0", "time_elapsed": 78951, "key_press": 32, "type": "INSTRUCTIONS", "trial_index": 7}, "uniqueid": "MTK2920:33M4IA01QH80DOBM6N7QP583SRNXR6", "dateTime": 1519590831762}, {"current_trial": 8, "trialdata": {"rt": 7890, "trial_type": "text", "internal_node_id": "0.0-8.0", "time_elapsed": 87351, "key_press": 32, "type": "INSTRUCTIONS", "trial_index": 8}, "uniqueid": "MTK2920:33M4IA01QH80DOBM6N7QP583SRNXR6", "dateTime": 1519590840161}, {"current_trial": 9, "trialdata": {"rt": [3205, 4629, 6145, 8879, 12016, 13814, 15413, 16973], "trial_type": "math-distractor", "key_times": [2690, 2912, 3205, 4264, 4378, 4629, 5537, 5681, 6145, 8352, 8558, 8879, 11543, 11684, 12016, 13524, 13814, 14958, 15183, 15413, 16594, 16709, 16973], "responses": ["17", "10", "11", "21", "22", "9", "13", "19"], "num2": [4, 2, 1, 6, 8, 1, 4, 9, 6], "num3": [6, 6, 9, 7, 5, 5, 2, 8, 6], "conditions": [18, 1200, "a", 18000], "internal_node_id": "0.0-9.0", "key_presses": [49, 55, 13, 49, 48, 13, 49, 49, 13, 50, 49, 13, 50, 50, 13, 57, 13, 49, 51, 13, 49, 57, 13], "trial": 0, "time_elapsed": 106380, "type": "DISTRACTOR", "trial_index": 9, "num1": [7, 2, 1, 8, 9, 3, 7, 2, 8]}, "uniqueid": "MTK2920:33M4IA01QH80DOBM6N7QP583SRNXR6", "dateTime": 1519590859191}, {"current_trial": 10, "trialdata": {"rt": -1, "trial_type": "single-stim", "stimulus": "<p id=\"stim\">10</p>", "internal_node_id": "0.0-10.0-0.0", "time_elapsed": 109399, "key_press": -1, "trial_index": 10}, "uniqueid": "MTK2920:33M4IA01QH80DOBM6N7QP583SRNXR6", "dateTime": 1519590862210}, {"current_trial": 11, "trialdata": {"rt": -1, "trial_type": "single-stim", "stimulus": "<p id=\"stim\">9</p>", "internal_node_id": "0.0-10.0-1.0", "time_elapsed": 110406, "key_press": -1, "trial_index": 11}, "uniqueid": "MTK2920:33M4IA01QH80DOBM6N7QP583SRNXR6", "dateTime": 1519590863217}, {"current_trial": 12, "trialdata": {"rt": -1, "trial_type": "single-stim", "stimulus": "<p id=\"stim\">8</p>", "internal_node_id": "0.0-10.0-2.0", "time_elapsed": 111415, "key_press": -1, "trial_index": 12}, "uniqueid": "MTK2920:33M4IA01QH80DOBM6N7QP583SRNXR6", "dateTime": 1519590864225}, {"current_trial": 13, "trialdata": {"rt": -1, "trial_type": "single-stim", "stimulus": "<p id=\"stim\">7</p>", "internal_node_id": "0.0-10.0-3.0", "time_elapsed": 112425, "key_press": -1, "trial_index": 13}, "uniqueid": "MTK2920:33M4IA01QH80DOBM6N7QP583SRNXR6", "dateTime": 1519590865235}, {"current_trial": 14, "trialdata": {"rt": -1, "trial_type": "single-stim", "stimulus": "<p id=\"stim\">6</p>", "internal_node_id": "0.0-10.0-4.0", "time_elapsed": 113434, "key_press": -1, "trial_index": 14}, "uniqueid": "MTK2920:33M4IA01QH80DOBM6N7QP583SRNXR6", "dateTime": 1519590866245}, {"current_trial": 15, "trialdata": {"rt": -1, "trial_type": "single-stim", "stimulus": "<p id=\"stim\">5</p>", "internal_node_id": "0.0-10.0-5.0", "time_elapsed": 114450, "key_press": -1, "trial_index": 15}, "uniqueid": "MTK2920:33M4IA01QH80DOBM6N7QP583SRNXR6", "dateTime": 1519590867260}, {"current_trial": 16, "trialdata": {"rt": -1, "trial_type": "single-stim", "stimulus": "<p id=\"stim\">4</p>", "internal_node_id": "0.0-10.0-6.0", "time_elapsed": 115457, "key_press": -1, "trial_index": 16}, "uniqueid": "MTK2920:33M4IA01QH80DOBM6N7QP583SRNXR6", "dateTime": 1519590868267}, {"current_trial": 17, "trialdata": {"rt": -1, "trial_type": "single-stim", "stimulus": "<p id=\"stim\">3</p>", "internal_node_id": "0.0-10.0-7.0", "time_elapsed": 116465, "key_press": -1, "trial_index": 17}, "uniqueid": "MTK2920:33M4IA01QH80DOBM6N7QP583SRNXR6", "dateTime": 1519590869276}, {"current_trial": 18, "trialdata": {"rt": -1, "trial_type": "single-stim", "stimulus": "<p id=\"stim\">2</p>", "internal_node_id": "0.0-10.0-8.0", "time_elapsed": 117474, "key_press": -1, "trial_index": 18}, "uniqueid": "MTK2920:33M4IA01QH80DOBM6N7QP583SRNXR6", "dateTime": 1519590870284}, {"current_trial": 19, "trialdata": {"rt": -1, "trial_type": "single-stim", "stimulus": "<p id=\"stim\">1</p>", "internal_node_id": "0.0-10.0-9.0", "time_elapsed": 118482, "key_press": -1, "trial_index": 19}, "uniqueid": "MTK2920:33M4IA01QH80DOBM6N7QP583SRNXR6", "dateTime": 1519590871293}, {"current_trial": 20, "trialdata": {"rt": -1, "trial_type": "single-stim", "stimulus": "<p id=\"stim\">+</p>", "internal_node_id": "0.0-11.0-0.0", "time_elapsed": 119996, "key_press": -1, "type": "FIXATION", "trial_index": 20}, "uniqueid": "MTK2920:33M4IA01QH80DOBM6N7QP583SRNXR6", "dateTime": 1519590872806}, {"current_trial": 21, "trialdata": {"rt": -1000, "trial_type": "single-audio", "word": "tunnel", "stimulus": "/static/audio/wordpool/TUNNEL.wav", "conditions": [18, 1200, "a", 18000], "internal_node_id": "0.0-12.0", "trial": 0, "time_elapsed": 122006, "serialpos": 0, "key_press": -1, "wordID": 1518, "type": "PRES_AUD", "trial_index": 21}, "uniqueid": "MTK2920:33M4IA01QH80DOBM6N7QP583SRNXR6", "dateTime": 1519590874817}, {"current_trial": 22, "trialdata": {"rt": -1000, "trial_type": "single-audio", "word": "ground", "stimulus": "/static/audio/wordpool/GROUND.wav", "conditions": [18, 1200, "a", 18000], "internal_node_id": "0.0-13.0", "trial": 0, "time_elapsed": 124136, "serialpos": 1, "key_press": -1, "wordID": 665, "type": "PRES_AUD", "trial_index": 22}, "uniqueid": "MTK2920:33M4IA01QH80DOBM6N7QP583SRNXR6", "dateTime": 1519590876947}, {"current_trial": 23, "trialdata": {"rt": -1000, "trial_type": "single-audio", "word": "paddle", "stimulus": "/static/audio/wordpool/PADDLE.wav", "conditions": [18, 1200, "a", 18000], "internal_node_id": "0.0-14.0", "trial": 0, "time_elapsed": 126506, "serialpos": 2, "key_press": -1, "wordID": 999, "type": "PRES_AUD", "trial_index": 23}, "uniqueid": "MTK2920:33M4IA01QH80DOBM6N7QP583SRNXR6", "dateTime": 1519590879317}, {"current_trial": 24, "trialdata": {"rt": -1000, "trial_type": "single-audio", "word": "lover", "stimulus": "/static/audio/wordpool/LOVER.wav", "conditions": [18, 1200, "a", 18000], "internal_node_id": "0.0-15.0", "trial": 0, "time_elapsed": 128887, "serialpos": 3, "key_press": -1, "wordID": 845, "type": "PRES_AUD", "trial_index": 24}, "uniqueid": "MTK2920:33M4IA01QH80DOBM6N7QP583SRNXR6", "dateTime": 1519590881697}, {"current_trial": 25, "trialdata": {"rt": -1000, "trial_type": "single-audio", "word": "taxi", "stimulus": "/static/audio/wordpool/TAXI.wav", "conditions": [18, 1200, "a", 18000], "internal_node_id": "0.0-16.0", "trial": 0, "time_elapsed": 130967, "serialpos": 4, "key_press": -1, "wordID": 1437, "type": "PRES_AUD", "trial_index": 25}, "uniqueid": "MTK2920:33M4IA01QH80DOBM6N7QP583SRNXR6", "dateTime": 1519590883777}, {"current_trial": 26, "trialdata": {"rt": -1000, "trial_type": "single-audio", "word": "garden", "stimulus": "/static/audio/wordpool/GARDEN.wav", "conditions": [18, 1200, "a", 18000], "internal_node_id": "0.0-17.0", "trial": 0, "time_elapsed": 133227, "serialpos": 5, "key_press": -1, "wordID": 622, "type": "PRES_AUD", "trial_index": 26}, "uniqueid": "MTK2920:33M4IA01QH80DOBM6N7QP583SRNXR6", "dateTime": 1519590886037}, {"current_trial": 27, "trialdata": {"rt": -1000, "trial_type": "single-audio", "word": "hawk", "stimulus": "/static/audio/wordpool/HAWK.wav", "conditions": [18, 1200, "a", 18000], "internal_node_id": "0.0-18.0", "trial": 0, "time_elapsed": 135487, "serialpos": 6, "key_press": -1, "wordID": 691, "type": "PRES_AUD", "trial_index": 27}, "uniqueid": "MTK2920:33M4IA01QH80DOBM6N7QP583SRNXR6", "dateTime": 1519590888298}, {"current_trial": 28, "trialdata": {"rt": -1000, "trial_type": "single-audio", "word": "muffin", "stimulus": "/static/audio/wordpool/MUFFIN.wav", "conditions": [18, 1200, "a", 18000], "internal_node_id": "0.0-19.0", "trial": 0, "time_elapsed": 137627, "serialpos": 7, "key_press": -1, "wordID": 928, "type": "PRES_AUD", "trial_index": 28}, "uniqueid": "MTK2920:33M4IA01QH80DOBM6N7QP583SRNXR6", "dateTime": 1519590890438}, {"current_trial": 29, "trialdata": {"rt": -1000, "trial_type": "single-audio", "word": "blockade", "stimulus": "/static/audio/wordpool/BLOCKADE.wav", "conditions": [18, 1200, "a", 18000], "internal_node_id": "0.0-20.0", "trial": 0, "time_elapsed": 139758, "serialpos": 8, "key_press": -1, "wordID": 136, "type": "PRES_AUD", "trial_index": 29}, "uniqueid": "MTK2920:33M4IA01QH80DOBM6N7QP583SRNXR6", "dateTime": 1519590892568}, {"current_trial": 30, "trialdata": {"rt": -1000, "trial_type": "single-audio", "word": "spoon", "stimulus": "/static/audio/wordpool/SPOON.wav", "conditions": [18, 1200, "a", 18000], "internal_node_id": "0.0-21.0", "trial": 0, "time_elapsed": 142008, "serialpos": 9, "key_press": -1, "wordID": 1356, "type": "PRES_AUD", "trial_index": 30}, "uniqueid": "MTK2920:33M4IA01QH80DOBM6N7QP583SRNXR6", "dateTime": 1519590894819}, {"current_trial": 31, "trialdata": {"rt": -1000, "trial_type": "single-audio", "word": "dragon", "stimulus": "/static/audio/wordpool/DRAGON.wav", "conditions": [18, 1200, "a", 18000], "internal_node_id": "0.0-22.0", "trial": 0, "time_elapsed": 144139, "serialpos": 10, "key_press": -1, "wordID": 491, "type": "PRES_AUD", "trial_index": 31}, "uniqueid": "MTK2920:33M4IA01QH80DOBM6N7QP583SRNXR6", "dateTime": 1519590896949}, {"current_trial": 32, "trialdata": {"rt": -1000, "trial_type": "single-audio", "word": "scallop", "stimulus": "/static/audio/wordpool/SCALLOP.wav", "conditions": [18, 1200, "a", 18000], "internal_node_id": "0.0-23.0", "trial": 0, "time_elapsed": 146368, "serialpos": 11, "key_press": -1, "wordID": 1241, "type": "PRES_AUD", "trial_index": 32}, "uniqueid": "MTK2920:33M4IA01QH80DOBM6N7QP583SRNXR6", "dateTime": 1519590899178}, {"current_trial": 33, "trialdata": {"rt": -1000, "trial_type": "single-audio", "word": "sculpture", "stimulus": "/static/audio/wordpool/SCULPTURE.wav", "conditions": [18, 1200, "a", 18000], "internal_node_id": "0.0-24.0", "trial": 0, "time_elapsed": 148409, "serialpos": 12, "key_press": -1, "wordID": 1257, "type": "PRES_AUD", "trial_index": 33}, "uniqueid": "MTK2920:33M4IA01QH80DOBM6N7QP583SRNXR6", "dateTime": 1519590901219}, {"current_trial": 34, "trialdata": {"rt": -1000, "trial_type": "single-audio", "word": "leg", "stimulus": "/static/audio/wordpool/LEG.wav", "conditions": [18, 1200, "a", 18000], "internal_node_id": "0.0-25.0", "trial": 0, "time_elapsed": 150469, "serialpos": 13, "key_press": -1, "wordID": 808, "type": "PRES_AUD", "trial_index": 34}, "uniqueid": "MTK2920:33M4IA01QH80DOBM6N7QP583SRNXR6", "dateTime": 1519590903279}, {"current_trial": 35, "trialdata": {"rt": -1000, "trial_type": "single-audio", "word": "london", "stimulus": "/static/audio/wordpool/LONDON.wav", "conditions": [18, 1200, "a", 18000], "internal_node_id": "0.0-26.0", "trial": 0, "time_elapsed": 152879, "serialpos": 14, "key_press": -1, "wordID": 842, "type": "PRES_AUD", "trial_index": 35}, "uniqueid": "MTK2920:33M4IA01QH80DOBM6N7QP583SRNXR6", "dateTime": 1519590905689}, {"current_trial": 36, "trialdata": {"rt": -1000, "trial_type": "single-audio", "word": "gangster", "stimulus": "/static/audio/wordpool/GANGSTER.wav", "conditions": [18, 1200, "a", 18000], "internal_node_id": "0.0-27.0", "trial": 0, "time_elapsed": 155260, "serialpos": 15, "key_press": -1, "wordID": 619, "type": "PRES_AUD", "trial_index": 36}, "uniqueid": "MTK2920:33M4IA01QH80DOBM6N7QP583SRNXR6", "dateTime": 1519590908070}, {"current_trial": 37, "trialdata": {"rt": -1000, "trial_type": "single-audio", "word": "orchid", "stimulus": "/static/audio/wordpool/ORCHID.wav", "conditions": [18, 1200, "a", 18000], "internal_node_id": "0.0-28.0", "trial": 0, "time_elapsed": 157293, "serialpos": 16, "key_press": -1, "wordID": 981, "type": "PRES_AUD", "trial_index": 37}, "uniqueid": "MTK2920:33M4IA01QH80DOBM6N7QP583SRNXR6", "dateTime": 1519590910104}, {"current_trial": 38, "trialdata": {"rt": -1000, "trial_type": "single-audio", "word": "whistle", "stimulus": "/static/audio/wordpool/WHISTLE.wav", "conditions": [18, 1200, "a", 18000], "internal_node_id": "0.0-29.0", "trial": 0, "time_elapsed": 159670, "serialpos": 17, "key_press": -1, "wordID": 1605, "type": "PRES_AUD", "trial_index": 38}, "uniqueid": "MTK2920:33M4IA01QH80DOBM6N7QP583SRNXR6", "dateTime": 1519590912482}, {"current_trial": 39, "trialdata": {"rt": -1, "trial_type": "single-stim", "stimulus": "", "internal_node_id": "0.0-30.0-0.0", "time_elapsed": 160891, "key_press": -1, "type": "PRE_RECALL_DELAY", "trial_index": 39}, "uniqueid": "MTK2920:33M4IA01QH80DOBM6N7QP583SRNXR6", "dateTime": 1519590913701}, {"current_trial": 40, "trialdata": {"rt": -1000, "trial_type": "single-audio", "stimulus": "/static/audio/400Hz.wav", "internal_node_id": "0.0-31.0", "time_elapsed": 161401, "key_press": -1, "type": "PRE_RECALL_ALERT", "trial_index": 40}, "uniqueid": "MTK2920:33M4IA01QH80DOBM6N7QP583SRNXR6", "dateTime": 1519590914211}, {"current_trial": 41, "trialdata": {"rt": [3152, 5785, 6831, 8262, 10634, 14782, 25506, 44200], "recwords": ["tunnel", "ground", "paddle", "lover", "gangster", "sculpture", "orchid", "whistle"], "key_times": [2214, 2358, 2540, 2690, 2819, 2936, 3152, 3744, 3913, 4032, 4244, 4365, 4950, 5087, 5295, 5449, 5583, 5785, 6047, 6160, 6294, 6425, 6587, 6695, 6831, 7567, 7723, 7839, 7987, 8095, 8262, 9458, 9576, 9650, 9766, 10084, 10235, 10374, 10448, 10634, 11017, 11592, 13065, 13642, 13917, 14131, 14279, 14425, 14572, 14782, 24678, 24793, 25012, 25123, 25248, 25365, 25506, 41902, 42200, 42713, 43540, 43827, 43954, 44065, 44200], "trial_type": "free-recall", "conditions": [18, 1200, "a", 18000], "internal_node_id": "0.0-32.0-0.0", "key_presses": [84, 85, 78, 78, 69, 76, 13, 71, 82, 79, 78, 68, 8, 8, 85, 78, 68, 13, 80, 65, 68, 68, 76, 69, 13, 76, 79, 86, 69, 82, 13, 71, 65, 78, 71, 83, 84, 69, 82, 13, 83, 67, 85, 76, 80, 84, 85, 82, 69, 13, 79, 82, 67, 72, 73, 68, 13, 87, 72, 73, 83, 84, 76, 69, 13], "trial": 0, "time_elapsed": 221411, "type": "FREE_RECALL", "trial_index": 41}, "uniqueid": "MTK2920:33M4IA01QH80DOBM6N7QP583SRNXR6", "dateTime": 1519590974234}, {"current_trial": 42, "trialdata": {"rt": 3734, "trial_type": "text", "internal_node_id": "0.0-33.0", "time_elapsed": 227165, "key_press": 32, "type": "INSTRUCTIONS", "trial_index": 42}, "uniqueid": "MTK2920:33M4IA01QH80DOBM6N7QP583SRNXR6", "dateTime": 1519590979976}, {"current_trial": 43, "trialdata": {"rt": [2601, 3715, 5604, 7703, 9289, 10361, 12489, 14263, 15740, 17348], "trial_type": "math-distractor", "key_times": [2256, 2378, 2601, 3472, 3715, 5217, 5383, 5604, 7169, 7351, 7703, 8820, 9013, 9289, 10115, 10361, 12047, 12259, 12489, 13948, 14095, 14263, 15408, 15538, 15740, 16943, 17125, 17348], "responses": ["18", "8", "14", "14", "15", "9", "12", "22", "11", "16"], "num2": [6, 2, 1, 1, 8, 2, 2, 7, 2, 1, 7], "num3": [7, 4, 6, 5, 3, 5, 6, 9, 1, 9, 5], "conditions": [18, 1200, "a", 18000], "internal_node_id": "0.0-34.0", "key_presses": [49, 56, 13, 56, 13, 49, 52, 13, 49, 52, 13, 49, 53, 13, 57, 13, 49, 50, 13, 50, 50, 13, 49, 49, 13, 49, 54, 13], "trial": 1, "time_elapsed": 247184, "type": "DISTRACTOR", "trial_index": 43, "num1": [5, 2, 7, 8, 4, 2, 4, 6, 8, 6, 9]}, "uniqueid": "MTK2920:33M4IA01QH80DOBM6N7QP583SRNXR6", "dateTime": 1519590999996}, {"current_trial": 44, "trialdata": {"rt": -1, "trial_type": "single-stim", "stimulus": "<p id=\"stim\">10</p>", "internal_node_id": "0.0-35.0-0.0", "time_elapsed": 250204, "key_press": -1, "trial_index": 44}, "uniqueid": "MTK2920:33M4IA01QH80DOBM6N7QP583SRNXR6", "dateTime": 1519591003015}, {"current_trial": 45, "trialdata": {"rt": -1, "trial_type": "single-stim", "stimulus": "<p id=\"stim\">9</p>", "internal_node_id": "0.0-35.0-1.0", "time_elapsed": 251213, "key_press": -1, "trial_index": 45}, "uniqueid": "MTK2920:33M4IA01QH80DOBM6N7QP583SRNXR6", "dateTime": 1519591004024}, {"current_trial": 46, "trialdata": {"rt": -1, "trial_type": "single-stim", "stimulus": "<p id=\"stim\">8</p>", "internal_node_id": "0.0-35.0-2.0", "time_elapsed": 252223, "key_press": -1, "trial_index": 46}, "uniqueid": "MTK2920:33M4IA01QH80DOBM6N7QP583SRNXR6", "dateTime": 1519591005034}, {"current_trial": 47, "trialdata": {"rt": -1, "trial_type": "single-stim", "stimulus": "<p id=\"stim\">7</p>", "internal_node_id": "0.0-35.0-3.0", "time_elapsed": 253235, "key_press": -1, "trial_index": 47}, "uniqueid": "MTK2920:33M4IA01QH80DOBM6N7QP583SRNXR6", "dateTime": 1519591006047}, {"current_trial": 48, "trialdata": {"rt": -1, "trial_type": "single-stim", "stimulus": "<p id=\"stim\">6</p>", "internal_node_id": "0.0-35.0-4.0", "time_elapsed": 254245, "key_press": -1, "trial_index": 48}, "uniqueid": "MTK2920:33M4IA01QH80DOBM6N7QP583SRNXR6", "dateTime": 1519591007055}, {"current_trial": 49, "trialdata": {"rt": -1, "trial_type": "single-stim", "stimulus": "<p id=\"stim\">5</p>", "internal_node_id": "0.0-35.0-5.0", "time_elapsed": 255255, "key_press": -1, "trial_index": 49}, "uniqueid": "MTK2920:33M4IA01QH80DOBM6N7QP583SRNXR6", "dateTime": 1519591008065}, {"current_trial": 50, "trialdata": {"rt": -1, "trial_type": "single-stim", "stimulus": "<p id=\"stim\">4</p>", "internal_node_id": "0.0-35.0-6.0", "time_elapsed": 256264, "key_press": -1, "trial_index": 50}, "uniqueid": "MTK2920:33M4IA01QH80DOBM6N7QP583SRNXR6", "dateTime": 1519591009075}, {"current_trial": 51, "trialdata": {"rt": -1, "trial_type": "single-stim", "stimulus": "<p id=\"stim\">3</p>", "internal_node_id": "0.0-35.0-7.0", "time_elapsed": 257274, "key_press": -1, "trial_index": 51}, "uniqueid": "MTK2920:33M4IA01QH80DOBM6N7QP583SRNXR6", "dateTime": 1519591010084}, {"current_trial": 52, "trialdata": {"rt": -1, "trial_type": "single-stim", "stimulus": "<p id=\"stim\">2</p>", "internal_node_id": "0.0-35.0-8.0", "time_elapsed": 258285, "key_press": -1, "trial_index": 52}, "uniqueid": "MTK2920:33M4IA01QH80DOBM6N7QP583SRNXR6", "dateTime": 1519591011095}, {"current_trial": 53, "trialdata": {"rt": -1, "trial_type": "single-stim", "stimulus": "<p id=\"stim\">1</p>", "internal_node_id": "0.0-35.0-9.0", "time_elapsed": 259296, "key_press": -1, "trial_index": 53}, "uniqueid": "MTK2920:33M4IA01QH80DOBM6N7QP583SRNXR6", "dateTime": 1519591012106}, {"current_trial": 54, "trialdata": {"rt": -1, "trial_type": "single-stim", "stimulus": "<p id=\"stim\">+</p>", "internal_node_id": "0.0-36.0-0.0", "time_elapsed": 260805, "key_press": -1, "type": "FIXATION", "trial_index": 54}, "uniqueid": "MTK2920:33M4IA01QH80DOBM6N7QP583SRNXR6", "dateTime": 1519591013615}, {"current_trial": 55, "trialdata": {"rt": -1000, "trial_type": "single-audio", "word": "waiter", "stimulus": "/static/audio/wordpool/WAITER.wav", "conditions": [18, 1200, "a", 18000], "internal_node_id": "0.0-37.0", "trial": 1, "time_elapsed": 263135, "serialpos": 0, "key_press": -1, "wordID": 1579, "type": "PRES_AUD", "trial_index": 55}, "uniqueid": "MTK2920:33M4IA01QH80DOBM6N7QP583SRNXR6", "dateTime": 1519591015945}, {"current_trial": 56, "trialdata": {"rt": -1000, "trial_type": "single-audio", "word": "handbag", "stimulus": "/static/audio/wordpool/HANDBAG.wav", "conditions": [18, 1200, "a", 18000], "internal_node_id": "0.0-38.0", "trial": 1, "time_elapsed": 265466, "serialpos": 1, "key_press": -1, "wordID": 683, "type": "PRES_AUD", "trial_index": 56}, "uniqueid": "MTK2920:33M4IA01QH80DOBM6N7QP583SRNXR6", "dateTime": 1519591018276}, {"current_trial": 57, "trialdata": {"rt": -1000, "trial_type": "single-audio", "word": "dust", "stimulus": "/static/audio/wordpool/DUST.wav", "conditions": [18, 1200, "a", 18000], "internal_node_id": "0.0-39.0", "trial": 1, "time_elapsed": 267706, "serialpos": 2, "key_press": -1, "wordID": 507, "type": "PRES_AUD", "trial_index": 57}, "uniqueid": "MTK2920:33M4IA01QH80DOBM6N7QP583SRNXR6", "dateTime": 1519591020516}, {"current_trial": 58, "trialdata": {"rt": -1000, "trial_type": "single-audio", "word": "salt", "stimulus": "/static/audio/wordpool/SALT.wav", "conditions": [18, 1200, "a", 18000], "internal_node_id": "0.0-40.0", "trial": 1, "time_elapsed": 269955, "serialpos": 3, "key_press": -1, "wordID": 1228, "type": "PRES_AUD", "trial_index": 58}, "uniqueid": "MTK2920:33M4IA01QH80DOBM6N7QP583SRNXR6", "dateTime": 1519591022766}, {"current_trial": 59, "trialdata": {"rt": -1000, "trial_type": "single-audio", "word": "boyfriend", "stimulus": "/static/audio/wordpool/BOYFRIEND.wav", "conditions": [18, 1200, "a", 18000], "internal_node_id": "0.0-41.0", "trial": 1, "time_elapsed": 272316, "serialpos": 4, "key_press": -1, "wordID": 161, "type": "PRES_AUD", "trial_index": 59}, "uniqueid": "MTK2920:33M4IA01QH80DOBM6N7QP583SRNXR6", "dateTime": 1519591025127}, {"current_trial": 60, "trialdata": {"rt": -1000, "trial_type": "single-audio", "word": "guard", "stimulus": "/static/audio/wordpool/GUARD.wav", "conditions": [18, 1200, "a", 18000], "internal_node_id": "0.0-42.0", "trial": 1, "time_elapsed": 274557, "serialpos": 5, "key_press": -1, "wordID": 666, "type": "PRES_AUD", "trial_index": 60}, "uniqueid": "MTK2920:33M4IA01QH80DOBM6N7QP583SRNXR6", "dateTime": 1519591027368}, {"current_trial": 61, "trialdata": {"rt": -1000, "trial_type": "single-audio", "word": "necklace", "stimulus": "/static/audio/wordpool/NECKLACE.wav", "conditions": [18, 1200, "a", 18000], "internal_node_id": "0.0-43.0", "trial": 1, "time_elapsed": 276758, "serialpos": 6, "key_press": -1, "wordID": 939, "type": "PRES_AUD", "trial_index": 61}, "uniqueid": "MTK2920:33M4IA01QH80DOBM6N7QP583SRNXR6", "dateTime": 1519591029568}, {"current_trial": 62, "trialdata": {"rt": -1000, "trial_type": "single-audio", "word": "supper", "stimulus": "/static/audio/wordpool/SUPPER.wav", "conditions": [18, 1200, "a", 18000], "internal_node_id": "0.0-44.0", "trial": 1, "time_elapsed": 279108, "serialpos": 7, "key_press": -1, "wordID": 1410, "type": "PRES_AUD", "trial_index": 62}, "uniqueid": "MTK2920:33M4IA01QH80DOBM6N7QP583SRNXR6", "dateTime": 1519591031918}, {"current_trial": 63, "trialdata": {"rt": -1000, "trial_type": "single-audio", "word": "chapel", "stimulus": "/static/audio/wordpool/CHAPEL.wav", "conditions": [18, 1200, "a", 18000], "internal_node_id": "0.0-45.0", "trial": 1, "time_elapsed": 281328, "serialpos": 8, "key_press": -1, "wordID": 279, "type": "PRES_AUD", "trial_index": 63}, "uniqueid": "MTK2920:33M4IA01QH80DOBM6N7QP583SRNXR6", "dateTime": 1519591034138}, {"current_trial": 64, "trialdata": {"rt": -1000, "trial_type": "single-audio", "word": "seal", "stimulus": "/static/audio/wordpool/SEAL.wav", "conditions": [18, 1200, "a", 18000], "internal_node_id": "0.0-46.0", "trial": 1, "time_elapsed": 283698, "serialpos": 9, "key_press": -1, "wordID": 1261, "type": "PRES_AUD", "trial_index": 64}, "uniqueid": "MTK2920:33M4IA01QH80DOBM6N7QP583SRNXR6", "dateTime": 1519591036508}, {"current_trial": 65, "trialdata": {"rt": -1000, "trial_type": "single-audio", "word": "drawing", "stimulus": "/static/audio/wordpool/DRAWING.wav", "conditions": [18, 1200, "a", 18000], "internal_node_id": "0.0-47.0", "trial": 1, "time_elapsed": 285978, "serialpos": 10, "key_press": -1, "wordID": 493, "type": "PRES_AUD", "trial_index": 65}, "uniqueid": "MTK2920:33M4IA01QH80DOBM6N7QP583SRNXR6", "dateTime": 1519591038788}, {"current_trial": 66, "trialdata": {"rt": -1000, "trial_type": "single-audio", "word": "drink", "stimulus": "/static/audio/wordpool/DRINK.wav", "conditions": [18, 1200, "a", 18000], "internal_node_id": "0.0-48.0", "trial": 1, "time_elapsed": 288049, "serialpos": 11, "key_press": -1, "wordID": 497, "type": "PRES_AUD", "trial_index": 66}, "uniqueid": "MTK2920:33M4IA01QH80DOBM6N7QP583SRNXR6", "dateTime": 1519591040859}, {"current_trial": 67, "trialdata": {"rt": -1000, "trial_type": "single-audio", "word": "wagon", "stimulus": "/static/audio/wordpool/WAGON.wav", "conditions": [18, 1200, "a", 18000], "internal_node_id": "0.0-49.0", "trial": 1, "time_elapsed": 290089, "serialpos": 12, "key_press": -1, "wordID": 1577, "type": "PRES_AUD", "trial_index": 67}, "uniqueid": "MTK2920:33M4IA01QH80DOBM6N7QP583SRNXR6", "dateTime": 1519591042899}, {"current_trial": 68, "trialdata": {"rt": -1000, "trial_type": "single-audio", "word": "church", "stimulus": "/static/audio/wordpool/CHURCH.wav", "conditions": [18, 1200, "a", 18000], "internal_node_id": "0.0-50.0", "trial": 1, "time_elapsed": 292480, "serialpos": 13, "key_press": -1, "wordID": 306, "type": "PRES_AUD", "trial_index": 68}, "uniqueid": "MTK2920:33M4IA01QH80DOBM6N7QP583SRNXR6", "dateTime": 1519591045290}, {"current_trial": 69, "trialdata": {"rt": -1000, "trial_type": "single-audio", "word": "barley", "stimulus": "/static/audio/wordpool/BARLEY.wav", "conditions": [18, 1200, "a", 18000], "internal_node_id": "0.0-51.0", "trial": 1, "time_elapsed": 294710, "serialpos": 14, "key_press": -1, "wordID": 87, "type": "PRES_AUD", "trial_index": 69}, "uniqueid": "MTK2920:33M4IA01QH80DOBM6N7QP583SRNXR6", "dateTime": 1519591047520}, {"current_trial": 70, "trialdata": {"rt": -1000, "trial_type": "single-audio", "word": "daisy", "stimulus": "/static/audio/wordpool/DAISY.wav", "conditions": [18, 1200, "a", 18000], "internal_node_id": "0.0-52.0", "trial": 1, "time_elapsed": 296990, "serialpos": 15, "key_press": -1, "wordID": 434, "type": "PRES_AUD", "trial_index": 70}, "uniqueid": "MTK2920:33M4IA01QH80DOBM6N7QP583SRNXR6", "dateTime": 1519591049800}, {"current_trial": 71, "trialdata": {"rt": -1000, "trial_type": "single-audio", "word": "clothes", "stimulus": "/static/audio/wordpool/CLOTHES.wav", "conditions": [18, 1200, "a", 18000], "internal_node_id": "0.0-53.0", "trial": 1, "time_elapsed": 299321, "serialpos": 16, "key_press": -1, "wordID": 326, "type": "PRES_AUD", "trial_index": 71}, "uniqueid": "MTK2920:33M4IA01QH80DOBM6N7QP583SRNXR6", "dateTime": 1519591052131}, {"current_trial": 72, "trialdata": {"rt": -1000, "trial_type": "single-audio", "word": "blueprint", "stimulus": "/static/audio/wordpool/BLUEPRINT.wav", "conditions": [18, 1200, "a", 18000], "internal_node_id": "0.0-54.0", "trial": 1, "time_elapsed": 301621, "serialpos": 17, "key_press": -1, "wordID": 141, "type": "PRES_AUD", "trial_index": 72}, "uniqueid": "MTK2920:33M4IA01QH80DOBM6N7QP583SRNXR6", "dateTime": 1519591054431}, {"current_trial": 73, "trialdata": {"rt": -1, "trial_type": "single-stim", "stimulus": "", "internal_node_id": "0.0-55.0-0.0", "time_elapsed": 302971, "key_press": -1, "type": "PRE_RECALL_DELAY", "trial_index": 73}, "uniqueid": "MTK2920:33M4IA01QH80DOBM6N7QP583SRNXR6", "dateTime": 1519591055781}, {"current_trial": 74, "trialdata": {"rt": -1000, "trial_type": "single-audio", "stimulus": "/static/audio/400Hz.wav", "internal_node_id": "0.0-56.0", "time_elapsed": 303481, "key_press": -1, "type": "PRE_RECALL_ALERT", "trial_index": 74}, "uniqueid": "MTK2920:33M4IA01QH80DOBM6N7QP583SRNXR6", "dateTime": 1519591056291}, {"current_trial": 75, "trialdata": {"rt": [4350, 7081, 8653], "recwords": ["boyfriend", "clouds", "drying"], "key_times": [2498, 2621, 2773, 2920, 3152, 3259, 3597, 3740, 3852, 4350, 6050, 6193, 6341, 6452, 6575, 6725, 7081, 7555, 7715, 7851, 8007, 8116, 8249, 8653], "trial_type": "free-recall", "conditions": [18, 1200, "a", 18000], "internal_node_id": "0.0-57.0-0.0", "key_presses": [66, 79, 89, 70, 82, 73, 69, 78, 68, 13, 67, 76, 79, 85, 68, 83, 13, 68, 82, 89, 73, 78, 71, 13], "trial": 1, "time_elapsed": 363489, "type": "FREE_RECALL", "trial_index": 75}, "uniqueid": "MTK2920:33M4IA01QH80DOBM6N7QP583SRNXR6", "dateTime": 1519591116307}, {"current_trial": 76, "trialdata": {"rt": 1892, "trial_type": "text", "internal_node_id": "0.0-58.0", "time_elapsed": 367392, "key_press": 32, "type": "INSTRUCTIONS", "trial_index": 76}, "uniqueid": "MTK2920:33M4IA01QH80DOBM6N7QP583SRNXR6", "dateTime": 1519591120202}, {"current_trial": 77, "trialdata": {"rt": [1795, 3404, 5453, 6552, 8618, 11490], "trial_type": "math-distractor", "key_times": [1376, 1577, 1795, 3016, 3187, 3404, 4972, 5177, 5453, 6227, 6389, 6552, 8230, 8354, 8618, 10236, 11176, 11490], "responses": ["15", "21", "23", "12", "17", "16"], "num2": [7, 5, 8, 4, 4, 8, 8], "num3": [5, 8, 9, 4, 9, 1, 3], "conditions": [24, 800, "a", 12000], "internal_node_id": "0.0-59.0", "key_presses": [49, 53, 13, 50, 49, 13, 50, 51, 13, 49, 50, 13, 49, 55, 13, 49, 54, 13], "trial": 2, "time_elapsed": 380411, "type": "DISTRACTOR", "trial_index": 77, "num1": [3, 8, 6, 4, 4, 7, 6]}, "uniqueid": "MTK2920:33M4IA01QH80DOBM6N7QP583SRNXR6", "dateTime": 1519591133222}, {"current_trial": 78, "trialdata": {"rt": -1, "trial_type": "single-stim", "stimulus": "<p id=\"stim\">10</p>", "internal_node_id": "0.0-60.0-0.0", "time_elapsed": 383421, "key_press": -1, "trial_index": 78}, "uniqueid": "MTK2920:33M4IA01QH80DOBM6N7QP583SRNXR6", "dateTime": 1519591136232}, {"current_trial": 79, "trialdata": {"rt": -1, "trial_type": "single-stim", "stimulus": "<p id=\"stim\">9</p>", "internal_node_id": "0.0-60.0-1.0", "time_elapsed": 384431, "key_press": -1, "trial_index": 79}, "uniqueid": "MTK2920:33M4IA01QH80DOBM6N7QP583SRNXR6", "dateTime": 1519591137242}, {"current_trial": 80, "trialdata": {"rt": -1, "trial_type": "single-stim", "stimulus": "<p id=\"stim\">8</p>", "internal_node_id": "0.0-60.0-2.0", "time_elapsed": 385441, "key_press": -1, "trial_index": 80}, "uniqueid": "MTK2920:33M4IA01QH80DOBM6N7QP583SRNXR6", "dateTime": 1519591138251}, {"current_trial": 81, "trialdata": {"rt": -1, "trial_type": "single-stim", "stimulus": "<p id=\"stim\">7</p>", "internal_node_id": "0.0-60.0-3.0", "time_elapsed": 386451, "key_press": -1, "trial_index": 81}, "uniqueid": "MTK2920:33M4IA01QH80DOBM6N7QP583SRNXR6", "dateTime": 1519591139262}, {"current_trial": 82, "trialdata": {"rt": -1, "trial_type": "single-stim", "stimulus": "<p id=\"stim\">6</p>", "internal_node_id": "0.0-60.0-4.0", "time_elapsed": 387461, "key_press": -1, "trial_index": 82}, "uniqueid": "MTK2920:33M4IA01QH80DOBM6N7QP583SRNXR6", "dateTime": 1519591140272}, {"current_trial": 83, "trialdata": {"rt": -1, "trial_type": "single-stim", "stimulus": "<p id=\"stim\">5</p>", "internal_node_id": "0.0-60.0-5.0", "time_elapsed": 388471, "key_press": -1, "trial_index": 83}, "uniqueid": "MTK2920:33M4IA01QH80DOBM6N7QP583SRNXR6", "dateTime": 1519591141281}, {"current_trial": 84, "trialdata": {"rt": -1, "trial_type": "single-stim", "stimulus": "<p id=\"stim\">4</p>", "internal_node_id": "0.0-60.0-6.0", "time_elapsed": 389482, "key_press": -1, "trial_index": 84}, "uniqueid": "MTK2920:33M4IA01QH80DOBM6N7QP583SRNXR6", "dateTime": 1519591142293}, {"current_trial": 85, "trialdata": {"rt": -1, "trial_type": "single-stim", "stimulus": "<p id=\"stim\">3</p>", "internal_node_id": "0.0-60.0-7.0", "time_elapsed": 390492, "key_press": -1, "trial_index": 85}, "uniqueid": "MTK2920:33M4IA01QH80DOBM6N7QP583SRNXR6", "dateTime": 1519591143303}, {"current_trial": 86, "trialdata": {"rt": -1, "trial_type": "single-stim", "stimulus": "<p id=\"stim\">2</p>", "internal_node_id": "0.0-60.0-8.0", "time_elapsed": 391502, "key_press": -1, "trial_index": 86}, "uniqueid": "MTK2920:33M4IA01QH80DOBM6N7QP583SRNXR6", "dateTime": 1519591144312}, {"current_trial": 87, "trialdata": {"rt": -1, "trial_type": "single-stim", "stimulus": "<p id=\"stim\">1</p>", "internal_node_id": "0.0-60.0-9.0", "time_elapsed": 392512, "key_press": -1, "trial_index": 87}, "uniqueid": "MTK2920:33M4IA01QH80DOBM6N7QP583SRNXR6", "dateTime": 1519591145322}, {"current_trial": 88, "trialdata": {"rt": -1, "trial_type": "single-stim", "stimulus": "<p id=\"stim\">+</p>", "internal_node_id": "0.0-61.0-0.0", "time_elapsed": 394022, "key_press": -1, "type": "FIXATION", "trial_index": 88}, "uniqueid": "MTK2920:33M4IA01QH80DOBM6N7QP583SRNXR6", "dateTime": 1519591146832}, {"current_trial": 89, "trialdata": {"rt": -1000, "trial_type": "single-audio", "word": "spider", "stimulus": "/static/audio/wordpool/SPIDER.wav", "conditions": [24, 800, "a", 12000], "internal_node_id": "0.0-62.0", "trial": 2, "time_elapsed": 395853, "serialpos": 0, "key_press": -1, "wordID": 1350, "type": "PRES_AUD", "trial_index": 89}, "uniqueid": "MTK2920:33M4IA01QH80DOBM6N7QP583SRNXR6", "dateTime": 1519591148663}, {"current_trial": 90, "trialdata": {"rt": -1000, "trial_type": "single-audio", "word": "viking", "stimulus": "/static/audio/wordpool/VIKING.wav", "conditions": [24, 800, "a", 12000], "internal_node_id": "0.0-63.0", "trial": 2, "time_elapsed": 397763, "serialpos": 1, "key_press": -1, "wordID": 1564, "type": "PRES_AUD", "trial_index": 90}, "uniqueid": "MTK2920:33M4IA01QH80DOBM6N7QP583SRNXR6", "dateTime": 1519591150573}, {"current_trial": 91, "trialdata": {"rt": -1000, "trial_type": "single-audio", "word": "lady", "stimulus": "/static/audio/wordpool/LADY.wav", "conditions": [24, 800, "a", 12000], "internal_node_id": "0.0-64.0", "trial": 2, "time_elapsed": 399413, "serialpos": 2, "key_press": -1, "wordID": 793, "type": "PRES_AUD", "trial_index": 91}, "uniqueid": "MTK2920:33M4IA01QH80DOBM6N7QP583SRNXR6", "dateTime": 1519591152224}, {"current_trial": 92, "trialdata": {"rt": -1000, "trial_type": "single-audio", "word": "brook", "stimulus": "/static/audio/wordpool/BROOK.wav", "conditions": [24, 800, "a", 12000], "internal_node_id": "0.0-65.0", "trial": 2, "time_elapsed": 401173, "serialpos": 3, "key_press": -1, "wordID": 176, "type": "PRES_AUD", "trial_index": 92}, "uniqueid": "MTK2920:33M4IA01QH80DOBM6N7QP583SRNXR6", "dateTime": 1519591153983}, {"current_trial": 93, "trialdata": {"rt": -1000, "trial_type": "single-audio", "word": "woman", "stimulus": "/static/audio/wordpool/WOMAN.wav", "conditions": [24, 800, "a", 12000], "internal_node_id": "0.0-66.0", "trial": 2, "time_elapsed": 403084, "serialpos": 4, "key_press": -1, "wordID": 1619, "type": "PRES_AUD", "trial_index": 93}, "uniqueid": "MTK2920:33M4IA01QH80DOBM6N7QP583SRNXR6", "dateTime": 1519591155894}, {"current_trial": 94, "trialdata": {"rt": -1000, "trial_type": "single-audio", "word": "girl", "stimulus": "/static/audio/wordpool/GIRL.wav", "conditions": [24, 800, "a", 12000], "internal_node_id": "0.0-67.0", "trial": 2, "time_elapsed": 404894, "serialpos": 5, "key_press": -1, "wordID": 636, "type": "PRES_AUD", "trial_index": 94}, "uniqueid": "MTK2920:33M4IA01QH80DOBM6N7QP583SRNXR6", "dateTime": 1519591157704}, {"current_trial": 95, "trialdata": {"rt": -1000, "trial_type": "single-audio", "word": "peanut", "stimulus": "/static/audio/wordpool/PEANUT.wav", "conditions": [24, 800, "a", 12000], "internal_node_id": "0.0-68.0", "trial": 2, "time_elapsed": 406854, "serialpos": 6, "key_press": -1, "wordID": 1031, "type": "PRES_AUD", "trial_index": 95}, "uniqueid": "MTK2920:33M4IA01QH80DOBM6N7QP583SRNXR6", "dateTime": 1519591159664}, {"current_trial": 96, "trialdata": {"rt": -1000, "trial_type": "single-audio", "word": "cousin", "stimulus": "/static/audio/wordpool/COUSIN.wav", "conditions": [24, 800, "a", 12000], "internal_node_id": "0.0-69.0", "trial": 2, "time_elapsed": 408853, "serialpos": 7, "key_press": -1, "wordID": 391, "type": "PRES_AUD", "trial_index": 96}, "uniqueid": "MTK2920:33M4IA01QH80DOBM6N7QP583SRNXR6", "dateTime": 1519591161664}, {"current_trial": 97, "trialdata": {"rt": -1000, "trial_type": "single-audio", "word": "gazelle", "stimulus": "/static/audio/wordpool/GAZELLE.wav", "conditions": [24, 800, "a", 12000], "internal_node_id": "0.0-70.0", "trial": 2, "time_elapsed": 410634, "serialpos": 8, "key_press": -1, "wordID": 627, "type": "PRES_AUD", "trial_index": 97}, "uniqueid": "MTK2920:33M4IA01QH80DOBM6N7QP583SRNXR6", "dateTime": 1519591163445}, {"current_trial": 98, "trialdata": {"rt": -1000, "trial_type": "single-audio", "word": "creature", "stimulus": "/static/audio/wordpool/CREATURE.wav", "conditions": [24, 800, "a", 12000], "internal_node_id": "0.0-71.0", "trial": 2, "time_elapsed": 412604, "serialpos": 9, "key_press": -1, "wordID": 402, "type": "PRES_AUD", "trial_index": 98}, "uniqueid": "MTK2920:33M4IA01QH80DOBM6N7QP583SRNXR6", "dateTime": 1519591165415}, {"current_trial": 99, "trialdata": {"rt": -1000, "trial_type": "single-audio", "word": "termite", "stimulus": "/static/audio/wordpool/TERMITE.wav", "conditions": [24, 800, "a", 12000], "internal_node_id": "0.0-72.0", "trial": 2, "time_elapsed": 414274, "serialpos": 10, "key_press": -1, "wordID": 1450, "type": "PRES_AUD", "trial_index": 99}, "uniqueid": "MTK2920:33M4IA01QH80DOBM6N7QP583SRNXR6", "dateTime": 1519591167085}, {"current_trial": 100, "trialdata": {"rt": -1000, "trial_type": "single-audio", "word": "washer", "stimulus": "/static/audio/wordpool/WASHER.wav", "conditions": [24, 800, "a", 12000], "internal_node_id": "0.0-73.0", "trial": 2, "time_elapsed": 416075, "serialpos": 11, "key_press": -1, "wordID": 1591, "type": "PRES_AUD", "trial_index": 100}, "uniqueid": "MTK2920:33M4IA01QH80DOBM6N7QP583SRNXR6", "dateTime": 1519591168886}, {"current_trial": 101, "trialdata": {"rt": -1000, "trial_type": "single-audio", "word": "headband", "stimulus": "/static/audio/wordpool/HEADBAND.wav", "conditions": [24, 800, "a", 12000], "internal_node_id": "0.0-74.0", "trial": 2, "time_elapsed": 417857, "serialpos": 12, "key_press": -1, "wordID": 695, "type": "PRES_AUD", "trial_index": 101}, "uniqueid": "MTK2920:33M4IA01QH80DOBM6N7QP583SRNXR6", "dateTime": 1519591170667}, {"current_trial": 102, "trialdata": {"rt": -1000, "trial_type": "single-audio", "word": "dancer", "stimulus": "/static/audio/wordpool/DANCER.wav", "conditions": [24, 800, "a", 12000], "internal_node_id": "0.0-75.0", "trial": 2, "time_elapsed": 419605, "serialpos": 13, "key_press": -1, "wordID": 436, "type": "PRES_AUD", "trial_index": 102}, "uniqueid": "MTK2920:33M4IA01QH80DOBM6N7QP583SRNXR6", "dateTime": 1519591172416}, {"current_trial": 103, "trialdata": {"rt": -1000, "trial_type": "single-audio", "word": "fragrance", "stimulus": "/static/audio/wordpool/FRAGRANCE.wav", "conditions": [24, 800, "a", 12000], "internal_node_id": "0.0-76.0", "trial": 2, "time_elapsed": 421435, "serialpos": 14, "key_press": -1, "wordID": 598, "type": "PRES_AUD", "trial_index": 103}, "uniqueid": "MTK2920:33M4IA01QH80DOBM6N7QP583SRNXR6", "dateTime": 1519591174245}, {"current_trial": 104, "trialdata": {"rt": -1000, "trial_type": "single-audio", "word": "bouquet", "stimulus": "/static/audio/wordpool/BOUQUET.wav", "conditions": [24, 800, "a", 12000], "internal_node_id": "0.0-77.0", "trial": 2, "time_elapsed": 423376, "serialpos": 15, "key_press": -1, "wordID": 156, "type": "PRES_AUD", "trial_index": 104}, "uniqueid": "MTK2920:33M4IA01QH80DOBM6N7QP583SRNXR6", "dateTime": 1519591176186}, {"current_trial": 105, "trialdata": {"rt": -1000, "trial_type": "single-audio", "word": "basement", "stimulus": "/static/audio/wordpool/BASEMENT.wav", "conditions": [24, 800, "a", 12000], "internal_node_id": "0.0-78.0", "trial": 2, "time_elapsed": 425067, "serialpos": 16, "key_press": -1, "wordID": 93, "type": "PRES_AUD", "trial_index": 105}, "uniqueid": "MTK2920:33M4IA01QH80DOBM6N7QP583SRNXR6", "dateTime": 1519591177877}, {"current_trial": 106, "trialdata": {"rt": -1000, "trial_type": "single-audio", "word": "hero", "stimulus": "/static/audio/wordpool/HERO.wav", "conditions": [24, 800, "a", 12000], "internal_node_id": "0.0-79.0", "trial": 2, "time_elapsed": 426897, "serialpos": 17, "key_press": -1, "wordID": 705, "type": "PRES_AUD", "trial_index": 106}, "uniqueid": "MTK2920:33M4IA01QH80DOBM6N7QP583SRNXR6", "dateTime": 1519591179707}, {"current_trial": 107, "trialdata": {"rt": -1000, "trial_type": "single-audio", "word": "brick", "stimulus": "/static/audio/wordpool/BRICK.wav", "conditions": [24, 800, "a", 12000], "internal_node_id": "0.0-80.0", "trial": 2, "time_elapsed": 428677, "serialpos": 18, "key_press": -1, "wordID": 171, "type": "PRES_AUD", "trial_index": 107}, "uniqueid": "MTK2920:33M4IA01QH80DOBM6N7QP583SRNXR6", "dateTime": 1519591181487}, {"current_trial": 108, "trialdata": {"rt": -1000, "trial_type": "single-audio", "word": "stone", "stimulus": "/static/audio/wordpool/STONE.wav", "conditions": [24, 800, "a", 12000], "internal_node_id": "0.0-81.0", "trial": 2, "time_elapsed": 430517, "serialpos": 19, "key_press": -1, "wordID": 1384, "type": "PRES_AUD", "trial_index": 108}, "uniqueid": "MTK2920:33M4IA01QH80DOBM6N7QP583SRNXR6", "dateTime": 1519591183327}, {"current_trial": 109, "trialdata": {"rt": -1000, "trial_type": "single-audio", "word": "kitchen", "stimulus": "/static/audio/wordpool/KITCHEN.wav", "conditions": [24, 800, "a", 12000], "internal_node_id": "0.0-82.0", "trial": 2, "time_elapsed": 432148, "serialpos": 20, "key_press": -1, "wordID": 777, "type": "PRES_AUD", "trial_index": 109}, "uniqueid": "MTK2920:33M4IA01QH80DOBM6N7QP583SRNXR6", "dateTime": 1519591184958}, {"current_trial": 110, "trialdata": {"rt": -1000, "trial_type": "single-audio", "word": "missile", "stimulus": "/static/audio/wordpool/MISSILE.wav", "conditions": [24, 800, "a", 12000], "internal_node_id": "0.0-83.0", "trial": 2, "time_elapsed": 433778, "serialpos": 21, "key_press": -1, "wordID": 899, "type": "PRES_AUD", "trial_index": 110}, "uniqueid": "MTK2920:33M4IA01QH80DOBM6N7QP583SRNXR6", "dateTime": 1519591186588}, {"current_trial": 111, "trialdata": {"rt": -1000, "trial_type": "single-audio", "word": "perch", "stimulus": "/static/audio/wordpool/PERCH.wav", "conditions": [24, 800, "a", 12000], "internal_node_id": "0.0-84.0", "trial": 2, "time_elapsed": 435508, "serialpos": 22, "key_press": -1, "wordID": 1047, "type": "PRES_AUD", "trial_index": 111}, "uniqueid": "MTK2920:33M4IA01QH80DOBM6N7QP583SRNXR6", "dateTime": 1519591188318}, {"current_trial": 112, "trialdata": {"rt": -1000, "trial_type": "single-audio", "word": "turnip", "stimulus": "/static/audio/wordpool/TURNIP.wav", "conditions": [24, 800, "a", 12000], "internal_node_id": "0.0-85.0", "trial": 2, "time_elapsed": 437239, "serialpos": 23, "key_press": -1, "wordID": 1520, "type": "PRES_AUD", "trial_index": 112}, "uniqueid": "MTK2920:33M4IA01QH80DOBM6N7QP583SRNXR6", "dateTime": 1519591190049}, {"current_trial": 113, "trialdata": {"rt": -1, "trial_type": "single-stim", "stimulus": "", "internal_node_id": "0.0-86.0-0.0", "time_elapsed": 438619, "key_press": -1, "type": "PRE_RECALL_DELAY", "trial_index": 113}, "uniqueid": "MTK2920:33M4IA01QH80DOBM6N7QP583SRNXR6", "dateTime": 1519591191430}, {"current_trial": 114, "trialdata": {"rt": -1000, "trial_type": "single-audio", "stimulus": "/static/audio/400Hz.wav", "internal_node_id": "0.0-87.0", "time_elapsed": 439129, "key_press": -1, "type": "PRE_RECALL_ALERT", "trial_index": 114}, "uniqueid": "MTK2920:33M4IA01QH80DOBM6N7QP583SRNXR6", "dateTime": 1519591191939}, {"current_trial": 115, "trialdata": {"rt": [1809, 2947, 3891, 5142, 5982, 6944, 18723], "recwords": ["spider", "viking", "lady", "turnip", "hero", "brick", "girl"], "key_times": [387, 505, 594, 1310, 1486, 1596, 1809, 2053, 2172, 2345, 2502, 2614, 2756, 2947, 3157, 3231, 3406, 3571, 3891, 4096, 4187, 4288, 4491, 4741, 4925, 5142, 5389, 5484, 5591, 5757, 5982, 6142, 6335, 6451, 6632, 6744, 6944, 17909, 18149, 18326, 18476, 18723], "trial_type": "free-recall", "conditions": [24, 800, "a", 12000], "internal_node_id": "0.0-88.0-0.0", "key_presses": [83, 80, 73, 68, 69, 82, 13, 86, 73, 75, 73, 78, 71, 13, 76, 65, 68, 89, 13, 84, 85, 82, 78, 73, 80, 13, 72, 69, 82, 79, 13, 66, 82, 73, 67, 75, 13, 71, 73, 82, 76, 13], "trial": 2, "time_elapsed": 499138, "type": "FREE_RECALL", "trial_index": 115}, "uniqueid": "MTK2920:33M4IA01QH80DOBM6N7QP583SRNXR6", "dateTime": 1519591251955}, {"current_trial": 116, "trialdata": {"rt": 958, "trial_type": "text", "internal_node_id": "0.0-89.0", "time_elapsed": 502105, "key_press": 32, "type": "INSTRUCTIONS", "trial_index": 116}, "uniqueid": "MTK2920:33M4IA01QH80DOBM6N7QP583SRNXR6", "dateTime": 1519591254915}, {"current_trial": 117, "trialdata": {"rt": [1241, 2537, 4491, 6741, 8039, 9097, 10824], "trial_type": "math-distractor", "key_times": [967, 1241, 2183, 2317, 2537, 4035, 4267, 4491, 5578, 5966, 6340, 6430, 6741, 7669, 7772, 8039, 8769, 8916, 9097, 10533, 10824], "responses": ["9", "16", "13", "14", "17", "11", "7"], "num2": [1, 3, 7, 4, 1, 1, 2, 6], "num3": [1, 6, 2, 1, 8, 5, 3, 5], "conditions": [12, 1600, "a", 12000], "internal_node_id": "0.0-90.0", "key_presses": [57, 13, 49, 54, 13, 49, 51, 13, 49, 53, 8, 52, 13, 49, 55, 13, 49, 49, 13, 55, 13], "trial": 3, "time_elapsed": 516120, "type": "DISTRACTOR", "trial_index": 117, "num1": [7, 7, 4, 9, 8, 5, 2, 4]}, "uniqueid": "MTK2920:33M4IA01QH80DOBM6N7QP583SRNXR6", "dateTime": 1519591268931}, {"current_trial": 118, "trialdata": {"rt": -1, "trial_type": "single-stim", "stimulus": "<p id=\"stim\">10</p>", "internal_node_id": "0.0-91.0-0.0", "time_elapsed": 519141, "key_press": -1, "trial_index": 118}, "uniqueid": "MTK2920:33M4IA01QH80DOBM6N7QP583SRNXR6", "dateTime": 1519591271951}, {"current_trial": 119, "trialdata": {"rt": -1, "trial_type": "single-stim", "stimulus": "<p id=\"stim\">9</p>", "internal_node_id": "0.0-91.0-1.0", "time_elapsed": 520151, "key_press": -1, "trial_index": 119}, "uniqueid": "MTK2920:33M4IA01QH80DOBM6N7QP583SRNXR6", "dateTime": 1519591272961}, {"current_trial": 120, "trialdata": {"rt": -1, "trial_type": "single-stim", "stimulus": "<p id=\"stim\">8</p>", "internal_node_id": "0.0-91.0-2.0", "time_elapsed": 521160, "key_press": -1, "trial_index": 120}, "uniqueid": "MTK2920:33M4IA01QH80DOBM6N7QP583SRNXR6", "dateTime": 1519591273971}, {"current_trial": 121, "trialdata": {"rt": -1, "trial_type": "single-stim", "stimulus": "<p id=\"stim\">7</p>", "internal_node_id": "0.0-91.0-3.0", "time_elapsed": 522170, "key_press": -1, "trial_index": 121}, "uniqueid": "MTK2920:33M4IA01QH80DOBM6N7QP583SRNXR6", "dateTime": 1519591274981}, {"current_trial": 122, "trialdata": {"rt": -1, "trial_type": "single-stim", "stimulus": "<p id=\"stim\">6</p>", "internal_node_id": "0.0-91.0-4.0", "time_elapsed": 523180, "key_press": -1, "trial_index": 122}, "uniqueid": "MTK2920:33M4IA01QH80DOBM6N7QP583SRNXR6", "dateTime": 1519591275991}, {"current_trial": 123, "trialdata": {"rt": -1, "trial_type": "single-stim", "stimulus": "<p id=\"stim\">5</p>", "internal_node_id": "0.0-91.0-5.0", "time_elapsed": 524190, "key_press": -1, "trial_index": 123}, "uniqueid": "MTK2920:33M4IA01QH80DOBM6N7QP583SRNXR6", "dateTime": 1519591277001}, {"current_trial": 124, "trialdata": {"rt": -1, "trial_type": "single-stim", "stimulus": "<p id=\"stim\">4</p>", "internal_node_id": "0.0-91.0-6.0", "time_elapsed": 525201, "key_press": -1, "trial_index": 124}, "uniqueid": "MTK2920:33M4IA01QH80DOBM6N7QP583SRNXR6", "dateTime": 1519591278012}, {"current_trial": 125, "trialdata": {"rt": -1, "trial_type": "single-stim", "stimulus": "<p id=\"stim\">3</p>", "internal_node_id": "0.0-91.0-7.0", "time_elapsed": 526211, "key_press": -1, "trial_index": 125}, "uniqueid": "MTK2920:33M4IA01QH80DOBM6N7QP583SRNXR6", "dateTime": 1519591279022}, {"current_trial": 126, "trialdata": {"rt": -1, "trial_type": "single-stim", "stimulus": "<p id=\"stim\">2</p>", "internal_node_id": "0.0-91.0-8.0", "time_elapsed": 527221, "key_press": -1, "trial_index": 126}, "uniqueid": "MTK2920:33M4IA01QH80DOBM6N7QP583SRNXR6", "dateTime": 1519591280032}, {"current_trial": 127, "trialdata": {"rt": -1, "trial_type": "single-stim", "stimulus": "<p id=\"stim\">1</p>", "internal_node_id": "0.0-91.0-9.0", "time_elapsed": 528231, "key_press": -1, "trial_index": 127}, "uniqueid": "MTK2920:33M4IA01QH80DOBM6N7QP583SRNXR6", "dateTime": 1519591281042}, {"current_trial": 128, "trialdata": {"rt": -1, "trial_type": "single-stim", "stimulus": "<p id=\"stim\">+</p>", "internal_node_id": "0.0-92.0-0.0", "time_elapsed": 529741, "key_press": -1, "type": "FIXATION", "trial_index": 128}, "uniqueid": "MTK2920:33M4IA01QH80DOBM6N7QP583SRNXR6", "dateTime": 1519591282551}, {"current_trial": 129, "trialdata": {"rt": -1000, "trial_type": "single-audio", "word": "heart", "stimulus": "/static/audio/wordpool/HEART.wav", "conditions": [12, 1600, "a", 12000], "internal_node_id": "0.0-93.0", "trial": 3, "time_elapsed": 532362, "serialpos": 0, "key_press": -1, "wordID": 696, "type": "PRES_AUD", "trial_index": 129}, "uniqueid": "MTK2920:33M4IA01QH80DOBM6N7QP583SRNXR6", "dateTime": 1519591285172}, {"current_trial": 130, "trialdata": {"rt": -1000, "trial_type": "single-audio", "word": "lunch", "stimulus": "/static/audio/wordpool/LUNCH.wav", "conditions": [12, 1600, "a", 12000], "internal_node_id": "0.0-94.0", "trial": 3, "time_elapsed": 535032, "serialpos": 1, "key_press": -1, "wordID": 848, "type": "PRES_AUD", "trial_index": 130}, "uniqueid": "MTK2920:33M4IA01QH80DOBM6N7QP583SRNXR6", "dateTime": 1519591287842}, {"current_trial": 131, "trialdata": {"rt": -1000, "trial_type": "single-audio", "word": "camel", "stimulus": "/static/audio/wordpool/CAMEL.wav", "conditions": [12, 1600, "a", 12000], "internal_node_id": "0.0-95.0", "trial": 3, "time_elapsed": 537722, "serialpos": 2, "key_press": -1, "wordID": 222, "type": "PRES_AUD", "trial_index": 131}, "uniqueid": "MTK2920:33M4IA01QH80DOBM6N7QP583SRNXR6", "dateTime": 1519591290532}, {"current_trial": 132, "trialdata": {"rt": -1000, "trial_type": "single-audio", "word": "actor", "stimulus": "/static/audio/wordpool/ACTOR.wav", "conditions": [12, 1600, "a", 12000], "internal_node_id": "0.0-96.0", "trial": 3, "time_elapsed": 540513, "serialpos": 3, "key_press": -1, "wordID": 4, "type": "PRES_AUD", "trial_index": 132}, "uniqueid": "MTK2920:33M4IA01QH80DOBM6N7QP583SRNXR6", "dateTime": 1519591293324}, {"current_trial": 133, "trialdata": {"rt": -1000, "trial_type": "single-audio", "word": "actress", "stimulus": "/static/audio/wordpool/ACTRESS.wav", "conditions": [12, 1600, "a", 12000], "internal_node_id": "0.0-97.0", "trial": 3, "time_elapsed": 543223, "serialpos": 4, "key_press": -1, "wordID": 5, "type": "PRES_AUD", "trial_index": 133}, "uniqueid": "MTK2920:33M4IA01QH80DOBM6N7QP583SRNXR6", "dateTime": 1519591296033}, {"current_trial": 134, "trialdata": {"rt": -1000, "trial_type": "single-audio", "word": "spool", "stimulus": "/static/audio/wordpool/SPOOL.wav", "conditions": [12, 1600, "a", 12000], "internal_node_id": "0.0-98.0", "trial": 3, "time_elapsed": 545894, "serialpos": 5, "key_press": -1, "wordID": 1355, "type": "PRES_AUD", "trial_index": 134}, "uniqueid": "MTK2920:33M4IA01QH80DOBM6N7QP583SRNXR6", "dateTime": 1519591298704}, {"current_trial": 135, "trialdata": {"rt": -1000, "trial_type": "single-audio", "word": "world", "stimulus": "/static/audio/wordpool/WORLD.wav", "conditions": [12, 1600, "a", 12000], "internal_node_id": "0.0-99.0", "trial": 3, "time_elapsed": 548683, "serialpos": 6, "key_press": -1, "wordID": 1621, "type": "PRES_AUD", "trial_index": 135}, "uniqueid": "MTK2920:33M4IA01QH80DOBM6N7QP583SRNXR6", "dateTime": 1519591301494}, {"current_trial": 136, "trialdata": {"rt": -1000, "trial_type": "single-audio", "word": "suitcase", "stimulus": "/static/audio/wordpool/SUITCASE.wav", "conditions": [12, 1600, "a", 12000], "internal_node_id": "0.0-100.0", "trial": 3, "time_elapsed": 551234, "serialpos": 7, "key_press": -1, "wordID": 1402, "type": "PRES_AUD", "trial_index": 136}, "uniqueid": "MTK2920:33M4IA01QH80DOBM6N7QP583SRNXR6", "dateTime": 1519591304045}, {"current_trial": 137, "trialdata": {"rt": -1000, "trial_type": "single-audio", "word": "mailbox", "stimulus": "/static/audio/wordpool/MAILBOX.wav", "conditions": [12, 1600, "a", 12000], "internal_node_id": "0.0-101.0", "trial": 3, "time_elapsed": 553724, "serialpos": 8, "key_press": -1, "wordID": 856, "type": "PRES_AUD", "trial_index": 137}, "uniqueid": "MTK2920:33M4IA01QH80DOBM6N7QP583SRNXR6", "dateTime": 1519591306535}, {"current_trial": 138, "trialdata": {"rt": -1000, "trial_type": "single-audio", "word": "europe", "stimulus": "/static/audio/wordpool/EUROPE.wav", "conditions": [12, 1600, "a", 12000], "internal_node_id": "0.0-102.0", "trial": 3, "time_elapsed": 556274, "serialpos": 9, "key_press": -1, "wordID": 540, "type": "PRES_AUD", "trial_index": 138}, "uniqueid": "MTK2920:33M4IA01QH80DOBM6N7QP583SRNXR6", "dateTime": 1519591309084}, {"current_trial": 139, "trialdata": {"rt": -1000, "trial_type": "single-audio", "word": "rocket", "stimulus": "/static/audio/wordpool/ROCKET.wav", "conditions": [12, 1600, "a", 12000], "internal_node_id": "0.0-103.0", "trial": 3, "time_elapsed": 558805, "serialpos": 10, "key_press": -1, "wordID": 1201, "type": "PRES_AUD", "trial_index": 139}, "uniqueid": "MTK2920:33M4IA01QH80DOBM6N7QP583SRNXR6", "dateTime": 1519591311615}, {"current_trial": 140, "trialdata": {"rt": -1000, "trial_type": "single-audio", "word": "donkey", "stimulus": "/static/audio/wordpool/DONKEY.wav", "conditions": [12, 1600, "a", 12000], "internal_node_id": "0.0-104.0", "trial": 3, "time_elapsed": 561255, "serialpos": 11, "key_press": -1, "wordID": 483, "type": "PRES_AUD", "trial_index": 140}, "uniqueid": "MTK2920:33M4IA01QH80DOBM6N7QP583SRNXR6", "dateTime": 1519591314065}, {"current_trial": 141, "trialdata": {"rt": -1, "trial_type": "single-stim", "stimulus": "", "internal_node_id": "0.0-105.0-0.0", "time_elapsed": 562615, "key_press": -1, "type": "PRE_RECALL_DELAY", "trial_index": 141}, "uniqueid": "MTK2920:33M4IA01QH80DOBM6N7QP583SRNXR6", "dateTime": 1519591315426}, {"current_trial": 142, "trialdata": {"rt": -1000, "trial_type": "single-audio", "stimulus": "/static/audio/400Hz.wav", "internal_node_id": "0.0-106.0", "time_elapsed": 563125, "key_press": -1, "type": "PRE_RECALL_ALERT", "trial_index": 142}, "uniqueid": "MTK2920:33M4IA01QH80DOBM6N7QP583SRNXR6", "dateTime": 1519591315935}, {"current_trial": 143, "trialdata": {"rt": [4668, 6035, 7105, 8084, 9968, 11094, 12374, 13913, 15988, 18834, 20347, 22361], "recwords": ["heart", "lunch", "camel", "actor", "actress", "spool", "world", "suitcase", "mailbox", "europe", "rocket", "donkey"], "key_times": [3784, 3981, 4171, 4243, 4397, 4668, 5139, 5326, 5492, 5643, 5682, 6035, 6535, 6653, 6758, 6866, 6904, 7105, 7310, 7456, 7627, 7728, 7852, 8084, 8820, 8964, 9135, 9301, 9413, 9533, 9675, 9968, 10256, 10373, 10543, 10685, 10853, 11094, 11730, 11810, 11924, 12003, 12143, 12374, 12713, 12824, 12960, 13070, 13251, 13438, 13581, 13688, 13913, 14143, 14228, 14428, 14739, 14910, 15069, 15183, 15352, 15579, 15988, 17706, 17819, 18034, 18124, 18314, 18451, 18834, 18873, 19599, 19676, 19785, 19901, 19992, 20102, 20347, 20767, 21213, 21286, 21506, 21786, 21902, 22361], "trial_type": "free-recall", "conditions": [12, 1600, "a", 12000], "internal_node_id": "0.0-107.0-0.0", "key_presses": [72, 69, 65, 82, 84, 13, 76, 85, 78, 67, 72, 13, 67, 65, 77, 69, 76, 13, 65, 67, 84, 79, 82, 13, 65, 67, 84, 82, 69, 83, 83, 13, 83, 80, 79, 79, 76, 13, 87, 79, 82, 76, 68, 13, 83, 85, 73, 84, 67, 65, 83, 69, 13, 77, 65, 76, 8, 73, 76, 66, 79, 88, 13, 69, 85, 82, 79, 80, 69, 13, 16, 82, 79, 67, 75, 69, 84, 13, 68, 79, 78, 75, 69, 89, 13], "trial": 3, "time_elapsed": 623134, "type": "FREE_RECALL", "trial_index": 143}, "uniqueid": "MTK2920:33M4IA01QH80DOBM6N7QP583SRNXR6", "dateTime": 1519591375951}, {"current_trial": 144, "trialdata": {"rt": 2194, "trial_type": "text", "internal_node_id": "0.0-108.0", "time_elapsed": 627337, "key_press": 32, "type": "INSTRUCTIONS", "trial_index": 144}, "uniqueid": "MTK2920:33M4IA01QH80DOBM6N7QP583SRNXR6", "dateTime": 1519591380147}, {"current_trial": 145, "trialdata": {"rt": [1470, 3031, 5586, 7291, 8908, 10380, 11581, 13645, 14914, 17518, 18783, 22028, 23428], "trial_type": "math-distractor", "key_times": [1113, 1257, 1470, 2502, 2788, 3031, 5080, 5371, 5586, 6944, 7067, 7291, 8503, 8680, 8908, 9938, 10135, 10380, 11337, 11581, 12982, 13272, 13645, 14677, 14914, 16641, 17226, 17518, 18336, 18565, 18783, 21119, 21695, 22028, 23059, 23174, 23428], "responses": ["17", "18", "25", "20", "17", "18", "7", "15", "8", "16", "15", "21", "19"], "num2": [4, 6, 7, 8, 8, 4, 4, 6, 2, 4, 7, 7, 9, 7], "num3": [9, 3, 9, 4, 4, 7, 1, 4, 1, 5, 7, 6, 9, 1], "conditions": [24, 800, "a", 24000], "internal_node_id": "0.0-109.0", "key_presses": [49, 55, 13, 49, 56, 13, 50, 53, 13, 50, 48, 13, 49, 55, 13, 49, 56, 13, 55, 13, 49, 53, 13, 56, 13, 49, 54, 13, 49, 53, 13, 50, 49, 13, 49, 57, 13], "trial": 4, "time_elapsed": 653358, "type": "DISTRACTOR", "trial_index": 145, "num1": [4, 9, 9, 8, 5, 7, 2, 5, 5, 7, 1, 8, 1, 9]}, "uniqueid": "MTK2920:33M4IA01QH80DOBM6N7QP583SRNXR6", "dateTime": 1519591406168}, {"current_trial": 146, "trialdata": {"rt": -1, "trial_type": "single-stim", "stimulus": "<p id=\"stim\">10</p>", "internal_node_id": "0.0-110.0-0.0", "time_elapsed": 656378, "key_press": -1, "trial_index": 146}, "uniqueid": "MTK2920:33M4IA01QH80DOBM6N7QP583SRNXR6", "dateTime": 1519591409188}, {"current_trial": 147, "trialdata": {"rt": -1, "trial_type": "single-stim", "stimulus": "<p id=\"stim\">9</p>", "internal_node_id": "0.0-110.0-1.0", "time_elapsed": 657388, "key_press": -1, "trial_index": 147}, "uniqueid": "MTK2920:33M4IA01QH80DOBM6N7QP583SRNXR6", "dateTime": 1519591410198}, {"current_trial": 148, "trialdata": {"rt": -1, "trial_type": "single-stim", "stimulus": "<p id=\"stim\">8</p>", "internal_node_id": "0.0-110.0-2.0", "time_elapsed": 658397, "key_press": -1, "trial_index": 148}, "uniqueid": "MTK2920:33M4IA01QH80DOBM6N7QP583SRNXR6", "dateTime": 1519591411208}, {"current_trial": 149, "trialdata": {"rt": -1, "trial_type": "single-stim", "stimulus": "<p id=\"stim\">7</p>", "internal_node_id": "0.0-110.0-3.0", "time_elapsed": 659407, "key_press": -1, "trial_index": 149}, "uniqueid": "MTK2920:33M4IA01QH80DOBM6N7QP583SRNXR6", "dateTime": 1519591412218}, {"current_trial": 150, "trialdata": {"rt": -1, "trial_type": "single-stim", "stimulus": "<p id=\"stim\">6</p>", "internal_node_id": "0.0-110.0-4.0", "time_elapsed": 660418, "key_press": -1, "trial_index": 150}, "uniqueid": "MTK2920:33M4IA01QH80DOBM6N7QP583SRNXR6", "dateTime": 1519591413229}, {"current_trial": 151, "trialdata": {"rt": -1, "trial_type": "single-stim", "stimulus": "<p id=\"stim\">5</p>", "internal_node_id": "0.0-110.0-5.0", "time_elapsed": 661428, "key_press": -1, "trial_index": 151}, "uniqueid": "MTK2920:33M4IA01QH80DOBM6N7QP583SRNXR6", "dateTime": 1519591414239}, {"current_trial": 152, "trialdata": {"rt": -1, "trial_type": "single-stim", "stimulus": "<p id=\"stim\">4</p>", "internal_node_id": "0.0-110.0-6.0", "time_elapsed": 662438, "key_press": -1, "trial_index": 152}, "uniqueid": "MTK2920:33M4IA01QH80DOBM6N7QP583SRNXR6", "dateTime": 1519591415249}, {"current_trial": 153, "trialdata": {"rt": -1, "trial_type": "single-stim", "stimulus": "<p id=\"stim\">3</p>", "internal_node_id": "0.0-110.0-7.0", "time_elapsed": 663448, "key_press": -1, "trial_index": 153}, "uniqueid": "MTK2920:33M4IA01QH80DOBM6N7QP583SRNXR6", "dateTime": 1519591416259}, {"current_trial": 154, "trialdata": {"rt": -1, "trial_type": "single-stim", "stimulus": "<p id=\"stim\">2</p>", "internal_node_id": "0.0-110.0-8.0", "time_elapsed": 664458, "key_press": -1, "trial_index": 154}, "uniqueid": "MTK2920:33M4IA01QH80DOBM6N7QP583SRNXR6", "dateTime": 1519591417269}, {"current_trial": 155, "trialdata": {"rt": -1, "trial_type": "single-stim", "stimulus": "<p id=\"stim\">1</p>", "internal_node_id": "0.0-110.0-9.0", "time_elapsed": 665468, "key_press": -1, "trial_index": 155}, "uniqueid": "MTK2920:33M4IA01QH80DOBM6N7QP583SRNXR6", "dateTime": 1519591418279}, {"current_trial": 156, "trialdata": {"rt": -1, "trial_type": "single-stim", "stimulus": "<p id=\"stim\">+</p>", "internal_node_id": "0.0-111.0-0.0", "time_elapsed": 666979, "key_press": -1, "type": "FIXATION", "trial_index": 156}, "uniqueid": "MTK2920:33M4IA01QH80DOBM6N7QP583SRNXR6", "dateTime": 1519591419789}, {"current_trial": 157, "trialdata": {"rt": -1000, "trial_type": "single-audio", "word": "piano", "stimulus": "/static/audio/wordpool/PIANO.wav", "conditions": [24, 800, "a", 24000], "internal_node_id": "0.0-112.0", "trial": 4, "time_elapsed": 668729, "serialpos": 0, "key_press": -1, "wordID": 1056, "type": "PRES_AUD", "trial_index": 157}, "uniqueid": "MTK2920:33M4IA01QH80DOBM6N7QP583SRNXR6", "dateTime": 1519591421539}, {"current_trial": 158, "trialdata": {"rt": -1000, "trial_type": "single-audio", "word": "snack", "stimulus": "/static/audio/wordpool/SNACK.wav", "conditions": [24, 800, "a", 24000], "internal_node_id": "0.0-113.0", "trial": 4, "time_elapsed": 670659, "serialpos": 1, "key_press": -1, "wordID": 1330, "type": "PRES_AUD", "trial_index": 158}, "uniqueid": "MTK2920:33M4IA01QH80DOBM6N7QP583SRNXR6", "dateTime": 1519591423469}, {"current_trial": 159, "trialdata": {"rt": -1000, "trial_type": "single-audio", "word": "salad", "stimulus": "/static/audio/wordpool/SALAD.wav", "conditions": [24, 800, "a", 24000], "internal_node_id": "0.0-114.0", "trial": 4, "time_elapsed": 672280, "serialpos": 2, "key_press": -1, "wordID": 1223, "type": "PRES_AUD", "trial_index": 159}, "uniqueid": "MTK2920:33M4IA01QH80DOBM6N7QP583SRNXR6", "dateTime": 1519591425090}, {"current_trial": 160, "trialdata": {"rt": -1000, "trial_type": "single-audio", "word": "tile", "stimulus": "/static/audio/wordpool/TILE.wav", "conditions": [24, 800, "a", 24000], "internal_node_id": "0.0-115.0", "trial": 4, "time_elapsed": 673920, "serialpos": 3, "key_press": -1, "wordID": 1467, "type": "PRES_AUD", "trial_index": 160}, "uniqueid": "MTK2920:33M4IA01QH80DOBM6N7QP583SRNXR6", "dateTime": 1519591426730}, {"current_trial": 161, "trialdata": {"rt": -1000, "trial_type": "single-audio", "word": "kleenex", "stimulus": "/static/audio/wordpool/KLEENEX.wav", "conditions": [24, 800, "a", 24000], "internal_node_id": "0.0-116.0", "trial": 4, "time_elapsed": 675820, "serialpos": 4, "key_press": -1, "wordID": 781, "type": "PRES_AUD", "trial_index": 161}, "uniqueid": "MTK2920:33M4IA01QH80DOBM6N7QP583SRNXR6", "dateTime": 1519591428630}, {"current_trial": 162, "trialdata": {"rt": -1000, "trial_type": "single-audio", "word": "seafood", "stimulus": "/static/audio/wordpool/SEAFOOD.wav", "conditions": [24, 800, "a", 24000], "internal_node_id": "0.0-117.0", "trial": 4, "time_elapsed": 677520, "serialpos": 5, "key_press": -1, "wordID": 1259, "type": "PRES_AUD", "trial_index": 162}, "uniqueid": "MTK2920:33M4IA01QH80DOBM6N7QP583SRNXR6", "dateTime": 1519591430330}, {"current_trial": 163, "trialdata": {"rt": -1000, "trial_type": "single-audio", "word": "jello", "stimulus": "/static/audio/wordpool/JELLO.wav", "conditions": [24, 800, "a", 24000], "internal_node_id": "0.0-118.0", "trial": 4, "time_elapsed": 679161, "serialpos": 6, "key_press": -1, "wordID": 753, "type": "PRES_AUD", "trial_index": 163}, "uniqueid": "MTK2920:33M4IA01QH80DOBM6N7QP583SRNXR6", "dateTime": 1519591431971}, {"current_trial": 164, "trialdata": {"rt": -1000, "trial_type": "single-audio", "word": "apron", "stimulus": "/static/audio/wordpool/APRON.wav", "conditions": [24, 800, "a", 24000], "internal_node_id": "0.0-119.0", "trial": 4, "time_elapsed": 681110, "serialpos": 7, "key_press": -1, "wordID": 34, "type": "PRES_AUD", "trial_index": 164}, "uniqueid": "MTK2920:33M4IA01QH80DOBM6N7QP583SRNXR6", "dateTime": 1519591433921}, {"current_trial": 165, "trialdata": {"rt": -1000, "trial_type": "single-audio", "word": "belly", "stimulus": "/static/audio/wordpool/BELLY.wav", "conditions": [24, 800, "a", 24000], "internal_node_id": "0.0-120.0", "trial": 4, "time_elapsed": 683101, "serialpos": 8, "key_press": -1, "wordID": 118, "type": "PRES_AUD", "trial_index": 165}, "uniqueid": "MTK2920:33M4IA01QH80DOBM6N7QP583SRNXR6", "dateTime": 1519591435911}, {"current_trial": 166, "trialdata": {"rt": -1000, "trial_type": "single-audio", "word": "table", "stimulus": "/static/audio/wordpool/TABLE.wav", "conditions": [24, 800, "a", 24000], "internal_node_id": "0.0-121.0", "trial": 4, "time_elapsed": 685080, "serialpos": 9, "key_press": -1, "wordID": 1425, "type": "PRES_AUD", "trial_index": 166}, "uniqueid": "MTK2920:33M4IA01QH80DOBM6N7QP583SRNXR6", "dateTime": 1519591437891}, {"current_trial": 167, "trialdata": {"rt": -1000, "trial_type": "single-audio", "word": "compass", "stimulus": "/static/audio/wordpool/COMPASS.wav", "conditions": [24, 800, "a", 24000], "internal_node_id": "0.0-122.0", "trial": 4, "time_elapsed": 687060, "serialpos": 10, "key_press": -1, "wordID": 357, "type": "PRES_AUD", "trial_index": 167}, "uniqueid": "MTK2920:33M4IA01QH80DOBM6N7QP583SRNXR6", "dateTime": 1519591439871}, {"current_trial": 168, "trialdata": {"rt": -1000, "trial_type": "single-audio", "word": "trombone", "stimulus": "/static/audio/wordpool/TROMBONE.wav", "conditions": [24, 800, "a", 24000], "internal_node_id": "0.0-123.0", "trial": 4, "time_elapsed": 688992, "serialpos": 11, "key_press": -1, "wordID": 1507, "type": "PRES_AUD", "trial_index": 168}, "uniqueid": "MTK2920:33M4IA01QH80DOBM6N7QP583SRNXR6", "dateTime": 1519591441803}, {"current_trial": 169, "trialdata": {"rt": -1000, "trial_type": "single-audio", "word": "ankle", "stimulus": "/static/audio/wordpool/ANKLE.wav", "conditions": [24, 800, "a", 24000], "internal_node_id": "0.0-124.0", "trial": 4, "time_elapsed": 690962, "serialpos": 12, "key_press": -1, "wordID": 23, "type": "PRES_AUD", "trial_index": 169}, "uniqueid": "MTK2920:33M4IA01QH80DOBM6N7QP583SRNXR6", "dateTime": 1519591443773}, {"current_trial": 170, "trialdata": {"rt": -1000, "trial_type": "single-audio", "word": "brother", "stimulus": "/static/audio/wordpool/BROTHER.wav", "conditions": [24, 800, "a", 24000], "internal_node_id": "0.0-125.0", "trial": 4, "time_elapsed": 692943, "serialpos": 13, "key_press": -1, "wordID": 178, "type": "PRES_AUD", "trial_index": 170}, "uniqueid": "MTK2920:33M4IA01QH80DOBM6N7QP583SRNXR6", "dateTime": 1519591445753}, {"current_trial": 171, "trialdata": {"rt": -1000, "trial_type": "single-audio", "word": "label", "stimulus": "/static/audio/wordpool/LABEL.wav", "conditions": [24, 800, "a", 24000], "internal_node_id": "0.0-126.0", "trial": 4, "time_elapsed": 694773, "serialpos": 14, "key_press": -1, "wordID": 789, "type": "PRES_AUD", "trial_index": 171}, "uniqueid": "MTK2920:33M4IA01QH80DOBM6N7QP583SRNXR6", "dateTime": 1519591447583}, {"current_trial": 172, "trialdata": {"rt": -1000, "trial_type": "single-audio", "word": "glove", "stimulus": "/static/audio/wordpool/GLOVE.wav", "conditions": [24, 800, "a", 24000], "internal_node_id": "0.0-127.0", "trial": 4, "time_elapsed": 696633, "serialpos": 15, "key_press": -1, "wordID": 641, "type": "PRES_AUD", "trial_index": 172}, "uniqueid": "MTK2920:33M4IA01QH80DOBM6N7QP583SRNXR6", "dateTime": 1519591449443}, {"current_trial": 173, "trialdata": {"rt": -1000, "trial_type": "single-audio", "word": "umpire", "stimulus": "/static/audio/wordpool/UMPIRE.wav", "conditions": [24, 800, "a", 24000], "internal_node_id": "0.0-128.0", "trial": 4, "time_elapsed": 698253, "serialpos": 16, "key_press": -1, "wordID": 1534, "type": "PRES_AUD", "trial_index": 173}, "uniqueid": "MTK2920:33M4IA01QH80DOBM6N7QP583SRNXR6", "dateTime": 1519591451064}, {"current_trial": 174, "trialdata": {"rt": -1000, "trial_type": "single-audio", "word": "pepper", "stimulus": "/static/audio/wordpool/PEPPER.wav", "conditions": [24, 800, "a", 24000], "internal_node_id": "0.0-129.0", "trial": 4, "time_elapsed": 699883, "serialpos": 17, "key_press": -1, "wordID": 1046, "type": "PRES_AUD", "trial_index": 174}, "uniqueid": "MTK2920:33M4IA01QH80DOBM6N7QP583SRNXR6", "dateTime": 1519591452693}, {"current_trial": 175, "trialdata": {"rt": -1000, "trial_type": "single-audio", "word": "garlic", "stimulus": "/static/audio/wordpool/GARLIC.wav", "conditions": [24, 800, "a", 24000], "internal_node_id": "0.0-130.0", "trial": 4, "time_elapsed": 701644, "serialpos": 18, "key_press": -1, "wordID": 623, "type": "PRES_AUD", "trial_index": 175}, "uniqueid": "MTK2920:33M4IA01QH80DOBM6N7QP583SRNXR6", "dateTime": 1519591454454}, {"current_trial": 176, "trialdata": {"rt": -1000, "trial_type": "single-audio", "word": "marsh", "stimulus": "/static/audio/wordpool/MARSH.wav", "conditions": [24, 800, "a", 24000], "internal_node_id": "0.0-131.0", "trial": 4, "time_elapsed": 703554, "serialpos": 19, "key_press": -1, "wordID": 873, "type": "PRES_AUD", "trial_index": 176}, "uniqueid": "MTK2920:33M4IA01QH80DOBM6N7QP583SRNXR6", "dateTime": 1519591456364}, {"current_trial": 177, "trialdata": {"rt": -1000, "trial_type": "single-audio", "word": "pastry", "stimulus": "/static/audio/wordpool/PASTRY.wav", "conditions": [24, 800, "a", 24000], "internal_node_id": "0.0-132.0", "trial": 4, "time_elapsed": 705314, "serialpos": 20, "key_press": -1, "wordID": 1021, "type": "PRES_AUD", "trial_index": 177}, "uniqueid": "MTK2920:33M4IA01QH80DOBM6N7QP583SRNXR6", "dateTime": 1519591458124}, {"current_trial": 178, "trialdata": {"rt": -1000, "trial_type": "single-audio", "word": "scarecrow", "stimulus": "/static/audio/wordpool/SCARECROW.wav", "conditions": [24, 800, "a", 24000], "internal_node_id": "0.0-133.0", "trial": 4, "time_elapsed": 707244, "serialpos": 21, "key_press": -1, "wordID": 1244, "type": "PRES_AUD", "trial_index": 178}, "uniqueid": "MTK2920:33M4IA01QH80DOBM6N7QP583SRNXR6", "dateTime": 1519591460054}, {"current_trial": 179, "trialdata": {"rt": -1000, "trial_type": "single-audio", "word": "lake", "stimulus": "/static/audio/wordpool/LAKE.wav", "conditions": [24, 800, "a", 24000], "internal_node_id": "0.0-134.0", "trial": 4, "time_elapsed": 709232, "serialpos": 22, "key_press": -1, "wordID": 795, "type": "PRES_AUD", "trial_index": 179}, "uniqueid": "MTK2920:33M4IA01QH80DOBM6N7QP583SRNXR6", "dateTime": 1519591462043}, {"current_trial": 180, "trialdata": {"rt": -1000, "trial_type": "single-audio", "word": "soda", "stimulus": "/static/audio/wordpool/SODA.wav", "conditions": [24, 800, "a", 24000], "internal_node_id": "0.0-135.0", "trial": 4, "time_elapsed": 711115, "serialpos": 23, "key_press": -1, "wordID": 1340, "type": "PRES_AUD", "trial_index": 180}, "uniqueid": "MTK2920:33M4IA01QH80DOBM6N7QP583SRNXR6", "dateTime": 1519591463925}, {"current_trial": 181, "trialdata": {"rt": -1, "trial_type": "single-stim", "stimulus": "", "internal_node_id": "0.0-136.0-0.0", "time_elapsed": 712495, "key_press": -1, "type": "PRE_RECALL_DELAY", "trial_index": 181}, "uniqueid": "MTK2920:33M4IA01QH80DOBM6N7QP583SRNXR6", "dateTime": 1519591465305}, {"current_trial": 182, "trialdata": {"rt": -1000, "trial_type": "single-audio", "stimulus": "/static/audio/400Hz.wav", "internal_node_id": "0.0-137.0", "time_elapsed": 713005, "key_press": -1, "type": "PRE_RECALL_ALERT", "trial_index": 182}, "uniqueid": "MTK2920:33M4IA01QH80DOBM6N7QP583SRNXR6", "dateTime": 1519591465815}, {"current_trial": 183, "trialdata": {"rt": [4865, 6298, 7326, 8839, 11841, 14301, 16315, 18897, 21230, 22887, 26525, 27417, 28492, 30722, 33188, 34625, 36244, 39255, 40394, 41776], "recwords": ["piano", "snack", "salad", "tile", "kleenex", "seafood", "hell", "compass", "trombone", "ankle", "label", "glove", "umpire", "pepper", "garlic", "marsh", "pastry", "scar", "lake", "soda"], "key_times": [3759, 4062, 4317, 4434, 4532, 4865, 5621, 5735, 5809, 6011, 6089, 6298, 6537, 6635, 6746, 6855, 7142, 7326, 8405, 8482, 8594, 8712, 8839, 9747, 10143, 10553, 10709, 10878, 11452, 11662, 11841, 13035, 13287, 13397, 13601, 13795, 13952, 14064, 14301, 15478, 15595, 15710, 15814, 16315, 18015, 18086, 18172, 18325, 18442, 18580, 18732, 18897, 19957, 20197, 20351, 20461, 20573, 20680, 20785, 20935, 21230, 22119, 22229, 22380, 22571, 22682, 22887, 25830, 25901, 26020, 26248, 26356, 26525, 26788, 26905, 27044, 27121, 27302, 27417, 27676, 27848, 27993, 28166, 28272, 28374, 28492, 29356, 29522, 29838, 29990, 30143, 30253, 30722, 32406, 32564, 32640, 32756, 32885, 32999, 33188, 34026, 34144, 34173, 34370, 34443, 34625, 34969, 35299, 35479, 35633, 35816, 35957, 36244, 37925, 38113, 38275, 38459, 39255, 39797, 39913, 40021, 40136, 40394, 41142, 41260, 41441, 41552, 41776], "trial_type": "free-recall", "conditions": [24, 800, "a", 24000], "internal_node_id": "0.0-138.0-0.0", "key_presses": [80, 73, 65, 78, 79, 13, 83, 78, 65, 67, 75, 13, 83, 65, 76, 65, 68, 13, 84, 73, 76, 69, 13, 75, 76, 69, 69, 78, 69, 88, 13, 83, 69, 65, 70, 79, 79, 68, 13, 72, 69, 76, 76, 13, 67, 79, 77, 80, 65, 83, 83, 13, 84, 82, 79, 77, 66, 79, 78, 69, 13, 65, 78, 75, 76, 69, 13, 76, 65, 66, 69, 76, 13, 71, 76, 79, 86, 69, 13, 85, 77, 80, 73, 82, 69, 13, 80, 69, 80, 80, 69, 82, 13, 71, 65, 82, 76, 73, 67, 13, 77, 65, 82, 83, 72, 13, 80, 65, 83, 84, 82, 89, 13, 83, 67, 65, 82, 13, 76, 65, 75, 69, 13, 83, 79, 68, 65, 13], "trial": 4, "time_elapsed": 773014, "type": "FREE_RECALL", "trial_index": 183}, "uniqueid": "MTK2920:33M4IA01QH80DOBM6N7QP583SRNXR6", "dateTime": 1519591525831}, {"current_trial": 184, "trialdata": {"rt": 3108, "trial_type": "text", "internal_node_id": "0.0-139.0", "time_elapsed": 778132, "key_press": 32, "type": "INSTRUCTIONS", "trial_index": 184}, "uniqueid": "MTK2920:33M4IA01QH80DOBM6N7QP583SRNXR6", "dateTime": 1519591530942}, {"current_trial": 185, "trialdata": {"rt": [2005, 3550, 4821, 5854, 7107, 8171, 9657, 10678, 12003], "trial_type": "math-distractor", "key_times": [1722, 1873, 2005, 3221, 3331, 3550, 4349, 4586, 4821, 5564, 5644, 5854, 6837, 7107, 7873, 7968, 8171, 9300, 9420, 9657, 10456, 10678, 11692, 11834, 12003], "responses": ["14", "10", "14", "19", "8", "11", "20", "4", "11"], "num2": [1, 2, 6, 9, 5, 1, 6, 2, 1, 1], "num3": [5, 1, 6, 1, 2, 9, 5, 1, 3, 2], "conditions": [24, 800, "a", 12000], "internal_node_id": "0.0-140.0", "key_presses": [49, 52, 13, 49, 48, 13, 49, 52, 13, 49, 57, 13, 56, 13, 49, 49, 13, 50, 48, 13, 52, 13, 49, 49, 13], "trial": 5, "time_elapsed": 792148, "type": "DISTRACTOR", "trial_index": 185, "num1": [8, 7, 2, 9, 1, 1, 9, 1, 7, 9]}, "uniqueid": "MTK2920:33M4IA01QH80DOBM6N7QP583SRNXR6", "dateTime": 1519591544958}, {"current_trial": 186, "trialdata": {"rt": -1, "trial_type": "single-stim", "stimulus": "<p id=\"stim\">10</p>", "internal_node_id": "0.0-141.0-0.0", "time_elapsed": 795156, "key_press": -1, "trial_index": 186}, "uniqueid": "MTK2920:33M4IA01QH80DOBM6N7QP583SRNXR6", "dateTime": 1519591547967}, {"current_trial": 187, "trialdata": {"rt": -1, "trial_type": "single-stim", "stimulus": "<p id=\"stim\">9</p>", "internal_node_id": "0.0-141.0-1.0", "time_elapsed": 796166, "key_press": -1, "trial_index": 187}, "uniqueid": "MTK2920:33M4IA01QH80DOBM6N7QP583SRNXR6", "dateTime": 1519591548977}, {"current_trial": 188, "trialdata": {"rt": -1, "trial_type": "single-stim", "stimulus": "<p id=\"stim\">8</p>", "internal_node_id": "0.0-141.0-2.0", "time_elapsed": 797176, "key_press": -1, "trial_index": 188}, "uniqueid": "MTK2920:33M4IA01QH80DOBM6N7QP583SRNXR6", "dateTime": 1519591549987}, {"current_trial": 189, "trialdata": {"rt": -1, "trial_type": "single-stim", "stimulus": "<p id=\"stim\">7</p>", "internal_node_id": "0.0-141.0-3.0", "time_elapsed": 798186, "key_press": -1, "trial_index": 189}, "uniqueid": "MTK2920:33M4IA01QH80DOBM6N7QP583SRNXR6", "dateTime": 1519591550997}, {"current_trial": 190, "trialdata": {"rt": -1, "trial_type": "single-stim", "stimulus": "<p id=\"stim\">6</p>", "internal_node_id": "0.0-141.0-4.0", "time_elapsed": 799196, "key_press": -1, "trial_index": 190}, "uniqueid": "MTK2920:33M4IA01QH80DOBM6N7QP583SRNXR6", "dateTime": 1519591552007}, {"current_trial": 191, "trialdata": {"rt": -1, "trial_type": "single-stim", "stimulus": "<p id=\"stim\">5</p>", "internal_node_id": "0.0-141.0-5.0", "time_elapsed": 800206, "key_press": -1, "trial_index": 191}, "uniqueid": "MTK2920:33M4IA01QH80DOBM6N7QP583SRNXR6", "dateTime": 1519591553017}, {"current_trial": 192, "trialdata": {"rt": -1, "trial_type": "single-stim", "stimulus": "<p id=\"stim\">4</p>", "internal_node_id": "0.0-141.0-6.0", "time_elapsed": 801216, "key_press": -1, "trial_index": 192}, "uniqueid": "MTK2920:33M4IA01QH80DOBM6N7QP583SRNXR6", "dateTime": 1519591554027}, {"current_trial": 193, "trialdata": {"rt": -1, "trial_type": "single-stim", "stimulus": "<p id=\"stim\">3</p>", "internal_node_id": "0.0-141.0-7.0", "time_elapsed": 802227, "key_press": -1, "trial_index": 193}, "uniqueid": "MTK2920:33M4IA01QH80DOBM6N7QP583SRNXR6", "dateTime": 1519591555038}, {"current_trial": 194, "trialdata": {"rt": -1, "trial_type": "single-stim", "stimulus": "<p id=\"stim\">2</p>", "internal_node_id": "0.0-141.0-8.0", "time_elapsed": 803237, "key_press": -1, "trial_index": 194}, "uniqueid": "MTK2920:33M4IA01QH80DOBM6N7QP583SRNXR6", "dateTime": 1519591556048}, {"current_trial": 195, "trialdata": {"rt": -1, "trial_type": "single-stim", "stimulus": "<p id=\"stim\">1</p>", "internal_node_id": "0.0-141.0-9.0", "time_elapsed": 804247, "key_press": -1, "trial_index": 195}, "uniqueid": "MTK2920:33M4IA01QH80DOBM6N7QP583SRNXR6", "dateTime": 1519591557057}, {"current_trial": 196, "trialdata": {"rt": -1, "trial_type": "single-stim", "stimulus": "<p id=\"stim\">+</p>", "internal_node_id": "0.0-142.0-0.0", "time_elapsed": 805757, "key_press": -1, "type": "FIXATION", "trial_index": 196}, "uniqueid": "MTK2920:33M4IA01QH80DOBM6N7QP583SRNXR6", "dateTime": 1519591558568}, {"current_trial": 197, "trialdata": {"rt": -1000, "trial_type": "single-audio", "word": "leopard", "stimulus": "/static/audio/wordpool/LEOPARD.wav", "conditions": [24, 800, "a", 12000], "internal_node_id": "0.0-143.0", "trial": 5, "time_elapsed": 807597, "serialpos": 0, "key_press": -1, "wordID": 811, "type": "PRES_AUD", "trial_index": 197}, "uniqueid": "MTK2920:33M4IA01QH80DOBM6N7QP583SRNXR6", "dateTime": 1519591560407}, {"current_trial": 198, "trialdata": {"rt": -1000, "trial_type": "single-audio", "word": "sword", "stimulus": "/static/audio/wordpool/SWORD.wav", "conditions": [24, 800, "a", 12000], "internal_node_id": "0.0-144.0", "trial": 5, "time_elapsed": 809398, "serialpos": 1, "key_press": -1, "wordID": 1422, "type": "PRES_AUD", "trial_index": 198}, "uniqueid": "MTK2920:33M4IA01QH80DOBM6N7QP583SRNXR6", "dateTime": 1519591562208}, {"current_trial": 199, "trialdata": {"rt": -1000, "trial_type": "single-audio", "word": "mammal", "stimulus": "/static/audio/wordpool/MAMMAL.wav", "conditions": [24, 800, "a", 12000], "internal_node_id": "0.0-145.0", "trial": 5, "time_elapsed": 811288, "serialpos": 2, "key_press": -1, "wordID": 860, "type": "PRES_AUD", "trial_index": 199}, "uniqueid": "MTK2920:33M4IA01QH80DOBM6N7QP583SRNXR6", "dateTime": 1519591564098}, {"current_trial": 200, "trialdata": {"rt": -1000, "trial_type": "single-audio", "word": "portrait", "stimulus": "/static/audio/wordpool/PORTRAIT.wav", "conditions": [24, 800, "a", 12000], "internal_node_id": "0.0-146.0", "trial": 5, "time_elapsed": 813028, "serialpos": 3, "key_press": -1, "wordID": 1110, "type": "PRES_AUD", "trial_index": 200}, "uniqueid": "MTK2920:33M4IA01QH80DOBM6N7QP583SRNXR6", "dateTime": 1519591565838}, {"current_trial": 201, "trialdata": {"rt": -1000, "trial_type": "single-audio", "word": "truck", "stimulus": "/static/audio/wordpool/TRUCK.wav", "conditions": [24, 800, "a", 12000], "internal_node_id": "0.0-147.0", "trial": 5, "time_elapsed": 815028, "serialpos": 4, "key_press": -1, "wordID": 1511, "type": "PRES_AUD", "trial_index": 201}, "uniqueid": "MTK2920:33M4IA01QH80DOBM6N7QP583SRNXR6", "dateTime": 1519591567838}, {"current_trial": 202, "trialdata": {"rt": -1000, "trial_type": "single-audio", "word": "trout", "stimulus": "/static/audio/wordpool/TROUT.wav", "conditions": [24, 800, "a", 12000], "internal_node_id": "0.0-148.0", "trial": 5, "time_elapsed": 816719, "serialpos": 5, "key_press": -1, "wordID": 1510, "type": "PRES_AUD", "trial_index": 202}, "uniqueid": "MTK2920:33M4IA01QH80DOBM6N7QP583SRNXR6", "dateTime": 1519591569529}, {"current_trial": 203, "trialdata": {"rt": -1000, "trial_type": "single-audio", "word": "salmon", "stimulus": "/static/audio/wordpool/SALMON.wav", "conditions": [24, 800, "a", 12000], "internal_node_id": "0.0-149.0", "trial": 5, "time_elapsed": 818379, "serialpos": 6, "key_press": -1, "wordID": 1226, "type": "PRES_AUD", "trial_index": 203}, "uniqueid": "MTK2920:33M4IA01QH80DOBM6N7QP583SRNXR6", "dateTime": 1519591571189}, {"current_trial": 204, "trialdata": {"rt": -1000, "trial_type": "single-audio", "word": "cabin", "stimulus": "/static/audio/wordpool/CABIN.wav", "conditions": [24, 800, "a", 12000], "internal_node_id": "0.0-150.0", "trial": 5, "time_elapsed": 820288, "serialpos": 7, "key_press": -1, "wordID": 210, "type": "PRES_AUD", "trial_index": 204}, "uniqueid": "MTK2920:33M4IA01QH80DOBM6N7QP583SRNXR6", "dateTime": 1519591573099}, {"current_trial": 205, "trialdata": {"rt": -1000, "trial_type": "single-audio", "word": "loft", "stimulus": "/static/audio/wordpool/LOFT.wav", "conditions": [24, 800, "a", 12000], "internal_node_id": "0.0-151.0", "trial": 5, "time_elapsed": 822160, "serialpos": 8, "key_press": -1, "wordID": 839, "type": "PRES_AUD", "trial_index": 205}, "uniqueid": "MTK2920:33M4IA01QH80DOBM6N7QP583SRNXR6", "dateTime": 1519591574971}, {"current_trial": 206, "trialdata": {"rt": -1000, "trial_type": "single-audio", "word": "parsley", "stimulus": "/static/audio/wordpool/PARSLEY.wav", "conditions": [24, 800, "a", 12000], "internal_node_id": "0.0-152.0", "trial": 5, "time_elapsed": 824090, "serialpos": 9, "key_press": -1, "wordID": 1015, "type": "PRES_AUD", "trial_index": 206}, "uniqueid": "MTK2920:33M4IA01QH80DOBM6N7QP583SRNXR6", "dateTime": 1519591576901}, {"current_trial": 207, "trialdata": {"rt": -1000, "trial_type": "single-audio", "word": "napkin", "stimulus": "/static/audio/wordpool/NAPKIN.wav", "conditions": [24, 800, "a", 12000], "internal_node_id": "0.0-153.0", "trial": 5, "time_elapsed": 825901, "serialpos": 10, "key_press": -1, "wordID": 936, "type": "PRES_AUD", "trial_index": 207}, "uniqueid": "MTK2920:33M4IA01QH80DOBM6N7QP583SRNXR6", "dateTime": 1519591578712}, {"current_trial": 208, "trialdata": {"rt": -1000, "trial_type": "single-audio", "word": "driver", "stimulus": "/static/audio/wordpool/DRIVER.wav", "conditions": [24, 800, "a", 12000], "internal_node_id": "0.0-154.0", "trial": 5, "time_elapsed": 827711, "serialpos": 11, "key_press": -1, "wordID": 498, "type": "PRES_AUD", "trial_index": 208}, "uniqueid": "MTK2920:33M4IA01QH80DOBM6N7QP583SRNXR6", "dateTime": 1519591580522}, {"current_trial": 209, "trialdata": {"rt": -1000, "trial_type": "single-audio", "word": "thief", "stimulus": "/static/audio/wordpool/THIEF.wav", "conditions": [24, 800, "a", 12000], "internal_node_id": "0.0-155.0", "trial": 5, "time_elapsed": 829371, "serialpos": 12, "key_press": -1, "wordID": 1455, "type": "PRES_AUD", "trial_index": 209}, "uniqueid": "MTK2920:33M4IA01QH80DOBM6N7QP583SRNXR6", "dateTime": 1519591582182}, {"current_trial": 210, "trialdata": {"rt": -1000, "trial_type": "single-audio", "word": "canal", "stimulus": "/static/audio/wordpool/CANAL.wav", "conditions": [24, 800, "a", 12000], "internal_node_id": "0.0-156.0", "trial": 5, "time_elapsed": 831212, "serialpos": 13, "key_press": -1, "wordID": 225, "type": "PRES_AUD", "trial_index": 210}, "uniqueid": "MTK2920:33M4IA01QH80DOBM6N7QP583SRNXR6", "dateTime": 1519591584023}, {"current_trial": 211, "trialdata": {"rt": -1000, "trial_type": "single-audio", "word": "river", "stimulus": "/static/audio/wordpool/RIVER.wav", "conditions": [24, 800, "a", 12000], "internal_node_id": "0.0-157.0", "trial": 5, "time_elapsed": 832894, "serialpos": 14, "key_press": -1, "wordID": 1193, "type": "PRES_AUD", "trial_index": 211}, "uniqueid": "MTK2920:33M4IA01QH80DOBM6N7QP583SRNXR6", "dateTime": 1519591585705}, {"current_trial": 212, "trialdata": {"rt": -1000, "trial_type": "single-audio", "word": "spouse", "stimulus": "/static/audio/wordpool/SPOUSE.wav", "conditions": [24, 800, "a", 12000], "internal_node_id": "0.0-158.0", "trial": 5, "time_elapsed": 834754, "serialpos": 15, "key_press": -1, "wordID": 1357, "type": "PRES_AUD", "trial_index": 212}, "uniqueid": "MTK2920:33M4IA01QH80DOBM6N7QP583SRNXR6", "dateTime": 1519591587565}, {"current_trial": 213, "trialdata": {"rt": -1000, "trial_type": "single-audio", "word": "parrot", "stimulus": "/static/audio/wordpool/PARROT.wav", "conditions": [24, 800, "a", 12000], "internal_node_id": "0.0-159.0", "trial": 5, "time_elapsed": 836625, "serialpos": 16, "key_press": -1, "wordID": 1014, "type": "PRES_AUD", "trial_index": 213}, "uniqueid": "MTK2920:33M4IA01QH80DOBM6N7QP583SRNXR6", "dateTime": 1519591589435}, {"current_trial": 214, "trialdata": {"rt": -1000, "trial_type": "single-audio", "word": "cafe", "stimulus": "/static/audio/wordpool/CAFE.wav", "conditions": [24, 800, "a", 12000], "internal_node_id": "0.0-160.0", "trial": 5, "time_elapsed": 838515, "serialpos": 17, "key_press": -1, "wordID": 215, "type": "PRES_AUD", "trial_index": 214}, "uniqueid": "MTK2920:33M4IA01QH80DOBM6N7QP583SRNXR6", "dateTime": 1519591591326}, {"current_trial": 215, "trialdata": {"rt": -1000, "trial_type": "single-audio", "word": "rebel", "stimulus": "/static/audio/wordpool/REBEL.wav", "conditions": [24, 800, "a", 12000], "internal_node_id": "0.0-161.0", "trial": 5, "time_elapsed": 840225, "serialpos": 18, "key_press": -1, "wordID": 1171, "type": "PRES_AUD", "trial_index": 215}, "uniqueid": "MTK2920:33M4IA01QH80DOBM6N7QP583SRNXR6", "dateTime": 1519591593036}, {"current_trial": 216, "trialdata": {"rt": -1000, "trial_type": "single-audio", "word": "blender", "stimulus": "/static/audio/wordpool/BLENDER.wav", "conditions": [24, 800, "a", 12000], "internal_node_id": "0.0-162.0", "trial": 5, "time_elapsed": 842035, "serialpos": 19, "key_press": -1, "wordID": 135, "type": "PRES_AUD", "trial_index": 216}, "uniqueid": "MTK2920:33M4IA01QH80DOBM6N7QP583SRNXR6", "dateTime": 1519591594846}, {"current_trial": 217, "trialdata": {"rt": -1000, "trial_type": "single-audio", "word": "fungus", "stimulus": "/static/audio/wordpool/FUNGUS.wav", "conditions": [24, 800, "a", 12000], "internal_node_id": "0.0-163.0", "trial": 5, "time_elapsed": 843985, "serialpos": 20, "key_press": -1, "wordID": 613, "type": "PRES_AUD", "trial_index": 217}, "uniqueid": "MTK2920:33M4IA01QH80DOBM6N7QP583SRNXR6", "dateTime": 1519591596796}, {"current_trial": 218, "trialdata": {"rt": -1000, "trial_type": "single-audio", "word": "quail", "stimulus": "/static/audio/wordpool/QUAIL.wav", "conditions": [24, 800, "a", 12000], "internal_node_id": "0.0-164.0", "trial": 5, "time_elapsed": 845906, "serialpos": 21, "key_press": -1, "wordID": 1146, "type": "PRES_AUD", "trial_index": 218}, "uniqueid": "MTK2920:33M4IA01QH80DOBM6N7QP583SRNXR6", "dateTime": 1519591598716}, {"current_trial": 219, "trialdata": {"rt": -1000, "trial_type": "single-audio", "word": "skirt", "stimulus": "/static/audio/wordpool/SKIRT.wav", "conditions": [24, 800, "a", 12000], "internal_node_id": "0.0-165.0", "trial": 5, "time_elapsed": 847826, "serialpos": 22, "key_press": -1, "wordID": 1318, "type": "PRES_AUD", "trial_index": 219}, "uniqueid": "MTK2920:33M4IA01QH80DOBM6N7QP583SRNXR6", "dateTime": 1519591600636}, {"current_trial": 220, "trialdata": {"rt": -1000, "trial_type": "single-audio", "word": "wife", "stimulus": "/static/audio/wordpool/WIFE.wav", "conditions": [24, 800, "a", 12000], "internal_node_id": "0.0-166.0", "trial": 5, "time_elapsed": 849526, "serialpos": 23, "key_press": -1, "wordID": 1608, "type": "PRES_AUD", "trial_index": 220}, "uniqueid": "MTK2920:33M4IA01QH80DOBM6N7QP583SRNXR6", "dateTime": 1519591602336}, {"current_trial": 221, "trialdata": {"rt": -1, "trial_type": "single-stim", "stimulus": "", "internal_node_id": "0.0-167.0-0.0", "time_elapsed": 850877, "key_press": -1, "type": "PRE_RECALL_DELAY", "trial_index": 221}, "uniqueid": "MTK2920:33M4IA01QH80DOBM6N7QP583SRNXR6", "dateTime": 1519591603688}, {"current_trial": 222, "trialdata": {"rt": -1000, "trial_type": "single-audio", "stimulus": "/static/audio/400Hz.wav", "internal_node_id": "0.0-168.0", "time_elapsed": 851387, "key_press": -1, "type": "PRE_RECALL_ALERT", "trial_index": 222}, "uniqueid": "MTK2920:33M4IA01QH80DOBM6N7QP583SRNXR6", "dateTime": 1519591604198}, {"current_trial": 223, "trialdata": {"rt": [3249, 4931, 7202, 10197, 11389, 13209, 14873, 16487, 18051, 20807, 23768, 25423, 27525, 28860, 29867, 31022, 33037, 35085, 37662, 40313, 41908, 43629, 44548], "recwords": ["leopard", "sword", "manual", "portrait", "truck", "trout", "salmon", "cabin", "loft", "parsley", "napkin", "driver", "thief", "canal", "river", "spouse", "parrot", "cafe", "rebel", "fungus", "quail", "skirt", "wife"], "key_times": [2282, 2477, 2552, 2703, 2778, 2886, 2967, 3249, 4049, 4222, 4348, 4449, 4630, 4931, 5725, 5766, 6112, 6358, 6547, 6716, 6818, 6933, 7202, 7825, 7967, 8152, 8509, 8637, 8814, 8890, 9010, 9199, 9315, 9424, 9614, 10197, 10490, 10720, 10836, 11023, 11097, 11389, 12075, 12221, 12586, 12665, 12786, 12902, 12971, 13209, 13937, 14096, 14205, 14250, 14524, 14634, 14873, 15470, 15758, 15837, 15944, 16052, 16163, 16271, 16487, 17374, 17554, 17628, 17817, 18051, 19793, 19869, 19984, 20132, 20253, 20492, 20569, 20807, 21652, 21867, 22046, 22127, 22235, 22676, 23048, 23217, 23392, 23537, 23768, 24790, 24927, 25043, 25149, 25267, 25341, 25423, 26757, 26897, 27050, 27126, 27323, 27525, 28244, 28396, 28468, 28540, 28619, 28860, 29177, 29339, 29480, 29673, 29747, 29867, 30128, 30243, 30421, 30571, 30658, 30807, 31022, 31991, 32074, 32187, 32289, 32515, 32701, 33037, 34437, 34586, 34775, 34879, 35085, 36712, 36845, 37015, 37201, 37369, 37662, 39240, 39534, 39719, 39870, 39987, 40063, 40313, 41233, 41376, 41461, 41580, 41681, 41908, 42666, 42978, 43059, 43134, 43272, 43381, 43498, 43629, 43883, 43990, 44069, 44210, 44543, 44548], "trial_type": "free-recall", "conditions": [24, 800, "a", 12000], "internal_node_id": "0.0-169.0-0.0", "key_presses": [76, 69, 79, 80, 65, 82, 68, 13, 83, 87, 79, 82, 68, 13, 77, 65, 85, 8, 78, 85, 65, 76, 13, 80, 82, 84, 8, 8, 79, 82, 84, 82, 65, 73, 84, 13, 84, 82, 85, 67, 75, 13, 84, 79, 8, 82, 79, 85, 84, 13, 83, 65, 76, 77, 79, 78, 13, 83, 8, 67, 65, 66, 73, 78, 13, 76, 79, 70, 84, 13, 80, 65, 82, 83, 76, 69, 89, 13, 80, 8, 78, 65, 80, 73, 8, 75, 73, 78, 13, 68, 82, 73, 86, 69, 82, 13, 84, 72, 73, 69, 70, 13, 67, 65, 78, 65, 76, 13, 82, 73, 86, 69, 82, 13, 83, 80, 79, 85, 83, 69, 13, 80, 65, 82, 82, 79, 84, 13, 67, 65, 70, 69, 13, 82, 69, 66, 69, 76, 13, 70, 85, 78, 71, 85, 83, 13, 81, 85, 65, 73, 76, 13, 68, 8, 83, 75, 73, 82, 84, 13, 87, 73, 70, 69, 16, 13], "trial": 5, "time_elapsed": 911395, "type": "FREE_RECALL", "trial_index": 223}, "uniqueid": "MTK2920:33M4IA01QH80DOBM6N7QP583SRNXR6", "dateTime": 1519591664214}, {"current_trial": 224, "trialdata": {"rt": 8063, "trial_type": "text", "internal_node_id": "0.0-170.0", "time_elapsed": 921468, "key_press": 32, "type": "INSTRUCTIONS", "trial_index": 224}, "uniqueid": "MTK2920:33M4IA01QH80DOBM6N7QP583SRNXR6", "dateTime": 1519591674279}, {"current_trial": 225, "trialdata": {"rt": [1059, 3185, 4338, 5607, 7450, 8489, 10448, 12202, 14152, 15574, 17053, 18185, 19690, 21105, 23162], "trial_type": "math-distractor", "key_times": [736, 850, 1059, 2820, 3009, 3185, 4124, 4338, 5306, 5607, 7115, 7315, 7450, 8253, 8489, 9451, 10190, 10448, 11826, 11985, 12202, 13351, 13659, 13775, 13887, 14152, 15167, 15331, 15574, 16723, 16889, 17053, 17823, 18002, 18185, 19275, 19464, 19690, 20553, 20830, 21105, 22475, 22776, 22854, 22972, 23162], "responses": ["11", "21", "8", "7", "14", "8", "16", "15", "19", "16", "14", "12", "12", "19", "22"], "num2": [5, 4, 1, 4, 6, 2, 5, 2, 9, 6, 7, 5, 2, 8, 4, 2], "num3": [1, 9, 5, 1, 3, 4, 9, 4, 3, 1, 1, 2, 7, 9, 9, 7], "conditions": [12, 1600, "a", 24000], "internal_node_id": "0.0-171.0", "key_presses": [49, 49, 13, 50, 49, 13, 56, 13, 55, 13, 49, 52, 13, 56, 13, 49, 54, 13, 49, 53, 13, 50, 8, 49, 57, 13, 49, 54, 13, 49, 52, 13, 49, 50, 13, 49, 50, 13, 49, 57, 13, 49, 8, 50, 50, 13], "trial": 6, "time_elapsed": 947491, "type": "DISTRACTOR", "trial_index": 225, "num1": [5, 8, 2, 2, 5, 2, 2, 9, 7, 9, 6, 5, 3, 2, 9, 8]}, "uniqueid": "MTK2920:33M4IA01QH80DOBM6N7QP583SRNXR6", "dateTime": 1519591700301}, {"current_trial": 226, "trialdata": {"rt": -1, "trial_type": "single-stim", "stimulus": "<p id=\"stim\">10</p>", "internal_node_id": "0.0-172.0-0.0", "time_elapsed": 950510, "key_press": -1, "trial_index": 226}, "uniqueid": "MTK2920:33M4IA01QH80DOBM6N7QP583SRNXR6", "dateTime": 1519591703321}, {"current_trial": 227, "trialdata": {"rt": -1, "trial_type": "single-stim", "stimulus": "<p id=\"stim\">9</p>", "internal_node_id": "0.0-172.0-1.0", "time_elapsed": 951520, "key_press": -1, "trial_index": 227}, "uniqueid": "MTK2920:33M4IA01QH80DOBM6N7QP583SRNXR6", "dateTime": 1519591704331}, {"current_trial": 228, "trialdata": {"rt": -1, "trial_type": "single-stim", "stimulus": "<p id=\"stim\">8</p>", "internal_node_id": "0.0-172.0-2.0", "time_elapsed": 952531, "key_press": -1, "trial_index": 228}, "uniqueid": "MTK2920:33M4IA01QH80DOBM6N7QP583SRNXR6", "dateTime": 1519591705342}, {"current_trial": 229, "trialdata": {"rt": -1, "trial_type": "single-stim", "stimulus": "<p id=\"stim\">7</p>", "internal_node_id": "0.0-172.0-3.0", "time_elapsed": 953541, "key_press": -1, "trial_index": 229}, "uniqueid": "MTK2920:33M4IA01QH80DOBM6N7QP583SRNXR6", "dateTime": 1519591706352}, {"current_trial": 230, "trialdata": {"rt": -1, "trial_type": "single-stim", "stimulus": "<p id=\"stim\">6</p>", "internal_node_id": "0.0-172.0-4.0", "time_elapsed": 954551, "key_press": -1, "trial_index": 230}, "uniqueid": "MTK2920:33M4IA01QH80DOBM6N7QP583SRNXR6", "dateTime": 1519591707362}, {"current_trial": 231, "trialdata": {"rt": -1, "trial_type": "single-stim", "stimulus": "<p id=\"stim\">5</p>", "internal_node_id": "0.0-172.0-5.0", "time_elapsed": 955562, "key_press": -1, "trial_index": 231}, "uniqueid": "MTK2920:33M4IA01QH80DOBM6N7QP583SRNXR6", "dateTime": 1519591708372}, {"current_trial": 232, "trialdata": {"rt": -1, "trial_type": "single-stim", "stimulus": "<p id=\"stim\">4</p>", "internal_node_id": "0.0-172.0-6.0", "time_elapsed": 956572, "key_press": -1, "trial_index": 232}, "uniqueid": "MTK2920:33M4IA01QH80DOBM6N7QP583SRNXR6", "dateTime": 1519591709382}, {"current_trial": 233, "trialdata": {"rt": -1, "trial_type": "single-stim", "stimulus": "<p id=\"stim\">3</p>", "internal_node_id": "0.0-172.0-7.0", "time_elapsed": 957582, "key_press": -1, "trial_index": 233}, "uniqueid": "MTK2920:33M4IA01QH80DOBM6N7QP583SRNXR6", "dateTime": 1519591710392}, {"current_trial": 234, "trialdata": {"rt": -1, "trial_type": "single-stim", "stimulus": "<p id=\"stim\">2</p>", "internal_node_id": "0.0-172.0-8.0", "time_elapsed": 958592, "key_press": -1, "trial_index": 234}, "uniqueid": "MTK2920:33M4IA01QH80DOBM6N7QP583SRNXR6", "dateTime": 1519591711403}, {"current_trial": 235, "trialdata": {"rt": -1, "trial_type": "single-stim", "stimulus": "<p id=\"stim\">1</p>", "internal_node_id": "0.0-172.0-9.0", "time_elapsed": 959603, "key_press": -1, "trial_index": 235}, "uniqueid": "MTK2920:33M4IA01QH80DOBM6N7QP583SRNXR6", "dateTime": 1519591712413}, {"current_trial": 236, "trialdata": {"rt": -1, "trial_type": "single-stim", "stimulus": "<p id=\"stim\">+</p>", "internal_node_id": "0.0-173.0-0.0", "time_elapsed": 961113, "key_press": -1, "type": "FIXATION", "trial_index": 236}, "uniqueid": "MTK2920:33M4IA01QH80DOBM6N7QP583SRNXR6", "dateTime": 1519591713924}, {"current_trial": 237, "trialdata": {"rt": -1000, "trial_type": "single-audio", "word": "dorm", "stimulus": "/static/audio/wordpool/DORM.wav", "conditions": [12, 1600, "a", 24000], "internal_node_id": "0.0-174.0", "trial": 6, "time_elapsed": 963782, "serialpos": 0, "key_press": -1, "wordID": 487, "type": "PRES_AUD", "trial_index": 237}, "uniqueid": "MTK2920:33M4IA01QH80DOBM6N7QP583SRNXR6", "dateTime": 1519591716593}, {"current_trial": 238, "trialdata": {"rt": -1000, "trial_type": "single-audio", "word": "college", "stimulus": "/static/audio/wordpool/COLLEGE.wav", "conditions": [12, 1600, "a", 24000], "internal_node_id": "0.0-175.0", "trial": 6, "time_elapsed": 966224, "serialpos": 1, "key_press": -1, "wordID": 345, "type": "PRES_AUD", "trial_index": 238}, "uniqueid": "MTK2920:33M4IA01QH80DOBM6N7QP583SRNXR6", "dateTime": 1519591719034}, {"current_trial": 239, "trialdata": {"rt": -1000, "trial_type": "single-audio", "word": "cyclone", "stimulus": "/static/audio/wordpool/CYCLONE.wav", "conditions": [12, 1600, "a", 24000], "internal_node_id": "0.0-176.0", "trial": 6, "time_elapsed": 968993, "serialpos": 2, "key_press": -1, "wordID": 430, "type": "PRES_AUD", "trial_index": 239}, "uniqueid": "MTK2920:33M4IA01QH80DOBM6N7QP583SRNXR6", "dateTime": 1519591721804}, {"current_trial": 240, "trialdata": {"rt": -1000, "trial_type": "single-audio", "word": "zebra", "stimulus": "/static/audio/wordpool/ZEBRA.wav", "conditions": [12, 1600, "a", 24000], "internal_node_id": "0.0-177.0", "trial": 6, "time_elapsed": 971433, "serialpos": 3, "key_press": -1, "wordID": 1634, "type": "PRES_AUD", "trial_index": 240}, "uniqueid": "MTK2920:33M4IA01QH80DOBM6N7QP583SRNXR6", "dateTime": 1519591724244}, {"current_trial": 241, "trialdata": {"rt": -1000, "trial_type": "single-audio", "word": "panthe