{"assignmentId": "3F0BG9B9MQUFVAHH25VM32OCRBE7YS", "workerId": "MTK2511", "questiondata": {"avail_screen_height": 1080, "color_depth": 24, "screen_width": 1920, "pixel_depth": 24, "avail_screen_width": 1920, "screen_height": 1080}, "bonus": 0, "hitId": "35U0MRQMUJE3P2GHOEK2I5ATG22OVE", "counterbalance": 2109, "useragent": "Mozilla/5.0 (Windows NT 6.1; Win64; x64) AppleWebKit/537.36 (KHTML, like Gecko) Chrome/63.0.3239.132 Safari/537.36", "eventdata": [{"eventtype": "initialized", "interval": 0, "value": null, "timestamp": 1517944211065}, {"eventtype": "window_resize", "interval": 0, "value": [1920, 1029], "timestamp": 1517944211065}, {"eventtype": "window_resize", "interval": 1337, "value": [1920, 1043], "timestamp": 1517944212402}, {"eventtype": "window_resize", "interval": 2944, "value": [1920, 1029], "timestamp": 1517944215346}, {"eventtype": "window_resize", "interval": 1806, "value": [1920, 1043], "timestamp": 1517944217152}, {"eventtype": "focus", "interval": 413, "value": "off", "timestamp": 1517944217565}, {"eventtype": "focus", "interval": 1739, "value": "on", "timestamp": 1517944219304}, {"eventtype": "window_resize", "interval": 614, "value": [1920, 1029], "timestamp": 1517944219918}, {"eventtype": "focus", "interval": 3286, "value": "off", "timestamp": 1517944223204}, {"eventtype": "focus", "interval": 8260, "value": "on", "timestamp": 1517944231464}, {"eventtype": "focus", "interval": 93925, "value": "off", "timestamp": 1517944325389}, {"eventtype": "focus", "interval": 357, "value": "on", "timestamp": 1517944325746}, {"eventtype": "focus", "interval": 759, "value": "off", "timestamp": 1517944326505}, {"eventtype": "focus", "interval": 2053, "value": "on", "timestamp": 1517944328558}, {"eventtype": "focus", "interval": 2052278, "value": "off", "timestamp": 1517946380836}, {"eventtype": "focus", "interval": 21472, "value": "on", "timestamp": 1517946402308}, {"eventtype": "focus", "interval": 31245, "value": "off", "timestamp": 1517946433553}, {"eventtype": "focus", "interval": 358, "value": "on", "timestamp": 1517946433911}, {"eventtype": "focus", "interval": 734200, "value": "off", "timestamp": 1517947168111}, {"eventtype": "focus", "interval": 30260, "value": "on", "timestamp": 1517947198371}, {"eventtype": "focus", "interval": 3094, "value": "off", "timestamp": 1517947201465}], "data": [{"current_trial": 0, "trialdata": {"rt": 2084, "trial_type": "text", "internal_node_id": "0.0-0.0", "time_elapsed": 2086, "key_press": 32, "type": "INSTRUCTIONS", "trial_index": 0}, "uniqueid": "MTK2511:3F0BG9B9MQUFVAHH25VM32OCRBE7YS", "dateTime": 1517944232394}, {"current_trial": 1, "trialdata": {"rt": 12463, "trial_type": "text", "internal_node_id": "0.0-1.0", "time_elapsed": 14550, "key_press": 32, "type": "INSTRUCTIONS", "trial_index": 1}, "uniqueid": "MTK2511:3F0BG9B9MQUFVAHH25VM32OCRBE7YS", "dateTime": 1517944244858}, {"current_trial": 2, "trialdata": {"rt": [6139], "trial_type": "audio-test", "responses": ["ocean"], "internal_node_id": "0.0-2.0", "time_elapsed": 20694, "type": "AUDIO_TEST", "trial_index": 2}, "uniqueid": "MTK2511:3F0BG9B9MQUFVAHH25VM32OCRBE7YS", "dateTime": 1517944251002}, {"current_trial": 3, "trialdata": {"rt": [3926], "trial_type": "audio-test", "responses": ["crystal"], "internal_node_id": "0.0-3.0", "time_elapsed": 24622, "type": "AUDIO_TEST", "trial_index": 3}, "uniqueid": "MTK2511:3F0BG9B9MQUFVAHH25VM32OCRBE7YS", "dateTime": 1517944254930}, {"current_trial": 4, "trialdata": {"rt": [3318], "trial_type": "audio-test", "responses": ["spice"], "internal_node_id": "0.0-4.0", "time_elapsed": 27942, "type": "AUDIO_TEST", "trial_index": 4}, "uniqueid": "MTK2511:3F0BG9B9MQUFVAHH25VM32OCRBE7YS", "dateTime": 1517944258250}, {"current_trial": 5, "trialdata": {"rt": 24147, "trial_type": "survey-text", "responses": "{\"Q0\":\"9\",\"Q1\":\"5\",\"Q2\":\"5\"}", "internal_node_id": "0.0-5.0", "time_elapsed": 52840, "type": "SLEEP_SURVEY", "trial_index": 5}, "uniqueid": "MTK2511:3F0BG9B9MQUFVAHH25VM32OCRBE7YS", "dateTime": 1517944283148}, {"current_trial": 6, "trialdata": {"rt": 50044, "trial_type": "text", "internal_node_id": "0.0-6.0", "time_elapsed": 103886, "key_press": 32, "type": "INSTRUCTIONS", "trial_index": 6}, "uniqueid": "MTK2511:3F0BG9B9MQUFVAHH25VM32OCRBE7YS", "dateTime": 1517944334194}, {"current_trial": 7, "trialdata": {"rt": 15690, "trial_type": "text", "internal_node_id": "0.0-7.0", "time_elapsed": 120078, "key_press": 32, "type": "INSTRUCTIONS", "trial_index": 7}, "uniqueid": "MTK2511:3F0BG9B9MQUFVAHH25VM32OCRBE7YS", "dateTime": 1517944350386}, {"current_trial": 8, "trialdata": {"rt": 5290, "trial_type": "text", "internal_node_id": "0.0-8.0", "time_elapsed": 125869, "key_press": 32, "type": "INSTRUCTIONS", "trial_index": 8}, "uniqueid": "MTK2511:3F0BG9B9MQUFVAHH25VM32OCRBE7YS", "dateTime": 1517944356177}, {"current_trial": 9, "trialdata": {"rt": [4141, 6117, 11349, 15685], "trial_type": "math-distractor", "key_times": [3077, 3405, 4141, 5765, 5909, 6117, 8709, 9605, 10341, 10693, 10837, 11093, 11349, 13965, 14061, 15685, 17701, 17813], "responses": ["16", "11", "19", "15"], "num2": [7, 3, 8, 8, 6], "num3": [7, 7, 5, 1, 6], "conditions": [18, 1200, "a", 18000], "internal_node_id": "0.0-9.0", "key_presses": [49, 54, 13, 49, 49, 13, 49, 56, 57, 8, 8, 57, 13, 49, 53, 13, 49, 49], "trial": 0, "time_elapsed": 144873, "type": "DISTRACTOR", "trial_index": 9, "num1": [2, 1, 6, 6, 7]}, "uniqueid": "MTK2511:3F0BG9B9MQUFVAHH25VM32OCRBE7YS", "dateTime": 1517944375181}, {"current_trial": 10, "trialdata": {"rt": -1, "trial_type": "single-stim", "stimulus": "<p id=\"stim\">10</p>", "internal_node_id": "0.0-10.0-0.0", "time_elapsed": 147875, "key_press": -1, "trial_index": 10}, "uniqueid": "MTK2511:3F0BG9B9MQUFVAHH25VM32OCRBE7YS", "dateTime": 1517944378183}, {"current_trial": 11, "trialdata": {"rt": -1, "trial_type": "single-stim", "stimulus": "<p id=\"stim\">9</p>", "internal_node_id": "0.0-10.0-1.0", "time_elapsed": 148876, "key_press": -1, "trial_index": 11}, "uniqueid": "MTK2511:3F0BG9B9MQUFVAHH25VM32OCRBE7YS", "dateTime": 1517944379184}, {"current_trial": 12, "trialdata": {"rt": -1, "trial_type": "single-stim", "stimulus": "<p id=\"stim\">8</p>", "internal_node_id": "0.0-10.0-2.0", "time_elapsed": 149877, "key_press": -1, "trial_index": 12}, "uniqueid": "MTK2511:3F0BG9B9MQUFVAHH25VM32OCRBE7YS", "dateTime": 1517944380185}, {"current_trial": 13, "trialdata": {"rt": -1, "trial_type": "single-stim", "stimulus": "<p id=\"stim\">7</p>", "internal_node_id": "0.0-10.0-3.0", "time_elapsed": 150878, "key_press": -1, "trial_index": 13}, "uniqueid": "MTK2511:3F0BG9B9MQUFVAHH25VM32OCRBE7YS", "dateTime": 1517944381186}, {"current_trial": 14, "trialdata": {"rt": -1, "trial_type": "single-stim", "stimulus": "<p id=\"stim\">6</p>", "internal_node_id": "0.0-10.0-4.0", "time_elapsed": 151880, "key_press": -1, "trial_index": 14}, "uniqueid": "MTK2511:3F0BG9B9MQUFVAHH25VM32OCRBE7YS", "dateTime": 1517944382188}, {"current_trial": 15, "trialdata": {"rt": -1, "trial_type": "single-stim", "stimulus": "<p id=\"stim\">5</p>", "internal_node_id": "0.0-10.0-5.0", "time_elapsed": 152880, "key_press": -1, "trial_index": 15}, "uniqueid": "MTK2511:3F0BG9B9MQUFVAHH25VM32OCRBE7YS", "dateTime": 1517944383188}, {"current_trial": 16, "trialdata": {"rt": -1, "trial_type": "single-stim", "stimulus": "<p id=\"stim\">4</p>", "internal_node_id": "0.0-10.0-6.0", "time_elapsed": 153881, "key_press": -1, "trial_index": 16}, "uniqueid": "MTK2511:3F0BG9B9MQUFVAHH25VM32OCRBE7YS", "dateTime": 1517944384189}, {"current_trial": 17, "trialdata": {"rt": -1, "trial_type": "single-stim", "stimulus": "<p id=\"stim\">3</p>", "internal_node_id": "0.0-10.0-7.0", "time_elapsed": 154883, "key_press": -1, "trial_index": 17}, "uniqueid": "MTK2511:3F0BG9B9MQUFVAHH25VM32OCRBE7YS", "dateTime": 1517944385191}, {"current_trial": 18, "trialdata": {"rt": -1, "trial_type": "single-stim", "stimulus": "<p id=\"stim\">2</p>", "internal_node_id": "0.0-10.0-8.0", "time_elapsed": 155884, "key_press": -1, "trial_index": 18}, "uniqueid": "MTK2511:3F0BG9B9MQUFVAHH25VM32OCRBE7YS", "dateTime": 1517944386192}, {"current_trial": 19, "trialdata": {"rt": -1, "trial_type": "single-stim", "stimulus": "<p id=\"stim\">1</p>", "internal_node_id": "0.0-10.0-9.0", "time_elapsed": 156885, "key_press": -1, "trial_index": 19}, "uniqueid": "MTK2511:3F0BG9B9MQUFVAHH25VM32OCRBE7YS", "dateTime": 1517944387193}, {"current_trial": 20, "trialdata": {"rt": -1, "trial_type": "single-stim", "stimulus": "<p id=\"stim\">+</p>", "internal_node_id": "0.0-11.0-0.0", "time_elapsed": 158386, "key_press": -1, "type": "FIXATION", "trial_index": 20}, "uniqueid": "MTK2511:3F0BG9B9MQUFVAHH25VM32OCRBE7YS", "dateTime": 1517944388694}, {"current_trial": 21, "trialdata": {"rt": -1000, "trial_type": "single-audio", "word": "bunny", "stimulus": "/static/audio/wordpool/BUNNY.wav", "conditions": [18, 1200, "a", 18000], "internal_node_id": "0.0-12.0", "trial": 0, "time_elapsed": 160684, "serialpos": 0, "key_press": -1, "wordID": 197, "type": "PRES_AUD", "trial_index": 21}, "uniqueid": "MTK2511:3F0BG9B9MQUFVAHH25VM32OCRBE7YS", "dateTime": 1517944390992}, {"current_trial": 22, "trialdata": {"rt": -1000, "trial_type": "single-audio", "word": "rattle", "stimulus": "/static/audio/wordpool/RATTLE.wav", "conditions": [18, 1200, "a", 18000], "internal_node_id": "0.0-13.0", "trial": 0, "time_elapsed": 163035, "serialpos": 1, "key_press": -1, "wordID": 1169, "type": "PRES_AUD", "trial_index": 22}, "uniqueid": "MTK2511:3F0BG9B9MQUFVAHH25VM32OCRBE7YS", "dateTime": 1517944393343}, {"current_trial": 23, "trialdata": {"rt": -1000, "trial_type": "single-audio", "word": "salt", "stimulus": "/static/audio/wordpool/SALT.wav", "conditions": [18, 1200, "a", 18000], "internal_node_id": "0.0-14.0", "trial": 0, "time_elapsed": 165165, "serialpos": 2, "key_press": -1, "wordID": 1228, "type": "PRES_AUD", "trial_index": 23}, "uniqueid": "MTK2511:3F0BG9B9MQUFVAHH25VM32OCRBE7YS", "dateTime": 1517944395473}, {"current_trial": 24, "trialdata": {"rt": -1000, "trial_type": "single-audio", "word": "venus", "stimulus": "/static/audio/wordpool/VENUS.wav", "conditions": [18, 1200, "a", 18000], "internal_node_id": "0.0-15.0", "trial": 0, "time_elapsed": 167299, "serialpos": 3, "key_press": -1, "wordID": 1556, "type": "PRES_AUD", "trial_index": 24}, "uniqueid": "MTK2511:3F0BG9B9MQUFVAHH25VM32OCRBE7YS", "dateTime": 1517944397607}, {"current_trial": 25, "trialdata": {"rt": -1000, "trial_type": "single-audio", "word": "tractor", "stimulus": "/static/audio/wordpool/TRACTOR.wav", "conditions": [18, 1200, "a", 18000], "internal_node_id": "0.0-16.0", "trial": 0, "time_elapsed": 169559, "serialpos": 4, "key_press": -1, "wordID": 1492, "type": "PRES_AUD", "trial_index": 25}, "uniqueid": "MTK2511:3F0BG9B9MQUFVAHH25VM32OCRBE7YS", "dateTime": 1517944399867}, {"current_trial": 26, "trialdata": {"rt": -1000, "trial_type": "single-audio", "word": "preacher", "stimulus": "/static/audio/wordpool/PREACHER.wav", "conditions": [18, 1200, "a", 18000], "internal_node_id": "0.0-17.0", "trial": 0, "time_elapsed": 171629, "serialpos": 5, "key_press": -1, "wordID": 1118, "type": "PRES_AUD", "trial_index": 26}, "uniqueid": "MTK2511:3F0BG9B9MQUFVAHH25VM32OCRBE7YS", "dateTime": 1517944401937}, {"current_trial": 27, "trialdata": {"rt": -1000, "trial_type": "single-audio", "word": "cottage", "stimulus": "/static/audio/wordpool/COTTAGE.wav", "conditions": [18, 1200, "a", 18000], "internal_node_id": "0.0-18.0", "trial": 0, "time_elapsed": 173947, "serialpos": 6, "key_press": -1, "wordID": 383, "type": "PRES_AUD", "trial_index": 27}, "uniqueid": "MTK2511:3F0BG9B9MQUFVAHH25VM32OCRBE7YS", "dateTime": 1517944404255}, {"current_trial": 28, "trialdata": {"rt": -1000, "trial_type": "single-audio", "word": "flag", "stimulus": "/static/audio/wordpool/FLAG.wav", "conditions": [18, 1200, "a", 18000], "internal_node_id": "0.0-19.0", "trial": 0, "time_elapsed": 176085, "serialpos": 7, "key_press": -1, "wordID": 572, "type": "PRES_AUD", "trial_index": 28}, "uniqueid": "MTK2511:3F0BG9B9MQUFVAHH25VM32OCRBE7YS", "dateTime": 1517944406393}, {"current_trial": 29, "trialdata": {"rt": -1000, "trial_type": "single-audio", "word": "garlic", "stimulus": "/static/audio/wordpool/GARLIC.wav", "conditions": [18, 1200, "a", 18000], "internal_node_id": "0.0-20.0", "trial": 0, "time_elapsed": 178372, "serialpos": 8, "key_press": -1, "wordID": 623, "type": "PRES_AUD", "trial_index": 29}, "uniqueid": "MTK2511:3F0BG9B9MQUFVAHH25VM32OCRBE7YS", "dateTime": 1517944408680}, {"current_trial": 30, "trialdata": {"rt": -1000, "trial_type": "single-audio", "word": "orange", "stimulus": "/static/audio/wordpool/ORANGE.wav", "conditions": [18, 1200, "a", 18000], "internal_node_id": "0.0-21.0", "trial": 0, "time_elapsed": 180698, "serialpos": 9, "key_press": -1, "wordID": 979, "type": "PRES_AUD", "trial_index": 30}, "uniqueid": "MTK2511:3F0BG9B9MQUFVAHH25VM32OCRBE7YS", "dateTime": 1517944411006}, {"current_trial": 31, "trialdata": {"rt": -1000, "trial_type": "single-audio", "word": "palace", "stimulus": "/static/audio/wordpool/PALACE.wav", "conditions": [18, 1200, "a", 18000], "internal_node_id": "0.0-22.0", "trial": 0, "time_elapsed": 182975, "serialpos": 10, "key_press": -1, "wordID": 1005, "type": "PRES_AUD", "trial_index": 31}, "uniqueid": "MTK2511:3F0BG9B9MQUFVAHH25VM32OCRBE7YS", "dateTime": 1517944413283}, {"current_trial": 32, "trialdata": {"rt": -1000, "trial_type": "single-audio", "word": "hero", "stimulus": "/static/audio/wordpool/HERO.wav", "conditions": [18, 1200, "a", 18000], "internal_node_id": "0.0-23.0", "trial": 0, "time_elapsed": 185158, "serialpos": 11, "key_press": -1, "wordID": 705, "type": "PRES_AUD", "trial_index": 32}, "uniqueid": "MTK2511:3F0BG9B9MQUFVAHH25VM32OCRBE7YS", "dateTime": 1517944415466}, {"current_trial": 33, "trialdata": {"rt": -1000, "trial_type": "single-audio", "word": "patrol", "stimulus": "/static/audio/wordpool/PATROL.wav", "conditions": [18, 1200, "a", 18000], "internal_node_id": "0.0-24.0", "trial": 0, "time_elapsed": 187376, "serialpos": 12, "key_press": -1, "wordID": 1026, "type": "PRES_AUD", "trial_index": 33}, "uniqueid": "MTK2511:3F0BG9B9MQUFVAHH25VM32OCRBE7YS", "dateTime": 1517944417684}, {"current_trial": 34, "trialdata": {"rt": -1000, "trial_type": "single-audio", "word": "tart", "stimulus": "/static/audio/wordpool/TART.wav", "conditions": [18, 1200, "a", 18000], "internal_node_id": "0.0-25.0", "trial": 0, "time_elapsed": 189759, "serialpos": 13, "key_press": -1, "wordID": 1435, "type": "PRES_AUD", "trial_index": 34}, "uniqueid": "MTK2511:3F0BG9B9MQUFVAHH25VM32OCRBE7YS", "dateTime": 1517944420067}, {"current_trial": 35, "trialdata": {"rt": -1000, "trial_type": "single-audio", "word": "laser", "stimulus": "/static/audio/wordpool/LASER.wav", "conditions": [18, 1200, "a", 18000], "internal_node_id": "0.0-26.0", "trial": 0, "time_elapsed": 191995, "serialpos": 14, "key_press": -1, "wordID": 800, "type": "PRES_AUD", "trial_index": 35}, "uniqueid": "MTK2511:3F0BG9B9MQUFVAHH25VM32OCRBE7YS", "dateTime": 1517944422303}, {"current_trial": 36, "trialdata": {"rt": -1000, "trial_type": "single-audio", "word": "fiddle", "stimulus": "/static/audio/wordpool/FIDDLE.wav", "conditions": [18, 1200, "a", 18000], "internal_node_id": "0.0-27.0", "trial": 0, "time_elapsed": 194385, "serialpos": 15, "key_press": -1, "wordID": 560, "type": "PRES_AUD", "trial_index": 36}, "uniqueid": "MTK2511:3F0BG9B9MQUFVAHH25VM32OCRBE7YS", "dateTime": 1517944424693}, {"current_trial": 37, "trialdata": {"rt": -1000, "trial_type": "single-audio", "word": "survey", "stimulus": "/static/audio/wordpool/SURVEY.wav", "conditions": [18, 1200, "a", 18000], "internal_node_id": "0.0-28.0", "trial": 0, "time_elapsed": 196680, "serialpos": 16, "key_press": -1, "wordID": 1413, "type": "PRES_AUD", "trial_index": 37}, "uniqueid": "MTK2511:3F0BG9B9MQUFVAHH25VM32OCRBE7YS", "dateTime": 1517944426988}, {"current_trial": 38, "trialdata": {"rt": -1000, "trial_type": "single-audio", "word": "parsley", "stimulus": "/static/audio/wordpool/PARSLEY.wav", "conditions": [18, 1200, "a", 18000], "internal_node_id": "0.0-29.0", "trial": 0, "time_elapsed": 198928, "serialpos": 17, "key_press": -1, "wordID": 1015, "type": "PRES_AUD", "trial_index": 38}, "uniqueid": "MTK2511:3F0BG9B9MQUFVAHH25VM32OCRBE7YS", "dateTime": 1517944429236}, {"current_trial": 39, "trialdata": {"rt": -1, "trial_type": "single-stim", "stimulus": "", "internal_node_id": "0.0-30.0-0.0", "time_elapsed": 200214, "key_press": -1, "type": "PRE_RECALL_DELAY", "trial_index": 39}, "uniqueid": "MTK2511:3F0BG9B9MQUFVAHH25VM32OCRBE7YS", "dateTime": 1517944430522}, {"current_trial": 40, "trialdata": {"rt": -1000, "trial_type": "single-audio", "stimulus": "/static/audio/400Hz.wav", "internal_node_id": "0.0-31.0", "time_elapsed": 200718, "key_press": -1, "type": "PRE_RECALL_ALERT", "trial_index": 40}, "uniqueid": "MTK2511:3F0BG9B9MQUFVAHH25VM32OCRBE7YS", "dateTime": 1517944431026}, {"current_trial": 41, "trialdata": {"rt": [3574, 5942, 7486, 9806, 12014, 13838, 17687, 27598, 43374, 56470], "recwords": ["salt", "parsley", "preacher", "bunny", "fiddle", "orange", "rattle", "hero", "flag", "chart"], "key_times": [2662, 2734, 2942, 3078, 3574, 4582, 4654, 4862, 5230, 5358, 5502, 5606, 5942, 6246, 6406, 6486, 6558, 6790, 6878, 7038, 7110, 7486, 8974, 9054, 9230, 9342, 9478, 9806, 10206, 10398, 10510, 10646, 10766, 10878, 12014, 12910, 13014, 13102, 13254, 13374, 13470, 13838, 16783, 16855, 17063, 17198, 17326, 17423, 17687, 26663, 26798, 26862, 26974, 27598, 42646, 42806, 42942, 43046, 43374, 55710, 55830, 55926, 56166, 56214, 56470], "trial_type": "free-recall", "conditions": [18, 1200, "a", 18000], "internal_node_id": "0.0-32.0-0.0", "key_presses": [83, 65, 76, 84, 13, 80, 65, 82, 83, 76, 69, 89, 13, 80, 82, 69, 65, 67, 72, 69, 82, 13, 66, 85, 78, 78, 89, 13, 70, 73, 68, 68, 76, 69, 13, 79, 82, 65, 78, 71, 69, 13, 82, 65, 84, 84, 76, 69, 13, 72, 69, 82, 79, 13, 70, 76, 65, 71, 13, 67, 72, 65, 82, 84, 13], "trial": 0, "time_elapsed": 260721, "type": "FREE_RECALL", "trial_index": 41}, "uniqueid": "MTK2511:3F0BG9B9MQUFVAHH25VM32OCRBE7YS", "dateTime": 1517944491030}, {"current_trial": 42, "trialdata": {"rt": 1602, "trial_type": "text", "internal_node_id": "0.0-33.0", "time_elapsed": 264325, "key_press": 32, "type": "INSTRUCTIONS", "trial_index": 42}, "uniqueid": "MTK2511:3F0BG9B9MQUFVAHH25VM32OCRBE7YS", "dateTime": 1517944494633}, {"current_trial": 43, "trialdata": {"rt": [3431, 5735, 8263, 10335, 12391, 15663], "trial_type": "math-distractor", "key_times": [2447, 2727, 3431, 5383, 5447, 5735, 7695, 7895, 8263, 10023, 10167, 10335, 11863, 12135, 12391, 14504, 14615, 15247, 15399, 15663, 17087, 17223], "responses": ["17", "12", "17", "22", "16", "14"], "num2": [7, 1, 7, 9, 9, 4, 9], "num3": [1, 6, 9, 4, 1, 6, 1], "conditions": [18, 1200, "a", 18000], "internal_node_id": "0.0-34.0", "key_presses": [49, 55, 13, 49, 50, 13, 49, 55, 13, 50, 50, 13, 49, 54, 13, 49, 53, 8, 52, 13, 49, 55], "trial": 1, "time_elapsed": 284327, "type": "DISTRACTOR", "trial_index": 43, "num1": [9, 5, 1, 9, 6, 4, 8]}, "uniqueid": "MTK2511:3F0BG9B9MQUFVAHH25VM32OCRBE7YS", "dateTime": 1517944514636}, {"current_trial": 44, "trialdata": {"rt": -1, "trial_type": "single-stim", "stimulus": "<p id=\"stim\">10</p>", "internal_node_id": "0.0-35.0-0.0", "time_elapsed": 287329, "key_press": -1, "trial_index": 44}, "uniqueid": "MTK2511:3F0BG9B9MQUFVAHH25VM32OCRBE7YS", "dateTime": 1517944517638}, {"current_trial": 45, "trialdata": {"rt": -1, "trial_type": "single-stim", "stimulus": "<p id=\"stim\">9</p>", "internal_node_id": "0.0-35.0-1.0", "time_elapsed": 288331, "key_press": -1, "trial_index": 45}, "uniqueid": "MTK2511:3F0BG9B9MQUFVAHH25VM32OCRBE7YS", "dateTime": 1517944518639}, {"current_trial": 46, "trialdata": {"rt": -1, "trial_type": "single-stim", "stimulus": "<p id=\"stim\">8</p>", "internal_node_id": "0.0-35.0-2.0", "time_elapsed": 289332, "key_press": -1, "trial_index": 46}, "uniqueid": "MTK2511:3F0BG9B9MQUFVAHH25VM32OCRBE7YS", "dateTime": 1517944519640}, {"current_trial": 47, "trialdata": {"rt": -1, "trial_type": "single-stim", "stimulus": "<p id=\"stim\">7</p>", "internal_node_id": "0.0-35.0-3.0", "time_elapsed": 290333, "key_press": -1, "trial_index": 47}, "uniqueid": "MTK2511:3F0BG9B9MQUFVAHH25VM32OCRBE7YS", "dateTime": 1517944520641}, {"current_trial": 48, "trialdata": {"rt": -1, "trial_type": "single-stim", "stimulus": "<p id=\"stim\">6</p>", "internal_node_id": "0.0-35.0-4.0", "time_elapsed": 291334, "key_press": -1, "trial_index": 48}, "uniqueid": "MTK2511:3F0BG9B9MQUFVAHH25VM32OCRBE7YS", "dateTime": 1517944521642}, {"current_trial": 49, "trialdata": {"rt": -1, "trial_type": "single-stim", "stimulus": "<p id=\"stim\">5</p>", "internal_node_id": "0.0-35.0-5.0", "time_elapsed": 292335, "key_press": -1, "trial_index": 49}, "uniqueid": "MTK2511:3F0BG9B9MQUFVAHH25VM32OCRBE7YS", "dateTime": 1517944522643}, {"current_trial": 50, "trialdata": {"rt": -1, "trial_type": "single-stim", "stimulus": "<p id=\"stim\">4</p>", "internal_node_id": "0.0-35.0-6.0", "time_elapsed": 293336, "key_press": -1, "trial_index": 50}, "uniqueid": "MTK2511:3F0BG9B9MQUFVAHH25VM32OCRBE7YS", "dateTime": 1517944523644}, {"current_trial": 51, "trialdata": {"rt": -1, "trial_type": "single-stim", "stimulus": "<p id=\"stim\">3</p>", "internal_node_id": "0.0-35.0-7.0", "time_elapsed": 294337, "key_press": -1, "trial_index": 51}, "uniqueid": "MTK2511:3F0BG9B9MQUFVAHH25VM32OCRBE7YS", "dateTime": 1517944524645}, {"current_trial": 52, "trialdata": {"rt": -1, "trial_type": "single-stim", "stimulus": "<p id=\"stim\">2</p>", "internal_node_id": "0.0-35.0-8.0", "time_elapsed": 295338, "key_press": -1, "trial_index": 52}, "uniqueid": "MTK2511:3F0BG9B9MQUFVAHH25VM32OCRBE7YS", "dateTime": 1517944525646}, {"current_trial": 53, "trialdata": {"rt": -1, "trial_type": "single-stim", "stimulus": "<p id=\"stim\">1</p>", "internal_node_id": "0.0-35.0-9.0", "time_elapsed": 296339, "key_press": -1, "trial_index": 53}, "uniqueid": "MTK2511:3F0BG9B9MQUFVAHH25VM32OCRBE7YS", "dateTime": 1517944526647}, {"current_trial": 54, "trialdata": {"rt": -1, "trial_type": "single-stim", "stimulus": "<p id=\"stim\">+</p>", "internal_node_id": "0.0-36.0-0.0", "time_elapsed": 297840, "key_press": -1, "type": "FIXATION", "trial_index": 54}, "uniqueid": "MTK2511:3F0BG9B9MQUFVAHH25VM32OCRBE7YS", "dateTime": 1517944528148}, {"current_trial": 55, "trialdata": {"rt": -1000, "trial_type": "single-audio", "word": "camel", "stimulus": "/static/audio/wordpool/CAMEL.wav", "conditions": [18, 1200, "a", 18000], "internal_node_id": "0.0-37.0", "trial": 1, "time_elapsed": 300195, "serialpos": 0, "key_press": -1, "wordID": 222, "type": "PRES_AUD", "trial_index": 55}, "uniqueid": "MTK2511:3F0BG9B9MQUFVAHH25VM32OCRBE7YS", "dateTime": 1517944530503}, {"current_trial": 56, "trialdata": {"rt": -1000, "trial_type": "single-audio", "word": "chapel", "stimulus": "/static/audio/wordpool/CHAPEL.wav", "conditions": [18, 1200, "a", 18000], "internal_node_id": "0.0-38.0", "trial": 1, "time_elapsed": 302524, "serialpos": 1, "key_press": -1, "wordID": 279, "type": "PRES_AUD", "trial_index": 56}, "uniqueid": "MTK2511:3F0BG9B9MQUFVAHH25VM32OCRBE7YS", "dateTime": 1517944532832}, {"current_trial": 57, "trialdata": {"rt": -1000, "trial_type": "single-audio", "word": "paper", "stimulus": "/static/audio/wordpool/PAPER.wav", "conditions": [18, 1200, "a", 18000], "internal_node_id": "0.0-39.0", "trial": 1, "time_elapsed": 304878, "serialpos": 2, "key_press": -1, "wordID": 1010, "type": "PRES_AUD", "trial_index": 57}, "uniqueid": "MTK2511:3F0BG9B9MQUFVAHH25VM32OCRBE7YS", "dateTime": 1517944535186}, {"current_trial": 58, "trialdata": {"rt": -1000, "trial_type": "single-audio", "word": "sticker", "stimulus": "/static/audio/wordpool/STICKER.wav", "conditions": [18, 1200, "a", 18000], "internal_node_id": "0.0-40.0", "trial": 1, "time_elapsed": 307021, "serialpos": 3, "key_press": -1, "wordID": 1381, "type": "PRES_AUD", "trial_index": 58}, "uniqueid": "MTK2511:3F0BG9B9MQUFVAHH25VM32OCRBE7YS", "dateTime": 1517944537329}, {"current_trial": 59, "trialdata": {"rt": -1000, "trial_type": "single-audio", "word": "turtle", "stimulus": "/static/audio/wordpool/TURTLE.wav", "conditions": [18, 1200, "a", 18000], "internal_node_id": "0.0-41.0", "trial": 1, "time_elapsed": 309361, "serialpos": 4, "key_press": -1, "wordID": 1521, "type": "PRES_AUD", "trial_index": 59}, "uniqueid": "MTK2511:3F0BG9B9MQUFVAHH25VM32OCRBE7YS", "dateTime": 1517944539669}, {"current_trial": 60, "trialdata": {"rt": -1000, "trial_type": "single-audio", "word": "sausage", "stimulus": "/static/audio/wordpool/SAUSAGE.wav", "conditions": [18, 1200, "a", 18000], "internal_node_id": "0.0-42.0", "trial": 1, "time_elapsed": 311676, "serialpos": 5, "key_press": -1, "wordID": 1237, "type": "PRES_AUD", "trial_index": 60}, "uniqueid": "MTK2511:3F0BG9B9MQUFVAHH25VM32OCRBE7YS", "dateTime": 1517944541984}, {"current_trial": 61, "trialdata": {"rt": -1000, "trial_type": "single-audio", "word": "canal", "stimulus": "/static/audio/wordpool/CANAL.wav", "conditions": [18, 1200, "a", 18000], "internal_node_id": "0.0-43.0", "trial": 1, "time_elapsed": 313789, "serialpos": 6, "key_press": -1, "wordID": 225, "type": "PRES_AUD", "trial_index": 61}, "uniqueid": "MTK2511:3F0BG9B9MQUFVAHH25VM32OCRBE7YS", "dateTime": 1517944544097}, {"current_trial": 62, "trialdata": {"rt": -1000, "trial_type": "single-audio", "word": "queen", "stimulus": "/static/audio/wordpool/QUEEN.wav", "conditions": [18, 1200, "a", 18000], "internal_node_id": "0.0-44.0", "trial": 1, "time_elapsed": 316161, "serialpos": 7, "key_press": -1, "wordID": 1148, "type": "PRES_AUD", "trial_index": 62}, "uniqueid": "MTK2511:3F0BG9B9MQUFVAHH25VM32OCRBE7YS", "dateTime": 1517944546469}, {"current_trial": 63, "trialdata": {"rt": -1000, "trial_type": "single-audio", "word": "space", "stimulus": "/static/audio/wordpool/SPACE.wav", "conditions": [18, 1200, "a", 18000], "internal_node_id": "0.0-45.0", "trial": 1, "time_elapsed": 318374, "serialpos": 8, "key_press": -1, "wordID": 1344, "type": "PRES_AUD", "trial_index": 63}, "uniqueid": "MTK2511:3F0BG9B9MQUFVAHH25VM32OCRBE7YS", "dateTime": 1517944548682}, {"current_trial": 64, "trialdata": {"rt": -1000, "trial_type": "single-audio", "word": "blockade", "stimulus": "/static/audio/wordpool/BLOCKADE.wav", "conditions": [18, 1200, "a", 18000], "internal_node_id": "0.0-46.0", "trial": 1, "time_elapsed": 320391, "serialpos": 9, "key_press": -1, "wordID": 136, "type": "PRES_AUD", "trial_index": 64}, "uniqueid": "MTK2511:3F0BG9B9MQUFVAHH25VM32OCRBE7YS", "dateTime": 1517944550699}, {"current_trial": 65, "trialdata": {"rt": -1000, "trial_type": "single-audio", "word": "jelly", "stimulus": "/static/audio/wordpool/JELLY.wav", "conditions": [18, 1200, "a", 18000], "internal_node_id": "0.0-47.0", "trial": 1, "time_elapsed": 322557, "serialpos": 10, "key_press": -1, "wordID": 754, "type": "PRES_AUD", "trial_index": 65}, "uniqueid": "MTK2511:3F0BG9B9MQUFVAHH25VM32OCRBE7YS", "dateTime": 1517944552865}, {"current_trial": 66, "trialdata": {"rt": -1000, "trial_type": "single-audio", "word": "egypt", "stimulus": "/static/audio/wordpool/EGYPT.wav", "conditions": [18, 1200, "a", 18000], "internal_node_id": "0.0-48.0", "trial": 1, "time_elapsed": 324594, "serialpos": 11, "key_press": -1, "wordID": 518, "type": "PRES_AUD", "trial_index": 66}, "uniqueid": "MTK2511:3F0BG9B9MQUFVAHH25VM32OCRBE7YS", "dateTime": 1517944554902}, {"current_trial": 67, "trialdata": {"rt": -1000, "trial_type": "single-audio", "word": "gangster", "stimulus": "/static/audio/wordpool/GANGSTER.wav", "conditions": [18, 1200, "a", 18000], "internal_node_id": "0.0-49.0", "trial": 1, "time_elapsed": 326837, "serialpos": 12, "key_press": -1, "wordID": 619, "type": "PRES_AUD", "trial_index": 67}, "uniqueid": "MTK2511:3F0BG9B9MQUFVAHH25VM32OCRBE7YS", "dateTime": 1517944557145}, {"current_trial": 68, "trialdata": {"rt": -1000, "trial_type": "single-audio", "word": "rocket", "stimulus": "/static/audio/wordpool/ROCKET.wav", "conditions": [18, 1200, "a", 18000], "internal_node_id": "0.0-50.0", "trial": 1, "time_elapsed": 328980, "serialpos": 13, "key_press": -1, "wordID": 1201, "type": "PRES_AUD", "trial_index": 68}, "uniqueid": "MTK2511:3F0BG9B9MQUFVAHH25VM32OCRBE7YS", "dateTime": 1517944559289}, {"current_trial": 69, "trialdata": {"rt": -1000, "trial_type": "single-audio", "word": "twister", "stimulus": "/static/audio/wordpool/TWISTER.wav", "conditions": [18, 1200, "a", 18000], "internal_node_id": "0.0-51.0", "trial": 1, "time_elapsed": 331180, "serialpos": 14, "key_press": -1, "wordID": 1529, "type": "PRES_AUD", "trial_index": 69}, "uniqueid": "MTK2511:3F0BG9B9MQUFVAHH25VM32OCRBE7YS", "dateTime": 1517944561488}, {"current_trial": 70, "trialdata": {"rt": -1000, "trial_type": "single-audio", "word": "razor", "stimulus": "/static/audio/wordpool/RAZOR.wav", "conditions": [18, 1200, "a", 18000], "internal_node_id": "0.0-52.0", "trial": 1, "time_elapsed": 333459, "serialpos": 15, "key_press": -1, "wordID": 1170, "type": "PRES_AUD", "trial_index": 70}, "uniqueid": "MTK2511:3F0BG9B9MQUFVAHH25VM32OCRBE7YS", "dateTime": 1517944563767}, {"current_trial": 71, "trialdata": {"rt": -1000, "trial_type": "single-audio", "word": "apron", "stimulus": "/static/audio/wordpool/APRON.wav", "conditions": [18, 1200, "a", 18000], "internal_node_id": "0.0-53.0", "trial": 1, "time_elapsed": 335560, "serialpos": 16, "key_press": -1, "wordID": 34, "type": "PRES_AUD", "trial_index": 71}, "uniqueid": "MTK2511:3F0BG9B9MQUFVAHH25VM32OCRBE7YS", "dateTime": 1517944565868}, {"current_trial": 72, "trialdata": {"rt": -1000, "trial_type": "single-audio", "word": "ankle", "stimulus": "/static/audio/wordpool/ANKLE.wav", "conditions": [18, 1200, "a", 18000], "internal_node_id": "0.0-54.0", "trial": 1, "time_elapsed": 337683, "serialpos": 17, "key_press": -1, "wordID": 23, "type": "PRES_AUD", "trial_index": 72}, "uniqueid": "MTK2511:3F0BG9B9MQUFVAHH25VM32OCRBE7YS", "dateTime": 1517944567991}, {"current_trial": 73, "trialdata": {"rt": -1, "trial_type": "single-stim", "stimulus": "", "internal_node_id": "0.0-55.0-0.0", "time_elapsed": 338937, "key_press": -1, "type": "PRE_RECALL_DELAY", "trial_index": 73}, "uniqueid": "MTK2511:3F0BG9B9MQUFVAHH25VM32OCRBE7YS", "dateTime": 1517944569245}, {"current_trial": 74, "trialdata": {"rt": -1000, "trial_type": "single-audio", "stimulus": "/static/audio/400Hz.wav", "internal_node_id": "0.0-56.0", "time_elapsed": 339438, "key_press": -1, "type": "PRE_RECALL_ALERT", "trial_index": 74}, "uniqueid": "MTK2511:3F0BG9B9MQUFVAHH25VM32OCRBE7YS", "dateTime": 1517944569746}, {"current_trial": 75, "trialdata": {"rt": [1568, 2584, 4152, 5888, 6848, 7936, 10680, 12296, 13528], "recwords": ["ankle", "apron", "twister", "rocket", "paper", "queen", "egypt", "sausage", "camel"], "key_times": [552, 704, 824, 944, 1120, 1568, 1744, 1920, 2072, 2167, 2336, 2584, 3080, 3160, 3288, 3440, 3792, 3944, 4008, 4152, 4416, 4520, 4664, 4783, 4952, 5024, 5888, 6168, 6352, 6487, 6647, 6712, 6848, 7264, 7383, 7488, 7623, 7712, 7936, 8352, 8584, 9008, 9112, 9464, 10680, 11208, 11305, 11480, 11655, 11744, 11911, 12063, 12296, 12560, 12648, 12912, 13095, 13192, 13528], "trial_type": "free-recall", "conditions": [18, 1200, "a", 18000], "internal_node_id": "0.0-57.0-0.0", "key_presses": [65, 78, 75, 76, 69, 13, 65, 80, 82, 79, 78, 13, 84, 87, 73, 83, 84, 69, 82, 13, 82, 79, 67, 75, 69, 84, 13, 80, 65, 80, 69, 82, 13, 81, 85, 69, 69, 78, 13, 69, 71, 89, 80, 84, 13, 83, 65, 85, 83, 65, 71, 69, 13, 67, 65, 77, 69, 76, 13], "trial": 1, "time_elapsed": 399440, "type": "FREE_RECALL", "trial_index": 75}, "uniqueid": "MTK2511:3F0BG9B9MQUFVAHH25VM32OCRBE7YS", "dateTime": 1517944629749}, {"current_trial": 76, "trialdata": {"rt": 2756, "trial_type": "text", "internal_node_id": "0.0-58.0", "time_elapsed": 404198, "key_press": 32, "type": "INSTRUCTIONS", "trial_index": 76}, "uniqueid": "MTK2511:3F0BG9B9MQUFVAHH25VM32OCRBE7YS", "dateTime": 1517944634506}, {"current_trial": 77, "trialdata": {"rt": [2471, 4807, 6367, 8575, 10415], "trial_type": "math-distractor", "key_times": [1903, 1991, 2471, 4287, 4431, 4807, 6031, 6135, 6367, 8119, 8271, 8575, 9983, 10415], "responses": ["15", "18", "13", "15", "8"], "num2": [3, 5, 9, 2, 1, 6], "num3": [5, 5, 3, 8, 6, 5], "conditions": [12, 800, "a", 12000], "internal_node_id": "0.0-59.0", "key_presses": [49, 53, 13, 49, 56, 13, 49, 51, 13, 49, 53, 13, 56, 13], "trial": 2, "time_elapsed": 417201, "type": "DISTRACTOR", "trial_index": 77, "num1": [7, 8, 1, 5, 1, 9]}, "uniqueid": "MTK2511:3F0BG9B9MQUFVAHH25VM32OCRBE7YS", "dateTime": 1517944647509}, {"current_trial": 78, "trialdata": {"rt": -1, "trial_type": "single-stim", "stimulus": "<p id=\"stim\">10</p>", "internal_node_id": "0.0-60.0-0.0", "time_elapsed": 420203, "key_press": -1, "trial_index": 78}, "uniqueid": "MTK2511:3F0BG9B9MQUFVAHH25VM32OCRBE7YS", "dateTime": 1517944650511}, {"current_trial": 79, "trialdata": {"rt": -1, "trial_type": "single-stim", "stimulus": "<p id=\"stim\">9</p>", "internal_node_id": "0.0-60.0-1.0", "time_elapsed": 421204, "key_press": -1, "trial_index": 79}, "uniqueid": "MTK2511:3F0BG9B9MQUFVAHH25VM32OCRBE7YS", "dateTime": 1517944651512}, {"current_trial": 80, "trialdata": {"rt": -1, "trial_type": "single-stim", "stimulus": "<p id=\"stim\">8</p>", "internal_node_id": "0.0-60.0-2.0", "time_elapsed": 422205, "key_press": -1, "trial_index": 80}, "uniqueid": "MTK2511:3F0BG9B9MQUFVAHH25VM32OCRBE7YS", "dateTime": 1517944652513}, {"current_trial": 81, "trialdata": {"rt": -1, "trial_type": "single-stim", "stimulus": "<p id=\"stim\">7</p>", "internal_node_id": "0.0-60.0-3.0", "time_elapsed": 423206, "key_press": -1, "trial_index": 81}, "uniqueid": "MTK2511:3F0BG9B9MQUFVAHH25VM32OCRBE7YS", "dateTime": 1517944653514}, {"current_trial": 82, "trialdata": {"rt": -1, "trial_type": "single-stim", "stimulus": "<p id=\"stim\">6</p>", "internal_node_id": "0.0-60.0-4.0", "time_elapsed": 424207, "key_press": -1, "trial_index": 82}, "uniqueid": "MTK2511:3F0BG9B9MQUFVAHH25VM32OCRBE7YS", "dateTime": 1517944654515}, {"current_trial": 83, "trialdata": {"rt": -1, "trial_type": "single-stim", "stimulus": "<p id=\"stim\">5</p>", "internal_node_id": "0.0-60.0-5.0", "time_elapsed": 425208, "key_press": -1, "trial_index": 83}, "uniqueid": "MTK2511:3F0BG9B9MQUFVAHH25VM32OCRBE7YS", "dateTime": 1517944655516}, {"current_trial": 84, "trialdata": {"rt": -1, "trial_type": "single-stim", "stimulus": "<p id=\"stim\">4</p>", "internal_node_id": "0.0-60.0-6.0", "time_elapsed": 426209, "key_press": -1, "trial_index": 84}, "uniqueid": "MTK2511:3F0BG9B9MQUFVAHH25VM32OCRBE7YS", "dateTime": 1517944656517}, {"current_trial": 85, "trialdata": {"rt": -1, "trial_type": "single-stim", "stimulus": "<p id=\"stim\">3</p>", "internal_node_id": "0.0-60.0-7.0", "time_elapsed": 427210, "key_press": -1, "trial_index": 85}, "uniqueid": "MTK2511:3F0BG9B9MQUFVAHH25VM32OCRBE7YS", "dateTime": 1517944657518}, {"current_trial": 86, "trialdata": {"rt": -1, "trial_type": "single-stim", "stimulus": "<p id=\"stim\">2</p>", "internal_node_id": "0.0-60.0-8.0", "time_elapsed": 428211, "key_press": -1, "trial_index": 86}, "uniqueid": "MTK2511:3F0BG9B9MQUFVAHH25VM32OCRBE7YS", "dateTime": 1517944658519}, {"current_trial": 87, "trialdata": {"rt": -1, "trial_type": "single-stim", "stimulus": "<p id=\"stim\">1</p>", "internal_node_id": "0.0-60.0-9.0", "time_elapsed": 429212, "key_press": -1, "trial_index": 87}, "uniqueid": "MTK2511:3F0BG9B9MQUFVAHH25VM32OCRBE7YS", "dateTime": 1517944659520}, {"current_trial": 88, "trialdata": {"rt": -1, "trial_type": "single-stim", "stimulus": "<p id=\"stim\">+</p>", "internal_node_id": "0.0-61.0-0.0", "time_elapsed": 430713, "key_press": -1, "type": "FIXATION", "trial_index": 88}, "uniqueid": "MTK2511:3F0BG9B9MQUFVAHH25VM32OCRBE7YS", "dateTime": 1517944661021}, {"current_trial": 89, "trialdata": {"rt": -1000, "trial_type": "single-audio", "word": "husband", "stimulus": "/static/audio/wordpool/HUSBAND.wav", "conditions": [12, 800, "a", 12000], "internal_node_id": "0.0-62.0", "trial": 2, "time_elapsed": 432528, "serialpos": 0, "key_press": -1, "wordID": 727, "type": "PRES_AUD", "trial_index": 89}, "uniqueid": "MTK2511:3F0BG9B9MQUFVAHH25VM32OCRBE7YS", "dateTime": 1517944662836}, {"current_trial": 90, "trialdata": {"rt": -1000, "trial_type": "single-audio", "word": "toaster", "stimulus": "/static/audio/wordpool/TOASTER.wav", "conditions": [12, 800, "a", 12000], "internal_node_id": "0.0-63.0", "trial": 2, "time_elapsed": 434491, "serialpos": 1, "key_press": -1, "wordID": 1471, "type": "PRES_AUD", "trial_index": 90}, "uniqueid": "MTK2511:3F0BG9B9MQUFVAHH25VM32OCRBE7YS", "dateTime": 1517944664799}, {"current_trial": 91, "trialdata": {"rt": -1000, "trial_type": "single-audio", "word": "rooster", "stimulus": "/static/audio/wordpool/ROOSTER.wav", "conditions": [12, 800, "a", 12000], "internal_node_id": "0.0-64.0", "trial": 2, "time_elapsed": 436360, "serialpos": 2, "key_press": -1, "wordID": 1208, "type": "PRES_AUD", "trial_index": 91}, "uniqueid": "MTK2511:3F0BG9B9MQUFVAHH25VM32OCRBE7YS", "dateTime": 1517944666668}, {"current_trial": 92, "trialdata": {"rt": -1000, "trial_type": "single-audio", "word": "barley", "stimulus": "/static/audio/wordpool/BARLEY.wav", "conditions": [12, 800, "a", 12000], "internal_node_id": "0.0-65.0", "trial": 2, "time_elapsed": 437981, "serialpos": 3, "key_press": -1, "wordID": 87, "type": "PRES_AUD", "trial_index": 92}, "uniqueid": "MTK2511:3F0BG9B9MQUFVAHH25VM32OCRBE7YS", "dateTime": 1517944668289}, {"current_trial": 93, "trialdata": {"rt": -1000, "trial_type": "single-audio", "word": "lava", "stimulus": "/static/audio/wordpool/LAVA.wav", "conditions": [12, 800, "a", 12000], "internal_node_id": "0.0-66.0", "trial": 2, "time_elapsed": 439957, "serialpos": 4, "key_press": -1, "wordID": 803, "type": "PRES_AUD", "trial_index": 93}, "uniqueid": "MTK2511:3F0BG9B9MQUFVAHH25VM32OCRBE7YS", "dateTime": 1517944670265}, {"current_trial": 94, "trialdata": {"rt": -1000, "trial_type": "single-audio", "word": "crater", "stimulus": "/static/audio/wordpool/CRATER.wav", "conditions": [12, 800, "a", 12000], "internal_node_id": "0.0-67.0", "trial": 2, "time_elapsed": 441767, "serialpos": 5, "key_press": -1, "wordID": 399, "type": "PRES_AUD", "trial_index": 94}, "uniqueid": "MTK2511:3F0BG9B9MQUFVAHH25VM32OCRBE7YS", "dateTime": 1517944672075}, {"current_trial": 95, "trialdata": {"rt": -1000, "trial_type": "single-audio", "word": "pizza", "stimulus": "/static/audio/wordpool/PIZZA.wav", "conditions": [12, 800, "a", 12000], "internal_node_id": "0.0-68.0", "trial": 2, "time_elapsed": 443711, "serialpos": 6, "key_press": -1, "wordID": 1078, "type": "PRES_AUD", "trial_index": 95}, "uniqueid": "MTK2511:3F0BG9B9MQUFVAHH25VM32OCRBE7YS", "dateTime": 1517944674019}, {"current_trial": 96, "trialdata": {"rt": -1000, "trial_type": "single-audio", "word": "primate", "stimulus": "/static/audio/wordpool/PRIMATE.wav", "conditions": [12, 800, "a", 12000], "internal_node_id": "0.0-69.0", "trial": 2, "time_elapsed": 445709, "serialpos": 7, "key_press": -1, "wordID": 1122, "type": "PRES_AUD", "trial_index": 96}, "uniqueid": "MTK2511:3F0BG9B9MQUFVAHH25VM32OCRBE7YS", "dateTime": 1517944676017}, {"current_trial": 97, "trialdata": {"rt": -1000, "trial_type": "single-audio", "word": "jungle", "stimulus": "/static/audio/wordpool/JUNGLE.wav", "conditions": [12, 800, "a", 12000], "internal_node_id": "0.0-70.0", "trial": 2, "time_elapsed": 447644, "serialpos": 8, "key_press": -1, "wordID": 763, "type": "PRES_AUD", "trial_index": 97}, "uniqueid": "MTK2511:3F0BG9B9MQUFVAHH25VM32OCRBE7YS", "dateTime": 1517944677952}, {"current_trial": 98, "trialdata": {"rt": -1000, "trial_type": "single-audio", "word": "fox", "stimulus": "/static/audio/wordpool/FOX.wav", "conditions": [12, 800, "a", 12000], "internal_node_id": "0.0-71.0", "trial": 2, "time_elapsed": 449448, "serialpos": 9, "key_press": -1, "wordID": 597, "type": "PRES_AUD", "trial_index": 98}, "uniqueid": "MTK2511:3F0BG9B9MQUFVAHH25VM32OCRBE7YS", "dateTime": 1517944679756}, {"current_trial": 99, "trialdata": {"rt": -1000, "trial_type": "single-audio", "word": "highway", "stimulus": "/static/audio/wordpool/HIGHWAY.wav", "conditions": [12, 800, "a", 12000], "internal_node_id": "0.0-72.0", "trial": 2, "time_elapsed": 451244, "serialpos": 10, "key_press": -1, "wordID": 706, "type": "PRES_AUD", "trial_index": 99}, "uniqueid": "MTK2511:3F0BG9B9MQUFVAHH25VM32OCRBE7YS", "dateTime": 1517944681552}, {"current_trial": 100, "trialdata": {"rt": -1000, "trial_type": "single-audio", "word": "daughter", "stimulus": "/static/audio/wordpool/DAUGHTER.wav", "conditions": [12, 800, "a", 12000], "internal_node_id": "0.0-73.0", "trial": 2, "time_elapsed": 453011, "serialpos": 11, "key_press": -1, "wordID": 441, "type": "PRES_AUD", "trial_index": 100}, "uniqueid": "MTK2511:3F0BG9B9MQUFVAHH25VM32OCRBE7YS", "dateTime": 1517944683319}, {"current_trial": 101, "trialdata": {"rt": -1, "trial_type": "single-stim", "stimulus": "", "internal_node_id": "0.0-74.0-0.0", "time_elapsed": 454247, "key_press": -1, "type": "PRE_RECALL_DELAY", "trial_index": 101}, "uniqueid": "MTK2511:3F0BG9B9MQUFVAHH25VM32OCRBE7YS", "dateTime": 1517944684555}, {"current_trial": 102, "trialdata": {"rt": -1000, "trial_type": "single-audio", "stimulus": "/static/audio/400Hz.wav", "internal_node_id": "0.0-75.0", "time_elapsed": 454753, "key_press": -1, "type": "PRE_RECALL_ALERT", "trial_index": 102}, "uniqueid": "MTK2511:3F0BG9B9MQUFVAHH25VM32OCRBE7YS", "dateTime": 1517944685061}, {"current_trial": 103, "trialdata": {"rt": [2019, 3387, 4691, 5691, 6779, 7715, 8843, 11587, 12995, 14715], "recwords": ["husband", "toaster", "jungle", "fox", "primate", "lava", "daughter", "highway", "rooster", "barley"], "key_times": [699, 795, 907, 1395, 1523, 1635, 1755, 2019, 2283, 2395, 2491, 2803, 2987, 3059, 3171, 3387, 3707, 3779, 4035, 4163, 4282, 4403, 4691, 5019, 5307, 5450, 5691, 5939, 6043, 6203, 6283, 6427, 6611, 6675, 6779, 7003, 7139, 7259, 7371, 7715, 7938, 8019, 8106, 8283, 8331, 8427, 8515, 8627, 8843, 9098, 9163, 9266, 9363, 9498, 9571, 9690, 11587, 12027, 12122, 12267, 12339, 12539, 12587, 12699, 12995, 13883, 13963, 14082, 14235, 14354, 14443, 14715], "trial_type": "free-recall", "conditions": [12, 800, "a", 12000], "internal_node_id": "0.0-76.0-0.0", "key_presses": [72, 85, 83, 66, 65, 78, 68, 13, 84, 79, 65, 83, 84, 69, 82, 13, 74, 85, 78, 71, 76, 69, 13, 70, 79, 88, 13, 80, 82, 73, 77, 65, 84, 69, 13, 76, 65, 86, 65, 13, 68, 65, 85, 71, 72, 84, 69, 82, 13, 72, 73, 71, 72, 87, 65, 89, 13, 82, 79, 79, 83, 84, 69, 82, 13, 66, 65, 82, 76, 69, 89, 13], "trial": 2, "time_elapsed": 514754, "type": "FREE_RECALL", "trial_index": 103}, "uniqueid": "MTK2511:3F0BG9B9MQUFVAHH25VM32OCRBE7YS", "dateTime": 1517944745063}, {"current_trial": 104, "trialdata": {"rt": 1602, "trial_type": "text", "internal_node_id": "0.0-77.0", "time_elapsed": 518358, "key_press": 32, "type": "INSTRUCTIONS", "trial_index": 104}, "uniqueid": "MTK2511:3F0BG9B9MQUFVAHH25VM32OCRBE7YS", "dateTime": 1517944748666}, {"current_trial": 105, "trialdata": {"rt": [4759, 7239, 9959], "trial_type": "math-distractor", "key_times": [3327, 3431, 4759, 6919, 7079, 7239, 9495, 9638, 9959, 11543, 11638], "responses": ["16", "22", "10"], "num2": [8, 4, 1, 4], "num3": [5, 9, 6, 4], "conditions": [12, 1600, "a", 12000], "internal_node_id": "0.0-78.0", "key_presses": [49, 54, 13, 50, 50, 13, 49, 48, 13, 49, 48], "trial": 3, "time_elapsed": 532361, "type": "DISTRACTOR", "trial_index": 105, "num1": [3, 9, 3, 2]}, "uniqueid": "MTK2511:3F0BG9B9MQUFVAHH25VM32OCRBE7YS", "dateTime": 1517944762669}, {"current_trial": 106, "trialdata": {"rt": -1, "trial_type": "single-stim", "stimulus": "<p id=\"stim\">10</p>", "internal_node_id": "0.0-79.0-0.0", "time_elapsed": 535363, "key_press": -1, "trial_index": 106}, "uniqueid": "MTK2511:3F0BG9B9MQUFVAHH25VM32OCRBE7YS", "dateTime": 1517944765671}, {"current_trial": 107, "trialdata": {"rt": -1, "trial_type": "single-stim", "stimulus": "<p id=\"stim\">9</p>", "internal_node_id": "0.0-79.0-1.0", "time_elapsed": 536364, "key_press": -1, "trial_index": 107}, "uniqueid": "MTK2511:3F0BG9B9MQUFVAHH25VM32OCRBE7YS", "dateTime": 1517944766672}, {"current_trial": 108, "trialdata": {"rt": -1, "trial_type": "single-stim", "stimulus": "<p id=\"stim\">8</p>", "internal_node_id": "0.0-79.0-2.0", "time_elapsed": 537365, "key_press": -1, "trial_index": 108}, "uniqueid": "MTK2511:3F0BG9B9MQUFVAHH25VM32OCRBE7YS", "dateTime": 1517944767673}, {"current_trial": 109, "trialdata": {"rt": -1, "trial_type": "single-stim", "stimulus": "<p id=\"stim\">7</p>", "internal_node_id": "0.0-79.0-3.0", "time_elapsed": 538366, "key_press": -1, "trial_index": 109}, "uniqueid": "MTK2511:3F0BG9B9MQUFVAHH25VM32OCRBE7YS", "dateTime": 1517944768674}, {"current_trial": 110, "trialdata": {"rt": -1, "trial_type": "single-stim", "stimulus": "<p id=\"stim\">6</p>", "internal_node_id": "0.0-79.0-4.0", "time_elapsed": 539367, "key_press": -1, "trial_index": 110}, "uniqueid": "MTK2511:3F0BG9B9MQUFVAHH25VM32OCRBE7YS", "dateTime": 1517944769675}, {"current_trial": 111, "trialdata": {"rt": -1, "trial_type": "single-stim", "stimulus": "<p id=\"stim\">5</p>", "internal_node_id": "0.0-79.0-5.0", "time_elapsed": 540368, "key_press": -1, "trial_index": 111}, "uniqueid": "MTK2511:3F0BG9B9MQUFVAHH25VM32OCRBE7YS", "dateTime": 1517944770676}, {"current_trial": 112, "trialdata": {"rt": -1, "trial_type": "single-stim", "stimulus": "<p id=\"stim\">4</p>", "internal_node_id": "0.0-79.0-6.0", "time_elapsed": 541369, "key_press": -1, "trial_index": 112}, "uniqueid": "MTK2511:3F0BG9B9MQUFVAHH25VM32OCRBE7YS", "dateTime": 1517944771677}, {"current_trial": 113, "trialdata": {"rt": -1, "trial_type": "single-stim", "stimulus": "<p id=\"stim\">3</p>", "internal_node_id": "0.0-79.0-7.0", "time_elapsed": 542370, "key_press": -1, "trial_index": 113}, "uniqueid": "MTK2511:3F0BG9B9MQUFVAHH25VM32OCRBE7YS", "dateTime": 1517944772678}, {"current_trial": 114, "trialdata": {"rt": -1, "trial_type": "single-stim", "stimulus": "<p id=\"stim\">2</p>", "internal_node_id": "0.0-79.0-8.0", "time_elapsed": 543371, "key_press": -1, "trial_index": 114}, "uniqueid": "MTK2511:3F0BG9B9MQUFVAHH25VM32OCRBE7YS", "dateTime": 1517944773679}, {"current_trial": 115, "trialdata": {"rt": -1, "trial_type": "single-stim", "stimulus": "<p id=\"stim\">1</p>", "internal_node_id": "0.0-79.0-9.0", "time_elapsed": 544372, "key_press": -1, "trial_index": 115}, "uniqueid": "MTK2511:3F0BG9B9MQUFVAHH25VM32OCRBE7YS", "dateTime": 1517944774680}, {"current_trial": 116, "trialdata": {"rt": -1, "trial_type": "single-stim", "stimulus": "<p id=\"stim\">+</p>", "internal_node_id": "0.0-80.0-0.0", "time_elapsed": 545873, "key_press": -1, "type": "FIXATION", "trial_index": 116}, "uniqueid": "MTK2511:3F0BG9B9MQUFVAHH25VM32OCRBE7YS", "dateTime": 1517944776181}, {"current_trial": 117, "trialdata": {"rt": -1000, "trial_type": "single-audio", "word": "truck", "stimulus": "/static/audio/wordpool/TRUCK.wav", "conditions": [12, 1600, "a", 12000], "internal_node_id": "0.0-81.0", "trial": 3, "time_elapsed": 548588, "serialpos": 0, "key_press": -1, "wordID": 1511, "type": "PRES_AUD", "trial_index": 117}, "uniqueid": "MTK2511:3F0BG9B9MQUFVAHH25VM32OCRBE7YS", "dateTime": 1517944778896}, {"current_trial": 118, "trialdata": {"rt": -1000, "trial_type": "single-audio", "word": "wagon", "stimulus": "/static/audio/wordpool/WAGON.wav", "conditions": [12, 1600, "a", 12000], "internal_node_id": "0.0-82.0", "trial": 3, "time_elapsed": 551197, "serialpos": 1, "key_press": -1, "wordID": 1577, "type": "PRES_AUD", "trial_index": 118}, "uniqueid": "MTK2511:3F0BG9B9MQUFVAHH25VM32OCRBE7YS", "dateTime": 1517944781505}, {"current_trial": 119, "trialdata": {"rt": -1000, "trial_type": "single-audio", "word": "cashier", "stimulus": "/static/audio/wordpool/CASHIER.wav", "conditions": [12, 1600, "a", 12000], "internal_node_id": "0.0-83.0", "trial": 3, "time_elapsed": 553634, "serialpos": 2, "key_press": -1, "wordID": 253, "type": "PRES_AUD", "trial_index": 119}, "uniqueid": "MTK2511:3F0BG9B9MQUFVAHH25VM32OCRBE7YS", "dateTime": 1517944783942}, {"current_trial": 120, "trialdata": {"rt": -1000, "trial_type": "single-audio", "word": "cocoon", "stimulus": "/static/audio/wordpool/COCOON.wav", "conditions": [12, 1600, "a", 12000], "internal_node_id": "0.0-84.0", "trial": 3, "time_elapsed": 556117, "serialpos": 3, "key_press": -1, "wordID": 338, "type": "PRES_AUD", "trial_index": 120}, "uniqueid": "MTK2511:3F0BG9B9MQUFVAHH25VM32OCRBE7YS", "dateTime": 1517944786425}, {"current_trial": 121, "trialdata": {"rt": -1000, "trial_type": "single-audio", "word": "match", "stimulus": "/static/audio/wordpool/MATCH.wav", "conditions": [12, 1600, "a", 12000], "internal_node_id": "0.0-85.0", "trial": 3, "time_elapsed": 558863, "serialpos": 4, "key_press": -1, "wordID": 877, "type": "PRES_AUD", "trial_index": 121}, "uniqueid": "MTK2511:3F0BG9B9MQUFVAHH25VM32OCRBE7YS", "dateTime": 1517944789171}, {"current_trial": 122, "trialdata": {"rt": -1000, "trial_type": "single-audio", "word": "chipmunk", "stimulus": "/static/audio/wordpool/CHIPMUNK.wav", "conditions": [12, 1600, "a", 12000], "internal_node_id": "0.0-86.0", "trial": 3, "time_elapsed": 561327, "serialpos": 5, "key_press": -1, "wordID": 303, "type": "PRES_AUD", "trial_index": 122}, "uniqueid": "MTK2511:3F0BG9B9MQUFVAHH25VM32OCRBE7YS", "dateTime": 1517944791635}, {"current_trial": 123, "trialdata": {"rt": -1000, "trial_type": "single-audio", "word": "patient", "stimulus": "/static/audio/wordpool/PATIENT.wav", "conditions": [12, 1600, "a", 12000], "internal_node_id": "0.0-87.0", "trial": 3, "time_elapsed": 563816, "serialpos": 6, "key_press": -1, "wordID": 1023, "type": "PRES_AUD", "trial_index": 123}, "uniqueid": "MTK2511:3F0BG9B9MQUFVAHH25VM32OCRBE7YS", "dateTime": 1517944794124}, {"current_trial": 124, "trialdata": {"rt": -1000, "trial_type": "single-audio", "word": "backbone", "stimulus": "/static/audio/wordpool/BACKBONE.wav", "conditions": [12, 1600, "a", 12000], "internal_node_id": "0.0-88.0", "trial": 3, "time_elapsed": 566354, "serialpos": 7, "key_press": -1, "wordID": 65, "type": "PRES_AUD", "trial_index": 124}, "uniqueid": "MTK2511:3F0BG9B9MQUFVAHH25VM32OCRBE7YS", "dateTime": 1517944796662}, {"current_trial": 125, "trialdata": {"rt": -1000, "trial_type": "single-audio", "word": "arm", "stimulus": "/static/audio/wordpool/ARM.wav", "conditions": [12, 1600, "a", 12000], "internal_node_id": "0.0-89.0", "trial": 3, "time_elapsed": 569139, "serialpos": 8, "key_press": -1, "wordID": 37, "type": "PRES_AUD", "trial_index": 125}, "uniqueid": "MTK2511:3F0BG9B9MQUFVAHH25VM32OCRBE7YS", "dateTime": 1517944799447}, {"current_trial": 126, "trialdata": {"rt": -1000, "trial_type": "single-audio", "word": "poison", "stimulus": "/static/audio/wordpool/POISON.wav", "conditions": [12, 1600, "a", 12000], "internal_node_id": "0.0-90.0", "trial": 3, "time_elapsed": 571882, "serialpos": 9, "key_press": -1, "wordID": 1095, "type": "PRES_AUD", "trial_index": 126}, "uniqueid": "MTK2511:3F0BG9B9MQUFVAHH25VM32OCRBE7YS", "dateTime": 1517944802190}, {"current_trial": 127, "trialdata": {"rt": -1000, "trial_type": "single-audio", "word": "fruit", "stimulus": "/static/audio/wordpool/FRUIT.wav", "conditions": [12, 1600, "a", 12000], "internal_node_id": "0.0-91.0", "trial": 3, "time_elapsed": 574350, "serialpos": 10, "key_press": -1, "wordID": 609, "type": "PRES_AUD", "trial_index": 127}, "uniqueid": "MTK2511:3F0BG9B9MQUFVAHH25VM32OCRBE7YS", "dateTime": 1517944804658}, {"current_trial": 128, "trialdata": {"rt": -1000, "trial_type": "single-audio", "word": "nurse", "stimulus": "/static/audio/wordpool/NURSE.wav", "conditions": [12, 1600, "a", 12000], "internal_node_id": "0.0-92.0", "trial": 3, "time_elapsed": 577153, "serialpos": 11, "key_press": -1, "wordID": 962, "type": "PRES_AUD", "trial_index": 128}, "uniqueid": "MTK2511:3F0BG9B9MQUFVAHH25VM32OCRBE7YS", "dateTime": 1517944807461}, {"current_trial": 129, "trialdata": {"rt": -1, "trial_type": "single-stim", "stimulus": "", "internal_node_id": "0.0-93.0-0.0", "time_elapsed": 578388, "key_press": -1, "type": "PRE_RECALL_DELAY", "trial_index": 129}, "uniqueid": "MTK2511:3F0BG9B9MQUFVAHH25VM32OCRBE7YS", "dateTime": 1517944808696}, {"current_trial": 130, "trialdata": {"rt": -1000, "trial_type": "single-audio", "stimulus": "/static/audio/400Hz.wav", "internal_node_id": "0.0-94.0", "time_elapsed": 578894, "key_press": -1, "type": "PRE_RECALL_ALERT", "trial_index": 130}, "uniqueid": "MTK2511:3F0BG9B9MQUFVAHH25VM32OCRBE7YS", "dateTime": 1517944809202}, {"current_trial": 131, "trialdata": {"rt": [1112, 2176, 3440, 4848, 6984, 9952, 12992, 14232, 15392], "recwords": ["nurse", "poison", "fruit", "patient", "backbone", "coccoon", "truck", "wagon", "arm"], "key_times": [368, 480, 592, 656, 776, 1112, 1416, 1536, 1592, 1792, 1896, 1960, 2176, 2368, 2560, 2720, 2768, 3224, 3440, 3672, 3768, 3984, 4096, 4184, 4280, 4497, 4848, 5184, 5256, 5352, 5416, 5984, 6112, 6232, 6321, 6984, 7184, 7600, 7872, 8008, 8168, 8320, 8456, 9952, 12208, 12264, 12392, 12576, 12672, 12992, 13224, 13304, 13760, 13888, 13960, 14232, 14776, 14864, 15160, 15392], "trial_type": "free-recall", "conditions": [12, 1600, "a", 12000], "internal_node_id": "0.0-95.0-0.0", "key_presses": [78, 85, 82, 83, 69, 13, 80, 79, 73, 83, 79, 78, 13, 70, 82, 85, 73, 84, 13, 80, 65, 84, 73, 69, 78, 84, 13, 66, 65, 67, 75, 66, 79, 78, 69, 13, 67, 79, 67, 67, 79, 79, 78, 13, 84, 82, 85, 67, 75, 13, 87, 65, 71, 79, 78, 13, 65, 82, 77, 13], "trial": 3, "time_elapsed": 638896, "type": "FREE_RECALL", "trial_index": 131}, "uniqueid": "MTK2511:3F0BG9B9MQUFVAHH25VM32OCRBE7YS", "dateTime": 1517944869205}, {"current_trial": 132, "trialdata": {"rt": 1372, "trial_type": "text", "internal_node_id": "0.0-96.0", "time_elapsed": 642270, "key_press": 32, "type": "INSTRUCTIONS", "trial_index": 132}, "uniqueid": "MTK2511:3F0BG9B9MQUFVAHH25VM32OCRBE7YS", "dateTime": 1517944872578}, {"current_trial": 133, "trialdata": {"rt": [1983, 5815, 8431, 11791], "trial_type": "math-distractor", "key_times": [1663, 1823, 1983, 5399, 5503, 5815, 7423, 7519, 8079, 8183, 8431, 11055, 11439, 11791], "responses": ["11", "13", "16", "18"], "num2": [1, 2, 9, 5, 5], "num3": [8, 9, 6, 7, 1], "conditions": [24, 1600, "a", 12000], "internal_node_id": "0.0-97.0", "key_presses": [49, 49, 13, 49, 51, 13, 49, 55, 8, 54, 13, 49, 56, 13], "trial": 4, "time_elapsed": 656273, "type": "DISTRACTOR", "trial_index": 133, "num1": [2, 2, 1, 6, 1]}, "uniqueid": "MTK2511:3F0BG9B9MQUFVAHH25VM32OCRBE7YS", "dateTime": 1517944886581}, {"current_trial": 134, "trialdata": {"rt": -1, "trial_type": "single-stim", "stimulus": "<p id=\"stim\">10</p>", "internal_node_id": "0.0-98.0-0.0", "time_elapsed": 659275, "key_press": -1, "trial_index": 134}, "uniqueid": "MTK2511:3F0BG9B9MQUFVAHH25VM32OCRBE7YS", "dateTime": 1517944889583}, {"current_trial": 135, "trialdata": {"rt": -1, "trial_type": "single-stim", "stimulus": "<p id=\"stim\">9</p>", "internal_node_id": "0.0-98.0-1.0", "time_elapsed": 660276, "key_press": -1, "trial_index": 135}, "uniqueid": "MTK2511:3F0BG9B9MQUFVAHH25VM32OCRBE7YS", "dateTime": 1517944890584}, {"current_trial": 136, "trialdata": {"rt": -1, "trial_type": "single-stim", "stimulus": "<p id=\"stim\">8</p>", "internal_node_id": "0.0-98.0-2.0", "time_elapsed": 661277, "key_press": -1, "trial_index": 136}, "uniqueid": "MTK2511:3F0BG9B9MQUFVAHH25VM32OCRBE7YS", "dateTime": 1517944891585}, {"current_trial": 137, "trialdata": {"rt": -1, "trial_type": "single-stim", "stimulus": "<p id=\"stim\">7</p>", "internal_node_id": "0.0-98.0-3.0", "time_elapsed": 662278, "key_press": -1, "trial_index": 137}, "uniqueid": "MTK2511:3F0BG9B9MQUFVAHH25VM32OCRBE7YS", "dateTime": 1517944892586}, {"current_trial": 138, "trialdata": {"rt": -1, "trial_type": "single-stim", "stimulus": "<p id=\"stim\">6</p>", "internal_node_id": "0.0-98.0-4.0", "time_elapsed": 663279, "key_press": -1, "trial_index": 138}, "uniqueid": "MTK2511:3F0BG9B9MQUFVAHH25VM32OCRBE7YS", "dateTime": 1517944893587}, {"current_trial": 139, "trialdata": {"rt": -1, "trial_type": "single-stim", "stimulus": "<p id=\"stim\">5</p>", "internal_node_id": "0.0-98.0-5.0", "time_elapsed": 664280, "key_press": -1, "trial_index": 139}, "uniqueid": "MTK2511:3F0BG9B9MQUFVAHH25VM32OCRBE7YS", "dateTime": 1517944894588}, {"current_trial": 140, "trialdata": {"rt": -1, "trial_type": "single-stim", "stimulus": "<p id=\"stim\">4</p>", "internal_node_id": "0.0-98.0-6.0", "time_elapsed": 665281, "key_press": -1, "trial_index": 140}, "uniqueid": "MTK2511:3F0BG9B9MQUFVAHH25VM32OCRBE7YS", "dateTime": 1517944895589}, {"current_trial": 141, "trialdata": {"rt": -1, "trial_type": "single-stim", "stimulus": "<p id=\"stim\">3</p>", "internal_node_id": "0.0-98.0-7.0", "time_elapsed": 666282, "key_press": -1, "trial_index": 141}, "uniqueid": "MTK2511:3F0BG9B9MQUFVAHH25VM32OCRBE7YS", "dateTime": 1517944896590}, {"current_trial": 142, "trialdata": {"rt": -1, "trial_type": "single-stim", "stimulus": "<p id=\"stim\">2</p>", "internal_node_id": "0.0-98.0-8.0", "time_elapsed": 667283, "key_press": -1, "trial_index": 142}, "uniqueid": "MTK2511:3F0BG9B9MQUFVAHH25VM32OCRBE7YS", "dateTime": 1517944897591}, {"current_trial": 143, "trialdata": {"rt": -1, "trial_type": "single-stim", "stimulus": "<p id=\"stim\">1</p>", "internal_node_id": "0.0-98.0-9.0", "time_elapsed": 668284, "key_press": -1, "trial_index": 143}, "uniqueid": "MTK2511:3F0BG9B9MQUFVAHH25VM32OCRBE7YS", "dateTime": 1517944898592}, {"current_trial": 144, "trialdata": {"rt": -1, "trial_type": "single-stim", "stimulus": "<p id=\"stim\">+</p>", "internal_node_id": "0.0-99.0-0.0", "time_elapsed": 669785, "key_press": -1, "type": "FIXATION", "trial_index": 144}, "uniqueid": "MTK2511:3F0BG9B9MQUFVAHH25VM32OCRBE7YS", "dateTime": 1517944900093}, {"current_trial": 145, "trialdata": {"rt": -1000, "trial_type": "single-audio", "word": "powder", "stimulus": "/static/audio/wordpool/POWDER.wav", "conditions": [24, 1600, "a", 12000], "internal_node_id": "0.0-100.0", "trial": 4, "time_elapsed": 672370, "serialpos": 0, "key_press": -1, "wordID": 1116, "type": "PRES_AUD", "trial_index": 145}, "uniqueid": "MTK2511:3F0BG9B9MQUFVAHH25VM32OCRBE7YS", "dateTime": 1517944902678}, {"current_trial": 146, "trialdata": {"rt": -1000, "trial_type": "single-audio", "word": "diver", "stimulus": "/static/audio/wordpool/DIVER.wav", "conditions": [24, 1600, "a", 12000], "internal_node_id": "0.0-101.0", "trial": 4, "time_elapsed": 675119, "serialpos": 1, "key_press": -1, "wordID": 475, "type": "PRES_AUD", "trial_index": 146}, "uniqueid": "MTK2511:3F0BG9B9MQUFVAHH25VM32OCRBE7YS", "dateTime": 1517944905427}, {"current_trial": 147, "trialdata": {"rt": -1000, "trial_type": "single-audio", "word": "sandwich", "stimulus": "/static/audio/wordpool/SANDWICH.wav", "conditions": [24, 1600, "a", 12000], "internal_node_id": "0.0-102.0", "trial": 4, "time_elapsed": 677652, "serialpos": 2, "key_press": -1, "wordID": 1231, "type": "PRES_AUD", "trial_index": 147}, "uniqueid": "MTK2511:3F0BG9B9MQUFVAHH25VM32OCRBE7YS", "dateTime": 1517944907960}, {"current_trial": 148, "trialdata": {"rt": -1000, "trial_type": "single-audio", "word": "scribble", "stimulus": "/static/audio/wordpool/SCRIBBLE.wav", "conditions": [24, 1600, "a", 12000], "internal_node_id": "0.0-103.0", "trial": 4, "time_elapsed": 680097, "serialpos": 3, "key_press": -1, "wordID": 1255, "type": "PRES_AUD", "trial_index": 148}, "uniqueid": "MTK2511:3F0BG9B9MQUFVAHH25VM32OCRBE7YS", "dateTime": 1517944910405}, {"current_trial": 149, "trialdata": {"rt": -1000, "trial_type": "single-audio", "word": "peach", "stimulus": "/static/audio/wordpool/PEACH.wav", "conditions": [24, 1600, "a", 12000], "internal_node_id": "0.0-104.0", "trial": 4, "time_elapsed": 682735, "serialpos": 4, "key_press": -1, "wordID": 1030, "type": "PRES_AUD", "trial_index": 149}, "uniqueid": "MTK2511:3F0BG9B9MQUFVAHH25VM32OCRBE7YS", "dateTime": 1517944913043}, {"current_trial": 150, "trialdata": {"rt": -1000, "trial_type": "single-audio", "word": "clamp", "stimulus": "/static/audio/wordpool/CLAMP.wav", "conditions": [24, 1600, "a", 12000], "internal_node_id": "0.0-105.0", "trial": 4, "time_elapsed": 685394, "serialpos": 5, "key_press": -1, "wordID": 315, "type": "PRES_AUD", "trial_index": 150}, "uniqueid": "MTK2511:3F0BG9B9MQUFVAHH25VM32OCRBE7YS", "dateTime": 1517944915702}, {"current_trial": 151, "trialdata": {"rt": -1000, "trial_type": "single-audio", "word": "orchid", "stimulus": "/static/audio/wordpool/ORCHID.wav", "conditions": [24, 1600, "a", 12000], "internal_node_id": "0.0-106.0", "trial": 4, "time_elapsed": 687904, "serialpos": 6, "key_press": -1, "wordID": 981, "type": "PRES_AUD", "trial_index": 151}, "uniqueid": "MTK2511:3F0BG9B9MQUFVAHH25VM32OCRBE7YS", "dateTime": 1517944918212}, {"current_trial": 152, "trialdata": {"rt": -1000, "trial_type": "single-audio", "word": "swimmer", "stimulus": "/static/audio/wordpool/SWIMMER.wav", "conditions": [24, 1600, "a", 12000], "internal_node_id": "0.0-107.0", "trial": 4, "time_elapsed": 690359, "serialpos": 7, "key_press": -1, "wordID": 1419, "type": "PRES_AUD", "trial_index": 152}, "uniqueid": "MTK2511:3F0BG9B9MQUFVAHH25VM32OCRBE7YS", "dateTime": 1517944920667}, {"current_trial": 153, "trialdata": {"rt": -1000, "trial_type": "single-audio", "word": "mister", "stimulus": "/static/audio/wordpool/MISTER.wav", "conditions": [24, 1600, "a", 12000], "internal_node_id": "0.0-108.0", "trial": 4, "time_elapsed": 692974, "serialpos": 8, "key_press": -1, "wordID": 900, "type": "PRES_AUD", "trial_index": 153}, "uniqueid": "MTK2511:3F0BG9B9MQUFVAHH25VM32OCRBE7YS", "dateTime": 1517944923282}, {"current_trial": 154, "trialdata": {"rt": -1000, "trial_type": "single-audio", "word": "panther", "stimulus": "/static/audio/wordpool/PANTHER.wav", "conditions": [24, 1600, "a", 12000], "internal_node_id": "0.0-109.0", "trial": 4, "time_elapsed": 695664, "serialpos": 9, "key_press": -1, "wordID": 1008, "type": "PRES_AUD", "trial_index": 154}, "uniqueid": "MTK2511:3F0BG9B9MQUFVAHH25VM32OCRBE7YS", "dateTime": 1517944925972}, {"current_trial": 155, "trialdata": {"rt": -1000, "trial_type": "single-audio", "word": "leopard", "stimulus": "/static/audio/wordpool/LEOPARD.wav", "conditions": [24, 1600, "a", 12000], "internal_node_id": "0.0-110.0", "trial": 4, "time_elapsed": 698257, "serialpos": 10, "key_press": -1, "wordID": 811, "type": "PRES_AUD", "trial_index": 155}, "uniqueid": "MTK2511:3F0BG9B9MQUFVAHH25VM32OCRBE7YS", "dateTime": 1517944928565}, {"current_trial": 156, "trialdata": {"rt": -1000, "trial_type": "single-audio", "word": "office", "stimulus": "/static/audio/wordpool/OFFICE.wav", "conditions": [24, 1600, "a", 12000], "internal_node_id": "0.0-111.0", "trial": 4, "time_elapsed": 700888, "serialpos": 11, "key_press": -1, "wordID": 971, "type": "PRES_AUD", "trial_index": 156}, "uniqueid": "MTK2511:3F0BG9B9MQUFVAHH25VM32OCRBE7YS", "dateTime": 1517944931196}, {"current_trial": 157, "trialdata": {"rt": -1000, "trial_type": "single-audio", "word": "beef", "stimulus": "/static/audio/wordpool/BEEF.wav", "conditions": [24, 1600, "a", 12000], "internal_node_id": "0.0-112.0", "trial": 4, "time_elapsed": 703341, "serialpos": 12, "key_press": -1, "wordID": 112, "type": "PRES_AUD", "trial_index": 157}, "uniqueid": "MTK2511:3F0BG9B9MQUFVAHH25VM32OCRBE7YS", "dateTime": 1517944933649}, {"current_trial": 158, "trialdata": {"rt": -1000, "trial_type": "single-audio", "word": "pebble", "stimulus": "/static/audio/wordpool/PEBBLE.wav", "conditions": [24, 1600, "a", 12000], "internal_node_id": "0.0-113.0", "trial": 4, "time_elapsed": 705954, "serialpos": 13, "key_press": -1, "wordID": 1034, "type": "PRES_AUD", "trial_index": 158}, "uniqueid": "MTK2511:3F0BG9B9MQUFVAHH25VM32OCRBE7YS", "dateTime": 1517944936262}, {"current_trial": 159, "trialdata": {"rt": -1000, "trial_type": "single-audio", "word": "hornet", "stimulus": "/static/audio/wordpool/HORNET.wav", "conditions": [24, 1600, "a", 12000], "internal_node_id": "0.0-114.0", "trial": 4, "time_elapsed": 708448, "serialpos": 14, "key_press": -1, "wordID": 717, "type": "PRES_AUD", "trial_index": 159}, "uniqueid": "MTK2511:3F0BG9B9MQUFVAHH25VM32OCRBE7YS", "dateTime": 1517944938756}, {"current_trial": 160, "trialdata": {"rt": -1000, "trial_type": "single-audio", "word": "pliers", "stimulus": "/static/audio/wordpool/PLIERS.wav", "conditions": [24, 1600, "a", 12000], "internal_node_id": "0.0-115.0", "trial": 4, "time_elapsed": 711136, "serialpos": 15, "key_press": -1, "wordID": 1088, "type": "PRES_AUD", "trial_index": 160}, "uniqueid": "MTK2511:3F0BG9B9MQUFVAHH25VM32OCRBE7YS", "dateTime": 1517944941445}, {"current_trial": 161, "trialdata": {"rt": -1000, "trial_type": "single-audio", "word": "mailman", "stimulus": "/static/audio/wordpool/MAILMAN.wav", "conditions": [24, 1600, "a", 12000], "internal_node_id": "0.0-116.0", "trial": 4, "time_elapsed": 713646, "serialpos": 16, "key_press": -1, "wordID": 857, "type": "PRES_AUD", "trial_index": 161}, "uniqueid": "MTK2511:3F0BG9B9MQUFVAHH25VM32OCRBE7YS", "dateTime": 1517944943955}, {"current_trial": 162, "trialdata": {"rt": -1000, "trial_type": "single-audio", "word": "pluto", "stimulus": "/static/audio/wordpool/PLUTO.wav", "conditions": [24, 1600, "a", 12000], "internal_node_id": "0.0-117.0", "trial": 4, "time_elapsed": 716244, "serialpos": 17, "key_press": -1, "wordID": 1091, "type": "PRES_AUD", "trial_index": 162}, "uniqueid": "MTK2511:3F0BG9B9MQUFVAHH25VM32OCRBE7YS", "dateTime": 1517944946553}, {"current_trial": 163, "trialdata": {"rt": -1000, "trial_type": "single-audio", "word": "creature", "stimulus": "/static/audio/wordpool/CREATURE.wav", "conditions": [24, 1600, "a", 12000], "internal_node_id": "0.0-118.0", "trial": 4, "time_elapsed": 719020, "serialpos": 18, "key_press": -1, "wordID": 402, "type": "PRES_AUD", "trial_index": 163}, "uniqueid": "MTK2511:3F0BG9B9MQUFVAHH25VM32OCRBE7YS", "dateTime": 1517944949328}, {"current_trial": 164, "trialdata": {"rt": -1000, "trial_type": "single-audio", "word": "sunset", "stimulus": "/static/audio/wordpool/SUNSET.wav", "conditions": [24, 1600, "a", 12000], "internal_node_id": "0.0-119.0", "trial": 4, "time_elapsed": 721479, "serialpos": 19, "key_press": -1, "wordID": 1407, "type": "PRES_AUD", "trial_index": 164}, "uniqueid": "MTK2511:3F0BG9B9MQUFVAHH25VM32OCRBE7YS", "dateTime": 1517944951787}, {"current_trial": 165, "trialdata": {"rt": -1000, "trial_type": "single-audio", "word": "crib", "stimulus": "/static/audio/wordpool/CRIB.wav", "conditions": [24, 1600, "a", 12000], "internal_node_id": "0.0-120.0", "trial": 4, "time_elapsed": 723978, "serialpos": 20, "key_press": -1, "wordID": 406, "type": "PRES_AUD", "trial_index": 165}, "uniqueid": "MTK2511:3F0BG9B9MQUFVAHH25VM32OCRBE7YS", "dateTime": 1517944954286}, {"current_trial": 166, "trialdata": {"rt": -1000, "trial_type": "single-audio", "word": "mattress", "stimulus": "/static/audio/wordpool/MATTRESS.wav", "conditions": [24, 1600, "a", 12000], "internal_node_id": "0.0-121.0", "trial": 4, "time_elapsed": 726592, "serialpos": 21, "key_press": -1, "wordID": 878, "type": "PRES_AUD", "trial_index": 166}, "uniqueid": "MTK2511:3F0BG9B9MQUFVAHH25VM32OCRBE7YS", "dateTime": 1517944956900}, {"current_trial": 167, "trialdata": {"rt": -1000, "trial_type": "single-audio", "word": "mailbox", "stimulus": "/static/audio/wordpool/MAILBOX.wav", "conditions": [24, 1600, "a", 12000], "internal_node_id": "0.0-122.0", "trial": 4, "time_elapsed": 729169, "serialpos": 22, "key_press": -1, "wordID": 856, "type": "PRES_AUD", "trial_index": 167}, "uniqueid": "MTK2511:3F0BG9B9MQUFVAHH25VM32OCRBE7YS", "dateTime": 1517944959477}, {"current_trial": 168, "trialdata": {"rt": -1000, "trial_type": "single-audio", "word": "liver", "stimulus": "/static/audio/wordpool/LIVER.wav", "conditions": [24, 1600, "a", 12000], "internal_node_id": "0.0-123.0", "trial": 4, "time_elapsed": 731582, "serialpos": 23, "key_press": -1, "wordID": 832, "type": "PRES_AUD", "trial_index": 168}, "uniqueid": "MTK2511:3F0BG9B9MQUFVAHH25VM32OCRBE7YS", "dateTime": 1517944961890}, {"current_trial": 169, "trialdata": {"rt": -1, "trial_type": "single-stim", "stimulus": "", "internal_node_id": "0.0-124.0-0.0", "time_elapsed": 732980, "key_press": -1, "type": "PRE_RECALL_DELAY", "trial_index": 169}, "uniqueid": "MTK2511:3F0BG9B9MQUFVAHH25VM32OCRBE7YS", "dateTime": 1517944963288}, {"current_trial": 170, "trialdata": {"rt": -1000, "trial_type": "single-audio", "stimulus": "/static/audio/400Hz.wav", "internal_node_id": "0.0-125.0", "time_elapsed": 733482, "key_press": -1, "type": "PRE_RECALL_ALERT", "trial_index": 170}, "uniqueid": "MTK2511:3F0BG9B9MQUFVAHH25VM32OCRBE7YS", "dateTime": 1517944963790}, {"current_trial": 171, "trialdata": {"rt": [2379, 3267, 4259, 8027, 10891, 13923, 15323, 18659, 20282, 22323, 33083, 52811, 58323], "recwords": ["sandwich", "diver", "swimmer", "pebble", "creature", "pluto", "panther", "sandwich", "liver", "office", "mattress", "leopard", "crates"], "key_times": [1203, 1283, 1403, 1499, 1803, 1971, 2099, 2179, 2379, 2659, 2763, 2891, 3035, 3091, 3267, 3395, 3595, 3707, 3787, 3947, 4019, 4091, 4259, 4603, 5043, 5923, 6147, 6251, 6403, 6699, 6963, 8027, 9499, 9739, 9811, 9843, 10083, 10211, 10475, 10555, 10891, 12339, 12419, 12707, 12827, 12947, 13923, 14195, 14331, 14419, 14667, 14723, 14827, 14866, 15323, 15666, 16931, 17419, 17491, 17642, 17731, 17915, 18011, 18162, 18283, 18659, 19243, 19323, 19402, 19546, 19635, 20282, 21298, 21410, 21546, 21747, 21843, 21915, 22323, 31579, 31667, 31875, 32035, 32283, 32363, 32659, 32803, 33083, 50803, 51035, 51147, 51427, 51595, 51795, 51851, 52811, 57203, 57443, 57715, 57939, 58019, 58059, 58323], "trial_type": "free-recall", "conditions": [24, 1600, "a", 12000], "internal_node_id": "0.0-126.0-0.0", "key_presses": [83, 65, 78, 68, 87, 73, 67, 72, 13, 68, 73, 86, 69, 82, 13, 83, 87, 73, 77, 77, 69, 82, 13, 66, 8, 80, 69, 66, 66, 76, 69, 13, 67, 82, 69, 65, 84, 85, 82, 69, 13, 80, 76, 85, 84, 79, 13, 80, 65, 78, 84, 72, 69, 82, 13, 76, 8, 83, 65, 78, 68, 87, 73, 67, 72, 13, 76, 73, 86, 69, 82, 13, 79, 70, 70, 73, 67, 69, 13, 77, 65, 84, 84, 82, 69, 83, 83, 13, 76, 69, 79, 80, 65, 82, 68, 13, 67, 82, 65, 84, 69, 83, 13], "trial": 4, "time_elapsed": 793484, "type": "FREE_RECALL", "trial_index": 171}, "uniqueid": "MTK2511:3F0BG9B9MQUFVAHH25VM32OCRBE7YS", "dateTime": 1517945023793}, {"current_trial": 172, "trialdata": {"rt": 1432, "trial_type": "text", "internal_node_id": "0.0-127.0", "time_elapsed": 796918, "key_press": 32, "type": "INSTRUCTIONS", "trial_index": 172}, "uniqueid": "MTK2511:3F0BG9B9MQUFVAHH25VM32OCRBE7YS", "dateTime": 1517945027226}, {"current_trial": 173, "trialdata": {"rt": [5447, 7374, 9518, 11654, 14615, 15886, 18374, 21487], "trial_type": "math-distractor", "key_times": [4727, 4950, 5447, 7031, 7199, 7374, 9086, 9198, 9518, 10550, 10663, 11654, 14118, 14239, 14615, 15655, 15742, 15886, 18022, 18158, 18374, 20583, 21223, 21311, 21487, 23839], "responses": ["17", "14", "15", "16", "19", "14", "15", "9"], "num2": [4, 1, 6, 7, 9, 4, 4, 6, 8], "num3": [4, 9, 6, 6, 9, 1, 8, 1, 6], "conditions": [12, 1600, "a", 24000], "internal_node_id": "0.0-128.0", "key_presses": [49, 55, 13, 49, 52, 13, 49, 53, 13, 49, 54, 13, 49, 57, 13, 49, 52, 13, 49, 53, 13, 56, 8, 57, 13, 50], "trial": 5, "time_elapsed": 822920, "type": "DISTRACTOR", "trial_index": 173, "num1": [9, 4, 3, 3, 1, 9, 3, 2, 4]}, "uniqueid": "MTK2511:3F0BG9B9MQUFVAHH25VM32OCRBE7YS", "dateTime": 1517945053228}, {"current_trial": 174, "trialdata": {"rt": -1, "trial_type": "single-stim", "stimulus": "<p id=\"stim\">10</p>", "internal_node_id": "0.0-129.0-0.0", "time_elapsed": 825922, "key_press": -1, "trial_index": 174}, "uniqueid": "MTK2511:3F0BG9B9MQUFVAHH25VM32OCRBE7YS", "dateTime": 1517945056230}, {"current_trial": 175, "trialdata": {"rt": -1, "trial_type": "single-stim", "stimulus": "<p id=\"stim\">9</p>", "internal_node_id": "0.0-129.0-1.0", "time_elapsed": 826923, "key_press": -1, "trial_index": 175}, "uniqueid": "MTK2511:3F0BG9B9MQUFVAHH25VM32OCRBE7YS", "dateTime": 1517945057231}, {"current_trial": 176, "trialdata": {"rt": -1, "trial_type": "single-stim", "stimulus": "<p id=\"stim\">8</p>", "internal_node_id": "0.0-129.0-2.0", "time_elapsed": 827924, "key_press": -1, "trial_index": 176}, "uniqueid": "MTK2511:3F0BG9B9MQUFVAHH25VM32OCRBE7YS", "dateTime": 1517945058233}, {"current_trial": 177, "trialdata": {"rt": -1, "trial_type": "single-stim", "stimulus": "<p id=\"stim\">7</p>", "internal_node_id": "0.0-129.0-3.0", "time_elapsed": 828925, "key_press": -1, "trial_index": 177}, "uniqueid": "MTK2511:3F0BG9B9MQUFVAHH25VM32OCRBE7YS", "dateTime": 1517945059234}, {"current_trial": 178, "trialdata": {"rt": -1, "trial_type": "single-stim", "stimulus": "<p id=\"stim\">6</p>", "internal_node_id": "0.0-129.0-4.0", "time_elapsed": 829927, "key_press": -1, "trial_index": 178}, "uniqueid": "MTK2511:3F0BG9B9MQUFVAHH25VM32OCRBE7YS", "dateTime": 1517945060235}, {"current_trial": 179, "trialdata": {"rt": -1, "trial_type": "single-stim", "stimulus": "<p id=\"stim\">5</p>", "internal_node_id": "0.0-129.0-5.0", "time_elapsed": 830928, "key_press": -1, "trial_index": 179}, "uniqueid": "MTK2511:3F0BG9B9MQUFVAHH25VM32OCRBE7YS", "dateTime": 1517945061236}, {"current_trial": 180, "trialdata": {"rt": -1, "trial_type": "single-stim", "stimulus": "<p id=\"stim\">4</p>", "internal_node_id": "0.0-129.0-6.0", "time_elapsed": 831929, "key_press": -1, "trial_index": 180}, "uniqueid": "MTK2511:3F0BG9B9MQUFVAHH25VM32OCRBE7YS", "dateTime": 1517945062237}, {"current_trial": 181, "trialdata": {"rt": -1, "trial_type": "single-stim", "stimulus": "<p id=\"stim\">3</p>", "internal_node_id": "0.0-129.0-7.0", "time_elapsed": 832930, "key_press": -1, "trial_index": 181}, "uniqueid": "MTK2511:3F0BG9B9MQUFVAHH25VM32OCRBE7YS", "dateTime": 1517945063238}, {"current_trial": 182, "trialdata": {"rt": -1, "trial_type": "single-stim", "stimulus": "<p id=\"stim\">2</p>", "internal_node_id": "0.0-129.0-8.0", "time_elapsed": 833931, "key_press": -1, "trial_index": 182}, "uniqueid": "MTK2511:3F0BG9B9MQUFVAHH25VM32OCRBE7YS", "dateTime": 1517945064239}, {"current_trial": 183, "trialdata": {"rt": -1, "trial_type": "single-stim", "stimulus": "<p id=\"stim\">1</p>", "internal_node_id": "0.0-129.0-9.0", "time_elapsed": 834932, "key_press": -1, "trial_index": 183}, "uniqueid": "MTK2511:3F0BG9B9MQUFVAHH25VM32OCRBE7YS", "dateTime": 1517945065240}, {"current_trial": 184, "trialdata": {"rt": -1, "trial_type": "single-stim", "stimulus": "<p id=\"stim\">+</p>", "internal_node_id": "0.0-130.0-0.0", "time_elapsed": 836433, "key_press": -1, "type": "FIXATION", "trial_index": 184}, "uniqueid": "MTK2511:3F0BG9B9MQUFVAHH25VM32OCRBE7YS", "dateTime": 1517945066741}, {"current_trial": 185, "trialdata": {"rt": -1000, "trial_type": "single-audio", "word": "pigment", "stimulus": "/static/audio/wordpool/PIGMENT.wav", "conditions": [12, 1600, "a", 24000], "internal_node_id": "0.0-131.0", "trial": 5, "time_elapsed": 839170, "serialpos": 0, "key_press": -1, "wordID": 1065, "type": "PRES_AUD", "trial_index": 185}, "uniqueid": "MTK2511:3F0BG9B9MQUFVAHH25VM32OCRBE7YS", "dateTime": 1517945069478}, {"current_trial": 186, "trialdata": {"rt": -1000, "trial_type": "single-audio", "word": "perfume", "stimulus": "/static/audio/wordpool/PERFUME.wav", "conditions": [12, 1600, "a", 24000], "internal_node_id": "0.0-132.0", "trial": 5, "time_elapsed": 841717, "serialpos": 1, "key_press": -1, "wordID": 1048, "type": "PRES_AUD", "trial_index": 186}, "uniqueid": "MTK2511:3F0BG9B9MQUFVAHH25VM32OCRBE7YS", "dateTime": 1517945072025}, {"current_trial": 187, "trialdata": {"rt": -1000, "trial_type": "single-audio", "word": "county", "stimulus": "/static/audio/wordpool/COUNTY.wav", "conditions": [12, 1600, "a", 24000], "internal_node_id": "0.0-133.0", "trial": 5, "time_elapsed": 844139, "serialpos": 2, "key_press": -1, "wordID": 388, "type": "PRES_AUD", "trial_index": 187}, "uniqueid": "MTK2511:3F0BG9B9MQUFVAHH25VM32OCRBE7YS", "dateTime": 1517945074447}, {"current_trial": 188, "trialdata": {"rt": -1000, "trial_type": "single-audio", "word": "shark", "stimulus": "/static/audio/wordpool/SHARK.wav", "conditions": [12, 1600, "a", 24000], "internal_node_id": "0.0-134.0", "trial": 5, "time_elapsed": 846673, "serialpos": 3, "key_press": -1, "wordID": 1274, "type": "PRES_AUD", "trial_index": 188}, "uniqueid": "MTK2511:3F0BG9B9MQUFVAHH25VM32OCRBE7YS", "dateTime": 1517945076981}, {"current_trial": 189, "trialdata": {"rt": -1000, "trial_type": "single-audio", "word": "mustard", "stimulus": "/static/audio/wordpool/MUSTARD.wav", "conditions": [12, 1600, "a", 24000], "internal_node_id": "0.0-135.0", "trial": 5, "time_elapsed": 849269, "serialpos": 4, "key_press": -1, "wordID": 934, "type": "PRES_AUD", "trial_index": 189}, "uniqueid": "MTK2511:3F0BG9B9MQUFVAHH25VM32OCRBE7YS", "dateTime": 1517945079577}, {"current_trial": 190, "trialdata": {"rt": -1000, "trial_type": "single-audio", "word": "snack", "stimulus": "/static/audio/wordpool/SNACK.wav", "conditions": [12, 1600, "a", 24000], "internal_node_id": "0.0-136.0", "trial": 5, "time_elapsed": 851809, "serialpos": 5, "key_press": -1, "wordID": 1330, "type": "PRES_AUD", "trial_index": 190}, "uniqueid": "MTK2511:3F0BG9B9MQUFVAHH25VM32OCRBE7YS", "dateTime": 1517945082117}, {"current_trial": 191, "trialdata": {"rt": -1000, "trial_type": "single-audio", "word": "shrub", "stimulus": "/static/audio/wordpool/SHRUB.wav", "conditions": [12, 1600, "a", 24000], "internal_node_id": "0.0-137.0", "trial": 5, "time_elapsed": 854436, "serialpos": 6, "key_press": -1, "wordID": 1298, "type": "PRES_AUD", "trial_index": 191}, "uniqueid": "MTK2511:3F0BG9B9MQUFVAHH25VM32OCRBE7YS", "dateTime": 1517945084744}, {"current_trial": 192, "trialdata": {"rt": -1000, "trial_type": "single-audio", "word": "pudding", "stimulus": "/static/audio/wordpool/PUDDING.wav", "conditions": [12, 1600, "a", 24000], "internal_node_id": "0.0-138.0", "trial": 5, "time_elapsed": 856882, "serialpos": 7, "key_press": -1, "wordID": 1138, "type": "PRES_AUD", "trial_index": 192}, "uniqueid": "MTK2511:3F0BG9B9MQUFVAHH25VM32OCRBE7YS", "dateTime": 1517945087190}, {"current_trial": 193, "trialdata": {"rt": -1000, "trial_type": "single-audio", "word": "popcorn", "stimulus": "/static/audio/wordpool/POPCORN.wav", "conditions": [12, 1600, "a", 24000], "internal_node_id": "0.0-139.0", "trial": 5, "time_elapsed": 859333, "serialpos": 8, "key_press": -1, "wordID": 1103, "type": "PRES_AUD", "trial_index": 193}, "uniqueid": "MTK2511:3F0BG9B9MQUFVAHH25VM32OCRBE7YS", "dateTime": 1517945089641}, {"current_trial": 194, "trialdata": {"rt": -1000, "trial_type": "single-audio", "word": "widow", "stimulus": "/static/audio/wordpool/WIDOW.wav", "conditions": [12, 1600, "a", 24000], "internal_node_id": "0.0-140.0", "trial": 5, "time_elapsed": 862086, "serialpos": 9, "key_press": -1, "wordID": 1607, "type": "PRES_AUD", "trial_index": 194}, "uniqueid": "MTK2511:3F0BG9B9MQUFVAHH25VM32OCRBE7YS", "dateTime": 1517945092394}, {"current_trial": 195, "trialdata": {"rt": -1000, "trial_type": "single-audio", "word": "uncle", "stimulus": "/static/audio/wordpool/UNCLE.wav", "conditions": [12, 1600, "a", 24000], "internal_node_id": "0.0-141.0", "trial": 5, "time_elapsed": 864491, "serialpos": 10, "key_press": -1, "wordID": 1535, "type": "PRES_AUD", "trial_index": 195}, "uniqueid": "MTK2511:3F0BG9B9MQUFVAHH25VM32OCRBE7YS", "dateTime": 1517945094799}, {"current_trial": 196, "trialdata": {"rt": -1000, "trial_type": "single-audio", "word": "burglar", "stimulus": "/static/audio/wordpool/BURGLAR.wav", "conditions": [12, 1600, "a", 24000], "internal_node_id": "0.0-142.0", "trial": 5, "time_elapsed": 867111, "serialpos": 11, "key_press": -1, "wordID": 199, "type": "PRES_AUD", "trial_index": 196}, "uniqueid": "MTK2511:3F0BG9B9MQUFVAHH25VM32OCRBE7YS", "dateTime": 1517945097419}, {"current_trial": 197, "trialdata": {"rt": -1, "trial_type": "single-stim", "stimulus": "", "internal_node_id": "0.0-143.0-0.0", "time_elapsed": 868462, "key_press": -1, "type": "PRE_RECALL_DELAY", "trial_index": 197}, "uniqueid": "MTK2511:3F0BG9B9MQUFVAHH25VM32OCRBE7YS", "dateTime": 1517945098770}, {"current_trial": 198, "trialdata": {"rt": -1000, "trial_type": "single-audio", "stimulus": "/static/audio/400Hz.wav", "internal_node_id": "0.0-144.0", "time_elapsed": 868964, "key_press": -1, "type": "PRE_RECALL_ALERT", "trial_index": 198}, "uniqueid": "MTK2511:3F0BG9B9MQUFVAHH25VM32OCRBE7YS", "dateTime": 1517945099272}, {"current_trial": 199, "trialdata": {"rt": [1712, 2777, 4096, 5361, 7656, 13761, 15241, 22833], "recwords": ["widow", "uncle", "burglar", "pudding", "county", "perfume", "pigment", "mustard"], "key_times": [673, 801, 920, 1120, 1201, 1712, 1969, 2032, 2144, 2265, 2368, 2777, 3121, 3224, 3352, 3560, 3753, 3873, 3944, 4096, 4337, 4424, 4521, 4648, 4769, 4808, 4944, 5361, 5817, 5913, 5976, 6057, 6160, 6232, 6360, 6928, 7073, 7312, 7656, 11881, 12017, 12073, 12537, 12689, 12945, 13129, 13761, 14065, 14297, 14417, 14545, 14649, 14777, 14889, 15241, 21753, 21898, 22001, 22169, 22265, 22497, 22561, 22833], "trial_type": "free-recall", "conditions": [12, 1600, "a", 24000], "internal_node_id": "0.0-145.0-0.0", "key_presses": [87, 73, 68, 79, 87, 13, 85, 78, 67, 76, 69, 13, 66, 85, 82, 71, 76, 65, 82, 13, 80, 85, 68, 68, 73, 78, 71, 13, 67, 79, 85, 78, 84, 82, 89, 8, 8, 89, 13, 80, 69, 82, 70, 85, 77, 69, 13, 80, 73, 71, 77, 69, 78, 84, 13, 77, 85, 83, 84, 65, 82, 68, 13], "trial": 5, "time_elapsed": 928967, "type": "FREE_RECALL", "trial_index": 199}, "uniqueid": "MTK2511:3F0BG9B9MQUFVAHH25VM32OCRBE7YS", "dateTime": 1517945159277}, {"current_trial": 200, "trialdata": {"rt": 1500, "trial_type": "text", "internal_node_id": "0.0-146.0", "time_elapsed": 932470, "key_press": 32, "type": "INSTRUCTIONS", "trial_index": 200}, "uniqueid": "MTK2511:3F0BG9B9MQUFVAHH25VM32OCRBE7YS", "dateTime": 1517945162778}, {"current_trial": 201, "trialdata": {"rt": [3335, 5207, 6303, 7591, 9055, 12719, 14863, 17111, 20527, 22031], "trial_type": "math-distractor", "key_times": [2991, 3335, 4583, 4798, 5207, 6095, 6303, 7319, 7463, 7591, 8775, 9055, 12399, 12479, 12719, 14647, 14735, 14863, 16631, 16687, 17111, 19487, 19687, 19703, 20071, 20207, 20279, 20527, 21847, 21943, 22031, 23983], "responses": ["6", "18", "5", "11", "7", "21", "14", "15", "10", "21"], "num2": [3, 8, 3, 9, 1, 7, 4, 9, 3, 7, 9], "num3": [1, 1, 1, 1, 1, 5, 5, 3, 3, 7, 5], "conditions": [24, 1600, "a", 24000], "internal_node_id": "0.0-147.0", "key_presses": [54, 13, 49, 56, 13, 53, 13, 49, 49, 13, 55, 13, 50, 49, 13, 49, 52, 13, 49, 53, 13, 49, 57, 48, 8, 8, 48, 13, 50, 49, 13, 49], "trial": 6, "time_elapsed": 958472, "type": "DISTRACTOR", "trial_index": 201, "num1": [2, 9, 1, 1, 5, 9, 5, 3, 4, 7, 3]}, "uniqueid": "MTK2511:3F0BG9B9MQUFVAHH25VM32OCRBE7YS", "dateTime": 1517945188781}, {"current_trial": 202, "trialdata": {"rt": -1, "trial_type": "single-stim", "stimulus": "<p id=\"stim\">10</p>", "internal_node_id": "0.0-148.0-0.0", "time_elapsed": 961475, "key_press": -1, "trial_index": 202}, "uniqueid": "MTK2511:3F0BG9B9MQUFVAHH25VM32OCRBE7YS", "dateTime": 1517945191783}, {"current_trial": 203, "trialdata": {"rt": -1, "trial_type": "single-stim", "stimulus": "<p id=\"stim\">9</p>", "internal_node_id": "0.0-148.0-1.0", "time_elapsed": 962476, "key_press": -1, "trial_index": 203}, "uniqueid": "MTK2511:3F0BG9B9MQUFVAHH25VM32OCRBE7YS", "dateTime": 1517945192784}, {"current_trial": 204, "trialdata": {"rt": -1, "trial_type": "single-stim", "stimulus": "<p id=\"stim\">8</p>", "internal_node_id": "0.0-148.0-2.0", "time_elapsed": 963477, "key_press": -1, "trial_index": 204}, "uniqueid": "MTK2511:3F0BG9B9MQUFVAHH25VM32OCRBE7YS", "dateTime": 1517945193785}, {"current_trial": 205, "trialdata": {"rt": -1, "trial_type": "single-stim", "stimulus": "<p id=\"stim\">7</p>", "internal_node_id": "0.0-148.0-3.0", "time_elapsed": 964478, "key_press": -1, "trial_index": 205}, "uniqueid": "MTK2511:3F0BG9B9MQUFVAHH25VM32OCRBE7YS", "dateTime": 1517945194786}, {"current_trial": 206, "trialdata": {"rt": -1, "trial_type": "single-stim", "stimulus": "<p id=\"stim\">6</p>", "internal_node_id": "0.0-148.0-4.0", "time_elapsed": 965479, "key_press": -1, "trial_index": 206}, "uniqueid": "MTK2511:3F0BG9B9MQUFVAHH25VM32OCRBE7YS", "dateTime": 1517945195787}, {"current_trial": 207, "trialdata": {"rt": -1, "trial_type": "single-stim", "stimulus": "<p id=\"stim\">5</p>", "internal_node_id": "0.0-148.0-5.0", "time_elapsed": 966480, "key_press": -1, "trial_index": 207}, "uniqueid": "MTK2511:3F0BG9B9MQUFVAHH25VM32OCRBE7YS", "dateTime": 1517945196788}, {"current_trial": 208, "trialdata": {"rt": -1, "trial_type": "single-stim", "stimulus": "<p id=\"stim\">4</p>", "internal_node_id": "0.0-148.0-6.0", "time_elapsed": 967481, "key_press": -1, "trial_index": 208}, "uniqueid": "MTK2511:3F0BG9B9MQUFVAHH25VM32OCRBE7YS", "dateTime": 1517945197789}, {"current_trial": 209, "trialdata": {"rt": -1, "trial_type": "single-stim", "stimulus": "<p id=\"stim\">3</p>", "internal_node_id": "0.0-148.0-7.0", "time_elapsed": 968482, "key_press": -1, "trial_index": 209}, "uniqueid": "MTK2511:3F0BG9B9MQUFVAHH25VM32OCRBE7YS", "dateTime": 1517945198790}, {"current_trial": 210, "trialdata": {"rt": -1, "trial_type": "single-stim", "stimulus": "<p id=\"stim\">2</p>", "internal_node_id": "0.0-148.0-8.0", "time_elapsed": 969483, "key_press": -1, "trial_index": 210}, "uniqueid": "MTK2511:3F0BG9B9MQUFVAHH25VM32OCRBE7YS", "dateTime": 1517945199791}, {"current_trial": 211, "trialdata": {"rt": -1, "trial_type": "single-stim", "stimulus": "<p id=\"stim\">1</p>", "internal_node_id": "0.0-148.0-9.0", "time_elapsed": 970484, "key_press": -1, "trial_index": 211}, "uniqueid": "MTK2511:3F0BG9B9MQUFVAHH25VM32OCRBE7YS", "dateTime": 1517945200792}, {"current_trial": 212, "trialdata": {"rt": -1, "trial_type": "single-stim", "stimulus": "<p id=\"stim\">+</p>", "internal_node_id": "0.0-149.0-0.0", "time_elapsed": 971985, "key_press": -1, "type": "FIXATION", "trial_index": 212}, "uniqueid": "MTK2511:3F0BG9B9MQUFVAHH25VM32OCRBE7YS", "dateTime": 1517945202293}, {"current_trial": 213, "trialdata": {"rt": -1000, "trial_type": "single-audio", "word": "transplant", "stimulus": "/static/audio/wordpool/TRANSPLANT.wav", "conditions": [24, 1600, "a", 24000], "internal_node_id": "0.0-150.0", "trial": 6, "time_elapsed": 974435, "serialpos": 0, "key_press": -1, "wordID": 1495, "type": "PRES_AUD", "trial_index": 213}, "uniqueid": "MTK2511:3F0BG9B9MQUFVAHH25VM32OCRBE7YS", "dateTime": 1517945204743}, {"current_trial": 214, "trialdata": {"rt": -1000, "trial_type": "single-audio", "word": "sketch", "stimulus": "/static/audio/wordpool/SKETCH.wav", "conditions": [24, 1600, "a", 24000], "internal_node_id": "0.0-151.0", "trial": 6, "time_elapsed": 976939, "serialpos": 1, "key_press": -1, "wordID": 1314, "type": "PRES_AUD", "trial_index": 214}, "uniqueid": "MTK2511:3F0BG9B9MQUFVAHH25VM32OCRBE7YS", "dateTime": 1517945207247}, {"current_trial": 215, "trialdata": {"rt": -1000, "trial_type": "single-audio", "word": "plaid", "stimulus": "/static/audio/wordpool/PLAID.wav", "conditions": [24, 1600, "a", 24000], "internal_node_id": "0.0-152.0", "trial": 6, "time_elapsed": 979513, "serialpos": 2, "key_press": -1, "wordID": 1079, "type": "PRES_AUD", "trial_index": 215}, "uniqueid": "MTK2511:3F0BG9B9MQUFVAHH25VM32OCRBE7YS", "dateTime": 1517945209821}, {"current_trial": 216, "trialdata": {"rt": -1000, "trial_type": "single-audio", "word": "denim", "stimulus": "/static/audio/wordpool/DENIM.wav", "conditions": [24, 1600, "a", 24000], "internal_node_id": "0.0-153.0", "trial": 6, "time_elapsed": 982279, "serialpos": 3, "key_press": -1, "wordID": 445, "type": "PRES_AUD", "trial_index": 216}, "uniqueid": "MTK2511:3F0BG9B9MQUFVAHH25VM32OCRBE7YS", "dateTime": 1517945212587}, {"current_trial": 217, "trialdata": {"rt": -1000, "trial_type": "single-audio", "word": "film", "stimulus": "/static/audio/wordpool/FILM.wav", "conditions": [24, 1600, "a", 24000], "internal_node_id": "0.0-154.0", "trial": 6, "time_elapsed": 985070, "serialpos": 4, "key_press": -1, "wordID": 564, "type": "PRES_AUD", "trial_index": 217}, "uniqueid": "MTK2511:3F0BG9B9MQUFVAHH25VM32OCRBE7YS", "dateTime": 1517945215378}, {"current_trial": 218, "trialdata": {"rt": -1000, "trial_type": "single-audio", "word": "kidney", "stimulus": "/static/audio/wordpool/KIDNEY.wav", "conditions": [24, 1600, "a", 24000], "internal_node_id": "0.0-155.0", "trial": 6, "time_elapsed": 987635, "serialpos": 5, "key_press": -1, "wordID": 775, "type": "PRES_AUD", "trial_index": 218}, "uniqueid": "MTK2511:3F0BG9B9MQUFVAHH25VM32OCRBE7YS", "dateTime": 1517945217943}, {"current_trial": 219, "trialdata": {"rt": -1000, "trial_type": "single-audio", "word": "ground", "stimulus": "/static/audio/wordpool/GROUND.wav", "conditions": [24, 1600, "a", 24000], "internal_node_id": "0.0-156.0", "trial": 6, "time_elapsed": 990258, "serialpos": 6, "key_press": -1, "wordID": 665, "type": "PRES_AUD", "trial_index": 219}, "uniqueid": "MTK2511:3F0BG9B9MQUFVAHH25VM32OCRBE7YS", "dateTime": 1517945220566}, {"current_trial": 220, "trialdata": {"rt": -1000, "trial_type": "single-audio", "word": "monster", "stimulus": "/static/audio/wordpool/MONSTER.wav", "conditions": [24, 1600, "a", 24000], "internal_node_id": "0.0-157.0", "trial": 6, "time_elapsed": 992967, "serialpos": 7, "key_press": -1, "wordID": 911, "type": "PRES_AUD", "trial_index": 220}, "uniqueid": "MTK2511:3F0BG9B9MQUFVAHH25VM32OCRBE7YS", "dateTime": 1517945223275}, {"current_trial": 221, "trialdata": {"rt": -1000, "trial_type": "single-audio", "word": "marker", "stimulus": "/static/audio/wordpool/MARKER.wav", "conditions": [24, 1600, "a", 24000], "internal_node_id": "0.0-158.0", "trial": 6, "time_elapsed": 995651, "serialpos": 8, "key_press": -1, "wordID": 869, "type": "PRES_AUD", "trial_index": 221}, "uniqueid": "MTK2511:3F0BG9B9MQUFVAHH25VM32OCRBE7YS", "dateTime": 1517945225959}, {"current_trial": 222, "trialdata": {"rt": -1000, "trial_type": "single-audio", "word": "comet", "stimulus": "/static/audio/wordpool/COMET.wav", "conditions": [24, 1600, "a", 24000], "internal_node_id": "0.0-159.0", "trial": 6, "time_elapsed": 998295, "serialpos": 9, "key_press": -1, "wordID": 352, "type": "PRES_AUD", "trial_index": 222}, "uniqueid": "MTK2511:3F0BG9B9MQUFVAHH25VM32OCRBE7YS", "dateTime": 1517945228603}, {"current_trial": 223, "trialdata": {"rt": -1000, "trial_type": "single-audio", "word": "marsh", "stimulus": "/static/audio/wordpool/MARSH.wav", "conditions": [24, 1600, "a", 24000], "internal_node_id": "0.0-160.0", "trial": 6, "time_elapsed": 1000724, "serialpos": 10, "key_press": -1, "wordID": 873, "type": "PRES_AUD", "trial_index": 223}, "uniqueid": "MTK2511:3F0BG9B9MQUFVAHH25VM32OCRBE7YS", "dateTime": 1517945231032}, {"current_trial": 224, "trialdata": {"rt": -1000, "trial_type": "single-audio", "word": "sister", "stimulus": "/static/audio/wordpool/SISTER.wav", "conditions": [24, 1600, "a", 24000], "internal_node_id": "0.0-161.0", "trial": 6, "time_elapsed": 1003316, "serialpos": 11, "key_press": -1, "wordID": 1311, "type": "PRES_AUD", "trial_index": 224}, "uniqueid": "MTK2511:3F0BG9B9MQUFVAHH25VM32OCRBE7YS", "dateTime": 1517945233624}, {"current_trial": 225, "trialdata": {"rt": -1000, "trial_type": "single-audio", "word": "costume", "stimulus": "/static/audio/wordpool/COSTUME.wav", "conditions": [24, 1600, "a", 24000], "internal_node_id": "0.0-162.0", "trial": 6, "time_elapsed": 1006099, "serialpos": 12, "key_press": -1, "wordID": 382, "type": "PRES_AUD", "trial_index": 225}, "uniqueid": "MTK2511:3F0BG9B9MQUFVAHH25VM32OCRBE7YS", "dateTime": 1517945236407}, {"current_trial": 226, "trialdata": {"rt": -1000, "trial_type": "single-audio", "word": "scissors", "stimulus": "/static/audio/wordpool/SCISSORS.wav", "conditions": [24, 1600, "a", 24000], "internal_node_id": "0.0-163.0", "trial": 6, "time_elapsed": 1008872, "serialpos": 13, "key_press": -1, "wordID": 1249, "type": "PRES_AUD", "trial_index": 226}, "uniqueid": "MTK2511:3F0BG9B9MQUFVAHH25VM32OCRBE7YS", "dateTime": 1517945239180}, {"current_trial": 227, "trialdata": {"rt": -1000, "trial_type": "single-audio", "word": "braces", "stimulus": "/static/audio/wordpool/BRACES.wav", "conditions": [24, 1600, "a", 24000], "internal_node_id": "0.0-164.0", "trial": 6, "time_elapsed": 1011345, "serialpos": 14, "key_press": -1, "wordID": 163, "type": "PRES_AUD", "trial_index": 227}, "uniqueid": "MTK2511:3F0BG9B9MQUFVAHH25VM32OCRBE7YS", "dateTime": 1517945241653}, {"current_trial": 228, "trialdata": {"rt": -1000, "trial_type": "single-audio", "word": "france", "stimulus": "/static/audio/wordpool/FRANCE.wav", "conditions": [24, 1600, "a", 24000], "internal_node_id": "0.0-165.0", "trial": 6, "time_elapsed": 1013749, "serialpos": 15, "key_press": -1, "wordID": 600, "type": "PRES_AUD", "trial_index": 228}, "uniqueid": "MTK2511:3F0BG9B9MQUFVAHH25VM32OCRBE7YS", "dateTime": 1517945244057}, {"current_trial": 229, "trialdata": {"rt": -1000, "trial_type": "single-audio", "word": "japan", "stimulus": "/static/audio/wordpool/JAPAN.wav", "conditions": [24, 1600, "a", 24000], "internal_node_id": "0.0-166.0", "trial": 6, "time_elapsed": 1016221, "serialpos": 16, "key_press": -1, "wordID": 748, "type": "PRES_AUD", "trial_index": 229}, "uniqueid": "MTK2511:3F0BG9B9MQUFVAHH25VM32OCRBE7YS", "dateTime": 1517945246529}, {"current_trial": 230, "trialdata": {"rt": -1000, "trial_type": "single-audio", "word": "pepper", "stimulus": "/static/audio/wordpool/PEPPER.wav", "conditions": [24, 1600, "a", 24000], "internal_node_id": "0.0-167.0", "trial": 6, "time_elapsed": 1018826, "serialpos": 17, "key_press": -1, "wordID": 1046, "type": "PRES_AUD", "trial_index": 230}, "uniqueid": "MTK2511:3F0BG9B9MQUFVAHH25VM32OCRBE7YS", "dateTime": 1517945249134}, {"current_trial": 231, "trialdata": {"rt": -1000, "trial_type": "single-audio", "word": "lodge", "stimulus": "/static/audio/wordpool/LODGE.wav", "conditions": [24, 1600, "a", 24000], "internal_node_id": "0.0-168.0", "trial": 6, "time_elapsed": 1021612, "serialpos": 18, "key_press": -1, "wordID": 838, "type": "PRES_AUD", "trial_index": 231}, "uniqueid": "MTK2511:3F0BG9B9MQUFVAHH25VM32OCRBE7YS", "dateTime": 1517945251920}, {"current_trial": 232, "trialdata": {"rt": -1000, "trial_type": "single-audio", "word": "lake", "stimulus": "/static/audio/wordpool/LAKE.wav", "conditions": [24, 1600, "a", 24000], "internal_node_id": "0.0-169.0", "trial": 6, "time_elapsed": 1024078, "serialpos": 19, "key_press": -1, "wordID": 795, "type": "PRES_AUD", "trial_index": 232}, "uniqueid": "MTK2511:3F0BG9B9MQUFVAHH25VM32OCRBE7YS", "dateTime": 1517945254386}, {"current_trial": 233, "trialdata": {"rt": -1000, "trial_type": "single-audio", "word": "ketchup", "stimulus": "/static/audio/wordpool/KETCHUP.wav", "conditions": [24, 1600, "a", 24000], "internal_node_id": "0.0-170.0", "trial": 6, "time_elapsed": 1026730, "serialpos": 20, "key_press": -1, "wordID": 770, "type": "PRES_AUD", "trial_index": 233}, "uniqueid": "MTK2511:3F0BG9B9MQUFVAHH25VM32OCRBE7YS", "dateTime": 1517945257038}, {"current_trial": 234, "trialdata": {"rt": -1000, "trial_type": "single-audio", "word": "keeper", "stimulus": "/static/audio/wordpool/KEEPER.wav", "conditions": [24, 1600, "a", 24000], "internal_node_id": "0.0-171.0", "trial": 6, "time_elapsed": 1029275, "serialpos": 21, "key_press": -1, "wordID": 768, "type": "PRES_AUD", "trial_index": 234}, "uniqueid": "MTK2511:3F0BG9B9MQUFVAHH25VM32OCRBE7YS", "dateTime": 1517945259583}, {"current_trial": 235, "trialdata": {"rt": -1000, "trial_type": "single-audio", "word": "cocktail", "stimulus": "/static/audio/wordpool/COCKTAIL.wav", "conditions": [24, 1600, "a", 24000], "internal_node_id": "0.0-172.0", "trial": 6, "time_elapsed": 1031736, "serialpos": 22, "key_press": -1, "wordID": 337, "type": "PRES_AUD", "trial_index": 235}, "uniqueid": "MTK2511:3F0BG9B9MQUFVAHH25VM32OCRBE7YS", "dateTime": 1517945262044}, {"current_trial": 236, "trialdata": {"rt": -1000, "trial_type": "single-audio", "word": "tutu", "stimulus": "/static/audio/wordpool/TUTU.wav", "conditions": [24, 1600, "a", 24000], "internal_node_id": "0.0-173.0", "trial": 6, "time_elapsed": 1034151, "serialpos": 23, "key_press": -1, "wordID": 1523, "type": "PRES_AUD", "trial_index": 236}, "uniqueid": "MTK2511:3F0BG9B9MQUFVAHH25VM32OCRBE7YS", "dateTime": 1517945264459}, {"current_trial": 237, "trialdata": {"rt": -1, "trial_type": "single-stim", "stimulus": "", "internal_node_id": "0.0-174.0-0.0", "time_elapsed": 1035505, "key_press": -1, "type": "PRE_RECALL_DELAY", "trial_index": 237}, "uniqueid": "MTK2511:3F0BG9B9MQUFVAHH25VM32OCRBE7YS", "dateTime": 1517945265813}, {"current_trial": 238, "trialdata": {"rt": -1000, "trial_type": "single-audio", "stimulus": "/static/audio/400Hz.wav", "internal_node_id": "0.0-175.0", "time_elapsed": 1036011, "key_press": -1, "type": "PRE_RECALL_ALERT", "trial_index": 238}, "uniqueid": "MTK2511:3F0BG9B9MQUFVAHH25VM32OCRBE7YS", "dateTime": 1517945266319}, {"current_trial": 239, "trialdata": {"rt": [1131, 2667, 3539, 4475, 5483, 9307, 11619, 14307, 16131, 17755, 18835, 23307, 25155, 30140, 40339], "recwords": ["tutu", "cocktail", "france", "japan", "pepper", "ketchup", "lodge", "lake", "transplant", "plaid", "braces", "ground", "monster", "scissors", "film"], "key_times": [307, 427, 587, 683, 1131, 1323, 1411, 1539, 1627, 2131, 2219, 2379, 2427, 2667, 2859, 3043, 3107, 3227, 3355, 3419, 3539, 3739, 3843, 3971, 4163, 4275, 4475, 4691, 4915, 5011, 5155, 5259, 5331, 5483, 7467, 7579, 7723, 7971, 8067, 8523, 8595, 9307, 9963, 10067, 10227, 11019, 11115, 11331, 11411, 11619, 11955, 12131, 12251, 12371, 14307, 14883, 14915, 15115, 15251, 15323, 15499, 15571, 15675, 15835, 15939, 16131, 16403, 16459, 16571, 16747, 16819, 17211, 17355, 17515, 17635, 17755, 17955, 18035, 18123, 18371, 18467, 18515, 18835, 22115, 22315, 22459, 22531, 22603, 22691, 23307, 23627, 23747, 23859, 23987, 24163, 24251, 24363, 25155, 28835, 29067, 29203, 29403, 29539, 29659, 29795, 29867, 30140, 39667, 39795, 39859, 40019, 40339], "trial_type": "free-recall", "conditions": [24, 1600, "a", 24000], "internal_node_id": "0.0-176.0-0.0", "key_presses": [84, 85, 84, 85, 13, 67, 79, 67, 75, 84, 65, 73, 76, 13, 70, 82, 65, 78, 67, 69, 13, 74, 65, 80, 65, 78, 13, 80, 69, 80, 80, 69, 82, 13, 75, 69, 84, 67, 72, 85, 80, 13, 76, 79, 71, 8, 68, 71, 69, 13, 76, 65, 75, 69, 13, 84, 82, 65, 78, 83, 80, 76, 65, 78, 84, 13, 80, 76, 65, 85, 68, 8, 8, 73, 68, 13, 66, 82, 65, 67, 69, 83, 13, 71, 82, 79, 85, 78, 68, 13, 77, 79, 78, 83, 84, 69, 82, 13, 83, 67, 73, 83, 83, 79, 82, 83, 13, 70, 73, 76, 77, 13], "trial": 6, "time_elapsed": 1096013, "type": "FREE_RECALL", "trial_index": 239}, "uniqueid": "MTK2511:3F0BG9B9MQUFVAHH25VM32OCRBE7YS", "dateTime": 1517945326322}, {"current_trial": 240, "trialdata": {"rt": 1272, "trial_type": "text", "internal_node_id": "0.0-177.0", "time_elapsed": 1099286, "key_press": 32, "type": "INSTRUCTIONS", "trial_index": 240}, "uniqueid": "MTK2511:3F0BG9B9MQUFVAHH25VM32OCRBE7YS", "dateTime": 1517945329595}, {"current_trial": 241, "trialdata": {"rt": [1742, 3814, 4870, 6590, 9158, 13998, 16598, 20030, 22334], "trial_type": "math-distractor", "key_times": [1438, 1550, 1742, 3078, 3190, 3814, 4702, 4870, 6166, 6326, 6590, 8222, 8742, 9158, 13086, 13550, 13998, 15510, 15846, 16374, 16454, 16598, 19694, 19814, 20030, 22030, 22198, 22334], "responses": ["14", "13", "3", "11", "19", "21", "16", "15", "11"], "num2": [9, 1, 1, 3, 4, 9, 6, 3, 3, 8], "num3": [1, 8, 1, 1, 8, 8, 8, 9, 3, 1], "conditions": [12, 800, "a", 24000], "internal_node_id": "0.0-178.0", "key_presses": [49, 52, 13, 49, 51, 13, 51, 13, 49, 49, 13, 49, 57, 13, 50, 49, 13, 49, 55, 8, 54, 13, 49, 53, 13, 49, 49, 13], "trial": 7, "time_elapsed": 1125290, "type": "DISTRACTOR", "trial_index": 241, "num1": [4, 4, 1, 7, 7, 4, 2, 3, 5, 6]}, "uniqueid": "MTK2511:3F0BG9B9MQUFVAHH25VM32OCRBE7YS", "dateTime": 1517945355598}, {"current_trial": 242, "trialdata": {"rt": -1, "trial_type": "single-stim", "stimulus": "<p id=\"stim\">10</p>", "internal_node_id": "0.0-179.0-0.0", "time_elapsed": 1128292, "key_press": -1, "trial_index": 24