{"assignmentId": "3Y54SXRO1MSLCZUJ571Y5DAHMR0TUE", "workerId": "MTK2825", "questiondata": {"origin": "United States", "strat-rehearsal": "75", "marital": "Single", "education": "Bachelor's degree", "ethnicity": "Not Hispanic", "color_depth": 24, "distracted": "No", "wrote-notes": "No", "strat-other": "words that were very similar I group together like transplant, patient  so that was very easy to remember and I also memorized the first two to three words and the last two words so that I would at least remember five words from the list", "screen_width": 1920, "avail_screen_width": 1920, "avail_screen_height": 1040, "strat-image": "49", "language": "english", "gender": "Male", "age": "49", "gender_other": "", "race": [], "strat-categorize": "94", "pixel_depth": 24, "strat-spatial": "34", "strat-story": "74", "race_other": "mixed", "screen_height": 1080}, "bonus": 0, "hitId": "3EFNPKWBMSVYACMF2JCL99MSRR3031", "counterbalance": 667, "useragent": "Mozilla/5.0 (Windows NT 10.0; Win64; x64) AppleWebKit/537.36 (KHTML, like Gecko) Chrome/64.0.3282.186 Safari/537.36", "eventdata": [{"eventtype": "initialized", "interval": 0, "value": null, "timestamp": 1519407980163}, {"eventtype": "window_resize", "interval": 1, "value": [1920, 1033], "timestamp": 1519407980164}, {"eventtype": "focus", "interval": 56542, "value": "off", "timestamp": 1519408036706}, {"eventtype": "focus", "interval": 4305, "value": "on", "timestamp": 1519408041011}], "data": [{"current_trial": 0, "trialdata": {"rt": 2726, "trial_type": "text", "internal_node_id": "0.0-0.0", "time_elapsed": 2728, "key_press": 74, "type": "INSTRUCTIONS", "trial_index": 0}, "uniqueid": "MTK2825:3Y54SXRO1MSLCZUJ571Y5DAHMR0TUE", "dateTime": 1519407994051}, {"current_trial": 1, "trialdata": {"rt": 49228, "trial_type": "text", "internal_node_id": "0.0-1.0", "time_elapsed": 51959, "key_press": 71, "type": "INSTRUCTIONS", "trial_index": 1}, "uniqueid": "MTK2825:3Y54SXRO1MSLCZUJ571Y5DAHMR0TUE", "dateTime": 1519408043281}, {"current_trial": 2, "trialdata": {"rt": [22182], "trial_type": "audio-test", "responses": ["ocean"], "internal_node_id": "0.0-2.0", "time_elapsed": 74153, "type": "AUDIO_TEST", "trial_index": 2}, "uniqueid": "MTK2825:3Y54SXRO1MSLCZUJ571Y5DAHMR0TUE", "dateTime": 1519408065474}, {"current_trial": 3, "trialdata": {"rt": [14313], "trial_type": "audio-test", "responses": ["crystal"], "internal_node_id": "0.0-3.0", "time_elapsed": 88471, "type": "AUDIO_TEST", "trial_index": 3}, "uniqueid": "MTK2825:3Y54SXRO1MSLCZUJ571Y5DAHMR0TUE", "dateTime": 1519408079792}, {"current_trial": 4, "trialdata": {"rt": [6890], "trial_type": "audio-test", "responses": ["spice"], "internal_node_id": "0.0-4.0", "time_elapsed": 95367, "type": "AUDIO_TEST", "trial_index": 4}, "uniqueid": "MTK2825:3Y54SXRO1MSLCZUJ571Y5DAHMR0TUE", "dateTime": 1519408086688}, {"current_trial": 5, "trialdata": {"rt": 39204, "trial_type": "survey-text", "responses": "{\"Q0\":\"12:30am\",\"Q1\":\"6:30am\",\"Q2\":\"5\"}", "internal_node_id": "0.0-5.0", "time_elapsed": 135326, "type": "SLEEP_SURVEY", "trial_index": 5}, "uniqueid": "MTK2825:3Y54SXRO1MSLCZUJ571Y5DAHMR0TUE", "dateTime": 1519408126647}, {"current_trial": 6, "trialdata": {"rt": 63687, "trial_type": "text", "internal_node_id": "0.0-6.0", "time_elapsed": 200015, "key_press": 32, "type": "INSTRUCTIONS", "trial_index": 6}, "uniqueid": "MTK2825:3Y54SXRO1MSLCZUJ571Y5DAHMR0TUE", "dateTime": 1519408191336}, {"current_trial": 7, "trialdata": {"rt": 27642, "trial_type": "text", "internal_node_id": "0.0-7.0", "time_elapsed": 228159, "key_press": 66, "type": "INSTRUCTIONS", "trial_index": 7}, "uniqueid": "MTK2825:3Y54SXRO1MSLCZUJ571Y5DAHMR0TUE", "dateTime": 1519408219480}, {"current_trial": 8, "trialdata": {"rt": 17538, "trial_type": "text", "internal_node_id": "0.0-8.0", "time_elapsed": 246199, "key_press": 66, "type": "INSTRUCTIONS", "trial_index": 8}, "uniqueid": "MTK2825:3Y54SXRO1MSLCZUJ571Y5DAHMR0TUE", "dateTime": 1519408237520}, {"current_trial": 9, "trialdata": {"rt": [5816, 7897, 12440, 14417, 16304], "trial_type": "math-distractor", "key_times": [3521, 5816, 7401, 7897, 9513, 11129, 11752, 12440, 13873, 14065, 14417, 15609, 15825, 16304], "responses": ["9", "6", "6", "11", "13"], "num2": [4, 2, 3, 9, 5, 2], "num3": [3, 3, 1, 1, 3, 5], "conditions": [18, 1200, "a", 18000], "internal_node_id": "0.0-9.0", "key_presses": [105, 13, 102, 13, 101, 8, 102, 13, 97, 97, 13, 97, 99, 13], "trial": 0, "time_elapsed": 265207, "type": "DISTRACTOR", "trial_index": 9, "num1": [2, 1, 2, 1, 5, 3]}, "uniqueid": "MTK2825:3Y54SXRO1MSLCZUJ571Y5DAHMR0TUE", "dateTime": 1519408256528}, {"current_trial": 10, "trialdata": {"rt": -1, "trial_type": "single-stim", "stimulus": "<p id=\"stim\">10</p>", "internal_node_id": "0.0-10.0-0.0", "time_elapsed": 268212, "key_press": -1, "trial_index": 10}, "uniqueid": "MTK2825:3Y54SXRO1MSLCZUJ571Y5DAHMR0TUE", "dateTime": 1519408259533}, {"current_trial": 11, "trialdata": {"rt": -1, "trial_type": "single-stim", "stimulus": "<p id=\"stim\">9</p>", "internal_node_id": "0.0-10.0-1.0", "time_elapsed": 269214, "key_press": -1, "trial_index": 11}, "uniqueid": "MTK2825:3Y54SXRO1MSLCZUJ571Y5DAHMR0TUE", "dateTime": 1519408260536}, {"current_trial": 12, "trialdata": {"rt": -1, "trial_type": "single-stim", "stimulus": "<p id=\"stim\">8</p>", "internal_node_id": "0.0-10.0-2.0", "time_elapsed": 270217, "key_press": -1, "trial_index": 12}, "uniqueid": "MTK2825:3Y54SXRO1MSLCZUJ571Y5DAHMR0TUE", "dateTime": 1519408261538}, {"current_trial": 13, "trialdata": {"rt": -1, "trial_type": "single-stim", "stimulus": "<p id=\"stim\">7</p>", "internal_node_id": "0.0-10.0-3.0", "time_elapsed": 271218, "key_press": -1, "trial_index": 13}, "uniqueid": "MTK2825:3Y54SXRO1MSLCZUJ571Y5DAHMR0TUE", "dateTime": 1519408262540}, {"current_trial": 14, "trialdata": {"rt": -1, "trial_type": "single-stim", "stimulus": "<p id=\"stim\">6</p>", "internal_node_id": "0.0-10.0-4.0", "time_elapsed": 272221, "key_press": -1, "trial_index": 14}, "uniqueid": "MTK2825:3Y54SXRO1MSLCZUJ571Y5DAHMR0TUE", "dateTime": 1519408263542}, {"current_trial": 15, "trialdata": {"rt": -1, "trial_type": "single-stim", "stimulus": "<p id=\"stim\">5</p>", "internal_node_id": "0.0-10.0-5.0", "time_elapsed": 273224, "key_press": -1, "trial_index": 15}, "uniqueid": "MTK2825:3Y54SXRO1MSLCZUJ571Y5DAHMR0TUE", "dateTime": 1519408264545}, {"current_trial": 16, "trialdata": {"rt": -1, "trial_type": "single-stim", "stimulus": "<p id=\"stim\">4</p>", "internal_node_id": "0.0-10.0-6.0", "time_elapsed": 274225, "key_press": -1, "trial_index": 16}, "uniqueid": "MTK2825:3Y54SXRO1MSLCZUJ571Y5DAHMR0TUE", "dateTime": 1519408265546}, {"current_trial": 17, "trialdata": {"rt": -1, "trial_type": "single-stim", "stimulus": "<p id=\"stim\">3</p>", "internal_node_id": "0.0-10.0-7.0", "time_elapsed": 275227, "key_press": -1, "trial_index": 17}, "uniqueid": "MTK2825:3Y54SXRO1MSLCZUJ571Y5DAHMR0TUE", "dateTime": 1519408266548}, {"current_trial": 18, "trialdata": {"rt": -1, "trial_type": "single-stim", "stimulus": "<p id=\"stim\">2</p>", "internal_node_id": "0.0-10.0-8.0", "time_elapsed": 276229, "key_press": -1, "trial_index": 18}, "uniqueid": "MTK2825:3Y54SXRO1MSLCZUJ571Y5DAHMR0TUE", "dateTime": 1519408267550}, {"current_trial": 19, "trialdata": {"rt": -1, "trial_type": "single-stim", "stimulus": "<p id=\"stim\">1</p>", "internal_node_id": "0.0-10.0-9.0", "time_elapsed": 277231, "key_press": -1, "trial_index": 19}, "uniqueid": "MTK2825:3Y54SXRO1MSLCZUJ571Y5DAHMR0TUE", "dateTime": 1519408268552}, {"current_trial": 20, "trialdata": {"rt": -1, "trial_type": "single-stim", "stimulus": "<p id=\"stim\">+</p>", "internal_node_id": "0.0-11.0-0.0", "time_elapsed": 278734, "key_press": -1, "type": "FIXATION", "trial_index": 20}, "uniqueid": "MTK2825:3Y54SXRO1MSLCZUJ571Y5DAHMR0TUE", "dateTime": 1519408270055}, {"current_trial": 21, "trialdata": {"rt": -1000, "trial_type": "single-audio", "word": "bureau", "stimulus": "/static/audio/wordpool/BUREAU.wav", "conditions": [18, 1200, "a", 18000], "internal_node_id": "0.0-12.0", "trial": 0, "time_elapsed": 281074, "serialpos": 0, "key_press": -1, "wordID": 198, "type": "PRES_AUD", "trial_index": 21}, "uniqueid": "MTK2825:3Y54SXRO1MSLCZUJ571Y5DAHMR0TUE", "dateTime": 1519408272395}, {"current_trial": 22, "trialdata": {"rt": -1000, "trial_type": "single-audio", "word": "sunrise", "stimulus": "/static/audio/wordpool/SUNRISE.wav", "conditions": [18, 1200, "a", 18000], "internal_node_id": "0.0-13.0", "trial": 0, "time_elapsed": 283373, "serialpos": 1, "key_press": -1, "wordID": 1406, "type": "PRES_AUD", "trial_index": 22}, "uniqueid": "MTK2825:3Y54SXRO1MSLCZUJ571Y5DAHMR0TUE", "dateTime": 1519408274694}, {"current_trial": 23, "trialdata": {"rt": -1000, "trial_type": "single-audio", "word": "blueprint", "stimulus": "/static/audio/wordpool/BLUEPRINT.wav", "conditions": [18, 1200, "a", 18000], "internal_node_id": "0.0-14.0", "trial": 0, "time_elapsed": 285681, "serialpos": 2, "key_press": -1, "wordID": 141, "type": "PRES_AUD", "trial_index": 23}, "uniqueid": "MTK2825:3Y54SXRO1MSLCZUJ571Y5DAHMR0TUE", "dateTime": 1519408277002}, {"current_trial": 24, "trialdata": {"rt": -1000, "trial_type": "single-audio", "word": "human", "stimulus": "/static/audio/wordpool/HUMAN.wav", "conditions": [18, 1200, "a", 18000], "internal_node_id": "0.0-15.0", "trial": 0, "time_elapsed": 287899, "serialpos": 3, "key_press": -1, "wordID": 725, "type": "PRES_AUD", "trial_index": 24}, "uniqueid": "MTK2825:3Y54SXRO1MSLCZUJ571Y5DAHMR0TUE", "dateTime": 1519408279220}, {"current_trial": 25, "trialdata": {"rt": -1000, "trial_type": "single-audio", "word": "arm", "stimulus": "/static/audio/wordpool/ARM.wav", "conditions": [18, 1200, "a", 18000], "internal_node_id": "0.0-16.0", "trial": 0, "time_elapsed": 290241, "serialpos": 4, "key_press": -1, "wordID": 37, "type": "PRES_AUD", "trial_index": 25}, "uniqueid": "MTK2825:3Y54SXRO1MSLCZUJ571Y5DAHMR0TUE", "dateTime": 1519408281562}, {"current_trial": 26, "trialdata": {"rt": -1000, "trial_type": "single-audio", "word": "hatchet", "stimulus": "/static/audio/wordpool/HATCHET.wav", "conditions": [18, 1200, "a", 18000], "internal_node_id": "0.0-17.0", "trial": 0, "time_elapsed": 292614, "serialpos": 5, "key_press": -1, "wordID": 690, "type": "PRES_AUD", "trial_index": 26}, "uniqueid": "MTK2825:3Y54SXRO1MSLCZUJ571Y5DAHMR0TUE", "dateTime": 1519408283935}, {"current_trial": 27, "trialdata": {"rt": -1000, "trial_type": "single-audio", "word": "country", "stimulus": "/static/audio/wordpool/COUNTRY.wav", "conditions": [18, 1200, "a", 18000], "internal_node_id": "0.0-18.0", "trial": 0, "time_elapsed": 294997, "serialpos": 6, "key_press": -1, "wordID": 387, "type": "PRES_AUD", "trial_index": 27}, "uniqueid": "MTK2825:3Y54SXRO1MSLCZUJ571Y5DAHMR0TUE", "dateTime": 1519408286318}, {"current_trial": 28, "trialdata": {"rt": -1000, "trial_type": "single-audio", "word": "canal", "stimulus": "/static/audio/wordpool/CANAL.wav", "conditions": [18, 1200, "a", 18000], "internal_node_id": "0.0-19.0", "trial": 0, "time_elapsed": 297294, "serialpos": 7, "key_press": -1, "wordID": 225, "type": "PRES_AUD", "trial_index": 28}, "uniqueid": "MTK2825:3Y54SXRO1MSLCZUJ571Y5DAHMR0TUE", "dateTime": 1519408288616}, {"current_trial": 29, "trialdata": {"rt": -1000, "trial_type": "single-audio", "word": "teacher", "stimulus": "/static/audio/wordpool/TEACHER.wav", "conditions": [18, 1200, "a", 18000], "internal_node_id": "0.0-20.0", "trial": 0, "time_elapsed": 299619, "serialpos": 8, "key_press": -1, "wordID": 1439, "type": "PRES_AUD", "trial_index": 29}, "uniqueid": "MTK2825:3Y54SXRO1MSLCZUJ571Y5DAHMR0TUE", "dateTime": 1519408290940}, {"current_trial": 30, "trialdata": {"rt": -1000, "trial_type": "single-audio", "word": "grape", "stimulus": "/static/audio/wordpool/GRAPE.wav", "conditions": [18, 1200, "a", 18000], "internal_node_id": "0.0-21.0", "trial": 0, "time_elapsed": 301634, "serialpos": 9, "key_press": -1, "wordID": 653, "type": "PRES_AUD", "trial_index": 30}, "uniqueid": "MTK2825:3Y54SXRO1MSLCZUJ571Y5DAHMR0TUE", "dateTime": 1519408292956}, {"current_trial": 31, "trialdata": {"rt": -1000, "trial_type": "single-audio", "word": "shark", "stimulus": "/static/audio/wordpool/SHARK.wav", "conditions": [18, 1200, "a", 18000], "internal_node_id": "0.0-22.0", "trial": 0, "time_elapsed": 303715, "serialpos": 10, "key_press": -1, "wordID": 1274, "type": "PRES_AUD", "trial_index": 31}, "uniqueid": "MTK2825:3Y54SXRO1MSLCZUJ571Y5DAHMR0TUE", "dateTime": 1519408295036}, {"current_trial": 32, "trialdata": {"rt": -1000, "trial_type": "single-audio", "word": "money", "stimulus": "/static/audio/wordpool/MONEY.wav", "conditions": [18, 1200, "a", 18000], "internal_node_id": "0.0-23.0", "trial": 0, "time_elapsed": 306031, "serialpos": 11, "key_press": -1, "wordID": 907, "type": "PRES_AUD", "trial_index": 32}, "uniqueid": "MTK2825:3Y54SXRO1MSLCZUJ571Y5DAHMR0TUE", "dateTime": 1519408297352}, {"current_trial": 33, "trialdata": {"rt": -1000, "trial_type": "single-audio", "word": "scallop", "stimulus": "/static/audio/wordpool/SCALLOP.wav", "conditions": [18, 1200, "a", 18000], "internal_node_id": "0.0-24.0", "trial": 0, "time_elapsed": 308272, "serialpos": 12, "key_press": -1, "wordID": 1241, "type": "PRES_AUD", "trial_index": 33}, "uniqueid": "MTK2825:3Y54SXRO1MSLCZUJ571Y5DAHMR0TUE", "dateTime": 1519408299593}, {"current_trial": 34, "trialdata": {"rt": -1000, "trial_type": "single-audio", "word": "glass", "stimulus": "/static/audio/wordpool/GLASS.wav", "conditions": [18, 1200, "a", 18000], "internal_node_id": "0.0-25.0", "trial": 0, "time_elapsed": 310465, "serialpos": 13, "key_press": -1, "wordID": 638, "type": "PRES_AUD", "trial_index": 34}, "uniqueid": "MTK2825:3Y54SXRO1MSLCZUJ571Y5DAHMR0TUE", "dateTime": 1519408301786}, {"current_trial": 35, "trialdata": {"rt": -1000, "trial_type": "single-audio", "word": "iceberg", "stimulus": "/static/audio/wordpool/ICEBERG.wav", "conditions": [18, 1200, "a", 18000], "internal_node_id": "0.0-26.0", "trial": 0, "time_elapsed": 312730, "serialpos": 14, "key_press": -1, "wordID": 730, "type": "PRES_AUD", "trial_index": 35}, "uniqueid": "MTK2825:3Y54SXRO1MSLCZUJ571Y5DAHMR0TUE", "dateTime": 1519408304051}, {"current_trial": 36, "trialdata": {"rt": -1000, "trial_type": "single-audio", "word": "muffin", "stimulus": "/static/audio/wordpool/MUFFIN.wav", "conditions": [18, 1200, "a", 18000], "internal_node_id": "0.0-27.0", "trial": 0, "time_elapsed": 315046, "serialpos": 15, "key_press": -1, "wordID": 928, "type": "PRES_AUD", "trial_index": 36}, "uniqueid": "MTK2825:3Y54SXRO1MSLCZUJ571Y5DAHMR0TUE", "dateTime": 1519408306367}, {"current_trial": 37, "trialdata": {"rt": -1000, "trial_type": "single-audio", "word": "raft", "stimulus": "/static/audio/wordpool/RAFT.wav", "conditions": [18, 1200, "a", 18000], "internal_node_id": "0.0-28.0", "trial": 0, "time_elapsed": 317056, "serialpos": 16, "key_press": -1, "wordID": 1158, "type": "PRES_AUD", "trial_index": 37}, "uniqueid": "MTK2825:3Y54SXRO1MSLCZUJ571Y5DAHMR0TUE", "dateTime": 1519408308377}, {"current_trial": 38, "trialdata": {"rt": -1000, "trial_type": "single-audio", "word": "cashier", "stimulus": "/static/audio/wordpool/CASHIER.wav", "conditions": [18, 1200, "a", 18000], "internal_node_id": "0.0-29.0", "trial": 0, "time_elapsed": 319069, "serialpos": 17, "key_press": -1, "wordID": 253, "type": "PRES_AUD", "trial_index": 38}, "uniqueid": "MTK2825:3Y54SXRO1MSLCZUJ571Y5DAHMR0TUE", "dateTime": 1519408310390}, {"current_trial": 39, "trialdata": {"rt": -1, "trial_type": "single-stim", "stimulus": "", "internal_node_id": "0.0-30.0-0.0", "time_elapsed": 320370, "key_press": -1, "type": "PRE_RECALL_DELAY", "trial_index": 39}, "uniqueid": "MTK2825:3Y54SXRO1MSLCZUJ571Y5DAHMR0TUE", "dateTime": 1519408311692}, {"current_trial": 40, "trialdata": {"rt": -1000, "trial_type": "single-audio", "stimulus": "/static/audio/400Hz.wav", "internal_node_id": "0.0-31.0", "time_elapsed": 320876, "key_press": -1, "type": "PRE_RECALL_ALERT", "trial_index": 40}, "uniqueid": "MTK2825:3Y54SXRO1MSLCZUJ571Y5DAHMR0TUE", "dateTime": 1519408312198}, {"current_trial": 41, "trialdata": {"rt": [4198, 8542, 10695, 25110], "recwords": ["raft", "cashier", "money", "tree"], "key_times": [2312, 2567, 2743, 2999, 4198, 5359, 5646, 5831, 6734, 7143, 7359, 7503, 7639, 7854, 8542, 9223, 9399, 9591, 9759, 9959, 10695, 23599, 23855, 24127, 24319, 25110], "trial_type": "free-recall", "conditions": [18, 1200, "a", 18000], "internal_node_id": "0.0-32.0-0.0", "key_presses": [82, 65, 70, 84, 13, 67, 65, 72, 8, 83, 72, 73, 69, 82, 13, 77, 79, 78, 69, 89, 13, 84, 82, 69, 69, 13], "trial": 0, "time_elapsed": 380881, "type": "FREE_RECALL", "trial_index": 41}, "uniqueid": "MTK2825:3Y54SXRO1MSLCZUJ571Y5DAHMR0TUE", "dateTime": 1519408372206}, {"current_trial": 42, "trialdata": {"rt": 2502, "trial_type": "text", "internal_node_id": "0.0-33.0", "time_elapsed": 385391, "key_press": 66, "type": "INSTRUCTIONS", "trial_index": 42}, "uniqueid": "MTK2825:3Y54SXRO1MSLCZUJ571Y5DAHMR0TUE", "dateTime": 1519408376712}, {"current_trial": 43, "trialdata": {"rt": [3203, 6804, 8859, 12260, 14339], "trial_type": "math-distractor", "key_times": [2492, 2708, 3203, 4868, 5091, 6804, 8164, 8411, 8859, 11628, 11843, 12260, 13668, 13900, 14339], "responses": ["14", "16", "27", "22", "16"], "num2": [6, 6, 9, 9, 2, 6], "num3": [1, 6, 9, 8, 6, 7], "conditions": [18, 1200, "a", 18000], "internal_node_id": "0.0-34.0", "key_presses": [97, 100, 13, 97, 102, 13, 98, 103, 13, 98, 98, 13, 97, 102, 13], "trial": 1, "time_elapsed": 405396, "type": "DISTRACTOR", "trial_index": 43, "num1": [7, 4, 9, 5, 8, 5]}, "uniqueid": "MTK2825:3Y54SXRO1MSLCZUJ571Y5DAHMR0TUE", "dateTime": 1519408396718}, {"current_trial": 44, "trialdata": {"rt": -1, "trial_type": "single-stim", "stimulus": "<p id=\"stim\">10</p>", "internal_node_id": "0.0-35.0-0.0", "time_elapsed": 408398, "key_press": -1, "trial_index": 44}, "uniqueid": "MTK2825:3Y54SXRO1MSLCZUJ571Y5DAHMR0TUE", "dateTime": 1519408399719}, {"current_trial": 45, "trialdata": {"rt": -1, "trial_type": "single-stim", "stimulus": "<p id=\"stim\">9</p>", "internal_node_id": "0.0-35.0-1.0", "time_elapsed": 409399, "key_press": -1, "trial_index": 45}, "uniqueid": "MTK2825:3Y54SXRO1MSLCZUJ571Y5DAHMR0TUE", "dateTime": 1519408400721}, {"current_trial": 46, "trialdata": {"rt": -1, "trial_type": "single-stim", "stimulus": "<p id=\"stim\">8</p>", "internal_node_id": "0.0-35.0-2.0", "time_elapsed": 410401, "key_press": -1, "trial_index": 46}, "uniqueid": "MTK2825:3Y54SXRO1MSLCZUJ571Y5DAHMR0TUE", "dateTime": 1519408401722}, {"current_trial": 47, "trialdata": {"rt": -1, "trial_type": "single-stim", "stimulus": "<p id=\"stim\">7</p>", "internal_node_id": "0.0-35.0-3.0", "time_elapsed": 411403, "key_press": -1, "trial_index": 47}, "uniqueid": "MTK2825:3Y54SXRO1MSLCZUJ571Y5DAHMR0TUE", "dateTime": 1519408402724}, {"current_trial": 48, "trialdata": {"rt": -1, "trial_type": "single-stim", "stimulus": "<p id=\"stim\">6</p>", "internal_node_id": "0.0-35.0-4.0", "time_elapsed": 412406, "key_press": -1, "trial_index": 48}, "uniqueid": "MTK2825:3Y54SXRO1MSLCZUJ571Y5DAHMR0TUE", "dateTime": 1519408403728}, {"current_trial": 49, "trialdata": {"rt": -1, "trial_type": "single-stim", "stimulus": "<p id=\"stim\">5</p>", "internal_node_id": "0.0-35.0-5.0", "time_elapsed": 413408, "key_press": -1, "trial_index": 49}, "uniqueid": "MTK2825:3Y54SXRO1MSLCZUJ571Y5DAHMR0TUE", "dateTime": 1519408404729}, {"current_trial": 50, "trialdata": {"rt": -1, "trial_type": "single-stim", "stimulus": "<p id=\"stim\">4</p>", "internal_node_id": "0.0-35.0-6.0", "time_elapsed": 414409, "key_press": -1, "trial_index": 50}, "uniqueid": "MTK2825:3Y54SXRO1MSLCZUJ571Y5DAHMR0TUE", "dateTime": 1519408405730}, {"current_trial": 51, "trialdata": {"rt": -1, "trial_type": "single-stim", "stimulus": "<p id=\"stim\">3</p>", "internal_node_id": "0.0-35.0-7.0", "time_elapsed": 415411, "key_press": -1, "trial_index": 51}, "uniqueid": "MTK2825:3Y54SXRO1MSLCZUJ571Y5DAHMR0TUE", "dateTime": 1519408406732}, {"current_trial": 52, "trialdata": {"rt": -1, "trial_type": "single-stim", "stimulus": "<p id=\"stim\">2</p>", "internal_node_id": "0.0-35.0-8.0", "time_elapsed": 416413, "key_press": -1, "trial_index": 52}, "uniqueid": "MTK2825:3Y54SXRO1MSLCZUJ571Y5DAHMR0TUE", "dateTime": 1519408407734}, {"current_trial": 53, "trialdata": {"rt": -1, "trial_type": "single-stim", "stimulus": "<p id=\"stim\">1</p>", "internal_node_id": "0.0-35.0-9.0", "time_elapsed": 417415, "key_press": -1, "trial_index": 53}, "uniqueid": "MTK2825:3Y54SXRO1MSLCZUJ571Y5DAHMR0TUE", "dateTime": 1519408408736}, {"current_trial": 54, "trialdata": {"rt": -1, "trial_type": "single-stim", "stimulus": "<p id=\"stim\">+</p>", "internal_node_id": "0.0-36.0-0.0", "time_elapsed": 418916, "key_press": -1, "type": "FIXATION", "trial_index": 54}, "uniqueid": "MTK2825:3Y54SXRO1MSLCZUJ571Y5DAHMR0TUE", "dateTime": 1519408410238}, {"current_trial": 55, "trialdata": {"rt": -1000, "trial_type": "single-audio", "word": "mars", "stimulus": "/static/audio/wordpool/MARS.wav", "conditions": [18, 1200, "a", 18000], "internal_node_id": "0.0-37.0", "trial": 1, "time_elapsed": 421076, "serialpos": 0, "key_press": -1, "wordID": 872, "type": "PRES_AUD", "trial_index": 55}, "uniqueid": "MTK2825:3Y54SXRO1MSLCZUJ571Y5DAHMR0TUE", "dateTime": 1519408412397}, {"current_trial": 56, "trialdata": {"rt": -1000, "trial_type": "single-audio", "word": "shirt", "stimulus": "/static/audio/wordpool/SHIRT.wav", "conditions": [18, 1200, "a", 18000], "internal_node_id": "0.0-38.0", "trial": 1, "time_elapsed": 423132, "serialpos": 1, "key_press": -1, "wordID": 1286, "type": "PRES_AUD", "trial_index": 56}, "uniqueid": "MTK2825:3Y54SXRO1MSLCZUJ571Y5DAHMR0TUE", "dateTime": 1519408414454}, {"current_trial": 57, "trialdata": {"rt": -1000, "trial_type": "single-audio", "word": "hero", "stimulus": "/static/audio/wordpool/HERO.wav", "conditions": [18, 1200, "a", 18000], "internal_node_id": "0.0-39.0", "trial": 1, "time_elapsed": 425213, "serialpos": 2, "key_press": -1, "wordID": 705, "type": "PRES_AUD", "trial_index": 57}, "uniqueid": "MTK2825:3Y54SXRO1MSLCZUJ571Y5DAHMR0TUE", "dateTime": 1519408416534}, {"current_trial": 58, "trialdata": {"rt": -1000, "trial_type": "single-audio", "word": "mummy", "stimulus": "/static/audio/wordpool/MUMMY.wav", "conditions": [18, 1200, "a", 18000], "internal_node_id": "0.0-40.0", "trial": 1, "time_elapsed": 427306, "serialpos": 3, "key_press": -1, "wordID": 931, "type": "PRES_AUD", "trial_index": 58}, "uniqueid": "MTK2825:3Y54SXRO1MSLCZUJ571Y5DAHMR0TUE", "dateTime": 1519408418628}, {"current_trial": 59, "trialdata": {"rt": -1000, "trial_type": "single-audio", "word": "jungle", "stimulus": "/static/audio/wordpool/JUNGLE.wav", "conditions": [18, 1200, "a", 18000], "internal_node_id": "0.0-41.0", "trial": 1, "time_elapsed": 429541, "serialpos": 4, "key_press": -1, "wordID": 763, "type": "PRES_AUD", "trial_index": 59}, "uniqueid": "MTK2825:3Y54SXRO1MSLCZUJ571Y5DAHMR0TUE", "dateTime": 1519408420862}, {"current_trial": 60, "trialdata": {"rt": -1000, "trial_type": "single-audio", "word": "badge", "stimulus": "/static/audio/wordpool/BADGE.wav", "conditions": [18, 1200, "a", 18000], "internal_node_id": "0.0-42.0", "trial": 1, "time_elapsed": 431929, "serialpos": 5, "key_press": -1, "wordID": 67, "type": "PRES_AUD", "trial_index": 60}, "uniqueid": "MTK2825:3Y54SXRO1MSLCZUJ571Y5DAHMR0TUE", "dateTime": 1519408423250}, {"current_trial": 61, "trialdata": {"rt": -1000, "trial_type": "single-audio", "word": "diner", "stimulus": "/static/audio/wordpool/DINER.wav", "conditions": [18, 1200, "a", 18000], "internal_node_id": "0.0-43.0", "trial": 1, "time_elapsed": 434111, "serialpos": 6, "key_press": -1, "wordID": 466, "type": "PRES_AUD", "trial_index": 61}, "uniqueid": "MTK2825:3Y54SXRO1MSLCZUJ571Y5DAHMR0TUE", "dateTime": 1519408425433}, {"current_trial": 62, "trialdata": {"rt": -1000, "trial_type": "single-audio", "word": "coffee", "stimulus": "/static/audio/wordpool/COFFEE.wav", "conditions": [18, 1200, "a", 18000], "internal_node_id": "0.0-44.0", "trial": 1, "time_elapsed": 436298, "serialpos": 7, "key_press": -1, "wordID": 340, "type": "PRES_AUD", "trial_index": 62}, "uniqueid": "MTK2825:3Y54SXRO1MSLCZUJ571Y5DAHMR0TUE", "dateTime": 1519408427619}, {"current_trial": 63, "trialdata": {"rt": -1000, "trial_type": "single-audio", "word": "mustard", "stimulus": "/static/audio/wordpool/MUSTARD.wav", "conditions": [18, 1200, "a", 18000], "internal_node_id": "0.0-45.0", "trial": 1, "time_elapsed": 438377, "serialpos": 8, "key_press": -1, "wordID": 934, "type": "PRES_AUD", "trial_index": 63}, "uniqueid": "MTK2825:3Y54SXRO1MSLCZUJ571Y5DAHMR0TUE", "dateTime": 1519408429698}, {"current_trial": 64, "trialdata": {"rt": -1000, "trial_type": "single-audio", "word": "wrist", "stimulus": "/static/audio/wordpool/WRIST.wav", "conditions": [18, 1200, "a", 18000], "internal_node_id": "0.0-46.0", "trial": 1, "time_elapsed": 440548, "serialpos": 9, "key_press": -1, "wordID": 1625, "type": "PRES_AUD", "trial_index": 64}, "uniqueid": "MTK2825:3Y54SXRO1MSLCZUJ571Y5DAHMR0TUE", "dateTime": 1519408431869}, {"current_trial": 65, "trialdata": {"rt": -1000, "trial_type": "single-audio", "word": "blockade", "stimulus": "/static/audio/wordpool/BLOCKADE.wav", "conditions": [18, 1200, "a", 18000], "internal_node_id": "0.0-47.0", "trial": 1, "time_elapsed": 442599, "serialpos": 10, "key_press": -1, "wordID": 136, "type": "PRES_AUD", "trial_index": 65}, "uniqueid": "MTK2825:3Y54SXRO1MSLCZUJ571Y5DAHMR0TUE", "dateTime": 1519408433920}, {"current_trial": 66, "trialdata": {"rt": -1000, "trial_type": "single-audio", "word": "picture", "stimulus": "/static/audio/wordpool/PICTURE.wav", "conditions": [18, 1200, "a", 18000], "internal_node_id": "0.0-48.0", "trial": 1, "time_elapsed": 444905, "serialpos": 11, "key_press": -1, "wordID": 1060, "type": "PRES_AUD", "trial_index": 66}, "uniqueid": "MTK2825:3Y54SXRO1MSLCZUJ571Y5DAHMR0TUE", "dateTime": 1519408436226}, {"current_trial": 67, "trialdata": {"rt": -1000, "trial_type": "single-audio", "word": "cricket", "stimulus": "/static/audio/wordpool/CRICKET.wav", "conditions": [18, 1200, "a", 18000], "internal_node_id": "0.0-49.0", "trial": 1, "time_elapsed": 446969, "serialpos": 12, "key_press": -1, "wordID": 407, "type": "PRES_AUD", "trial_index": 67}, "uniqueid": "MTK2825:3Y54SXRO1MSLCZUJ571Y5DAHMR0TUE", "dateTime": 1519408438291}, {"current_trial": 68, "trialdata": {"rt": -1000, "trial_type": "single-audio", "word": "loft", "stimulus": "/static/audio/wordpool/LOFT.wav", "conditions": [18, 1200, "a", 18000], "internal_node_id": "0.0-50.0", "trial": 1, "time_elapsed": 449372, "serialpos": 13, "key_press": -1, "wordID": 839, "type": "PRES_AUD", "trial_index": 68}, "uniqueid": "MTK2825:3Y54SXRO1MSLCZUJ571Y5DAHMR0TUE", "dateTime": 1519408440697}, {"current_trial": 69, "trialdata": {"rt": -1000, "trial_type": "single-audio", "word": "hook", "stimulus": "/static/audio/wordpool/HOOK.wav", "conditions": [18, 1200, "a", 18000], "internal_node_id": "0.0-51.0", "trial": 1, "time_elapsed": 451420, "serialpos": 14, "key_press": -1, "wordID": 714, "type": "PRES_AUD", "trial_index": 69}, "uniqueid": "MTK2825:3Y54SXRO1MSLCZUJ571Y5DAHMR0TUE", "dateTime": 1519408442741}, {"current_trial": 70, "trialdata": {"rt": -1000, "trial_type": "single-audio", "word": "dolphin", "stimulus": "/static/audio/wordpool/DOLPHIN.wav", "conditions": [18, 1200, "a", 18000], "internal_node_id": "0.0-52.0", "trial": 1, "time_elapsed": 453683, "serialpos": 15, "key_press": -1, "wordID": 482, "type": "PRES_AUD", "trial_index": 70}, "uniqueid": "MTK2825:3Y54SXRO1MSLCZUJ571Y5DAHMR0TUE", "dateTime": 1519408445004}, {"current_trial": 71, "trialdata": {"rt": -1000, "trial_type": "single-audio", "word": "heart", "stimulus": "/static/audio/wordpool/HEART.wav", "conditions": [18, 1200, "a", 18000], "internal_node_id": "0.0-53.0", "trial": 1, "time_elapsed": 455693, "serialpos": 16, "key_press": -1, "wordID": 696, "type": "PRES_AUD", "trial_index": 71}, "uniqueid": "MTK2825:3Y54SXRO1MSLCZUJ571Y5DAHMR0TUE", "dateTime": 1519408447014}, {"current_trial": 72, "trialdata": {"rt": -1000, "trial_type": "single-audio", "word": "hostess", "stimulus": "/static/audio/wordpool/HOSTESS.wav", "conditions": [18, 1200, "a", 18000], "internal_node_id": "0.0-54.0", "trial": 1, "time_elapsed": 458012, "serialpos": 17, "key_press": -1, "wordID": 722, "type": "PRES_AUD", "trial_index": 72}, "uniqueid": "MTK2825:3Y54SXRO1MSLCZUJ571Y5DAHMR0TUE", "dateTime": 1519408449333}, {"current_trial": 73, "trialdata": {"rt": -1, "trial_type": "single-stim", "stimulus": "", "internal_node_id": "0.0-55.0-0.0", "time_elapsed": 459258, "key_press": -1, "type": "PRE_RECALL_DELAY", "trial_index": 73}, "uniqueid": "MTK2825:3Y54SXRO1MSLCZUJ571Y5DAHMR0TUE", "dateTime": 1519408450579}, {"current_trial": 74, "trialdata": {"rt": -1000, "trial_type": "single-audio", "stimulus": "/static/audio/400Hz.wav", "internal_node_id": "0.0-56.0", "time_elapsed": 459769, "key_press": -1, "type": "PRE_RECALL_ALERT", "trial_index": 74}, "uniqueid": "MTK2825:3Y54SXRO1MSLCZUJ571Y5DAHMR0TUE", "dateTime": 1519408451090}, {"current_trial": 75, "trialdata": {"rt": [5251, 5754, 5783, 5824, 5856, 5886, 5916, 5963, 5993, 6023, 6057, 6088, 6118, 6149, 6180, 6212, 6256, 6279, 6312, 6359, 6389, 6420, 6451, 6482, 6514, 6544, 6590, 6609, 6652, 6682, 6713, 6745, 6775, 6821, 6840, 6873, 6920, 6950, 6981, 7012, 7043, 7073, 7104, 13546, 14049, 14080, 14118, 14148, 14178, 14211, 14256, 14278, 14317, 14348, 14379, 14425, 14456, 14487, 14518, 14548, 14579, 14610, 14651, 14682, 14712, 14743, 17555, 22218, 26115, 29778, 33787, 38074, 38574, 38608, 38641, 38673, 38706, 38739, 38774, 38806, 38838, 38872, 38904, 38937, 38971, 39003, 39037, 39071, 39103, 39135, 39169, 39201, 39235, 39268, 39301, 39333, 39367, 39400, 39433, 39466, 39499, 39532, 39565, 39598, 39630, 39664, 39698, 39729, 39763, 39796, 39829, 39862, 39895, 39928, 39960, 39994, 40026, 40060, 40092, 40126, 40159, 40192, 40225, 40257, 40291, 40323, 40357, 40390, 40423, 40455, 40489, 40522, 40555, 40587, 40620, 40653, 40687, 40720, 40753, 40785, 40818, 40852, 40885, 40917, 40951, 40984, 41016, 41049, 41082, 41116, 41149, 43602], "recwords": ["mummy", "", "", "", "", "", "", "", "", "", "", "", "", "", "", "", "", "", "", "", "", "", "", "", "", "", "", "", "", "", "", "", "", "", "", "", "", "", "", "", "", "", "", "badge", "", "", "", "", "", "", "", "", "", "", "", "", "", "", "", "", "", "", "", "", "", "", "cricket", "coffee", "hostess", "heart", "hook", "picture", "", "", "", "", "", "", "", "", "", "", "", "", "", "", "", "", "", "", "", "", "", "", "", "", "", "", "", "", "", "", "", "", "", "", "", "", "", "", "", "", "", "", "", "", "", "", "", "", "", "", "", "", "", "", "", "", "", "", "", "", "", "", "", "", "", "", "", "", "", "", "", "", "", "", "", "", "", "", "", "list"], "key_times": [3019, 3227, 3515, 3691, 3923, 3931, 4955, 5251, 5754, 5783, 5824, 5856, 5886, 5916, 5963, 5993, 6023, 6057, 6088, 6118, 6149, 6180, 6212, 6256, 6279, 6312, 6359, 6389, 6420, 6451, 6482, 6514, 6544, 6590, 6609, 6652, 6682, 6713, 6745, 6775, 6821, 6840, 6873, 6920, 6950, 6981, 7012, 7043, 7073, 7104, 7123, 7354, 7587, 8523, 8739, 10803, 11123, 11227, 11875, 12083, 12267, 13546, 14049, 14080, 14118, 14148, 14178, 14211, 14256, 14278, 14317, 14348, 14379, 14425, 14456, 14487, 14518, 14548, 14579, 14610, 14651, 14682, 14712, 14743, 14747, 15091, 15187, 15420, 15562, 15747, 16027, 17555, 20435, 20531, 20802, 21011, 21234, 21435, 22218, 23875, 24043, 24419, 24667, 24899, 25123, 25323, 26115, 27458, 27643, 27867, 28051, 29019, 29778, 31643, 31883, 32075, 32955, 33787, 35684, 35898, 36123, 36418, 36546, 36699, 36930, 38074, 38574, 38608, 38641, 38673, 38706, 38739, 38774, 38806, 38838, 38872, 38904, 38937, 38971, 39003, 39037, 39071, 39103, 39135, 39169, 39201, 39235, 39268, 39301, 39333, 39367, 39400, 39433, 39466, 39499, 39532, 39565, 39598, 39630, 39664, 39698, 39729, 39763, 39796, 39829, 39862, 39895, 39928, 39960, 39994, 40026, 40060, 40092, 40126, 40159, 40192, 40225, 40257, 40291, 40323, 40357, 40390, 40423, 40455, 40489, 40522, 40555, 40587, 40620, 40653, 40687, 40720, 40753, 40785, 40818, 40852, 40885, 40917, 40951, 40984, 41016, 41049, 41082, 41116, 41149, 42227, 42435, 42635, 42867, 43602], "trial_type": "free-recall", "conditions": [18, 1200, "a", 18000], "internal_node_id": "0.0-57.0-0.0", "key_presses": [77, 85, 77, 77, 89, 85, 8, 13, 13, 13, 13, 13, 13, 13, 13, 13, 13, 13, 13, 13, 13, 13, 13, 13, 13, 13, 13, 13, 13, 13, 13, 13, 13, 13, 13, 13, 13, 13, 13, 13, 13, 13, 13, 13, 13, 13, 13, 13, 13, 13, 66, 65, 68, 71, 69, 67, 82, 73, 8, 8, 8, 13, 13, 13, 13, 13, 13, 13, 13, 13, 13, 13, 13, 13, 13, 13, 13, 13, 13, 13, 13, 13, 13, 13, 67, 82, 73, 67, 75, 69, 84, 13, 67, 79, 70, 70, 69, 69, 13, 72, 79, 83, 84, 69, 83, 83, 13, 72, 69, 65, 82, 84, 13, 72, 79, 79, 75, 13, 80, 73, 67, 84, 85, 82, 69, 13, 13, 13, 13, 13, 13, 13, 13, 13, 13, 13, 13, 13, 13, 13, 13, 13, 13, 13, 13, 13, 13, 13, 13, 13, 13, 13, 13, 13, 13, 13, 13, 13, 13, 13, 13, 13, 13, 13, 13, 13, 13, 13, 13, 13, 13, 13, 13, 13, 13, 13, 13, 13, 13, 13, 13, 13, 13, 13, 13, 13, 13, 13, 13, 13, 13, 13, 13, 13, 13, 13, 13, 13, 13, 13, 13, 13, 13, 13, 13, 76, 73, 83, 84, 13], "trial": 1, "time_elapsed": 519773, "type": "FREE_RECALL", "trial_index": 75}, "uniqueid": "MTK2825:3Y54SXRO1MSLCZUJ571Y5DAHMR0TUE", "dateTime": 1519408511097}, {"current_trial": 76, "trialdata": {"rt": 2349, "trial_type": "text", "internal_node_id": "0.0-58.0", "time_elapsed": 524127, "key_press": 66, "type": "INSTRUCTIONS", "trial_index": 76}, "uniqueid": "MTK2825:3Y54SXRO1MSLCZUJ571Y5DAHMR0TUE", "dateTime": 1519408515448}, {"current_trial": 77, "trialdata": {"rt": [2733, 3233, 3266, 3298, 3333, 3364, 3398, 3430, 3463, 3496, 3531, 3563, 3595, 3629, 3662, 3695, 3727, 3761, 3794, 3826, 3859, 3893, 3926, 3959, 3992, 4025, 4058, 4091, 4124, 4156, 4190, 4224, 4255, 4288, 4322, 4355, 4387, 4421, 4454, 4487, 4520, 4553, 4586, 4620, 4651, 4685, 4718, 4750, 4783, 4818, 4850, 4884, 4916, 4950, 4982, 5015, 5048, 5080, 5113, 5146, 5181, 5214, 5245, 5278, 9973], "trial_type": "math-distractor", "key_times": [1989, 2204, 2733, 3233, 3266, 3298, 3333, 3364, 3398, 3430, 3463, 3496, 3531, 3563, 3595, 3629, 3662, 3695, 3727, 3761, 3794, 3826, 3859, 3893, 3926, 3959, 3992, 4025, 4058, 4091, 4124, 4156, 4190, 4224, 4255, 4288, 4322, 4355, 4387, 4421, 4454, 4487, 4520, 4553, 4586, 4620, 4651, 4685, 4718, 4750, 4783, 4818, 4850, 4884, 4916, 4950, 4982, 5015, 5048, 5080, 5113, 5146, 5181, 5214, 5245, 5278, 8676, 8949, 9973], "responses": ["16", "", "", "", "", "", "", "", "", "", "", "", "", "", "", "", "", "", "", "", "", "", "", "", "", "", "", "", "", "", "", "", "", "", "", "", "", "", "", "", "", "", "", "", "", "", "", "", "", "", "", "", "", "", "", "", "", "", "", "", "", "", "", "", "20"], "num2": [5, 6, 8, 2, 1, 3, 2, 4, 9, 6, 8, 7, 3, 5, 7, 7, 4, 6, 1, 2, 9, 6, 1, 7, 6, 2, 5, 8, 2, 1, 6, 5, 8, 8, 6, 6, 3, 9, 3, 8, 3, 1, 9, 3, 8, 1, 7, 5, 2, 4, 4, 8, 5, 9, 9, 6, 8, 7, 3, 5, 9, 1, 9, 5, 3, 2], "num3": [4, 2, 5, 1, 7, 4, 4, 5, 7, 1, 6, 1, 9, 4, 8, 3, 6, 3, 3, 6, 8, 6, 5, 5, 8, 6, 5, 8, 3, 2, 9, 6, 5, 8, 8, 8, 7, 9, 2, 6, 7, 9, 2, 9, 4, 7, 3, 4, 3, 7, 4, 6, 3, 9, 6, 6, 7, 1, 8, 8, 2, 3, 4, 8, 8, 9], "conditions": [12, 800, "a", 12000], "internal_node_id": "0.0-59.0", "key_presses": [97, 102, 13, 13, 13, 13, 13, 13, 13, 13, 13, 13, 13, 13, 13, 13, 13, 13, 13, 13, 13, 13, 13, 13, 13, 13, 13, 13, 13, 13, 13, 13, 13, 13, 13, 13, 13, 13, 13, 13, 13, 13, 13, 13, 13, 13, 13, 13, 13, 13, 13, 13, 13, 13, 13, 13, 13, 13, 13, 13, 13, 13, 13, 13, 13, 13, 98, 96, 13], "trial": 2, "time_elapsed": 537129, "type": "DISTRACTOR", "trial_index": 77, "num1": [7, 4, 1, 3, 4, 1, 9, 7, 6, 5, 7, 3, 6, 7, 5, 8, 7, 9, 6, 4, 1, 1, 1, 7, 4, 3, 3, 6, 8, 8, 1, 8, 6, 7, 5, 2, 3, 3, 9, 7, 8, 2, 8, 2, 1, 1, 6, 7, 7, 3, 9, 7, 1, 6, 9, 1, 8, 5, 7, 9, 9, 1, 3, 9, 9, 3]}, "uniqueid": "MTK2825:3Y54SXRO1MSLCZUJ571Y5DAHMR0TUE", "dateTime": 1519408528450}, {"current_trial": 78, "trialdata": {"rt": -1, "trial_type": "single-stim", "stimulus": "<p id=\"stim\">10</p>", "internal_node_id": "0.0-60.0-0.0", "time_elapsed": 540132, "key_press": -1, "trial_index": 78}, "uniqueid": "MTK2825:3Y54SXRO1MSLCZUJ571Y5DAHMR0TUE", "dateTime": 1519408531453}, {"current_trial": 79, "trialdata": {"rt": -1, "trial_type": "single-stim", "stimulus": "<p id=\"stim\">9</p>", "internal_node_id": "0.0-60.0-1.0", "time_elapsed": 541135, "key_press": -1, "trial_index": 79}, "uniqueid": "MTK2825:3Y54SXRO1MSLCZUJ571Y5DAHMR0TUE", "dateTime": 1519408532456}, {"current_trial": 80, "trialdata": {"rt": -1, "trial_type": "single-stim", "stimulus": "<p id=\"stim\">8</p>", "internal_node_id": "0.0-60.0-2.0", "time_elapsed": 542136, "key_press": -1, "trial_index": 80}, "uniqueid": "MTK2825:3Y54SXRO1MSLCZUJ571Y5DAHMR0TUE", "dateTime": 1519408533457}, {"current_trial": 81, "trialdata": {"rt": -1, "trial_type": "single-stim", "stimulus": "<p id=\"stim\">7</p>", "internal_node_id": "0.0-60.0-3.0", "time_elapsed": 543137, "key_press": -1, "trial_index": 81}, "uniqueid": "MTK2825:3Y54SXRO1MSLCZUJ571Y5DAHMR0TUE", "dateTime": 1519408534458}, {"current_trial": 82, "trialdata": {"rt": -1, "trial_type": "single-stim", "stimulus": "<p id=\"stim\">6</p>", "internal_node_id": "0.0-60.0-4.0", "time_elapsed": 544139, "key_press": -1, "trial_index": 82}, "uniqueid": "MTK2825:3Y54SXRO1MSLCZUJ571Y5DAHMR0TUE", "dateTime": 1519408535460}, {"current_trial": 83, "trialdata": {"rt": -1, "trial_type": "single-stim", "stimulus": "<p id=\"stim\">5</p>", "internal_node_id": "0.0-60.0-5.0", "time_elapsed": 545142, "key_press": -1, "trial_index": 83}, "uniqueid": "MTK2825:3Y54SXRO1MSLCZUJ571Y5DAHMR0TUE", "dateTime": 1519408536463}, {"current_trial": 84, "trialdata": {"rt": -1, "trial_type": "single-stim", "stimulus": "<p id=\"stim\">4</p>", "internal_node_id": "0.0-60.0-6.0", "time_elapsed": 546144, "key_press": -1, "trial_index": 84}, "uniqueid": "MTK2825:3Y54SXRO1MSLCZUJ571Y5DAHMR0TUE", "dateTime": 1519408537465}, {"current_trial": 85, "trialdata": {"rt": -1, "trial_type": "single-stim", "stimulus": "<p id=\"stim\">3</p>", "internal_node_id": "0.0-60.0-7.0", "time_elapsed": 547146, "key_press": -1, "trial_index": 85}, "uniqueid": "MTK2825:3Y54SXRO1MSLCZUJ571Y5DAHMR0TUE", "dateTime": 1519408538468}, {"current_trial": 86, "trialdata": {"rt": -1, "trial_type": "single-stim", "stimulus": "<p id=\"stim\">2</p>", "internal_node_id": "0.0-60.0-8.0", "time_elapsed": 548148, "key_press": -1, "trial_index": 86}, "uniqueid": "MTK2825:3Y54SXRO1MSLCZUJ571Y5DAHMR0TUE", "dateTime": 1519408539469}, {"current_trial": 87, "trialdata": {"rt": -1, "trial_type": "single-stim", "stimulus": "<p id=\"stim\">1</p>", "internal_node_id": "0.0-60.0-9.0", "time_elapsed": 549150, "key_press": -1, "trial_index": 87}, "uniqueid": "MTK2825:3Y54SXRO1MSLCZUJ571Y5DAHMR0TUE", "dateTime": 1519408540471}, {"current_trial": 88, "trialdata": {"rt": -1, "trial_type": "single-stim", "stimulus": "<p id=\"stim\">+</p>", "internal_node_id": "0.0-61.0-0.0", "time_elapsed": 550652, "key_press": -1, "type": "FIXATION", "trial_index": 88}, "uniqueid": "MTK2825:3Y54SXRO1MSLCZUJ571Y5DAHMR0TUE", "dateTime": 1519408541973}, {"current_trial": 89, "trialdata": {"rt": -1000, "trial_type": "single-audio", "word": "beaker", "stimulus": "/static/audio/wordpool/BEAKER.wav", "conditions": [12, 800, "a", 12000], "internal_node_id": "0.0-62.0", "trial": 2, "time_elapsed": 552329, "serialpos": 0, "key_press": -1, "wordID": 103, "type": "PRES_AUD", "trial_index": 89}, "uniqueid": "MTK2825:3Y54SXRO1MSLCZUJ571Y5DAHMR0TUE", "dateTime": 1519408543650}, {"current_trial": 90, "trialdata": {"rt": -1000, "trial_type": "single-audio", "word": "silk", "stimulus": "/static/audio/wordpool/SILK.wav", "conditions": [12, 800, "a", 12000], "internal_node_id": "0.0-63.0", "trial": 2, "time_elapsed": 554283, "serialpos": 1, "key_press": -1, "wordID": 1306, "type": "PRES_AUD", "trial_index": 90}, "uniqueid": "MTK2825:3Y54SXRO1MSLCZUJ571Y5DAHMR0TUE", "dateTime": 1519408545604}, {"current_trial": 91, "trialdata": {"rt": -1000, "trial_type": "single-audio", "word": "lace", "stimulus": "/static/audio/wordpool/LACE.wav", "conditions": [12, 800, "a", 12000], "internal_node_id": "0.0-64.0", "trial": 2, "time_elapsed": 556196, "serialpos": 2, "key_press": -1, "wordID": 791, "type": "PRES_AUD", "trial_index": 91}, "uniqueid": "MTK2825:3Y54SXRO1MSLCZUJ571Y5DAHMR0TUE", "dateTime": 1519408547518}, {"current_trial": 92, "trialdata": {"rt": -1000, "trial_type": "single-audio", "word": "branch", "stimulus": "/static/audio/wordpool/BRANCH.wav", "conditions": [12, 800, "a", 12000], "internal_node_id": "0.0-65.0", "trial": 2, "time_elapsed": 557838, "serialpos": 3, "key_press": -1, "wordID": 167, "type": "PRES_AUD", "trial_index": 92}, "uniqueid": "MTK2825:3Y54SXRO1MSLCZUJ571Y5DAHMR0TUE", "dateTime": 1519408549160}, {"current_trial": 93, "trialdata": {"rt": -1000, "trial_type": "single-audio", "word": "peach", "stimulus": "/static/audio/wordpool/PEACH.wav", "conditions": [12, 800, "a", 12000], "internal_node_id": "0.0-66.0", "trial": 2, "time_elapsed": 559596, "serialpos": 4, "key_press": -1, "wordID": 1030, "type": "PRES_AUD", "trial_index": 93}, "uniqueid": "MTK2825:3Y54SXRO1MSLCZUJ571Y5DAHMR0TUE", "dateTime": 1519408550917}, {"current_trial": 94, "trialdata": {"rt": -1000, "trial_type": "single-audio", "word": "pigment", "stimulus": "/static/audio/wordpool/PIGMENT.wav", "conditions": [12, 800, "a", 12000], "internal_node_id": "0.0-67.0", "trial": 2, "time_elapsed": 561475, "serialpos": 5, "key_press": -1, "wordID": 1065, "type": "PRES_AUD", "trial_index": 94}, "uniqueid": "MTK2825:3Y54SXRO1MSLCZUJ571Y5DAHMR0TUE", "dateTime": 1519408552796}, {"current_trial": 95, "trialdata": {"rt": -1000, "trial_type": "single-audio", "word": "pork", "stimulus": "/static/audio/wordpool/PORK.wav", "conditions": [12, 800, "a", 12000], "internal_node_id": "0.0-68.0", "trial": 2, "time_elapsed": 563214, "serialpos": 6, "key_press": -1, "wordID": 1107, "type": "PRES_AUD", "trial_index": 95}, "uniqueid": "MTK2825:3Y54SXRO1MSLCZUJ571Y5DAHMR0TUE", "dateTime": 1519408554535}, {"current_trial": 96, "trialdata": {"rt": -1000, "trial_type": "single-audio", "word": "survey", "stimulus": "/static/audio/wordpool/SURVEY.wav", "conditions": [12, 800, "a", 12000], "internal_node_id": "0.0-69.0", "trial": 2, "time_elapsed": 565088, "serialpos": 7, "key_press": -1, "wordID": 1413, "type": "PRES_AUD", "trial_index": 96}, "uniqueid": "MTK2825:3Y54SXRO1MSLCZUJ571Y5DAHMR0TUE", "dateTime": 1519408556409}, {"current_trial": 97, "trialdata": {"rt": -1000, "trial_type": "single-audio", "word": "cattle", "stimulus": "/static/audio/wordpool/CATTLE.wav", "conditions": [12, 800, "a", 12000], "internal_node_id": "0.0-70.0", "trial": 2, "time_elapsed": 566818, "serialpos": 8, "key_press": -1, "wordID": 260, "type": "PRES_AUD", "trial_index": 97}, "uniqueid": "MTK2825:3Y54SXRO1MSLCZUJ571Y5DAHMR0TUE", "dateTime": 1519408558139}, {"current_trial": 98, "trialdata": {"rt": -1000, "trial_type": "single-audio", "word": "lapel", "stimulus": "/static/audio/wordpool/LAPEL.wav", "conditions": [12, 800, "a", 12000], "internal_node_id": "0.0-71.0", "trial": 2, "time_elapsed": 568781, "serialpos": 9, "key_press": -1, "wordID": 799, "type": "PRES_AUD", "trial_index": 98}, "uniqueid": "MTK2825:3Y54SXRO1MSLCZUJ571Y5DAHMR0TUE", "dateTime": 1519408560102}, {"current_trial": 99, "trialdata": {"rt": -1000, "trial_type": "single-audio", "word": "flask", "stimulus": "/static/audio/wordpool/FLASK.wav", "conditions": [12, 800, "a", 12000], "internal_node_id": "0.0-72.0", "trial": 2, "time_elapsed": 570621, "serialpos": 10, "key_press": -1, "wordID": 575, "type": "PRES_AUD", "trial_index": 99}, "uniqueid": "MTK2825:3Y54SXRO1MSLCZUJ571Y5DAHMR0TUE", "dateTime": 1519408561942}, {"current_trial": 100, "trialdata": {"rt": -1000, "trial_type": "single-audio", "word": "pudding", "stimulus": "/static/audio/wordpool/PUDDING.wav", "conditions": [12, 800, "a", 12000], "internal_node_id": "0.0-73.0", "trial": 2, "time_elapsed": 572332, "serialpos": 11, "key_press": -1, "wordID": 1138, "type": "PRES_AUD", "trial_index": 100}, "uniqueid": "MTK2825:3Y54SXRO1MSLCZUJ571Y5DAHMR0TUE", "dateTime": 1519408563653}, {"current_trial": 101, "trialdata": {"rt": -1, "trial_type": "single-stim", "stimulus": "", "internal_node_id": "0.0-74.0-0.0", "time_elapsed": 573607, "key_press": -1, "type": "PRE_RECALL_DELAY", "trial_index": 101}, "uniqueid": "MTK2825:3Y54SXRO1MSLCZUJ571Y5DAHMR0TUE", "dateTime": 1519408564929}, {"current_trial": 102, "trialdata": {"rt": -1000, "trial_type": "single-audio", "stimulus": "/static/audio/400Hz.wav", "internal_node_id": "0.0-75.0", "time_elapsed": 574108, "key_press": -1, "type": "PRE_RECALL_ALERT", "trial_index": 102}, "uniqueid": "MTK2825:3Y54SXRO1MSLCZUJ571Y5DAHMR0TUE", "dateTime": 1519408565430}, {"current_trial": 103, "trialdata": {"rt": [8198, 26935, 32710, 35767, 38431, 41158, 45862, 50942], "recwords": ["flask", "pudding", "pigment", "branch", "silk", "lace", "cattle", "labell"], "key_times": [6047, 6207, 6430, 6655, 7543, 8198, 9207, 9495, 9799, 10031, 10118, 10319, 10494, 26935, 30630, 31167, 31359, 31615, 31767, 31895, 32055, 32710, 33870, 34198, 34479, 34574, 34806, 34999, 35767, 36991, 37183, 37399, 37678, 38431, 39791, 39974, 40231, 40463, 41158, 42775, 43111, 43311, 43663, 44111, 44487, 44702, 44838, 45862, 47511, 47951, 48271, 48990, 49246, 49430, 50942], "trial_type": "free-recall", "conditions": [12, 800, "a", 12000], "internal_node_id": "0.0-76.0-0.0", "key_presses": [70, 76, 65, 83, 75, 13, 80, 85, 68, 68, 73, 78, 71, 13, 80, 73, 71, 77, 69, 78, 84, 13, 66, 82, 65, 78, 67, 72, 13, 83, 73, 76, 75, 13, 76, 65, 67, 69, 13, 67, 65, 84, 76, 8, 84, 76, 69, 13, 76, 65, 66, 69, 76, 76, 13], "trial": 2, "time_elapsed": 634112, "type": "FREE_RECALL", "trial_index": 103}, "uniqueid": "MTK2825:3Y54SXRO1MSLCZUJ571Y5DAHMR0TUE", "dateTime": 1519408625436}, {"current_trial": 104, "trialdata": {"rt": 6498, "trial_type": "text", "internal_node_id": "0.0-77.0", "time_elapsed": 642614, "key_press": 66, "type": "INSTRUCTIONS", "trial_index": 104}, "uniqueid": "MTK2825:3Y54SXRO1MSLCZUJ571Y5DAHMR0TUE", "dateTime": 1519408633936}, {"current_trial": 105, "trialdata": {"rt": [8453, 10469], "trial_type": "math-distractor", "key_times": [6157, 7917, 8453, 9829, 10045, 10469, 11828], "responses": ["16", "13"], "num2": [9, 9, 4], "num3": [4, 3, 9], "conditions": [12, 1600, "a", 12000], "internal_node_id": "0.0-78.0", "key_presses": [97, 102, 13, 97, 99, 13, 97], "trial": 3, "time_elapsed": 656620, "type": "DISTRACTOR", "trial_index": 105, "num1": [2, 1, 6]}, "uniqueid": "MTK2825:3Y54SXRO1MSLCZUJ571Y5DAHMR0TUE", "dateTime": 1519408647941}, {"current_trial": 106, "trialdata": {"rt": -1, "trial_type": "single-stim", "stimulus": "<p id=\"stim\">10</p>", "internal_node_id": "0.0-79.0-0.0", "time_elapsed": 659622, "key_press": -1, "trial_index": 106}, "uniqueid": "MTK2825:3Y54SXRO1MSLCZUJ571Y5DAHMR0TUE", "dateTime": 1519408650944}, {"current_trial": 107, "trialdata": {"rt": -1, "trial_type": "single-stim", "stimulus": "<p id=\"stim\">9</p>", "internal_node_id": "0.0-79.0-1.0", "time_elapsed": 660624, "key_press": -1, "trial_index": 107}, "uniqueid": "MTK2825:3Y54SXRO1MSLCZUJ571Y5DAHMR0TUE", "dateTime": 1519408651945}, {"current_trial": 108, "trialdata": {"rt": -1, "trial_type": "single-stim", "stimulus": "<p id=\"stim\">8</p>", "internal_node_id": "0.0-79.0-2.0", "time_elapsed": 661626, "key_press": -1, "trial_index": 108}, "uniqueid": "MTK2825:3Y54SXRO1MSLCZUJ571Y5DAHMR0TUE", "dateTime": 1519408652948}, {"current_trial": 109, "trialdata": {"rt": -1, "trial_type": "single-stim", "stimulus": "<p id=\"stim\">7</p>", "internal_node_id": "0.0-79.0-3.0", "time_elapsed": 662630, "key_press": -1, "trial_index": 109}, "uniqueid": "MTK2825:3Y54SXRO1MSLCZUJ571Y5DAHMR0TUE", "dateTime": 1519408653951}, {"current_trial": 110, "trialdata": {"rt": -1, "trial_type": "single-stim", "stimulus": "<p id=\"stim\">6</p>", "internal_node_id": "0.0-79.0-4.0", "time_elapsed": 663631, "key_press": -1, "trial_index": 110}, "uniqueid": "MTK2825:3Y54SXRO1MSLCZUJ571Y5DAHMR0TUE", "dateTime": 1519408654952}, {"current_trial": 111, "trialdata": {"rt": -1, "trial_type": "single-stim", "stimulus": "<p id=\"stim\">5</p>", "internal_node_id": "0.0-79.0-5.0", "time_elapsed": 664633, "key_press": -1, "trial_index": 111}, "uniqueid": "MTK2825:3Y54SXRO1MSLCZUJ571Y5DAHMR0TUE", "dateTime": 1519408655954}, {"current_trial": 112, "trialdata": {"rt": -1, "trial_type": "single-stim", "stimulus": "<p id=\"stim\">4</p>", "internal_node_id": "0.0-79.0-6.0", "time_elapsed": 665634, "key_press": -1, "trial_index": 112}, "uniqueid": "MTK2825:3Y54SXRO1MSLCZUJ571Y5DAHMR0TUE", "dateTime": 1519408656956}, {"current_trial": 113, "trialdata": {"rt": -1, "trial_type": "single-stim", "stimulus": "<p id=\"stim\">3</p>", "internal_node_id": "0.0-79.0-7.0", "time_elapsed": 666637, "key_press": -1, "trial_index": 113}, "uniqueid": "MTK2825:3Y54SXRO1MSLCZUJ571Y5DAHMR0TUE", "dateTime": 1519408657958}, {"current_trial": 114, "trialdata": {"rt": -1, "trial_type": "single-stim", "stimulus": "<p id=\"stim\">2</p>", "internal_node_id": "0.0-79.0-8.0", "time_elapsed": 667639, "key_press": -1, "trial_index": 114}, "uniqueid": "MTK2825:3Y54SXRO1MSLCZUJ571Y5DAHMR0TUE", "dateTime": 1519408658960}, {"current_trial": 115, "trialdata": {"rt": -1, "trial_type": "single-stim", "stimulus": "<p id=\"stim\">1</p>", "internal_node_id": "0.0-79.0-9.0", "time_elapsed": 668641, "key_press": -1, "trial_index": 115}, "uniqueid": "MTK2825:3Y54SXRO1MSLCZUJ571Y5DAHMR0TUE", "dateTime": 1519408659962}, {"current_trial": 116, "trialdata": {"rt": -1, "trial_type": "single-stim", "stimulus": "<p id=\"stim\">+</p>", "internal_node_id": "0.0-80.0-0.0", "time_elapsed": 670143, "key_press": -1, "type": "FIXATION", "trial_index": 116}, "uniqueid": "MTK2825:3Y54SXRO1MSLCZUJ571Y5DAHMR0TUE", "dateTime": 1519408661464}, {"current_trial": 117, "trialdata": {"rt": -1000, "trial_type": "single-audio", "word": "stove", "stimulus": "/static/audio/wordpool/STOVE.wav", "conditions": [12, 1600, "a", 12000], "internal_node_id": "0.0-81.0", "trial": 3, "time_elapsed": 672562, "serialpos": 0, "key_press": -1, "wordID": 1387, "type": "PRES_AUD", "trial_index": 117}, "uniqueid": "MTK2825:3Y54SXRO1MSLCZUJ571Y5DAHMR0TUE", "dateTime": 1519408663883}, {"current_trial": 118, "trialdata": {"rt": -1000, "trial_type": "single-audio", "word": "venus", "stimulus": "/static/audio/wordpool/VENUS.wav", "conditions": [12, 1600, "a", 12000], "internal_node_id": "0.0-82.0", "trial": 3, "time_elapsed": 674979, "serialpos": 1, "key_press": -1, "wordID": 1556, "type": "PRES_AUD", "trial_index": 118}, "uniqueid": "MTK2825:3Y54SXRO1MSLCZUJ571Y5DAHMR0TUE", "dateTime": 1519408666300}, {"current_trial": 119, "trialdata": {"rt": -1000, "trial_type": "single-audio", "word": "asia", "stimulus": "/static/audio/wordpool/ASIA.wav", "conditions": [12, 1600, "a", 12000], "internal_node_id": "0.0-83.0", "trial": 3, "time_elapsed": 677489, "serialpos": 2, "key_press": -1, "wordID": 45, "type": "PRES_AUD", "trial_index": 119}, "uniqueid": "MTK2825:3Y54SXRO1MSLCZUJ571Y5DAHMR0TUE", "dateTime": 1519408668810}, {"current_trial": 120, "trialdata": {"rt": -1000, "trial_type": "single-audio", "word": "creature", "stimulus": "/static/audio/wordpool/CREATURE.wav", "conditions": [12, 1600, "a", 12000], "internal_node_id": "0.0-84.0", "trial": 3, "time_elapsed": 679922, "serialpos": 3, "key_press": -1, "wordID": 402, "type": "PRES_AUD", "trial_index": 120}, "uniqueid": "MTK2825:3Y54SXRO1MSLCZUJ571Y5DAHMR0TUE", "dateTime": 1519408671244}, {"current_trial": 121, "trialdata": {"rt": -1000, "trial_type": "single-audio", "word": "foot", "stimulus": "/static/audio/wordpool/FOOT.wav", "conditions": [12, 1600, "a", 12000], "internal_node_id": "0.0-85.0", "trial": 3, "time_elapsed": 682587, "serialpos": 4, "key_press": -1, "wordID": 589, "type": "PRES_AUD", "trial_index": 121}, "uniqueid": "MTK2825:3Y54SXRO1MSLCZUJ571Y5DAHMR0TUE", "dateTime": 1519408673909}, {"current_trial": 122, "trialdata": {"rt": -1000, "trial_type": "single-audio", "word": "champagne", "stimulus": "/static/audio/wordpool/CHAMPAGNE.wav", "conditions": [12, 1600, "a", 12000], "internal_node_id": "0.0-86.0", "trial": 3, "time_elapsed": 685388, "serialpos": 5, "key_press": -1, "wordID": 277, "type": "PRES_AUD", "trial_index": 122}, "uniqueid": "MTK2825:3Y54SXRO1MSLCZUJ571Y5DAHMR0TUE", "dateTime": 1519408676709}, {"current_trial": 123, "trialdata": {"rt": -1000, "trial_type": "single-audio", "word": "radish", "stimulus": "/static/audio/wordpool/RADISH.wav", "conditions": [12, 1600, "a", 12000], "internal_node_id": "0.0-87.0", "trial": 3, "time_elapsed": 687991, "serialpos": 6, "key_press": -1, "wordID": 1157, "type": "PRES_AUD", "trial_index": 123}, "uniqueid": "MTK2825:3Y54SXRO1MSLCZUJ571Y5DAHMR0TUE", "dateTime": 1519408679312}, {"current_trial": 124, "trialdata": {"rt": -1000, "trial_type": "single-audio", "word": "cabbage", "stimulus": "/static/audio/wordpool/CABBAGE.wav", "conditions": [12, 1600, "a", 12000], "internal_node_id": "0.0-88.0", "trial": 3, "time_elapsed": 690694, "serialpos": 7, "key_press": -1, "wordID": 209, "type": "PRES_AUD", "trial_index": 124}, "uniqueid": "MTK2825:3Y54SXRO1MSLCZUJ571Y5DAHMR0TUE", "dateTime": 1519408682016}, {"current_trial": 125, "trialdata": {"rt": -1000, "trial_type": "single-audio", "word": "coin", "stimulus": "/static/audio/wordpool/COIN.wav", "conditions": [12, 1600, "a", 12000], "internal_node_id": "0.0-89.0", "trial": 3, "time_elapsed": 693168, "serialpos": 8, "key_press": -1, "wordID": 342, "type": "PRES_AUD", "trial_index": 125}, "uniqueid": "MTK2825:3Y54SXRO1MSLCZUJ571Y5DAHMR0TUE", "dateTime": 1519408684489}, {"current_trial": 126, "trialdata": {"rt": -1000, "trial_type": "single-audio", "word": "toaster", "stimulus": "/static/audio/wordpool/TOASTER.wav", "conditions": [12, 1600, "a", 12000], "internal_node_id": "0.0-90.0", "trial": 3, "time_elapsed": 695754, "serialpos": 9, "key_press": -1, "wordID": 1471, "type": "PRES_AUD", "trial_index": 126}, "uniqueid": "MTK2825:3Y54SXRO1MSLCZUJ571Y5DAHMR0TUE", "dateTime": 1519408687076}, {"current_trial": 127, "trialdata": {"rt": -1000, "trial_type": "single-audio", "word": "report", "stimulus": "/static/audio/wordpool/REPORT.wav", "conditions": [12, 1600, "a", 12000], "internal_node_id": "0.0-91.0", "trial": 3, "time_elapsed": 698188, "serialpos": 10, "key_press": -1, "wordID": 1183, "type": "PRES_AUD", "trial_index": 127}, "uniqueid": "MTK2825:3Y54SXRO1MSLCZUJ571Y5DAHMR0TUE", "dateTime": 1519408689509}, {"current_trial": 128, "trialdata": {"rt": -1000, "trial_type": "single-audio", "word": "outfit", "stimulus": "/static/audio/wordpool/OUTFIT.wav", "conditions": [12, 1600, "a", 12000], "internal_node_id": "0.0-92.0", "trial": 3, "time_elapsed": 700819, "serialpos": 11, "key_press": -1, "wordID": 987, "type": "PRES_AUD", "trial_index": 128}, "uniqueid": "MTK2825:3Y54SXRO1MSLCZUJ571Y5DAHMR0TUE", "dateTime": 1519408692140}, {"current_trial": 129, "trialdata": {"rt": -1, "trial_type": "single-stim", "stimulus": "", "internal_node_id": "0.0-93.0-0.0", "time_elapsed": 702166, "key_press": -1, "type": "PRE_RECALL_DELAY", "trial_index": 129}, "uniqueid": "MTK2825:3Y54SXRO1MSLCZUJ571Y5DAHMR0TUE", "dateTime": 1519408693487}, {"current_trial": 130, "trialdata": {"rt": -1000, "trial_type": "single-audio", "stimulus": "/static/audio/400Hz.wav", "internal_node_id": "0.0-94.0", "time_elapsed": 702670, "key_press": -1, "type": "PRE_RECALL_ALERT", "trial_index": 130}, "uniqueid": "MTK2825:3Y54SXRO1MSLCZUJ571Y5DAHMR0TUE", "dateTime": 1519408693991}, {"current_trial": 131, "trialdata": {"rt": [4758, 7742, 11366, 13447, 15270, 18862, 23534, 24046, 24077, 24101, 24135, 24182, 24199, 24242, 24273, 24303, 24334, 24365, 24403, 24434, 24465, 24511, 24542, 24573, 24604, 24628, 34799], "recwords": ["outfit", "report", "cabbage", "venice", "asia", "stov", "foot", "", "", "", "", "", "", "", "", "", "", "", "", "", "", "", "", "", "", "", "champaigne"], "key_times": [2855, 3055, 3246, 3486, 3591, 4015, 4758, 6047, 6270, 6471, 6654, 6807, 6983, 7742, 9270, 9535, 9822, 10023, 10278, 10495, 10735, 11366, 11919, 12135, 12311, 12471, 12631, 12855, 13447, 13975, 14207, 14335, 14590, 15270, 17470, 17703, 17799, 18087, 18862, 21894, 22063, 22270, 22686, 23534, 24046, 24077, 24101, 24135, 24182, 24199, 24242, 24273, 24303, 24334, 24365, 24403, 24434, 24465, 24511, 24542, 24573, 24604, 24628, 27750, 27910, 28127, 28711, 29015, 29351, 29487, 29695, 29926, 30095, 34799], "trial_type": "free-recall", "conditions": [12, 1600, "a", 12000], "internal_node_id": "0.0-95.0-0.0", "key_presses": [79, 85, 84, 70, 73, 84, 13, 82, 69, 80, 79, 82, 84, 13, 67, 65, 66, 66, 65, 71, 69, 13, 86, 69, 78, 73, 67, 69, 13, 65, 83, 73, 65, 13, 83, 84, 79, 86, 13, 70, 79, 79, 84, 13, 13, 13, 13, 13, 13, 13, 13, 13, 13, 13, 13, 13, 13, 13, 13, 13, 13, 13, 13, 67, 72, 65, 77, 80, 65, 73, 71, 78, 69, 13], "trial": 3, "time_elapsed": 762672, "type": "FREE_RECALL", "trial_index": 131}, "uniqueid": "MTK2825:3Y54SXRO1MSLCZUJ571Y5DAHMR0TUE", "dateTime": 1519408753998}, {"current_trial": 132, "trialdata": {"rt": 4281, "trial_type": "text", "internal_node_id": "0.0-96.0", "time_elapsed": 768959, "key_press": 66, "type": "INSTRUCTIONS", "trial_index": 132}, "uniqueid": "MTK2825:3Y54SXRO1MSLCZUJ571Y5DAHMR0TUE", "dateTime": 1519408760280}, {"current_trial": 133, "trialdata": {"rt": [3124, 5628, 7988, 10044, 11611, 13371, 16332, 18708, 20780, 22924, 23423, 23457, 23490, 23523, 23556, 23588, 23621, 23654, 23687, 23720, 23753, 23787, 23820, 23853, 23885, 23918, 23951, 23984], "trial_type": "math-distractor", "key_times": [2269, 2701, 3124, 5252, 5628, 7348, 7573, 7988, 9469, 9684, 10044, 11101, 11292, 11611, 12764, 12980, 13371, 14933, 15204, 15861, 16332, 18068, 18292, 18708, 20116, 20364, 20780, 22372, 22587, 22924, 23423, 23457, 23490, 23523, 23556, 23588, 23621, 23654, 23687, 23720, 23753, 23787, 23820, 23853, 23885, 23918, 23951, 23984], "responses": ["15", "8", "13", "12", "11", "17", "199", "12", "17", "11", "", "", "", "", "", "", "", "", "", "", "", "", "", "", "", "", "", ""], "num2": [8, 3, 9, 3, 2, 4, 3, 7, 6, 3, 7, 9, 3, 5, 6, 7, 3, 7, 3, 3, 5, 2, 8, 4, 6, 6, 1, 2, 7], "num3": [3, 1, 2, 5, 1, 7, 9, 4, 3, 6, 5, 6, 9, 1, 8, 8, 6, 4, 8, 4, 8, 1, 1, 2, 2, 9, 1, 4, 5], "conditions": [12, 1600, "a", 24000], "internal_node_id": "0.0-97.0", "key_presses": [97, 101, 13, 104, 13, 97, 99, 13, 97, 98, 13, 97, 97, 13, 97, 103, 13, 97, 105, 105, 13, 97, 98, 13, 97, 103, 13, 97, 97, 13, 13, 13, 13, 13, 13, 13, 13, 13, 13, 13, 13, 13, 13, 13, 13, 13, 13, 13], "trial": 4, "time_elapsed": 794962, "type": "DISTRACTOR", "trial_index": 133, "num1": [4, 4, 2, 4, 8, 6, 5, 1, 8, 2, 2, 2, 4, 2, 5, 8, 7, 1, 5, 8, 4, 2, 8, 5, 7, 3, 4, 1, 5]}, "uniqueid": "MTK2825:3Y54SXRO1MSLCZUJ571Y5DAHMR0TUE", "dateTime": 1519408786283}, {"current_trial": 134, "trialdata": {"rt": -1, "trial_type": "single-stim", "stimulus": "<p id=\"stim\">10</p>", "internal_node_id": "0.0-98.0-0.0", "time_elapsed": 797964, "key_press": -1, "trial_index": 134}, "uniqueid": "MTK2825:3Y54SXRO1MSLCZUJ571Y5DAHMR0TUE", "dateTime": 1519408789285}, {"current_trial": 135, "trialdata": {"rt": -1, "trial_type": "single-stim", "stimulus": "<p id=\"stim\">9</p>", "internal_node_id": "0.0-98.0-1.0", "time_elapsed": 798965, "key_press": -1, "trial_index": 135}, "uniqueid": "MTK2825:3Y54SXRO1MSLCZUJ571Y5DAHMR0TUE", "dateTime": 1519408790286}, {"current_trial": 136, "trialdata": {"rt": -1, "trial_type": "single-stim", "stimulus": "<p id=\"stim\">8</p>", "internal_node_id": "0.0-98.0-2.0", "time_elapsed": 799968, "key_press": -1, "trial_index": 136}, "uniqueid": "MTK2825:3Y54SXRO1MSLCZUJ571Y5DAHMR0TUE", "dateTime": 1519408791289}, {"current_trial": 137, "trialdata": {"rt": -1, "trial_type": "single-stim", "stimulus": "<p id=\"stim\">7</p>", "internal_node_id": "0.0-98.0-3.0", "time_elapsed": 800969, "key_press": -1, "trial_index": 137}, "uniqueid": "MTK2825:3Y54SXRO1MSLCZUJ571Y5DAHMR0TUE", "dateTime": 1519408792290}, {"current_trial": 138, "trialdata": {"rt": -1, "trial_type": "single-stim", "stimulus": "<p id=\"stim\">6</p>", "internal_node_id": "0.0-98.0-4.0", "time_elapsed": 801971, "key_press": -1, "trial_index": 138}, "uniqueid": "MTK2825:3Y54SXRO1MSLCZUJ571Y5DAHMR0TUE", "dateTime": 1519408793292}, {"current_trial": 139, "trialdata": {"rt": -1, "trial_type": "single-stim", "stimulus": "<p id=\"stim\">5</p>", "internal_node_id": "0.0-98.0-5.0", "time_elapsed": 802972, "key_press": -1, "trial_index": 139}, "uniqueid": "MTK2825:3Y54SXRO1MSLCZUJ571Y5DAHMR0TUE", "dateTime": 1519408794293}, {"current_trial": 140, "trialdata": {"rt": -1, "trial_type": "single-stim", "stimulus": "<p id=\"stim\">4</p>", "internal_node_id": "0.0-98.0-6.0", "time_elapsed": 803974, "key_press": -1, "trial_index": 140}, "uniqueid": "MTK2825:3Y54SXRO1MSLCZUJ571Y5DAHMR0TUE", "dateTime": 1519408795295}, {"current_trial": 141, "trialdata": {"rt": -1, "trial_type": "single-stim", "stimulus": "<p id=\"stim\">3</p>", "internal_node_id": "0.0-98.0-7.0", "time_elapsed": 804977, "key_press": -1, "trial_index": 141}, "uniqueid": "MTK2825:3Y54SXRO1MSLCZUJ571Y5DAHMR0TUE", "dateTime": 1519408796298}, {"current_trial": 142, "trialdata": {"rt": -1, "trial_type": "single-stim", "stimulus": "<p id=\"stim\">2</p>", "internal_node_id": "0.0-98.0-8.0", "time_elapsed": 805979, "key_press": -1, "trial_index": 142}, "uniqueid": "MTK2825:3Y54SXRO1MSLCZUJ571Y5DAHMR0TUE", "dateTime": 1519408797300}, {"current_trial": 143, "trialdata": {"rt": -1, "trial_type": "single-stim", "stimulus": "<p id=\"stim\">1</p>", "internal_node_id": "0.0-98.0-9.0", "time_elapsed": 806981, "key_press": -1, "trial_index": 143}, "uniqueid": "MTK2825:3Y54SXRO1MSLCZUJ571Y5DAHMR0TUE", "dateTime": 1519408798302}, {"current_trial": 144, "trialdata": {"rt": -1, "trial_type": "single-stim", "stimulus": "<p id=\"stim\">+</p>", "internal_node_id": "0.0-99.0-0.0", "time_elapsed": 808483, "key_press": -1, "type": "FIXATION", "trial_index": 144}, "uniqueid": "MTK2825:3Y54SXRO1MSLCZUJ571Y5DAHMR0TUE", "dateTime": 1519408799804}, {"current_trial": 145, "trialdata": {"rt": -1000, "trial_type": "single-audio", "word": "hound", "stimulus": "/static/audio/wordpool/HOUND.wav", "conditions": [12, 1600, "a", 24000], "internal_node_id": "0.0-100.0", "trial": 4, "time_elapsed": 811183, "serialpos": 0, "key_press": -1, "wordID": 723, "type": "PRES_AUD", "trial_index": 145}, "uniqueid": "MTK2825:3Y54SXRO1MSLCZUJ571Y5DAHMR0TUE", "dateTime": 1519408802504}, {"current_trial": 146, "trialdata": {"rt": -1000, "trial_type": "single-audio", "word": "scribble", "stimulus": "/static/audio/wordpool/SCRIBBLE.wav", "conditions": [12, 1600, "a", 24000], "internal_node_id": "0.0-101.0", "trial": 4, "time_elapsed": 813767, "serialpos": 1, "key_press": -1, "wordID": 1255, "type": "PRES_AUD", "trial_index": 146}, "uniqueid": "MTK2825:3Y54SXRO1MSLCZUJ571Y5DAHMR0TUE", "dateTime": 1519408805089}, {"current_trial": 147, "trialdata": {"rt": -1000, "trial_type": "single-audio", "word": "drawing", "stimulus": "/static/audio/wordpool/DRAWING.wav", "conditions": [12, 1600, "a", 24000], "internal_node_id": "0.0-102.0", "trial": 4, "time_elapsed": 816540, "serialpos": 2, "key_press": -1, "wordID": 493, "type": "PRES_AUD", "trial_index": 147}, "uniqueid": "MTK2825:3Y54SXRO1MSLCZUJ571Y5DAHMR0TUE", "dateTime": 1519408807862}, {"current_trial": 148, "trialdata": {"rt": -1000, "trial_type": "single-audio", "word": "wagon", "stimulus": "/static/audio/wordpool/WAGON.wav", "conditions": [12, 1600, "a", 24000], "internal_node_id": "0.0-103.0", "trial": 4, "time_elapsed": 818959, "serialpos": 3, "key_press": -1, "wordID": 1577, "type": "PRES_AUD", "trial_index": 148}, "uniqueid": "MTK2825:3Y54SXRO1MSLCZUJ571Y5DAHMR0TUE", "dateTime": 1519408810280}, {"current_trial": 149, "trialdata": {"rt": -1000, "trial_type": "single-audio", "word": "milk", "stimulus": "/static/audio/wordpool/MILK.wav", "conditions": [12, 1600, "a", 24000], "internal_node_id": "0.0-104.0", "trial": 4, "time_elapsed": 821500, "serialpos": 4, "key_press": -1, "wordID": 894, "type": "PRES_AUD", "trial_index": 149}, "uniqueid": "MTK2825:3Y54SXRO1MSLCZUJ571Y5DAHMR0TUE", "dateTime": 1519408812821}, {"current_trial": 150, "trialdata": {"rt": -1000, "trial_type": "single-audio", "word": "viking", "stimulus": "/static/audio/wordpool/VIKING.wav", "conditions": [12, 1600, "a", 24000], "internal_node_id": "0.0-105.0", "trial": 4, "time_elapsed": 824163, "serialpos": 5, "key_press": -1, "wordID": 1564, "type": "PRES_AUD", "trial_index": 150}, "uniqueid": "MTK2825:3Y54SXRO1MSLCZUJ571Y5DAHMR0TUE", "dateTime": 1519408815484}, {"current_trial": 151, "trialdata": {"rt": -1000, "trial_type": "single-audio", "word": "omelet", "stimulus": "/static/audio/wordpool/OMELET.wav", "conditions": [12, 1600, "a", 24000], "internal_node_id": "0.0-106.0", "trial": 4, "time_elapsed": 826738, "serialpos": 6, "key_press": -1, "wordID": 975, "type": "PRES_AUD", "trial_index": 151}, "uniqueid": "MTK2825:3Y54SXRO1MSLCZUJ571Y5DAHMR0TUE", "dateTime": 1519408818059}, {"current_trial": 152, "trialdata": {"rt": -1000, "trial_type": "single-audio", "word": "shortcake", "stimulus": "/static/audio/wordpool/SHORTCAKE.wav", "conditions": [12, 1600, "a", 24000], "internal_node_id": "0.0-107.0", "trial": 4, "time_elapsed": 829415, "serialpos": 7, "key_press": -1, "wordID": 1291, "type": "PRES_AUD", "trial_index": 152}, "uniqueid": "MTK2825:3Y54SXRO1MSLCZUJ571Y5DAHMR0TUE", "dateTime": 1519408820736}, {"current_trial": 153, "trialdata": {"rt": -1000, "trial_type": "single-audio", "word": "tractor", "stimulus": "/static/audio/wordpool/TRACTOR.wav", "conditions": [12, 1600, "a", 24000], "internal_node_id": "0.0-108.0", "trial": 4, "time_elapsed": 832217, "serialpos": 8, "key_press": -1, "wordID": 1492, "type": "PRES_AUD", "trial_index": 153}, "uniqueid": "MTK2825:3Y54SXRO1MSLCZUJ571Y5DAHMR0TUE", "dateTime": 1519408823538}, {"current_trial": 154, "trialdata": {"rt": -1000, "trial_type": "single-audio", "word": "grill", "stimulus": "/static/audio/wordpool/GRILL.wav", "conditions": [12, 1600, "a", 24000], "internal_node_id": "0.0-109.0", "trial": 4, "time_elapsed": 834985, "serialpos": 9, "key_press": -1, "wordID": 660, "type": "PRES_AUD", "trial_index": 154}, "uniqueid": "MTK2825:3Y54SXRO1MSLCZUJ571Y5DAHMR0TUE", "dateTime": 1519408826306}, {"current_trial": 155, "trialdata": {"rt": -1000, "trial_type": "single-audio", "word": "portrait", "stimulus": "/static/audio/wordpool/PORTRAIT.wav", "conditions": [12, 1600, "a", 24000], "internal_node_id": "0.0-110.0", "trial": 4, "time_elapsed": 837526, "serialpos": 10, "key_press": -1, "wordID": 1110, "type": "PRES_AUD", "trial_index": 155}, "uniqueid": "MTK2825:3Y54SXRO1MSLCZUJ571Y5DAHMR0TUE", "dateTime": 1519408828847}, {"current_trial": 156, "trialdata": {"rt": -1000, "trial_type": "single-audio", "word": "carrot", "stimulus": "/static/audio/wordpool/CARROT.wav", "conditions": [12, 1600, "a", 24000], "internal_node_id": "0.0-111.0", "trial": 4, "time_elapsed": 840007, "serialpos": 11, "key_press": -1, "wordID": 248, "type": "PRES_AUD", "trial_index": 156}, "uniqueid": "MTK2825:3Y54SXRO1MSLCZUJ571Y5DAHMR0TUE", "dateTime": 1519408831328}, {"current_trial": 157, "trialdata": {"rt": -1, "trial_type": "single-stim", "stimulus": "", "internal_node_id": "0.0-112.0-0.0", "time_elapsed": 841387, "key_press": -1, "type": "PRE_RECALL_DELAY", "trial_index": 157}, "uniqueid": "MTK2825:3Y54SXRO1MSLCZUJ571Y5DAHMR0TUE", "dateTime": 1519408832709}, {"current_trial": 158, "trialdata": {"rt": -1000, "trial_type": "single-audio", "stimulus": "/static/audio/400Hz.wav", "internal_node_id": "0.0-113.0", "time_elapsed": 841891, "key_press": -1, "type": "PRE_RECALL_ALERT", "trial_index": 158}, "uniqueid": "MTK2825:3Y54SXRO1MSLCZUJ571Y5DAHMR0TUE", "dateTime": 1519408833212}, {"current_trial": 159, "trialdata": {"rt": [3898, 17066, 20754, 24130, 30241, 36193, 42298, 48953, 52930, 56273], "recwords": ["carrot", "portrait", "tractor", "grill", "pound", "scrabble", "viking", "omlet", "short", "cake"], "key_times": [1875, 2122, 2386, 2554, 2673, 2930, 3898, 5618, 5866, 6042, 6354, 6634, 6938, 7219, 7402, 8410, 9906, 10106, 15170, 15849, 16130, 17066, 18498, 18786, 19042, 19337, 19626, 19738, 19906, 20754, 22385, 22722, 22810, 23066, 23242, 24130, 27642, 28618, 28897, 29153, 29386, 30241, 32906, 33298, 33642, 33938, 34218, 34514, 35330, 35490, 36193, 38677, 39090, 40258, 40866, 41130, 41322, 41522, 41706, 42298, 45386, 46522, 47234, 47498, 47794, 48010, 48242, 48953, 51977, 52098, 52258, 52426, 52642, 52930, 53266, 55210, 55354, 55538, 56273], "trial_type": "free-recall", "conditions": [12, 1600, "a", 24000], "internal_node_id": "0.0-114.0-0.0", "key_presses": [67, 65, 82, 82, 79, 84, 13, 80, 79, 82, 84, 82, 65, 82, 73, 220, 8, 8, 8, 73, 84, 13, 84, 82, 65, 67, 84, 79, 82, 13, 71, 82, 73, 76, 76, 13, 80, 79, 85, 78, 68, 13, 83, 67, 82, 65, 66, 66, 76, 69, 13, 86, 85, 8, 73, 75, 73, 78, 71, 13, 73, 8, 79, 77, 76, 69, 84, 13, 83, 72, 79, 82, 84, 32, 67, 65, 75, 69, 13], "trial": 4, "time_elapsed": 901894, "type": "FREE_RECALL", "trial_index": 159}, "uniqueid": "MTK2825:3Y54SXRO1MSLCZUJ571Y5DAHMR0TUE", "dateTime": 1519408893219}, {"current_trial": 160, "trialdata": {"rt": 5523, "trial_type": "text", "internal_node_id": "0.0-115.0", "time_elapsed": 909422, "key_press": 66, "type": "INSTRUCTIONS", "trial_index": 160}, "uniqueid": "MTK2825:3Y54SXRO1MSLCZUJ571Y5DAHMR0TUE", "dateTime": 1519408900743}, {"current_trial": 161, "trialdata": {"rt": [4284, 6204, 8085, 10228], "trial_type": "math-distractor", "key_times": [3589, 3797, 4284, 5461, 5685, 6204, 7565, 7773, 8085, 9589, 9821, 10228], "responses": ["14", "16", "11", "14"], "num2": [1, 5, 6, 2, 1], "num3": [8, 6, 3, 5, 9], "conditions": [24, 800, "a", 12000], "internal_node_id": "0.0-116.0", "key_presses": [97, 100, 13, 97, 102, 13, 97, 97, 13, 97, 100, 13], "trial": 5, "time_elapsed": 923426, "type": "DISTRACTOR", "trial_index": 161, "num1": [5, 5, 2, 7, 7]}, "uniqueid": "MTK2825:3Y54SXRO1MSLCZUJ571Y5DAHMR0TUE", "dateTime": 1519408914747}, {"current_trial": 162, "trialdata": {"rt": -1, "trial_type": "single-stim", "stimulus": "<p id=\"stim\">10</p>", "internal_node_id": "0.0-117.0-0.0", "time_elapsed": 926430, "key_press": -1, "trial_index": 162}, "uniqueid": "MTK2825:3Y54SXRO1MSLCZUJ571Y5DAHMR0TUE", "dateTime": 1519408917751}, {"current_trial": 163, "trialdata": {"rt": -1, "trial_type": "single-stim", "stimulus": "<p id=\"stim\">9</p>", "internal_node_id": "0.0-117.0-1.0", "time_elapsed": 927431, "key_press": -1, "trial_index": 163}, "uniqueid": "MTK2825:3Y54SXRO1MSLCZUJ571Y5DAHMR0TUE", "dateTime": 1519408918752}, {"current_trial": 164, "trialdata": {"rt": -1, "trial_type": "single-stim", "stimulus": "<p id=\"stim\">8</p>", "internal_node_id": "0.0-117.0-2.0", "time_elapsed": 928433, "key_press": -1, "trial_index": 164}, "uniqueid": "MTK2825:3Y54SXRO1MSLCZUJ571Y5DAHMR0TUE", "dateTime": 1519408919755}, {"current_trial": 165, "trialdata": {"rt": -1, "trial_type": "single-stim", "stimulus": "<p id=\"stim\">7</p>", "internal_node_id": "0.0-117.0-3.0", "time_elapsed": 929437, "key_press": -1, "trial_index": 165}, "uniqueid": "MTK2825:3Y54SXRO1MSLCZUJ571Y5DAHMR0TUE", "dateTime": 1519408920758}, {"current_trial": 166, "trialdata": {"rt": -1, "trial_type": "single-stim", "stimulus": "<p id=\"stim\">6</p>", "internal_node_id": "0.0-117.0-4.0", "time_elapsed": 930439, "key_press": -1, "trial_index": 166}, "uniqueid": "MTK2825:3Y54SXRO1MSLCZUJ571Y5DAHMR0TUE", "dateTime": 1519408921760}, {"current_trial": 167, "trialdata": {"rt": -1, "trial_type": "single-stim", "stimulus": "<p id=\"stim\">5</p>", "internal_node_id": "0.0-117.0-5.0", "time_elapsed": 931441, "key_press": -1, "trial_index": 167}, "uniqueid": "MTK2825:3Y54SXRO1MSLCZUJ571Y5DAHMR0TUE", "dateTime": 1519408922762}, {"current_trial": 168, "trialdata": {"rt": -1, "trial_type": "single-stim", "stimulus": "<p id=\"stim\">4</p>", "internal_node_id": "0.0-117.0-6.0", "time_elapsed": 932442, "key_press": -1, "trial_index": 168}, "uniqueid": "MTK2825:3Y54SXRO1MSLCZUJ571Y5DAHMR0TUE", "dateTime": 1519408923763}, {"current_trial": 169, "trialdata": {"rt": -1, "trial_type": "single-stim", "stimulus": "<p id=\"stim\">3</p>", "internal_node_id": "0.0-117.0-7.0", "time_elapsed": 933445, "key_press": -1, "trial_index": 169}, "uniqueid": "MTK2825:3Y54SXRO1MSLCZUJ571Y5DAHMR0TUE", "dateTime": 1519408924766}, {"current_trial": 170, "trialdata": {"rt": -1, "trial_type": "single-stim", "stimulus": "<p id=\"stim\">2</p>", "internal_node_id": "0.0-117.0-8.0", "time_elapsed": 934445, "key_press": -1, "trial_index": 170}, "uniqueid": "MTK2825:3Y54SXRO1MSLCZUJ571Y5DAHMR0TUE", "dateTime": 1519408925766}, {"current_trial": 171, "trialdata": {"rt": -1, "trial_type": "single-stim", "stimulus": "<p id=\"stim\">1</p>", "internal_node_id": "0.0-117.0-9.0", "time_elapsed": 935447, "key_press": -1, "trial_index": 171}, "uniqueid": "MTK2825:3Y54SXRO1MSLCZUJ571Y5DAHMR0TUE", "dateTime": 1519408926768}, {"current_trial": 172, "trialdata": {"rt": -1, "trial_type": "single-stim", "stimulus": "<p id=\"stim\">+</p>", "internal_node_id": "0.0-118.0-0.0", "time_elapsed": 936949, "key_press": -1, "type": "FIXATION", "trial_index": 172}, "uniqueid": "MTK2825:3Y54SXRO1MSLCZUJ571Y5DAHMR0TUE", "dateTime": 1519408928270}, {"current_trial": 173, "trialdata": {"rt": -1000, "trial_type": "single-audio", "word": "salad", "stimulus": "/static/audio/wordpool/SALAD.wav", "conditions": [24, 800, "a", 12000], "internal_node_id": "0.0-119.0", "trial": 5, "time_elapsed": 938657, "serialpos": 0, "key_press": -1, "wordID": 1223, "type": "PRES_AUD", "trial_index": 173}, "uniqueid": "MTK2825:3Y54SXRO1MSLCZUJ571Y5DAHMR0TUE", "dateTime": 1519408929978}, {"current_trial": 174, "trialdata": {"rt": -1000, "trial_type": "single-audio", "word": "sword", "stimulus": "/static/audio/wordpool/SWORD.wav", "conditions": [24, 800, "a", 12000], "internal_node_id": "0.0-120.0", "trial": 5, "time_elapsed": 940436, "serialpos": 1, "key_press": -1, "wordID": 1422, "type": "PRES_AUD", "trial_index": 174}, "uniqueid": "MTK2825:3Y54SXRO1MSLCZUJ571Y5DAHMR0TUE", "dateTime": 1519408931757}, {"current_trial": 175, "trialdata": {"rt": -1000, "trial_type": "single-audio", "word": "slug", "stimulus": "/static/audio/wordpool/SLUG.wav", "conditions": [24, 800, "a", 12000], "internal_node_id": "0.0-121.0", "trial": 5, "time_elapsed": 942334, "serialpos": 2, "key_press": -1, "wordID": 1328, "type": "PRES_AUD", "trial_index": 175}, "uniqueid": "MTK2825:3Y54SXRO1MSLCZUJ571Y5DAHMR0TUE", "dateTime": 1519408933655}, {"current_trial": 176, "trialdata": {"rt": -1000, "trial_type": "single-audio", "word": "citrus", "stimulus": "/static/audio/wordpool/CITRUS.wav", "conditions": [24, 800, "a", 12000], "internal_node_id": "0.0-122.0", "trial": 5, "time_elapsed": 944077, "serialpos": 3, "key_press": -1, "wordID": 312, "type": "PRES_AUD", "trial_index": 176}, "uniqueid": "MTK2825:3Y54SXRO1MSLCZUJ571Y5DAHMR0TUE", "dateTime": 1519408935398}, {"current_trial": 177, "trialdata": {"rt": -1000, "trial_type": "single-audio", "word": "brandy", "stimulus": "/static/audio/wordpool/BRANDY.wav", "conditions": [24, 800, "a", 12000], "internal_node_id": "0.0-123.0", "trial": 5, "time_elapsed": 945986, "serialpos": 4, "key_press": -1, "wordID": 168, "type": "PRES_AUD", "trial_index": 177}, "uniqueid": "MTK2825:3Y54SXRO1MSLCZUJ571Y5DAHMR0TUE", "dateTime": 1519408937307}, {"current_trial": 178, "trialdata": {"rt": -1000, "trial_type": "single-audio", "word": "rabbit", "stimulus": "/static/audio/wordpool/RABBIT.wav", "conditions": [24, 800, "a", 12000], "internal_node_id": "0.0-124.0", "trial": 5, "time_elapsed": 947907, "serialpos": 5, "key_press": -1, "wordID": 1151, "type": "PRES_AUD", "trial_index": 178}, "uniqueid": "MTK2825:3Y54SXRO1MSLCZUJ571Y5DAHMR0TUE", "dateTime": 1519408939228}, {"current_trial": 179, "trialdata": {"rt": -1000, "trial_type": "single-audio", "word": "bunny", "stimulus": "/static/audio/wordpool/BUNNY.wav", "conditions": [24, 800, "a", 12000], "internal_node_id": "0.0-125.0", "trial": 5, "time_elapsed": 949577, "serialpos": 6, "key_press": -1, "wordID": 197, "type": "PRES_AUD", "trial_index": 179}, "uniqueid": "MTK2825:3Y54SXRO1MSLCZUJ571Y5DAHMR0TUE", "dateTime": 1519408940898}, {"current_trial": 180, "trialdata": {"rt": -1000, "trial_type": "single-audio", "word": "honey", "stimulus": "/static/audio/wordpool/HONEY.wav", "conditions": [24, 800, "a", 12000], "internal_node_id": "0.0-126.0", "trial": 5, "time_elapsed": 951514, "serialpos": 7, "key_press": -1, "wordID": 712, "type": "PRES_AUD", "trial_index": 180}, "uniqueid": "MTK2825:3Y54SXRO1MSLCZUJ571Y5DAHMR0TUE", "dateTime": 1519408942835}, {"current_trial": 181, "trialdata": {"rt": -1000, "trial_type": "single-audio", "word": "braces", "stimulus": "/static/audio/wordpool/BRACES.wav", "conditions": [24, 800, "a", 12000], "internal_node_id": "0.0-127.0", "trial": 5, "time_elapsed": 953452, "serialpos": 8, "key_press": -1, "wordID": 163, "type": "PRES_AUD", "trial_index": 181}, "uniqueid": "MTK2825:3Y54SXRO1MSLCZUJ571Y5DAHMR0TUE", "dateTime": 1519408944773}, {"current_trial": 182, "trialdata": {"rt": -1000, "trial_type": "single-audio", "word": "luggage", "stimulus": "/static/audio/wordpool/LUGGAGE.wav", "conditions": [24, 800, "a", 12000], "internal_node_id": "0.0-128.0", "trial": 5, "time_elapsed": 955361, "serialpos": 9, "key_press": -1, "wordID": 846, "type": "PRES_AUD", "trial_index": 182}, "uniqueid": "MTK2825:3Y54SXRO1MSLCZUJ571Y5DAHMR0TUE", "dateTime": 1519408946682}, {"current_trial": 183, "trialdata": {"rt": -1000, "trial_type": "single-audio", "word": "ox", "stimulus": "/static/audio/wordpool/OX.wav", "conditions": [24, 800, "a", 12000], "internal_node_id": "0.0-129.0", "trial": 5, "time_elapsed": 957363, "serialpos": 10, "key_press": -1, "wordID": 993, "type": "PRES_AUD", "trial_index": 183}, "uniqueid": "MTK2825:3Y54SXRO1MSLCZUJ571Y5DAHMR0TUE", "dateTime": 1519408948684}, {"current_trial": 184, "trialdata": {"rt": -1000, "trial_type": "single-audio", "word": "garlic", "stimulus": "/static/audio/wordpool/GARLIC.wav", "conditions": [24, 800, "a", 12000], "internal_node_id": "0.0-130.0", "trial": 5, "time_elapsed": 959154, "serialpos": 11, "key_press": -1, "wordID": 623, "type": "PRES_AUD", "trial_index": 184}, "uniqueid": "MTK2825:3Y54SXRO1MSLCZUJ571Y5DAHMR0TUE", "dateTime": 1519408950475}, {"current_trial": 185, "trialdata": {"rt": -1000, "trial_type": "single-audio", "word": "apple", "stimulus": "/static/audio/wordpool/APPLE.wav", "conditions": [24, 800, "a", 12000], "internal_node_id": "0.0-131.0", "trial": 5, "time_elapsed": 960953, "serialpos": 12, "key_press": -1, "wordID": 32, "type": "PRES_AUD", "trial_index": 185}, "uniqueid": "MTK2825:3Y54SXRO1MSLCZUJ571Y5DAHMR0TUE", "dateTime": 1519408952275}, {"current_trial": 186, "trialdata": {"rt": -1000, "trial_type": "single-audio", "word": "parsley", "stimulus": "/static/audio/wordpool/PARSLEY.wav", "conditions": [24, 800, "a", 12000], "internal_node_id": "0.0-132.0", "trial": 5, "time_elapsed": 962614, "serialpos": 13, "key_press": -1, "wordID": 1015, "type": "PRES_AUD", "trial_index": 186}, "uniqueid": "MTK2825:3Y54SXRO1MSLCZUJ571Y5DAHMR0TUE", "dateTime": 1519408953935}, {"current_trial": 187, "trialdata": {"rt": -1000, "trial_type": "single-audio", "word": "inmate", "stimulus": "/static/audio/wordpool/INMATE.wav", "conditions": [24, 800, "a", 12000], "internal_node_id": "0.0-133.0", "trial": 5, "time_elapsed": 964326, "serialpos": 14, "key_press": -1, "wordID": 737, "type": "PRES_AUD", "trial_index": 187}, "uniqueid": "MTK2825:3Y54SXRO1MSLCZUJ571Y5DAHMR0TUE", "dateTime": 1519408955647}, {"current_trial": 188, "trialdata": {"rt": -1000, "trial_type": "single-audio", "word": "bank", "stimulus": "/static/audio/wordpool/BANK.wav", "conditions": [24, 800, "a", 12000], "internal_node_id": "0.0-134.0", "trial": 5, "time_elapsed": 966174, "serialpos": 15, "key_press": -1, "wordID": 82, "type": "PRES_AUD", "trial_index": 188}, "uniqueid": "MTK2825:3Y54SXRO1MSLCZUJ571Y5DAHMR0TUE", "dateTime": 1519408957495}, {"current_trial": 189, "trialdata": {"rt": -1000, "trial_type": "single-audio", "word": "lettuce", "stimulus": "/static/audio/wordpool/LETTUCE.wav", "conditions": [24, 800, "a", 12000], "internal_node_id": "0.0-135.0", "trial": 5, "time_elapsed": 968129, "serialpos": 16, "key_press": -1, "wordID": 813, "type": "PRES_AUD", "trial_index": 189}, "uniqueid": "MTK2825:3Y54SXRO1MSLCZUJ571Y5DAHMR0TUE", "dateTime": 1519408959451}, {"current_trial": 190, "trialdata": {"rt": -1000, "trial_type": "single-audio", "word": "suspect", "stimulus": "/static/audio/wordpool/SUSPECT.wav", "conditions": [24, 800, "a", 12000], "internal_node_id": "0.0-136.0", "trial": 5, "time_elapsed": 969962, "serialpos": 17, "key_press": -1, "wordID": 1414, "type": "PRES_AUD", "trial_index": 190}, "uniqueid": "MTK2825:3Y54SXRO1MSLCZUJ571Y5DAHMR0TUE", "dateTime": 1519408961283}, {"current_trial": 191, "trialdata": {"rt": -1000, "trial_type": "single-audio", "word": "spoon", "stimulus": "/static/audio/wordpool/SPOON.wav", "conditions": [24, 800, "a", 12000], "internal_node_id": "0.0-137.0", "trial": 5, "time_elapsed": 971577, "serialpos": 18, "key_press": -1, "wordID": 1356, "type": "PRES_AUD", "trial_index": 191}, "uniqueid": "MTK2825:3Y54SXRO1MSLCZUJ571Y5DAHMR0TUE", "dateTime": 1519408962898}, {"current_trial": 192, "trialdata": {"rt": -1000, "trial_type": "single-audio", "word": "velvet", "stimulus": "/static/audio/wordpool/VELVET.wav", "conditions": [24, 800, "a", 12000], "internal_node_id": "0.0-138.0", "trial": 5, "time_elapsed": 973410, "serialpos": 19, "key_press": -1, "wordID": 1554, "type": "PRES_AUD", "trial_index": 192}, "uniqueid": "MTK2825:3Y54SXRO1MSLCZUJ571Y5DAHMR0TUE", "dateTime": 1519408964731}, {"current_trial": 193, "trialdata": {"rt": -1000, "trial_type": "single-audio", "word": "crab", "stimulus": "/static/audio/wordpool/CRAB.wav", "conditions": [24, 800, "a", 12000], "internal_node_id": "0.0-139.0", "trial": 5, "time_elapsed": 975319, "serialpos": 20, "key_press": -1, "wordID": 396, "type": "PRES_AUD", "trial_index": 193}, "uniqueid": "MTK2825:3Y54SXRO1MSLCZUJ571Y5DAHMR0TUE", "dateTime": 1519408966640}, {"current_trial": 194, "trialdata": {"rt": -1000, "trial_type": "single-audio", "word": "clam", "stimulus": "/static/audio/wordpool/CLAM.wav", "conditions": [24, 800, "a", 12000], "internal_node_id": "0.0-140.0", "trial": 5, "time_elapsed": 977120, "serialpos": 21, "key_press": -1, "wordID": 314, "type": "PRES_AUD", "trial_index": 194}, "uniqueid": "MTK2825:3Y54SXRO1MSLCZUJ571Y5DAHMR0TUE", "dateTime": 1519408968441}, {"current_trial": 195, "trialdata": {"rt": -1000, "trial_type": "single-audio", "word": "puddle", "stimulus": "/static/audio/wordpool/PUDDLE.wav", "conditions": [24, 800, "a", 12000], "internal_node_id": "0.0-141.0", "trial": 5, "time_elapsed": 979128, "serialpos": 22, "key_press": -1, "wordID": 1139, "type": "PRES_AUD", "trial_index": 195}, "uniqueid": "MTK2825:3Y54SXRO1MSLCZUJ571Y5DAHMR0TUE", "dateTime": 1519408970449}, {"current_trial": 196, "trialdata": {"rt": -1000, "trial_type": "single-audio", "word": "ketchup", "stimulus": "/static/audio/wordpool/KETCHUP.wav", "conditions": [24, 800, "a", 12000], "internal_node_id": "0.0-142.0", "trial": 5, "time_elapsed": 980756, "serialpos": 23, "key_press": -1, "wordID": 770, "type": "PRES_AUD", "trial_index": 196}, "uniqueid": "MTK2825:3Y54SXRO1MSLCZUJ571Y5DAHMR0TUE", "dateTime": 1519408972077}, {"current_trial": 197, "trialdata": {"rt": -1, "trial_type": "single-stim", "stimulus": "", "internal_node_id": "0.0-143.0-0.0", "time_elapsed": 982033, "key_press": -1, "type": "PRE_RECALL_DELAY", "trial_index": 197}, "uniqueid": "MTK2825:3Y54SXRO1MSLCZUJ571Y5DAHMR0TUE", "dateTime": 1519408973354}, {"current_trial": 198, "trialdata": {"rt": -1000, "trial_type": "single-audio", "stimulus": "/static/audio/400Hz.wav", "internal_node_id": "0.0-144.0", "time_elapsed": 982541, "key_press": -1, "type": "PRE_RECALL_ALERT", "trial_index": 198}, "uniqueid": "MTK2825:3Y54SXRO1MSLCZUJ571Y5DAHMR0TUE", "dateTime": 1519408973862}, {"current_trial": 199, "trialdata": {"rt": [7441, 13697, 18192, 23592, 26905, 31721, 35872, 38472, 40784, 45704, 49392, 53216, 57425], "recwords": ["puddle", "catsup", "salad", "slug", "lettuce", "suspect", "brandy", "rabbit", "bunny", "luggage", "ox", "garlic", "parsley"], "key_times": [2681, 2992, 3825, 4120, 5129, 5353, 6201, 6401, 6561, 6704, 7441, 8865, 9112, 9385, 12217, 12713, 12936, 13697, 16369, 16657, 16808, 17041, 17401, 18192, 19217, 19417, 22497, 22729, 23592, 24793, 24969, 25249, 25440, 25569, 25856, 26128, 26905, 28905, 29153, 29401, 29608, 29817, 30073, 30392, 31721, 33921, 34272, 34529, 34649, 34809, 35104, 35872, 36520, 36832, 37145, 37369, 37585, 37792, 38472, 39048, 39409, 39689, 39857, 40097, 40784, 42928, 43265, 43617, 43841, 44114, 44656, 44953, 45704, 48481, 48688, 49392, 50344, 50857, 51448, 51752, 51993, 52168, 52353, 52545, 53216, 54849, 55689, 55897, 56153, 56329, 56505, 56728, 57425], "trial_type": "free-recall", "conditions": [24, 800, "a", 12000], "internal_node_id": "0.0-145.0-0.0", "key_presses": [80, 85, 70, 70, 8, 8, 68, 68, 76, 69, 13, 67, 65, 84, 83, 85, 80, 13, 83, 65, 76, 65, 68, 13, 83, 76, 85, 71, 13, 76, 69, 84, 84, 85, 67, 69, 13, 83, 85, 83, 80, 69, 67, 84, 13, 66, 82, 65, 78, 68, 89, 13, 82, 65, 66, 66, 73, 84, 13, 66, 85, 78, 78, 89, 13, 76, 85, 71, 71, 65, 71, 69, 13, 79, 88, 13, 71, 82, 8, 65, 82, 76, 73, 67, 13, 80, 65, 82, 83, 76, 69, 89, 13], "trial": 5, "time_elapsed": 1042543, "type": "FREE_RECALL", "trial_index": 199}, "uniqueid": "MTK2825:3Y54SXRO1MSLCZUJ571Y5DAHMR0TUE", "dateTime": 1519409033869}, {"current_trial": 200, "trialdata": {"rt": 2206, "trial_type": "text", "internal_node_id": "0.0-146.0", "time_elapsed": 1046758, "key_press": 66, "type": "INSTRUCTIONS", "trial_index": 200}, "uniqueid": "MTK2825:3Y54SXRO1MSLCZUJ571Y5DAHMR0TUE", "dateTime": 1519409038079}, {"current_trial": 201, "trialdata": {"rt": [3181, 6942, 9262, 12445, 12945, 12978, 13011, 13044, 13077, 13110, 13143, 13176, 13209, 13242, 13275, 13309, 13341, 13374, 13407, 13440, 13473, 13506, 13540, 13572, 13604, 13638, 13671, 13704, 13737, 13770, 13803, 13836, 13869, 13903, 13935, 13969, 14001, 14034, 14068, 14101, 14133, 14166, 14200, 14233, 14265, 14298, 14331, 18910, 19409, 19441, 19475, 19508, 19541, 19573, 19607, 19640, 19673, 19706, 19739, 19772, 19806, 19839, 19871, 19905, 19938, 19970, 20003, 20037, 20069, 20102, 20135, 20167, 20201, 20233, 20267, 20300, 20334, 20367, 20399, 20432, 20466, 20498, 20532, 20565, 20597, 20630, 20663, 20696, 20729, 20762, 20796, 20828, 20861, 20894, 20928, 20961, 20993, 21026, 21058, 21092, 21124, 21157, 21192, 21224, 21257, 21289, 21323, 21356, 21389, 21422, 21455], "trial_type": "math-distractor", "key_times": [2406, 2646, 3181, 4550, 5853, 6357, 6565, 6942, 8774, 9262, 11262, 11542, 12445, 12945, 12978, 13011, 13044, 13077, 13110, 13143, 13176, 13209, 13242, 13275, 13309, 13341, 13374, 13407, 13440, 13473, 13506, 13540, 13572, 13604, 13638, 13671, 13704, 13737, 13770, 13803, 13836, 13869, 13903, 13935, 13969, 14001, 14034, 14068, 14101, 14133, 14166, 14200, 14233, 14265, 14298, 14331, 16334, 16878, 17702, 18037, 18910, 19409, 19441, 19475, 19508, 19541, 19573, 19607, 19640, 19673, 19706, 19739, 19772, 19806, 19839, 19871, 19905, 19938, 19970, 20003, 20037, 20069, 20102, 20135, 20167, 20201, 20233, 20267, 20300, 20334, 20367, 20399, 20432, 20466, 20498, 20532, 20565, 20597, 20630, 20663, 20696, 20729, 20762, 20796, 20828, 20861, 20894, 20928, 20961, 20993, 21026, 21058, 21092, 21124, 21157, 21192, 21224, 21257, 21289, 21323, 21356, 21389, 21422, 21455, 23862], "responses": ["19", "15", "8", "10", "", "", "", "", "", "", "", "", "", "", "", "", "", "", "", "", "", "", "", "", "", "", "", "", "", "", "", "", "", "", "", "", "", "", "", "", "", "", "", "", "", "", "", "12", "", "", "", "", "", "", "", "", "", "", "", "", "", "", "", "", "", "", "", "", "", "", "", "", "", "", "", "", "", "", "", "", "", "", "", "", "", "", "", "", "", "", "", "", "", "", "", "", "", "", "", "", "", "", "", "", "", "", "", "", "", "", ""], "num2": [6, 5, 2, 1, 3, 9, 7, 7, 6, 8, 1, 3, 8, 3, 2, 5, 2, 4, 5, 6, 2, 1, 1, 4, 6, 8, 5, 4, 4, 6, 1, 2, 8, 4, 1, 1, 6, 6, 2, 5, 4, 3, 3, 9, 6, 5, 4, 2, 4, 8, 5, 6, 6, 3, 4, 8, 7, 2, 9, 4, 6, 3, 2, 7, 3, 3, 1, 5, 9, 3, 6, 3, 4, 1, 2, 2, 7, 4, 9, 5, 2, 7, 4, 1, 3, 8, 6, 8, 1, 4, 2, 4, 5, 1, 6, 3, 7, 8, 3, 5, 4, 2, 5, 6, 2, 3, 8, 9, 8, 1, 2, 7], "num3": [9, 5, 3, 2, 8, 2, 2, 9, 5, 8, 3, 9, 2, 4, 9, 8, 8, 9, 5, 1, 1, 2, 5, 1, 5, 4, 4, 2, 7, 2, 7, 5, 2, 2, 5, 5, 7, 3, 2, 5, 9, 7, 5, 8, 9, 6, 2, 5, 4, 2, 8, 2, 3, 6, 1, 1, 4, 7, 8, 3, 1, 1, 8, 3, 8, 4, 7, 8, 2, 9, 9, 2, 1, 2, 3, 3, 7, 6, 8, 7, 7, 2, 8, 1, 8, 5, 5, 2, 3, 3, 9, 5, 3, 6, 8, 2, 7, 4, 1, 9, 2, 2, 5, 7, 8, 1, 6, 2, 5, 6, 9, 1], "conditions": [24, 1600, "a", 24000], "internal_node_id": "0.0-147.0", "key_presses": [97, 105, 13, 101, 8, 97, 101, 13, 104, 13, 97, 96, 13, 13, 13, 13, 13, 13, 13, 13, 13, 13, 13, 13, 13, 13, 13, 13, 13, 13, 13, 13, 13, 13, 13, 13, 13, 13, 13, 13, 13, 13, 13, 13, 13, 13, 13, 13, 13, 13, 13, 13, 13, 13, 13, 13, 97, 101, 8, 98, 13, 13, 13, 13, 13, 13, 13, 13, 13, 13, 13, 13, 13, 13, 13, 13, 13, 13, 13, 13, 13, 13, 13, 13, 13, 13, 13, 13, 13, 13, 13, 13, 13, 13, 13, 13, 13, 13, 13, 13, 13, 13, 13, 13, 13, 13, 13, 13, 13, 13, 13, 13, 13, 13, 13, 13, 13, 13, 13, 13, 13, 13, 13, 13, 97], "trial": 6, "time_elapsed": 1072762, "type": "DISTRACTOR", "trial_index": 201, "num1": [4, 5, 3, 7, 6, 3, 4, 2, 9, 8, 9, 6, 1, 1, 4, 6, 8, 3, 1, 4, 2, 3, 4, 3, 3, 7, 4, 2, 7, 6, 9, 4, 8, 4, 6, 5, 1, 1, 3, 2, 4, 3, 5, 3, 9, 8, 6, 5, 9, 6, 9, 3, 5, 9, 6, 2, 1, 8, 9, 9, 7, 3, 4, 4, 4, 2, 8, 4, 4, 5, 2, 1, 4, 2, 5, 6, 2, 6, 9, 4, 8, 3, 9, 4, 3, 8, 8, 6, 2, 5, 3, 4, 9, 1, 4, 7, 9, 7, 5, 2, 3, 7, 7, 7, 3, 4, 4, 9, 2, 7, 4, 9]}, "uniqueid": "MTK2825:3Y54SXRO1MSLCZUJ571Y5DAHMR0TUE", "dateTime": 1519409064083}, {"current_trial": 202, "trialdata": {"rt": -1, "trial_type": "single-stim", "stimulus": "<p id=\"stim\">10</p>", "internal_node_id": "0.0-148.0-0.0", "time_elapsed": 1075764, "key_press": -1, "trial_index": 202}, "uniqueid": "MTK2825:3Y54SXRO1MSLCZUJ571Y5DAHMR0TUE", "dateTime": 1519409067085}, {"current_trial": 203, "trialdata": {"rt": -1, "trial_type": "single-stim", "stimulus": "<p id=\"stim\">9</p>", "internal_node_id": "0.0-148.0-1.0", "time_elapsed": 1076767, "key_press": -1, "trial_index": 203}, "uniqueid": "MTK2825:3Y54SXRO1MSLCZUJ571Y5DAHMR0TUE", "dateTime": 1519409068088}, {"current_trial": 204, "trialdata": {"rt": -1, "trial_type": "single-stim", "stimulus": "<p id=\"stim\">8</p>", "internal_node_id": "0.0-148.0-2.0", "time_elapsed": 1077768, "key_press": -1, "trial_index": 204}, "uniqueid": "MTK2825:3Y54SXRO1MSLCZUJ571Y5DAHMR0TUE", "dateTime": 1519409069089}, {"current_trial": 205, "trialdata": {"rt": -1, "trial_type": "single-stim", "stimulus": "<p id=\"stim\">7</p>", "internal_node_id": "0.0-148.0-3.0", "time_elapsed": 1078771, "key_press": -1, "trial_index": 205}, "uniqueid": "MTK2825:3Y54SXRO1MSLCZUJ571Y5DAHMR0TUE", "dateTime": 1519409070092}, {"current_trial": 206, "trialdata": {"rt": -1, "trial_type": "single-stim", "stimulus": "<p id=\"stim\">6</p>", "internal_node_id": "0.0-148.0-4.0", "time_elapsed": 1079774, "key_press": -1, "trial_index": 206}, "uniqueid": "MTK2825:3Y54SXRO1MSLCZUJ571Y5DAHMR0TUE", "dateTime": 1519409071095}, {"current_trial": 207, "trialdata": {"rt": -1, "trial_type": "single-stim", "stimulus": "<p id=\"stim\">5</p>", "internal_node_id": "0.0-148.0-5.0", "time_elapsed": 1080776, "key_press": -1, "trial_index": 207}, "uniqueid": "MTK2825:3Y54SXRO1MSLCZUJ571Y5DAHMR0TUE", "dateTime": 1519409072097}, {"current_trial": 208, "trialdata": {"rt": -1, "trial_type": "single-stim", "stimulus": "<p id=\"stim\">4</p>", "internal_node_id": "0.0-148.0-6.0", "time_elapsed": 1081778, "key_press": -1, "trial_index": 208}, "uniqueid": "MTK2825:3Y54SXRO1MSLCZUJ571Y5DAHMR0TUE", "dateTime": 1519409073099}, {"current_trial": 209, "trialdata": {"rt": -1, "trial_type": "single-stim", "stimulus": "<p id=\"stim\">3</p>", "internal_node_id": "0.0-148.0-7.0", "time_elapsed": 1082780, "key_press": -1, "trial_index": 209}, "uniqueid": "MTK2825:3Y54SXRO1MSLCZUJ571Y5DAHMR0TUE", "dateTime": 1519409074101}, {"current_trial": 210, "trialdata": {"rt": -1, "trial_type": "single-stim", "stimulus": "<p id=\"stim\">2</p>", "internal_node_id": "0.0-148.0-8.0", "time_elapsed": 1083782, "key_press": -1, "trial_index": 210}, "uniqueid": "MTK2825:3Y54SXRO1MSLCZUJ571Y5DAHMR0TUE", "dateTime": 1519409075103}, {"current_trial": 211, "trialdata": {"rt": -1, "trial_type": "single-stim", "stimulus": "<p id=\"stim\">1</p>", "internal_node_id": "0.0-148.0-9.0", "time_elapsed": 1084785, "key_press": -1, "trial_index": 211}, "uniqueid": "MTK2825:3Y54SXRO1MSLCZUJ571Y5DAHMR0TUE", "dateTime": 1519409076106}, {"current_trial": 212, "trialdata": {"rt": -1, "trial_type": "single-stim", "stimulus": "<p id=\"stim\">+</p>", "internal_node_id": "0.0-149.0-0.0", "time_elapsed": 1086287, "key_press": -1, "type": "FIXATION", "trial_index": 212}, "uniqueid": "MTK2825:3Y54SXRO1MSLCZUJ571Y5DAHMR0TUE", "dateTime": 1519409077609}, {"current_trial": 213, "trialdata": {"rt": -1000, "trial_type": "single-audio", "word": "brother", "stimulus": "/static/audio/wordpool/BROTHER.wav", "conditions": [24, 1600, "a", 24000], "internal_node_id": "0.0-150.0", "trial": 6, "time_elapsed": 1088898, "serialpos": 0, "key_press": -1, "wordID": 178, "type": "PRES_AUD", "trial_index": 213}, "uniqueid": "MTK2825:3Y54SXRO1MSLCZUJ571Y5DAHMR0TUE", "dateTime": 1519409080219}, {"current_trial": 214, "trialdata": {"rt": -1000, "trial_type": "single-audio", "word": "brick", "stimulus": "/static/audio/wordpool/BRICK.wav", "conditions": [24, 1600, "a", 24000], "internal_node_id": "0.0-151.0", "trial": 6, "time_elapsed": 1091545, "serialpos": 1, "key_press": -1, "wordID": 171, "type": "PRES_AUD", "trial_index": 214}, "uniqueid": "MTK2825:3Y54SXRO1MSLCZUJ571Y5DAHMR0TUE", "dateTime": 1519409082866}, {"current_trial": 215, "trialdata": {"rt": -1000, "trial_type": "single-audio", "word": "stone", "stimulus": "/static/audio/wordpool/STONE.wav", "conditions": [24, 1600, "a", 24000], "internal_node_id": "0.0-152.0", "trial": 6, "time_elapsed": 1093980, "serialpos": 2, "key_press": -1, "wordID": 1384, "type": "PRES_AUD", "trial_index": 215}, "uniqueid": "MTK2825:3Y54SXRO1MSLCZUJ571Y5DAHMR0TUE", "dateTime": 1519409085301}, {"current_trial": 216, "trialdata": {"rt": -1000, "trial_type": "single-audio", "word": "pigeon", "stimulus": "/static/audio/wordpool/PIGEON.wav", "conditions": [24, 1600, "a", 24000], "internal_node_id": "0.0-153.0", "trial": 6, "time_elapsed": 1096724, "serialpos": 3, "key_press": -1, "wordID": 1064, "type": "PRES_AUD", "trial_index": 216}, "uniqueid": "MTK2825:3Y54SXRO1MSLCZUJ571Y5DAHMR0TUE", "dateTime": 1519409088045}, {"current_trial": 217, "trialdata": {"rt": -1000, "trial_type": "single-audio", "word": "jelly", "stimulus": "/static/audio/wordpool/JELLY.wav", "conditions": [24, 1600, "a", 24000], "internal_node_id": "0.0-154.0", "trial": 6, "time_elapsed": 1099251, "serialpos": 4, "key_press": -1, "wordID": 754, "type": "PRES_AUD", "trial_index": 217}, "uniqueid": "MTK2825:3Y54SXRO1MSLCZUJ571Y5DAHMR0TUE", "dateTime": 1519409090572}, {"current_trial": 218, "trialdata": {"rt": -1000, "trial_type": "single-audio", "word": "gangster", "stimulus": "/static/audio/wordpool/GANGSTER.wav", "conditions": [24, 1600, "a", 24000], "internal_node_id": "0.0-155.0", "trial": 6, "time_elapsed": 1101664, "serialpos": 5, "key_press": -1, "wordID": 619, "type": "PRES_AUD", "trial_index": 218}, "uniqueid": "MTK2825:3Y54SXRO1MSLCZUJ571Y5DAHMR0TUE", "dateTime": 1519409092985}, {"current_trial": 219, "trialdata": {"rt": -1000, "trial_type": "single-audio", "word": "rooster", "stimulus": "/static/audio/wordpool/ROOSTER.wav", "conditions": [24, 1600, "a", 24000], "internal_node_id": "0.0-156.0", "trial": 6, "time_elapsed": 1104253, "serialpos": 6, "key_press": -1, "wordID": 1208, "type": "PRES_AUD", "trial_index": 219}, "uniqueid": "MTK2825:3Y54SXRO1MSLCZUJ571Y5DAHMR0TUE", "dateTime": 1519409095574}, {"current_trial": 220, "trialdata": {"rt": -1000, "trial_type": "single-audio", "word": "tile", "stimulus": "/static/audio/wordpool/TILE.wav", "conditions": [24, 1600, "a", 24000], "internal_node_id": "0.0-157.0", "trial": 6, "time_elapsed": 1106807, "serialpos": 7, "key_press": -1, "wordID": 1467, "type": "PRES_AUD", "trial_index": 220}, "uniqueid": "MTK2825:3Y54SXRO1MSLCZUJ571Y5DAHMR0TUE", "dateTime": 1519409098128}, {"current_trial": 221, "trialdata": {"rt": -1000, "trial_type": "single-audio", "word": "lodge", "stimulus": "/static/audio/wordpool/LODGE.wav", "conditions": [24, 1600, "a", 24000], "internal_node_id": "0.0-158.0", "trial": 6, "time_elapsed": 1109273, "serialpos": 8, "key_press": -1, "wordID": 838, "type": "PRES_AUD", "trial_index": 221}, "uniqueid": "MTK2825:3Y54SXRO1MSLCZUJ571Y5DAHMR0TUE", "dateTime": 1519409100595}, {"current_trial": 222, "trialdata": {"rt": -1000, "trial_type": "single-audio", "word": "girl", "stimulus": "/static/audio/wordpool/GIRL.wav", "conditions": [24, 1600, "a", 24000], "internal_node_id": "0.0-159.0", "trial": 6, "time_elapsed": 1111858, "serialpos": 9, "key_press": -1, "wordID": 636, "type": "PRES_AUD", "trial_index": 222}, "uniqueid": "MTK2825:3Y54SXRO1MSLCZUJ571Y5DAHMR0TUE", "dateTime": 1519409103179}, {"current_trial": 223, "trialdata": {"rt": -1000, "trial_type": "single-audio", "word": "wife", "stimulus": "/static/audio/wordpool/WIFE.wav", "conditions": [24, 1600, "a", 24000], "internal_node_id": "0.0-160.0", "trial": 6, "time_elapsed": 1114509, "serialpos": 10, "key_press": -1, "wordID": 1608, "type": "PRES_AUD", "trial_index": 223}, "uniqueid": "MTK2825:3Y54SXRO1MSLCZUJ571Y5DAHMR0TUE", "dateTime": 1519409105830}, {"current_trial": 224, "trialdata": {"rt": -1000, "trial_type": "single-audio", "word": "server", "stimulus": "/static/audio/wordpool/SERVER.wav", "conditions": [24, 1600, "a", 24000], "internal_node_id": "0.0-161.0", "trial": 6, "time_elapsed": 1117053, "serialpos": 11, "key_press": -1, "wordID": 1271, "type": "PRES_AUD", "trial_index": 224}, "uniqueid": "MTK2825:3Y54SXRO1MSLCZUJ571Y5DAHMR0TUE", "dateTime": 1519409108374}, {"current_trial": 225, "trialdata": {"rt": -1000, "trial_type": "single-audio", "word": "popcorn", "stimulus": "/static/audio/wordpool/POPCORN.wav", "conditions": [24, 1600, "a", 24000], "internal_node_id": "0.0-162.0", "trial": 6, "time_elapsed": 1119729, "serialpos": 12, "key_press": -1, "wordID": 1103, "type": "PRES_AUD", "trial_index": 225}, "uniqueid": "MTK2825:3Y54SXRO1MSLCZUJ571Y5DAHMR0TUE", "dateTime": 1519409111050}, {"current_trial": 226, "trialdata": {"rt": -1000, "trial_type": "single-audio", "word": "journal", "stimulus": "/static/audio/wordpool/JOURNAL.wav", "conditions": [24, 1600, "a", 24000], "internal_node_id": "0.0-163.0", "trial": 6, "time_elapsed": 1122269, "serialpos": 13, "key_press": -1, "wordID": 759, "type": "PRES_AUD", "trial_index": 226}, "uniqueid": "MTK2825:3Y54SXRO1MSLCZUJ571Y5DAHMR0TUE", "dateTime": 1519409113590}, {"current_trial": 227, "trialdata": {"rt": -1000, "trial_type": "single-audio", "word": "peanut", "stimulus": "/static/audio/wordpool/PEANUT.wav", "conditions": [24, 1600, "a", 24000], "internal_node_id": "0.0-164.0", "trial": 6, "time_elapsed": 1125051, "serialpos": 14, "key_press": -1, "wordID": 1031, "type": "PRES_AUD", "trial_index": 227}, "uniqueid": "MTK2825:3Y54SXRO1MSLCZUJ571Y5DAHMR0TUE", "dateTime": 1519409116372}, {"current_trial": 228, "trialdata": {"rt": -1000, "trial_type": "single-audio", "word": "kleenex", "stimulus": "/static/audio/wordpool/KLEENEX.wav", "conditions": [24, 1600, "a", 24000], "internal_node_id": "0.0-165.0", "trial": 6, "time_elapsed": 1127703, "serialpos": 15, "key_press": -1, "wordID": 781, "type": "PRES_AUD", "trial_index": 228},