{"assignmentId": "3FTYUGLFSVSXAV87IGTBSX0FHWYD5P", "workerId": "MTK2006", "questiondata": {"origin": "United States", "strat-rehearsal": "15", "marital": "Single", "education": "Less than diploma", "ethnicity": "Not Hispanic", "color_depth": 24, "distracted": "No", "wrote-notes": "No", "strat-other": "I tried to view the items in my mind, and also grouped them into categories.", "screen_width": 1366, "avail_screen_width": 1366, "avail_screen_height": 720, "strat-image": "75", "language": "English", "gender": "Female", "age": "28", "gender_other": "", "race": [], "strat-categorize": "70", "pixel_depth": 24, "strat-spatial": "31", "strat-story": "37", "race_other": "Middle Eastern", "screen_height": 768}, "bonus": 0, "hitId": "31JUPBOORNBX85H73TT0YAMRAJGL8D", "counterbalance": 2549, "useragent": "Mozilla/5.0 (X11; CrOS x86_64 10032.86.0) AppleWebKit/537.36 (KHTML, like Gecko) Chrome/63.0.3239.140 Safari/537.36", "eventdata": [{"eventtype": "initialized", "interval": 0, "value": null, "timestamp": 1516645748517}, {"eventtype": "window_resize", "interval": 0, "value": [1366, 648], "timestamp": 1516645748517}, {"eventtype": "focus", "interval": 36439, "value": "off", "timestamp": 1516645784956}, {"eventtype": "focus", "interval": 10666, "value": "on", "timestamp": 1516645795622}, {"eventtype": "focus", "interval": 2141975, "value": "off", "timestamp": 1516647937597}, {"eventtype": "focus", "interval": 201, "value": "on", "timestamp": 1516647937798}, {"eventtype": "focus", "interval": 42192, "value": "off", "timestamp": 1516647979990}, {"eventtype": "focus", "interval": 9210, "value": "on", "timestamp": 1516647989200}, {"eventtype": "focus", "interval": 33896, "value": "off", "timestamp": 1516648023096}, {"eventtype": "focus", "interval": 795838, "value": "on", "timestamp": 1516648818934}, {"eventtype": "focus", "interval": 279783, "value": "off", "timestamp": 1516649098717}, {"eventtype": "focus", "interval": 370879, "value": "on", "timestamp": 1516649469596}, {"eventtype": "focus", "interval": 444039, "value": "off", "timestamp": 1516649913635}, {"eventtype": "focus", "interval": 11608, "value": "on", "timestamp": 1516649925243}, {"eventtype": "focus", "interval": 32121, "value": "off", "timestamp": 1516649957364}, {"eventtype": "focus", "interval": 1613, "value": "on", "timestamp": 1516649958977}, {"eventtype": "focus", "interval": 3176, "value": "off", "timestamp": 1516649962153}, {"eventtype": "focus", "interval": 1522, "value": "on", "timestamp": 1516649963675}, {"eventtype": "focus", "interval": 2202, "value": "off", "timestamp": 1516649965877}, {"eventtype": "focus", "interval": 294556, "value": "on", "timestamp": 1516650260433}, {"eventtype": "focus", "interval": 96484, "value": "off", "timestamp": 1516650356917}, {"eventtype": "focus", "interval": 57524, "value": "on", "timestamp": 1516650414441}, {"eventtype": "focus", "interval": 120883, "value": "off", "timestamp": 1516650535324}, {"eventtype": "focus", "interval": 53192, "value": "on", "timestamp": 1516650588516}], "data": [{"current_trial": 0, "trialdata": {"rt": 1879, "trial_type": "text", "internal_node_id": "0.0-0.0", "time_elapsed": 1884, "key_press": 32, "type": "INSTRUCTIONS", "trial_index": 0}, "uniqueid": "MTK2006:3FTYUGLFSVSXAV87IGTBSX0FHWYD5P", "dateTime": 1516645751259}, {"current_trial": 1, "trialdata": {"rt": 20273, "trial_type": "text", "internal_node_id": "0.0-1.0", "time_elapsed": 22163, "key_press": 32, "type": "INSTRUCTIONS", "trial_index": 1}, "uniqueid": "MTK2006:3FTYUGLFSVSXAV87IGTBSX0FHWYD5P", "dateTime": 1516645771537}, {"current_trial": 2, "trialdata": {"rt": [31292], "trial_type": "audio-test", "responses": ["ocean"], "internal_node_id": "0.0-2.0", "time_elapsed": 53519, "type": "AUDIO_TEST", "trial_index": 2}, "uniqueid": "MTK2006:3FTYUGLFSVSXAV87IGTBSX0FHWYD5P", "dateTime": 1516645802892}, {"current_trial": 3, "trialdata": {"rt": [7214], "trial_type": "audio-test", "responses": ["crystal"], "internal_node_id": "0.0-3.0", "time_elapsed": 60745, "type": "AUDIO_TEST", "trial_index": 3}, "uniqueid": "MTK2006:3FTYUGLFSVSXAV87IGTBSX0FHWYD5P", "dateTime": 1516645810118}, {"current_trial": 4, "trialdata": {"rt": [5417], "trial_type": "audio-test", "responses": ["spice"], "internal_node_id": "0.0-4.0", "time_elapsed": 66173, "type": "AUDIO_TEST", "trial_index": 4}, "uniqueid": "MTK2006:3FTYUGLFSVSXAV87IGTBSX0FHWYD5P", "dateTime": 1516645815546}, {"current_trial": 5, "trialdata": {"rt": 19753, "trial_type": "survey-text", "responses": "{\"Q0\":\"12:30\",\"Q1\":\"6:30\",\"Q2\":\"2\"}", "internal_node_id": "0.0-5.0", "time_elapsed": 86683, "type": "SLEEP_SURVEY", "trial_index": 5}, "uniqueid": "MTK2006:3FTYUGLFSVSXAV87IGTBSX0FHWYD5P", "dateTime": 1516645836057}, {"current_trial": 6, "trialdata": {"rt": 221527, "trial_type": "text", "internal_node_id": "0.0-6.0", "time_elapsed": 309216, "key_press": 32, "type": "INSTRUCTIONS", "trial_index": 6}, "uniqueid": "MTK2006:3FTYUGLFSVSXAV87IGTBSX0FHWYD5P", "dateTime": 1516646058589}, {"current_trial": 7, "trialdata": {"rt": 38344, "trial_type": "text", "internal_node_id": "0.0-7.0", "time_elapsed": 348062, "key_press": 32, "type": "INSTRUCTIONS", "trial_index": 7}, "uniqueid": "MTK2006:3FTYUGLFSVSXAV87IGTBSX0FHWYD5P", "dateTime": 1516646097435}, {"current_trial": 8, "trialdata": {"rt": 11115, "trial_type": "text", "internal_node_id": "0.0-8.0", "time_elapsed": 359679, "key_press": 32, "type": "INSTRUCTIONS", "trial_index": 8}, "uniqueid": "MTK2006:3FTYUGLFSVSXAV87IGTBSX0FHWYD5P", "dateTime": 1516646109052}, {"current_trial": 9, "trialdata": {"rt": [5880, 8313, 12156, 15262, 17778], "trial_type": "math-distractor", "key_times": [5033, 5340, 5880, 7606, 7756, 8313, 11006, 11213, 12156, 14508, 14825, 15262, 16978, 17283, 17778], "responses": ["16", "11", "12", "14", "13"], "num2": [9, 9, 4, 3, 1, 8], "num3": [4, 1, 3, 2, 6, 8], "conditions": [18, 1200, "v", 18000], "internal_node_id": "0.0-9.0", "key_presses": [49, 54, 13, 49, 49, 13, 49, 50, 13, 49, 52, 13, 49, 51, 13], "trial": 0, "time_elapsed": 378712, "type": "DISTRACTOR", "trial_index": 9, "num1": [3, 1, 5, 9, 6, 2]}, "uniqueid": "MTK2006:3FTYUGLFSVSXAV87IGTBSX0FHWYD5P", "dateTime": 1516646128085}, {"current_trial": 10, "trialdata": {"rt": -1, "trial_type": "single-stim", "stimulus": "<p id=\"stim\">10</p>", "internal_node_id": "0.0-10.0-0.0", "time_elapsed": 381716, "key_press": -1, "trial_index": 10}, "uniqueid": "MTK2006:3FTYUGLFSVSXAV87IGTBSX0FHWYD5P", "dateTime": 1516646131089}, {"current_trial": 11, "trialdata": {"rt": -1, "trial_type": "single-stim", "stimulus": "<p id=\"stim\">9</p>", "internal_node_id": "0.0-10.0-1.0", "time_elapsed": 382719, "key_press": -1, "trial_index": 11}, "uniqueid": "MTK2006:3FTYUGLFSVSXAV87IGTBSX0FHWYD5P", "dateTime": 1516646132093}, {"current_trial": 12, "trialdata": {"rt": -1, "trial_type": "single-stim", "stimulus": "<p id=\"stim\">8</p>", "internal_node_id": "0.0-10.0-2.0", "time_elapsed": 383723, "key_press": -1, "trial_index": 12}, "uniqueid": "MTK2006:3FTYUGLFSVSXAV87IGTBSX0FHWYD5P", "dateTime": 1516646133096}, {"current_trial": 13, "trialdata": {"rt": -1, "trial_type": "single-stim", "stimulus": "<p id=\"stim\">7</p>", "internal_node_id": "0.0-10.0-3.0", "time_elapsed": 384726, "key_press": -1, "trial_index": 13}, "uniqueid": "MTK2006:3FTYUGLFSVSXAV87IGTBSX0FHWYD5P", "dateTime": 1516646134099}, {"current_trial": 14, "trialdata": {"rt": -1, "trial_type": "single-stim", "stimulus": "<p id=\"stim\">6</p>", "internal_node_id": "0.0-10.0-4.0", "time_elapsed": 385729, "key_press": -1, "trial_index": 14}, "uniqueid": "MTK2006:3FTYUGLFSVSXAV87IGTBSX0FHWYD5P", "dateTime": 1516646135104}, {"current_trial": 15, "trialdata": {"rt": -1, "trial_type": "single-stim", "stimulus": "<p id=\"stim\">5</p>", "internal_node_id": "0.0-10.0-5.0", "time_elapsed": 386735, "key_press": -1, "trial_index": 15}, "uniqueid": "MTK2006:3FTYUGLFSVSXAV87IGTBSX0FHWYD5P", "dateTime": 1516646136108}, {"current_trial": 16, "trialdata": {"rt": -1, "trial_type": "single-stim", "stimulus": "<p id=\"stim\">4</p>", "internal_node_id": "0.0-10.0-6.0", "time_elapsed": 387738, "key_press": -1, "trial_index": 16}, "uniqueid": "MTK2006:3FTYUGLFSVSXAV87IGTBSX0FHWYD5P", "dateTime": 1516646137112}, {"current_trial": 17, "trialdata": {"rt": -1, "trial_type": "single-stim", "stimulus": "<p id=\"stim\">3</p>", "internal_node_id": "0.0-10.0-7.0", "time_elapsed": 388740, "key_press": -1, "trial_index": 17}, "uniqueid": "MTK2006:3FTYUGLFSVSXAV87IGTBSX0FHWYD5P", "dateTime": 1516646138114}, {"current_trial": 18, "trialdata": {"rt": -1, "trial_type": "single-stim", "stimulus": "<p id=\"stim\">2</p>", "internal_node_id": "0.0-10.0-8.0", "time_elapsed": 389742, "key_press": -1, "trial_index": 18}, "uniqueid": "MTK2006:3FTYUGLFSVSXAV87IGTBSX0FHWYD5P", "dateTime": 1516646139116}, {"current_trial": 19, "trialdata": {"rt": -1, "trial_type": "single-stim", "stimulus": "<p id=\"stim\">1</p>", "internal_node_id": "0.0-10.0-9.0", "time_elapsed": 390744, "key_press": -1, "trial_index": 19}, "uniqueid": "MTK2006:3FTYUGLFSVSXAV87IGTBSX0FHWYD5P", "dateTime": 1516646140117}, {"current_trial": 20, "trialdata": {"rt": -1, "trial_type": "single-stim", "stimulus": "<p id=\"stim\">+</p>", "internal_node_id": "0.0-11.0-0.0", "time_elapsed": 392247, "key_press": -1, "type": "FIXATION", "trial_index": 20}, "uniqueid": "MTK2006:3FTYUGLFSVSXAV87IGTBSX0FHWYD5P", "dateTime": 1516646141620}, {"current_trial": 21, "trialdata": {"rt": -1, "trial_type": "single-stim", "word": "kidney", "stimulus": "<p id=\"stim\">KIDNEY</p>", "conditions": [18, 1200, "v", 18000], "internal_node_id": "0.0-12.0", "trial": 0, "time_elapsed": 393449, "serialpos": 0, "key_press": -1, "wordID": 775, "type": "PRES_VIS", "trial_index": 21}, "uniqueid": "MTK2006:3FTYUGLFSVSXAV87IGTBSX0FHWYD5P", "dateTime": 1516646142822}, {"current_trial": 22, "trialdata": {"rt": -1, "trial_type": "single-stim", "word": "highway", "stimulus": "<p id=\"stim\">HIGHWAY</p>", "conditions": [18, 1200, "v", 18000], "internal_node_id": "0.0-13.0", "trial": 0, "time_elapsed": 395485, "serialpos": 1, "key_press": -1, "wordID": 706, "type": "PRES_VIS", "trial_index": 22}, "uniqueid": "MTK2006:3FTYUGLFSVSXAV87IGTBSX0FHWYD5P", "dateTime": 1516646144858}, {"current_trial": 23, "trialdata": {"rt": -1, "trial_type": "single-stim", "word": "whistle", "stimulus": "<p id=\"stim\">WHISTLE</p>", "conditions": [18, 1200, "v", 18000], "internal_node_id": "0.0-14.0", "trial": 0, "time_elapsed": 397826, "serialpos": 2, "key_press": -1, "wordID": 1605, "type": "PRES_VIS", "trial_index": 23}, "uniqueid": "MTK2006:3FTYUGLFSVSXAV87IGTBSX0FHWYD5P", "dateTime": 1516646147200}, {"current_trial": 24, "trialdata": {"rt": -1, "trial_type": "single-stim", "word": "survey", "stimulus": "<p id=\"stim\">SURVEY</p>", "conditions": [18, 1200, "v", 18000], "internal_node_id": "0.0-15.0", "trial": 0, "time_elapsed": 400039, "serialpos": 3, "key_press": -1, "wordID": 1413, "type": "PRES_VIS", "trial_index": 24}, "uniqueid": "MTK2006:3FTYUGLFSVSXAV87IGTBSX0FHWYD5P", "dateTime": 1516646149412}, {"current_trial": 25, "trialdata": {"rt": -1, "trial_type": "single-stim", "word": "plaster", "stimulus": "<p id=\"stim\">PLASTER</p>", "conditions": [18, 1200, "v", 18000], "internal_node_id": "0.0-16.0", "trial": 0, "time_elapsed": 402129, "serialpos": 4, "key_press": -1, "wordID": 1084, "type": "PRES_VIS", "trial_index": 25}, "uniqueid": "MTK2006:3FTYUGLFSVSXAV87IGTBSX0FHWYD5P", "dateTime": 1516646151502}, {"current_trial": 26, "trialdata": {"rt": -1, "trial_type": "single-stim", "word": "author", "stimulus": "<p id=\"stim\">AUTHOR</p>", "conditions": [18, 1200, "v", 18000], "internal_node_id": "0.0-17.0", "trial": 0, "time_elapsed": 404179, "serialpos": 5, "key_press": -1, "wordID": 60, "type": "PRES_VIS", "trial_index": 26}, "uniqueid": "MTK2006:3FTYUGLFSVSXAV87IGTBSX0FHWYD5P", "dateTime": 1516646153552}, {"current_trial": 27, "trialdata": {"rt": -1, "trial_type": "single-stim", "word": "loft", "stimulus": "<p id=\"stim\">LOFT</p>", "conditions": [18, 1200, "v", 18000], "internal_node_id": "0.0-18.0", "trial": 0, "time_elapsed": 406214, "serialpos": 6, "key_press": -1, "wordID": 839, "type": "PRES_VIS", "trial_index": 27}, "uniqueid": "MTK2006:3FTYUGLFSVSXAV87IGTBSX0FHWYD5P", "dateTime": 1516646155587}, {"current_trial": 28, "trialdata": {"rt": -1, "trial_type": "single-stim", "word": "camel", "stimulus": "<p id=\"stim\">CAMEL</p>", "conditions": [18, 1200, "v", 18000], "internal_node_id": "0.0-19.0", "trial": 0, "time_elapsed": 408591, "serialpos": 7, "key_press": -1, "wordID": 222, "type": "PRES_VIS", "trial_index": 28}, "uniqueid": "MTK2006:3FTYUGLFSVSXAV87IGTBSX0FHWYD5P", "dateTime": 1516646157964}, {"current_trial": 29, "trialdata": {"rt": -1, "trial_type": "single-stim", "word": "cocktail", "stimulus": "<p id=\"stim\">COCKTAIL</p>", "conditions": [18, 1200, "v", 18000], "internal_node_id": "0.0-20.0", "trial": 0, "time_elapsed": 410793, "serialpos": 8, "key_press": -1, "wordID": 337, "type": "PRES_VIS", "trial_index": 29}, "uniqueid": "MTK2006:3FTYUGLFSVSXAV87IGTBSX0FHWYD5P", "dateTime": 1516646160166}, {"current_trial": 30, "trialdata": {"rt": -1, "trial_type": "single-stim", "word": "omelet", "stimulus": "<p id=\"stim\">OMELET</p>", "conditions": [18, 1200, "v", 18000], "internal_node_id": "0.0-21.0", "trial": 0, "time_elapsed": 412834, "serialpos": 9, "key_press": -1, "wordID": 975, "type": "PRES_VIS", "trial_index": 30}, "uniqueid": "MTK2006:3FTYUGLFSVSXAV87IGTBSX0FHWYD5P", "dateTime": 1516646162208}, {"current_trial": 31, "trialdata": {"rt": -1, "trial_type": "single-stim", "word": "lily", "stimulus": "<p id=\"stim\">LILY</p>", "conditions": [18, 1200, "v", 18000], "internal_node_id": "0.0-22.0", "trial": 0, "time_elapsed": 415120, "serialpos": 10, "key_press": -1, "wordID": 820, "type": "PRES_VIS", "trial_index": 31}, "uniqueid": "MTK2006:3FTYUGLFSVSXAV87IGTBSX0FHWYD5P", "dateTime": 1516646164493}, {"current_trial": 32, "trialdata": {"rt": -1, "trial_type": "single-stim", "word": "tart", "stimulus": "<p id=\"stim\">TART</p>", "conditions": [18, 1200, "v", 18000], "internal_node_id": "0.0-23.0", "trial": 0, "time_elapsed": 417337, "serialpos": 11, "key_press": -1, "wordID": 1435, "type": "PRES_VIS", "trial_index": 32}, "uniqueid": "MTK2006:3FTYUGLFSVSXAV87IGTBSX0FHWYD5P", "dateTime": 1516646166710}, {"current_trial": 33, "trialdata": {"rt": -1, "trial_type": "single-stim", "word": "critic", "stimulus": "<p id=\"stim\">CRITIC</p>", "conditions": [18, 1200, "v", 18000], "internal_node_id": "0.0-24.0", "trial": 0, "time_elapsed": 419435, "serialpos": 12, "key_press": -1, "wordID": 409, "type": "PRES_VIS", "trial_index": 33}, "uniqueid": "MTK2006:3FTYUGLFSVSXAV87IGTBSX0FHWYD5P", "dateTime": 1516646168809}, {"current_trial": 34, "trialdata": {"rt": -1, "trial_type": "single-stim", "word": "donor", "stimulus": "<p id=\"stim\">DONOR</p>", "conditions": [18, 1200, "v", 18000], "internal_node_id": "0.0-25.0", "trial": 0, "time_elapsed": 421806, "serialpos": 13, "key_press": -1, "wordID": 484, "type": "PRES_VIS", "trial_index": 34}, "uniqueid": "MTK2006:3FTYUGLFSVSXAV87IGTBSX0FHWYD5P", "dateTime": 1516646171179}, {"current_trial": 35, "trialdata": {"rt": -1, "trial_type": "single-stim", "word": "bubble", "stimulus": "<p id=\"stim\">BUBBLE</p>", "conditions": [18, 1200, "v", 18000], "internal_node_id": "0.0-26.0", "trial": 0, "time_elapsed": 424131, "serialpos": 14, "key_press": -1, "wordID": 182, "type": "PRES_VIS", "trial_index": 35}, "uniqueid": "MTK2006:3FTYUGLFSVSXAV87IGTBSX0FHWYD5P", "dateTime": 1516646173504}, {"current_trial": 36, "trialdata": {"rt": -1, "trial_type": "single-stim", "word": "worker", "stimulus": "<p id=\"stim\">WORKER</p>", "conditions": [18, 1200, "v", 18000], "internal_node_id": "0.0-27.0", "trial": 0, "time_elapsed": 426182, "serialpos": 15, "key_press": -1, "wordID": 1620, "type": "PRES_VIS", "trial_index": 36}, "uniqueid": "MTK2006:3FTYUGLFSVSXAV87IGTBSX0FHWYD5P", "dateTime": 1516646175555}, {"current_trial": 37, "trialdata": {"rt": -1, "trial_type": "single-stim", "word": "hawk", "stimulus": "<p id=\"stim\">HAWK</p>", "conditions": [18, 1200, "v", 18000], "internal_node_id": "0.0-28.0", "trial": 0, "time_elapsed": 428299, "serialpos": 16, "key_press": -1, "wordID": 691, "type": "PRES_VIS", "trial_index": 37}, "uniqueid": "MTK2006:3FTYUGLFSVSXAV87IGTBSX0FHWYD5P", "dateTime": 1516646177672}, {"current_trial": 38, "trialdata": {"rt": -1, "trial_type": "single-stim", "word": "taxi", "stimulus": "<p id=\"stim\">TAXI</p>", "conditions": [18, 1200, "v", 18000], "internal_node_id": "0.0-29.0", "trial": 0, "time_elapsed": 430322, "serialpos": 17, "key_press": -1, "wordID": 1437, "type": "PRES_VIS", "trial_index": 38}, "uniqueid": "MTK2006:3FTYUGLFSVSXAV87IGTBSX0FHWYD5P", "dateTime": 1516646179695}, {"current_trial": 39, "trialdata": {"rt": -1, "trial_type": "single-stim", "stimulus": "", "internal_node_id": "0.0-30.0-0.0", "time_elapsed": 432609, "key_press": -1, "type": "PRE_RECALL_DELAY", "trial_index": 39}, "uniqueid": "MTK2006:3FTYUGLFSVSXAV87IGTBSX0FHWYD5P", "dateTime": 1516646181982}, {"current_trial": 40, "trialdata": {"rt": -1000, "trial_type": "single-audio", "stimulus": "/static/audio/400Hz.wav", "internal_node_id": "0.0-31.0", "time_elapsed": 433113, "key_press": -1, "type": "PRE_RECALL_ALERT", "trial_index": 40}, "uniqueid": "MTK2006:3FTYUGLFSVSXAV87IGTBSX0FHWYD5P", "dateTime": 1516646182486}, {"current_trial": 41, "trialdata": {"rt": [2908, 4169, 5466, 12409, 22466, 33436, 40682], "recwords": ["hawk", "taxi", "lily", "bubble", "omlete", "author", "whistle"], "key_times": [1737, 1898, 2083, 2453, 2908, 3195, 3337, 3538, 3772, 4169, 4418, 4604, 4813, 5048, 5466, 11423, 11591, 11777, 11965, 12106, 12217, 12409, 19771, 19931, 20132, 20255, 20385, 21302, 22466, 31648, 31811, 31964, 32085, 32205, 32273, 32803, 32935, 33139, 33229, 33436, 39665, 39788, 39831, 39985, 40107, 40284, 40434, 40682], "trial_type": "free-recall", "conditions": [18, 1200, "v", 18000], "internal_node_id": "0.0-32.0-0.0", "key_presses": [72, 65, 87, 75, 13, 84, 65, 88, 73, 13, 76, 73, 76, 89, 13, 66, 85, 66, 66, 76, 69, 13, 79, 77, 76, 69, 84, 69, 32, 65, 85, 84, 72, 69, 82, 8, 8, 79, 82, 13, 87, 72, 73, 83, 84, 76, 69, 13], "trial": 0, "time_elapsed": 493119, "type": "FREE_RECALL", "trial_index": 41}, "uniqueid": "MTK2006:3FTYUGLFSVSXAV87IGTBSX0FHWYD5P", "dateTime": 1516646242497}, {"current_trial": 42, "trialdata": {"rt": 9956, "trial_type": "text", "internal_node_id": "0.0-33.0", "time_elapsed": 505082, "key_press": 32, "type": "INSTRUCTIONS", "trial_index": 42}, "uniqueid": "MTK2006:3FTYUGLFSVSXAV87IGTBSX0FHWYD5P", "dateTime": 1516646254456}, {"current_trial": 43, "trialdata": {"rt": [6940, 11050, 14289, 16916], "trial_type": "math-distractor", "key_times": [5287, 5612, 6940, 10309, 10620, 11050, 13295, 13602, 14289, 16517, 16916], "responses": ["19", "17", "16", "6"], "num2": [9, 8, 2, 3, 3], "num3": [8, 2, 8, 1, 3], "conditions": [18, 1200, "v", 18000], "internal_node_id": "0.0-34.0", "key_presses": [49, 57, 13, 49, 55, 13, 49, 54, 13, 54, 13], "trial": 1, "time_elapsed": 525089, "type": "DISTRACTOR", "trial_index": 43, "num1": [2, 7, 6, 2, 9]}, "uniqueid": "MTK2006:3FTYUGLFSVSXAV87IGTBSX0FHWYD5P", "dateTime": 1516646274462}, {"current_trial": 44, "trialdata": {"rt": -1, "trial_type": "single-stim", "stimulus": "<p id=\"stim\">10</p>", "internal_node_id": "0.0-35.0-0.0", "time_elapsed": 528092, "key_press": -1, "trial_index": 44}, "uniqueid": "MTK2006:3FTYUGLFSVSXAV87IGTBSX0FHWYD5P", "dateTime": 1516646277466}, {"current_trial": 45, "trialdata": {"rt": -1, "trial_type": "single-stim", "stimulus": "<p id=\"stim\">9</p>", "internal_node_id": "0.0-35.0-1.0", "time_elapsed": 529095, "key_press": -1, "trial_index": 45}, "uniqueid": "MTK2006:3FTYUGLFSVSXAV87IGTBSX0FHWYD5P", "dateTime": 1516646278468}, {"current_trial": 46, "trialdata": {"rt": -1, "trial_type": "single-stim", "stimulus": "<p id=\"stim\">8</p>", "internal_node_id": "0.0-35.0-2.0", "time_elapsed": 530097, "key_press": -1, "trial_index": 46}, "uniqueid": "MTK2006:3FTYUGLFSVSXAV87IGTBSX0FHWYD5P", "dateTime": 1516646279471}, {"current_trial": 47, "trialdata": {"rt": -1, "trial_type": "single-stim", "stimulus": "<p id=\"stim\">7</p>", "internal_node_id": "0.0-35.0-3.0", "time_elapsed": 531100, "key_press": -1, "trial_index": 47}, "uniqueid": "MTK2006:3FTYUGLFSVSXAV87IGTBSX0FHWYD5P", "dateTime": 1516646280473}, {"current_trial": 48, "trialdata": {"rt": -1, "trial_type": "single-stim", "stimulus": "<p id=\"stim\">6</p>", "internal_node_id": "0.0-35.0-4.0", "time_elapsed": 532102, "key_press": -1, "trial_index": 48}, "uniqueid": "MTK2006:3FTYUGLFSVSXAV87IGTBSX0FHWYD5P", "dateTime": 1516646281475}, {"current_trial": 49, "trialdata": {"rt": -1, "trial_type": "single-stim", "stimulus": "<p id=\"stim\">5</p>", "internal_node_id": "0.0-35.0-5.0", "time_elapsed": 533104, "key_press": -1, "trial_index": 49}, "uniqueid": "MTK2006:3FTYUGLFSVSXAV87IGTBSX0FHWYD5P", "dateTime": 1516646282477}, {"current_trial": 50, "trialdata": {"rt": -1, "trial_type": "single-stim", "stimulus": "<p id=\"stim\">4</p>", "internal_node_id": "0.0-35.0-6.0", "time_elapsed": 534108, "key_press": -1, "trial_index": 50}, "uniqueid": "MTK2006:3FTYUGLFSVSXAV87IGTBSX0FHWYD5P", "dateTime": 1516646283481}, {"current_trial": 51, "trialdata": {"rt": -1, "trial_type": "single-stim", "stimulus": "<p id=\"stim\">3</p>", "internal_node_id": "0.0-35.0-7.0", "time_elapsed": 535110, "key_press": -1, "trial_index": 51}, "uniqueid": "MTK2006:3FTYUGLFSVSXAV87IGTBSX0FHWYD5P", "dateTime": 1516646284484}, {"current_trial": 52, "trialdata": {"rt": -1, "trial_type": "single-stim", "stimulus": "<p id=\"stim\">2</p>", "internal_node_id": "0.0-35.0-8.0", "time_elapsed": 536113, "key_press": -1, "trial_index": 52}, "uniqueid": "MTK2006:3FTYUGLFSVSXAV87IGTBSX0FHWYD5P", "dateTime": 1516646285487}, {"current_trial": 53, "trialdata": {"rt": -1, "trial_type": "single-stim", "stimulus": "<p id=\"stim\">1</p>", "internal_node_id": "0.0-35.0-9.0", "time_elapsed": 537116, "key_press": -1, "trial_index": 53}, "uniqueid": "MTK2006:3FTYUGLFSVSXAV87IGTBSX0FHWYD5P", "dateTime": 1516646286489}, {"current_trial": 54, "trialdata": {"rt": -1, "trial_type": "single-stim", "stimulus": "<p id=\"stim\">+</p>", "internal_node_id": "0.0-36.0-0.0", "time_elapsed": 538618, "key_press": -1, "type": "FIXATION", "trial_index": 54}, "uniqueid": "MTK2006:3FTYUGLFSVSXAV87IGTBSX0FHWYD5P", "dateTime": 1516646287991}, {"current_trial": 55, "trialdata": {"rt": -1, "trial_type": "single-stim", "word": "gymnast", "stimulus": "<p id=\"stim\">GYMNAST</p>", "conditions": [18, 1200, "v", 18000], "internal_node_id": "0.0-37.0", "trial": 1, "time_elapsed": 539820, "serialpos": 0, "key_press": -1, "wordID": 674, "type": "PRES_VIS", "trial_index": 55}, "uniqueid": "MTK2006:3FTYUGLFSVSXAV87IGTBSX0FHWYD5P", "dateTime": 1516646289194}, {"current_trial": 56, "trialdata": {"rt": -1, "trial_type": "single-stim", "word": "snack", "stimulus": "<p id=\"stim\">SNACK</p>", "conditions": [18, 1200, "v", 18000], "internal_node_id": "0.0-38.0", "trial": 1, "time_elapsed": 542146, "serialpos": 1, "key_press": -1, "wordID": 1330, "type": "PRES_VIS", "trial_index": 56}, "uniqueid": "MTK2006:3FTYUGLFSVSXAV87IGTBSX0FHWYD5P", "dateTime": 1516646291519}, {"current_trial": 57, "trialdata": {"rt": -1, "trial_type": "single-stim", "word": "butcher", "stimulus": "<p id=\"stim\">BUTCHER</p>", "conditions": [18, 1200, "v", 18000], "internal_node_id": "0.0-39.0", "trial": 1, "time_elapsed": 544227, "serialpos": 2, "key_press": -1, "wordID": 202, "type": "PRES_VIS", "trial_index": 57}, "uniqueid": "MTK2006:3FTYUGLFSVSXAV87IGTBSX0FHWYD5P", "dateTime": 1516646293600}, {"current_trial": 58, "trialdata": {"rt": -1, "trial_type": "single-stim", "word": "jury", "stimulus": "<p id=\"stim\">JURY</p>", "conditions": [18, 1200, "v", 18000], "internal_node_id": "0.0-40.0", "trial": 1, "time_elapsed": 546297, "serialpos": 3, "key_press": -1, "wordID": 765, "type": "PRES_VIS", "trial_index": 58}, "uniqueid": "MTK2006:3FTYUGLFSVSXAV87IGTBSX0FHWYD5P", "dateTime": 1516646295670}, {"current_trial": 59, "trialdata": {"rt": -1, "trial_type": "single-stim", "word": "beaver", "stimulus": "<p id=\"stim\">BEAVER</p>", "conditions": [18, 1200, "v", 18000], "internal_node_id": "0.0-41.0", "trial": 1, "time_elapsed": 548632, "serialpos": 4, "key_press": -1, "wordID": 108, "type": "PRES_VIS", "trial_index": 59}, "uniqueid": "MTK2006:3FTYUGLFSVSXAV87IGTBSX0FHWYD5P", "dateTime": 1516646298006}, {"current_trial": 60, "trialdata": {"rt": -1, "trial_type": "single-stim", "word": "sphinx", "stimulus": "<p id=\"stim\">SPHINX</p>", "conditions": [18, 1200, "v", 18000], "internal_node_id": "0.0-42.0", "trial": 1, "time_elapsed": 550658, "serialpos": 5, "key_press": -1, "wordID": 1348, "type": "PRES_VIS", "trial_index": 60}, "uniqueid": "MTK2006:3FTYUGLFSVSXAV87IGTBSX0FHWYD5P", "dateTime": 1516646300031}, {"current_trial": 61, "trialdata": {"rt": -1, "trial_type": "single-stim", "word": "concert", "stimulus": "<p id=\"stim\">CONCERT</p>", "conditions": [18, 1200, "v", 18000], "internal_node_id": "0.0-43.0", "trial": 1, "time_elapsed": 553061, "serialpos": 6, "key_press": -1, "wordID": 359, "type": "PRES_VIS", "trial_index": 61}, "uniqueid": "MTK2006:3FTYUGLFSVSXAV87IGTBSX0FHWYD5P", "dateTime": 1516646302434}, {"current_trial": 62, "trialdata": {"rt": -1, "trial_type": "single-stim", "word": "flipper", "stimulus": "<p id=\"stim\">FLIPPER</p>", "conditions": [18, 1200, "v", 18000], "internal_node_id": "0.0-44.0", "trial": 1, "time_elapsed": 555221, "serialpos": 7, "key_press": -1, "wordID": 579, "type": "PRES_VIS", "trial_index": 62}, "uniqueid": "MTK2006:3FTYUGLFSVSXAV87IGTBSX0FHWYD5P", "dateTime": 1516646304595}, {"current_trial": 63, "trialdata": {"rt": -1, "trial_type": "single-stim", "word": "bureau", "stimulus": "<p id=\"stim\">BUREAU</p>", "conditions": [18, 1200, "v", 18000], "internal_node_id": "0.0-45.0", "trial": 1, "time_elapsed": 557500, "serialpos": 8, "key_press": -1, "wordID": 198, "type": "PRES_VIS", "trial_index": 63}, "uniqueid": "MTK2006:3FTYUGLFSVSXAV87IGTBSX0FHWYD5P", "dateTime": 1516646306873}, {"current_trial": 64, "trialdata": {"rt": -1, "trial_type": "single-stim", "word": "bucket", "stimulus": "<p id=\"stim\">BUCKET</p>", "conditions": [18, 1200, "v", 18000], "internal_node_id": "0.0-46.0", "trial": 1, "time_elapsed": 559823, "serialpos": 9, "key_press": -1, "wordID": 183, "type": "PRES_VIS", "trial_index": 64}, "uniqueid": "MTK2006:3FTYUGLFSVSXAV87IGTBSX0FHWYD5P", "dateTime": 1516646309197}, {"current_trial": 65, "trialdata": {"rt": -1, "trial_type": "single-stim", "word": "termite", "stimulus": "<p id=\"stim\">TERMITE</p>", "conditions": [18, 1200, "v", 18000], "internal_node_id": "0.0-47.0", "trial": 1, "time_elapsed": 562153, "serialpos": 10, "key_press": -1, "wordID": 1450, "type": "PRES_VIS", "trial_index": 65}, "uniqueid": "MTK2006:3FTYUGLFSVSXAV87IGTBSX0FHWYD5P", "dateTime": 1516646311526}, {"current_trial": 66, "trialdata": {"rt": -1, "trial_type": "single-stim", "word": "banquet", "stimulus": "<p id=\"stim\">BANQUET</p>", "conditions": [18, 1200, "v", 18000], "internal_node_id": "0.0-48.0", "trial": 1, "time_elapsed": 564360, "serialpos": 11, "key_press": -1, "wordID": 85, "type": "PRES_VIS", "trial_index": 66}, "uniqueid": "MTK2006:3FTYUGLFSVSXAV87IGTBSX0FHWYD5P", "dateTime": 1516646313734}, {"current_trial": 67, "trialdata": {"rt": -1, "trial_type": "single-stim", "word": "dust", "stimulus": "<p id=\"stim\">DUST</p>", "conditions": [18, 1200, "v", 18000], "internal_node_id": "0.0-49.0", "trial": 1, "time_elapsed": 566587, "serialpos": 12, "key_press": -1, "wordID": 507, "type": "PRES_VIS", "trial_index": 67}, "uniqueid": "MTK2006:3FTYUGLFSVSXAV87IGTBSX0FHWYD5P", "dateTime": 1516646315960}, {"current_trial": 68, "trialdata": {"rt": -1, "trial_type": "single-stim", "word": "orange", "stimulus": "<p id=\"stim\">ORANGE</p>", "conditions": [18, 1200, "v", 18000], "internal_node_id": "0.0-50.0", "trial": 1, "time_elapsed": 568790, "serialpos": 13, "key_press": -1, "wordID": 979, "type": "PRES_VIS", "trial_index": 68}, "uniqueid": "MTK2006:3FTYUGLFSVSXAV87IGTBSX0FHWYD5P", "dateTime": 1516646318169}, {"current_trial": 69, "trialdata": {"rt": -1, "trial_type": "single-stim", "word": "skirt", "stimulus": "<p id=\"stim\">SKIRT</p>", "conditions": [18, 1200, "v", 18000], "internal_node_id": "0.0-51.0", "trial": 1, "time_elapsed": 571159, "serialpos": 14, "key_press": -1, "wordID": 1318, "type": "PRES_VIS", "trial_index": 69}, "uniqueid": "MTK2006:3FTYUGLFSVSXAV87IGTBSX0FHWYD5P", "dateTime": 1516646320532}, {"current_trial": 70, "trialdata": {"rt": -1, "trial_type": "single-stim", "word": "flute", "stimulus": "<p id=\"stim\">FLUTE</p>", "conditions": [18, 1200, "v", 18000], "internal_node_id": "0.0-52.0", "trial": 1, "time_elapsed": 573557, "serialpos": 15, "key_press": -1, "wordID": 584, "type": "PRES_VIS", "trial_index": 70}, "uniqueid": "MTK2006:3FTYUGLFSVSXAV87IGTBSX0FHWYD5P", "dateTime": 1516646322930}, {"current_trial": 71, "trialdata": {"rt": -1, "trial_type": "single-stim", "word": "shorts", "stimulus": "<p id=\"stim\">SHORTS</p>", "conditions": [18, 1200, "v", 18000], "internal_node_id": "0.0-53.0", "trial": 1, "time_elapsed": 575594, "serialpos": 16, "key_press": -1, "wordID": 1292, "type": "PRES_VIS", "trial_index": 71}, "uniqueid": "MTK2006:3FTYUGLFSVSXAV87IGTBSX0FHWYD5P", "dateTime": 1516646324967}, {"current_trial": 72, "trialdata": {"rt": -1, "trial_type": "single-stim", "word": "bathtub", "stimulus": "<p id=\"stim\">BATHTUB</p>", "conditions": [18, 1200, "v", 18000], "internal_node_id": "0.0-54.0", "trial": 1, "time_elapsed": 577736, "serialpos": 17, "key_press": -1, "wordID": 99, "type": "PRES_VIS", "trial_index": 72}, "uniqueid": "MTK2006:3FTYUGLFSVSXAV87IGTBSX0FHWYD5P", "dateTime": 1516646327109}, {"current_trial": 73, "trialdata": {"rt": -1, "trial_type": "single-stim", "stimulus": "", "internal_node_id": "0.0-55.0-0.0", "time_elapsed": 580008, "key_press": -1, "type": "PRE_RECALL_DELAY", "trial_index": 73}, "uniqueid": "MTK2006:3FTYUGLFSVSXAV87IGTBSX0FHWYD5P", "dateTime": 1516646329381}, {"current_trial": 74, "trialdata": {"rt": -1000, "trial_type": "single-audio", "stimulus": "/static/audio/400Hz.wav", "internal_node_id": "0.0-56.0", "time_elapsed": 580511, "key_press": -1, "type": "PRE_RECALL_ALERT", "trial_index": 74}, "uniqueid": "MTK2006:3FTYUGLFSVSXAV87IGTBSX0FHWYD5P", "dateTime": 1516646329884}, {"current_trial": 75, "trialdata": {"rt": [1490, 3778, 5369, 12083, 26906, 43062], "recwords": ["bucket", "bathtub", "shorts", "sphynx", "snack", "orange"], "key_times": [672, 767, 958, 1032, 1143, 1267, 1490, 1719, 1876, 2122, 2243, 2716, 2931, 3094, 3778, 4047, 4120, 4173, 4327, 4528, 4604, 5369, 8263, 8980, 9205, 9840, 10072, 10997, 12083, 26067, 26228, 26339, 26512, 26651, 26906, 42197, 42332, 42483, 42605, 42716, 42895, 43062], "trial_type": "free-recall", "conditions": [18, 1200, "v", 18000], "internal_node_id": "0.0-57.0-0.0", "key_presses": [66, 85, 67, 75, 69, 84, 13, 66, 65, 84, 72, 84, 85, 66, 13, 83, 72, 79, 82, 84, 83, 13, 83, 80, 72, 89, 78, 88, 13, 83, 78, 65, 67, 75, 13, 79, 82, 65, 78, 71, 69, 13], "trial": 1, "time_elapsed": 640517, "type": "FREE_RECALL", "trial_index": 75}, "uniqueid": "MTK2006:3FTYUGLFSVSXAV87IGTBSX0FHWYD5P", "dateTime": 1516646389894}, {"current_trial": 76, "trialdata": {"rt": 322160, "trial_type": "text", "internal_node_id": "0.0-58.0", "time_elapsed": 964683, "key_press": 32, "type": "INSTRUCTIONS", "trial_index": 76}, "uniqueid": "MTK2006:3FTYUGLFSVSXAV87IGTBSX0FHWYD5P", "dateTime": 1516646714056}, {"current_trial": 77, "trialdata": {"rt": [6449, 17554], "trial_type": "math-distractor", "key_times": [3200, 3483, 5269, 5981, 6449, 16962, 17134, 17554, 20623, 21060], "responses": ["22", "23"], "num2": [8, 8, 9], "num3": [8, 9, 6], "conditions": [12, 800, "v", 24000], "internal_node_id": "0.0-59.0", "key_presses": [50, 52, 8, 50, 13, 50, 51, 13, 49, 56], "trial": 2, "time_elapsed": 989691, "type": "DISTRACTOR", "trial_index": 77, "num1": [6, 6, 3]}, "uniqueid": "MTK2006:3FTYUGLFSVSXAV87IGTBSX0FHWYD5P", "dateTime": 1516646739064}, {"current_trial": 78, "trialdata": {"rt": -1, "trial_type": "single-stim", "stimulus": "<p id=\"stim\">10</p>", "internal_node_id": "0.0-60.0-0.0", "time_elapsed": 992694, "key_press": -1, "trial_index": 78}, "uniqueid": "MTK2006:3FTYUGLFSVSXAV87IGTBSX0FHWYD5P", "dateTime": 1516646742067}, {"current_trial": 79, "trialdata": {"rt": -1, "trial_type": "single-stim", "stimulus": "<p id=\"stim\">9</p>", "internal_node_id": "0.0-60.0-1.0", "time_elapsed": 993696, "key_press": -1, "trial_index": 79}, "uniqueid": "MTK2006:3FTYUGLFSVSXAV87IGTBSX0FHWYD5P", "dateTime": 1516646743069}, {"current_trial": 80, "trialdata": {"rt": -1, "trial_type": "single-stim", "stimulus": "<p id=\"stim\">8</p>", "internal_node_id": "0.0-60.0-2.0", "time_elapsed": 994698, "key_press": -1, "trial_index": 80}, "uniqueid": "MTK2006:3FTYUGLFSVSXAV87IGTBSX0FHWYD5P", "dateTime": 1516646744071}, {"current_trial": 81, "trialdata": {"rt": -1, "trial_type": "single-stim", "stimulus": "<p id=\"stim\">7</p>", "internal_node_id": "0.0-60.0-3.0", "time_elapsed": 995700, "key_press": -1, "trial_index": 81}, "uniqueid": "MTK2006:3FTYUGLFSVSXAV87IGTBSX0FHWYD5P", "dateTime": 1516646745074}, {"current_trial": 82, "trialdata": {"rt": -1, "trial_type": "single-stim", "stimulus": "<p id=\"stim\">6</p>", "internal_node_id": "0.0-60.0-4.0", "time_elapsed": 996702, "key_press": -1, "trial_index": 82}, "uniqueid": "MTK2006:3FTYUGLFSVSXAV87IGTBSX0FHWYD5P", "dateTime": 1516646746075}, {"current_trial": 83, "trialdata": {"rt": -1, "trial_type": "single-stim", "stimulus": "<p id=\"stim\">5</p>", "internal_node_id": "0.0-60.0-5.0", "time_elapsed": 997704, "key_press": -1, "trial_index": 83}, "uniqueid": "MTK2006:3FTYUGLFSVSXAV87IGTBSX0FHWYD5P", "dateTime": 1516646747078}, {"current_trial": 84, "trialdata": {"rt": -1, "trial_type": "single-stim", "stimulus": "<p id=\"stim\">4</p>", "internal_node_id": "0.0-60.0-6.0", "time_elapsed": 998706, "key_press": -1, "trial_index": 84}, "uniqueid": "MTK2006:3FTYUGLFSVSXAV87IGTBSX0FHWYD5P", "dateTime": 1516646748080}, {"current_trial": 85, "trialdata": {"rt": -1, "trial_type": "single-stim", "stimulus": "<p id=\"stim\">3</p>", "internal_node_id": "0.0-60.0-7.0", "time_elapsed": 999710, "key_press": -1, "trial_index": 85}, "uniqueid": "MTK2006:3FTYUGLFSVSXAV87IGTBSX0FHWYD5P", "dateTime": 1516646749083}, {"current_trial": 86, "trialdata": {"rt": -1, "trial_type": "single-stim", "stimulus": "<p id=\"stim\">2</p>", "internal_node_id": "0.0-60.0-8.0", "time_elapsed": 1000713, "key_press": -1, "trial_index": 86}, "uniqueid": "MTK2006:3FTYUGLFSVSXAV87IGTBSX0FHWYD5P", "dateTime": 1516646750086}, {"current_trial": 87, "trialdata": {"rt": -1, "trial_type": "single-stim", "stimulus": "<p id=\"stim\">1</p>", "internal_node_id": "0.0-60.0-9.0", "time_elapsed": 1001716, "key_press": -1, "trial_index": 87}, "uniqueid": "MTK2006:3FTYUGLFSVSXAV87IGTBSX0FHWYD5P", "dateTime": 1516646751089}, {"current_trial": 88, "trialdata": {"rt": -1, "trial_type": "single-stim", "stimulus": "<p id=\"stim\">+</p>", "internal_node_id": "0.0-61.0-0.0", "time_elapsed": 1003219, "key_press": -1, "type": "FIXATION", "trial_index": 88}, "uniqueid": "MTK2006:3FTYUGLFSVSXAV87IGTBSX0FHWYD5P", "dateTime": 1516646752593}, {"current_trial": 89, "trialdata": {"rt": -1, "trial_type": "single-stim", "word": "nomad", "stimulus": "<p id=\"stim\">NOMAD</p>", "conditions": [12, 800, "v", 24000], "internal_node_id": "0.0-62.0", "trial": 2, "time_elapsed": 1004022, "serialpos": 0, "key_press": -1, "wordID": 954, "type": "PRES_VIS", "trial_index": 89}, "uniqueid": "MTK2006:3FTYUGLFSVSXAV87IGTBSX0FHWYD5P", "dateTime": 1516646753395}, {"current_trial": 90, "trialdata": {"rt": -1, "trial_type": "single-stim", "word": "silk", "stimulus": "<p id=\"stim\">SILK</p>", "conditions": [12, 800, "v", 24000], "internal_node_id": "0.0-63.0", "trial": 2, "time_elapsed": 1005808, "serialpos": 1, "key_press": -1, "wordID": 1306, "type": "PRES_VIS", "trial_index": 90}, "uniqueid": "MTK2006:3FTYUGLFSVSXAV87IGTBSX0FHWYD5P", "dateTime": 1516646755182}, {"current_trial": 91, "trialdata": {"rt": -1, "trial_type": "single-stim", "word": "basement", "stimulus": "<p id=\"stim\">BASEMENT</p>", "conditions": [12, 800, "v", 24000], "internal_node_id": "0.0-64.0", "trial": 2, "time_elapsed": 1007625, "serialpos": 2, "key_press": -1, "wordID": 93, "type": "PRES_VIS", "trial_index": 91}, "uniqueid": "MTK2006:3FTYUGLFSVSXAV87IGTBSX0FHWYD5P", "dateTime": 1516646756998}, {"current_trial": 92, "trialdata": {"rt": -1, "trial_type": "single-stim", "word": "cellar", "stimulus": "<p id=\"stim\">CELLAR</p>", "conditions": [12, 800, "v", 24000], "internal_node_id": "0.0-65.0", "trial": 2, "time_elapsed": 1009290, "serialpos": 3, "key_press": -1, "wordID": 266, "type": "PRES_VIS", "trial_index": 92}, "uniqueid": "MTK2006:3FTYUGLFSVSXAV87IGTBSX0FHWYD5P", "dateTime": 1516646758663}, {"current_trial": 93, "trialdata": {"rt": -1, "trial_type": "single-stim", "word": "sausage", "stimulus": "<p id=\"stim\">SAUSAGE</p>", "conditions": [12, 800, "v", 24000], "internal_node_id": "0.0-66.0", "trial": 2, "time_elapsed": 1010931, "serialpos": 4, "key_press": -1, "wordID": 1237, "type": "PRES_VIS", "trial_index": 93}, "uniqueid": "MTK2006:3FTYUGLFSVSXAV87IGTBSX0FHWYD5P", "dateTime": 1516646760304}, {"current_trial": 94, "trialdata": {"rt": -1, "trial_type": "single-stim", "word": "lace", "stimulus": "<p id=\"stim\">LACE</p>", "conditions": [12, 800, "v", 24000], "internal_node_id": "0.0-67.0", "trial": 2, "time_elapsed": 1012638, "serialpos": 5, "key_press": -1, "wordID": 791, "type": "PRES_VIS", "trial_index": 94}, "uniqueid": "MTK2006:3FTYUGLFSVSXAV87IGTBSX0FHWYD5P", "dateTime": 1516646762011}, {"current_trial": 95, "trialdata": {"rt": -1, "trial_type": "single-stim", "word": "fireman", "stimulus": "<p id=\"stim\">FIREMAN</p>", "conditions": [12, 800, "v", 24000], "internal_node_id": "0.0-68.0", "trial": 2, "time_elapsed": 1014463, "serialpos": 6, "key_press": -1, "wordID": 568, "type": "PRES_VIS", "trial_index": 95}, "uniqueid": "MTK2006:3FTYUGLFSVSXAV87IGTBSX0FHWYD5P", "dateTime": 1516646763836}, {"current_trial": 96, "trialdata": {"rt": -1, "trial_type": "single-stim", "word": "dancer", "stimulus": "<p id=\"stim\">DANCER</p>", "conditions": [12, 800, "v", 24000], "internal_node_id": "0.0-69.0", "trial": 2, "time_elapsed": 1016288, "serialpos": 7, "key_press": -1, "wordID": 436, "type": "PRES_VIS", "trial_index": 96}, "uniqueid": "MTK2006:3FTYUGLFSVSXAV87IGTBSX0FHWYD5P", "dateTime": 1516646765662}, {"current_trial": 97, "trialdata": {"rt": -1, "trial_type": "single-stim", "word": "gallon", "stimulus": "<p id=\"stim\">GALLON</p>", "conditions": [12, 800, "v", 24000], "internal_node_id": "0.0-70.0", "trial": 2, "time_elapsed": 1018248, "serialpos": 8, "key_press": -1, "wordID": 617, "type": "PRES_VIS", "trial_index": 97}, "uniqueid": "MTK2006:3FTYUGLFSVSXAV87IGTBSX0FHWYD5P", "dateTime": 1516646767622}, {"current_trial": 98, "trialdata": {"rt": -1, "trial_type": "single-stim", "word": "lover", "stimulus": "<p id=\"stim\">LOVER</p>", "conditions": [12, 800, "v", 24000], "internal_node_id": "0.0-71.0", "trial": 2, "time_elapsed": 1020038, "serialpos": 9, "key_press": -1, "wordID": 845, "type": "PRES_VIS", "trial_index": 98}, "uniqueid": "MTK2006:3FTYUGLFSVSXAV87IGTBSX0FHWYD5P", "dateTime": 1516646769411}, {"current_trial": 99, "trialdata": {"rt": -1, "trial_type": "single-stim", "word": "tutu", "stimulus": "<p id=\"stim\">TUTU</p>", "conditions": [12, 800, "v", 24000], "internal_node_id": "0.0-72.0", "trial": 2, "time_elapsed": 1022034, "serialpos": 10, "key_press": -1, "wordID": 1523, "type": "PRES_VIS", "trial_index": 99}, "uniqueid": "MTK2006:3FTYUGLFSVSXAV87IGTBSX0FHWYD5P", "dateTime": 1516646771407}, {"current_trial": 100, "trialdata": {"rt": -1, "trial_type": "single-stim", "word": "custard", "stimulus": "<p id=\"stim\">CUSTARD</p>", "conditions": [12, 800, "v", 24000], "internal_node_id": "0.0-73.0", "trial": 2, "time_elapsed": 1023839, "serialpos": 11, "key_press": -1, "wordID": 428, "type": "PRES_VIS", "trial_index": 100}, "uniqueid": "MTK2006:3FTYUGLFSVSXAV87IGTBSX0FHWYD5P", "dateTime": 1516646773212}, {"current_trial": 101, "trialdata": {"rt": -1, "trial_type": "single-stim", "stimulus": "", "internal_node_id": "0.0-74.0-0.0", "time_elapsed": 1026176, "key_press": -1, "type": "PRE_RECALL_DELAY", "trial_index": 101}, "uniqueid": "MTK2006:3FTYUGLFSVSXAV87IGTBSX0FHWYD5P", "dateTime": 1516646775549}, {"current_trial": 102, "trialdata": {"rt": -1000, "trial_type": "single-audio", "stimulus": "/static/audio/400Hz.wav", "internal_node_id": "0.0-75.0", "time_elapsed": 1026678, "key_press": -1, "type": "PRE_RECALL_ALERT", "trial_index": 102}, "uniqueid": "MTK2006:3FTYUGLFSVSXAV87IGTBSX0FHWYD5P", "dateTime": 1516646776051}, {"current_trial": 103, "trialdata": {"rt": [1722, 2942, 6443, 8758, 14967, 18016], "recwords": ["custard", "fireman", "lace", "silk", "basement", "cellar"], "key_times": [665, 723, 812, 966, 1055, 1225, 1420, 1722, 1914, 2021, 2135, 2197, 2401, 2503, 2594, 2942, 4794, 4914, 5068, 5132, 6443, 7682, 7821, 8041, 8125, 8758, 12943, 13143, 13220, 13286, 13585, 13687, 13791, 13957, 14967, 16828, 16994, 17258, 17404, 17494, 17603, 18016], "trial_type": "free-recall", "conditions": [12, 800, "v", 24000], "internal_node_id": "0.0-76.0-0.0", "key_presses": [67, 85, 83, 84, 65, 82, 68, 13, 70, 73, 82, 69, 77, 65, 78, 13, 76, 65, 67, 69, 13, 83, 73, 76, 75, 13, 66, 65, 83, 69, 77, 69, 78, 84, 13, 67, 69, 76, 76, 65, 82, 13], "trial": 2, "time_elapsed": 1086684, "type": "FREE_RECALL", "trial_index": 103}, "uniqueid": "MTK2006:3FTYUGLFSVSXAV87IGTBSX0FHWYD5P", "dateTime": 1516646836061}, {"current_trial": 104, "trialdata": {"rt": 1498, "trial_type": "text", "internal_node_id": "0.0-77.0", "time_elapsed": 1090188, "key_press": 32, "type": "INSTRUCTIONS", "trial_index": 104}, "uniqueid": "MTK2006:3FTYUGLFSVSXAV87IGTBSX0FHWYD5P", "dateTime": 1516646839561}, {"current_trial": 105, "trialdata": {"rt": [2775, 5958, 11483, 15490, 19378], "trial_type": "math-distractor", "key_times": [2006, 2445, 2775, 5236, 5587, 5958, 10820, 11148, 11483, 14907, 15103, 15490, 18841, 19000, 19378], "responses": ["15", "15", "20", "16", "12"], "num2": [6, 3, 9, 5, 7, 9], "num3": [4, 8, 7, 3, 1, 5], "conditions": [12, 1600, "v", 24000], "internal_node_id": "0.0-78.0", "key_presses": [49, 53, 13, 49, 53, 13, 50, 48, 13, 49, 54, 13, 49, 50, 13], "trial": 3, "time_elapsed": 1116195, "type": "DISTRACTOR", "trial_index": 105, "num1": [5, 4, 4, 8, 4, 6]}, "uniqueid": "MTK2006:3FTYUGLFSVSXAV87IGTBSX0FHWYD5P", "dateTime": 1516646865568}, {"current_trial": 106, "trialdata": {"rt": -1, "trial_type": "single-stim", "stimulus": "<p id=\"stim\">10</p>", "internal_node_id": "0.0-79.0-0.0", "time_elapsed": 1119197, "key_press": -1, "trial_index": 106}, "uniqueid": "MTK2006:3FTYUGLFSVSXAV87IGTBSX0FHWYD5P", "dateTime": 1516646868570}, {"current_trial": 107, "trialdata": {"rt": -1, "trial_type": "single-stim", "stimulus": "<p id=\"stim\">9</p>", "internal_node_id": "0.0-79.0-1.0", "time_elapsed": 1120200, "key_press": -1, "trial_index": 107}, "uniqueid": "MTK2006:3FTYUGLFSVSXAV87IGTBSX0FHWYD5P", "dateTime": 1516646869573}, {"current_trial": 108, "trialdata": {"rt": -1, "trial_type": "single-stim", "stimulus": "<p id=\"stim\">8</p>", "internal_node_id": "0.0-79.0-2.0", "time_elapsed": 1121201, "key_press": -1, "trial_index": 108}, "uniqueid": "MTK2006:3FTYUGLFSVSXAV87IGTBSX0FHWYD5P", "dateTime": 1516646870575}, {"current_trial": 109, "trialdata": {"rt": -1, "trial_type": "single-stim", "stimulus": "<p id=\"stim\">7</p>", "internal_node_id": "0.0-79.0-3.0", "time_elapsed": 1122204, "key_press": -1, "trial_index": 109}, "uniqueid": "MTK2006:3FTYUGLFSVSXAV87IGTBSX0FHWYD5P", "dateTime": 1516646871577}, {"current_trial": 110, "trialdata": {"rt": -1, "trial_type": "single-stim", "stimulus": "<p id=\"stim\">6</p>", "internal_node_id": "0.0-79.0-4.0", "time_elapsed": 1123206, "key_press": -1, "trial_index": 110}, "uniqueid": "MTK2006:3FTYUGLFSVSXAV87IGTBSX0FHWYD5P", "dateTime": 1516646872580}, {"current_trial": 111, "trialdata": {"rt": -1, "trial_type": "single-stim", "stimulus": "<p id=\"stim\">5</p>", "internal_node_id": "0.0-79.0-5.0", "time_elapsed": 1124209, "key_press": -1, "trial_index": 111}, "uniqueid": "MTK2006:3FTYUGLFSVSXAV87IGTBSX0FHWYD5P", "dateTime": 1516646873582}, {"current_trial": 112, "trialdata": {"rt": -1, "trial_type": "single-stim", "stimulus": "<p id=\"stim\">4</p>", "internal_node_id": "0.0-79.0-6.0", "time_elapsed": 1125216, "key_press": -1, "trial_index": 112}, "uniqueid": "MTK2006:3FTYUGLFSVSXAV87IGTBSX0FHWYD5P", "dateTime": 1516646874589}, {"current_trial": 113, "trialdata": {"rt": -1, "trial_type": "single-stim", "stimulus": "<p id=\"stim\">3</p>", "internal_node_id": "0.0-79.0-7.0", "time_elapsed": 1126218, "key_press": -1, "trial_index": 113}, "uniqueid": "MTK2006:3FTYUGLFSVSXAV87IGTBSX0FHWYD5P", "dateTime": 1516646875591}, {"current_trial": 114, "trialdata": {"rt": -1, "trial_type": "single-stim", "stimulus": "<p id=\"stim\">2</p>", "internal_node_id": "0.0-79.0-8.0", "time_elapsed": 1127220, "key_press": -1, "trial_index": 114}, "uniqueid": "MTK2006:3FTYUGLFSVSXAV87IGTBSX0FHWYD5P", "dateTime": 1516646876593}, {"current_trial": 115, "trialdata": {"rt": -1, "trial_type": "single-stim", "stimulus": "<p id=\"stim\">1</p>", "internal_node_id": "0.0-79.0-9.0", "time_elapsed": 1128222, "key_press": -1, "trial_index": 115}, "uniqueid": "MTK2006:3FTYUGLFSVSXAV87IGTBSX0FHWYD5P", "dateTime": 1516646877595}, {"current_trial": 116, "trialdata": {"rt": -1, "trial_type": "single-stim", "stimulus": "<p id=\"stim\">+</p>", "internal_node_id": "0.0-80.0-0.0", "time_elapsed": 1129724, "key_press": -1, "type": "FIXATION", "trial_index": 116}, "uniqueid": "MTK2006:3FTYUGLFSVSXAV87IGTBSX0FHWYD5P", "dateTime": 1516646879098}, {"current_trial": 117, "trialdata": {"rt": -1, "trial_type": "single-stim", "word": "queen", "stimulus": "<p id=\"stim\">QUEEN</p>", "conditions": [12, 1600, "v", 24000], "internal_node_id": "0.0-81.0", "trial": 3, "time_elapsed": 1131327, "serialpos": 0, "key_press": -1, "wordID": 1148, "type": "PRES_VIS", "trial_index": 117}, "uniqueid": "MTK2006:3FTYUGLFSVSXAV87IGTBSX0FHWYD5P", "dateTime": 1516646880700}, {"current_trial": 118, "trialdata": {"rt": -1, "trial_type": "single-stim", "word": "mop", "stimulus": "<p id=\"stim\">MOP</p>", "conditions": [12, 1600, "v", 24000], "internal_node_id": "0.0-82.0", "trial": 3, "time_elapsed": 1134057, "serialpos": 1, "key_press": -1, "wordID": 915, "type": "PRES_VIS", "trial_index": 118}, "uniqueid": "MTK2006:3FTYUGLFSVSXAV87IGTBSX0FHWYD5P", "dateTime": 1516646883430}, {"current_trial": 119, "trialdata": {"rt": -1, "trial_type": "single-stim", "word": "cross", "stimulus": "<p id=\"stim\">CROSS</p>", "conditions": [12, 1600, "v", 24000], "internal_node_id": "0.0-83.0", "trial": 3, "time_elapsed": 1136549, "serialpos": 2, "key_press": -1, "wordID": 412, "type": "PRES_VIS", "trial_index": 119}, "uniqueid": "MTK2006:3FTYUGLFSVSXAV87IGTBSX0FHWYD5P", "dateTime": 1516646885922}, {"current_trial": 120, "trialdata": {"rt": -1, "trial_type": "single-stim", "word": "empire", "stimulus": "<p id=\"stim\">EMPIRE</p>", "conditions": [12, 1600, "v", 24000], "internal_node_id": "0.0-84.0", "trial": 3, "time_elapsed": 1139174, "serialpos": 3, "key_press": -1, "wordID": 529, "type": "PRES_VIS", "trial_index": 120}, "uniqueid": "MTK2006:3FTYUGLFSVSXAV87IGTBSX0FHWYD5P", "dateTime": 1516646888547}, {"current_trial": 121, "trialdata": {"rt": -1, "trial_type": "single-stim", "word": "oyster", "stimulus": "<p id=\"stim\">OYSTER</p>", "conditions": [12, 1600, "v", 24000], "internal_node_id": "0.0-85.0", "trial": 3, "time_elapsed": 1141901, "serialpos": 4, "key_press": -1, "wordID": 994, "type": "PRES_VIS", "trial_index": 121}, "uniqueid": "MTK2006:3FTYUGLFSVSXAV87IGTBSX0FHWYD5P", "dateTime": 1516646891274}, {"current_trial": 122, "trialdata": {"rt": -1, "trial_type": "single-stim", "word": "cowboy", "stimulus": "<p id=\"stim\">COWBOY</p>", "conditions": [12, 1600, "v", 24000], "internal_node_id": "0.0-86.0", "trial": 3, "time_elapsed": 1144470, "serialpos": 5, "key_press": -1, "wordID": 394, "type": "PRES_VIS", "trial_index": 122}, "uniqueid": "MTK2006:3FTYUGLFSVSXAV87IGTBSX0FHWYD5P", "dateTime": 1516646893843}, {"current_trial": 123, "trialdata": {"rt": -1, "trial_type": "single-stim", "word": "beef", "stimulus": "<p id=\"stim\">BEEF</p>", "conditions": [12, 1600, "v", 24000], "internal_node_id": "0.0-87.0", "trial": 3, "time_elapsed": 1147200, "serialpos": 6, "key_press": -1, "wordID": 112, "type": "PRES_VIS", "trial_index": 123}, "uniqueid": "MTK2006:3FTYUGLFSVSXAV87IGTBSX0FHWYD5P", "dateTime": 1516646896573}, {"current_trial": 124, "trialdata": {"rt": -1, "trial_type": "single-stim", "word": "spider", "stimulus": "<p id=\"stim\">SPIDER</p>", "conditions": [12, 1600, "v", 24000], "internal_node_id": "0.0-88.0", "trial": 3, "time_elapsed": 1149700, "serialpos": 7, "key_press": -1, "wordID": 1350, "type": "PRES_VIS", "trial_index": 124}, "uniqueid": "MTK2006:3FTYUGLFSVSXAV87IGTBSX0FHWYD5P", "dateTime": 1516646899073}, {"current_trial": 125, "trialdata": {"rt": -1, "trial_type": "single-stim", "word": "army", "stimulus": "<p id=\"stim\">ARMY</p>", "conditions": [12, 1600, "v", 24000], "internal_node_id": "0.0-89.0", "trial": 3, "time_elapsed": 1152374, "serialpos": 8, "key_press": -1, "wordID": 38, "type": "PRES_VIS", "trial_index": 125}, "uniqueid": "MTK2006:3FTYUGLFSVSXAV87IGTBSX0FHWYD5P", "dateTime": 1516646901748}, {"current_trial": 126, "trialdata": {"rt": -1, "trial_type": "single-stim", "word": "salmon", "stimulus": "<p id=\"stim\">SALMON</p>", "conditions": [12, 1600, "v", 24000], "internal_node_id": "0.0-90.0", "trial": 3, "time_elapsed": 1155122, "serialpos": 9, "key_press": -1, "wordID": 1226, "type": "PRES_VIS", "trial_index": 126}, "uniqueid": "MTK2006:3FTYUGLFSVSXAV87IGTBSX0FHWYD5P", "dateTime": 1516646904495}, {"current_trial": 127, "trialdata": {"rt": -1, "trial_type": "single-stim", "word": "piano", "stimulus": "<p id=\"stim\">PIANO</p>", "conditions": [12, 1600, "v", 24000], "internal_node_id": "0.0-91.0", "trial": 3, "time_elapsed": 1157605, "serialpos": 10, "key_press": -1, "wordID": 1056, "type": "PRES_VIS", "trial_index": 127}, "uniqueid": "MTK2006:3FTYUGLFSVSXAV87IGTBSX0FHWYD5P", "dateTime": 1516646906978}, {"current_trial": 128, "trialdata": {"rt": -1, "trial_type": "single-stim", "word": "banjo", "stimulus": "<p id=\"stim\">BANJO</p>", "conditions": [12, 1600, "v", 24000], "internal_node_id": "0.0-92.0", "trial": 3, "time_elapsed": 1160135, "serialpos": 11, "key_press": -1, "wordID": 81, "type": "PRES_VIS", "trial_index": 128}, "uniqueid": "MTK2006:3FTYUGLFSVSXAV87IGTBSX0FHWYD5P", "dateTime": 1516646909508}, {"current_trial": 129, "trialdata": {"rt": -1, "trial_type": "single-stim", "stimulus": "", "internal_node_id": "0.0-93.0-0.0", "time_elapsed": 1162215, "key_press": -1, "type": "PRE_RECALL_DELAY", "trial_index": 129}, "uniqueid": "MTK2006:3FTYUGLFSVSXAV87IGTBSX0FHWYD5P", "dateTime": 1516646911588}, {"current_trial": 130, "trialdata": {"rt": -1000, "trial_type": "single-audio", "stimulus": "/static/audio/400Hz.wav", "internal_node_id": "0.0-94.0", "time_elapsed": 1162723, "key_press": -1, "type": "PRE_RECALL_ALERT", "trial_index": 130}, "uniqueid": "MTK2006:3FTYUGLFSVSXAV87IGTBSX0FHWYD5P", "dateTime": 1516646912096}, {"current_trial": 131, "trialdata": {"rt": [1470, 2520, 3726, 5331, 17065, 43701], "recwords": ["banjo", "army", "salmon", "queen", "piano", "spider"], "key_times": [595, 717, 815, 1040, 1151, 1470, 1753, 1870, 2024, 2270, 2520, 2668, 2820, 2952, 3096, 3284, 3435, 3726, 3950, 4066, 4227, 4381, 4526, 5331, 16118, 16304, 16474, 16532, 16755, 17065, 42599, 42807, 42910, 43050, 43248, 43337, 43701], "trial_type": "free-recall", "conditions": [12, 1600, "v", 24000], "internal_node_id": "0.0-95.0-0.0", "key_presses": [66, 65, 78, 74, 79, 13, 65, 82, 77, 89, 13, 83, 65, 76, 77, 79, 78, 13, 81, 85, 69, 69, 78, 13, 80, 73, 65, 78, 79, 13, 83, 80, 73, 68, 69, 82, 13], "trial": 3, "time_elapsed": 1222730, "type": "FREE_RECALL", "trial_index": 131}, "uniqueid": "MTK2006:3FTYUGLFSVSXAV87IGTBSX0FHWYD5P", "dateTime": 1516646972107}, {"current_trial": 132, "trialdata": {"rt": 1119, "trial_type": "text", "internal_node_id": "0.0-96.0", "time_elapsed": 1225855, "key_press": 32, "type": "INSTRUCTIONS", "trial_index": 132}, "uniqueid": "MTK2006:3FTYUGLFSVSXAV87IGTBSX0FHWYD5P", "dateTime": 1516646975228}, {"current_trial": 133, "trialdata": {"rt": [1896, 6487, 10555, 13292, 16089, 19840, 22821], "trial_type": "math-distractor", "key_times": [1612, 1896, 6162, 6312, 6487, 10202, 10314, 10555, 12770, 13022, 13292, 15193, 15613, 15865, 16089, 19549, 19840, 22448, 22643, 22821], "responses": ["6", "22", "12", "10", "9", "9", "11"], "num2": [1, 9, 5, 2, 1, 3, 2, 1], "num3": [1, 7, 3, 1, 1, 2, 2, 3], "conditions": [24, 1600, "v", 24000], "internal_node_id": "0.0-97.0", "key_presses": [54, 13, 50, 50, 13, 49, 50, 13, 49, 48, 13, 56, 8, 57, 13, 57, 13, 49, 49, 13], "trial": 4, "time_elapsed": 1251862, "type": "DISTRACTOR", "trial_index": 133, "num1": [4, 6, 4, 7, 7, 4, 7, 6]}, "uniqueid": "MTK2006:3FTYUGLFSVSXAV87IGTBSX0FHWYD5P", "dateTime": 1516647001235}, {"current_trial": 134, "trialdata": {"rt": -1, "trial_type": "single-stim", "stimulus": "<p id=\"stim\">10</p>", "internal_node_id": "0.0-98.0-0.0", "time_elapsed": 1254865, "key_press": -1, "trial_index": 134}, "uniqueid": "MTK2006:3FTYUGLFSVSXAV87IGTBSX0FHWYD5P", "dateTime": 1516647004238}, {"current_trial": 135, "trialdata": {"rt": -1, "trial_type": "single-stim", "stimulus": "<p id=\"stim\">9</p>", "internal_node_id": "0.0-98.0-1.0", "time_elapsed": 1255867, "key_press": -1, "trial_index": 135}, "uniqueid": "MTK2006:3FTYUGLFSVSXAV87IGTBSX0FHWYD5P", "dateTime": 1516647005240}, {"current_trial": 136, "trialdata": {"rt": -1, "trial_type": "single-stim", "stimulus": "<p id=\"stim\">8</p>", "internal_node_id": "0.0-98.0-2.0", "time_elapsed": 1256869, "key_press": -1, "trial_index": 136}, "uniqueid": "MTK2006:3FTYUGLFSVSXAV87IGTBSX0FHWYD5P", "dateTime": 1516647006242}, {"current_trial": 137, "trialdata": {"rt": -1, "trial_type": "single-stim", "stimulus": "<p id=\"stim\">7</p>", "internal_node_id": "0.0-98.0-3.0", "time_elapsed": 1257872, "key_press": -1, "trial_index": 137}, "uniqueid": "MTK2006:3FTYUGLFSVSXAV87IGTBSX0FHWYD5P", "dateTime": 1516647007245}, {"current_trial": 138, "trialdata": {"rt": -1, "trial_type": "single-stim", "stimulus": "<p id=\"stim\">6</p>", "internal_node_id": "0.0-98.0-4.0", "time_elapsed": 1258874, "key_press": -1, "trial_index": 138}, "uniqueid": "MTK2006:3FTYUGLFSVSXAV87IGTBSX0FHWYD5P", "dateTime": 1516647008247}, {"current_trial": 139, "trialdata": {"rt": -1, "trial_type": "single-stim", "stimulus": "<p id=\"stim\">5</p>", "internal_node_id": "0.0-98.0-5.0", "time_elapsed": 1259876, "key_press": -1, "trial_index": 139}, "uniqueid": "MTK2006:3FTYUGLFSVSXAV87IGTBSX0FHWYD5P", "dateTime": 1516647009250}, {"current_trial": 140, "trialdata": {"rt": -1, "trial_type": "single-stim", "stimulus": "<p id=\"stim\">4</p>", "internal_node_id": "0.0-98.0-6.0", "time_elapsed": 1260879, "key_press": -1, "trial_index": 140}, "uniqueid": "MTK2006:3FTYUGLFSVSXAV87IGTBSX0FHWYD5P", "dateTime": 1516647010252}, {"current_trial": 141, "trialdata": {"rt": -1, "trial_type": "single-stim", "stimulus": "<p id=\"stim\">3</p>", "internal_node_id": "0.0-98.0-7.0", "time_elapsed": 1261882, "key_press": -1, "trial_index": 141}, "uniqueid": "MTK2006:3FTYUGLFSVSXAV87IGTBSX0FHWYD5P", "dateTime": 1516647011255}, {"current_trial": 142, "trialdata": {"rt": -1, "trial_type": "single-stim", "stimulus": "<p id=\"stim\">2</p>", "internal_node_id": "0.0-98.0-8.0", "time_elapsed": 1262885, "key_press": -1, "trial_index": 142}, "uniqueid": "MTK2006:3FTYUGLFSVSXAV87IGTBSX0FHWYD5P", "dateTime": 1516647012259}, {"current_trial": 143, "trialdata": {"rt": -1, "trial_type": "single-stim", "stimulus": "<p id=\"stim\">1</p>", "internal_node_id": "0.0-98.0-9.0", "time_elapsed": 1263888, "key_press": -1, "trial_index": 143}, "uniqueid": "MTK2006:3FTYUGLFSVSXAV87IGTBSX0FHWYD5P", "dateTime": 1516647013262}, {"current_trial": 144, "trialdata": {"rt": -1, "trial_type": "single-stim", "stimulus": "<p id=\"stim\">+</p>", "internal_node_id": "0.0-99.0-0.0", "time_elapsed": 1265391, "key_press": -1, "type": "FIXATION", "trial_index": 144}, "uniqueid": "MTK2006:3FTYUGLFSVSXAV87IGTBSX0FHWYD5P", "dateTime": 1516647014764}, {"current_trial": 145, "trialdata": {"rt": -1, "trial_type": "single-stim", "word": "virus", "stimulus": "<p id=\"stim\">VIRUS</p>", "conditions": [24, 1600, "v", 24000], "internal_node_id": "0.0-100.0", "trial": 4, "time_elapsed": 1266992, "serialpos": 0, "key_press": -1, "wordID": 1571, "type": "PRES_VIS", "trial_index": 145}, "uniqueid": "MTK2006:3FTYUGLFSVSXAV87IGTBSX0FHWYD5P", "dateTime": 1516647016366}, {"current_trial": 146, "trialdata": {"rt": -1, "trial_type": "single-stim", "word": "pimple", "stimulus": "<p id=\"stim\">PIMPLE</p>", "conditions": [24, 1600, "v", 24000], "internal_node_id": "0.0-101.0", "trial": 4, "time_elapsed": 1269592, "serialpos": 1, "key_press": -1, "wordID": 1070, "type": "PRES_VIS", "trial_index": 146}, "uniqueid": "MTK2006:3FTYUGLFSVSXAV87IGTBSX0FHWYD5P", "dateTime": 1516647018965}, {"current_trial": 147, "trialdata": {"rt": -1, "trial_type": "single-stim", "word": "valve", "stimulus": "<p id=\"stim\">VALVE</p>", "conditions": [24, 1600, "v", 24000], "internal_node_id": "0.0-102.0", "trial": 4, "time_elapsed": 1272134, "serialpos": 2, "key_press": -1, "wordID": 1545, "type": "PRES_VIS", "trial_index": 147}, "uniqueid": "MTK2006:3FTYUGLFSVSXAV87IGTBSX0FHWYD5P", "dateTime": 1516647021507}, {"current_trial": 148, "trialdata": {"rt": -1, "trial_type": "single-stim", "word": "bacon", "stimulus": "<p id=\"stim\">BACON</p>", "conditions": [24, 1600, "v", 24000], "internal_node_id": "0.0-103.0", "trial": 4, "time_elapsed": 1274596, "serialpos": 3, "key_press": -1, "wordID": 66, "type": "PRES_VIS", "trial_index": 148}, "uniqueid": "MTK2006:3FTYUGLFSVSXAV87IGTBSX0FHWYD5P", "dateTime": 1516647023969}, {"current_trial": 149, "trialdata": {"rt": -1, "trial_type": "single-stim", "word": "rod", "stimulus": "<p id=\"stim\">ROD</p>", "conditions": [24, 1600, "v", 24000], "internal_node_id": "0.0-104.0", "trial": 4, "time_elapsed": 1277101, "serialpos": 4, "key_press": -1, "wordID": 1202, "type": "PRES_VIS", "trial_index": 149}, "uniqueid": "MTK2006:3FTYUGLFSVSXAV87IGTBSX0FHWYD5P", "dateTime": 1516647026474}, {"current_trial": 150, "trialdata": {"rt": -1, "trial_type": "single-stim", "word": "plaza", "stimulus": "<p id=\"stim\">PLAZA</p>", "conditions": [24, 1600, "v", 24000], "internal_node_id": "0.0-105.0", "trial": 4, "time_elapsed": 1279739, "serialpos": 5, "key_press": -1, "wordID": 1087, "type": "PRES_VIS", "trial_index": 150}, "uniqueid": "MTK2006:3FTYUGLFSVSXAV87IGTBSX0FHWYD5P", "dateTime": 1516647029113}, {"current_trial": 151, "trialdata": {"rt": -1, "trial_type": "single-stim", "word": "sidewalk", "stimulus": "<p id=\"stim\">SIDEWALK</p>", "conditions": [24, 1600, "v", 24000], "internal_node_id": "0.0-106.0", "trial": 4, "time_elapsed": 1282262, "serialpos": 6, "key_press": -1, "wordID": 1302, "type": "PRES_VIS", "trial_index": 151}, "uniqueid": "MTK2006:3FTYUGLFSVSXAV87IGTBSX0FHWYD5P", "dateTime": 1516647031635}, {"current_trial": 152, "trialdata": {"rt": -1, "trial_type": "single-stim", "word": "thief", "stimulus": "<p id=\"stim\">THIEF</p>", "conditions": [24, 1600, "v", 24000], "internal_node_id": "0.0-107.0", "trial": 4, "time_elapsed": 1284947, "serialpos": 7, "key_press": -1, "wordID": 1455, "type": "PRES_VIS", "trial_index": 152}, "uniqueid": "MTK2006:3FTYUGLFSVSXAV87IGTBSX0FHWYD5P", "dateTime": 1516647034320}, {"current_trial": 153, "trialdata": {"rt": -1, "trial_type": "single-stim", "word": "freckle", "stimulus": "<p id=\"stim\">FRECKLE</p>", "conditions": [24, 1600, "v", 24000], "internal_node_id": "0.0-108.0", "trial": 4, "time_elapsed": 1287625, "serialpos": 8, "key_press": -1, "wordID": 601, "type": "PRES_VIS", "trial_index": 153}, "uniqueid": "MTK2006:3FTYUGLFSVSXAV87IGTBSX0FHWYD5P", "dateTime": 1516647036998}, {"current_trial": 154, "trialdata": {"rt": -1, "trial_type": "single-stim", "word": "bug", "stimulus": "<p id=\"stim\">BUG</p>", "conditions": [24, 1600, "v", 24000], "internal_node_id": "0.0-109.0", "trial": 4, "time_elapsed": 1290078, "serialpos": 9, "key_press": -1, "wordID": 186, "type": "PRES_VIS", "trial_index": 154}, "uniqueid": "MTK2006:3FTYUGLFSVSXAV87IGTBSX0FHWYD5P", "dateTime": 1516647039451}, {"current_trial": 155, "trialdata": {"rt": -1, "trial_type": "single-stim", "word": "film", "stimulus": "<p id=\"stim\">FILM</p>", "conditions": [24, 1600, "v", 24000], "internal_node_id": "0.0-110.0", "trial": 4, "time_elapsed": 1292526, "serialpos": 10, "key_press": -1, "wordID": 564, "type": "PRES_VIS", "trial_index": 155}, "uniqueid": "MTK2006:3FTYUGLFSVSXAV87IGTBSX0FHWYD5P", "dateTime": 1516647041900}, {"current_trial": 156, "trialdata": {"rt": -1, "trial_type": "single-stim", "word": "cookbook", "stimulus": "<p id=\"stim\">COOKBOOK</p>", "conditions": [24, 1600, "v", 24000], "internal_node_id": "0.0-111.0", "trial": 4, "time_elapsed": 1295005, "serialpos": 11, "key_press": -1, "wordID": 372, "type": "PRES_VIS", "trial_index": 156}, "uniqueid": "MTK2006:3FTYUGLFSVSXAV87IGTBSX0FHWYD5P", "dateTime": 1516647044378}, {"current_trial": 157, "trialdata": {"rt": -1, "trial_type": "single-stim", "word": "doughnut", "stimulus": "<p id=\"stim\">DOUGHNUT</p>", "conditions": [24, 1600, "v", 24000], "internal_node_id": "0.0-112.0", "trial": 4, "time_elapsed": 1297484, "serialpos": 12, "key_press": -1, "wordID": 489, "type": "PRES_VIS", "trial_index": 157}, "uniqueid": "MTK2006:3FTYUGLFSVSXAV87IGTBSX0FHWYD5P", "dateTime": 1516647046857}, {"current_trial": 158, "trialdata": {"rt": -1, "trial_type": "single-stim", "word": "cabbage", "stimulus": "<p id=\"stim\">CABBAGE</p>", "conditions": [24, 1600, "v", 24000], "internal_node_id": "0.0-113.0", "trial": 4, "time_elapsed": 1299978, "serialpos": 13, "key_press": -1, "wordID": 209, "type": "PRES_VIS", "trial_index": 158}, "uniqueid": "MTK2006:3FTYUGLFSVSXAV87IGTBSX0FHWYD5P", "dateTime": 1516647049351}, {"current_trial": 159, "trialdata": {"rt": -1, "trial_type": "single-stim", "word": "trout", "stimulus": "<p id=\"stim\">TROUT</p>", "conditions": [24, 1600, "v", 24000], "internal_node_id": "0.0-114.0", "trial": 4, "time_elapsed": 1302776, "serialpos": 14, "key_press": -1, "wordID": 1510, "type": "PRES_VIS", "trial_index": 159}, "uniqueid": "MTK2006:3FTYUGLFSVSXAV87IGTBSX0FHWYD5P", "dateTime": 1516647052149}, {"current_trial": 160, "trialdata": {"rt": -1, "trial_type": "single-stim", "word": "hamper", "stimulus": "<p id=\"stim\">HAMPER</p>", "conditions": [24, 1600, "v", 24000], "internal_node_id": "0.0-115.0", "trial": 4, "time_elapsed": 1305295, "serialpos": 15, "key_press": -1, "wordID": 681, "type": "PRES_VIS", "trial_index": 160}, "uniqueid": "MTK2006:3FTYUGLFSVSXAV87IGTBSX0FHWYD5P", "dateTime": 1516647054669}, {"current_trial": 161, "trialdata": {"rt": -1, "trial_type": "single-stim", "word": "cigar", "stimulus": "<p id=\"stim\">CIGAR</p>", "conditions": [24, 1600, "v", 24000], "internal_node_id": "0.0-116.0", "trial": 4, "time_elapsed": 1307939, "serialpos": 16, "key_press": -1, "wordID": 307, "type": "PRES_VIS", "trial_index": 161}, "uniqueid": "MTK2006:3FTYUGLFSVSXAV87IGTBSX0FHWYD5P", "dateTime": 1516647057312}, {"current_trial": 162, "trialdata": {"rt": -1, "trial_type": "single-stim", "word": "muffin", "stimulus": "<p id=\"stim\">MUFFIN</p>", "conditions": [24, 1600, "v", 24000], "internal_node_id": "0.0-117.0", "trial": 4, "time_elapsed": 1310443, "serialpos": 17, "key_press": -1, "wordID": 928, "type": "PRES_VIS", "trial_index": 162}, "uniqueid": "MTK2006:3FTYUGLFSVSXAV87IGTBSX0FHWYD5P", "dateTime": 1516647059817}, {"current_trial": 163, "trialdata": {"rt": -1, "trial_type": "single-stim", "word": "climber", "stimulus": "<p id=\"stim\">CLIMBER</p>", "conditions": [24, 1600, "v", 24000], "internal_node_id": "0.0-118.0", "trial": 4, "time_elapsed": 1313207, "serialpos": 18, "key_press": -1, "wordID": 322, "type": "PRES_VIS", "trial_index": 163}, "uniqueid": "MTK2006:3FTYUGLFSVSXAV87IGTBSX0FHWYD5P", "dateTime": 1516647062581}, {"current_trial": 164, "trialdata": {"rt": -1, "trial_type": "single-stim", "word": "hiker", "stimulus": "<p id=\"stim\">HIKER</p>", "conditions": [24, 1600, "v", 24000], "internal_node_id": "0.0-119.0", "trial": 4, "time_elapsed": 1315929, "serialpos": 19, "key_press": -1, "wordID": 707, "type": "PRES_VIS", "trial_index": 164}, "uniqueid": "MTK2006:3FTYUGLFSVSXAV87IGTBSX0FHWYD5P", "dateTime": 1516647065302}, {"current_trial": 165, "trialdata": {"rt": -1, "trial_type": "single-stim", "word": "clock", "stimulus": "<p id=\"stim\">CLOCK</p>", "conditions": [24, 1600, "v", 24000], "internal_node_id": "0.0-120.0", "trial": 4, "time_elapsed": 1318694, "serialpos": 20, "key_press": -1, "wordID": 324, "type": "PRES_VIS", "trial_index": 165}, "uniqueid": "MTK2006:3FTYUGLFSVSXAV87IGTBSX0FHWYD5P", "dateTime": 1516647068067}, {"current_trial": 166, "trialdata": {"rt": -1, "trial_type": "single-stim", "word": "pecan", "stimulus": "<p id=\"stim\">PECAN</p>", "conditions": [24, 1600, "v", 24000], "internal_node_id": "0.0-121.0", "trial": 4, "time_elapsed": 1321197, "serialpos": 21, "key_press": -1, "wordID": 1035, "type": "PRES_VIS", "trial_index": 166}, "uniqueid": "MTK2006:3FTYUGLFSVSXAV87IGTBSX0FHWYD5P", "dateTime": 1516647070571}, {"current_trial": 167, "trialdata": {"rt": -1, "trial_type": "single-stim", "word": "comet", "stimulus": "<p id=\"stim\">COMET</p>", "conditions": [24, 1600, "v", 24000], "internal_node_id": "0.0-122.0", "trial": 4, "time_elapsed": 1323930, "serialpos": 22, "key_press": -1, "wordID": 352, "type": "PRES_VIS", "trial_index": 167}, "uniqueid": "MTK2006:3FTYUGLFSVSXAV87IGTBSX0FHWYD5P", "dateTime": 1516647073305}, {"current_trial": 168, "trialdata": {"rt": -1, "trial_type": "single-stim", "word": "receipt", "stimulus": "<p id=\"stim\">RECEIPT</p>", "conditions": [24, 1600, "v", 24000], "internal_node_id": "0.0-123.0", "trial": 4, "time_elapsed": 1326372, "serialpos": 23, "key_press": -1, "wordID": 1172, "type": "PRES_VIS", "trial_index": 168}, "uniqueid": "MTK2006:3FTYUGLFSVSXAV87IGTBSX0FHWYD5P", "dateTime": 1516647075746}, {"current_trial": 169, "trialdata": {"rt": -1, "trial_type": "single-stim", "stimulus": "", "internal_node_id": "0.0-124.0-0.0", "time_elapsed": 1328673, "key_press": -1, "type": "PRE_RECALL_DELAY", "trial_index": 169}, "uniqueid": "MTK2006:3FTYUGLFSVSXAV87IGTBSX0FHWYD5P", "dateTime": 1516647078047}, {"current_trial": 170, "trialdata": {"rt": -1000, "trial_type": "single-audio", "stimulus": "/static/audio/400Hz.wav", "internal_node_id": "0.0-125.0", "time_elapsed": 1329179, "key_press": -1, "type": "PRE_RECALL_ALERT", "trial_index": 170}, "uniqueid": "MTK2006:3FTYUGLFSVSXAV87IGTBSX0FHWYD5P", "dateTime": 1516647078552}, {"current_trial": 171, "trialdata": {"rt": [2705, 7629, 10209, 12002, 16316, 18513, 22179, 48264], "recwords": ["receipt", "comet", "bug", "bacon", "doughnut", "cabbage", "plaza", "rod"], "key_times": [646, 767, 1056, 1379, 1727, 2114, 2297, 2705, 3040, 3166, 3635, 3964, 4213, 4900, 5287, 7014, 7161, 7629, 9600, 9761, 9914, 10209, 10776, 10950, 11119, 11313, 11461, 12002, 14730, 14867, 14947, 15185, 15341, 15633, 15842, 15980, 16316, 16903, 17010, 17263, 17401, 17580, 17863, 18015, 18513, 21146, 21329, 21461, 21676, 21827, 22179, 47753, 47915, 48022, 48264], "trial_type": "free-recall", "conditions": [24, 1600, "v", 24000], "internal_node_id": "0.0-126.0-0.0", "key_presses": [82, 69, 67, 69, 73, 80, 84, 13, 67, 79, 77, 69, 84, 8, 8, 69, 84, 13, 66, 85, 71, 13, 66, 65, 67, 79, 78, 13, 68, 79, 85, 71, 72, 78, 85, 84, 13, 67, 65, 66, 66, 65, 71, 69, 13, 80, 76, 65, 90, 65, 13, 82, 79, 68, 13], "trial": 4, "time_elapsed": 1389186, "type": "FREE_RECALL", "trial_index": 171}, "uniqueid": "MTK2006:3FTYUGLFSVSXAV87IGTBSX0FHWYD5P", "dateTime": 1516647138565}, {"current_trial": 172, "trialdata": {"rt": 832, "trial_type": "text", "internal_node_id": "0.0-127.0", "time_elapsed": 1392028, "key_press": 32, "type": "INSTRUCTIONS", "trial_index": 172}, "uniqueid": "MTK2006:3FTYUGLFSVSXAV87IGTBSX0FHWYD5P", "dateTime": 1516647141401}, {"current_trial": 173, "trialdata": {"rt": [2270, 5002, 7947], "trial_type": "math-distractor", "key_times": [1836, 2067, 2270, 4553, 4707, 5002, 7385, 7667, 7947], "responses": ["15", "18", "18"], "num2": [5, 7, 8, 4], "num3": [1, 9, 4, 1], "conditions": [24, 1600, "v", 12000], "internal_node_id": "0.0-128.0", "key_presses": [49, 53, 13, 49, 56, 13, 49, 56, 13], "trial": 5, "time_elapsed": 1406033, "type": "DISTRACTOR", "trial_index": 173, "num1": [9, 2, 6, 7]}, "uniqueid": "MTK2006:3FTYUGLFSVSXAV87IGTBSX0FHWYD5P", "dateTime": 1516647155406}, {"current_trial": 174, "trialdata": {"rt": -1, "trial_type": "single-stim", "stimulus": "<p id=\"stim\">10</p>", "internal_node_id": "0.0-129.0-0.0", "time_elapsed": 1409036, "key_press": -1, "trial_index": 174}, "uniqueid": "MTK2006:3FTYUGLFSVSXAV87IGTBSX0FHWYD5P", "dateTime": 1516647158410}, {"current_trial": 175, "trialdata": {"rt": -1, "trial_type": "single-stim", "stimulus": "<p id=\"stim\">9</p>", "internal_node_id": "0.0-129.0-1.0", "time_elapsed": 1410039, "key_press": -1, "trial_index": 175}, "uniqueid": "MTK2006:3FTYUGLFSVSXAV87IGTBSX0FHWYD5P", "dateTime": 1516647159413}, {"current_trial": 176, "trialdata": {"rt": -1, "trial_type": "single-stim", "stimulus": "<p id=\"stim\">8</p>", "internal_node_id": "0.0-129.0-2.0", "time_elapsed": 1411042, "key_press": -1, "trial_index": 176}, "uniqueid": "MTK2006:3FTYUGLFSVSXAV87IGTBSX0FHWYD5P", "dateTime": 1516647160416}, {"current_trial": 177, "trialdata": {"rt": -1, "trial_type": "single-stim", "stimulus": "<p id=\"stim\">7</p>", "internal_node_id": "0.0-129.0-3.0", "time_elapsed": 1412046, "key_press": -1, "trial_index": 177}, "uniqueid": "MTK2006:3FTYUGLFSVSXAV87IGTBSX0FHWYD5P", "dateTime": 1516647161419}, {"current_trial": 178, "trialdata": {"rt": -1, "trial_type": "single-stim", "stimulus": "<p id=\"stim\">6</p>", "internal_node_id": "0.0-129.0-4.0", "time_elapsed": 1413048, "key_press": -1, "trial_index": 178}, "uniqueid": "MTK2006:3FTYUGLFSVSXAV87IGTBSX0FHWYD5P", "dateTime": 1516647162424}, {"current_trial": 179, "trialdata": {"rt": -1, "trial_type": "single-stim", "stimulus": "<p id=\"stim\">5</p>", "internal_node_id": "0.0-129.0-5.0", "time_elapsed": 1414053, "key_press": -1, "trial_index": 179}, "uniqueid": "MTK2006:3FTYUGLFSVSXAV87IGTBSX0FHWYD5P", "dateTime": 1516647163427}, {"current_trial": 180, "trialdata": {"rt": -1, "trial_type": "single-stim", "stimulus": "<p id=\"stim\">4</p>", "internal_node_id": "0.0-129.0-6.0", "time_elapsed": 1415056, "key_press": -1, "trial_index": 180}, "uniqueid": "MTK2006:3FTYUGLFSVSXAV87IGTBSX0FHWYD5P", "dateTime": 1516647164429}, {"current_trial": 181, "trialdata": {"rt": -1, "trial_type": "single-stim", "stimulus": "<p id=\"stim\">3</p>", "internal_node_id": "0.0-129.0-7.0", "time_elapsed": 1416059, "key_press": -1, "trial_index": 181}, "uniqueid": "MTK2006:3FTYUGLFSVSXAV87IGTBSX0FHWYD5P", "dateTime": 1516647165432}, {"current_trial": 182, "trialdata": {"rt": -1, "trial_type": "single-stim", "stimulus": "<p id=\"stim\">2</p>", "internal_node_id": "0.0-129.0-8.0", "time_elapsed": 1417061, "key_press": -1, "trial_index": 182}, "uniqueid": "MTK2006:3FTYUGLFSVSXAV87IGTBSX0FHWYD5P", "dateTime": 1516647166434}, {"current_trial": 183, "trialdata": {"rt": -1, "trial_type": "single-stim", "stimulus": "<p id=\"stim\">1</p>", "internal_node_id": "0.0-129.0-9.0", "time_elapsed": 1418064, "key_press": -1, "trial_index": 183}, "uniqueid": "MTK2006:3FTYUGLFSVSXAV87IGTBSX0FHWYD5P", "dateTime": 1516647167437}, {"current_trial": 184, "trialdata": {"rt": -1, "trial_type": "single-stim", "stimulus": "<p id=\"stim\">+</p>", "internal_node_id": "0.0-130.0-0.0", "time_elapsed": 1419567, "key_press": -1, "type": "FIXATION", "trial_index": 184}, "uniqueid": "MTK2006:3FTYUGLFSVSXAV87IGTBSX0FHWYD5P", "dateTime": 1516647168940}, {"current_trial": 185, "trialdata": {"rt": -1, "trial_type": "single-stim", "word": "valley", "stimulus": "<p id=\"stim\">VALLEY</p>", "conditions": [24, 1600, "v", 12000], "internal_node_id": "0.0-131.0", "trial": 5, "time_elapsed": 1421170, "serialpos": 0, "key_press": -1, "wordID": 1544, "type": "PRES_VIS", "trial_index": 185}, "uniqueid": "MTK2006:3FTYUGLFSVSXAV87IGTBSX0FHWYD5P", "dateTime": 1516647170543}, {"current_trial": 186, "trialdata": {"rt": -1, "trial_type": "single-stim", "word": "canyon", "stimulus": "<p id=\"stim\">CANYON</p>", "conditions": [24, 1600, "v", 12000], "internal_node_id": "0.0-132.0", "trial": 5, "time_elapsed": 1423722, "serialpos": 1, "key_press": -1, "wordID": 234, "type": "PRES_VIS", "trial_index": 186}, "uniqueid": "MTK2006:3FTYUGLFSVSXAV87IGTBSX0FHWYD5P", "dateTime": 1516647173095}, {"current_trial": 187, "trialdata": {"rt": -1, "trial_type": "single-stim", "word": "washer", "stimulus": "<p id=\"stim\">WASHER</p>", "conditions": [24, 1600, "v", 12000], "internal_node_id": "0.0-133.0", "trial": 5, "time_elapsed": 1426360, "serialpos": 2, "key_press": -1, "wordID": 1591, "type": "PRES_VIS", "trial_index": 187}, "uniqueid": "MTK2006:3FTYUGLFSVSXAV87IGTBSX0FHWYD5P", "dateTime": 1516647175733}, {"current_trial": 188, "trialdata": {"rt": -1, "trial_type": "single-stim", "word": "banker", "stimulus": "<p id=\"stim\">BANKER</p>", "conditions": [24, 1600, "v", 12000], "internal_node_id": "0.0-134.0", "trial": 5, "time_elapsed": 1429080, "serialpos": 3, "key_press": -1, "wordID": 83, "type": "PRES_VIS", "trial_index": 188}, "uniqueid": "MTK2006:3FTYUGLFSVSXAV87IGTBSX0FHWYD5P", "dateTime": 1516647178453}, {"current_trial": 189, "trialdata": {"rt": -1, "trial_type": "single-stim", "word": "plaid", "stimulus": "<p id=\"stim\">PLAID</p>", "conditions": [24, 1600, "v", 12000], "internal_node_id": "0.0-135.0", "trial": 5, "time_elapsed": 1431822, "serialpos": 4, "key_press": -1, "wordID": 1079, "type": "PRES_VIS", "trial_index": 189}, "uniqueid": "MTK2006:3FTYUGLFSVSXAV87IGTBSX0FHWYD5P", "dateTime": 1516647181195}, {"current_trial": 190, "trialdata": {"rt": -1, "trial_type": "single-stim", "word": "sister", "stimulus": "<p id=\"stim\">SISTER</p>", "conditions": [24, 1600, "v", 12000], "internal_node_id": "0.0-136.0", "trial": 5, "time_elapsed": 1434251, "serialpos": 5, "key_press": -1, "wordID": 1311, "type": "PRES_VIS", "trial_index": 190}, "uniqueid": "MTK2006:3FTYUGLFSVSXAV87IGTBSX0FHWYD5P", "dateTime": 1516647183625}, {"current_trial": 191, "trialdata": {"rt": -1, "trial_type": "single-stim", "word": "robber", "stimulus": "<p id=\"stim\">ROBBER</p>", "conditions": [24, 1600, "v", 12000], "internal_node_id": "0.0-137.0", "trial": 5, "time_elapsed": 1436973, "serialpos": 6, "key_press": -1, "wordID": 1196, "type": "PRES_VIS", "trial_index": 191}, "uniqueid": "MTK2006:3FTYUGLFSVSXAV87IGTBSX0FHWYD5P", "dateTime": 1516647186346}, {"current_trial": 192, "trialdata": {"rt": -1, "trial_type": "single-stim", "word": "mars", "stimulus": "<p id=\"stim\">MARS</p>", "conditions": [24, 1600, "v", 12000], "internal_node_id": "0.0-138.0", "trial": 5, "time_elapsed": 1439378, "serialpos": 7, "key_press": -1, "wordID": 872, "type": "PRES_VIS", "trial_index": 192}, "uniqueid": "MTK2006:3FTYUGLFSVSXAV87IGTBSX0FHWYD5P", "dateTime": 1516647188751}, {"current_trial": 193, "trialdata": {"rt": -1, "trial_type": "single-stim", "word": "sibling", "stimulus": "<p id=\"stim\">SIBLING</p>", "conditions": [24, 1600, "v", 12000], "internal_node_id": "0.0-139.0", "trial": 5, "time_elapsed": 1442117, "serialpos": 8, "key_press": -1, "wordID": 1300, "type": "PRES_VIS", "trial_index": 193}, "uniqueid": "MTK2006:3FTYUGLFSVSXAV87IGTBSX0FHWYD5P", "dateTime": 1516647191490}, {"current_trial": 194, "trialdata": {"rt": -1, "trial_type": "single-stim", "word": "waitress", "stimulus": "<p id=\"stim\">WAITRESS</p>", "conditions": [24, 1600, "v", 12000], "internal_node_id": "0.0-140.0", "trial": 5, "time_elapsed": 1444809, "serialpos": 9, "key_press": -1, "wordID": 1580, "type": "PRES_VIS", "trial_index": 194}, "uniqueid": "MTK2006:3FTYUGLFSVSXAV87IGTBSX0FHWYD5P", "dateTime": 1516647194183}, {"current_trial": 195, "trialdata": {"rt": -1, "trial_type": "single-stim", "word": "friend", "stimulus": "<p id=\"stim\">FRIEND</p>", "conditions": [24, 1600, "v", 12000], "internal_node_id": "0.0-141.0", "trial": 5, "time_elapsed": 1447387, "serialpos": 10, "key_press": -1, "wordID": 605, "type": "PRES_VIS", "trial_index": 195}, "uniqueid": "MTK2006:3FTYUGLFSVSXAV87IGTBSX0FHWYD5P", "dateTime": 1516647196760}, {"current_trial": 196, "trialdata": {"rt": -1, "trial_type": "single-stim", "word": "guitar", "stimulus": "<p id=\"stim\">GUITAR</p>", "conditions": [24, 1600, "v", 12000], "internal_node_id": "0.0-142.0", "trial": 5, "time_elapsed": 1450186, "serialpos": 11, "key_press": -1, "wordID": 669, "type": "PRES_VIS", "trial_index": 196}, "uniqueid": "MTK2006:3FTYUGLFSVSXAV87IGTBSX0FHWYD5P", "dateTime": 1516647199560}, {"current_trial": 197, "trialdata": {"rt": -1, "trial_type": "single-stim", "word": "penguin", "stimulus": "<p id=\"stim\">PENGUIN</p>", "conditions": [24, 1600, "v", 12000], "internal_node_id": "0.0-143.0", "trial": 5, "time_elapsed": 1452758, "serialpos": 12, "key_press": -1, "wordID": 1043, "type": "PRES_VIS", "trial_index": 197}, "uniqueid": "MTK2006:3FTYUGLFSVSXAV87IGTBSX0FHWYD5P", "dateTime": 1516647202131}, {"current_trial": 198, "trialdata": {"rt": -1, "trial_type": "single-stim", "word": "drink", "stimulus": "<p id=\"stim\">DRINK</p>", "conditions": [24, 1600, "v", 12000], "internal_node_id": "0.0-144.0", "trial": 5, "time_elapsed": 1455547, "serialpos": 13, "key_press": -1, "wordID": 497, "type": "PRES_VIS", "trial_index": 198}, "uniqueid": "MTK2006:3FTYUGLFSVSXAV87IGTBSX0FHWYD5P", "dateTime": 1516647204920}, {"current_trial": 199, "trialdata": {"rt": -1, "trial_type": "single-stim", "word": "actress", "stimulus": "<p id=\"stim\">ACTRESS</p>", "conditions": [24, 1600, "v", 12000], "internal_node_id": "0.0-145.0", "trial": 5, "time_elapsed": 1458135, "serialpos": 14, "key_press": -1, "wordID": 5, "type": "PRES_VIS", "trial_index": 199}, "uniqueid": "MTK2006:3FTYUGLFSVSXAV87IGTBSX0FHWYD5P", "dateTime": 1516647207508}, {"current_trial": 200, "trialdata": {"rt": -1, "trial_type": "single-stim", "word": "girl", "stimulus": "<p id=\"stim\">GIRL</p>", "conditions": [24, 1600, "v", 12000], "internal_node_id": "0.0-146.0", "trial": 5, "time_elapsed": 1460646, "serialpos": 15, "key_press": -1, "wordID": 636, "type": "PRES_VIS", "trial_index": 200}, "uniqueid": "MTK2006:3FTYUGLFSVSXAV87IGTBSX0FHWYD5P", "dateTime": 1516647210019}, {"current_trial": 201, "trialdata": {"rt": -1, "trial_type": "single-stim", "word": "goblin", "stimulus": "<p id=\"stim\">GOBLIN</p>", "conditions": [24, 1600, "v", 12000], "internal_node_id": "0.0-147.0", "trial": 5, "time_elapsed": 1463445, "serialpos": 16, "key_press": -1, "wordID": 644, "type": "PRES_VIS", "trial_index": 201}, "uniqueid": "MTK2006:3FTYUGLFSVSXAV87IGTBSX0FHWYD5P", "dateTime": 1516647212818}, {"current_trial": 202, "trialdata": {"rt": -1, "trial_type": "single-stim", "word": "actor", "stimulus": "<p id=\"stim\">ACTOR</p>", "conditions": [24, 1600, "v", 12000], "internal_node_id": "0.0-148.0", "trial": 5, "time_elapsed": 1466008, "serialpos": 17, "key_press": -1, "wordID": 4, "type": "PRES_VIS", "trial_index": 202}, "uniqueid": "MTK2006:3FTYUGLFSVSXAV87IGTBSX0FHWYD5P", "dateTime": 1516647215382}, {"current_trial": 203, "trialdata": {"rt": -1, "trial_type": "single-stim", "word": "canal", "stimulus": "<p id=\"stim\">CANAL</p>", "conditions": [24, 1600, "v", 12000], "internal_node_id": "0.0-149.0", "trial": 5, "time_elapsed": 1468616, "serialpos": 18, "key_press": -1, "wordID": 225, "type": "PRES_VIS", "trial_index": 203}, "uniqueid": "MTK2006:3FTYUGLFSVSXAV87IGTBSX0FHWYD5P", "dateTime": 1516647217989}, {"current_trial": 204, "trialdata": {"rt": -1, "trial_type": "single-stim", "word": "river", "stimulus": "<p id=\"stim\">RIVER</p>", "conditions": [24, 1600, "v", 12000], "internal_node_id": "0.0-150.0", "trial": 5, "time_elapsed": 1471082, "serialpos": 19, "key_press": -1, "wordID": 1193, "type": "PRES_VIS", "trial_index": 204}, "uniqueid": "MTK2006:3FTYUGLFSVSXAV87IGTBSX0FHWYD5P", "dateTime": 1516647220455}, {"current_trial": 205, "trialdata": {"rt": -1, "trial_type": "single-stim", "word": "suitcase", "stimulus": "<p id=\"stim\">SUITCASE</p>", "conditions": [24, 1600, "v", 12000], "internal_node_id": "0.0-151.0", "trial": 5, "time_elapsed": 1473530, "serialpos": 20, "key_press": -1, "wordID": 1402, "type": "PRES_VIS", "trial_index": 205}, "uniqueid": "MTK2006:3FTYUGLFSVSXAV87IGTBSX0FHWYD5P", "dateTime": 1516647222903}, {"current_trial": 206, "trialdata": {"rt": -1, "trial_type": "single-stim", "word": "mask", "stimulus": "<p id=\"stim\">MASK</p>", "conditions": [24, 1600, "v", 12000], "internal_node_id": "0.0-152.0", "trial": 5, "time_elapsed": 1475967, "serialpos": 21, "key_press": -1, "wordID": 875, "type": "PRES_VIS", "trial_index": 206}, "uniqueid": "MTK2006:3FTYUGLFSVSXAV87IGTBSX0FHWYD5P", "dateTime": 1516647225341}, {"current_trial": 207, "trialdata": {"rt": -1, "trial_type": "single-stim", "word": "suspect", "stimulus": "<p id=\"stim\">SUSPECT</p>", "conditions": [24, 1600, "v", 12000], "internal_node_id": "0.0-153.0", "trial": 5, "time_elapsed": 1478708, "serialpos": 22, "key_press": -1, "wordID": 1414, "type": "PRES_VIS", "trial_index": 207}, "uniqueid": "MTK2006:3FTYUGLFSVSXAV87IGTBSX0FHWYD5P", "dateTime": 1516647228081}, {"current_trial": 208, "trialdata": {"rt": -1, "trial_type": "single-stim", "word": "window", "stimulus": "<p id=\"stim\">WINDOW</p>", "conditions": [24, 1600, "v", 12000], "internal_node_id": "0.0-154.0", "trial": 5, "time_elapsed": 1481423, "serialpos": 23, "key_press": -1, "wordID": 1610, "type": "PRES_VIS", "trial_index": 208}, "uniqueid": "MTK2006:3FTYUGLFSVSXAV87IGTBSX0FHWYD5P", "dateTime": 1516647230796}, {"current_trial": 209, "trialdata": {"rt": -1, "trial_type": "single-stim", "stimulus": "", "internal_node_id": "0.0-155.0-0.0", "time_elapsed": 1483500, "key_press": -1, "type": "PRE_RECALL_DELAY", "trial_index": 209}, "uniqueid": "MTK2006:3FTYUGLFSVSXAV87IGTBSX0FHWYD5P", "dateTime": 1516647232873}, {"current_trial": 210, "trialdata": {"rt": -1000, "trial_type": "single-audio", "stimulus": "/static/audio/400Hz.wav", "internal_node_id": "0.0-156.0", "time_elapsed": 1484003, "key_press": -1, "type": "PRE_RECALL_ALERT", "trial_index": 210}, "uniqueid": "MTK2006:3FTYUGLFSVSXAV87IGTBSX0FHWYD5P", "dateTime": 1516647233378}, {"current_trial": 211, "trialdata": {"rt": [1331, 3002, 4404, 6623, 7897, 9565, 12979, 17838, 19745, 24528, 29454, 30660, 31994], "recwords": ["window", "suspect", "robber", "waitress", "actor", "actress", "goblin", "canyon", "river", "valley", "friend", "sister", "sibling"], "key_times": [410, 524, 610, 745, 895, 976, 1331, 1533, 1627, 1759, 1848, 2397, 2613, 2687, 3002, 3211, 3379, 3558, 3697, 3866, 3959, 4404, 4648, 4728, 4795, 4941, 5192, 5401, 5665, 5794, 6623, 6840, 7040, 7279, 7499, 7674, 7897, 8092, 8290, 8476, 8664, 8842, 9076, 9240, 9565, 11013, 11442, 11596, 11772, 11944, 12144, 12277, 12440, 12979, 16112, 16195, 16330, 16866, 17013, 17177, 17838, 19018, 19168, 19233, 19362, 19473, 19745, 23504, 23622, 23869, 24004, 24112, 24211, 24528, 28178, 28369, 28508, 28610, 28736, 28840, 29454, 29783, 29883, 29989, 30175, 30344, 30455, 30660, 30845, 30981, 31101, 31229, 31369, 31495, 31664, 31994], "trial_type": "free-recall", "conditions": [24, 1600, "v", 12000], "internal_node_id": "0.0-157.0-0.0", "key_presses": [87, 73, 78, 68, 79, 87, 13, 83, 85, 83, 80, 69, 67, 84, 13, 82, 79, 66, 66, 69, 82, 13, 87, 65, 73, 84, 82, 69, 83, 83, 13, 65, 67, 84, 79, 82, 13, 65, 67, 84, 82, 69, 83, 83, 13, 66, 8, 71, 79, 66, 76, 73, 78, 13, 67, 65, 78, 89, 79, 78, 13, 82, 73, 86, 69, 82, 13, 86, 65, 76, 76, 69, 89, 13, 70, 82, 73, 69, 78, 68, 13, 83, 73, 83, 84, 69, 82, 13, 83, 73, 66, 76, 73, 78, 71, 13], "trial": 5, "time_elapsed": 1544015, "type": "FREE_RECALL", "trial_index": 211}, "uniqueid": "MTK2006:3FTYUGLFSVSXAV87IGTBSX0FHWYD5P", "dateTime": 1516647293394}, {"current_trial": 212, "trialdata": {"rt": 723, "trial_type": "text", "internal_node_id": "0.0-158.0", "time_elapsed": 1546746, "key_press": 32, "type": "INSTRUCTIONS", "trial_index": 212}, "uniqueid": "MTK2006:3FTYUGLFSVSXAV87IGTBSX0FHWYD5P", "dateTime": 1516647296119}, {"current_trial": 213, "trialdata": {"rt": [3731, 9694, 12303, 14343, 17056, 19674, 22320], "trial_type": "math-distractor", "key_times": [3545, 3731, 9371, 9480, 9694, 11895, 12117, 12303, 13978, 14091, 14343, 16779, 17056, 18831, 19103, 19674, 21132, 21384, 22320], "responses": ["9", "17", "14", "12", "9", "14", "17"], "num2": [4, 4, 8, 1, 4, 3, 1, 8], "num3": [1, 5, 2, 2, 3, 3, 8, 8], "conditions": [24, 1600, "v", 24000], "internal_node_id": "0.0-159.0", "key_presses": [57, 13, 49, 55, 13, 49, 52, 13, 49, 50, 13, 57, 13, 49, 52, 13, 49, 55, 13], "trial": 6, "time_elapsed": 1572754, "type": "DISTRACTOR", "trial_index": 213, "num1": [6, 8, 4, 9, 2, 8, 8, 8]}, "uniqueid": "MTK2006:3FTYUGLFSVSXAV87IGTBSX0FHWYD5P", "dateTime": 1516647322127}, {"current_trial": 214, "trialdata": {"rt": -1, "trial_type": "single-stim", "stimulus": "<p id=\"stim\">10</p>", "internal_node_id": "0.0-160.0-0.0", "time_elapsed": 1575758, "key_press": -1, "trial_index": 214}, "uniqueid": "MTK2006:3FTYUGLFSVSXAV87IGTBSX0FHWYD5P", "dateTime": 1516647325131}, {"current_trial": 215, "trialdata": {"rt": -1, "trial_type": "single-stim", "stimulus": "<p id=\"stim\">9</p>", "internal_node_id": "0.0-160.0-1.0", "time_elapsed": 1576760, "key_press": -1, "trial_index": 215}, "uniqueid": "MTK2006:3FTYUGLFSVSXAV87IGTBSX0FHWYD5P", "dateTime": 1516647326133}, {"current_trial": 216, "trialdata": {"rt": -1, "trial_type": "single-stim", "stimulus": "<p id=\"stim\">8</p>", "internal_node_id": "0.0-160.0-2.0", "time_elapsed": 1577762, "key_press": -1, "trial_index": 216}, "uniqueid": "MTK2006:3FTYUGLFSVSXAV87IGTBSX0FHWYD5P", "dateTime": 1516647327135}, {"current_trial": 217, "trialdata": {"rt": -1, "trial_type": "single-stim", "stimulus": "<p id=\"stim\">7</p>", "internal_node_id": "0.0-160.0-3.0", "time_elapsed": 1578764, "key_press": -1, "trial_index": 217}, "uniqueid": "MTK2006:3FTYUGLFSVSXAV87IGTBSX0FHWYD5P", "dateTime": 1516647328137}, {"current_trial": 218, "trialdata": {"rt": -1, "trial_type": "single-stim", "stimulus": "<p id=\"stim\">6</p>", "internal_node_id": "0.0-160.0-4.0", "time_elapsed": 1579768, "key_press": -1, "trial_index": 218}, "uniqueid": "MTK2006:3FTYUGLFSVSXAV87IGTBSX0FHWYD5P", "dateTime": 1516647329141}, {"current_trial": 219, "trialdata": {"rt": -1, "trial_type": "single-stim", "stimulus": "<p id=\"stim\">5</p>", "internal_node_id": "0.0-160.0-5.0", "time_elapsed": 1580770, "key_press": -1, "trial_index": 219}, "uniqueid": "MTK2006:3FTYUGLFSVSXAV87IGTBSX0FHWYD5P", "dateTime": 1516647330143}, {"current_trial": 220, "trialdata": {"rt": -1, "trial_type": "single-stim", "stimulus": "<p id=\"stim\">4</p>", "internal_node_id": "0.0-160.0-6.0", "time_elapsed": 1581771, "key_press": -1, "trial_index": 220}, "uniqueid": "MTK2006:3FTYUGLFSVSXAV87IGTBSX0FHWYD5P", "dateTime": 1516647331145}, {"current_trial": 221, "trialdata": {"rt": -1, "trial_type": "single-stim", "stimulus": "<p id=\"stim\">3</p>", "internal_node_id": "0.0-160.0-7.0", "time_elapsed": 1582774, "key_press": -1, "trial_index": 221}, "uniqueid": "MTK2006:3FTYUGLFSVSXAV87IGTBSX0FHWYD5P", "dateTime": 1516647332147}, {"current_trial": 222, "trialdata": {"rt": -1, "trial_type": "single-stim", "stimulus": "<p id=\"stim\">2</p>", "internal_node_id": "0.0-160.0-8.0", "time_elapsed": 1583776, "key_press": -1, "trial_index": 222}, "uniqueid": "MTK2006:3FTYUGLFSVSXAV87IGTBSX0FHWYD5P", "dateTime": 1516647333149}, {"current_trial": 223, "trialdata": {"rt": -1, "trial_type": "single-stim", "stimulus": "<p id=\"stim\">1</p>", "internal_node_id": "0.0-160.0-9.0", "time_elapsed": 1584779, "key_press": -1, "trial_index": 223}, "uniqueid": "MTK2006:3FTYUGLFSVSXAV87IGTBSX0FHWYD5P", "dateTime": 1516647334152}, {"current_trial": 224, "trialdata": {"rt": -1, "trial_type": "single-stim", "stimulus": "<p id=\"stim\">+</p>", "internal_node_id": "0.0-161.0-0.0", "time_elapsed": 1586282, "key_press": -1, "type": "FIXATION", "trial_index": 224}, "uniqueid": "MTK2006:3FTYUGLFSVSXAV87IGTBSX0FHWYD5P", "dateTime": 1516647335655}, {"current_trial": 225, "trialdata": {"rt": -1, "trial_type": "single-stim", "word": "flask", "stimulus": "<p id=\"stim\">FLASK</p>", "conditions": [24, 1600, "v", 24000], "internal_node_id": "0.0-162.0", "trial": 6, "time_elapsed": 1587884, "serialpos": 0, "key_press": -1, "wordID": 575, "type": "PRES_VIS", "trial_index": 225}, "uniqueid": "MTK2006:3FTYUGLFSVSXAV87IGTBSX0FHWYD5P", "dateTime": 1516647337257}, {"current_trial": 226, "trialdata": {"rt": -1, "trial_type": "single-stim", "word": "sandwich", "stimulus": "<p id=\"stim\">SANDWICH</p>", "conditions": [24, 1600, "v", 24000], "internal_node_id": "0.0-163.0", "trial": 6, "time_elapsed": 1590411, "serialpos": 1, "key_press": -1, "wordID": 1231, "type": "PRES_VIS", "trial_index": 226}, "uniqueid": "MTK2006:3FTYUGLFSVSXAV87IGTBSX0FHWYD5P", "dateTime": 1516647339785}, {"current_trial": 227, "trialdata": {"rt": -1, "trial_type": "single-stim", "word": "freezer", "stimulus": "<p id=\"stim\">FREEZER</p>", "conditions": [24, 1600, "v", 24000], "internal_node_id": "0.0-164.0", "trial": 6, "time_elapsed": 1593111, "serialpos": 2, "key_press": -1, "wordID": 603, "type": "PRES_VIS", "trial_index": 227}, "uniqueid": "MTK2006:3FTYUGLFSVSXAV87IGTBSX0FHWYD5P", "dateTime": 1516647342485}, {"current_trial": 228, "trialdata": {"rt": -1, "trial_type": "single-stim", "word": "mailbox", "stimulus": "<p id=\"stim\">MAILBOX</p>", "conditions": [24, 1600, "v", 24000], "internal_node_id": "0.0-165.0", "trial": 6, "time_elapsed": 1595622, "serialpos": 3, "key_press": -1, "wordID": 856, "type": "PRES_VIS", "trial_index": 228}, "uniqueid": "MTK2006:3FTYUGLFSVSXAV87IGTBSX0FHWYD5P", "dateTime": 1516647344995}, {"current_trial": 229, "trialdata": {"rt": -1, "trial_type": "single-stim", "word": "hostess", "stimulus": "<p id=\"stim\">HOSTESS</p>", "conditions": [24, 1600, "v", 24000], "internal_node_id": "0.0-166.0", "trial": 6, "time_elapsed": 1598165, "serialpos": 4, "key_press": -1, "wordID": 722, "type": "PRES_VIS", "trial_index": 229}, "uniqueid": "MTK2006:3FTYUGLFSVSXAV87IGTBSX0FHWYD5P", "dateTime": 1516647347539}, {"current_trial": 230, "trialdata": {"rt": -1, "trial_type": "single-stim", "word": "rooster", "stimulus": "<p id=\"stim\">ROOSTER</p>", "conditions": [24, 1600, "v", 24000], "internal_node_id": "0.0-167.0", "trial": 6, "time_elapsed": 1600941, "serialpos": 5, "key_press": -1, "wordID": 1208, "type": "PRES_VIS", "trial_index": 230}, "uniqueid": "MTK2006:3FTYUGLFSVSXAV87IGTBSX0FHWYD5P", "dateTime": 1516647350314}, {"current_trial": 231, "trialdata": {"rt": -1, "trial_type": "single-stim", "word": "garbage", "stimulus": "<p id=\"stim\">GARBAGE</p>", "conditions": [24, 1600, "v", 24000], "internal_node_id": "0.0-168.0", "trial": 6, "time_elapsed": 1603410, "serialpos": 6, "key_press": -1, "wordID": 621, "type": "PRES_VIS", "trial_index": 231}, "uniqueid": "MTK2006:3FTYUGLFSVSXAV87IGTBSX0FHWYD5P", "dateTime": 1516647352783}, {"current_trial": 232, "trialdata": {"rt": -1, "trial_type": "single-stim", "word": "glass", "stimulus": "<p id=\"stim\">GLASS</p>", "conditions": [24, 1600, "v", 24000], "internal_node_id": "0.0-169.0", "trial": 6, "time_elapsed": 1606166, "serialpos": 7, "key_press": -1, "wordID": 638, "type": "PRES_VIS", "trial_index": 232}, "uniqueid": "MTK2006:3FTYUGLFSVSXAV87IGTBSX0FHWYD5P", "dateTime": 1516647355539}, {"current_trial": 233, "trialdata": {"rt": -1, "trial_type": "single-stim", "word": "skillet", "stimulus": "<p id=\"stim\">SKILLET</p>", "conditions": [24, 1600, "v", 24000], "internal_node_id": "0.0-170.0", "trial": 6, "time_elapsed": 1608941, "serialpos": 8, "key_press": -1, "wordID": 1316, "type": "PRES_VIS", "trial_index": 233}, "uniqueid": "MTK2006:3FTYUGLFSVSXAV87IGTBSX0FHWYD5P", "dateTime": 1516647358315}, {"current_trial": 234, "trialdata": {"rt": -1, "trial_type": "single-stim", "word": "blender", "stimulus": "<p id=\"stim\">BLENDER</p>", "conditions": [24, 1600, "v", 24000], "internal_node_id": "0.0-171.0", "trial": 6, "time_elapsed": 1611733, "serialpos": 9, "key_press": -1, "wordID": 135, "type": "PRES_VIS", "trial_index": 234}, "uniqueid": "MTK2006:3FTYUGLFSVSXAV87IGTBSX0FHWYD5P", "dateTime": 1516647361106}, {"current_trial": 235, "trialdata": {"rt": -1, "trial_type": "single-stim", "word": "sticker", "stimulus": "<p id=\"stim\">STICKER</p>", "conditions": [24, 1600, "v", 24000], "internal_node_id": "0.0-172.0", "trial": 6, "time_elapsed": 1614294, "serialpos": 10, "key_press": -1, "wordID": 1381, "type": "PRES_VIS", "trial_index": 235}, "uniqueid": "MTK2006:3FTYUGLFSVSXAV87IGTBSX0FHWYD5P", "dateTime": 1516647363667}, {"current_trial": 236, "trialdata": {"rt": -1, "trial_type": "single-stim", "word": "beaker", "stimulus": "<p id=\"stim\">BEAKER</p>", "conditions": [24, 1600, "v", 24000], "internal_node_id": "0.0-173.0", "trial": 6, "time_elapsed": 1616990, "serialpos": 11, "key_press": -1, "wordID": 103, "type": "PRES_VIS", "trial_index": 236}, "uniqueid": "MTK2006:3FTYUGLFSVSXAV87IGTBSX0FHWYD5P", "dateTime": 1516647366364}, {"current_trial": 237, "trialdata": {"rt": -1, "trial_type": "single-stim", "word": "soda", "stimulus": "<p id=\"stim\">SODA</p>", "conditions": [24, 1600, "v", 24000], "internal_node_id": "0.0-174.0", "trial": 6, "time_elapsed": 1619457, "serialpos": 12, "key_press": -1, "wordID": 1340, "type": "PRES_VIS", "trial_index": 237}, "uniqueid": "MTK2006:3FTYUGLFSVSXAV87IGTBSX0FHWYD5P", "dateTime": 1516647368831}, {"current_trial": 238, "trialdata": {"rt": -1, "trial_type": "single-stim", "word": "parent", "stimulus": "<p id=\"stim\">PARENT</p>", "conditions": [24, 1600, "v", 24000], "internal_node_id": "0.0-175.0", "trial": 6, "time_elapsed": 1621977, "serialpos": 13, "key_press": -1, "wordID": 1012, "type": "PRES_VIS", "trial_index": 238}, "uniqueid": "MTK2006:3FTYUGLFSVSXAV87IGTBSX0FHWYD5P", "dateTime": 1516647371350}, {"current_trial": 239, "trialdata": {"rt": -1, "trial_type": "single-stim", "word": "garden", "stimulus": "<p id=\"stim\">GARDEN</p>", "conditions": [24, 1600, "v", 24000], "internal_node_id": "0.0-176.0", "trial": 6, "time_elapsed": 1624762, "serialpos": 14, "key_press": -1, "wordID": 622, "type": "PRES_VIS", "trial_index": 239}, "uniqueid": "MTK2006:3FTYUGLFSVSXAV87IGTBSX0FHWYD5P", "dateTime": 1516647374135}, {"current_trial": 240, "trialdata": {"rt": -1, "trial_type": "single-stim", "word": "shortcake", "stimulus": "<p id=\"stim\">SHORTCAKE</p>", "conditions": [24, 1600, "v", 24000], "internal_node_id": "0.0-177.0", "trial": 6, "time_elapsed": 1627339, "serialpos": 15, "key_press": -1, "wordID": 1291, "type": "PRES_VIS", "trial_index": 240}, "uniqueid": "MTK2006:3FTYUGLFSVSXAV87IGTBSX0FHWYD5P", "dateTime": 1516647376712}, {"current_trial": 241, "trialdata": {"rt": -1, "trial_type": "single-stim", "word": "london", "stimulus": "<p id=\"stim\">LONDON</p>", "conditions": [24, 1600, "v", 24000], "internal_node_id": "0.0-178.0", "trial": 6, "time_elapsed": 1630113, "serialpos": 16, "key_press": -1, "wordID": 842, "type": "PRES_VIS", "trial_index": 241}, "uniqueid": "MTK2006:3FTYUGLFSVSXAV87IGTBSX0FHWYD5P", "dateTime": 1516647379486}, {"current_trial": 242, "trialdata": {"rt": -1, "trial_type": "single-stim", "word": "coffee", "stimulus": "<p id=\"stim\">COFFEE</p>", "conditions": [24, 1600, "v", 24000], "internal_node_id": "0.0-179.0", "trial": 6, "time_elapsed": 1632746, "serialpos": 17, "key_press": -1, "wordID": 340, "type": "PRES_VIS", "trial_index": 242}, "uniqueid": "MTK2006:3FTYUGLFSVSXAV87IGTBSX0FHWYD5P", "dateTime": 1516647382120}, {"current_trial": 243, "trialdata": {"rt": -1, "trial_type": "single-stim", "word": "tile", "stimulus": "<p id=\"stim\">TILE</p>", "conditions": [24, 1600, "v", 24000], "internal_node_id": "0.0-180.0", "trial": 6, "time_elapsed": 1635372, "serialpos": 18, "key_press": -1, "wordID": 1467, "type": "PRES_VIS", "trial_index": 243}, "uniqueid": "MTK2006:3FTYUGLFSVSXAV87IGTBSX0FHWYD5P", "dateTime": 1516647384745}, {"current_trial": 244, "trialdata": {"rt": -1, "trial_type": "single-stim", "word": "globe", "stimulus": "<p id=\"stim\">GLOBE</p>", "conditions": [24, 1600, "v", 24000], "internal_node_id": "0.0-181.0", "trial": 6, "time_elapsed": 1638013, "serialpos": 19, "key_press": -1, "wordID": 640, "type": "PRES_VIS", "trial_index": 244}, "uniqueid": "MTK2006:3FTYUGLFSVSXAV87IGTBSX0FHWYD5P", "dateTime": 1516647387387}, {"current_trial": 245, "trialdata": {"rt": -1, "trial_type": "single-stim", "word": "world", "stimulus": "<p id=\"stim\">WORLD</p>", "conditions": [24, 1600, "v", 24000], "internal_node_id": "0.0-182.0", "trial": 6, "time_elapsed": 1640611, "serialpos": 20, "key_press": -1, "wordID": 1621, "type": "PRES_VIS", "trial_index": 245}, "uniqueid": "MTK2006:3FTYUGLFSVSXAV87IGTBSX0FHWYD5P", "dateTime": 1516647389985}, {"current_trial": 246, "trialdata": {"rt": -1, "trial_type": "single-stim", "word": "typist", "stimulus": "<p id=\"stim\">TYPIST</p>", "conditions": [24, 1600, "v", 24000], "internal_node_id": "0.0-183.0", "trial": 6, "time_elapsed": 1643341, "serialpos": 21, "key_press": -1, "wordID": 1531, "type": "PRES_VIS", "trial_index": 246}, "uniqueid": "MTK2006:3FTYUGLFSVSXAV87IGTBSX0FHWYD5P", "dateTime": 1516647392714}, {"current_trial": 247, "trialdata": {"rt": -1, "trial_type": "single-stim", "word": "teacher", "stimulus": "<p id=\"stim\">TEACHER</p>", "conditions": [24, 1600, "v", 24000], "internal_node_id": "0.0-184.0", "trial": 6, "time_elapsed": 1646140, "serialpos": 22, "key_press": -1, "wordID": 1439, "type": "PRES_VIS", "trial_index": 247}, "uniqueid": "MTK2006:3FTYUGLFSVSXAV87IGTBSX0FHWYD5P", "dateTime": 1516647395513}, {"current_trial": 248, "trialdata": {"rt": -1, "trial_type": "single-stim", "word": "statue", "stimulus": "<p id=\"stim\">STATUE</p>", "conditions": [24, 1600, "v", 24000], "internal_node_id": "0.0-185.0", "trial": 6, "time_elapsed": 1648558, "serialpos": 23, "key_press": -1, "wordID": 1373, "type": "PRES_VIS", "trial_index": 248}, "uniqueid": "MTK2006:3FTYUGLFSVSXAV87IGTBSX0FHWYD5P", "dateTime": 1516647397932}, {"current_trial": 249, "trialdata": {"rt": -1, "trial_type": "single-stim", "stimulus": "", "internal_node_id": "0.0-186.0-0.0", "time_elapsed": 1650813, "key_press": -1, "type": "PRE_RECALL_DELAY", "trial_index": 249}, "uniqueid": "MTK2006:3FTYUGLFSVSXAV87IGTBSX0FHWYD5P", "dateTime": 1516647400186}, {"current_trial": 250, "trialdata": {"rt": -1000, "trial_type": "single-audio", "stimulus": "/static/audio/400Hz.wav", "internal_node_id": "0.0-187.0", "time_elapsed": 1651317, "key_press": -1, "type": "PRE_RECALL_ALERT", "trial_index": 250}, "uniqueid": "MTK2006:3FTYUGLFSVSXAV87IGTBSX0FHWYD5P", "dateTime": 1516647400690}, {"current_trial": 251, "trialdata": {"rt": [10473, 12525, 15285, 18898, 22654, 38506], "recwords": ["statue", "teacher", "beaker", "mailbox", "sandwich", "glass"], "key_times": [575, 1518, 1661, 1812, 1988, 2138, 2310, 2495, 2606, 3287, 3425, 3530, 5460, 5641, 5779, 10473, 11292, 11464, 11571, 11909, 12072, 12143, 12217, 12525, 12682, 12798, 12870, 13146, 13457, 13614, 14473, 14612, 14699, 14769, 15285, 17380, 17448, 17571, 17737, 17967, 18062, 18285, 18898, 21262, 21508, 21685, 21759, 21960, 22106, 22183, 22308, 22654, 26965, 27459, 37686, 37837, 37939, 38150, 38304, 38506], "trial_type": "free-recal