{"assignmentId": "326O153BMJ5X6E10THMEWR6SXLQDEE", "workerId": "MTK2967", "questiondata": {"origin": "United States", "strat-rehearsal": "54", "marital": "Married/Domestic Partnership", "education": "Bachelor's degree", "ethnicity": "Not Hispanic", "color_depth": 24, "distracted": "No", "wrote-notes": "No", "strat-other": "no", "screen_width": 1280, "avail_screen_width": 1237, "avail_screen_height": 777, "strat-image": "83", "language": "English", "gender": "Female", "age": "38", "gender_other": "", "race": ["White"], "strat-categorize": "83", "pixel_depth": 24, "strat-spatial": "54", "strat-story": "83", "race_other": "", "screen_height": 800}, "bonus": 0, "hitId": "3FBEFUUYRKCT887FDN7C5IAPA7Q6AJ", "counterbalance": 267, "useragent": "Mozilla/5.0 (Macintosh; Intel Mac OS X 10_13_3) AppleWebKit/537.36 (KHTML, like Gecko) Chrome/64.0.3282.167 Safari/537.36", "eventdata": [{"eventtype": "initialized", "interval": 0, "value": null, "timestamp": 1519604130338}, {"eventtype": "window_resize", "interval": 0, "value": [1237, 726], "timestamp": 1519604130338}, {"eventtype": "focus", "interval": 511146, "value": "off", "timestamp": 1519604641484}, {"eventtype": "focus", "interval": 8539, "value": "on", "timestamp": 1519604650023}], "data": [{"current_trial": 0, "trialdata": {"rt": 7318, "trial_type": "text", "internal_node_id": "0.0-0.0", "time_elapsed": 7321, "key_press": 71, "type": "INSTRUCTIONS", "trial_index": 0}, "uniqueid": "MTK2967:326O153BMJ5X6E10THMEWR6SXLQDEE", "dateTime": 1519604138031}, {"current_trial": 1, "trialdata": {"rt": 11339, "trial_type": "text", "internal_node_id": "0.0-1.0", "time_elapsed": 18662, "key_press": 72, "type": "INSTRUCTIONS", "trial_index": 1}, "uniqueid": "MTK2967:326O153BMJ5X6E10THMEWR6SXLQDEE", "dateTime": 1519604149373}, {"current_trial": 2, "trialdata": {"rt": [11646], "trial_type": "audio-test", "responses": ["ocean"], "internal_node_id": "0.0-2.0", "time_elapsed": 30322, "type": "AUDIO_TEST", "trial_index": 2}, "uniqueid": "MTK2967:326O153BMJ5X6E10THMEWR6SXLQDEE", "dateTime": 1519604161032}, {"current_trial": 3, "trialdata": {"rt": [9631], "trial_type": "audio-test", "responses": ["crystal"], "internal_node_id": "0.0-3.0", "time_elapsed": 39957, "type": "AUDIO_TEST", "trial_index": 3}, "uniqueid": "MTK2967:326O153BMJ5X6E10THMEWR6SXLQDEE", "dateTime": 1519604170667}, {"current_trial": 4, "trialdata": {"rt": [6493], "trial_type": "audio-test", "responses": ["spice"], "internal_node_id": "0.0-4.0", "time_elapsed": 46457, "type": "AUDIO_TEST", "trial_index": 4}, "uniqueid": "MTK2967:326O153BMJ5X6E10THMEWR6SXLQDEE", "dateTime": 1519604177167}, {"current_trial": 5, "trialdata": {"rt": 20831, "trial_type": "survey-text", "responses": "{\"Q0\":\"12 am\",\"Q1\":\"8 am\",\"Q2\":\"5\"}", "internal_node_id": "0.0-5.0", "time_elapsed": 68040, "type": "SLEEP_SURVEY", "trial_index": 5}, "uniqueid": "MTK2967:326O153BMJ5X6E10THMEWR6SXLQDEE", "dateTime": 1519604198751}, {"current_trial": 6, "trialdata": {"rt": 97928, "trial_type": "text", "internal_node_id": "0.0-6.0", "time_elapsed": 166969, "key_press": 75, "type": "INSTRUCTIONS", "trial_index": 6}, "uniqueid": "MTK2967:326O153BMJ5X6E10THMEWR6SXLQDEE", "dateTime": 1519604297679}, {"current_trial": 7, "trialdata": {"rt": 9546, "trial_type": "text", "internal_node_id": "0.0-7.0", "time_elapsed": 177023, "key_press": 74, "type": "INSTRUCTIONS", "trial_index": 7}, "uniqueid": "MTK2967:326O153BMJ5X6E10THMEWR6SXLQDEE", "dateTime": 1519604307733}, {"current_trial": 8, "trialdata": {"rt": 65693, "trial_type": "text", "internal_node_id": "0.0-8.0", "time_elapsed": 243222, "key_press": 82, "type": "INSTRUCTIONS", "trial_index": 8}, "uniqueid": "MTK2967:326O153BMJ5X6E10THMEWR6SXLQDEE", "dateTime": 1519604373932}, {"current_trial": 9, "trialdata": {"rt": [2445, 5651, 8130, 10521, 15685], "trial_type": "math-distractor", "key_times": [1948, 2445, 5369, 5494, 5651, 7740, 7965, 8130, 10321, 10521, 13765, 14619, 15685], "responses": ["9", "11", "16", "9", "19"], "num2": [8, 2, 7, 5, 7, 3], "num3": [1, 4, 2, 3, 9, 9], "conditions": [18, 1200, "v", 18000], "internal_node_id": "0.0-9.0", "key_presses": [57, 13, 49, 49, 13, 49, 54, 13, 57, 13, 49, 57, 13], "trial": 0, "time_elapsed": 262237, "type": "DISTRACTOR", "trial_index": 9, "num1": [2, 5, 7, 1, 3, 4]}, "uniqueid": "MTK2967:326O153BMJ5X6E10THMEWR6SXLQDEE", "dateTime": 1519604392947}, {"current_trial": 10, "trialdata": {"rt": -1, "trial_type": "single-stim", "stimulus": "<p id=\"stim\">10</p>", "internal_node_id": "0.0-10.0-0.0", "time_elapsed": 265243, "key_press": -1, "trial_index": 10}, "uniqueid": "MTK2967:326O153BMJ5X6E10THMEWR6SXLQDEE", "dateTime": 1519604395953}, {"current_trial": 11, "trialdata": {"rt": -1, "trial_type": "single-stim", "stimulus": "<p id=\"stim\">9</p>", "internal_node_id": "0.0-10.0-1.0", "time_elapsed": 266247, "key_press": -1, "trial_index": 11}, "uniqueid": "MTK2967:326O153BMJ5X6E10THMEWR6SXLQDEE", "dateTime": 1519604396957}, {"current_trial": 12, "trialdata": {"rt": -1, "trial_type": "single-stim", "stimulus": "<p id=\"stim\">8</p>", "internal_node_id": "0.0-10.0-2.0", "time_elapsed": 267252, "key_press": -1, "trial_index": 12}, "uniqueid": "MTK2967:326O153BMJ5X6E10THMEWR6SXLQDEE", "dateTime": 1519604397962}, {"current_trial": 13, "trialdata": {"rt": -1, "trial_type": "single-stim", "stimulus": "<p id=\"stim\">7</p>", "internal_node_id": "0.0-10.0-3.0", "time_elapsed": 268255, "key_press": -1, "trial_index": 13}, "uniqueid": "MTK2967:326O153BMJ5X6E10THMEWR6SXLQDEE", "dateTime": 1519604398965}, {"current_trial": 14, "trialdata": {"rt": -1, "trial_type": "single-stim", "stimulus": "<p id=\"stim\">6</p>", "internal_node_id": "0.0-10.0-4.0", "time_elapsed": 269259, "key_press": -1, "trial_index": 14}, "uniqueid": "MTK2967:326O153BMJ5X6E10THMEWR6SXLQDEE", "dateTime": 1519604399969}, {"current_trial": 15, "trialdata": {"rt": -1, "trial_type": "single-stim", "stimulus": "<p id=\"stim\">5</p>", "internal_node_id": "0.0-10.0-5.0", "time_elapsed": 270263, "key_press": -1, "trial_index": 15}, "uniqueid": "MTK2967:326O153BMJ5X6E10THMEWR6SXLQDEE", "dateTime": 1519604400974}, {"current_trial": 16, "trialdata": {"rt": -1, "trial_type": "single-stim", "stimulus": "<p id=\"stim\">4</p>", "internal_node_id": "0.0-10.0-6.0", "time_elapsed": 271268, "key_press": -1, "trial_index": 16}, "uniqueid": "MTK2967:326O153BMJ5X6E10THMEWR6SXLQDEE", "dateTime": 1519604401978}, {"current_trial": 17, "trialdata": {"rt": -1, "trial_type": "single-stim", "stimulus": "<p id=\"stim\">3</p>", "internal_node_id": "0.0-10.0-7.0", "time_elapsed": 272272, "key_press": -1, "trial_index": 17}, "uniqueid": "MTK2967:326O153BMJ5X6E10THMEWR6SXLQDEE", "dateTime": 1519604402982}, {"current_trial": 18, "trialdata": {"rt": -1, "trial_type": "single-stim", "stimulus": "<p id=\"stim\">2</p>", "internal_node_id": "0.0-10.0-8.0", "time_elapsed": 273276, "key_press": -1, "trial_index": 18}, "uniqueid": "MTK2967:326O153BMJ5X6E10THMEWR6SXLQDEE", "dateTime": 1519604403987}, {"current_trial": 19, "trialdata": {"rt": -1, "trial_type": "single-stim", "stimulus": "<p id=\"stim\">1</p>", "internal_node_id": "0.0-10.0-9.0", "time_elapsed": 274280, "key_press": -1, "trial_index": 19}, "uniqueid": "MTK2967:326O153BMJ5X6E10THMEWR6SXLQDEE", "dateTime": 1519604404990}, {"current_trial": 20, "trialdata": {"rt": -1, "trial_type": "single-stim", "stimulus": "<p id=\"stim\">+</p>", "internal_node_id": "0.0-11.0-0.0", "time_elapsed": 275783, "key_press": -1, "type": "FIXATION", "trial_index": 20}, "uniqueid": "MTK2967:326O153BMJ5X6E10THMEWR6SXLQDEE", "dateTime": 1519604406493}, {"current_trial": 21, "trialdata": {"rt": -1, "trial_type": "single-stim", "word": "cowboy", "stimulus": "<p id=\"stim\">COWBOY</p>", "conditions": [18, 1200, "v", 18000], "internal_node_id": "0.0-12.0", "trial": 0, "time_elapsed": 276984, "serialpos": 0, "key_press": -1, "wordID": 394, "type": "PRES_VIS", "trial_index": 21}, "uniqueid": "MTK2967:326O153BMJ5X6E10THMEWR6SXLQDEE", "dateTime": 1519604407694}, {"current_trial": 22, "trialdata": {"rt": -1, "trial_type": "single-stim", "word": "shrub", "stimulus": "<p id=\"stim\">SHRUB</p>", "conditions": [18, 1200, "v", 18000], "internal_node_id": "0.0-13.0", "trial": 0, "time_elapsed": 278996, "serialpos": 1, "key_press": -1, "wordID": 1298, "type": "PRES_VIS", "trial_index": 22}, "uniqueid": "MTK2967:326O153BMJ5X6E10THMEWR6SXLQDEE", "dateTime": 1519604409706}, {"current_trial": 23, "trialdata": {"rt": -1, "trial_type": "single-stim", "word": "dime", "stimulus": "<p id=\"stim\">DIME</p>", "conditions": [18, 1200, "v", 18000], "internal_node_id": "0.0-14.0", "trial": 0, "time_elapsed": 281232, "serialpos": 2, "key_press": -1, "wordID": 465, "type": "PRES_VIS", "trial_index": 23}, "uniqueid": "MTK2967:326O153BMJ5X6E10THMEWR6SXLQDEE", "dateTime": 1519604411943}, {"current_trial": 24, "trialdata": {"rt": -1, "trial_type": "single-stim", "word": "palace", "stimulus": "<p id=\"stim\">PALACE</p>", "conditions": [18, 1200, "v", 18000], "internal_node_id": "0.0-15.0", "trial": 0, "time_elapsed": 283526, "serialpos": 3, "key_press": -1, "wordID": 1005, "type": "PRES_VIS", "trial_index": 24}, "uniqueid": "MTK2967:326O153BMJ5X6E10THMEWR6SXLQDEE", "dateTime": 1519604414236}, {"current_trial": 25, "trialdata": {"rt": -1, "trial_type": "single-stim", "word": "primate", "stimulus": "<p id=\"stim\">PRIMATE</p>", "conditions": [18, 1200, "v", 18000], "internal_node_id": "0.0-16.0", "trial": 0, "time_elapsed": 285673, "serialpos": 4, "key_press": -1, "wordID": 1122, "type": "PRES_VIS", "trial_index": 25}, "uniqueid": "MTK2967:326O153BMJ5X6E10THMEWR6SXLQDEE", "dateTime": 1519604416383}, {"current_trial": 26, "trialdata": {"rt": -1, "trial_type": "single-stim", "word": "champagne", "stimulus": "<p id=\"stim\">CHAMPAGNE</p>", "conditions": [18, 1200, "v", 18000], "internal_node_id": "0.0-17.0", "trial": 0, "time_elapsed": 287896, "serialpos": 5, "key_press": -1, "wordID": 277, "type": "PRES_VIS", "trial_index": 26}, "uniqueid": "MTK2967:326O153BMJ5X6E10THMEWR6SXLQDEE", "dateTime": 1519604418606}, {"current_trial": 27, "trialdata": {"rt": -1, "trial_type": "single-stim", "word": "vagrant", "stimulus": "<p id=\"stim\">VAGRANT</p>", "conditions": [18, 1200, "v", 18000], "internal_node_id": "0.0-18.0", "trial": 0, "time_elapsed": 289974, "serialpos": 6, "key_press": -1, "wordID": 1543, "type": "PRES_VIS", "trial_index": 27}, "uniqueid": "MTK2967:326O153BMJ5X6E10THMEWR6SXLQDEE", "dateTime": 1519604420684}, {"current_trial": 28, "trialdata": {"rt": -1, "trial_type": "single-stim", "word": "banjo", "stimulus": "<p id=\"stim\">BANJO</p>", "conditions": [18, 1200, "v", 18000], "internal_node_id": "0.0-19.0", "trial": 0, "time_elapsed": 292320, "serialpos": 7, "key_press": -1, "wordID": 81, "type": "PRES_VIS", "trial_index": 28}, "uniqueid": "MTK2967:326O153BMJ5X6E10THMEWR6SXLQDEE", "dateTime": 1519604423030}, {"current_trial": 29, "trialdata": {"rt": -1, "trial_type": "single-stim", "word": "ox", "stimulus": "<p id=\"stim\">OX</p>", "conditions": [18, 1200, "v", 18000], "internal_node_id": "0.0-20.0", "trial": 0, "time_elapsed": 294460, "serialpos": 8, "key_press": -1, "wordID": 993, "type": "PRES_VIS", "trial_index": 29}, "uniqueid": "MTK2967:326O153BMJ5X6E10THMEWR6SXLQDEE", "dateTime": 1519604425170}, {"current_trial": 30, "trialdata": {"rt": -1, "trial_type": "single-stim", "word": "quarter", "stimulus": "<p id=\"stim\">QUARTER</p>", "conditions": [18, 1200, "v", 18000], "internal_node_id": "0.0-21.0", "trial": 0, "time_elapsed": 296636, "serialpos": 9, "key_press": -1, "wordID": 1147, "type": "PRES_VIS", "trial_index": 30}, "uniqueid": "MTK2967:326O153BMJ5X6E10THMEWR6SXLQDEE", "dateTime": 1519604427346}, {"current_trial": 31, "trialdata": {"rt": -1, "trial_type": "single-stim", "word": "dolphin", "stimulus": "<p id=\"stim\">DOLPHIN</p>", "conditions": [18, 1200, "v", 18000], "internal_node_id": "0.0-22.0", "trial": 0, "time_elapsed": 298900, "serialpos": 10, "key_press": -1, "wordID": 482, "type": "PRES_VIS", "trial_index": 31}, "uniqueid": "MTK2967:326O153BMJ5X6E10THMEWR6SXLQDEE", "dateTime": 1519604429610}, {"current_trial": 32, "trialdata": {"rt": -1, "trial_type": "single-stim", "word": "knapsack", "stimulus": "<p id=\"stim\">KNAPSACK</p>", "conditions": [18, 1200, "v", 18000], "internal_node_id": "0.0-23.0", "trial": 0, "time_elapsed": 301082, "serialpos": 11, "key_press": -1, "wordID": 782, "type": "PRES_VIS", "trial_index": 32}, "uniqueid": "MTK2967:326O153BMJ5X6E10THMEWR6SXLQDEE", "dateTime": 1519604431793}, {"current_trial": 33, "trialdata": {"rt": -1, "trial_type": "single-stim", "word": "breast", "stimulus": "<p id=\"stim\">BREAST</p>", "conditions": [18, 1200, "v", 18000], "internal_node_id": "0.0-24.0", "trial": 0, "time_elapsed": 303415, "serialpos": 12, "key_press": -1, "wordID": 170, "type": "PRES_VIS", "trial_index": 33}, "uniqueid": "MTK2967:326O153BMJ5X6E10THMEWR6SXLQDEE", "dateTime": 1519604434126}, {"current_trial": 34, "trialdata": {"rt": -1, "trial_type": "single-stim", "word": "rod", "stimulus": "<p id=\"stim\">ROD</p>", "conditions": [18, 1200, "v", 18000], "internal_node_id": "0.0-25.0", "trial": 0, "time_elapsed": 305511, "serialpos": 13, "key_press": -1, "wordID": 1202, "type": "PRES_VIS", "trial_index": 34}, "uniqueid": "MTK2967:326O153BMJ5X6E10THMEWR6SXLQDEE", "dateTime": 1519604436221}, {"current_trial": 35, "trialdata": {"rt": -1, "trial_type": "single-stim", "word": "candy", "stimulus": "<p id=\"stim\">CANDY</p>", "conditions": [18, 1200, "v", 18000], "internal_node_id": "0.0-26.0", "trial": 0, "time_elapsed": 307692, "serialpos": 14, "key_press": -1, "wordID": 229, "type": "PRES_VIS", "trial_index": 35}, "uniqueid": "MTK2967:326O153BMJ5X6E10THMEWR6SXLQDEE", "dateTime": 1519604438402}, {"current_trial": 36, "trialdata": {"rt": -1, "trial_type": "single-stim", "word": "gymnast", "stimulus": "<p id=\"stim\">GYMNAST</p>", "conditions": [18, 1200, "v", 18000], "internal_node_id": "0.0-27.0", "trial": 0, "time_elapsed": 309980, "serialpos": 15, "key_press": -1, "wordID": 674, "type": "PRES_VIS", "trial_index": 36}, "uniqueid": "MTK2967:326O153BMJ5X6E10THMEWR6SXLQDEE", "dateTime": 1519604440690}, {"current_trial": 37, "trialdata": {"rt": -1, "trial_type": "single-stim", "word": "donkey", "stimulus": "<p id=\"stim\">DONKEY</p>", "conditions": [18, 1200, "v", 18000], "internal_node_id": "0.0-28.0", "trial": 0, "time_elapsed": 312330, "serialpos": 16, "key_press": -1, "wordID": 483, "type": "PRES_VIS", "trial_index": 37}, "uniqueid": "MTK2967:326O153BMJ5X6E10THMEWR6SXLQDEE", "dateTime": 1519604443040}, {"current_trial": 38, "trialdata": {"rt": -1, "trial_type": "single-stim", "word": "chauffeur", "stimulus": "<p id=\"stim\">CHAUFFEUR</p>", "conditions": [18, 1200, "v", 18000], "internal_node_id": "0.0-29.0", "trial": 0, "time_elapsed": 314471, "serialpos": 17, "key_press": -1, "wordID": 282, "type": "PRES_VIS", "trial_index": 38}, "uniqueid": "MTK2967:326O153BMJ5X6E10THMEWR6SXLQDEE", "dateTime": 1519604445182}, {"current_trial": 39, "trialdata": {"rt": -1, "trial_type": "single-stim", "stimulus": "", "internal_node_id": "0.0-30.0-0.0", "time_elapsed": 316630, "key_press": -1, "type": "PRE_RECALL_DELAY", "trial_index": 39}, "uniqueid": "MTK2967:326O153BMJ5X6E10THMEWR6SXLQDEE", "dateTime": 1519604447341}, {"current_trial": 40, "trialdata": {"rt": -1000, "trial_type": "single-audio", "stimulus": "/static/audio/400Hz.wav", "internal_node_id": "0.0-31.0", "time_elapsed": 317139, "key_press": -1, "type": "PRE_RECALL_ALERT", "trial_index": 40}, "uniqueid": "MTK2967:326O153BMJ5X6E10THMEWR6SXLQDEE", "dateTime": 1519604447849}, {"current_trial": 41, "trialdata": {"rt": [9717, 11754, 14781, 15882, 18086, 23454, 27676], "recwords": ["gymnast", "cowboy", "breast", "candy", "ox", "vagrant", "shrub"], "key_times": [2809, 2920, 3345, 3989, 4213, 4401, 4488, 4540, 4726, 6466, 6633, 6761, 6899, 7216, 7782, 8097, 8927, 9717, 10560, 10711, 10820, 11104, 11286, 11476, 11754, 13855, 13946, 14018, 14151, 14291, 14492, 14781, 15076, 15145, 15268, 15392, 15561, 15882, 17814, 17897, 18086, 22432, 22534, 22683, 22852, 22940, 23185, 23277, 23454, 26565, 26696, 26850, 27127, 27411, 27676], "trial_type": "free-recall", "conditions": [18, 1200, "v", 18000], "internal_node_id": "0.0-32.0-0.0", "key_presses": [71, 78, 8, 77, 89, 78, 65, 83, 84, 37, 37, 37, 37, 37, 8, 39, 77, 13, 67, 79, 87, 66, 79, 89, 13, 66, 82, 69, 65, 83, 84, 13, 67, 65, 78, 68, 89, 13, 79, 88, 13, 86, 65, 71, 82, 65, 78, 84, 13, 83, 72, 82, 85, 66, 13], "trial": 0, "time_elapsed": 377146, "type": "FREE_RECALL", "trial_index": 41}, "uniqueid": "MTK2967:326O153BMJ5X6E10THMEWR6SXLQDEE", "dateTime": 1519604507861}, {"current_trial": 42, "trialdata": {"rt": 3603, "trial_type": "text", "internal_node_id": "0.0-33.0", "time_elapsed": 382759, "key_press": 74, "type": "INSTRUCTIONS", "trial_index": 42}, "uniqueid": "MTK2967:326O153BMJ5X6E10THMEWR6SXLQDEE", "dateTime": 1519604513469}, {"current_trial": 43, "trialdata": {"rt": [1840, 6490, 9198, 12972, 14927, 16702], "trial_type": "math-distractor", "key_times": [1616, 1708, 1840, 5822, 6148, 6490, 8789, 8988, 9198, 11883, 12694, 12972, 14304, 14619, 14927, 16044, 16380, 16702], "responses": ["21", "25", "19", "16", "10", "15"], "num2": [7, 9, 6, 7, 3, 7, 7], "num3": [7, 8, 8, 4, 1, 1, 3], "conditions": [18, 1200, "v", 18000], "internal_node_id": "0.0-34.0", "key_presses": [50, 49, 13, 50, 53, 13, 49, 57, 13, 49, 54, 13, 49, 48, 13, 49, 53, 13], "trial": 1, "time_elapsed": 402766, "type": "DISTRACTOR", "trial_index": 43, "num1": [7, 8, 5, 5, 6, 7, 5]}, "uniqueid": "MTK2967:326O153BMJ5X6E10THMEWR6SXLQDEE", "dateTime": 1519604533476}, {"current_trial": 44, "trialdata": {"rt": -1, "trial_type": "single-stim", "stimulus": "<p id=\"stim\">10</p>", "internal_node_id": "0.0-35.0-0.0", "time_elapsed": 405768, "key_press": -1, "trial_index": 44}, "uniqueid": "MTK2967:326O153BMJ5X6E10THMEWR6SXLQDEE", "dateTime": 1519604536478}, {"current_trial": 45, "trialdata": {"rt": -1, "trial_type": "single-stim", "stimulus": "<p id=\"stim\">9</p>", "internal_node_id": "0.0-35.0-1.0", "time_elapsed": 406770, "key_press": -1, "trial_index": 45}, "uniqueid": "MTK2967:326O153BMJ5X6E10THMEWR6SXLQDEE", "dateTime": 1519604537481}, {"current_trial": 46, "trialdata": {"rt": -1, "trial_type": "single-stim", "stimulus": "<p id=\"stim\">8</p>", "internal_node_id": "0.0-35.0-2.0", "time_elapsed": 407774, "key_press": -1, "trial_index": 46}, "uniqueid": "MTK2967:326O153BMJ5X6E10THMEWR6SXLQDEE", "dateTime": 1519604538484}, {"current_trial": 47, "trialdata": {"rt": -1, "trial_type": "single-stim", "stimulus": "<p id=\"stim\">7</p>", "internal_node_id": "0.0-35.0-3.0", "time_elapsed": 408778, "key_press": -1, "trial_index": 47}, "uniqueid": "MTK2967:326O153BMJ5X6E10THMEWR6SXLQDEE", "dateTime": 1519604539489}, {"current_trial": 48, "trialdata": {"rt": -1, "trial_type": "single-stim", "stimulus": "<p id=\"stim\">6</p>", "internal_node_id": "0.0-35.0-4.0", "time_elapsed": 409782, "key_press": -1, "trial_index": 48}, "uniqueid": "MTK2967:326O153BMJ5X6E10THMEWR6SXLQDEE", "dateTime": 1519604540493}, {"current_trial": 49, "trialdata": {"rt": -1, "trial_type": "single-stim", "stimulus": "<p id=\"stim\">5</p>", "internal_node_id": "0.0-35.0-5.0", "time_elapsed": 410786, "key_press": -1, "trial_index": 49}, "uniqueid": "MTK2967:326O153BMJ5X6E10THMEWR6SXLQDEE", "dateTime": 1519604541496}, {"current_trial": 50, "trialdata": {"rt": -1, "trial_type": "single-stim", "stimulus": "<p id=\"stim\">4</p>", "internal_node_id": "0.0-35.0-6.0", "time_elapsed": 411791, "key_press": -1, "trial_index": 50}, "uniqueid": "MTK2967:326O153BMJ5X6E10THMEWR6SXLQDEE", "dateTime": 1519604542501}, {"current_trial": 51, "trialdata": {"rt": -1, "trial_type": "single-stim", "stimulus": "<p id=\"stim\">3</p>", "internal_node_id": "0.0-35.0-7.0", "time_elapsed": 412794, "key_press": -1, "trial_index": 51}, "uniqueid": "MTK2967:326O153BMJ5X6E10THMEWR6SXLQDEE", "dateTime": 1519604543504}, {"current_trial": 52, "trialdata": {"rt": -1, "trial_type": "single-stim", "stimulus": "<p id=\"stim\">2</p>", "internal_node_id": "0.0-35.0-8.0", "time_elapsed": 413799, "key_press": -1, "trial_index": 52}, "uniqueid": "MTK2967:326O153BMJ5X6E10THMEWR6SXLQDEE", "dateTime": 1519604544509}, {"current_trial": 53, "trialdata": {"rt": -1, "trial_type": "single-stim", "stimulus": "<p id=\"stim\">1</p>", "internal_node_id": "0.0-35.0-9.0", "time_elapsed": 414802, "key_press": -1, "trial_index": 53}, "uniqueid": "MTK2967:326O153BMJ5X6E10THMEWR6SXLQDEE", "dateTime": 1519604545512}, {"current_trial": 54, "trialdata": {"rt": -1, "trial_type": "single-stim", "stimulus": "<p id=\"stim\">+</p>", "internal_node_id": "0.0-36.0-0.0", "time_elapsed": 416306, "key_press": -1, "type": "FIXATION", "trial_index": 54}, "uniqueid": "MTK2967:326O153BMJ5X6E10THMEWR6SXLQDEE", "dateTime": 1519604547016}, {"current_trial": 55, "trialdata": {"rt": -1, "trial_type": "single-stim", "word": "swamp", "stimulus": "<p id=\"stim\">SWAMP</p>", "conditions": [18, 1200, "v", 18000], "internal_node_id": "0.0-37.0", "trial": 1, "time_elapsed": 417507, "serialpos": 0, "key_press": -1, "wordID": 1415, "type": "PRES_VIS", "trial_index": 55}, "uniqueid": "MTK2967:326O153BMJ5X6E10THMEWR6SXLQDEE", "dateTime": 1519604548217}, {"current_trial": 56, "trialdata": {"rt": -1, "trial_type": "single-stim", "word": "match", "stimulus": "<p id=\"stim\">MATCH</p>", "conditions": [18, 1200, "v", 18000], "internal_node_id": "0.0-38.0", "trial": 1, "time_elapsed": 419521, "serialpos": 1, "key_press": -1, "wordID": 877, "type": "PRES_VIS", "trial_index": 56}, "uniqueid": "MTK2967:326O153BMJ5X6E10THMEWR6SXLQDEE", "dateTime": 1519604550232}, {"current_trial": 57, "trialdata": {"rt": -1, "trial_type": "single-stim", "word": "servant", "stimulus": "<p id=\"stim\">SERVANT</p>", "conditions": [18, 1200, "v", 18000], "internal_node_id": "0.0-39.0", "trial": 1, "time_elapsed": 421732, "serialpos": 2, "key_press": -1, "wordID": 1270, "type": "PRES_VIS", "trial_index": 57}, "uniqueid": "MTK2967:326O153BMJ5X6E10THMEWR6SXLQDEE", "dateTime": 1519604552442}, {"current_trial": 58, "trialdata": {"rt": -1, "trial_type": "single-stim", "word": "slope", "stimulus": "<p id=\"stim\">SLOPE</p>", "conditions": [18, 1200, "v", 18000], "internal_node_id": "0.0-40.0", "trial": 1, "time_elapsed": 423973, "serialpos": 3, "key_press": -1, "wordID": 1327, "type": "PRES_VIS", "trial_index": 58}, "uniqueid": "MTK2967:326O153BMJ5X6E10THMEWR6SXLQDEE", "dateTime": 1519604554683}, {"current_trial": 59, "trialdata": {"rt": -1, "trial_type": "single-stim", "word": "fireman", "stimulus": "<p id=\"stim\">FIREMAN</p>", "conditions": [18, 1200, "v", 18000], "internal_node_id": "0.0-41.0", "trial": 1, "time_elapsed": 426259, "serialpos": 4, "key_press": -1, "wordID": 568, "type": "PRES_VIS", "trial_index": 59}, "uniqueid": "MTK2967:326O153BMJ5X6E10THMEWR6SXLQDEE", "dateTime": 1519604556970}, {"current_trial": 60, "trialdata": {"rt": -1, "trial_type": "single-stim", "word": "contract", "stimulus": "<p id=\"stim\">CONTRACT</p>", "conditions": [18, 1200, "v", 18000], "internal_node_id": "0.0-42.0", "trial": 1, "time_elapsed": 428338, "serialpos": 5, "key_press": -1, "wordID": 367, "type": "PRES_VIS", "trial_index": 60}, "uniqueid": "MTK2967:326O153BMJ5X6E10THMEWR6SXLQDEE", "dateTime": 1519604559049}, {"current_trial": 61, "trialdata": {"rt": -1, "trial_type": "single-stim", "word": "child", "stimulus": "<p id=\"stim\">CHILD</p>", "conditions": [18, 1200, "v", 18000], "internal_node_id": "0.0-43.0", "trial": 1, "time_elapsed": 430415, "serialpos": 6, "key_press": -1, "wordID": 298, "type": "PRES_VIS", "trial_index": 61}, "uniqueid": "MTK2967:326O153BMJ5X6E10THMEWR6SXLQDEE", "dateTime": 1519604561125}, {"current_trial": 62, "trialdata": {"rt": -1, "trial_type": "single-stim", "word": "dustpan", "stimulus": "<p id=\"stim\">DUSTPAN</p>", "conditions": [18, 1200, "v", 18000], "internal_node_id": "0.0-44.0", "trial": 1, "time_elapsed": 432470, "serialpos": 7, "key_press": -1, "wordID": 508, "type": "PRES_VIS", "trial_index": 62}, "uniqueid": "MTK2967:326O153BMJ5X6E10THMEWR6SXLQDEE", "dateTime": 1519604563180}, {"current_trial": 63, "trialdata": {"rt": -1, "trial_type": "single-stim", "word": "salt", "stimulus": "<p id=\"stim\">SALT</p>", "conditions": [18, 1200, "v", 18000], "internal_node_id": "0.0-45.0", "trial": 1, "time_elapsed": 434571, "serialpos": 8, "key_press": -1, "wordID": 1228, "type": "PRES_VIS", "trial_index": 63}, "uniqueid": "MTK2967:326O153BMJ5X6E10THMEWR6SXLQDEE", "dateTime": 1519604565281}, {"current_trial": 64, "trialdata": {"rt": -1, "trial_type": "single-stim", "word": "flask", "stimulus": "<p id=\"stim\">FLASK</p>", "conditions": [18, 1200, "v", 18000], "internal_node_id": "0.0-46.0", "trial": 1, "time_elapsed": 436946, "serialpos": 9, "key_press": -1, "wordID": 575, "type": "PRES_VIS", "trial_index": 64}, "uniqueid": "MTK2967:326O153BMJ5X6E10THMEWR6SXLQDEE", "dateTime": 1519604567657}, {"current_trial": 65, "trialdata": {"rt": -1, "trial_type": "single-stim", "word": "flag", "stimulus": "<p id=\"stim\">FLAG</p>", "conditions": [18, 1200, "v", 18000], "internal_node_id": "0.0-47.0", "trial": 1, "time_elapsed": 438959, "serialpos": 10, "key_press": -1, "wordID": 572, "type": "PRES_VIS", "trial_index": 65}, "uniqueid": "MTK2967:326O153BMJ5X6E10THMEWR6SXLQDEE", "dateTime": 1519604569669}, {"current_trial": 66, "trialdata": {"rt": -1, "trial_type": "single-stim", "word": "flashlight", "stimulus": "<p id=\"stim\">FLASHLIGHT</p>", "conditions": [18, 1200, "v", 18000], "internal_node_id": "0.0-48.0", "trial": 1, "time_elapsed": 441158, "serialpos": 11, "key_press": -1, "wordID": 574, "type": "PRES_VIS", "trial_index": 66}, "uniqueid": "MTK2967:326O153BMJ5X6E10THMEWR6SXLQDEE", "dateTime": 1519604571869}, {"current_trial": 67, "trialdata": {"rt": -1, "trial_type": "single-stim", "word": "marsh", "stimulus": "<p id=\"stim\">MARSH</p>", "conditions": [18, 1200, "v", 18000], "internal_node_id": "0.0-49.0", "trial": 1, "time_elapsed": 443277, "serialpos": 12, "key_press": -1, "wordID": 873, "type": "PRES_VIS", "trial_index": 67}, "uniqueid": "MTK2967:326O153BMJ5X6E10THMEWR6SXLQDEE", "dateTime": 1519604573987}, {"current_trial": 68, "trialdata": {"rt": -1, "trial_type": "single-stim", "word": "grave", "stimulus": "<p id=\"stim\">GRAVE</p>", "conditions": [18, 1200, "v", 18000], "internal_node_id": "0.0-50.0", "trial": 1, "time_elapsed": 445325, "serialpos": 13, "key_press": -1, "wordID": 657, "type": "PRES_VIS", "trial_index": 68}, "uniqueid": "MTK2967:326O153BMJ5X6E10THMEWR6SXLQDEE", "dateTime": 1519604576039}, {"current_trial": 69, "trialdata": {"rt": -1, "trial_type": "single-stim", "word": "plaid", "stimulus": "<p id=\"stim\">PLAID</p>", "conditions": [18, 1200, "v", 18000], "internal_node_id": "0.0-51.0", "trial": 1, "time_elapsed": 447426, "serialpos": 14, "key_press": -1, "wordID": 1079, "type": "PRES_VIS", "trial_index": 69}, "uniqueid": "MTK2967:326O153BMJ5X6E10THMEWR6SXLQDEE", "dateTime": 1519604578136}, {"current_trial": 70, "trialdata": {"rt": -1, "trial_type": "single-stim", "word": "boyfriend", "stimulus": "<p id=\"stim\">BOYFRIEND</p>", "conditions": [18, 1200, "v", 18000], "internal_node_id": "0.0-52.0", "trial": 1, "time_elapsed": 449644, "serialpos": 15, "key_press": -1, "wordID": 161, "type": "PRES_VIS", "trial_index": 70}, "uniqueid": "MTK2967:326O153BMJ5X6E10THMEWR6SXLQDEE", "dateTime": 1519604580354}, {"current_trial": 71, "trialdata": {"rt": -1, "trial_type": "single-stim", "word": "rug", "stimulus": "<p id=\"stim\">RUG</p>", "conditions": [18, 1200, "v", 18000], "internal_node_id": "0.0-53.0", "trial": 1, "time_elapsed": 451861, "serialpos": 16, "key_press": -1, "wordID": 1214, "type": "PRES_VIS", "trial_index": 71}, "uniqueid": "MTK2967:326O153BMJ5X6E10THMEWR6SXLQDEE", "dateTime": 1519604582571}, {"current_trial": 72, "trialdata": {"rt": -1, "trial_type": "single-stim", "word": "casket", "stimulus": "<p id=\"stim\">CASKET</p>", "conditions": [18, 1200, "v", 18000], "internal_node_id": "0.0-54.0", "trial": 1, "time_elapsed": 453892, "serialpos": 17, "key_press": -1, "wordID": 254, "type": "PRES_VIS", "trial_index": 72}, "uniqueid": "MTK2967:326O153BMJ5X6E10THMEWR6SXLQDEE", "dateTime": 1519604584603}, {"current_trial": 73, "trialdata": {"rt": -1, "trial_type": "single-stim", "stimulus": "", "internal_node_id": "0.0-55.0-0.0", "time_elapsed": 456208, "key_press": -1, "type": "PRE_RECALL_DELAY", "trial_index": 73}, "uniqueid": "MTK2967:326O153BMJ5X6E10THMEWR6SXLQDEE", "dateTime": 1519604586919}, {"current_trial": 74, "trialdata": {"rt": -1000, "trial_type": "single-audio", "stimulus": "/static/audio/400Hz.wav", "internal_node_id": "0.0-56.0", "time_elapsed": 456711, "key_press": -1, "type": "PRE_RECALL_ALERT", "trial_index": 74}, "uniqueid": "MTK2967:326O153BMJ5X6E10THMEWR6SXLQDEE", "dateTime": 1519604587422}, {"current_trial": 75, "trialdata": {"rt": [3423, 4892, 6475, 7940, 14661], "recwords": ["swamp", "match", "servant", "flag", "boyfriend"], "key_times": [922, 1566, 1721, 2099, 2352, 2785, 3242, 3423, 3925, 4001, 4108, 4332, 4455, 4892, 5316, 5462, 5609, 5821, 5921, 6087, 6183, 6475, 6970, 7239, 7342, 7462, 7940, 12816, 13076, 13238, 13455, 13828, 14012, 14117, 14272, 14367, 14661], "trial_type": "free-recall", "conditions": [18, 1200, "v", 18000], "internal_node_id": "0.0-57.0-0.0", "key_presses": [83, 87, 65, 77, 79, 8, 80, 13, 77, 65, 84, 67, 72, 13, 83, 69, 82, 86, 65, 78, 84, 13, 70, 76, 65, 71, 13, 66, 79, 89, 70, 82, 73, 69, 78, 68, 13], "trial": 1, "time_elapsed": 516717, "type": "FREE_RECALL", "trial_index": 75}, "uniqueid": "MTK2967:326O153BMJ5X6E10THMEWR6SXLQDEE", "dateTime": 1519604647430}, {"current_trial": 76, "trialdata": {"rt": 8377, "trial_type": "text", "internal_node_id": "0.0-58.0", "time_elapsed": 527102, "key_press": 72, "type": "INSTRUCTIONS", "trial_index": 76}, "uniqueid": "MTK2967:326O153BMJ5X6E10THMEWR6SXLQDEE", "dateTime": 1519604657812}, {"current_trial": 77, "trialdata": {"rt": [4055, 8528, 10740, 16594, 19663], "trial_type": "math-distractor", "key_times": [2353, 2513, 3385, 3824, 4055, 7726, 8307, 8528, 10226, 10383, 10740, 15393, 16102, 16594, 18958, 19336, 19663], "responses": ["16", "17", "10", "17", "17"], "num2": [3, 9, 1, 8, 6, 9], "num3": [6, 5, 5, 3, 2, 4], "conditions": [24, 800, "v", 24000], "internal_node_id": "0.0-59.0", "key_presses": [49, 56, 8, 54, 13, 49, 55, 13, 49, 48, 13, 49, 55, 13, 49, 55, 13], "trial": 2, "time_elapsed": 552110, "type": "DISTRACTOR", "trial_index": 77, "num1": [7, 3, 4, 6, 9, 7]}, "uniqueid": "MTK2967:326O153BMJ5X6E10THMEWR6SXLQDEE", "dateTime": 1519604682820}, {"current_trial": 78, "trialdata": {"rt": -1, "trial_type": "single-stim", "stimulus": "<p id=\"stim\">10</p>", "internal_node_id": "0.0-60.0-0.0", "time_elapsed": 555116, "key_press": -1, "trial_index": 78}, "uniqueid": "MTK2967:326O153BMJ5X6E10THMEWR6SXLQDEE", "dateTime": 1519604685827}, {"current_trial": 79, "trialdata": {"rt": -1, "trial_type": "single-stim", "stimulus": "<p id=\"stim\">9</p>", "internal_node_id": "0.0-60.0-1.0", "time_elapsed": 556119, "key_press": -1, "trial_index": 79}, "uniqueid": "MTK2967:326O153BMJ5X6E10THMEWR6SXLQDEE", "dateTime": 1519604686830}, {"current_trial": 80, "trialdata": {"rt": -1, "trial_type": "single-stim", "stimulus": "<p id=\"stim\">8</p>", "internal_node_id": "0.0-60.0-2.0", "time_elapsed": 557124, "key_press": -1, "trial_index": 80}, "uniqueid": "MTK2967:326O153BMJ5X6E10THMEWR6SXLQDEE", "dateTime": 1519604687834}, {"current_trial": 81, "trialdata": {"rt": -1, "trial_type": "single-stim", "stimulus": "<p id=\"stim\">7</p>", "internal_node_id": "0.0-60.0-3.0", "time_elapsed": 558128, "key_press": -1, "trial_index": 81}, "uniqueid": "MTK2967:326O153BMJ5X6E10THMEWR6SXLQDEE", "dateTime": 1519604688838}, {"current_trial": 82, "trialdata": {"rt": -1, "trial_type": "single-stim", "stimulus": "<p id=\"stim\">6</p>", "internal_node_id": "0.0-60.0-4.0", "time_elapsed": 559132, "key_press": -1, "trial_index": 82}, "uniqueid": "MTK2967:326O153BMJ5X6E10THMEWR6SXLQDEE", "dateTime": 1519604689842}, {"current_trial": 83, "trialdata": {"rt": -1, "trial_type": "single-stim", "stimulus": "<p id=\"stim\">5</p>", "internal_node_id": "0.0-60.0-5.0", "time_elapsed": 560136, "key_press": -1, "trial_index": 83}, "uniqueid": "MTK2967:326O153BMJ5X6E10THMEWR6SXLQDEE", "dateTime": 1519604690846}, {"current_trial": 84, "trialdata": {"rt": -1, "trial_type": "single-stim", "stimulus": "<p id=\"stim\">4</p>", "internal_node_id": "0.0-60.0-6.0", "time_elapsed": 561140, "key_press": -1, "trial_index": 84}, "uniqueid": "MTK2967:326O153BMJ5X6E10THMEWR6SXLQDEE", "dateTime": 1519604691850}, {"current_trial": 85, "trialdata": {"rt": -1, "trial_type": "single-stim", "stimulus": "<p id=\"stim\">3</p>", "internal_node_id": "0.0-60.0-7.0", "time_elapsed": 562144, "key_press": -1, "trial_index": 85}, "uniqueid": "MTK2967:326O153BMJ5X6E10THMEWR6SXLQDEE", "dateTime": 1519604692854}, {"current_trial": 86, "trialdata": {"rt": -1, "trial_type": "single-stim", "stimulus": "<p id=\"stim\">2</p>", "internal_node_id": "0.0-60.0-8.0", "time_elapsed": 563148, "key_press": -1, "trial_index": 86}, "uniqueid": "MTK2967:326O153BMJ5X6E10THMEWR6SXLQDEE", "dateTime": 1519604693858}, {"current_trial": 87, "trialdata": {"rt": -1, "trial_type": "single-stim", "stimulus": "<p id=\"stim\">1</p>", "internal_node_id": "0.0-60.0-9.0", "time_elapsed": 564153, "key_press": -1, "trial_index": 87}, "uniqueid": "MTK2967:326O153BMJ5X6E10THMEWR6SXLQDEE", "dateTime": 1519604694863}, {"current_trial": 88, "trialdata": {"rt": -1, "trial_type": "single-stim", "stimulus": "<p id=\"stim\">+</p>", "internal_node_id": "0.0-61.0-0.0", "time_elapsed": 565655, "key_press": -1, "type": "FIXATION", "trial_index": 88}, "uniqueid": "MTK2967:326O153BMJ5X6E10THMEWR6SXLQDEE", "dateTime": 1519604696365}, {"current_trial": 89, "trialdata": {"rt": -1, "trial_type": "single-stim", "word": "cigar", "stimulus": "<p id=\"stim\">CIGAR</p>", "conditions": [24, 800, "v", 24000], "internal_node_id": "0.0-62.0", "trial": 2, "time_elapsed": 566456, "serialpos": 0, "key_press": -1, "wordID": 307, "type": "PRES_VIS", "trial_index": 89}, "uniqueid": "MTK2967:326O153BMJ5X6E10THMEWR6SXLQDEE", "dateTime": 1519604697166}, {"current_trial": 90, "trialdata": {"rt": -1, "trial_type": "single-stim", "word": "gallon", "stimulus": "<p id=\"stim\">GALLON</p>", "conditions": [24, 800, "v", 24000], "internal_node_id": "0.0-63.0", "trial": 2, "time_elapsed": 568389, "serialpos": 1, "key_press": -1, "wordID": 617, "type": "PRES_VIS", "trial_index": 90}, "uniqueid": "MTK2967:326O153BMJ5X6E10THMEWR6SXLQDEE", "dateTime": 1519604699099}, {"current_trial": 91, "trialdata": {"rt": -1, "trial_type": "single-stim", "word": "pecan", "stimulus": "<p id=\"stim\">PECAN</p>", "conditions": [24, 800, "v", 24000], "internal_node_id": "0.0-64.0", "trial": 2, "time_elapsed": 570293, "serialpos": 2, "key_press": -1, "wordID": 1035, "type": "PRES_VIS", "trial_index": 91}, "uniqueid": "MTK2967:326O153BMJ5X6E10THMEWR6SXLQDEE", "dateTime": 1519604701003}, {"current_trial": 92, "trialdata": {"rt": -1, "trial_type": "single-stim", "word": "sponge", "stimulus": "<p id=\"stim\">SPONGE</p>", "conditions": [24, 800, "v", 24000], "internal_node_id": "0.0-65.0", "trial": 2, "time_elapsed": 571953, "serialpos": 3, "key_press": -1, "wordID": 1354, "type": "PRES_VIS", "trial_index": 92}, "uniqueid": "MTK2967:326O153BMJ5X6E10THMEWR6SXLQDEE", "dateTime": 1519604702663}, {"current_trial": 93, "trialdata": {"rt": -1, "trial_type": "single-stim", "word": "burglar", "stimulus": "<p id=\"stim\">BURGLAR</p>", "conditions": [24, 800, "v", 24000], "internal_node_id": "0.0-66.0", "trial": 2, "time_elapsed": 573869, "serialpos": 4, "key_press": -1, "wordID": 199, "type": "PRES_VIS", "trial_index": 93}, "uniqueid": "MTK2967:326O153BMJ5X6E10THMEWR6SXLQDEE", "dateTime": 1519604704579}, {"current_trial": 94, "trialdata": {"rt": -1, "trial_type": "single-stim", "word": "barrel", "stimulus": "<p id=\"stim\">BARREL</p>", "conditions": [24, 800, "v", 24000], "internal_node_id": "0.0-67.0", "trial": 2, "time_elapsed": 575754, "serialpos": 5, "key_press": -1, "wordID": 90, "type": "PRES_VIS", "trial_index": 94}, "uniqueid": "MTK2967:326O153BMJ5X6E10THMEWR6SXLQDEE", "dateTime": 1519604706465}, {"current_trial": 95, "trialdata": {"rt": -1, "trial_type": "single-stim", "word": "fungus", "stimulus": "<p id=\"stim\">FUNGUS</p>", "conditions": [24, 800, "v", 24000], "internal_node_id": "0.0-68.0", "trial": 2, "time_elapsed": 577670, "serialpos": 6, "key_press": -1, "wordID": 613, "type": "PRES_VIS", "trial_index": 95}, "uniqueid": "MTK2967:326O153BMJ5X6E10THMEWR6SXLQDEE", "dateTime": 1519604708380}, {"current_trial": 96, "trialdata": {"rt": -1, "trial_type": "single-stim", "word": "county", "stimulus": "<p id=\"stim\">COUNTY</p>", "conditions": [24, 800, "v", 24000], "internal_node_id": "0.0-69.0", "trial": 2, "time_elapsed": 579611, "serialpos": 7, "key_press": -1, "wordID": 388, "type": "PRES_VIS", "trial_index": 96}, "uniqueid": "MTK2967:326O153BMJ5X6E10THMEWR6SXLQDEE", "dateTime": 1519604710321}, {"current_trial": 97, "trialdata": {"rt": -1, "trial_type": "single-stim", "word": "sheriff", "stimulus": "<p id=\"stim\">SHERIFF</p>", "conditions": [24, 800, "v", 24000], "internal_node_id": "0.0-70.0", "trial": 2, "time_elapsed": 581477, "serialpos": 8, "key_press": -1, "wordID": 1283, "type": "PRES_VIS", "trial_index": 97}, "uniqueid": "MTK2967:326O153BMJ5X6E10THMEWR6SXLQDEE", "dateTime": 1519604712187}, {"current_trial": 98, "trialdata": {"rt": -1, "trial_type": "single-stim", "word": "lumber", "stimulus": "<p id=\"stim\">LUMBER</p>", "conditions": [24, 800, "v", 24000], "internal_node_id": "0.0-71.0", "trial": 2, "time_elapsed": 583259, "serialpos": 9, "key_press": -1, "wordID": 847, "type": "PRES_VIS", "trial_index": 98}, "uniqueid": "MTK2967:326O153BMJ5X6E10THMEWR6SXLQDEE", "dateTime": 1519604713969}, {"current_trial": 99, "trialdata": {"rt": -1, "trial_type": "single-stim", "word": "plate", "stimulus": "<p id=\"stim\">PLATE</p>", "conditions": [24, 800, "v", 24000], "internal_node_id": "0.0-72.0", "trial": 2, "time_elapsed": 585249, "serialpos": 10, "key_press": -1, "wordID": 1085, "type": "PRES_VIS", "trial_index": 99}, "uniqueid": "MTK2967:326O153BMJ5X6E10THMEWR6SXLQDEE", "dateTime": 1519604715960}, {"current_trial": 100, "trialdata": {"rt": -1, "trial_type": "single-stim", "word": "dashboard", "stimulus": "<p id=\"stim\">DASHBOARD</p>", "conditions": [24, 800, "v", 24000], "internal_node_id": "0.0-73.0", "trial": 2, "time_elapsed": 586991, "serialpos": 11, "key_press": -1, "wordID": 440, "type": "PRES_VIS", "trial_index": 100}, "uniqueid": "MTK2967:326O153BMJ5X6E10THMEWR6SXLQDEE", "dateTime": 1519604717701}, {"current_trial": 101, "trialdata": {"rt": -1, "trial_type": "single-stim", "word": "husband", "stimulus": "<p id=\"stim\">HUSBAND</p>", "conditions": [24, 800, "v", 24000], "internal_node_id": "0.0-74.0", "trial": 2, "time_elapsed": 588737, "serialpos": 12, "key_press": -1, "wordID": 727, "type": "PRES_VIS", "trial_index": 101}, "uniqueid": "MTK2967:326O153BMJ5X6E10THMEWR6SXLQDEE", "dateTime": 1519604719448}, {"current_trial": 102, "trialdata": {"rt": -1, "trial_type": "single-stim", "word": "panther", "stimulus": "<p id=\"stim\">PANTHER</p>", "conditions": [24, 800, "v", 24000], "internal_node_id": "0.0-75.0", "trial": 2, "time_elapsed": 590537, "serialpos": 13, "key_press": -1, "wordID": 1008, "type": "PRES_VIS", "trial_index": 102}, "uniqueid": "MTK2967:326O153BMJ5X6E10THMEWR6SXLQDEE", "dateTime": 1519604721248}, {"current_trial": 103, "trialdata": {"rt": -1, "trial_type": "single-stim", "word": "shovel", "stimulus": "<p id=\"stim\">SHOVEL</p>", "conditions": [24, 800, "v", 24000], "internal_node_id": "0.0-76.0", "trial": 2, "time_elapsed": 592440, "serialpos": 14, "key_press": -1, "wordID": 1294, "type": "PRES_VIS", "trial_index": 103}, "uniqueid": "MTK2967:326O153BMJ5X6E10THMEWR6SXLQDEE", "dateTime": 1519604723150}, {"current_trial": 104, "trialdata": {"rt": -1, "trial_type": "single-stim", "word": "radish", "stimulus": "<p id=\"stim\">RADISH</p>", "conditions": [24, 800, "v", 24000], "internal_node_id": "0.0-77.0", "trial": 2, "time_elapsed": 594107, "serialpos": 15, "key_press": -1, "wordID": 1157, "type": "PRES_VIS", "trial_index": 104}, "uniqueid": "MTK2967:326O153BMJ5X6E10THMEWR6SXLQDEE", "dateTime": 1519604724817}, {"current_trial": 105, "trialdata": {"rt": -1, "trial_type": "single-stim", "word": "postage", "stimulus": "<p id=\"stim\">POSTAGE</p>", "conditions": [24, 800, "v", 24000], "internal_node_id": "0.0-78.0", "trial": 2, "time_elapsed": 595958, "serialpos": 16, "key_press": -1, "wordID": 1112, "type": "PRES_VIS", "trial_index": 105}, "uniqueid": "MTK2967:326O153BMJ5X6E10THMEWR6SXLQDEE", "dateTime": 1519604726668}, {"current_trial": 106, "trialdata": {"rt": -1, "trial_type": "single-stim", "word": "briefcase", "stimulus": "<p id=\"stim\">BRIEFCASE</p>", "conditions": [24, 800, "v", 24000], "internal_node_id": "0.0-79.0", "trial": 2, "time_elapsed": 597836, "serialpos": 17, "key_press": -1, "wordID": 174, "type": "PRES_VIS", "trial_index": 106}, "uniqueid": "MTK2967:326O153BMJ5X6E10THMEWR6SXLQDEE", "dateTime": 1519604728546}, {"current_trial": 107, "trialdata": {"rt": -1, "trial_type": "single-stim", "word": "pocket", "stimulus": "<p id=\"stim\">POCKET</p>", "conditions": [24, 800, "v", 24000], "internal_node_id": "0.0-80.0", "trial": 2, "time_elapsed": 599794, "serialpos": 18, "key_press": -1, "wordID": 1092, "type": "PRES_VIS", "trial_index": 107}, "uniqueid": "MTK2967:326O153BMJ5X6E10THMEWR6SXLQDEE", "dateTime": 1519604730505}, {"current_trial": 108, "trialdata": {"rt": -1, "trial_type": "single-stim", "word": "cocoon", "stimulus": "<p id=\"stim\">COCOON</p>", "conditions": [24, 800, "v", 24000], "internal_node_id": "0.0-81.0", "trial": 2, "time_elapsed": 601484, "serialpos": 19, "key_press": -1, "wordID": 338, "type": "PRES_VIS", "trial_index": 108}, "uniqueid": "MTK2967:326O153BMJ5X6E10THMEWR6SXLQDEE", "dateTime": 1519604732194}, {"current_trial": 109, "trialdata": {"rt": -1, "trial_type": "single-stim", "word": "window", "stimulus": "<p id=\"stim\">WINDOW</p>", "conditions": [24, 800, "v", 24000], "internal_node_id": "0.0-82.0", "trial": 2, "time_elapsed": 603144, "serialpos": 20, "key_press": -1, "wordID": 1610, "type": "PRES_VIS", "trial_index": 109}, "uniqueid": "MTK2967:326O153BMJ5X6E10THMEWR6SXLQDEE", "dateTime": 1519604733854}, {"current_trial": 110, "trialdata": {"rt": -1, "trial_type": "single-stim", "word": "journal", "stimulus": "<p id=\"stim\">JOURNAL</p>", "conditions": [24, 800, "v", 24000], "internal_node_id": "0.0-83.0", "trial": 2, "time_elapsed": 604751, "serialpos": 21, "key_press": -1, "wordID": 759, "type": "PRES_VIS", "trial_index": 110}, "uniqueid": "MTK2967:326O153BMJ5X6E10THMEWR6SXLQDEE", "dateTime": 1519604735461}, {"current_trial": 111, "trialdata": {"rt": -1, "trial_type": "single-stim", "word": "turtle", "stimulus": "<p id=\"stim\">TURTLE</p>", "conditions": [24, 800, "v", 24000], "internal_node_id": "0.0-84.0", "trial": 2, "time_elapsed": 606503, "serialpos": 22, "key_press": -1, "wordID": 1521, "type": "PRES_VIS", "trial_index": 111}, "uniqueid": "MTK2967:326O153BMJ5X6E10THMEWR6SXLQDEE", "dateTime": 1519604737213}, {"current_trial": 112, "trialdata": {"rt": -1, "trial_type": "single-stim", "word": "handbag", "stimulus": "<p id=\"stim\">HANDBAG</p>", "conditions": [24, 800, "v", 24000], "internal_node_id": "0.0-85.0", "trial": 2, "time_elapsed": 608494, "serialpos": 23, "key_press": -1, "wordID": 683, "type": "PRES_VIS", "trial_index": 112}, "uniqueid": "MTK2967:326O153BMJ5X6E10THMEWR6SXLQDEE", "dateTime": 1519604739204}, {"current_trial": 113, "trialdata": {"rt": -1, "trial_type": "single-stim", "stimulus": "", "internal_node_id": "0.0-86.0-0.0", "time_elapsed": 610857, "key_press": -1, "type": "PRE_RECALL_DELAY", "trial_index": 113}, "uniqueid": "MTK2967:326O153BMJ5X6E10THMEWR6SXLQDEE", "dateTime": 1519604741567}, {"current_trial": 114, "trialdata": {"rt": -1000, "trial_type": "single-audio", "stimulus": "/static/audio/400Hz.wav", "internal_node_id": "0.0-87.0", "time_elapsed": 611359, "key_press": -1, "type": "PRE_RECALL_ALERT", "trial_index": 114}, "uniqueid": "MTK2967:326O153BMJ5X6E10THMEWR6SXLQDEE", "dateTime": 1519604742069}, {"current_trial": 115, "trialdata": {"rt": [2262, 3903, 6117, 7543, 9359], "recwords": ["turtle", "husband", "handbag", "cigar", "shovel"], "key_times": [949, 1106, 1210, 1365, 1522, 1629, 2262, 2978, 3140, 3235, 3396, 3488, 3612, 3714, 3903, 5063, 5144, 5277, 5404, 5713, 5807, 5907, 6117, 6633, 6786, 6873, 7007, 7095, 7543, 8221, 8348, 8475, 8651, 8814, 9035, 9359], "trial_type": "free-recall", "conditions": [24, 800, "v", 24000], "internal_node_id": "0.0-88.0-0.0", "key_presses": [84, 85, 82, 84, 76, 69, 13, 72, 85, 83, 66, 65, 78, 68, 13, 72, 65, 78, 68, 66, 65, 71, 13, 67, 73, 71, 65, 82, 13, 83, 72, 79, 86, 69, 76, 13], "trial": 2, "time_elapsed": 671362, "type": "FREE_RECALL", "trial_index": 115}, "uniqueid": "MTK2967:326O153BMJ5X6E10THMEWR6SXLQDEE", "dateTime": 1519604802075}, {"current_trial": 116, "trialdata": {"rt": 5297, "trial_type": "text", "internal_node_id": "0.0-89.0", "time_elapsed": 678667, "key_press": 86, "type": "INSTRUCTIONS", "trial_index": 116}, "uniqueid": "MTK2967:326O153BMJ5X6E10THMEWR6SXLQDEE", "dateTime": 1519604809377}, {"current_trial": 117, "trialdata": {"rt": [5214, 8990, 11139], "trial_type": "math-distractor", "key_times": [3905, 4330, 5214, 8691, 8758, 8990, 10811, 10956, 10960, 11139], "responses": ["17", "17", "212"], "num2": [3, 6, 9, 9], "num3": [5, 5, 9, 8], "conditions": [12, 800, "v", 12000], "internal_node_id": "0.0-90.0", "key_presses": [49, 55, 13, 49, 55, 13, 50, 49, 50, 13], "trial": 3, "time_elapsed": 692675, "type": "DISTRACTOR", "trial_index": 117, "num1": [9, 6, 3, 4]}, "uniqueid": "MTK2967:326O153BMJ5X6E10THMEWR6SXLQDEE", "dateTime": 1519604823385}, {"current_trial": 118, "trialdata": {"rt": -1, "trial_type": "single-stim", "stimulus": "<p id=\"stim\">10</p>", "internal_node_id": "0.0-91.0-0.0", "time_elapsed": 695680, "key_press": -1, "trial_index": 118}, "uniqueid": "MTK2967:326O153BMJ5X6E10THMEWR6SXLQDEE", "dateTime": 1519604826390}, {"current_trial": 119, "trialdata": {"rt": -1, "trial_type": "single-stim", "stimulus": "<p id=\"stim\">9</p>", "internal_node_id": "0.0-91.0-1.0", "time_elapsed": 696684, "key_press": -1, "trial_index": 119}, "uniqueid": "MTK2967:326O153BMJ5X6E10THMEWR6SXLQDEE", "dateTime": 1519604827395}, {"current_trial": 120, "trialdata": {"rt": -1, "trial_type": "single-stim", "stimulus": "<p id=\"stim\">8</p>", "internal_node_id": "0.0-91.0-2.0", "time_elapsed": 697688, "key_press": -1, "trial_index": 120}, "uniqueid": "MTK2967:326O153BMJ5X6E10THMEWR6SXLQDEE", "dateTime": 1519604828398}, {"current_trial": 121, "trialdata": {"rt": -1, "trial_type": "single-stim", "stimulus": "<p id=\"stim\">7</p>", "internal_node_id": "0.0-91.0-3.0", "time_elapsed": 698693, "key_press": -1, "trial_index": 121}, "uniqueid": "MTK2967:326O153BMJ5X6E10THMEWR6SXLQDEE", "dateTime": 1519604829403}, {"current_trial": 122, "trialdata": {"rt": -1, "trial_type": "single-stim", "stimulus": "<p id=\"stim\">6</p>", "internal_node_id": "0.0-91.0-4.0", "time_elapsed": 699697, "key_press": -1, "trial_index": 122}, "uniqueid": "MTK2967:326O153BMJ5X6E10THMEWR6SXLQDEE", "dateTime": 1519604830407}, {"current_trial": 123, "trialdata": {"rt": -1, "trial_type": "single-stim", "stimulus": "<p id=\"stim\">5</p>", "internal_node_id": "0.0-91.0-5.0", "time_elapsed": 700701, "key_press": -1, "trial_index": 123}, "uniqueid": "MTK2967:326O153BMJ5X6E10THMEWR6SXLQDEE", "dateTime": 1519604831411}, {"current_trial": 124, "trialdata": {"rt": -1, "trial_type": "single-stim", "stimulus": "<p id=\"stim\">4</p>", "internal_node_id": "0.0-91.0-6.0", "time_elapsed": 701705, "key_press": -1, "trial_index": 124}, "uniqueid": "MTK2967:326O153BMJ5X6E10THMEWR6SXLQDEE", "dateTime": 1519604832415}, {"current_trial": 125, "trialdata": {"rt": -1, "trial_type": "single-stim", "stimulus": "<p id=\"stim\">3</p>", "internal_node_id": "0.0-91.0-7.0", "time_elapsed": 702709, "key_press": -1, "trial_index": 125}, "uniqueid": "MTK2967:326O153BMJ5X6E10THMEWR6SXLQDEE", "dateTime": 1519604833419}, {"current_trial": 126, "trialdata": {"rt": -1, "trial_type": "single-stim", "stimulus": "<p id=\"stim\">2</p>", "internal_node_id": "0.0-91.0-8.0", "time_elapsed": 703713, "key_press": -1, "trial_index": 126}, "uniqueid": "MTK2967:326O153BMJ5X6E10THMEWR6SXLQDEE", "dateTime": 1519604834424}, {"current_trial": 127, "trialdata": {"rt": -1, "trial_type": "single-stim", "stimulus": "<p id=\"stim\">1</p>", "internal_node_id": "0.0-91.0-9.0", "time_elapsed": 704717, "key_press": -1, "trial_index": 127}, "uniqueid": "MTK2967:326O153BMJ5X6E10THMEWR6SXLQDEE", "dateTime": 1519604835428}, {"current_trial": 128, "trialdata": {"rt": -1, "trial_type": "single-stim", "stimulus": "<p id=\"stim\">+</p>", "internal_node_id": "0.0-92.0-0.0", "time_elapsed": 706220, "key_press": -1, "type": "FIXATION", "trial_index": 128}, "uniqueid": "MTK2967:326O153BMJ5X6E10THMEWR6SXLQDEE", "dateTime": 1519604836930}, {"current_trial": 129, "trialdata": {"rt": -1, "trial_type": "single-stim", "word": "robber", "stimulus": "<p id=\"stim\">ROBBER</p>", "conditions": [12, 800, "v", 12000], "internal_node_id": "0.0-93.0", "trial": 3, "time_elapsed": 707027, "serialpos": 0, "key_press": -1, "wordID": 1196, "type": "PRES_VIS", "trial_index": 129}, "uniqueid": "MTK2967:326O153BMJ5X6E10THMEWR6SXLQDEE", "dateTime": 1519604837737}, {"current_trial": 130, "trialdata": {"rt": -1, "trial_type": "single-stim", "word": "dandruff", "stimulus": "<p id=\"stim\">DANDRUFF</p>", "conditions": [12, 800, "v", 12000], "internal_node_id": "0.0-94.0", "trial": 3, "time_elapsed": 709024, "serialpos": 1, "key_press": -1, "wordID": 438, "type": "PRES_VIS", "trial_index": 130}, "uniqueid": "MTK2967:326O153BMJ5X6E10THMEWR6SXLQDEE", "dateTime": 1519604839734}, {"current_trial": 131, "trialdata": {"rt": -1, "trial_type": "single-stim", "word": "trout", "stimulus": "<p id=\"stim\">TROUT</p>", "conditions": [12, 800, "v", 12000], "internal_node_id": "0.0-95.0", "trial": 3, "time_elapsed": 710782, "serialpos": 2, "key_press": -1, "wordID": 1510, "type": "PRES_VIS", "trial_index": 131}, "uniqueid": "MTK2967:326O153BMJ5X6E10THMEWR6SXLQDEE", "dateTime": 1519604841494}, {"current_trial": 132, "trialdata": {"rt": -1, "trial_type": "single-stim", "word": "whistle", "stimulus": "<p id=\"stim\">WHISTLE</p>", "conditions": [12, 800, "v", 12000], "internal_node_id": "0.0-96.0", "trial": 3, "time_elapsed": 712785, "serialpos": 3, "key_press": -1, "wordID": 1605, "type": "PRES_VIS", "trial_index": 132}, "uniqueid": "MTK2967:326O153BMJ5X6E10THMEWR6SXLQDEE", "dateTime": 1519604843495}, {"current_trial": 133, "trialdata": {"rt": -1, "trial_type": "single-stim", "word": "pigment", "stimulus": "<p id=\"stim\">PIGMENT</p>", "conditions": [12, 800, "v", 12000], "internal_node_id": "0.0-97.0", "trial": 3, "time_elapsed": 714683, "serialpos": 4, "key_press": -1, "wordID": 1065, "type": "PRES_VIS", "trial_index": 133}, "uniqueid": "MTK2967:326O153BMJ5X6E10THMEWR6SXLQDEE", "dateTime": 1519604845393}, {"current_trial": 134, "trialdata": {"rt": -1, "trial_type": "single-stim", "word": "glove", "stimulus": "<p id=\"stim\">GLOVE</p>", "conditions": [12, 800, "v", 12000], "internal_node_id": "0.0-98.0", "trial": 3, "time_elapsed": 716517, "serialpos": 5, "key_press": -1, "wordID": 641, "type": "PRES_VIS", "trial_index": 134}, "uniqueid": "MTK2967:326O153BMJ5X6E10THMEWR6SXLQDEE", "dateTime": 1519604847227}, {"current_trial": 135, "trialdata": {"rt": -1, "trial_type": "single-stim", "word": "yacht", "stimulus": "<p id=\"stim\">YACHT</p>", "conditions": [12, 800, "v", 12000], "internal_node_id": "0.0-99.0", "trial": 3, "time_elapsed": 718467, "serialpos": 6, "key_press": -1, "wordID": 1628, "type": "PRES_VIS", "trial_index": 135}, "uniqueid": "MTK2967:326O153BMJ5X6E10THMEWR6SXLQDEE", "dateTime": 1519604849177}, {"current_trial": 136, "trialdata": {"rt": -1, "trial_type": "single-stim", "word": "wardrobe", "stimulus": "<p id=\"stim\">WARDROBE</p>", "conditions": [12, 800, "v", 12000], "internal_node_id": "0.0-100.0", "trial": 3, "time_elapsed": 720156, "serialpos": 7, "key_press": -1, "wordID": 1586, "type": "PRES_VIS", "trial_index": 136}, "uniqueid": "MTK2967:326O153BMJ5X6E10THMEWR6SXLQDEE", "dateTime": 1519604850866}, {"current_trial": 137, "trialdata": {"rt": -1, "trial_type": "single-stim", "word": "suspect", "stimulus": "<p id=\"stim\">SUSPECT</p>", "conditions": [12, 800, "v", 12000], "internal_node_id": "0.0-101.0", "trial": 3, "time_elapsed": 722123, "serialpos": 8, "key_press": -1, "wordID": 1414, "type": "PRES_VIS", "trial_index": 137}, "uniqueid": "MTK2967:326O153BMJ5X6E10THMEWR6SXLQDEE", "dateTime": 1519604852833}, {"current_trial": 138, "trialdata": {"rt": -1, "trial_type": "single-stim", "word": "hatchet", "stimulus": "<p id=\"stim\">HATCHET</p>", "conditions": [12, 800, "v", 12000], "internal_node_id": "0.0-102.0", "trial": 3, "time_elapsed": 723784, "serialpos": 9, "key_press": -1, "wordID": 690, "type": "PRES_VIS", "trial_index": 138}, "uniqueid": "MTK2967:326O153BMJ5X6E10THMEWR6SXLQDEE", "dateTime": 1519604854494}, {"current_trial": 139, "trialdata": {"rt": -1, "trial_type": "single-stim", "word": "fox", "stimulus": "<p id=\"stim\">FOX</p>", "conditions": [12, 800, "v", 12000], "internal_node_id": "0.0-103.0", "trial": 3, "time_elapsed": 725554, "serialpos": 10, "key_press": -1, "wordID": 597, "type": "PRES_VIS", "trial_index": 139}, "uniqueid": "MTK2967:326O153BMJ5X6E10THMEWR6SXLQDEE", "dateTime": 1519604856264}, {"current_trial": 140, "trialdata": {"rt": -1, "trial_type": "single-stim", "word": "possum", "stimulus": "<p id=\"stim\">POSSUM</p>", "conditions": [12, 800, "v", 12000], "internal_node_id": "0.0-104.0", "trial": 3, "time_elapsed": 727394, "serialpos": 11, "key_press": -1, "wordID": 1111, "type": "PRES_VIS", "trial_index": 140}, "uniqueid": "MTK2967:326O153BMJ5X6E10THMEWR6SXLQDEE", "dateTime": 1519604858104}, {"current_trial": 141, "trialdata": {"rt": -1, "trial_type": "single-stim", "stimulus": "", "internal_node_id": "0.0-105.0-0.0", "time_elapsed": 729831, "key_press": -1, "type": "PRE_RECALL_DELAY", "trial_index": 141}, "uniqueid": "MTK2967:326O153BMJ5X6E10THMEWR6SXLQDEE", "dateTime": 1519604860541}, {"current_trial": 142, "trialdata": {"rt": -1000, "trial_type": "single-audio", "stimulus": "/static/audio/400Hz.wav", "internal_node_id": "0.0-106.0", "time_elapsed": 730335, "key_press": -1, "type": "PRE_RECALL_ALERT", "trial_index": 142}, "uniqueid": "MTK2967:326O153BMJ5X6E10THMEWR6SXLQDEE", "dateTime": 1519604861045}, {"current_trial": 143, "trialdata": {"rt": [2376, 3628, 6987, 45848], "recwords": ["robber", "trial", "hatchet", "baby"], "key_times": [1274, 1492, 1721, 1832, 1999, 2055, 2376, 2771, 2893, 3117, 3205, 3388, 3628, 6018, 6097, 6206, 6424, 6535, 6616, 6778, 6987, 44365, 44632, 45028, 45235, 45848], "trial_type": "free-recall", "conditions": [12, 800, "v", 12000], "internal_node_id": "0.0-107.0-0.0", "key_presses": [82, 79, 66, 66, 69, 82, 13, 84, 82, 73, 65, 76, 13, 72, 65, 84, 67, 72, 69, 84, 13, 66, 65, 66, 89, 13], "trial": 3, "time_elapsed": 790341, "type": "FREE_RECALL", "trial_index": 143}, "uniqueid": "MTK2967:326O153BMJ5X6E10THMEWR6SXLQDEE", "dateTime": 1519604921054}, {"current_trial": 144, "trialdata": {"rt": 2680, "trial_type": "text", "internal_node_id": "0.0-108.0", "time_elapsed": 795029, "key_press": 71, "type": "INSTRUCTIONS", "trial_index": 144}, "uniqueid": "MTK2967:326O153BMJ5X6E10THMEWR6SXLQDEE", "dateTime": 1519604925742}, {"current_trial": 145, "trialdata": {"rt": [3056, 5863, 8001, 11007], "trial_type": "math-distractor", "key_times": [2276, 2596, 3056, 5173, 5528, 5863, 7244, 7574, 8001, 10289, 10663, 11007], "responses": ["14", "18", "14", "18"], "num2": [8, 3, 3, 6, 1], "num3": [2, 7, 4, 4, 6], "conditions": [12, 1600, "v", 12000], "internal_node_id": "0.0-109.0", "key_presses": [49, 52, 13, 49, 56, 13, 49, 52, 13, 49, 56, 13], "trial": 4, "time_elapsed": 809038, "type": "DISTRACTOR", "trial_index": 145, "num1": [4, 8, 7, 8, 1]}, "uniqueid": "MTK2967:326O153BMJ5X6E10THMEWR6SXLQDEE", "dateTime": 1519604939748}, {"current_trial": 146, "trialdata": {"rt": -1, "trial_type": "single-stim", "stimulus": "<p id=\"stim\">10</p>", "internal_node_id": "0.0-110.0-0.0", "time_elapsed": 812047, "key_press": -1, "trial_index": 146}, "uniqueid": "MTK2967:326O153BMJ5X6E10THMEWR6SXLQDEE", "dateTime": 1519604942757}, {"current_trial": 147, "trialdata": {"rt": -1, "trial_type": "single-stim", "stimulus": "<p id=\"stim\">9</p>", "internal_node_id": "0.0-110.0-1.0", "time_elapsed": 813051, "key_press": -1, "trial_index": 147}, "uniqueid": "MTK2967:326O153BMJ5X6E10THMEWR6SXLQDEE", "dateTime": 1519604943761}, {"current_trial": 148, "trialdata": {"rt": -1, "trial_type": "single-stim", "stimulus": "<p id=\"stim\">8</p>", "internal_node_id": "0.0-110.0-2.0", "time_elapsed": 814055, "key_press": -1, "trial_index": 148}, "uniqueid": "MTK2967:326O153BMJ5X6E10THMEWR6SXLQDEE", "dateTime": 1519604944765}, {"current_trial": 149, "trialdata": {"rt": -1, "trial_type": "single-stim", "stimulus": "<p id=\"stim\">7</p>", "internal_node_id": "0.0-110.0-3.0", "time_elapsed": 815058, "key_press": -1, "trial_index": 149}, "uniqueid": "MTK2967:326O153BMJ5X6E10THMEWR6SXLQDEE", "dateTime": 1519604945769}, {"current_trial": 150, "trialdata": {"rt": -1, "trial_type": "single-stim", "stimulus": "<p id=\"stim\">6</p>", "internal_node_id": "0.0-110.0-4.0", "time_elapsed": 816063, "key_press": -1, "trial_index": 150}, "uniqueid": "MTK2967:326O153BMJ5X6E10THMEWR6SXLQDEE", "dateTime": 1519604946773}, {"current_trial": 151, "trialdata": {"rt": -1, "trial_type": "single-stim", "stimulus": "<p id=\"stim\">5</p>", "internal_node_id": "0.0-110.0-5.0", "time_elapsed": 817068, "key_press": -1, "trial_index": 151}, "uniqueid": "MTK2967:326O153BMJ5X6E10THMEWR6SXLQDEE", "dateTime": 1519604947778}, {"current_trial": 152, "trialdata": {"rt": -1, "trial_type": "single-stim", "stimulus": "<p id=\"stim\">4</p>", "internal_node_id": "0.0-110.0-6.0", "time_elapsed": 818072, "key_press": -1, "trial_index": 152}, "uniqueid": "MTK2967:326O153BMJ5X6E10THMEWR6SXLQDEE", "dateTime": 1519604948782}, {"current_trial": 153, "trialdata": {"rt": -1, "trial_type": "single-stim", "stimulus": "<p id=\"stim\">3</p>", "internal_node_id": "0.0-110.0-7.0", "time_elapsed": 819076, "key_press": -1, "trial_index": 153}, "uniqueid": "MTK2967:326O153BMJ5X6E10THMEWR6SXLQDEE", "dateTime": 1519604949786}, {"current_trial": 154, "trialdata": {"rt": -1, "trial_type": "single-stim", "stimulus": "<p id=\"stim\">2</p>", "internal_node_id": "0.0-110.0-8.0", "time_elapsed": 820080, "key_press": -1, "trial_index": 154}, "uniqueid": "MTK2967:326O153BMJ5X6E10THMEWR6SXLQDEE", "dateTime": 1519604950790}, {"current_trial": 155, "trialdata": {"rt": -1, "trial_type": "single-stim", "stimulus": "<p id=\"stim\">1</p>", "internal_node_id": "0.0-110.0-9.0", "time_elapsed": 821084, "key_press": -1, "trial_index": 155}, "uniqueid": "MTK2967:326O153BMJ5X6E10THMEWR6SXLQDEE", "dateTime": 1519604951794}, {"current_trial": 156, "trialdata": {"rt": -1, "trial_type": "single-stim", "stimulus": "<p id=\"stim\">+</p>", "internal_node_id": "0.0-111.0-0.0", "time_elapsed": 822587, "key_press": -1, "type": "FIXATION", "trial_index": 156}, "uniqueid": "MTK2967:326O153BMJ5X6E10THMEWR6SXLQDEE", "dateTime": 1519604953297}, {"current_trial": 157, "trialdata": {"rt": -1, "trial_type": "single-stim", "word": "goblin", "stimulus": "<p id=\"stim\">GOBLIN</p>", "conditions": [12, 1600, "v", 12000], "internal_node_id": "0.0-112.0", "trial": 4, "time_elapsed": 824189, "serialpos": 0, "key_press": -1, "wordID": 644, "type": "PRES_VIS", "trial_index": 157}, "uniqueid": "MTK2967:326O153BMJ5X6E10THMEWR6SXLQDEE", "dateTime": 1519604954899}, {"current_trial": 158, "trialdata": {"rt": -1, "trial_type": "single-stim", "word": "carrot", "stimulus": "<p id=\"stim\">CARROT</p>", "conditions": [12, 1600, "v", 12000], "internal_node_id": "0.0-113.0", "trial": 4, "time_elapsed": 826656, "serialpos": 1, "key_press": -1, "wordID": 248, "type": "PRES_VIS", "trial_index": 158}, "uniqueid": "MTK2967:326O153BMJ5X6E10THMEWR6SXLQDEE", "dateTime": 1519604957366}, {"current_trial": 159, "trialdata": {"rt": -1, "trial_type": "single-stim", "word": "pastry", "stimulus": "<p id=\"stim\">PASTRY</p>", "conditions": [12, 1600, "v", 12000], "internal_node_id": "0.0-114.0", "trial": 4, "time_elapsed": 829076, "serialpos": 2, "key_press": -1, "wordID": 1021, "type": "PRES_VIS", "trial_index": 159}, "uniqueid": "MTK2967:326O153BMJ5X6E10THMEWR6SXLQDEE", "dateTime": 1519604959786}, {"current_trial": 160, "trialdata": {"rt": -1, "trial_type": "single-stim", "word": "peach", "stimulus": "<p id=\"stim\">PEACH</p>", "conditions": [12, 1600, "v", 12000], "internal_node_id": "0.0-115.0", "trial": 4, "time_elapsed": 831641, "serialpos": 3, "key_press": -1, "wordID": 1030, "type": "PRES_VIS", "trial_index": 160}, "uniqueid": "MTK2967:326O153BMJ5X6E10THMEWR6SXLQDEE", "dateTime": 1519604962351}, {"current_trial": 161, "trialdata": {"rt": -1, "trial_type": "single-stim", "word": "rust", "stimulus": "<p id=\"stim\">RUST</p>", "conditions": [12, 1600, "v", 12000], "internal_node_id": "0.0-116.0", "trial": 4, "time_elapsed": 834119, "serialpos": 4, "key_press": -1, "wordID": 1218, "type": "PRES_VIS", "trial_index": 161}, "uniqueid": "MTK2967:326O153BMJ5X6E10THMEWR6SXLQDEE", "dateTime": 1519604964830}, {"current_trial": 162, "trialdata": {"rt": -1, "trial_type": "single-stim", "word": "sculpture", "stimulus": "<p id=\"stim\">SCULPTURE</p>", "conditions": [12, 1600, "v", 12000], "internal_node_id": "0.0-117.0", "trial": 4, "time_elapsed": 836859, "serialpos": 5, "key_press": -1, "wordID": 1257, "type": "PRES_VIS", "trial_index": 162}, "uniqueid": "MTK2967:326O153BMJ5X6E10THMEWR6SXLQDEE", "dateTime": 1519604967569}, {"current_trial": 163, "trialdata": {"rt": -1, "trial_type": "single-stim", "word": "wrench", "stimulus": "<p id=\"stim\">WRENCH</p>", "conditions": [12, 1600, "v", 12000], "internal_node_id": "0.0-118.0", "trial": 4, "time_elapsed": 839477, "serialpos": 6, "key_press": -1, "wordID": 1624, "type": "PRES_VIS", "trial_index": 163}, "uniqueid": "MTK2967:326O153BMJ5X6E10THMEWR6SXLQDEE", "dateTime": 1519604970187}, {"current_trial": 164, "trialdata": {"rt": -1, "trial_type": "single-stim", "word": "cross", "stimulus": "<p id=\"stim\">CROSS</p>", "conditions": [12, 1600, "v", 12000], "internal_node_id": "0.0-119.0", "trial": 4, "time_elapsed": 842129, "serialpos": 7, "key_press": -1, "wordID": 412, "type": "PRES_VIS", "trial_index": 164}, "uniqueid": "MTK2967:326O153BMJ5X6E10THMEWR6SXLQDEE", "dateTime": 1519604972839}, {"current_trial": 165, "trialdata": {"rt": -1, "trial_type": "single-stim", "word": "temple", "stimulus": "<p id=\"stim\">TEMPLE</p>", "conditions": [12, 1600, "v", 12000], "internal_node_id": "0.0-120.0", "trial": 4, "time_elapsed": 844718, "serialpos": 8, "key_press": -1, "wordID": 1447, "type": "PRES_VIS", "trial_index": 165}, "uniqueid": "MTK2967:326O153BMJ5X6E10THMEWR6SXLQDEE", "dateTime": 1519604975428}, {"current_trial": 166, "trialdata": {"rt": -1, "trial_type": "single-stim", "word": "popcorn", "stimulus": "<p id=\"stim\">POPCORN</p>", "conditions": [12, 1600, "v", 12000], "internal_node_id": "0.0-121.0", "trial": 4, "time_elapsed": 847260, "serialpos": 9, "key_press": -1, "wordID": 1103, "type": "PRES_VIS", "trial_index": 166}, "uniqueid": "MTK2967:326O153BMJ5X6E10THMEWR6SXLQDEE", "dateTime": 1519604977970}, {"current_trial": 167, "trialdata": {"rt": -1, "trial_type": "single-stim", "word": "snack", "stimulus": "<p id=\"stim\">SNACK</p>", "conditions": [12, 1600, "v", 12000], "internal_node_id": "0.0-122.0", "trial": 4, "time_elapsed": 849698, "serialpos": 10, "key_press": -1, "wordID": 1330, "type": "PRES_VIS", "trial_index": 167}, "uniqueid": "MTK2967:326O153BMJ5X6E10THMEWR6SXLQDEE", "dateTime": 1519604980408}, {"current_trial": 168, "trialdata": {"rt": -1, "trial_type": "single-stim", "word": "apple", "stimulus": "<p id=\"stim\">APPLE</p>", "conditions": [12, 1600, "v", 12000], "internal_node_id": "0.0-123.0", "trial": 4, "time_elapsed": 852290, "serialpos": 11, "key_press": -1, "wordID": 32, "type": "PRES_VIS", "trial_index": 168}, "uniqueid": "MTK2967:326O153BMJ5X6E10THMEWR6SXLQDEE", "dateTime": 1519604983000}, {"current_trial": 169, "trialdata": {"rt": -1, "trial_type": "single-stim", "stimulus": "", "internal_node_id": "0.0-124.0-0.0", "time_elapsed": 854579, "key_press": -1, "type": "PRE_RECALL_DELAY", "trial_index": 169}, "uniqueid": "MTK2967:326O153BMJ5X6E10THMEWR6SXLQDEE", "dateTime": 1519604985289}, {"current_trial": 170, "trialdata": {"rt": -1000, "trial_type": "single-audio", "stimulus": "/static/audio/400Hz.wav", "internal_node_id": "0.0-125.0", "time_elapsed": 855085, "key_press": -1, "type": "PRE_RECALL_ALERT", "trial_index": 170}, "uniqueid": "MTK2967:326O153BMJ5X6E10THMEWR6SXLQDEE", "dateTime": 1519604985795}, {"current_trial": 171, "trialdata": {"rt": [2615, 4101, 5437, 7655, 9278, 11089, 49156], "recwords": ["peach", "pastry", "apple", "goblin", "temple", "pastry", "temple"], "key_times": [1833, 1956, 2010, 2172, 2301, 2615, 3080, 3180, 3227, 3400, 3601, 3841, 4101, 4573, 4738, 4907, 5119, 5261, 5437, 6177, 6470, 6678, 6870, 7058, 7201, 7655, 8005, 8118, 8309, 8542, 8752, 8903, 9278, 10248, 10323, 10358, 10557, 10722, 10871, 11089, 48088, 48280, 48544, 48747, 48909, 49008, 49156], "trial_type": "free-recall", "conditions": [12, 1600, "v", 12000], "internal_node_id": "0.0-126.0-0.0", "key_presses": [80, 69, 65, 67, 72, 13, 80, 65, 83, 84, 82, 89, 13, 65, 80, 80, 76, 69, 13, 71, 79, 66, 76, 73, 78, 13, 84, 69, 77, 80, 76, 69, 13, 80, 65, 83, 84, 82, 89, 13, 84, 69, 77, 80, 76, 69, 13], "trial": 4, "time_elapsed": 915091, "type": "FREE_RECALL", "trial_index": 171}, "uniqueid": "MTK2967:326O153BMJ5X6E10THMEWR6SXLQDEE", "dateTime": 1519605045804}, {"current_trial": 172, "trialdata": {"rt": 2034, "trial_type": "text", "internal_node_id": "0.0-127.0", "time_elapsed": 919133, "key_press": 70, "type": "INSTRUCTIONS", "trial_index": 172}, "uniqueid": "MTK2967:326O153BMJ5X6E10THMEWR6SXLQDEE", "dateTime": 1519605049843}, {"current_trial": 173, "trialdata": {"rt": [3480, 7877, 10269, 13946, 16010, 18336, 20317, 22382], "trial_type": "math-distractor", "key_times": [3002, 3275, 3480, 7472, 7733, 7877, 10072, 10269, 13681, 13809, 13946, 15880, 16010, 17767, 18096, 18336, 19851, 20146, 20317, 22103, 22222, 22382], "responses": ["17", "15", "8", "22", "6", "10", "14", "11"], "num2": [3, 3, 1, 6, 1, 2, 8, 5, 2], "num3": [5, 8, 2, 7, 2, 5, 5, 3, 5], "conditions": [12, 800, "v", 24000], "internal_node_id": "0.0-128.0", "key_presses": [49, 55, 13, 49, 53, 13, 56, 13, 50, 50, 13, 54, 13, 49, 48, 13, 49, 52, 13, 49, 49, 13], "trial": 5, "time_elapsed": 945142, "type": "DISTRACTOR", "trial_index": 173, "num1": [9, 4, 5, 7, 3, 3, 1, 3, 7]}, "uniqueid": "MTK2967:326O153BMJ5X6E10THMEWR6SXLQDEE", "dateTime": 1519605075853}, {"current_trial": 174, "trialdata": {"rt": -1, "trial_type": "single-stim", "stimulus": "<p id=\"stim\">10</p>", "internal_node_id": "0.0-129.0-0.0", "time_elapsed": 948149, "key_press": -1, "trial_index": 174}, "uniqueid": "MTK2967:326O153BMJ5X6E10THMEWR6SXLQDEE", "dateTime": 1519605078859}, {"current_trial": 175, "trialdata": {"rt": -1, "trial_type": "single-stim", "stimulus": "<p id=\"stim\">9</p>", "internal_node_id": "0.0-129.0-1.0", "time_elapsed": 949153, "key_press": -1, "trial_index": 175}, "uniqueid": "MTK2967:326O153BMJ5X6E10THMEWR6SXLQDEE", "dateTime": 1519605079863}, {"current_trial": 176, "trialdata": {"rt": -1, "trial_type": "single-stim", "stimulus": "<p id=\"stim\">8</p>", "internal_node_id": "0.0-129.0-2.0", "time_elapsed": 950157, "key_press": -1, "trial_index": 176}, "uniqueid": "MTK2967:326O153BMJ5X6E10THMEWR6SXLQDEE", "dateTime": 1519605080867}, {"current_trial": 177, "trialdata": {"rt": -1, "trial_type": "single-stim", "stimulus": "<p id=\"stim\">7</p>", "internal_node_id": "0.0-129.0-3.0", "time_elapsed": 951161, "key_press": -1, "trial_index": 177}, "uniqueid": "MTK2967:326O153BMJ5X6E10THMEWR6SXLQDEE", "dateTime": 1519605081871}, {"current_trial": 178, "trialdata": {"rt": -1, "trial_type": "single-stim", "stimulus": "<p id=\"stim\">6</p>", "internal_node_id": "0.0-129.0-4.0", "time_elapsed": 952166, "key_press": -1, "trial_index": 178}, "uniqueid": "MTK2967:326O153BMJ5X6E10THMEWR6SXLQDEE", "dateTime": 1519605082876}, {"current_trial": 179, "trialdata": {"rt": -1, "trial_type": "single-stim", "stimulus": "<p id=\"stim\">5</p>", "internal_node_id": "0.0-129.0-5.0", "time_elapsed": 953169, "key_press": -1, "trial_index": 179}, "uniqueid": "MTK2967:326O153BMJ5X6E10THMEWR6SXLQDEE", "dateTime": 1519605083879}, {"current_trial": 180, "trialdata": {"rt": -1, "trial_type": "single-stim", "stimulus": "<p id=\"stim\">4</p>", "internal_node_id": "0.0-129.0-6.0", "time_elapsed": 954173, "key_press": -1, "trial_index": 180}, "uniqueid": "MTK2967:326O153BMJ5X6E10THMEWR6SXLQDEE", "dateTime": 1519605084883}, {"current_trial": 181, "trialdata": {"rt": -1, "trial_type": "single-stim", "stimulus": "<p id=\"stim\">3</p>", "internal_node_id": "0.0-129.0-7.0", "time_elapsed": 955177, "key_press": -1, "trial_index": 181}, "uniqueid": "MTK2967:326O153BMJ5X6E10THMEWR6SXLQDEE", "dateTime": 1519605085887}, {"current_trial": 182, "trialdata": {"rt": -1, "trial_type": "single-stim", "stimulus": "<p id=\"stim\">2</p>", "internal_node_id": "0.0-129.0-8.0", "time_elapsed": 956181, "key_press": -1, "trial_index": 182}, "uniqueid": "MTK2967:326O153BMJ5X6E10THMEWR6SXLQDEE", "dateTime": 1519605086891}, {"current_trial": 183, "trialdata": {"rt": -1, "trial_type": "single-stim", "stimulus": "<p id=\"stim\">1</p>", "internal_node_id": "0.0-129.0-9.0", "time_elapsed": 957185, "key_press": -1, "trial_index": 183}, "uniqueid": "MTK2967:326O153BMJ5X6E10THMEWR6SXLQDEE", "dateTime": 1519605087896}, {"current_trial": 184, "trialdata": {"rt": -1, "trial_type": "single-stim", "stimulus": "<p id=\"stim\">+</p>", "internal_node_id": "0.0-130.0-0.0", "time_elapsed": 958689, "key_press": -1, "type": "FIXATION", "trial_index": 184}, "uniqueid": "MTK2967:326O153BMJ5X6E10THMEWR6SXLQDEE", "dateTime": 1519605089399}, {"current_trial": 185, "trialdata": {"rt": -1, "trial_type": "single-stim", "word": "stream", "stimulus": "<p id=\"stim\">STREAM</p>", "conditions": [12, 800, "v", 24000], "internal_node_id": "0.0-131.0", "trial": 5, "time_elapsed": 959493, "serialpos": 0, "key_press": -1, "wordID": 1391, "type": "PRES_VIS", "trial_index": 185}, "uniqueid": "MTK2967:326O153BMJ5X6E10THMEWR6SXLQDEE", "dateTime": 1519605090203}, {"current_trial": 186, "trialdata": {"rt": -1, "trial_type": "single-stim", "word": "river", "stimulus": "<p id=\"stim\">RIVER</p>", "conditions": [12, 800, "v", 24000], "internal_node_id": "0.0-132.0", "trial": 5, "time_elapsed": 961440, "serialpos": 1, "key_press": -1, "wordID": 1193, "type": "PRES_VIS", "trial_index": 186}, "uniqueid": "MTK2967:326O153BMJ5X6E10THMEWR6SXLQDEE", "dateTime": 1519605092150}, {"current_trial": 187, "trialdata": {"rt": -1, "trial_type": "single-stim", "word": "pliers", "stimulus": "<p id=\"stim\">PLIERS</p>", "conditions": [12, 800, "v", 24000], "internal_node_id": "0.0-133.0", "trial": 5, "time_elapsed": 963419, "serialpos": 2, "key_press": -1, "wordID": 1088, "type": "PRES_VIS", "trial_index": 187}, "uniqueid": "MTK2967:326O153BMJ5X6E10THMEWR6SXLQDEE", "dateTime": 1519605094129}, {"current_trial": 188, "trialdata": {"rt": -1, "trial_type": "single-stim", "word": "nurse", "stimulus": "<p id=\"stim\">NURSE</p>", "conditions": [12, 800, "v", 24000], "internal_node_id": "0.0-134.0", "trial": 5, "time_elapsed": 965404, "serialpos": 3, "key_press": -1, "wordID": 962, "type": "PRES_VIS", "trial_index": 188}, "uniqueid": "MTK2967:326O153BMJ5X6E10THMEWR6SXLQDEE", "dateTime": 1519605096114}, {"current_trial": 189, "trialdata": {"rt": -1, "trial_type": "single-stim", "word": "blouse", "stimulus": "<p id=\"stim\">BLOUSE</p>", "conditions": [12, 800, "v", 24000], "internal_node_id": "0.0-135.0", "trial": 5, "time_elapsed": 967233, "serialpos": 4, "key_press": -1, "wordID": 138, "type": "PRES_VIS", "trial_index": 189}, "uniqueid": "MTK2967:326O153BMJ5X6E10THMEWR6SXLQDEE", "dateTime": 1519605097943}, {"current_trial": 190, "trialdata": {"rt": -1, "trial_type": "single-stim", "word": "motel", "stimulus": "<p id=\"stim\">MOTEL</p>", "conditions": [12, 800, "v", 24000], "internal_node_id": "0.0-136.0", "trial": 5, "time_elapsed": 969211, "serialpos": 5, "key_press": -1, "wordID": 918, "type": "PRES_VIS", "trial_index": 190}, "uniqueid": "MTK2967:326O153BMJ5X6E10THMEWR6SXLQDEE", "dateTime": 1519605099921}, {"current_trial": 191, "trialdata": {"rt": -1, "trial_type": "single-stim", "word": "cabbage", "stimulus": "<p id=\"stim\">CABBAGE</p>", "conditions": [12, 800, "v", 24000], "internal_node_id": "0.0-137.0", "trial": 5, "time_elapsed": 970854, "serialpos": 6, "key_press": -1, "wordID": 209, "type": "PRES_VIS", "trial_index": 191}, "uniqueid": "MTK2967:326O153BMJ5X6E10THMEWR6SXLQDEE", "dateTime": 1519605101564}, {"current_trial": 192, "trialdata": {"rt": -1, "trial_type": "single-stim", "word": "turnip", "stimulus": "<p id=\"stim\">TURNIP</p>", "conditions": [12, 800, "v", 24000], "internal_node_id": "0.0-138.0", "trial": 5, "time_elapsed": 972647, "serialpos": 7, "key_press": -1, "wordID": 1520, "type": "PRES_VIS", "trial_index": 192}, "uniqueid": "MTK2967:326O153BMJ5X6E10THMEWR6SXLQDEE", "dateTime": 1519605103357}, {"current_trial": 193, "trialdata": {"rt": -1, "trial_type": "single-stim", "word": "curtain", "stimulus": "<p id=\"stim\">CURTAIN</p>", "conditions": [12, 800, "v", 24000], "internal_node_id": "0.0-139.0", "trial": 5, "time_elapsed": 974339, "serialpos": 8, "key_press": -1, "wordID": 426, "type": "PRES_VIS", "trial_index": 193}, "uniqueid": "MTK2967:326O153BMJ5X6E10THMEWR6SXLQDEE", "dateTime": 1519605105049}, {"current_trial": 194, "trialdata": {"rt": -1, "trial_type": "single-stim", "word": "scissors", "stimulus": "<p id=\"stim\">SCISSORS</p>", "conditions": [12, 800, "v", 24000], "internal_node_id": "0.0-140.0", "trial": 5, "time_elapsed": 976008, "serialpos": 9, "key_press": -1, "wordID": 1249, "type": "PRES_VIS", "trial_index": 194}, "uniqueid": "MTK2967:326O153BMJ5X6E10THMEWR6SXLQDEE", "dateTime": 1519605106718}, {"current_trial": 195, "trialdata": {"rt": -1, "trial_type": "single-stim", "word": "cupboard", "stimulus": "<p id=\"stim\">CUPBOARD</p>", "conditions": [12, 800, "v", 24000], "internal_node_id": "0.0-141.0", "trial": 5, "time_elapsed": 977806, "serialpos": 10, "key_press": -1, "wordID": 424, "type": "PRES_VIS", "trial_index": 195}, "uniqueid": "MTK2967:326O153BMJ5X6E10THMEWR6SXLQDEE", "dateTime": 1519605108517}, {"current_trial": 196, "trialdata": {"rt": -1, "trial_type": "single-stim", "word": "perch", "stimulus": "<p id=\"stim\">PERCH</p>", "conditions": [12, 800, "v", 24000], "internal_node_id": "0.0-142.0", "trial": 5, "time_elapsed": 979781, "serialpos": 11, "key_press": -1, "wordID": 1047, "type": "PRES_VIS", "trial_index": 196}, "uniqueid": "MTK2967:326O153BMJ5X6E10THMEWR6SXLQDEE", "dateTime": 1519605110491}, {"current_trial": 197, "trialdata": {"rt": -1, "trial_type": "single-stim", "stimulus": "", "internal_node_id": "0.0-143.0-0.0", "time_elapsed": 981829, "key_press": -1, "type": "PRE_RECALL_DELAY", "trial_index": 197}, "uniqueid": "MTK2967:326O153BMJ5X6E10THMEWR6SXLQDEE", "dateTime": 1519605112539}, {"current_trial": 198, "trialdata": {"rt": -1000, "trial_type": "single-audio", "stimulus": "/static/audio/400Hz.wav", "internal_node_id": "0.0-144.0", "time_elapsed": 982336, "key_press": -1, "type": "PRE_RECALL_ALERT", "trial_index": 198}, "uniqueid": "MTK2967:326O153BMJ5X6E10THMEWR6SXLQDEE", "dateTime": 1519605113046}, {"current_trial": 199, "trialdata": {"rt": [2816, 4129, 5506, 7282, 11575], "recwords": ["nurse", "river", "stream", "pliers", "cupboard"], "key_times": [1826, 2045, 2211, 2342, 2475, 2816, 3296, 3537, 3657, 3780, 3886, 4129, 4553, 4676, 4797, 4906, 5022, 5216, 5506, 6173, 6352, 6534, 6671, 6724, 6882, 7282, 8290, 8438, 8788, 10859, 10985, 11088, 11156, 11333, 11575], "trial_type": "free-recall", "conditions": [12, 800, "v", 24000], "internal_node_id": "0.0-145.0-0.0", "key_presses": [78, 85, 82, 83, 69, 13, 82, 73, 86, 69, 82, 13, 83, 84, 82, 69, 65, 77, 13, 80, 76, 73, 69, 82, 83, 13, 67, 85, 80, 66, 79, 65, 82, 68, 13], "trial": 5, "time_elapsed": 1042343, "type": "FREE_RECALL", "trial_index": 199}, "uniqueid": "MTK2967:326O153BMJ5X6E10THMEWR6SXLQDEE", "dateTime": 1519605173056}, {"current_trial": 200, "trialdata": {"rt": 13026, "trial_type": "text", "internal_node_id": "0.0-146.0", "time_elapsed": 1057373, "key_press": 71, "type": "INSTRUCTIONS", "trial_index": 200}, "uniqueid": "MTK2967:326O153BMJ5X6E10THMEWR6SXLQDEE", "dateTime": 1519605188083}, {"current_trial": 201, "trialdata": {"rt": [3973, 9879, 12079, 13638, 15540, 17372, 20444, 23099], "trial_type": "math-distractor", "key_times": [3338, 3658, 3973, 8649, 9451, 9879, 11886, 12079, 13374, 13502, 13638, 15210, 15304, 15540, 17126, 17225, 17372, 19807, 20381, 20444, 22822, 22974, 23099], "responses": ["16", "17", "8", "13", "11", "10", "13", "20"], "num2": [8, 7, 3, 6, 7, 5, 3, 4, 5], "num3": [3, 4, 3, 1, 3, 4, 4, 9, 3], "conditions": [24, 1600, "v", 24000], "internal_node_id": "0.0-147.0", "key_presses": [49, 54, 13, 49, 55, 13, 56, 13, 49, 51, 13, 49, 49, 13, 49, 48, 13, 49, 51, 13, 50, 48, 13], "trial": 6, "time_elapsed": 1083385, "type": "DISTRACTOR", "trial_index": 201, "num1": [5, 6, 2, 6, 1, 1, 6, 7, 9]}, "uniqueid": "MTK2967:326O153BMJ5X6E10THMEWR6SXLQDEE", "dateTime": 1519605214095}, {"current_trial": 202, "trialdata": {"rt": -1, "trial_type": "single-stim", "stimulus": "<p id=\"stim\">10</p>", "internal_node_id": "0.0-148.0-0.0", "time_elapsed": 1086391, "key_press": -1, "trial_index": 202}, "uniqueid": "MTK2967:326O153BMJ5X6E10THMEWR6SXLQDEE", "dateTime": 1519605217101}, {"current_trial": 203, "trialdata": {"rt": -1, "trial_type": "single-stim", "stimulus": "<p id=\"stim\">9</p>", "internal_node_id": "0.0-148.0-1.0", "time_elapsed": 1087395, "key_press": -1, "trial_index": 203}, "uniqueid": "MTK2967:326O153BMJ5X6E10THMEWR6SXLQDEE", "dateTime": 1519605218105}, {"current_trial": 204, "trialdata": {"rt": -1, "trial_type": "single-stim", "stimulus": "<p id=\"stim\">8</p>", "internal_node_id": "0.0-148.0-2.0", "time_elapsed": 1088399, "key_press": -1, "trial_index": 204}, "uniqueid": "MTK2967:326O153BMJ5X6E10THMEWR6SXLQDEE", "dateTime": 1519605219109}, {"current_trial": 205, "trialdata": {"rt": -1, "trial_type": "single-stim", "stimulus": "<p id=\"stim\">7</p>", "internal_node_id": "0.0-148.0-3.0", "time_elapsed": 1089402, "key_press": -1, "trial_index": 205}, "uniqueid": "MTK2967:326O153BMJ5X6E10THMEWR6SXLQDEE", "dateTime": 1519605220112}, {"current_trial": 206, "trialdata": {"rt": -1, "trial_type": "single-stim", "stimulus": "<p id=\"stim\">6</p>", "internal_node_id": "0.0-148.0-4.0", "time_elapsed": 1090407, "key_press": -1, "trial_index": 206}, "uniqueid": "MTK2967:326O153BMJ5X6E10THMEWR6SXLQDEE", "dateTime": 1519605221117}, {"current_trial": 207, "trialdata": {"rt": -1, "trial_type": "single-stim", "stimulus": "<p id=\"stim\">5</p>", "internal_node_id": "0.0-148.0-5.0", "time_elapsed": 1091411, "key_press": -1, "trial_index": 207}, "uniqueid": "MTK2967:326O153BMJ5X6E10THMEWR6SXLQDEE", "dateTime": 1519605222121}, {"current_trial": 208, "trialdata": {"rt": -1, "trial_type": "single-stim", "stimulus": "<p id=\"stim\">4</p>", "internal_node_id": "0.0-148.0-6.0", "time_elapsed": 1092415, "key_press": -1, "trial_index": 208}, "uniqueid": "MTK2967:326O153BMJ5X6E10THMEWR6SXLQDEE", "dateTime": 1519605223126}, {"current_trial": 209, "trialdata": {"rt": -1, "trial_type": "single-stim", "stimulus": "<p id=\"stim\">3</p>", "internal_node_id": "0.0-148.0-7.0", "time_elapsed": 1093419, "key_press": -1, "trial_index": 209}, "uniqueid": "MTK2967:326O153BMJ5X6E10THMEWR6SXLQDEE", "dateTime": 1519605224129}, {"current_trial": 210, "trialdata": {"rt": -1, "trial_type": "single-stim", "stimulus": "<p id=\"stim\">2</p>", "internal_node_id": "0.0-148.0-8.0", "time_elapsed": 1094424, "key_press": -1, "trial_index": 210}, "uniqueid": "MTK2967:326O153BMJ5X6E10THMEWR6SXLQDEE", "dateTime": 1519605225134}, {"current_trial": 211, "trialdata": {"rt": -1, "trial_type": "single-stim", "stimulus": "<p id=\"stim\">1</p>", "internal_node_id": "0.0-148.0-9.0", "time_elapsed": 1095428, "key_press": -1, "trial_index": 211}, "uniqueid": "MTK2967:326O153BMJ5X6E10THMEWR6SXLQDEE", "dateTime": 1519605226138}, {"current_trial": 212, "trialdata": {"rt": -1, "trial_type": "single-stim", "stimulus": "<p id=\"stim\">+</p>", "internal_node_id": "0.0-149.0-0.0", "time_elapsed": 1096931, "key_press": -1, "type": "FIXATION", "trial_index": 212}, "uniqueid": "MTK2967:326O153BMJ5X6E10THMEWR6SXLQDEE", "dateTime": 1519605227641}, {"current_trial": 213, "trialdata": {"rt": -1, "trial_type": "single-stim", "word": "cousin", "stimulus": "<p id=\"stim\">COUSIN</p>", "conditions": [24, 1600, "v", 24000], "internal_node_id": "0.0-150.0", "trial": 6, "time_elapsed": 1098533, "serialpos": 0, "key_press": -1, "wordID": 391, "type": "PRES_VIS", "trial_index": 213}, "uniqueid": "MTK2967:326O153BMJ5X6E10THMEWR6SXLQDEE", "dateTime": 1519605229244}, {"current_trial": 214, "trialdata": {"rt": -1, "trial_type": "single-stim", "word": "soda", "stimulus": "<p id=\"stim\">SODA</p>", "conditions": [24, 1600, "v", 24000], "internal_node_id": "0.0-151.0", "trial": 6, "time_elapsed": 1101098, "serialpos": 1, "key_press": -1, "wordID": 1340, "type": "PRES_VIS", "trial_index": 214}, "uniqueid": "MTK2967:326O153BMJ5X6E10THMEWR6SXLQDEE", "dateTime": 1519605231808}, {"current_trial": 215, "trialdata": {"rt": -1, "trial_type": "single-stim", "word": "coffee", "stimulus": "<p id=\"stim\">COFFEE</p>", "conditions": [24, 1600, "v", 24000], "internal_node_id": "0.0-152.0", "trial": 6, "time_elapsed": 1103611, "serialpos": 2, "key_press": -1, "wordID": 340, "type": "PRES_VIS", "trial_index": 215}, "uniqueid": "MTK2967:326O153BMJ5X6E10THMEWR6SXLQDEE", "dateTime": 1519605234321}, {"current_trial": 216, "trialdata": {"rt": -1, "trial_type": "single-stim", "word": "poet", "stimulus": "<p id=\"stim\">POET</p>", "conditions": [24, 1600, "v", 24000], "internal_node_id": "0.0-153.0", "trial": 6, "time_elapsed": 1106119, "serialpos": 3, "key_press": -1, "wordID": 1094, "type": "PRES_VIS", "trial_index": 216}, "uniqueid": "MTK2967:326O153BMJ5X6E10THMEWR6SXLQDEE", "dateTime": 1519605236829}, {"current_trial": 217, "trialdata": {"rt": -1, "trial_type": "single-stim", "word": "paddle", "stimulus": "<p id=\"stim\">PADDLE</p>", "conditions": [24, 1600, "v", 24000], "internal_node_id": "0.0-154.0", "trial": 6, "time_elapsed": 1108550, "serialpos": 4, "key_press": -1, "wordID": 999, "type": "PRES_VIS", "trial_index": 217}, "uniqueid": "MTK2967:326O153BMJ5X6E10THMEWR6SXLQDEE", "dateTime": 1519605239260}, {"current_trial": 218, "trialdata": {"rt": -1, "trial_type": "single-stim", "word": "sister", "stimulus": "<p id=\"stim\">SISTER</p>", "conditions": [24, 1600, "v", 24000], "internal_node_id": "0.0-155.0", "trial": 6, "time_elapsed": 1111162, "serialpos": 5, "key_press": -1, "wordID": 1311, "type": "PRES_VIS", "trial_index": 218}, "uniqueid": "MTK2967:326O153BMJ5X6E10THMEWR6SXLQDEE", "dateTime": 1519605241872}, {"current_trial": 219, "trialdata": {"rt": -1, "trial_type": "single-stim", "word": "sidewalk", "stimulus": "<p id=\"stim\">SIDEWALK</p>", "conditions": [24, 1600, "v", 24000], "internal_node_id": "0.0-156.0", "trial": 6, "time_elapsed": 1113716, "serialpos": 6, "key_press": -1, "wordID": 1302, "type": "PRES_VIS", "trial_index": 219}, "uniqueid": "MTK2967:326O153BMJ5X6E10THMEWR6SXLQDEE", "dateTime": 1519605244426}, {"current_trial": 220, "trialdata": {"rt": -1, "trial_type": "single-stim", "word": "mammal", "stimulus": "<p id=\"stim\">MAMMAL</p>", "conditions": [24, 1600, "v", 24000], "internal_node_id": "0.0-157.0", "trial": 6, "time_elapsed": 1116431, "serialpos": 7, "key_press": -1, "wordID": 860, "type": "PRES_VIS", "trial_index": 220}, "uniqueid": "MTK2967:326O153BMJ5X6E10THMEWR6SXLQDEE", "dateTime": 1519605247141}, {"current_trial": 221, "trialdata": {"rt": -1, "trial_type": "single-stim", "word": "baby", "stimulus": "<p id=\"stim\">BABY</p>", "conditions": [24, 1600, "v", 24000], "internal_node_id": "0.0-158.0", "trial": 6, "time_elapsed": 1119131, "serialpos": 8, "key_press": -1, "wordID": 63, "type": "PRES_VIS", "trial_index": 221}, "uniqueid": "MTK2967:326O153BMJ5X6E10THMEWR6SXLQDEE", "dateTime": 1519605249841}, {"current_trial": 222, "trialdata": {"rt": -1, "trial_type": "single-stim", "word": "lagoon", "stimulus": "<p id=\"stim\">LAGOON</p>", "conditions": [24, 1600, "v", 24000], "internal_node_id": "0.0-159.0", "trial": 6, "time_elapsed": 1121707, "serialpos": 9, "key_press": -1, "wordID": 794, "type": "PRES_VIS", "trial_index": 222}, "uniqueid": "MTK2967:326O153BMJ5X6E10THMEWR6SXLQDEE", "dateTime": 1519605252418}, {"current_trial": 223, "trialdata": {"rt": -1, "trial_type": "single-stim", "word": "balloon", "stimulus": "<p id=\"stim\">BALLOON</p>", "conditions": [24, 1600, "v", 24000], "internal_node_id": "0.0-160.0", "trial": 6, "time_elapsed": 1124429, "serialpos": 10, "key_press": -1, "wordID": 74, "type": "PRES_VIS", "trial_index": 223}, "uniqueid": "MTK2967:326O153BMJ5X6E10THMEWR6SXLQDEE", "dateTime": 1519605255140}, {"current_trial": 224, "trialdata": {"rt": -1, "trial_type": "single-stim", "word": "wife", "stimulus": "<p id=\"stim\">WIFE</p>", "conditions": [24, 1600, "v", 24000], "internal_node_id": "0.0-161.0", "trial": 6, "time_elapsed": 1126949, "serialpos": 11, "key_press": -1, "wordID": 1608, "type": "PRES_VIS", "trial_index": 224}, "uniqueid": "MTK2967:326O153BMJ5X6E10THMEWR6SXLQDEE", "dateTime": 1519605257659}, {"current_trial": 225, "trialdata": {"rt": -1, "trial_type": "single-stim", "word": "lizard", "stimulus": "<p id=\"stim\">LIZARD</p>", "conditions": [24, 1600, "v", 24000], "internal_node_id": "0.0-162.0", "trial": 6, "time_elapsed": 1129676, "serialpos": 12, "key_press": -1, "wordID": 833, "type": "PRES_VIS", "trial_index": 225}, "uniqueid": "MTK2967:326O153BMJ5X6E10THMEWR6SXLQDEE", "dateTime": 1519605260387}, {"current_trial": 226, "trialdata": {"rt": -1, "trial_type": "single-stim", "word": "rabbit", "stimulus": "<p id=\"stim\">RABBIT</p>", "conditions": [24, 1600, "v", 24000], "internal_node_id": "0.0-163.0", "trial": 6, "time_elapsed": 1132441, "serialpos": 13, "key_press": -1, "wordID": 1151, "type": "PRES_VIS", "trial_index": 226}, "uniqueid": "MTK2967:326O153BMJ5X6E10THMEWR6SXLQDEE", "dateTime": 1519605263151}, {"current_trial": 227, "trialdata": {"rt": -1, "trial_type": "single-stim", "word": "ozone", "stimulus": "<p id=\"stim\">OZONE</p>", "conditions": [24, 1600, "v", 24000], "internal_node_id": "0.0-164.0", "trial": 6, "time_elapsed": 1135178, "serialpos": 14, "key_press": -1, "wordID": 995, "type": "PRES_VIS", "trial_index": 227}, "uniqueid": "MTK2967:326O153BMJ5X6E10THMEWR6SXLQDEE", "dateTime": 1519605265889}, {"current_trial": 228, "trialdata": {"rt": -1, "trial_type": "single-stim", "word": "swimmer", "stimulus": "<p id=\"stim\">SWIMMER</p>", "conditions": [24, 1600, "v", 24000], "internal_node_id": "0.0-165.0", "trial": 6, "time_elapsed": 1137778, "serialpos": 15, "key_press": -1, "wordID": 1419, "type": "PRES_VIS", "trial_index": 228}, "uniqueid": "MTK2967:326O153BMJ5X6E10THMEWR6SXLQDEE", "dateTime": 1519605268488}, {"current_trial": 229, "trialdata": {"rt": -1, "trial_type": "single-stim", "word": "record", "stimulus": "<p id=\"stim\">RECORD</p>", "conditions": [24, 1600, "v", 24000], "internal_node_id": "0.0-166.0", "trial": 6, "time_elapsed": 1140367, "serialpos": 16, "key_press": -1, "wordID": 1175, "type": "PRES_VIS", "trial_index": 229}, "uniqueid": "MTK2967:326O153BMJ5X6E10THMEWR6SXLQDEE", "dateTime": 1519605271077}, {"current_trial": 230, "trialdata": {"rt": -1, "trial_type": "single-stim", "word": "forehead", "stimulus": "<p id=\"stim\">FOREHEAD</p>", "conditions": [24, 1600, "v", 24000], "internal_node_id": "0.0-167.0", "trial": 6, "time_elapsed": 1143043, "serialpos": 17, "key_press": -1, "wordID": 591, "type": "PRES_VIS", "trial_index": 230}, "uniqueid": "MTK2967:326O153BMJ5X6E10THMEWR6SXLQDEE", "dateTime": 1519605273753}, {"current_trial": 231, "trialdata": {"rt": -1, "trial_type": "single-stim", "word": "spool", "stimulus": "<p id=\"stim\">SPOOL</p>", "conditions": [24, 1600, "v", 24000], "internal_node_id": "0.0-168.0", "trial": 6, "time_elapsed": 1145707, "serialpos": 18, "key_press": -1, "wordID": 1355, "type": "PRES_VIS", "trial_index": 231}, "uniqueid": "MTK2967:326O153BMJ5X6E10THMEWR6SXLQDEE", "dateTime": 1519605276417}, {"current_trial": 232, "trialdata": {"rt": -1, "trial_type": "single-stim", "word": "leopard", "stimulus": "<p id=\"stim\">LEOPARD</p>", "conditions": [24, 1600, "v", 24000], "internal_node_id": "0.0-169.0", "trial": 6, "time_elapsed": 1148225, "serialpos": 19, "key_press": -1, "wordID": 811, "type": "PRES_VIS", "trial_index": 232}, "uniqueid": "MTK2967:326O153BMJ5X6E10THMEWR6SXLQDEE", "dateTime": 1519605278936}, {"current_trial": 233, "trialdata": {"rt": -1, "trial_type": "single-stim", "word": "hound", "stimulus": "<p id=\"stim\">HOUND</p>", "conditions": [24, 1600, "v", 24000], "internal_node_id": "0.0-170.0", "trial": 6, "time_elapsed": 1150814, "serialpos": 20, "key_press": -1, "wordID": 723, "type": "PRES_VIS", "trial_index": 233}, "uniqueid": "MTK2967:326O153BMJ5X6E10THMEWR6SXLQDEE", "dateTime": 1519605281524}, {"current_trial": 234, "trialdata": {"rt": -1, "trial_type": "single-stim", "word": "crutch", "stimulus": "<p id=\"stim\">CRUTCH</p>", "conditions": [24, 1600, "v", 24000], "internal_node_id": "0.0-171.0", "trial": 6, "time_elapsed": 1153560, "serialpos": 21, "key_press": -1, "wordID": 416, "type": "PRES_VIS", "trial_index": 234}, "uniqueid": "MTK2967:326O153BMJ5X6E10THMEWR6SXLQDEE", "dateTime": 1519605284270}, {"current_trial": 235, "trialdata": {"rt": -1, "trial_type": "single-stim", "word": "chest", "stimulus": "<p id=\"stim\">CHEST</p>", "conditions": [24, 1600, "v", 24000], "internal_node_id": "0.0-172.0", "trial": 6, "time_elapsed": 1156357, "serialpos": 22, "key_press": -1, "wordID": 294, "type": "PRES_VIS", "trial_index": 235}, "uniqueid": "MTK2967:326O153BMJ5X6E10THMEWR6SXLQDEE", "dateTime": 1519605287067}, {"current_trial": 236, "trialdata": {"rt": -1, "trial_type": "single-stim", "word": "lover", "stimulus": "<p id=\"stim\">LOVER</p>", "conditions": [24, 1600, "v", 24000], "internal_node_id": "0.0-173.0", "trial": 6, "time_elapsed": 1158765, "serialpos": 23, "key_press": -1, "wordID": 845, "type": "PRES_VIS", "trial_index": 236}, "uniqueid": "MTK2967:326O153BMJ5X6E10THMEWR6SXLQDEE", "dateTime": 1519605289475}, {"current_trial": 237, "trialdata": {"rt": -1, "trial_type": "single-stim", "stimulus": "", "internal_node_id": "0.0-174.0-0.0", "time_elapsed": 1161203, "key_press": -1, "type": "PRE_RECALL_DELAY", "trial_index": 237}, "uniqueid": "MTK2967:326O153BMJ5X6E10THMEWR6SXLQDEE", "dateTime": 1519605291913}, {"current_trial": 238, "trialdata": {"rt": -1000, "trial_type": "single-audio", "stimulus": "/static/audio/400Hz.wav", "internal_node_id": "0.0-175.0", "time_elapsed": 1161705, "key_press": -1, "type": "PRE_RECALL_ALERT", "trial_index": 238}, "uniqueid": "MTK2967:326O153BMJ5X6E10THMEWR6SXLQDEE", "dateTime": 1519605292415}, {"current_trial": 239, "trialdata": {"rt": [2516, 5282, 6908, 8080, 9399, 14421, 16255, 20636], "recwords": ["forehead", "leaopard", "cousin", "sister", "baby", "paddle", "lagoon", "crutch"], "key_times": [925, 1046, 1184, 1307, 1658, 1742, 1837, 1986, 2516, 3663, 3739, 3848, 4051, 4365, 4605, 4737, 4821, 4922, 5097, 5282, 5673, 6088, 6206, 6369, 6514, 6670, 6908, 7169, 7347, 7443, 7577, 7709, 7797, 8080, 8652, 8744, 8864, 9098, 9399, 13472, 13534, 13675, 13798, 13962, 14054, 14421, 15178, 15301, 15433, 15690, 15788, 15936, 16255, 19170, 19355, 19613, 19926, 20146, 20277, 20636], "trial_type": "free-recall", "conditions": [24, 1600, "v", 24000], "internal_node_id": "0.0-176.0-0.0", "key_presses": [70, 79, 82, 69, 72, 69, 65, 68, 13, 76, 69, 65, 80, 8, 79, 80, 65, 82, 68, 13, 67, 79, 85, 83, 73, 78, 13, 83, 73, 83, 84, 69, 82, 13, 66, 65, 66, 89, 13, 80, 65, 68, 68, 76, 69, 13, 76, 65, 71, 79, 79, 78, 13, 67, 82, 85, 84, 67, 72, 13], "trial": 6, "time_elapsed": 1221707, "type": "FREE_RECALL", "trial_index": 239}, "uniqueid": "MTK2967:326O153BMJ5X6E10THMEWR6SXLQDEE", "dateTime": 1519605352421}, {"current_trial": 240, "trialdata": {"rt": 3531, "trial_type": "text", "internal_node_id": "0.0-177.0", "time_elapsed": 1227246, "key_press": 72, "type": "INSTRUCTIONS", "trial_index": 240}, "uniqueid": "MTK2967:326O153BMJ5X6E10THMEWR6SXLQDEE", "dateTime": 1519605357956}, {"current_trial": 241, "trialdata": {"rt": [2181, 5455, 7130, 10887, 12218, 13967, 15955, 18199, 20273, 23860], "trial_type": "math-distractor", "key_times": [1633, 1756, 2181, 4951, 5286, 5455, 6949, 7130, 10439, 10781, 10887, 11991, 12128, 12218, 13800, 13854, 13967, 15731, 15842, 15955, 17546, 18057, 18199, 19641, 20137, 20273, 22949, 23661, 23860], "responses": ["11", "16", "5", "15", "12", "12", "11", "13", "10", "17"], "num2": [3, 4, 1, 5, 3, 6, 2, 2, 3, 3, 2], "num3": [1, 6, 3, 1, 2, 1, 2, 7, 1, 8, 7], "conditions": [12, 1600, "v", 24000], "internal_node_id": "0.0-178.0", "key_presses": [49, 49, 13, 49, 54, 13, 53, 13, 49, 53, 13, 49, 50, 13, 49, 50, 13, 49, 49, 13, 49, 51, 13, 49, 48, 13, 49, 55, 13], "trial": 7, "time_elapsed": 1253248, "type": "DISTRACTOR", "trial_index": 241, "num1": [7, 5, 1, 9, 7, 5, 7, 4, 6, 4, 4]}, "uniqueid": "MTK2967:326O153BMJ5X6E10THMEWR6SXLQDEE", "dateTime": 1519605383958}, {"current_trial": 242, "trialdata": {"rt": -1, "trial_type": "single-stim", "stimulus": "<p id=\"stim\">10</p>", "internal_node_id": "0.0-179.0-0.0", "time_elapsed": 1256254, "key_press": -1, "trial_index": 242}, "uniqueid": "MTK2967:326O153BMJ5X6E10THMEWR6SXLQDEE", "dateTime": 1519605386965}, {"current_trial": 243, "trialdata": {"rt": -1, "trial_type": "single-stim", "stimulus": "<p id=\"stim\">9</p>", "internal_node_id": "0.0-179.0-1.0", "time_elapsed": 1257258, "key_press": -1, "trial_index": 243}, "uniqueid": "MTK2967:326O153BMJ5X6E10THMEWR6SXLQDEE", "dateTime": 1519605387968}, {"current_trial": 244, "trialdata": {"rt": -1, "trial_type": "single-stim", "stimulus": "<p id=\"stim\">8</p>", "internal_node_id": "0.0-179.0-2.0", "time_elapsed": 1258262, "key_press": -1, "trial_index": 244}, "uniqueid": "MTK2967:326O153BMJ5X6E10THMEWR6SXLQDEE", "dateTime": 1519605388972}, {"current_trial": 245, "trialdata": {"rt": -1, "trial_type": "single-stim", "stimulus": "<p id=\"stim\">7</p>", "internal_node_id": "0.0-179.0-3.0", "time_elapsed": 1259266, "key_press": -1, "trial_index": 245}, "uniqueid": "MTK2967:326O153BMJ5X6E10THMEWR6SXLQDEE", "dateTime": 1519605389976}, {"current_trial": 246, "trialdata": {"rt": -1, "trial_type": "single-stim", "stimulus": "<p id=\"stim\">6</p>", "internal_node_id": "0.0-179.0-4.0", "time_elapsed": 1260270, "key_press": -1, "trial_index": 246}, "uniqueid": "MTK2967:326O153BMJ5X6E10THMEWR6SXLQDEE", "dateTime": 1519605390980}, {"current_trial": 247, "trialdata": {"rt": -1, "trial_type": "single-stim", "stimulus": "<p id=\"stim\">5</p>", "internal_node_id": "0.0-179.0-5.0", "time_elapsed": 1261275, "key_press": -1, "trial_index": 247}, "uniqueid": "MTK2967:326O153BMJ5X6E10THMEWR6SXLQDEE", "dateTime": 1519605391985}, {"current_trial": 248, "trialdata": {"rt": -1, "trial_type": "single-stim", "stimulus": "<p id=\"stim\">4</p>", "internal_node_id": "0.0-179.0-6.0", "time_elapsed": 1262275, "key_press": -1, "trial_index": 248}, "uniqueid": "MTK2967:326O153BMJ5X6E10THMEWR6SXLQDEE", "dateTime": 1519605392985}, {"current_trial": 249, "trialdata": {"rt": -1, "trial_type": "single-stim", "stimulus": "<p id=\"stim\">3</p>", "internal_node_id": "0.0-179.0-7.0", "time_elapsed": 1263276, "key_press": -1, "trial_index": 249}, "uniqueid": "MTK2967:326O153BMJ5X6E10THMEWR6SXLQDEE", "dateTime": 1519605393986}, {"current_trial": 250, "trialdata": {"rt": -1, "trial_type": "single-stim", "stimulus": "<p id=\"stim\">2</p>", "internal_node_id": "0.0-179.0-8.0", "time_elapsed": 1264279, "key_press": -1, "trial_index": 250}, "uniqueid": "MTK2967:326O153BMJ5X6E10THMEWR6SXLQDEE", "dateTime": 1519605394990}, {"current_trial": 251, "trialdata": {"rt": -1, "trial_type": "single-stim", "stimulus": "<p id=\"stim\">1</p>", "internal_node_id": "0.0-179.0-9.0", "time_elapsed": 1265281, "key_press": -1, "trial_index": 251}, "uniqueid": "MTK2967:326O153BMJ5X6E10THMEWR6SXLQDEE", "dateTime": 1519605395991}, {"current_trial": 252, "trialdata": {"rt": -1, "trial_type": "single-stim", "stimulus": "<p id=\"stim\">+</p>", "internal_node_id": "0.0-180.0-0.0", "time_elapsed": 1266788, "key_press": -1, "type": "FIXATION", "trial_index": 252}, "uniqueid": "MTK2967:326O153BMJ5X6E10THMEWR6SXLQDEE", "dateTime": 1519605397498}, {"current_trial": 253, "trialdata": {"rt": -1, "trial_type": "single-stim", "word": "xerox", "stimulus": "<p id=\"stim\">XEROX</p>", "conditions": [12, 1600, "v", 24000], "internal_node_id": "0.0-181.0", "trial": 7, "time_elapsed": 1268389, "serialpos": 0, "key_press": -1, "wordID": 1627, "type": "PRES_VIS", "trial_index": 253}, "uniqueid": "MTK2967:326O153BMJ5X6E10THMEWR6SXLQDEE", "dateTime": 1519605399099}, {"current_trial": 254, "trialdata": {"rt": -1, "trial_type": "single-stim", "word": "girl", "stimulus": "<p id=\"stim\">GIRL</p>", "conditions": [12, 1600, "v", 24000], "internal_node_id": "0.0-182.0", "trial": 7, "time_elapsed": 1270815, "serialpos": 1, "key_press": -1, "wordID": 636, "type": "PRES_VIS", "trial_index": 254}, "uniqueid": "MTK2967:326O153BMJ5X6E10THMEWR6SXLQDEE", "dateTime": 1519605401525}, {"current_trial": 255, "trialdata": {"rt": -1, "trial_type": "single-stim", "word": "woman", "stimulus": "<p id=\"stim\">WOMAN</p>", "conditions": [12, 1600, "v", 24000], "internal_node_id": "0.0-183.0", "trial": 7, "time_elapsed": 1273335, "serialpos": 2, "key_press": -1, "wordID": 1619, "type": "PRES_VIS", "trial_index": 255}, "uniqueid": "MTK2967:326O153BMJ5X6E10THMEWR6SXLQDEE", "dateTime": 1519605404045}, {"current_trial": 256, "trialdata": {"rt": -1, "trial_type": "single-stim", "word": "shirt", "stimulus": "<p id=\"stim\">SHIRT</p>", "conditions": [12, 1600, "v", 24000], "internal_node_id": "0.0-184.0", "trial": 7, "time_elapsed": 1275981, "serialpos": 3, "key_press": -1, "wordID": 1286, "type": "PRES_VIS", "trial_index": 256}, "uniqueid": "MTK2967:326O153BMJ5X6E10THMEWR6SXLQDEE", "dateTime": 1519605406691}, {"current_trial": 257, "trialdata": {"rt": -1, "trial_type": "single-stim", "word": "hero", "stimulus": "<p id=\"stim\">HERO</p>", "conditions": [12, 1600, "v", 24000], "internal_node_id": "0.0-185.0", "trial": 7, "time_elapsed": 1278580, "serialpos": 4, "key_press": -1, "wordID": 705, "type": "PRES_VIS", "trial_index": 257}, "uniqueid": "MTK2967:326O153BMJ5X6E10THMEWR6SXLQDEE", "dateTime": 1519605409291}, {"current_trial": 258, "trialdata": {"rt": -1, "trial_type": "single-stim", "word": "widow", "stimulus": "<p id=\"stim\">WIDOW</p>", "conditions": [12, 1600, "v", 24000], "internal_node_id": "0.0-186.0", "trial": 7, "time_elapsed": 1281251, "serialpos": 5, "key_press": -1, "wordID": 1607, "type": "PRES_VIS", "trial_index": 258}, "uniqueid": "MTK2967:326O153BMJ5X6E10THMEWR6SXLQDEE", "dateTime": 1519605411961}, {"current_trial": 259, "trialdata": {"rt": -1, "trial_type": "single-stim", "word": "mailbox", "stimulus": "<p id=\"stim\">MAILBOX</p>", "conditions": [12, 1600, "v", 24000], "internal_node_id": "0.0-187.0", "trial": 7, "time_elapsed": 1283776, "se