{"assignmentId": "358010RM5F0S6VS3F7C0Q2X6DX2XV1", "workerId": "MTK2953", "questiondata": {"origin": "United States", "strat-rehearsal": "49", "marital": "Single", "education": "Bachelor's degree", "ethnicity": "Hispanic", "color_depth": 24, "distracted": "No", "wrote-notes": "Yes", "strat-other": "", "screen_width": 1536, "avail_screen_width": 1536, "avail_screen_height": 826, "strat-image": "38", "language": "english", "gender": "Male", "age": "25", "gender_other": "", "race": ["White"], "strat-categorize": "57", "pixel_depth": 24, "strat-spatial": "59", "strat-story": "57", "race_other": "", "screen_height": 864}, "bonus": 0, "hitId": "366FYU4PTGW3X09GVW3ZBK5YWH7KEW", "counterbalance": 2966, "useragent": "Mozilla/5.0 (Windows NT 6.3; Win64; x64) AppleWebKit/537.36 (KHTML, like Gecko) Chrome/64.0.3282.167 Safari/537.36", "eventdata": [{"eventtype": "initialized", "interval": 0, "value": null, "timestamp": 1519594949745}, {"eventtype": "window_resize", "interval": 0, "value": [1532, 808], "timestamp": 1519594949745}, {"eventtype": "focus", "interval": 764, "value": "on", "timestamp": 1519594950509}, {"eventtype": "window_resize", "interval": 198812, "value": [1536, 775], "timestamp": 1519595149321}, {"eventtype": "focus", "interval": 857058, "value": "off", "timestamp": 1519596006379}, {"eventtype": "focus", "interval": 5688, "value": "on", "timestamp": 1519596012067}, {"eventtype": "focus", "interval": 1030899, "value": "off", "timestamp": 1519597042966}, {"eventtype": "focus", "interval": 2401, "value": "on", "timestamp": 1519597045367}, {"eventtype": "focus", "interval": 444578, "value": "off", "timestamp": 1519597489945}, {"eventtype": "focus", "interval": 2236, "value": "on", "timestamp": 1519597492181}], "data": [{"current_trial": 0, "trialdata": {"rt": 1217, "trial_type": "text", "internal_node_id": "0.0-0.0", "time_elapsed": 1220, "key_press": 32, "type": "INSTRUCTIONS", "trial_index": 0}, "uniqueid": "MTK2953:358010RM5F0S6VS3F7C0Q2X6DX2XV1", "dateTime": 1519594951916}, {"current_trial": 1, "trialdata": {"rt": 7482, "trial_type": "text", "internal_node_id": "0.0-1.0", "time_elapsed": 8705, "key_press": 32, "type": "INSTRUCTIONS", "trial_index": 1}, "uniqueid": "MTK2953:358010RM5F0S6VS3F7C0Q2X6DX2XV1", "dateTime": 1519594959400}, {"current_trial": 2, "trialdata": {"rt": [7285], "trial_type": "audio-test", "responses": ["ocean"], "internal_node_id": "0.0-2.0", "time_elapsed": 15996, "type": "AUDIO_TEST", "trial_index": 2}, "uniqueid": "MTK2953:358010RM5F0S6VS3F7C0Q2X6DX2XV1", "dateTime": 1519594966691}, {"current_trial": 3, "trialdata": {"rt": [7299], "trial_type": "audio-test", "responses": ["crystal"], "internal_node_id": "0.0-3.0", "time_elapsed": 23300, "type": "AUDIO_TEST", "trial_index": 3}, "uniqueid": "MTK2953:358010RM5F0S6VS3F7C0Q2X6DX2XV1", "dateTime": 1519594973995}, {"current_trial": 4, "trialdata": {"rt": [6982], "trial_type": "audio-test", "responses": ["spice"], "internal_node_id": "0.0-4.0", "time_elapsed": 30285, "type": "AUDIO_TEST", "trial_index": 4}, "uniqueid": "MTK2953:358010RM5F0S6VS3F7C0Q2X6DX2XV1", "dateTime": 1519594980980}, {"current_trial": 5, "trialdata": {"rt": 9222, "trial_type": "survey-text", "responses": "{\"Q0\":\"12\",\"Q1\":\"10\",\"Q2\":\"4\"}", "internal_node_id": "0.0-5.0", "time_elapsed": 40261, "type": "SLEEP_SURVEY", "trial_index": 5}, "uniqueid": "MTK2953:358010RM5F0S6VS3F7C0Q2X6DX2XV1", "dateTime": 1519594990956}, {"current_trial": 6, "trialdata": {"rt": 14609, "trial_type": "text", "internal_node_id": "0.0-6.0", "time_elapsed": 55874, "key_press": 32, "type": "INSTRUCTIONS", "trial_index": 6}, "uniqueid": "MTK2953:358010RM5F0S6VS3F7C0Q2X6DX2XV1", "dateTime": 1519595006569}, {"current_trial": 7, "trialdata": {"rt": 4973, "trial_type": "text", "internal_node_id": "0.0-7.0", "time_elapsed": 61349, "key_press": 32, "type": "INSTRUCTIONS", "trial_index": 7}, "uniqueid": "MTK2953:358010RM5F0S6VS3F7C0Q2X6DX2XV1", "dateTime": 1519595012044}, {"current_trial": 8, "trialdata": {"rt": 3074, "trial_type": "text", "internal_node_id": "0.0-8.0", "time_elapsed": 64927, "key_press": 32, "type": "INSTRUCTIONS", "trial_index": 8}, "uniqueid": "MTK2953:358010RM5F0S6VS3F7C0Q2X6DX2XV1", "dateTime": 1519595015622}, {"current_trial": 9, "trialdata": {"rt": [3748, 8978, 12729, 15080], "trial_type": "math-distractor", "key_times": [3053, 3175, 3748, 7133, 7440, 7951, 8096, 8214, 8427, 8788, 8978, 11870, 12165, 12729, 14896, 15080, 17108, 17541], "responses": ["13", "18", "17", "6"], "num2": [7, 9, 8, 2, 3], "num3": [5, 5, 4, 3, 7], "conditions": [18, 1200, "v", 18000], "internal_node_id": "0.0-9.0", "key_presses": [49, 51, 13, 50, 56, 8, 8, 8, 49, 56, 13, 49, 55, 13, 54, 13, 49, 57], "trial": 0, "time_elapsed": 83940, "type": "DISTRACTOR", "trial_index": 9, "num1": [1, 4, 5, 1, 9]}, "uniqueid": "MTK2953:358010RM5F0S6VS3F7C0Q2X6DX2XV1", "dateTime": 1519595034636}, {"current_trial": 10, "trialdata": {"rt": -1, "trial_type": "single-stim", "stimulus": "<p id=\"stim\">10</p>", "internal_node_id": "0.0-10.0-0.0", "time_elapsed": 86945, "key_press": -1, "trial_index": 10}, "uniqueid": "MTK2953:358010RM5F0S6VS3F7C0Q2X6DX2XV1", "dateTime": 1519595037640}, {"current_trial": 11, "trialdata": {"rt": -1, "trial_type": "single-stim", "stimulus": "<p id=\"stim\">9</p>", "internal_node_id": "0.0-10.0-1.0", "time_elapsed": 87947, "key_press": -1, "trial_index": 11}, "uniqueid": "MTK2953:358010RM5F0S6VS3F7C0Q2X6DX2XV1", "dateTime": 1519595038642}, {"current_trial": 12, "trialdata": {"rt": -1, "trial_type": "single-stim", "stimulus": "<p id=\"stim\">8</p>", "internal_node_id": "0.0-10.0-2.0", "time_elapsed": 88949, "key_press": -1, "trial_index": 12}, "uniqueid": "MTK2953:358010RM5F0S6VS3F7C0Q2X6DX2XV1", "dateTime": 1519595039644}, {"current_trial": 13, "trialdata": {"rt": -1, "trial_type": "single-stim", "stimulus": "<p id=\"stim\">7</p>", "internal_node_id": "0.0-10.0-3.0", "time_elapsed": 89951, "key_press": -1, "trial_index": 13}, "uniqueid": "MTK2953:358010RM5F0S6VS3F7C0Q2X6DX2XV1", "dateTime": 1519595040646}, {"current_trial": 14, "trialdata": {"rt": -1, "trial_type": "single-stim", "stimulus": "<p id=\"stim\">6</p>", "internal_node_id": "0.0-10.0-4.0", "time_elapsed": 90954, "key_press": -1, "trial_index": 14}, "uniqueid": "MTK2953:358010RM5F0S6VS3F7C0Q2X6DX2XV1", "dateTime": 1519595041649}, {"current_trial": 15, "trialdata": {"rt": -1, "trial_type": "single-stim", "stimulus": "<p id=\"stim\">5</p>", "internal_node_id": "0.0-10.0-5.0", "time_elapsed": 91956, "key_press": -1, "trial_index": 15}, "uniqueid": "MTK2953:358010RM5F0S6VS3F7C0Q2X6DX2XV1", "dateTime": 1519595042651}, {"current_trial": 16, "trialdata": {"rt": -1, "trial_type": "single-stim", "stimulus": "<p id=\"stim\">4</p>", "internal_node_id": "0.0-10.0-6.0", "time_elapsed": 92960, "key_press": -1, "trial_index": 16}, "uniqueid": "MTK2953:358010RM5F0S6VS3F7C0Q2X6DX2XV1", "dateTime": 1519595043655}, {"current_trial": 17, "trialdata": {"rt": -1, "trial_type": "single-stim", "stimulus": "<p id=\"stim\">3</p>", "internal_node_id": "0.0-10.0-7.0", "time_elapsed": 93962, "key_press": -1, "trial_index": 17}, "uniqueid": "MTK2953:358010RM5F0S6VS3F7C0Q2X6DX2XV1", "dateTime": 1519595044657}, {"current_trial": 18, "trialdata": {"rt": -1, "trial_type": "single-stim", "stimulus": "<p id=\"stim\">2</p>", "internal_node_id": "0.0-10.0-8.0", "time_elapsed": 94966, "key_press": -1, "trial_index": 18}, "uniqueid": "MTK2953:358010RM5F0S6VS3F7C0Q2X6DX2XV1", "dateTime": 1519595045661}, {"current_trial": 19, "trialdata": {"rt": -1, "trial_type": "single-stim", "stimulus": "<p id=\"stim\">1</p>", "internal_node_id": "0.0-10.0-9.0", "time_elapsed": 95968, "key_press": -1, "trial_index": 19}, "uniqueid": "MTK2953:358010RM5F0S6VS3F7C0Q2X6DX2XV1", "dateTime": 1519595046663}, {"current_trial": 20, "trialdata": {"rt": -1, "trial_type": "single-stim", "stimulus": "<p id=\"stim\">+</p>", "internal_node_id": "0.0-11.0-0.0", "time_elapsed": 97470, "key_press": -1, "type": "FIXATION", "trial_index": 20}, "uniqueid": "MTK2953:358010RM5F0S6VS3F7C0Q2X6DX2XV1", "dateTime": 1519595048165}, {"current_trial": 21, "trialdata": {"rt": -1, "trial_type": "single-stim", "word": "daughter", "stimulus": "<p id=\"stim\">DAUGHTER</p>", "conditions": [18, 1200, "v", 18000], "internal_node_id": "0.0-12.0", "trial": 0, "time_elapsed": 98672, "serialpos": 0, "key_press": -1, "wordID": 441, "type": "PRES_VIS", "trial_index": 21}, "uniqueid": "MTK2953:358010RM5F0S6VS3F7C0Q2X6DX2XV1", "dateTime": 1519595049367}, {"current_trial": 22, "trialdata": {"rt": 116, "trial_type": "single-stim", "word": "airport", "stimulus": "<p id=\"stim\">AIRPORT</p>", "conditions": [18, 1200, "v", 18000], "internal_node_id": "0.0-13.0", "trial": 0, "time_elapsed": 100853, "serialpos": 1, "key_press": 175, "wordID": 12, "type": "PRES_VIS", "trial_index": 22}, "uniqueid": "MTK2953:358010RM5F0S6VS3F7C0Q2X6DX2XV1", "dateTime": 1519595051548}, {"current_trial": 23, "trialdata": {"rt": -1, "trial_type": "single-stim", "word": "match", "stimulus": "<p id=\"stim\">MATCH</p>", "conditions": [18, 1200, "v", 18000], "internal_node_id": "0.0-14.0", "trial": 0, "time_elapsed": 102866, "serialpos": 2, "key_press": -1, "wordID": 877, "type": "PRES_VIS", "trial_index": 23}, "uniqueid": "MTK2953:358010RM5F0S6VS3F7C0Q2X6DX2XV1", "dateTime": 1519595053561}, {"current_trial": 24, "trialdata": {"rt": -1, "trial_type": "single-stim", "word": "bubble", "stimulus": "<p id=\"stim\">BUBBLE</p>", "conditions": [18, 1200, "v", 18000], "internal_node_id": "0.0-15.0", "trial": 0, "time_elapsed": 105071, "serialpos": 3, "key_press": -1, "wordID": 182, "type": "PRES_VIS", "trial_index": 24}, "uniqueid": "MTK2953:358010RM5F0S6VS3F7C0Q2X6DX2XV1", "dateTime": 1519595055767}, {"current_trial": 25, "trialdata": {"rt": -1, "trial_type": "single-stim", "word": "blueprint", "stimulus": "<p id=\"stim\">BLUEPRINT</p>", "conditions": [18, 1200, "v", 18000], "internal_node_id": "0.0-16.0", "trial": 0, "time_elapsed": 107319, "serialpos": 4, "key_press": -1, "wordID": 141, "type": "PRES_VIS", "trial_index": 25}, "uniqueid": "MTK2953:358010RM5F0S6VS3F7C0Q2X6DX2XV1", "dateTime": 1519595058014}, {"current_trial": 26, "trialdata": {"rt": -1, "trial_type": "single-stim", "word": "goblin", "stimulus": "<p id=\"stim\">GOBLIN</p>", "conditions": [18, 1200, "v", 18000], "internal_node_id": "0.0-17.0", "trial": 0, "time_elapsed": 109347, "serialpos": 5, "key_press": -1, "wordID": 644, "type": "PRES_VIS", "trial_index": 26}, "uniqueid": "MTK2953:358010RM5F0S6VS3F7C0Q2X6DX2XV1", "dateTime": 1519595060043}, {"current_trial": 27, "trialdata": {"rt": -1, "trial_type": "single-stim", "word": "hamper", "stimulus": "<p id=\"stim\">HAMPER</p>", "conditions": [18, 1200, "v", 18000], "internal_node_id": "0.0-18.0", "trial": 0, "time_elapsed": 111706, "serialpos": 6, "key_press": -1, "wordID": 681, "type": "PRES_VIS", "trial_index": 27}, "uniqueid": "MTK2953:358010RM5F0S6VS3F7C0Q2X6DX2XV1", "dateTime": 1519595062401}, {"current_trial": 28, "trialdata": {"rt": -1, "trial_type": "single-stim", "word": "relish", "stimulus": "<p id=\"stim\">RELISH</p>", "conditions": [18, 1200, "v", 18000], "internal_node_id": "0.0-19.0", "trial": 0, "time_elapsed": 114080, "serialpos": 7, "key_press": -1, "wordID": 1182, "type": "PRES_VIS", "trial_index": 28}, "uniqueid": "MTK2953:358010RM5F0S6VS3F7C0Q2X6DX2XV1", "dateTime": 1519595064775}, {"current_trial": 29, "trialdata": {"rt": -1, "trial_type": "single-stim", "word": "pilot", "stimulus": "<p id=\"stim\">PILOT</p>", "conditions": [18, 1200, "v", 18000], "internal_node_id": "0.0-20.0", "trial": 0, "time_elapsed": 116116, "serialpos": 8, "key_press": -1, "wordID": 1069, "type": "PRES_VIS", "trial_index": 29}, "uniqueid": "MTK2953:358010RM5F0S6VS3F7C0Q2X6DX2XV1", "dateTime": 1519595066812}, {"current_trial": 30, "trialdata": {"rt": -1, "trial_type": "single-stim", "word": "football", "stimulus": "<p id=\"stim\">FOOTBALL</p>", "conditions": [18, 1200, "v", 18000], "internal_node_id": "0.0-21.0", "trial": 0, "time_elapsed": 118164, "serialpos": 9, "key_press": -1, "wordID": 590, "type": "PRES_VIS", "trial_index": 30}, "uniqueid": "MTK2953:358010RM5F0S6VS3F7C0Q2X6DX2XV1", "dateTime": 1519595068859}, {"current_trial": 31, "trialdata": {"rt": -1, "trial_type": "single-stim", "word": "jello", "stimulus": "<p id=\"stim\">JELLO</p>", "conditions": [18, 1200, "v", 18000], "internal_node_id": "0.0-22.0", "trial": 0, "time_elapsed": 120475, "serialpos": 10, "key_press": -1, "wordID": 753, "type": "PRES_VIS", "trial_index": 31}, "uniqueid": "MTK2953:358010RM5F0S6VS3F7C0Q2X6DX2XV1", "dateTime": 1519595071171}, {"current_trial": 32, "trialdata": {"rt": -1, "trial_type": "single-stim", "word": "harp", "stimulus": "<p id=\"stim\">HARP</p>", "conditions": [18, 1200, "v", 18000], "internal_node_id": "0.0-23.0", "trial": 0, "time_elapsed": 122581, "serialpos": 11, "key_press": -1, "wordID": 688, "type": "PRES_VIS", "trial_index": 32}, "uniqueid": "MTK2953:358010RM5F0S6VS3F7C0Q2X6DX2XV1", "dateTime": 1519595073276}, {"current_trial": 33, "trialdata": {"rt": -1, "trial_type": "single-stim", "word": "seafood", "stimulus": "<p id=\"stim\">SEAFOOD</p>", "conditions": [18, 1200, "v", 18000], "internal_node_id": "0.0-24.0", "trial": 0, "time_elapsed": 124940, "serialpos": 12, "key_press": -1, "wordID": 1259, "type": "PRES_VIS", "trial_index": 33}, "uniqueid": "MTK2953:358010RM5F0S6VS3F7C0Q2X6DX2XV1", "dateTime": 1519595075635}, {"current_trial": 34, "trialdata": {"rt": -1, "trial_type": "single-stim", "word": "fleet", "stimulus": "<p id=\"stim\">FLEET</p>", "conditions": [18, 1200, "v", 18000], "internal_node_id": "0.0-25.0", "trial": 0, "time_elapsed": 127232, "serialpos": 13, "key_press": -1, "wordID": 577, "type": "PRES_VIS", "trial_index": 34}, "uniqueid": "MTK2953:358010RM5F0S6VS3F7C0Q2X6DX2XV1", "dateTime": 1519595077927}, {"current_trial": 35, "trialdata": {"rt": -1, "trial_type": "single-stim", "word": "woman", "stimulus": "<p id=\"stim\">WOMAN</p>", "conditions": [18, 1200, "v", 18000], "internal_node_id": "0.0-26.0", "trial": 0, "time_elapsed": 129361, "serialpos": 14, "key_press": -1, "wordID": 1619, "type": "PRES_VIS", "trial_index": 35}, "uniqueid": "MTK2953:358010RM5F0S6VS3F7C0Q2X6DX2XV1", "dateTime": 1519595080056}, {"current_trial": 36, "trialdata": {"rt": -1, "trial_type": "single-stim", "word": "lion", "stimulus": "<p id=\"stim\">LION</p>", "conditions": [18, 1200, "v", 18000], "internal_node_id": "0.0-27.0", "trial": 0, "time_elapsed": 131665, "serialpos": 15, "key_press": -1, "wordID": 826, "type": "PRES_VIS", "trial_index": 36}, "uniqueid": "MTK2953:358010RM5F0S6VS3F7C0Q2X6DX2XV1", "dateTime": 1519595082360}, {"current_trial": 37, "trialdata": {"rt": -1, "trial_type": "single-stim", "word": "mask", "stimulus": "<p id=\"stim\">MASK</p>", "conditions": [18, 1200, "v", 18000], "internal_node_id": "0.0-28.0", "trial": 0, "time_elapsed": 133883, "serialpos": 16, "key_press": -1, "wordID": 875, "type": "PRES_VIS", "trial_index": 37}, "uniqueid": "MTK2953:358010RM5F0S6VS3F7C0Q2X6DX2XV1", "dateTime": 1519595084578}, {"current_trial": 38, "trialdata": {"rt": -1, "trial_type": "single-stim", "word": "bathtub", "stimulus": "<p id=\"stim\">BATHTUB</p>", "conditions": [18, 1200, "v", 18000], "internal_node_id": "0.0-29.0", "trial": 0, "time_elapsed": 136242, "serialpos": 17, "key_press": -1, "wordID": 99, "type": "PRES_VIS", "trial_index": 38}, "uniqueid": "MTK2953:358010RM5F0S6VS3F7C0Q2X6DX2XV1", "dateTime": 1519595086937}, {"current_trial": 39, "trialdata": {"rt": -1, "trial_type": "single-stim", "stimulus": "", "internal_node_id": "0.0-30.0-0.0", "time_elapsed": 138496, "key_press": -1, "type": "PRE_RECALL_DELAY", "trial_index": 39}, "uniqueid": "MTK2953:358010RM5F0S6VS3F7C0Q2X6DX2XV1", "dateTime": 1519595089192}, {"current_trial": 40, "trialdata": {"rt": -1000, "trial_type": "single-audio", "stimulus": "/static/audio/400Hz.wav", "internal_node_id": "0.0-31.0", "time_elapsed": 139005, "key_press": -1, "type": "PRE_RECALL_ALERT", "trial_index": 40}, "uniqueid": "MTK2953:358010RM5F0S6VS3F7C0Q2X6DX2XV1", "dateTime": 1519595089700}, {"current_trial": 41, "trialdata": {"rt": [9147, 13024, 15147, 25139, 41624, 45137, 56703], "recwords": ["daughter", "bathtub", "blueprint", "hamper", "football", "shoot", ""], "key_times": [7894, 8200, 8309, 8460, 8590, 8660, 8864, 9000, 9147, 10700, 10811, 11025, 11109, 11301, 11411, 11546, 11798, 11956, 12065, 12616, 12686, 12759, 13024, 13578, 13643, 13841, 13929, 14088, 14279, 14398, 14560, 14716, 15147, 24203, 24477, 24602, 24757, 24881, 25013, 25139, 40423, 40509, 40638, 40736, 40885, 41225, 41303, 41456, 41624, 44571, 44650, 44822, 44945, 45031, 45137, 56703], "trial_type": "free-recall", "conditions": [18, 1200, "v", 18000], "internal_node_id": "0.0-32.0-0.0", "key_presses": [68, 65, 85, 71, 72, 84, 69, 82, 13, 66, 65, 84, 72, 82, 85, 66, 8, 8, 8, 84, 85, 66, 13, 66, 76, 85, 69, 80, 82, 73, 78, 84, 13, 72, 65, 77, 80, 69, 82, 13, 70, 79, 79, 84, 66, 65, 76, 76, 13, 83, 72, 79, 79, 84, 13, 13], "trial": 0, "time_elapsed": 199010, "type": "FREE_RECALL", "trial_index": 41}, "uniqueid": "MTK2953:358010RM5F0S6VS3F7C0Q2X6DX2XV1", "dateTime": 1519595149710}, {"current_trial": 42, "trialdata": {"rt": 1688, "trial_type": "text", "internal_node_id": "0.0-33.0", "time_elapsed": 202704, "key_press": 13, "type": "INSTRUCTIONS", "trial_index": 42}, "uniqueid": "MTK2953:358010RM5F0S6VS3F7C0Q2X6DX2XV1", "dateTime": 1519595153399}, {"current_trial": 43, "trialdata": {"rt": [4220, 6052, 9635, 15168], "trial_type": "math-distractor", "key_times": [3920, 4009, 4220, 5803, 6052, 9267, 9326, 9635, 14861, 15038, 15168], "responses": ["20", "9", "20", "22"], "num2": [9, 6, 7, 9, 9], "num3": [5, 1, 5, 8, 2], "conditions": [18, 1200, "v", 18000], "internal_node_id": "0.0-34.0", "key_presses": [50, 48, 13, 57, 13, 50, 48, 13, 50, 50, 13], "trial": 1, "time_elapsed": 222709, "type": "DISTRACTOR", "trial_index": 43, "num1": [6, 2, 8, 5, 4]}, "uniqueid": "MTK2953:358010RM5F0S6VS3F7C0Q2X6DX2XV1", "dateTime": 1519595173404}, {"current_trial": 44, "trialdata": {"rt": -1, "trial_type": "single-stim", "stimulus": "<p id=\"stim\">10</p>", "internal_node_id": "0.0-35.0-0.0", "time_elapsed": 225712, "key_press": -1, "trial_index": 44}, "uniqueid": "MTK2953:358010RM5F0S6VS3F7C0Q2X6DX2XV1", "dateTime": 1519595176407}, {"current_trial": 45, "trialdata": {"rt": -1, "trial_type": "single-stim", "stimulus": "<p id=\"stim\">9</p>", "internal_node_id": "0.0-35.0-1.0", "time_elapsed": 226713, "key_press": -1, "trial_index": 45}, "uniqueid": "MTK2953:358010RM5F0S6VS3F7C0Q2X6DX2XV1", "dateTime": 1519595177409}, {"current_trial": 46, "trialdata": {"rt": -1, "trial_type": "single-stim", "stimulus": "<p id=\"stim\">8</p>", "internal_node_id": "0.0-35.0-2.0", "time_elapsed": 227716, "key_press": -1, "trial_index": 46}, "uniqueid": "MTK2953:358010RM5F0S6VS3F7C0Q2X6DX2XV1", "dateTime": 1519595178411}, {"current_trial": 47, "trialdata": {"rt": -1, "trial_type": "single-stim", "stimulus": "<p id=\"stim\">7</p>", "internal_node_id": "0.0-35.0-3.0", "time_elapsed": 228718, "key_press": -1, "trial_index": 47}, "uniqueid": "MTK2953:358010RM5F0S6VS3F7C0Q2X6DX2XV1", "dateTime": 1519595179413}, {"current_trial": 48, "trialdata": {"rt": -1, "trial_type": "single-stim", "stimulus": "<p id=\"stim\">6</p>", "internal_node_id": "0.0-35.0-4.0", "time_elapsed": 229719, "key_press": -1, "trial_index": 48}, "uniqueid": "MTK2953:358010RM5F0S6VS3F7C0Q2X6DX2XV1", "dateTime": 1519595180415}, {"current_trial": 49, "trialdata": {"rt": -1, "trial_type": "single-stim", "stimulus": "<p id=\"stim\">5</p>", "internal_node_id": "0.0-35.0-5.0", "time_elapsed": 230721, "key_press": -1, "trial_index": 49}, "uniqueid": "MTK2953:358010RM5F0S6VS3F7C0Q2X6DX2XV1", "dateTime": 1519595181416}, {"current_trial": 50, "trialdata": {"rt": -1, "trial_type": "single-stim", "stimulus": "<p id=\"stim\">4</p>", "internal_node_id": "0.0-35.0-6.0", "time_elapsed": 231723, "key_press": -1, "trial_index": 50}, "uniqueid": "MTK2953:358010RM5F0S6VS3F7C0Q2X6DX2XV1", "dateTime": 1519595182418}, {"current_trial": 51, "trialdata": {"rt": -1, "trial_type": "single-stim", "stimulus": "<p id=\"stim\">3</p>", "internal_node_id": "0.0-35.0-7.0", "time_elapsed": 232725, "key_press": -1, "trial_index": 51}, "uniqueid": "MTK2953:358010RM5F0S6VS3F7C0Q2X6DX2XV1", "dateTime": 1519595183420}, {"current_trial": 52, "trialdata": {"rt": -1, "trial_type": "single-stim", "stimulus": "<p id=\"stim\">2</p>", "internal_node_id": "0.0-35.0-8.0", "time_elapsed": 233727, "key_press": -1, "trial_index": 52}, "uniqueid": "MTK2953:358010RM5F0S6VS3F7C0Q2X6DX2XV1", "dateTime": 1519595184422}, {"current_trial": 53, "trialdata": {"rt": -1, "trial_type": "single-stim", "stimulus": "<p id=\"stim\">1</p>", "internal_node_id": "0.0-35.0-9.0", "time_elapsed": 234729, "key_press": -1, "trial_index": 53}, "uniqueid": "MTK2953:358010RM5F0S6VS3F7C0Q2X6DX2XV1", "dateTime": 1519595185424}, {"current_trial": 54, "trialdata": {"rt": -1, "trial_type": "single-stim", "stimulus": "<p id=\"stim\">+</p>", "internal_node_id": "0.0-36.0-0.0", "time_elapsed": 236230, "key_press": -1, "type": "FIXATION", "trial_index": 54}, "uniqueid": "MTK2953:358010RM5F0S6VS3F7C0Q2X6DX2XV1", "dateTime": 1519595186926}, {"current_trial": 55, "trialdata": {"rt": -1, "trial_type": "single-stim", "word": "actress", "stimulus": "<p id=\"stim\">ACTRESS</p>", "conditions": [18, 1200, "v", 18000], "internal_node_id": "0.0-37.0", "trial": 1, "time_elapsed": 237432, "serialpos": 0, "key_press": -1, "wordID": 5, "type": "PRES_VIS", "trial_index": 55}, "uniqueid": "MTK2953:358010RM5F0S6VS3F7C0Q2X6DX2XV1", "dateTime": 1519595188127}, {"current_trial": 56, "trialdata": {"rt": -1, "trial_type": "single-stim", "word": "scalpel", "stimulus": "<p id=\"stim\">SCALPEL</p>", "conditions": [18, 1200, "v", 18000], "internal_node_id": "0.0-38.0", "trial": 1, "time_elapsed": 239788, "serialpos": 1, "key_press": -1, "wordID": 1242, "type": "PRES_VIS", "trial_index": 56}, "uniqueid": "MTK2953:358010RM5F0S6VS3F7C0Q2X6DX2XV1", "dateTime": 1519595190484}, {"current_trial": 57, "trialdata": {"rt": -1, "trial_type": "single-stim", "word": "spool", "stimulus": "<p id=\"stim\">SPOOL</p>", "conditions": [18, 1200, "v", 18000], "internal_node_id": "0.0-39.0", "trial": 1, "time_elapsed": 242076, "serialpos": 2, "key_press": -1, "wordID": 1355, "type": "PRES_VIS", "trial_index": 57}, "uniqueid": "MTK2953:358010RM5F0S6VS3F7C0Q2X6DX2XV1", "dateTime": 1519595192771}, {"current_trial": 58, "trialdata": {"rt": -1, "trial_type": "single-stim", "word": "passage", "stimulus": "<p id=\"stim\">PASSAGE</p>", "conditions": [18, 1200, "v", 18000], "internal_node_id": "0.0-40.0", "trial": 1, "time_elapsed": 244230, "serialpos": 3, "key_press": -1, "wordID": 1018, "type": "PRES_VIS", "trial_index": 58}, "uniqueid": "MTK2953:358010RM5F0S6VS3F7C0Q2X6DX2XV1", "dateTime": 1519595194925}, {"current_trial": 59, "trialdata": {"rt": -1, "trial_type": "single-stim", "word": "padding", "stimulus": "<p id=\"stim\">PADDING</p>", "conditions": [18, 1200, "v", 18000], "internal_node_id": "0.0-41.0", "trial": 1, "time_elapsed": 246577, "serialpos": 4, "key_press": -1, "wordID": 998, "type": "PRES_VIS", "trial_index": 59}, "uniqueid": "MTK2953:358010RM5F0S6VS3F7C0Q2X6DX2XV1", "dateTime": 1519595197272}, {"current_trial": 60, "trialdata": {"rt": -1, "trial_type": "single-stim", "word": "cafe", "stimulus": "<p id=\"stim\">CAFE</p>", "conditions": [18, 1200, "v", 18000], "internal_node_id": "0.0-42.0", "trial": 1, "time_elapsed": 248620, "serialpos": 5, "key_press": -1, "wordID": 215, "type": "PRES_VIS", "trial_index": 60}, "uniqueid": "MTK2953:358010RM5F0S6VS3F7C0Q2X6DX2XV1", "dateTime": 1519595199316}, {"current_trial": 61, "trialdata": {"rt": -1, "trial_type": "single-stim", "word": "fiddle", "stimulus": "<p id=\"stim\">FIDDLE</p>", "conditions": [18, 1200, "v", 18000], "internal_node_id": "0.0-43.0", "trial": 1, "time_elapsed": 250706, "serialpos": 6, "key_press": -1, "wordID": 560, "type": "PRES_VIS", "trial_index": 61}, "uniqueid": "MTK2953:358010RM5F0S6VS3F7C0Q2X6DX2XV1", "dateTime": 1519595201402}, {"current_trial": 62, "trialdata": {"rt": -1, "trial_type": "single-stim", "word": "snake", "stimulus": "<p id=\"stim\">SNAKE</p>", "conditions": [18, 1200, "v", 18000], "internal_node_id": "0.0-44.0", "trial": 1, "time_elapsed": 252952, "serialpos": 7, "key_press": -1, "wordID": 1332, "type": "PRES_VIS", "trial_index": 62}, "uniqueid": "MTK2953:358010RM5F0S6VS3F7C0Q2X6DX2XV1", "dateTime": 1519595203647}, {"current_trial": 63, "trialdata": {"rt": -1, "trial_type": "single-stim", "word": "crutch", "stimulus": "<p id=\"stim\">CRUTCH</p>", "conditions": [18, 1200, "v", 18000], "internal_node_id": "0.0-45.0", "trial": 1, "time_elapsed": 254966, "serialpos": 8, "key_press": -1, "wordID": 416, "type": "PRES_VIS", "trial_index": 63}, "uniqueid": "MTK2953:358010RM5F0S6VS3F7C0Q2X6DX2XV1", "dateTime": 1519595205661}, {"current_trial": 64, "trialdata": {"rt": -1, "trial_type": "single-stim", "word": "crater", "stimulus": "<p id=\"stim\">CRATER</p>", "conditions": [18, 1200, "v", 18000], "internal_node_id": "0.0-46.0", "trial": 1, "time_elapsed": 257266, "serialpos": 9, "key_press": -1, "wordID": 399, "type": "PRES_VIS", "trial_index": 64}, "uniqueid": "MTK2953:358010RM5F0S6VS3F7C0Q2X6DX2XV1", "dateTime": 1519595207961}, {"current_trial": 65, "trialdata": {"rt": -1, "trial_type": "single-stim", "word": "grape", "stimulus": "<p id=\"stim\">GRAPE</p>", "conditions": [18, 1200, "v", 18000], "internal_node_id": "0.0-47.0", "trial": 1, "time_elapsed": 259451, "serialpos": 10, "key_press": -1, "wordID": 653, "type": "PRES_VIS", "trial_index": 65}, "uniqueid": "MTK2953:358010RM5F0S6VS3F7C0Q2X6DX2XV1", "dateTime": 1519595210146}, {"current_trial": 66, "trialdata": {"rt": -1, "trial_type": "single-stim", "word": "coffee", "stimulus": "<p id=\"stim\">COFFEE</p>", "conditions": [18, 1200, "v", 18000], "internal_node_id": "0.0-48.0", "trial": 1, "time_elapsed": 261850, "serialpos": 11, "key_press": -1, "wordID": 340, "type": "PRES_VIS", "trial_index": 66}, "uniqueid": "MTK2953:358010RM5F0S6VS3F7C0Q2X6DX2XV1", "dateTime": 1519595212545}, {"current_trial": 67, "trialdata": {"rt": -1, "trial_type": "single-stim", "word": "sunset", "stimulus": "<p id=\"stim\">SUNSET</p>", "conditions": [18, 1200, "v", 18000], "internal_node_id": "0.0-49.0", "trial": 1, "time_elapsed": 264193, "serialpos": 12, "key_press": -1, "wordID": 1407, "type": "PRES_VIS", "trial_index": 67}, "uniqueid": "MTK2953:358010RM5F0S6VS3F7C0Q2X6DX2XV1", "dateTime": 1519595214888}, {"current_trial": 68, "trialdata": {"rt": -1, "trial_type": "single-stim", "word": "marrow", "stimulus": "<p id=\"stim\">MARROW</p>", "conditions": [18, 1200, "v", 18000], "internal_node_id": "0.0-50.0", "trial": 1, "time_elapsed": 266478, "serialpos": 13, "key_press": -1, "wordID": 871, "type": "PRES_VIS", "trial_index": 68}, "uniqueid": "MTK2953:358010RM5F0S6VS3F7C0Q2X6DX2XV1", "dateTime": 1519595217177}, {"current_trial": 69, "trialdata": {"rt": -1, "trial_type": "single-stim", "word": "author", "stimulus": "<p id=\"stim\">AUTHOR</p>", "conditions": [18, 1200, "v", 18000], "internal_node_id": "0.0-51.0", "trial": 1, "time_elapsed": 268642, "serialpos": 14, "key_press": -1, "wordID": 60, "type": "PRES_VIS", "trial_index": 69}, "uniqueid": "MTK2953:358010RM5F0S6VS3F7C0Q2X6DX2XV1", "dateTime": 1519595219338}, {"current_trial": 70, "trialdata": {"rt": -1, "trial_type": "single-stim", "word": "carriage", "stimulus": "<p id=\"stim\">CARRIAGE</p>", "conditions": [18, 1200, "v", 18000], "internal_node_id": "0.0-52.0", "trial": 1, "time_elapsed": 270719, "serialpos": 15, "key_press": -1, "wordID": 247, "type": "PRES_VIS", "trial_index": 70}, "uniqueid": "MTK2953:358010RM5F0S6VS3F7C0Q2X6DX2XV1", "dateTime": 1519595221414}, {"current_trial": 71, "trialdata": {"rt": -1, "trial_type": "single-stim", "word": "hound", "stimulus": "<p id=\"stim\">HOUND</p>", "conditions": [18, 1200, "v", 18000], "internal_node_id": "0.0-53.0", "trial": 1, "time_elapsed": 272821, "serialpos": 16, "key_press": -1, "wordID": 723, "type": "PRES_VIS", "trial_index": 71}, "uniqueid": "MTK2953:358010RM5F0S6VS3F7C0Q2X6DX2XV1", "dateTime": 1519595223516}, {"current_trial": 72, "trialdata": {"rt": -1, "trial_type": "single-stim", "word": "mammal", "stimulus": "<p id=\"stim\">MAMMAL</p>", "conditions": [18, 1200, "v", 18000], "internal_node_id": "0.0-54.0", "trial": 1, "time_elapsed": 274869, "serialpos": 17, "key_press": -1, "wordID": 860, "type": "PRES_VIS", "trial_index": 72}, "uniqueid": "MTK2953:358010RM5F0S6VS3F7C0Q2X6DX2XV1", "dateTime": 1519595225564}, {"current_trial": 73, "trialdata": {"rt": -1, "trial_type": "single-stim", "stimulus": "", "internal_node_id": "0.0-55.0-0.0", "time_elapsed": 277178, "key_press": -1, "type": "PRE_RECALL_DELAY", "trial_index": 73}, "uniqueid": "MTK2953:358010RM5F0S6VS3F7C0Q2X6DX2XV1", "dateTime": 1519595227873}, {"current_trial": 74, "trialdata": {"rt": -1000, "trial_type": "single-audio", "stimulus": "/static/audio/400Hz.wav", "internal_node_id": "0.0-56.0", "time_elapsed": 277680, "key_press": -1, "type": "PRE_RECALL_ALERT", "trial_index": 74}, "uniqueid": "MTK2953:358010RM5F0S6VS3F7C0Q2X6DX2XV1", "dateTime": 1519595228375}, {"current_trial": 75, "trialdata": {"rt": [2179, 3584, 6152, 9138, 11706], "recwords": ["mammal", "coffee", "cafe", "paddle", "spool"], "key_times": [1068, 1428, 1545, 1679, 1852, 1975, 2179, 2474, 2580, 2715, 2880, 3191, 3411, 3584, 3812, 4821, 5692, 5887, 6152, 8300, 8423, 8592, 8747, 8882, 8975, 9138, 10937, 11042, 11191, 11362, 11516, 11706], "trial_type": "free-recall", "conditions": [18, 1200, "v", 18000], "internal_node_id": "0.0-57.0-0.0", "key_presses": [77, 65, 77, 77, 65, 76, 13, 67, 79, 70, 70, 69, 69, 13, 67, 65, 70, 69, 13, 80, 65, 68, 68, 76, 69, 13, 83, 80, 79, 79, 76, 13], "trial": 1, "time_elapsed": 337684, "type": "FREE_RECALL", "trial_index": 75}, "uniqueid": "MTK2953:358010RM5F0S6VS3F7C0Q2X6DX2XV1", "dateTime": 1519595288382}, {"current_trial": 76, "trialdata": {"rt": 12655, "trial_type": "text", "internal_node_id": "0.0-58.0", "time_elapsed": 352344, "key_press": 13, "type": "INSTRUCTIONS", "trial_index": 76}, "uniqueid": "MTK2953:358010RM5F0S6VS3F7C0Q2X6DX2XV1", "dateTime": 1519595303039}, {"current_trial": 77, "trialdata": {"rt": [4744, 6597, 9121, 11026], "trial_type": "math-distractor", "key_times": [3200, 3386, 3654, 4486, 4744, 6022, 6450, 6597, 8512, 8847, 9121, 10852, 11026], "responses": ["13", "17", "16", "8"], "num2": [3, 9, 3, 4, 4], "num3": [4, 7, 7, 3, 2], "conditions": [24, 800, "v", 12000], "internal_node_id": "0.0-59.0", "key_presses": [49, 51, 220, 8, 13, 49, 55, 13, 49, 54, 13, 56, 13], "trial": 2, "time_elapsed": 365348, "type": "DISTRACTOR", "trial_index": 77, "num1": [6, 1, 6, 1, 2]}, "uniqueid": "MTK2953:358010RM5F0S6VS3F7C0Q2X6DX2XV1", "dateTime": 1519595316044}, {"current_trial": 78, "trialdata": {"rt": -1, "trial_type": "single-stim", "stimulus": "<p id=\"stim\">10</p>", "internal_node_id": "0.0-60.0-0.0", "time_elapsed": 368352, "key_press": -1, "trial_index": 78}, "uniqueid": "MTK2953:358010RM5F0S6VS3F7C0Q2X6DX2XV1", "dateTime": 1519595319047}, {"current_trial": 79, "trialdata": {"rt": -1, "trial_type": "single-stim", "stimulus": "<p id=\"stim\">9</p>", "internal_node_id": "0.0-60.0-1.0", "time_elapsed": 369354, "key_press": -1, "trial_index": 79}, "uniqueid": "MTK2953:358010RM5F0S6VS3F7C0Q2X6DX2XV1", "dateTime": 1519595320049}, {"current_trial": 80, "trialdata": {"rt": -1, "trial_type": "single-stim", "stimulus": "<p id=\"stim\">8</p>", "internal_node_id": "0.0-60.0-2.0", "time_elapsed": 370355, "key_press": -1, "trial_index": 80}, "uniqueid": "MTK2953:358010RM5F0S6VS3F7C0Q2X6DX2XV1", "dateTime": 1519595321050}, {"current_trial": 81, "trialdata": {"rt": -1, "trial_type": "single-stim", "stimulus": "<p id=\"stim\">7</p>", "internal_node_id": "0.0-60.0-3.0", "time_elapsed": 371357, "key_press": -1, "trial_index": 81}, "uniqueid": "MTK2953:358010RM5F0S6VS3F7C0Q2X6DX2XV1", "dateTime": 1519595322053}, {"current_trial": 82, "trialdata": {"rt": -1, "trial_type": "single-stim", "stimulus": "<p id=\"stim\">6</p>", "internal_node_id": "0.0-60.0-4.0", "time_elapsed": 372360, "key_press": -1, "trial_index": 82}, "uniqueid": "MTK2953:358010RM5F0S6VS3F7C0Q2X6DX2XV1", "dateTime": 1519595323055}, {"current_trial": 83, "trialdata": {"rt": -1, "trial_type": "single-stim", "stimulus": "<p id=\"stim\">5</p>", "internal_node_id": "0.0-60.0-5.0", "time_elapsed": 373363, "key_press": -1, "trial_index": 83}, "uniqueid": "MTK2953:358010RM5F0S6VS3F7C0Q2X6DX2XV1", "dateTime": 1519595324058}, {"current_trial": 84, "trialdata": {"rt": -1, "trial_type": "single-stim", "stimulus": "<p id=\"stim\">4</p>", "internal_node_id": "0.0-60.0-6.0", "time_elapsed": 374366, "key_press": -1, "trial_index": 84}, "uniqueid": "MTK2953:358010RM5F0S6VS3F7C0Q2X6DX2XV1", "dateTime": 1519595325061}, {"current_trial": 85, "trialdata": {"rt": -1, "trial_type": "single-stim", "stimulus": "<p id=\"stim\">3</p>", "internal_node_id": "0.0-60.0-7.0", "time_elapsed": 375367, "key_press": -1, "trial_index": 85}, "uniqueid": "MTK2953:358010RM5F0S6VS3F7C0Q2X6DX2XV1", "dateTime": 1519595326062}, {"current_trial": 86, "trialdata": {"rt": -1, "trial_type": "single-stim", "stimulus": "<p id=\"stim\">2</p>", "internal_node_id": "0.0-60.0-8.0", "time_elapsed": 376369, "key_press": -1, "trial_index": 86}, "uniqueid": "MTK2953:358010RM5F0S6VS3F7C0Q2X6DX2XV1", "dateTime": 1519595327064}, {"current_trial": 87, "trialdata": {"rt": -1, "trial_type": "single-stim", "stimulus": "<p id=\"stim\">1</p>", "internal_node_id": "0.0-60.0-9.0", "time_elapsed": 377372, "key_press": -1, "trial_index": 87}, "uniqueid": "MTK2953:358010RM5F0S6VS3F7C0Q2X6DX2XV1", "dateTime": 1519595328067}, {"current_trial": 88, "trialdata": {"rt": -1, "trial_type": "single-stim", "stimulus": "<p id=\"stim\">+</p>", "internal_node_id": "0.0-61.0-0.0", "time_elapsed": 378874, "key_press": -1, "type": "FIXATION", "trial_index": 88}, "uniqueid": "MTK2953:358010RM5F0S6VS3F7C0Q2X6DX2XV1", "dateTime": 1519595329569}, {"current_trial": 89, "trialdata": {"rt": -1, "trial_type": "single-stim", "word": "turtle", "stimulus": "<p id=\"stim\">TURTLE</p>", "conditions": [24, 800, "v", 12000], "internal_node_id": "0.0-62.0", "trial": 2, "time_elapsed": 379675, "serialpos": 0, "key_press": -1, "wordID": 1521, "type": "PRES_VIS", "trial_index": 89}, "uniqueid": "MTK2953:358010RM5F0S6VS3F7C0Q2X6DX2XV1", "dateTime": 1519595330371}, {"current_trial": 90, "trialdata": {"rt": -1, "trial_type": "single-stim", "word": "spouse", "stimulus": "<p id=\"stim\">SPOUSE</p>", "conditions": [24, 800, "v", 12000], "internal_node_id": "0.0-63.0", "trial": 2, "time_elapsed": 381493, "serialpos": 1, "key_press": -1, "wordID": 1357, "type": "PRES_VIS", "trial_index": 90}, "uniqueid": "MTK2953:358010RM5F0S6VS3F7C0Q2X6DX2XV1", "dateTime": 1519595332190}, {"current_trial": 91, "trialdata": {"rt": -1, "trial_type": "single-stim", "word": "scarf", "stimulus": "<p id=\"stim\">SCARF</p>", "conditions": [24, 800, "v", 12000], "internal_node_id": "0.0-64.0", "trial": 2, "time_elapsed": 383160, "serialpos": 2, "key_press": -1, "wordID": 1245, "type": "PRES_VIS", "trial_index": 91}, "uniqueid": "MTK2953:358010RM5F0S6VS3F7C0Q2X6DX2XV1", "dateTime": 1519595333855}, {"current_trial": 92, "trialdata": {"rt": -1, "trial_type": "single-stim", "word": "bunny", "stimulus": "<p id=\"stim\">BUNNY</p>", "conditions": [24, 800, "v", 12000], "internal_node_id": "0.0-65.0", "trial": 2, "time_elapsed": 384887, "serialpos": 3, "key_press": -1, "wordID": 197, "type": "PRES_VIS", "trial_index": 92}, "uniqueid": "MTK2953:358010RM5F0S6VS3F7C0Q2X6DX2XV1", "dateTime": 1519595335582}, {"current_trial": 93, "trialdata": {"rt": -1, "trial_type": "single-stim", "word": "ground", "stimulus": "<p id=\"stim\">GROUND</p>", "conditions": [24, 800, "v", 12000], "internal_node_id": "0.0-66.0", "trial": 2, "time_elapsed": 386563, "serialpos": 4, "key_press": -1, "wordID": 665, "type": "PRES_VIS", "trial_index": 93}, "uniqueid": "MTK2953:358010RM5F0S6VS3F7C0Q2X6DX2XV1", "dateTime": 1519595337258}, {"current_trial": 94, "trialdata": {"rt": -1, "trial_type": "single-stim", "word": "razor", "stimulus": "<p id=\"stim\">RAZOR</p>", "conditions": [24, 800, "v", 12000], "internal_node_id": "0.0-67.0", "trial": 2, "time_elapsed": 388463, "serialpos": 5, "key_press": -1, "wordID": 1170, "type": "PRES_VIS", "trial_index": 94}, "uniqueid": "MTK2953:358010RM5F0S6VS3F7C0Q2X6DX2XV1", "dateTime": 1519595339158}, {"current_trial": 95, "trialdata": {"rt": -1, "trial_type": "single-stim", "word": "knife", "stimulus": "<p id=\"stim\">KNIFE</p>", "conditions": [24, 800, "v", 12000], "internal_node_id": "0.0-68.0", "trial": 2, "time_elapsed": 390351, "serialpos": 6, "key_press": -1, "wordID": 784, "type": "PRES_VIS", "trial_index": 95}, "uniqueid": "MTK2953:358010RM5F0S6VS3F7C0Q2X6DX2XV1", "dateTime": 1519595341046}, {"current_trial": 96, "trialdata": {"rt": -1, "trial_type": "single-stim", "word": "stream", "stimulus": "<p id=\"stim\">STREAM</p>", "conditions": [24, 800, "v", 12000], "internal_node_id": "0.0-69.0", "trial": 2, "time_elapsed": 392084, "serialpos": 7, "key_press": -1, "wordID": 1391, "type": "PRES_VIS", "trial_index": 96}, "uniqueid": "MTK2953:358010RM5F0S6VS3F7C0Q2X6DX2XV1", "dateTime": 1519595342779}, {"current_trial": 97, "trialdata": {"rt": -1, "trial_type": "single-stim", "word": "sphinx", "stimulus": "<p id=\"stim\">SPHINX</p>", "conditions": [24, 800, "v", 12000], "internal_node_id": "0.0-70.0", "trial": 2, "time_elapsed": 393805, "serialpos": 8, "key_press": -1, "wordID": 1348, "type": "PRES_VIS", "trial_index": 97}, "uniqueid": "MTK2953:358010RM5F0S6VS3F7C0Q2X6DX2XV1", "dateTime": 1519595344500}, {"current_trial": 98, "trialdata": {"rt": -1, "trial_type": "single-stim", "word": "fox", "stimulus": "<p id=\"stim\">FOX</p>", "conditions": [24, 800, "v", 12000], "internal_node_id": "0.0-71.0", "trial": 2, "time_elapsed": 395718, "serialpos": 9, "key_press": -1, "wordID": 597, "type": "PRES_VIS", "trial_index": 98}, "uniqueid": "MTK2953:358010RM5F0S6VS3F7C0Q2X6DX2XV1", "dateTime": 1519595346413}, {"current_trial": 99, "trialdata": {"rt": -1, "trial_type": "single-stim", "word": "penguin", "stimulus": "<p id=\"stim\">PENGUIN</p>", "conditions": [24, 800, "v", 12000], "internal_node_id": "0.0-72.0", "trial": 2, "time_elapsed": 397505, "serialpos": 10, "key_press": -1, "wordID": 1043, "type": "PRES_VIS", "trial_index": 99}, "uniqueid": "MTK2953:358010RM5F0S6VS3F7C0Q2X6DX2XV1", "dateTime": 1519595348200}, {"current_trial": 100, "trialdata": {"rt": -1, "trial_type": "single-stim", "word": "chest", "stimulus": "<p id=\"stim\">CHEST</p>", "conditions": [24, 800, "v", 12000], "internal_node_id": "0.0-73.0", "trial": 2, "time_elapsed": 399395, "serialpos": 11, "key_press": -1, "wordID": 294, "type": "PRES_VIS", "trial_index": 100}, "uniqueid": "MTK2953:358010RM5F0S6VS3F7C0Q2X6DX2XV1", "dateTime": 1519595350090}, {"current_trial": 101, "trialdata": {"rt": -1, "trial_type": "single-stim", "word": "lava", "stimulus": "<p id=\"stim\">LAVA</p>", "conditions": [24, 800, "v", 12000], "internal_node_id": "0.0-74.0", "trial": 2, "time_elapsed": 401060, "serialpos": 12, "key_press": -1, "wordID": 803, "type": "PRES_VIS", "trial_index": 101}, "uniqueid": "MTK2953:358010RM5F0S6VS3F7C0Q2X6DX2XV1", "dateTime": 1519595351755}, {"current_trial": 102, "trialdata": {"rt": -1, "trial_type": "single-stim", "word": "powder", "stimulus": "<p id=\"stim\">POWDER</p>", "conditions": [24, 800, "v", 12000], "internal_node_id": "0.0-75.0", "trial": 2, "time_elapsed": 402770, "serialpos": 13, "key_press": -1, "wordID": 1116, "type": "PRES_VIS", "trial_index": 102}, "uniqueid": "MTK2953:358010RM5F0S6VS3F7C0Q2X6DX2XV1", "dateTime": 1519595353465}, {"current_trial": 103, "trialdata": {"rt": -1, "trial_type": "single-stim", "word": "racket", "stimulus": "<p id=\"stim\">RACKET</p>", "conditions": [24, 800, "v", 12000], "internal_node_id": "0.0-76.0", "trial": 2, "time_elapsed": 404636, "serialpos": 14, "key_press": -1, "wordID": 1154, "type": "PRES_VIS", "trial_index": 103}, "uniqueid": "MTK2953:358010RM5F0S6VS3F7C0Q2X6DX2XV1", "dateTime": 1519595355331}, {"current_trial": 104, "trialdata": {"rt": -1, "trial_type": "single-stim", "word": "survey", "stimulus": "<p id=\"stim\">SURVEY</p>", "conditions": [24, 800, "v", 12000], "internal_node_id": "0.0-77.0", "trial": 2, "time_elapsed": 406355, "serialpos": 15, "key_press": -1, "wordID": 1413, "type": "PRES_VIS", "trial_index": 104}, "uniqueid": "MTK2953:358010RM5F0S6VS3F7C0Q2X6DX2XV1", "dateTime": 1519595357050}, {"current_trial": 105, "trialdata": {"rt": -1, "trial_type": "single-stim", "word": "body", "stimulus": "<p id=\"stim\">BODY</p>", "conditions": [24, 800, "v", 12000], "internal_node_id": "0.0-78.0", "trial": 2, "time_elapsed": 407990, "serialpos": 16, "key_press": -1, "wordID": 144, "type": "PRES_VIS", "trial_index": 105}, "uniqueid": "MTK2953:358010RM5F0S6VS3F7C0Q2X6DX2XV1", "dateTime": 1519595358685}, {"current_trial": 106, "trialdata": {"rt": -1, "trial_type": "single-stim", "word": "lady", "stimulus": "<p id=\"stim\">LADY</p>", "conditions": [24, 800, "v", 12000], "internal_node_id": "0.0-79.0", "trial": 2, "time_elapsed": 409750, "serialpos": 17, "key_press": -1, "wordID": 793, "type": "PRES_VIS", "trial_index": 106}, "uniqueid": "MTK2953:358010RM5F0S6VS3F7C0Q2X6DX2XV1", "dateTime": 1519595360445}, {"current_trial": 107, "trialdata": {"rt": -1, "trial_type": "single-stim", "word": "queen", "stimulus": "<p id=\"stim\">QUEEN</p>", "conditions": [24, 800, "v", 12000], "internal_node_id": "0.0-80.0", "trial": 2, "time_elapsed": 411694, "serialpos": 18, "key_press": -1, "wordID": 1148, "type": "PRES_VIS", "trial_index": 107}, "uniqueid": "MTK2953:358010RM5F0S6VS3F7C0Q2X6DX2XV1", "dateTime": 1519595362390}, {"current_trial": 108, "trialdata": {"rt": -1, "trial_type": "single-stim", "word": "princess", "stimulus": "<p id=\"stim\">PRINCESS</p>", "conditions": [24, 800, "v", 12000], "internal_node_id": "0.0-81.0", "trial": 2, "time_elapsed": 413414, "serialpos": 19, "key_press": -1, "wordID": 1124, "type": "PRES_VIS", "trial_index": 108}, "uniqueid": "MTK2953:358010RM5F0S6VS3F7C0Q2X6DX2XV1", "dateTime": 1519595364109}, {"current_trial": 109, "trialdata": {"rt": -1, "trial_type": "single-stim", "word": "journal", "stimulus": "<p id=\"stim\">JOURNAL</p>", "conditions": [24, 800, "v", 12000], "internal_node_id": "0.0-82.0", "trial": 2, "time_elapsed": 415277, "serialpos": 20, "key_press": -1, "wordID": 759, "type": "PRES_VIS", "trial_index": 109}, "uniqueid": "MTK2953:358010RM5F0S6VS3F7C0Q2X6DX2XV1", "dateTime": 1519595365972}, {"current_trial": 110, "trialdata": {"rt": -1, "trial_type": "single-stim", "word": "report", "stimulus": "<p id=\"stim\">REPORT</p>", "conditions": [24, 800, "v", 12000], "internal_node_id": "0.0-83.0", "trial": 2, "time_elapsed": 417102, "serialpos": 21, "key_press": -1, "wordID": 1183, "type": "PRES_VIS", "trial_index": 110}, "uniqueid": "MTK2953:358010RM5F0S6VS3F7C0Q2X6DX2XV1", "dateTime": 1519595367798}, {"current_trial": 111, "trialdata": {"rt": -1, "trial_type": "single-stim", "word": "bullet", "stimulus": "<p id=\"stim\">BULLET</p>", "conditions": [24, 800, "v", 12000], "internal_node_id": "0.0-84.0", "trial": 2, "time_elapsed": 418829, "serialpos": 22, "key_press": -1, "wordID": 193, "type": "PRES_VIS", "trial_index": 111}, "uniqueid": "MTK2953:358010RM5F0S6VS3F7C0Q2X6DX2XV1", "dateTime": 1519595369524}, {"current_trial": 112, "trialdata": {"rt": -1, "trial_type": "single-stim", "word": "puppy", "stimulus": "<p id=\"stim\">PUPPY</p>", "conditions": [24, 800, "v", 12000], "internal_node_id": "0.0-85.0", "trial": 2, "time_elapsed": 420695, "serialpos": 23, "key_press": -1, "wordID": 1143, "type": "PRES_VIS", "trial_index": 112}, "uniqueid": "MTK2953:358010RM5F0S6VS3F7C0Q2X6DX2XV1", "dateTime": 1519595371390}, {"current_trial": 113, "trialdata": {"rt": -1, "trial_type": "single-stim", "stimulus": "", "internal_node_id": "0.0-86.0-0.0", "time_elapsed": 423026, "key_press": -1, "type": "PRE_RECALL_DELAY", "trial_index": 113}, "uniqueid": "MTK2953:358010RM5F0S6VS3F7C0Q2X6DX2XV1", "dateTime": 1519595373721}, {"current_trial": 114, "trialdata": {"rt": -1000, "trial_type": "single-audio", "stimulus": "/static/audio/400Hz.wav", "internal_node_id": "0.0-87.0", "time_elapsed": 423535, "key_press": -1, "type": "PRE_RECALL_ALERT", "trial_index": 114}, "uniqueid": "MTK2953:358010RM5F0S6VS3F7C0Q2X6DX2XV1", "dateTime": 1519595374230}, {"current_trial": 115, "trialdata": {"rt": [2818, 4386, 6753, 9076], "recwords": ["puppy", "spouse", "knife", "wife"], "key_times": [1208, 1505, 1676, 1823, 2573, 2818, 3436, 3523, 3700, 3915, 4011, 4191, 4386, 5948, 6137, 6308, 6451, 6644, 6753, 8635, 8720, 8833, 8978, 9076], "trial_type": "free-recall", "conditions": [24, 800, "v", 12000], "internal_node_id": "0.0-88.0-0.0", "key_presses": [80, 85, 80, 80, 89, 13, 83, 80, 79, 85, 83, 69, 13, 75, 78, 73, 70, 69, 13, 87, 73, 70, 69, 13], "trial": 2, "time_elapsed": 483540, "type": "FREE_RECALL", "trial_index": 115}, "uniqueid": "MTK2953:358010RM5F0S6VS3F7C0Q2X6DX2XV1", "dateTime": 1519595434238}, {"current_trial": 116, "trialdata": {"rt": 8646, "trial_type": "text", "internal_node_id": "0.0-89.0", "time_elapsed": 494192, "key_press": 13, "type": "INSTRUCTIONS", "trial_index": 116}, "uniqueid": "MTK2953:358010RM5F0S6VS3F7C0Q2X6DX2XV1", "dateTime": 1519595444887}, {"current_trial": 117, "trialdata": {"rt": [2457, 5320, 8122, 9712, 12010, 13555, 15219, 16821, 20024, 22296], "trial_type": "math-distractor", "key_times": [1990, 2307, 2457, 4947, 5226, 5320, 7730, 7998, 8122, 9611, 9712, 11429, 11920, 12010, 13244, 13439, 13555, 14848, 15096, 15219, 16706, 16821, 19671, 19926, 20024, 21845, 22194, 22296, 23932], "responses": ["12", "16", "17", "7", "16", "11", "18", "9", "17", "19"], "num2": [8, 7, 6, 4, 4, 3, 2, 1, 1, 9, 2], "num3": [1, 4, 8, 1, 9, 2, 7, 2, 9, 6, 4], "conditions": [12, 1600, "v", 24000], "internal_node_id": "0.0-90.0", "key_presses": [49, 50, 13, 49, 54, 13, 49, 55, 13, 55, 13, 49, 54, 13, 49, 49, 13, 49, 56, 13, 57, 13, 49, 55, 13, 49, 57, 13, 49], "trial": 3, "time_elapsed": 520198, "type": "DISTRACTOR", "trial_index": 117, "num1": [3, 5, 3, 2, 3, 6, 9, 6, 7, 3, 9]}, "uniqueid": "MTK2953:358010RM5F0S6VS3F7C0Q2X6DX2XV1", "dateTime": 1519595470894}, {"current_trial": 118, "trialdata": {"rt": -1, "trial_type": "single-stim", "stimulus": "<p id=\"stim\">10</p>", "internal_node_id": "0.0-91.0-0.0", "time_elapsed": 523202, "key_press": -1, "trial_index": 118}, "uniqueid": "MTK2953:358010RM5F0S6VS3F7C0Q2X6DX2XV1", "dateTime": 1519595473898}, {"current_trial": 119, "trialdata": {"rt": -1, "trial_type": "single-stim", "stimulus": "<p id=\"stim\">9</p>", "internal_node_id": "0.0-91.0-1.0", "time_elapsed": 524205, "key_press": -1, "trial_index": 119}, "uniqueid": "MTK2953:358010RM5F0S6VS3F7C0Q2X6DX2XV1", "dateTime": 1519595474900}, {"current_trial": 120, "trialdata": {"rt": -1, "trial_type": "single-stim", "stimulus": "<p id=\"stim\">8</p>", "internal_node_id": "0.0-91.0-2.0", "time_elapsed": 525207, "key_press": -1, "trial_index": 120}, "uniqueid": "MTK2953:358010RM5F0S6VS3F7C0Q2X6DX2XV1", "dateTime": 1519595475902}, {"current_trial": 121, "trialdata": {"rt": -1, "trial_type": "single-stim", "stimulus": "<p id=\"stim\">7</p>", "internal_node_id": "0.0-91.0-3.0", "time_elapsed": 526211, "key_press": -1, "trial_index": 121}, "uniqueid": "MTK2953:358010RM5F0S6VS3F7C0Q2X6DX2XV1", "dateTime": 1519595476906}, {"current_trial": 122, "trialdata": {"rt": -1, "trial_type": "single-stim", "stimulus": "<p id=\"stim\">6</p>", "internal_node_id": "0.0-91.0-4.0", "time_elapsed": 527212, "key_press": -1, "trial_index": 122}, "uniqueid": "MTK2953:358010RM5F0S6VS3F7C0Q2X6DX2XV1", "dateTime": 1519595477907}, {"current_trial": 123, "trialdata": {"rt": -1, "trial_type": "single-stim", "stimulus": "<p id=\"stim\">5</p>", "internal_node_id": "0.0-91.0-5.0", "time_elapsed": 528213, "key_press": -1, "trial_index": 123}, "uniqueid": "MTK2953:358010RM5F0S6VS3F7C0Q2X6DX2XV1", "dateTime": 1519595478908}, {"current_trial": 124, "trialdata": {"rt": -1, "trial_type": "single-stim", "stimulus": "<p id=\"stim\">4</p>", "internal_node_id": "0.0-91.0-6.0", "time_elapsed": 529215, "key_press": -1, "trial_index": 124}, "uniqueid": "MTK2953:358010RM5F0S6VS3F7C0Q2X6DX2XV1", "dateTime": 1519595479911}, {"current_trial": 125, "trialdata": {"rt": -1, "trial_type": "single-stim", "stimulus": "<p id=\"stim\">3</p>", "internal_node_id": "0.0-91.0-7.0", "time_elapsed": 530217, "key_press": -1, "trial_index": 125}, "uniqueid": "MTK2953:358010RM5F0S6VS3F7C0Q2X6DX2XV1", "dateTime": 1519595480912}, {"current_trial": 126, "trialdata": {"rt": -1, "trial_type": "single-stim", "stimulus": "<p id=\"stim\">2</p>", "internal_node_id": "0.0-91.0-8.0", "time_elapsed": 531220, "key_press": -1, "trial_index": 126}, "uniqueid": "MTK2953:358010RM5F0S6VS3F7C0Q2X6DX2XV1", "dateTime": 1519595481915}, {"current_trial": 127, "trialdata": {"rt": -1, "trial_type": "single-stim", "stimulus": "<p id=\"stim\">1</p>", "internal_node_id": "0.0-91.0-9.0", "time_elapsed": 532222, "key_press": -1, "trial_index": 127}, "uniqueid": "MTK2953:358010RM5F0S6VS3F7C0Q2X6DX2XV1", "dateTime": 1519595482917}, {"current_trial": 128, "trialdata": {"rt": -1, "trial_type": "single-stim", "stimulus": "<p id=\"stim\">+</p>", "internal_node_id": "0.0-92.0-0.0", "time_elapsed": 533724, "key_press": -1, "type": "FIXATION", "trial_index": 128}, "uniqueid": "MTK2953:358010RM5F0S6VS3F7C0Q2X6DX2XV1", "dateTime": 1519595484420}, {"current_trial": 129, "trialdata": {"rt": -1, "trial_type": "single-stim", "word": "trombone", "stimulus": "<p id=\"stim\">TROMBONE</p>", "conditions": [12, 1600, "v", 24000], "internal_node_id": "0.0-93.0", "trial": 3, "time_elapsed": 535326, "serialpos": 0, "key_press": -1, "wordID": 1507, "type": "PRES_VIS", "trial_index": 129}, "uniqueid": "MTK2953:358010RM5F0S6VS3F7C0Q2X6DX2XV1", "dateTime": 1519595486022}, {"current_trial": 130, "trialdata": {"rt": -1, "trial_type": "single-stim", "word": "contract", "stimulus": "<p id=\"stim\">CONTRACT</p>", "conditions": [12, 1600, "v", 24000], "internal_node_id": "0.0-94.0", "trial": 3, "time_elapsed": 538031, "serialpos": 1, "key_press": -1, "wordID": 367, "type": "PRES_VIS", "trial_index": 130}, "uniqueid": "MTK2953:358010RM5F0S6VS3F7C0Q2X6DX2XV1", "dateTime": 1519595488726}, {"current_trial": 131, "trialdata": {"rt": -1, "trial_type": "single-stim", "word": "permit", "stimulus": "<p id=\"stim\">PERMIT</p>", "conditions": [12, 1600, "v", 24000], "internal_node_id": "0.0-95.0", "trial": 3, "time_elapsed": 540657, "serialpos": 2, "key_press": -1, "wordID": 1050, "type": "PRES_VIS", "trial_index": 131}, "uniqueid": "MTK2953:358010RM5F0S6VS3F7C0Q2X6DX2XV1", "dateTime": 1519595491352}, {"current_trial": 132, "trialdata": {"rt": -1, "trial_type": "single-stim", "word": "helmet", "stimulus": "<p id=\"stim\">HELMET</p>", "conditions": [12, 1600, "v", 24000], "internal_node_id": "0.0-96.0", "trial": 3, "time_elapsed": 543170, "serialpos": 3, "key_press": -1, "wordID": 701, "type": "PRES_VIS", "trial_index": 132}, "uniqueid": "MTK2953:358010RM5F0S6VS3F7C0Q2X6DX2XV1", "dateTime": 1519595493865}, {"current_trial": 133, "trialdata": {"rt": -1, "trial_type": "single-stim", "word": "wardrobe", "stimulus": "<p id=\"stim\">WARDROBE</p>", "conditions": [12, 1600, "v", 24000], "internal_node_id": "0.0-97.0", "trial": 3, "time_elapsed": 545952, "serialpos": 4, "key_press": -1, "wordID": 1586, "type": "PRES_VIS", "trial_index": 133}, "uniqueid": "MTK2953:358010RM5F0S6VS3F7C0Q2X6DX2XV1", "dateTime": 1519595496648}, {"current_trial": 134, "trialdata": {"rt": -1, "trial_type": "single-stim", "word": "clothes", "stimulus": "<p id=\"stim\">CLOTHES</p>", "conditions": [12, 1600, "v", 24000], "internal_node_id": "0.0-98.0", "trial": 3, "time_elapsed": 548369, "serialpos": 5, "key_press": -1, "wordID": 326, "type": "PRES_VIS", "trial_index": 134}, "uniqueid": "MTK2953:358010RM5F0S6VS3F7C0Q2X6DX2XV1", "dateTime": 1519595499065}, {"current_trial": 135, "trialdata": {"rt": -1, "trial_type": "single-stim", "word": "motor", "stimulus": "<p id=\"stim\">MOTOR</p>", "conditions": [12, 1600, "v", 24000], "internal_node_id": "0.0-99.0", "trial": 3, "time_elapsed": 551168, "serialpos": 6, "key_press": -1, "wordID": 921, "type": "PRES_VIS", "trial_index": 135}, "uniqueid": "MTK2953:358010RM5F0S6VS3F7C0Q2X6DX2XV1", "dateTime": 1519595501863}, {"current_trial": 136, "trialdata": {"rt": -1, "trial_type": "single-stim", "word": "wasp", "stimulus": "<p id=\"stim\">WASP</p>", "conditions": [12, 1600, "v", 24000], "internal_node_id": "0.0-100.0", "trial": 3, "time_elapsed": 553877, "serialpos": 7, "key_press": -1, "wordID": 1592, "type": "PRES_VIS", "trial_index": 136}, "uniqueid": "MTK2953:358010RM5F0S6VS3F7C0Q2X6DX2XV1", "dateTime": 1519595504572}, {"current_trial": 137, "trialdata": {"rt": -1, "trial_type": "single-stim", "word": "staple", "stimulus": "<p id=\"stim\">STAPLE</p>", "conditions": [12, 1600, "v", 24000], "internal_node_id": "0.0-101.0", "trial": 3, "time_elapsed": 556603, "serialpos": 8, "key_press": -1, "wordID": 1370, "type": "PRES_VIS", "trial_index": 137}, "uniqueid": "MTK2953:358010RM5F0S6VS3F7C0Q2X6DX2XV1", "dateTime": 1519595507298}, {"current_trial": 138, "trialdata": {"rt": -1, "trial_type": "single-stim", "word": "guard", "stimulus": "<p id=\"stim\">GUARD</p>", "conditions": [12, 1600, "v", 24000], "internal_node_id": "0.0-102.0", "trial": 3, "time_elapsed": 559317, "serialpos": 9, "key_press": -1, "wordID": 666, "type": "PRES_VIS", "trial_index": 138}, "uniqueid": "MTK2953:358010RM5F0S6VS3F7C0Q2X6DX2XV1", "dateTime": 1519595510012}, {"current_trial": 139, "trialdata": {"rt": -1, "trial_type": "single-stim", "word": "banjo", "stimulus": "<p id=\"stim\">BANJO</p>", "conditions": [12, 1600, "v", 24000], "internal_node_id": "0.0-103.0", "trial": 3, "time_elapsed": 561760, "serialpos": 10, "key_press": -1, "wordID": 81, "type": "PRES_VIS", "trial_index": 139}, "uniqueid": "MTK2953:358010RM5F0S6VS3F7C0Q2X6DX2XV1", "dateTime": 1519595512455}, {"current_trial": 140, "trialdata": {"rt": -1, "trial_type": "single-stim", "word": "pistol", "stimulus": "<p id=\"stim\">PISTOL</p>", "conditions": [12, 1600, "v", 24000], "internal_node_id": "0.0-104.0", "trial": 3, "time_elapsed": 564550, "serialpos": 11, "key_press": -1, "wordID": 1074, "type": "PRES_VIS", "trial_index": 140}, "uniqueid": "MTK2953:358010RM5F0S6VS3F7C0Q2X6DX2XV1", "dateTime": 1519595515245}, {"current_trial": 141, "trialdata": {"rt": -1, "trial_type": "single-stim", "stimulus": "", "internal_node_id": "0.0-105.0-0.0", "time_elapsed": 567125, "key_press": -1, "type": "PRE_RECALL_DELAY", "trial_index": 141}, "uniqueid": "MTK2953:358010RM5F0S6VS3F7C0Q2X6DX2XV1", "dateTime": 1519595517820}, {"current_trial": 142, "trialdata": {"rt": -1000, "trial_type": "single-audio", "stimulus": "/static/audio/400Hz.wav", "internal_node_id": "0.0-106.0", "time_elapsed": 567627, "key_press": -1, "type": "PRE_RECALL_ALERT", "trial_index": 142}, "uniqueid": "MTK2953:358010RM5F0S6VS3F7C0Q2X6DX2XV1", "dateTime": 1519595518322}, {"current_trial": 143, "trialdata": {"rt": [6649, 9153, 12797, 14357, 16816, 19479], "recwords": ["permit", "helmet", "wardrobe", "clothes", "motor", "wasp"], "key_times": [6030, 6096, 6232, 6304, 6394, 6499, 6649, 8342, 8453, 8603, 8799, 8857, 9037, 9153, 11121, 11244, 11417, 11637, 11827, 12336, 12539, 12662, 12797, 13489, 13548, 13672, 13777, 13875, 13978, 14150, 14357, 16355, 16446, 16510, 16616, 16715, 16816, 18888, 18997, 19143, 19304, 19479], "trial_type": "free-recall", "conditions": [12, 1600, "v", 24000], "internal_node_id": "0.0-107.0-0.0", "key_presses": [80, 69, 82, 77, 73, 84, 13, 72, 69, 76, 77, 69, 84, 13, 87, 65, 82, 68, 82, 79, 66, 69, 13, 67, 76, 79, 84, 72, 69, 83, 13, 77, 79, 84, 79, 82, 13, 87, 65, 83, 80, 13], "trial": 3, "time_elapsed": 627633, "type": "FREE_RECALL", "trial_index": 143}, "uniqueid": "MTK2953:358010RM5F0S6VS3F7C0Q2X6DX2XV1", "dateTime": 1519595578332}, {"current_trial": 144, "trialdata": {"rt": 1044, "trial_type": "text", "internal_node_id": "0.0-108.0", "time_elapsed": 630683, "key_press": 13, "type": "INSTRUCTIONS", "trial_index": 144}, "uniqueid": "MTK2953:358010RM5F0S6VS3F7C0Q2X6DX2XV1", "dateTime": 1519595581378}, {"current_trial": 145, "trialdata": {"rt": [3051, 6037, 8700, 10570, 13055, 14489, 17624, 20140], "trial_type": "math-distractor", "key_times": [2191, 2451, 3051, 5601, 5942, 6037, 7621, 8588, 8700, 10440, 10570, 12833, 12919, 13055, 14292, 14378, 14489, 16333, 16579, 17624, 19597, 19980, 20140], "responses": ["15", "15", "15", "9", "12", "12", "14", "19"], "num2": [7, 2, 4, 3, 9, 2, 4, 8, 6], "num3": [2, 7, 2, 2, 1, 5, 1, 2, 9], "conditions": [12, 800, "v", 24000], "internal_node_id": "0.0-109.0", "key_presses": [49, 53, 13, 49, 53, 13, 49, 53, 13, 57, 13, 49, 50, 13, 49, 50, 13, 49, 52, 13, 49, 57, 13], "trial": 4, "time_elapsed": 656688, "type": "DISTRACTOR", "trial_index": 145, "num1": [6, 6, 9, 4, 2, 5, 9, 9, 6]}, "uniqueid": "MTK2953:358010RM5F0S6VS3F7C0Q2X6DX2XV1", "dateTime": 1519595607383}, {"current_trial": 146, "trialdata": {"rt": -1, "trial_type": "single-stim", "stimulus": "<p id=\"stim\">10</p>", "internal_node_id": "0.0-110.0-0.0", "time_elapsed": 659691, "key_press": -1, "trial_index": 146}, "uniqueid": "MTK2953:358010RM5F0S6VS3F7C0Q2X6DX2XV1", "dateTime": 1519595610386}, {"current_trial": 147, "trialdata": {"rt": -1, "trial_type": "single-stim", "stimulus": "<p id=\"stim\">9</p>", "internal_node_id": "0.0-110.0-1.0", "time_elapsed": 660693, "key_press": -1, "trial_index": 147}, "uniqueid": "MTK2953:358010RM5F0S6VS3F7C0Q2X6DX2XV1", "dateTime": 1519595611388}, {"current_trial": 148, "trialdata": {"rt": -1, "trial_type": "single-stim", "stimulus": "<p id=\"stim\">8</p>", "internal_node_id": "0.0-110.0-2.0", "time_elapsed": 661695, "key_press": -1, "trial_index": 148}, "uniqueid": "MTK2953:358010RM5F0S6VS3F7C0Q2X6DX2XV1", "dateTime": 1519595612391}, {"current_trial": 149, "trialdata": {"rt": -1, "trial_type": "single-stim", "stimulus": "<p id=\"stim\">7</p>", "internal_node_id": "0.0-110.0-3.0", "time_elapsed": 662697, "key_press": -1, "trial_index": 149}, "uniqueid": "MTK2953:358010RM5F0S6VS3F7C0Q2X6DX2XV1", "dateTime": 1519595613392}, {"current_trial": 150, "trialdata": {"rt": -1, "trial_type": "single-stim", "stimulus": "<p id=\"stim\">6</p>", "internal_node_id": "0.0-110.0-4.0", "time_elapsed": 663699, "key_press": -1, "trial_index": 150}, "uniqueid": "MTK2953:358010RM5F0S6VS3F7C0Q2X6DX2XV1", "dateTime": 1519595614394}, {"current_trial": 151, "trialdata": {"rt": -1, "trial_type": "single-stim", "stimulus": "<p id=\"stim\">5</p>", "internal_node_id": "0.0-110.0-5.0", "time_elapsed": 664701, "key_press": -1, "trial_index": 151}, "uniqueid": "MTK2953:358010RM5F0S6VS3F7C0Q2X6DX2XV1", "dateTime": 1519595615396}, {"current_trial": 152, "trialdata": {"rt": -1, "trial_type": "single-stim", "stimulus": "<p id=\"stim\">4</p>", "internal_node_id": "0.0-110.0-6.0", "time_elapsed": 665702, "key_press": -1, "trial_index": 152}, "uniqueid": "MTK2953:358010RM5F0S6VS3F7C0Q2X6DX2XV1", "dateTime": 1519595616397}, {"current_trial": 153, "trialdata": {"rt": -1, "trial_type": "single-stim", "stimulus": "<p id=\"stim\">3</p>", "internal_node_id": "0.0-110.0-7.0", "time_elapsed": 666706, "key_press": -1, "trial_index": 153}, "uniqueid": "MTK2953:358010RM5F0S6VS3F7C0Q2X6DX2XV1", "dateTime": 1519595617401}, {"current_trial": 154, "trialdata": {"rt": -1, "trial_type": "single-stim", "stimulus": "<p id=\"stim\">2</p>", "internal_node_id": "0.0-110.0-8.0", "time_elapsed": 667708, "key_press": -1, "trial_index": 154}, "uniqueid": "MTK2953:358010RM5F0S6VS3F7C0Q2X6DX2XV1", "dateTime": 1519595618403}, {"current_trial": 155, "trialdata": {"rt": -1, "trial_type": "single-stim", "stimulus": "<p id=\"stim\">1</p>", "internal_node_id": "0.0-110.0-9.0", "time_elapsed": 668709, "key_press": -1, "trial_index": 155}, "uniqueid": "MTK2953:358010RM5F0S6VS3F7C0Q2X6DX2XV1", "dateTime": 1519595619405}, {"current_trial": 156, "trialdata": {"rt": -1, "trial_type": "single-stim", "stimulus": "<p id=\"stim\">+</p>", "internal_node_id": "0.0-111.0-0.0", "time_elapsed": 670212, "key_press": -1, "type": "FIXATION", "trial_index": 156}, "uniqueid": "MTK2953:358010RM5F0S6VS3F7C0Q2X6DX2XV1", "dateTime": 1519595620907}, {"current_trial": 157, "trialdata": {"rt": -1, "trial_type": "single-stim", "word": "diver", "stimulus": "<p id=\"stim\">DIVER</p>", "conditions": [12, 800, "v", 24000], "internal_node_id": "0.0-112.0", "trial": 4, "time_elapsed": 671014, "serialpos": 0, "key_press": -1, "wordID": 475, "type": "PRES_VIS", "trial_index": 157}, "uniqueid": "MTK2953:358010RM5F0S6VS3F7C0Q2X6DX2XV1", "dateTime": 1519595621709}, {"current_trial": 158, "trialdata": {"rt": -1, "trial_type": "single-stim", "word": "velvet", "stimulus": "<p id=\"stim\">VELVET</p>", "conditions": [12, 800, "v", 24000], "internal_node_id": "0.0-113.0", "trial": 4, "time_elapsed": 672740, "serialpos": 1, "key_press": -1, "wordID": 1554, "type": "PRES_VIS", "trial_index": 158}, "uniqueid": "MTK2953:358010RM5F0S6VS3F7C0Q2X6DX2XV1", "dateTime": 1519595623435}, {"current_trial": 159, "trialdata": {"rt": -1, "trial_type": "single-stim", "word": "paper", "stimulus": "<p id=\"stim\">PAPER</p>", "conditions": [12, 800, "v", 24000], "internal_node_id": "0.0-114.0", "trial": 4, "time_elapsed": 674563, "serialpos": 2, "key_press": -1, "wordID": 1010, "type": "PRES_VIS", "trial_index": 159}, "uniqueid": "MTK2953:358010RM5F0S6VS3F7C0Q2X6DX2XV1", "dateTime": 1519595625258}, {"current_trial": 160, "trialdata": {"rt": -1, "trial_type": "single-stim", "word": "cowboy", "stimulus": "<p id=\"stim\">COWBOY</p>", "conditions": [12, 800, "v", 24000], "internal_node_id": "0.0-115.0", "trial": 4, "time_elapsed": 676178, "serialpos": 3, "key_press": -1, "wordID": 394, "type": "PRES_VIS", "trial_index": 160}, "uniqueid": "MTK2953:358010RM5F0S6VS3F7C0Q2X6DX2XV1", "dateTime": 1519595626873}, {"current_trial": 161, "trialdata": {"rt": -1, "trial_type": "single-stim", "word": "globe", "stimulus": "<p id=\"stim\">GLOBE</p>", "conditions": [12, 800, "v", 24000], "internal_node_id": "0.0-116.0", "trial": 4, "time_elapsed": 678174, "serialpos": 4, "key_press": -1, "wordID": 640, "type": "PRES_VIS", "trial_index": 161}, "uniqueid": "MTK2953:358010RM5F0S6VS3F7C0Q2X6DX2XV1", "dateTime": 1519595628869}, {"current_trial": 162, "trialdata": {"rt": -1, "trial_type": "single-stim", "word": "lake", "stimulus": "<p id=\"stim\">LAKE</p>", "conditions": [12, 800, "v", 24000], "internal_node_id": "0.0-117.0", "trial": 4, "time_elapsed": 680145, "serialpos": 5, "key_press": -1, "wordID": 795, "type": "PRES_VIS", "trial_index": 162}, "uniqueid": "MTK2953:358010RM5F0S6VS3F7C0Q2X6DX2XV1", "dateTime": 1519595630840}, {"current_trial": 163, "trialdata": {"rt": -1, "trial_type": "single-stim", "word": "marsh", "stimulus": "<p id=\"stim\">MARSH</p>", "conditions": [12, 800, "v", 24000], "internal_node_id": "0.0-118.0", "trial": 4, "time_elapsed": 681907, "serialpos": 6, "key_press": -1, "wordID": 873, "type": "PRES_VIS", "trial_index": 163}, "uniqueid": "MTK2953:358010RM5F0S6VS3F7C0Q2X6DX2XV1", "dateTime": 1519595632602}, {"current_trial": 164, "trialdata": {"rt": -1, "trial_type": "single-stim", "word": "world", "stimulus": "<p id=\"stim\">WORLD</p>", "conditions": [12, 800, "v", 24000], "internal_node_id": "0.0-119.0", "trial": 4, "time_elapsed": 683525, "serialpos": 7, "key_press": -1, "wordID": 1621, "type": "PRES_VIS", "trial_index": 164}, "uniqueid": "MTK2953:358010RM5F0S6VS3F7C0Q2X6DX2XV1", "dateTime": 1519595634220}, {"current_trial": 165, "trialdata": {"rt": -1, "trial_type": "single-stim", "word": "motel", "stimulus": "<p id=\"stim\">MOTEL</p>", "conditions": [12, 800, "v", 24000], "internal_node_id": "0.0-120.0", "trial": 4, "time_elapsed": 685505, "serialpos": 8, "key_press": -1, "wordID": 918, "type": "PRES_VIS", "trial_index": 165}, "uniqueid": "MTK2953:358010RM5F0S6VS3F7C0Q2X6DX2XV1", "dateTime": 1519595636200}, {"current_trial": 166, "trialdata": {"rt": -1, "trial_type": "single-stim", "word": "record", "stimulus": "<p id=\"stim\">RECORD</p>", "conditions": [12, 800, "v", 24000], "internal_node_id": "0.0-121.0", "trial": 4, "time_elapsed": 687146, "serialpos": 9, "key_press": -1, "wordID": 1175, "type": "PRES_VIS", "trial_index": 166}, "uniqueid": "MTK2953:358010RM5F0S6VS3F7C0Q2X6DX2XV1", "dateTime": 1519595637842}, {"current_trial": 167, "trialdata": {"rt": -1, "trial_type": "single-stim", "word": "grill", "stimulus": "<p id=\"stim\">GRILL</p>", "conditions": [12, 800, "v", 24000], "internal_node_id": "0.0-122.0", "trial": 4, "time_elapsed": 689031, "serialpos": 10, "key_press": -1, "wordID": 660, "type": "PRES_VIS", "trial_index": 167}, "uniqueid": "MTK2953:358010RM5F0S6VS3F7C0Q2X6DX2XV1", "dateTime": 1519595639726}, {"current_trial": 168, "trialdata": {"rt": -1, "trial_type": "single-stim", "word": "cookbook", "stimulus": "<p id=\"stim\">COOKBOOK</p>", "conditions": [12, 800, "v", 24000], "internal_node_id": "0.0-123.0", "trial": 4, "time_elapsed": 690670, "serialpos": 11, "key_press": -1, "wordID": 372, "type": "PRES_VIS", "trial_index": 168}, "uniqueid": "MTK2953:358010RM5F0S6VS3F7C0Q2X6DX2XV1", "dateTime": 1519595641365}, {"current_trial": 169, "trialdata": {"rt": -1, "trial_type": "single-stim", "stimulus": "", "internal_node_id": "0.0-124.0-0.0", "time_elapsed": 693034, "key_press": -1, "type": "PRE_RECALL_DELAY", "trial_index": 169}, "uniqueid": "MTK2953:358010RM5F0S6VS3F7C0Q2X6DX2XV1", "dateTime": 1519595643731}, {"current_trial": 170, "trialdata": {"rt": -1000, "trial_type": "single-audio", "stimulus": "/static/audio/400Hz.wav", "internal_node_id": "0.0-125.0", "time_elapsed": 693543, "key_press": -1, "type": "PRE_RECALL_ALERT", "trial_index": 170}, "uniqueid": "MTK2953:358010RM5F0S6VS3F7C0Q2X6DX2XV1", "dateTime": 1519595644239}, {"current_trial": 171, "trialdata": {"rt": [1597, 2878, 5920, 6772, 8423, 15276], "recwords": ["lark", "lake", "marsh", "world", "cookbook", "record"], "key_times": [996, 1127, 1313, 1380, 1597, 2326, 2392, 2531, 2635, 2878, 3317, 3582, 4174, 4271, 4492, 4871, 5320, 5597, 5662, 5920, 6158, 6258, 6353, 6445, 6562, 6772, 7096, 7245, 7523, 7678, 7962, 8059, 8188, 8273, 8423, 14289, 14486, 14713, 14879, 14971, 15128, 15276], "trial_type": "free-recall", "conditions": [12, 800, "v", 24000], "internal_node_id": "0.0-126.0-0.0", "key_presses": [76, 65, 82, 75, 13, 76, 65, 75, 69, 13, 77, 82, 8, 65, 82, 72, 8, 83, 72, 13, 87, 79, 82, 76, 68, 13, 67, 79, 79, 75, 66, 79, 79, 75, 13, 82, 69, 67, 79, 82, 68, 13], "trial": 4, "time_elapsed": 753548, "type": "FREE_RECALL", "trial_index": 171}, "uniqueid": "MTK2953:358010RM5F0S6VS3F7C0Q2X6DX2XV1", "dateTime": 1519595704248}, {"current_trial": 172, "trialdata": {"rt": 6326, "trial_type": "text", "internal_node_id": "0.0-127.0", "time_elapsed": 761881, "key_press": 13, "type": "INSTRUCTIONS", "trial_index": 172}, "uniqueid": "MTK2953:358010RM5F0S6VS3F7C0Q2X6DX2XV1", "dateTime": 1519595712576}, {"current_trial": 173, "trialdata": {"rt": [2886, 5505, 8389, 10806], "trial_type": "math-distractor", "key_times": [2540, 2726, 2886, 4999, 5395, 5505, 8109, 8299, 8389, 10419, 10549, 10806], "responses": ["25", "17", "15", "19"], "num2": [8, 9, 2, 5, 4], "num3": [9, 4, 7, 5, 5], "conditions": [12, 800, "v", 12000], "internal_node_id": "0.0-128.0", "key_presses": [50, 53, 13, 49, 55, 13, 49, 53, 13, 49, 57, 13], "trial": 5, "time_elapsed": 775888, "type": "DISTRACTOR", "trial_index": 173, "num1": [8, 4, 6, 9, 9]}, "uniqueid": "MTK2953:358010RM5F0S6VS3F7C0Q2X6DX2XV1", "dateTime": 1519595726583}, {"current_trial": 174, "trialdata": {"rt": -1, "trial_type": "single-stim", "stimulus": "<p id=\"stim\">10</p>", "internal_node_id": "0.0-129.0-0.0", "time_elapsed": 778891, "key_press": -1, "trial_index": 174}, "uniqueid": "MTK2953:358010RM5F0S6VS3F7C0Q2X6DX2XV1", "dateTime": 1519595729587}, {"current_trial": 175, "trialdata": {"rt": -1, "trial_type": "single-stim", "stimulus": "<p id=\"stim\">9</p>", "internal_node_id": "0.0-129.0-1.0", "time_elapsed": 779894, "key_press": -1, "trial_index": 175}, "uniqueid": "MTK2953:358010RM5F0S6VS3F7C0Q2X6DX2XV1", "dateTime": 1519595730589}, {"current_trial": 176, "trialdata": {"rt": -1, "trial_type": "single-stim", "stimulus": "<p id=\"stim\">8</p>", "internal_node_id": "0.0-129.0-2.0", "time_elapsed": 780896, "key_press": -1, "trial_index": 176}, "uniqueid": "MTK2953:358010RM5F0S6VS3F7C0Q2X6DX2XV1", "dateTime": 1519595731591}, {"current_trial": 177, "trialdata": {"rt": -1, "trial_type": "single-stim", "stimulus": "<p id=\"stim\">7</p>", "internal_node_id": "0.0-129.0-3.0", "time_elapsed": 781898, "key_press": -1, "trial_index": 177}, "uniqueid": "MTK2953:358010RM5F0S6VS3F7C0Q2X6DX2XV1", "dateTime": 1519595732593}, {"current_trial": 178, "trialdata": {"rt": -1, "trial_type": "single-stim", "stimulus": "<p id=\"stim\">6</p>", "internal_node_id": "0.0-129.0-4.0", "time_elapsed": 782900, "key_press": -1, "trial_index": 178}, "uniqueid": "MTK2953:358010RM5F0S6VS3F7C0Q2X6DX2XV1", "dateTime": 1519595733595}, {"current_trial": 179, "trialdata": {"rt": -1, "trial_type": "single-stim", "stimulus": "<p id=\"stim\">5</p>", "internal_node_id": "0.0-129.0-5.0", "time_elapsed": 783901, "key_press": -1, "trial_index": 179}, "uniqueid": "MTK2953:358010RM5F0S6VS3F7C0Q2X6DX2XV1", "dateTime": 1519595734599}, {"current_trial": 180, "trialdata": {"rt": -1, "trial_type": "single-stim", "stimulus": "<p id=\"stim\">4</p>", "internal_node_id": "0.0-129.0-6.0", "time_elapsed": 784905, "key_press": -1, "trial_index": 180}, "uniqueid": "MTK2953:358010RM5F0S6VS3F7C0Q2X6DX2XV1", "dateTime": 1519595735600}, {"current_trial": 181, "trialdata": {"rt": -1, "trial_type": "single-stim", "stimulus": "<p id=\"stim\">3</p>", "internal_node_id": "0.0-129.0-7.0", "time_elapsed": 785907, "key_press": -1, "trial_index": 181}, "uniqueid": "MTK2953:358010RM5F0S6VS3F7C0Q2X6DX2XV1", "dateTime": 1519595736602}, {"current_trial": 182, "trialdata": {"rt": -1, "trial_type": "single-stim", "stimulus": "<p id=\"stim\">2</p>", "internal_node_id": "0.0-129.0-8.0", "time_elapsed": 786909, "key_press": -1, "trial_index": 182}, "uniqueid": "MTK2953:358010RM5F0S6VS3F7C0Q2X6DX2XV1", "dateTime": 1519595737604}, {"current_trial": 183, "trialdata": {"rt": -1, "trial_type": "single-stim", "stimulus": "<p id=\"stim\">1</p>", "internal_node_id": "0.0-129.0-9.0", "time_elapsed": 787912, "key_press": -1, "trial_index": 183}, "uniqueid": "MTK2953:358010RM5F0S6VS3F7C0Q2X6DX2XV1", "dateTime": 1519595738608}, {"current_trial": 184, "trialdata": {"rt": -1, "trial_type": "single-stim", "stimulus": "<p id=\"stim\">+</p>", "internal_node_id": "0.0-130.0-0.0", "time_elapsed": 789415, "key_press": -1, "type": "FIXATION", "trial_index": 184}, "uniqueid": "MTK2953:358010RM5F0S6VS3F7C0Q2X6DX2XV1", "dateTime": 1519595740110}, {"current_trial": 185, "trialdata": {"rt": -1, "trial_type": "single-stim", "word": "tortoise", "stimulus": "<p id=\"stim\">TORTOISE</p>", "conditions": [12, 800, "v", 12000], "internal_node_id": "0.0-131.0", "trial": 5, "time_elapsed": 790217, "serialpos": 0, "key_press": -1, "wordID": 1485, "type": "PRES_VIS", "trial_index": 185}, "uniqueid": "MTK2953:358010RM5F0S6VS3F7C0Q2X6DX2XV1", "dateTime": 1519595740912}, {"current_trial": 186, "trialdata": {"rt": -1, "trial_type": "single-stim", "word": "piano", "stimulus": "<p id=\"stim\">PIANO</p>", "conditions": [12, 800, "v", 12000], "internal_node_id": "0.0-132.0", "trial": 5, "time_elapsed": 791991, "serialpos": 1, "key_press": -1, "wordID": 1056, "type": "PRES_VIS", "trial_index": 186}, "uniqueid": "MTK2953:358010RM5F0S6VS3F7C0Q2X6DX2XV1", "dateTime": 1519595742686}, {"current_trial": 187, "trialdata": {"rt": -1, "trial_type": "single-stim", "word": "forehead", "stimulus": "<p id=\"stim\">FOREHEAD</p>", "conditions": [12, 800, "v", 12000], "internal_node_id": "0.0-133.0", "trial": 5, "time_elapsed": 793942, "serialpos": 2, "key_press": -1, "wordID": 591, "type": "PRES_VIS", "trial_index": 187}, "uniqueid": "MTK2953:358010RM5F0S6VS3F7C0Q2X6DX2XV1", "dateTime": 1519595744637}, {"current_trial": 188, "trialdata": {"rt": -1, "trial_type": "single-stim", "word": "tombstone", "stimulus": "<p id=\"stim\">TOMBSTONE</p>", "conditions": [12, 800, "v", 12000], "internal_node_id": "0.0-134.0", "trial": 5, "time_elapsed": 795651, "serialpos": 3, "key_press": -1, "wordID": 1477, "type": "PRES_VIS", "trial_index": 188}, "uniqueid": "MTK2953:358010RM5F0S6VS3F7C0Q2X6DX2XV1", "dateTime": 1519595746346}, {"current_trial": 189, "trialdata": {"rt": -1, "trial_type": "single-stim", "word": "brandy", "stimulus": "<p id=\"stim\">BRANDY</p>", "conditions": [12, 800, "v", 12000], "internal_node_id": "0.0-135.0", "trial": 5, "time_elapsed": 797407, "serialpos": 4, "key_press": -1, "wordID": 168, "type": "PRES_VIS", "trial_index": 189}, "uniqueid": "MTK2953:358010RM5F0S6VS3F7C0Q2X6DX2XV1", "dateTime": 1519595748102}, {"current_trial": 190, "trialdata": {"rt": -1, "trial_type": "single-stim", "word": "airplane", "stimulus": "<p id=\"stim\">AIRPLANE</p>", "conditions": [12, 800, "v", 12000], "internal_node_id": "0.0-136.0", "trial": 5, "time_elapsed": 799074, "serialpos": 5, "key_press": -1, "wordID": 11, "type": "PRES_VIS", "trial_index": 190}, "uniqueid": "MTK2953:358010RM5F0S6VS3F7C0Q2X6DX2XV1", "dateTime": 1519595749769}, {"current_trial": 191, "trialdata": {"rt": -1, "trial_type": "single-stim", "word": "apron", "stimulus": "<p id=\"stim\">APRON</p>", "conditions": [12, 800, "v", 12000], "internal_node_id": "0.0-137.0", "trial": 5, "time_elapsed": 801042, "serialpos": 6, "key_press": -1, "wordID": 34, "type": "PRES_VIS", "trial_index": 191}, "uniqueid": "MTK2953:358010RM5F0S6VS3F7C0Q2X6DX2XV1", "dateTime": 1519595751737}, {"current_trial": 192, "trialdata": {"rt": -1, "trial_type": "single-stim", "word": "statue", "stimulus": "<p id=\"stim\">STATUE</p>", "conditions": [12, 800, "v", 12000], "internal_node_id": "0.0-138.0", "trial": 5, "time_elapsed": 803041, "serialpos": 7, "key_press": -1, "wordID": 1373, "type": "PRES_VIS", "trial_index": 192}, "uniqueid": "MTK2953:358010RM5F0S6VS3F7C0Q2X6DX2XV1", "dateTime": 1519595753736}, {"current_trial": 193, "trialdata": {"rt": -1, "trial_type": "single-stim", "word": "stove", "stimulus": "<p id=\"stim\">STOVE</p>", "conditions": [12, 800, "v", 12000], "internal_node_id": "0.0-139.0", "trial": 5, "time_elapsed": 805039, "serialpos": 8, "key_press": -1, "wordID": 1387, "type": "PRES_VIS", "trial_index": 193}, "uniqueid": "MTK2953:358010RM5F0S6VS3F7C0Q2X6DX2XV1", "dateTime": 1519595755734}, {"current_trial": 194, "trialdata": {"rt": -1, "trial_type": "single-stim", "word": "hatchet", "stimulus": "<p id=\"stim\">HATCHET</p>", "conditions": [12, 800, "v", 12000], "internal_node_id": "0.0-140.0", "trial": 5, "time_elapsed": 806692, "serialpos": 9, "key_press": -1, "wordID": 690, "type": "PRES_VIS", "trial_index": 194}, "uniqueid": "MTK2953:358010RM5F0S6VS3F7C0Q2X6DX2XV1", "dateTime": 1519595757388}, {"current_trial": 195, "trialdata": {"rt": -1, "trial_type": "single-stim", "word": "mailman", "stimulus": "<p id=\"stim\">MAILMAN</p>", "conditions": [12, 800, "v", 12000], "internal_node_id": "0.0-141.0", "trial": 5, "time_elapsed": 808486, "serialpos": 10, "key_press": -1, "wordID": 857, "type": "PRES_VIS", "trial_index": 195}, "uniqueid": "MTK2953:358010RM5F0S6VS3F7C0Q2X6DX2XV1", "dateTime": 1519595759182}, {"current_trial": 196, "trialdata": {"rt": -1, "trial_type": "single-stim", "word": "mailbox", "stimulus": "<p id=\"stim\">MAILBOX</p>", "conditions": [12, 800, "v", 12000], "internal_node_id": "0.0-142.0", "trial": 5, "time_elapsed": 810326, "serialpos": 11, "key_press": -1, "wordID": 856, "type": "PRES_VIS", "trial_index": 196}, "uniqueid": "MTK2953:358010RM5F0S6VS3F7C0Q2X6DX2XV1", "dateTime": 1519595761021}, {"current_trial": 197, "trialdata": {"rt": -1, "trial_type": "single-stim", "stimulus": "", "internal_node_id": "0.0-143.0-0.0", "time_elapsed": 812564, "key_press": -1, "type": "PRE_RECALL_DELAY", "trial_index": 197}, "uniqueid": "MTK2953:358010RM5F0S6VS3F7C0Q2X6DX2XV1", "dateTime": 1519595763260}, {"current_trial": 198, "trialdata": {"rt": -1000, "trial_type": "single-audio", "stimulus": "/static/audio/400Hz.wav", "internal_node_id": "0.0-144.0", "time_elapsed": 813067, "key_press": -1, "type": "PRE_RECALL_ALERT", "trial_index": 198}, "uniqueid": "MTK2953:358010RM5F0S6VS3F7C0Q2X6DX2XV1", "dateTime": 1519595763762}, {"current_trial": 199, "trialdata": {"rt": [4913, 7184, 10310, 11471, 15016], "recwords": ["mailman", "hatchet", "tortoise", "apron", "housewife"], "key_times": [3115, 3740, 3799, 4049, 4272, 4424, 4620, 4913, 5292, 5408, 5631, 5884, 5985, 6860, 7051, 7184, 7736, 7831, 7929, 8214, 8738, 8881, 8940, 9220, 9411, 9683, 9924, 10146, 10310, 10608, 10722, 10863, 10948, 11153, 11471, 11759, 11942, 12118, 12191, 12548, 13141, 13186, 13384, 13437, 14402, 14681, 14719, 14913, 15016], "trial_type": "free-recall", "conditions": [12, 800, "v", 12000], "internal_node_id": "0.0-145.0-0.0", "key_presses": [77, 65, 73, 76, 77, 65, 78, 13, 72, 65, 84, 67, 72, 69, 84, 13, 84, 79, 84, 82, 8, 8, 82, 84, 79, 73, 83, 69, 13, 65, 80, 82, 79, 78, 13, 72, 79, 85, 83, 87, 8, 69, 87, 73, 69, 8, 70, 69, 13], "trial": 5, "time_elapsed": 873073, "type": "FREE_RECALL", "trial_index": 199}, "uniqueid": "MTK2953:358010RM5F0S6VS3F7C0Q2X6DX2XV1", "dateTime": 1519595823773}, {"current_trial": 200, "trialdata": {"rt": 2313, "trial_type": "text", "internal_node_id": "0.0-146.0", "time_elapsed": 877392, "key_press": 13, "type": "INSTRUCTIONS", "trial_index": 200}, "uniqueid": "MTK2953:358010RM5F0S6VS3F7C0Q2X6DX2XV1", "dateTime": 1519595828087}, {"current_trial": 201, "trialdata": {"rt": [2034, 5192, 7002, 9980, 12608, 14037, 15858, 18159, 20648], "trial_type": "math-distractor", "key_times": [1769, 2034, 4781, 4917, 5192, 6570, 6776, 7002, 9571, 9748, 9980, 12196, 12501, 12608, 13699, 13953, 14037, 15474, 15721, 15858, 17603, 17998, 18159, 20014, 20494, 20648], "responses": ["9", "19", "18", "18", "17", "14", "13", "18", "19"], "num2": [4, 2, 7, 8, 5, 3, 4, 1, 6, 8], "num3": [3, 9, 8, 3, 9, 4, 1, 9, 5, 5], "conditions": [24, 800, "v", 24000], "internal_node_id": "0.0-147.0", "key_presses": [57, 13, 49, 57, 13, 49, 56, 13, 49, 56, 13, 49, 55, 13, 49, 52, 13, 49, 51, 13, 49, 56, 13, 49, 57, 13], "trial": 6, "time_elapsed": 903397, "type": "DISTRACTOR", "trial_index": 201, "num1": [2, 8, 3, 6, 3, 7, 8, 8, 8, 9]}, "uniqueid": "MTK2953:358010RM5F0S6VS3F7C0Q2X6DX2XV1", "dateTime": 1519595854092}, {"current_trial": 202, "trialdata": {"rt": -1, "trial_type": "single-stim", "stimulus": "<p id=\"stim\">10</p>", "internal_node_id": "0.0-148.0-0.0", "time_elapsed": 906399, "key_press": -1, "trial_index": 202}, "uniqueid": "MTK2953:358010RM5F0S6VS3F7C0Q2X6DX2XV1", "dateTime": 1519595857094}, {"current_trial": 203, "trialdata": {"rt": -1, "trial_type": "single-stim", "stimulus": "<p id=\"stim\">9</p>", "internal_node_id": "0.0-148.0-1.0", "time_elapsed": 907401, "key_press": -1, "trial_index": 203}, "uniqueid": "MTK2953:358010RM5F0S6VS3F7C0Q2X6DX2XV1", "dateTime": 1519595858096}, {"current_trial": 204, "trialdata": {"rt": -1, "trial_type": "single-stim", "stimulus": "<p id=\"stim\">8</p>", "internal_node_id": "0.0-148.0-2.0", "time_elapsed": 908404, "key_press": -1, "trial_index": 204}, "uniqueid": "MTK2953:358010RM5F0S6VS3F7C0Q2X6DX2XV1", "dateTime": 1519595859099}, {"current_trial": 205, "trialdata": {"rt": -1, "trial_type": "single-stim", "stimulus": "<p id=\"stim\">7</p>", "internal_node_id": "0.0-148.0-3.0", "time_elapsed": 909405, "key_press": -1, "trial_index": 205}, "uniqueid": "MTK2953:358010RM5F0S6VS3F7C0Q2X6DX2XV1", "dateTime": 1519595860100}, {"current_trial": 206, "trialdata": {"rt": -1, "trial_type": "single-stim", "stimulus": "<p id=\"stim\">6</p>", "internal_node_id": "0.0-148.0-4.0", "time_elapsed": 910406, "key_press": -1, "trial_index": 206}, "uniqueid": "MTK2953:358010RM5F0S6VS3F7C0Q2X6DX2XV1", "dateTime": 1519595861101}, {"current_trial": 207, "trialdata": {"rt": -1, "trial_type": "single-stim", "stimulus": "<p id=\"stim\">5</p>", "internal_node_id": "0.0-148.0-5.0", "time_elapsed": 911408, "key_press": -1, "trial_index": 207}, "uniqueid": "MTK2953:358010RM5F0S6VS3F7C0Q2X6DX2XV1", "dateTime": 1519595862103}, {"current_trial": 208, "trialdata": {"rt": -1, "trial_type": "single-stim", "stimulus": "<p id=\"stim\">4</p>", "internal_node_id": "0.0-148.0-6.0", "time_elapsed": 912410, "key_press": -1, "trial_index": 208}, "uniqueid": "MTK2953:358010RM5F0S6VS3F7C0Q2X6DX2XV1", "dateTime": 1519595863105}, {"current_trial": 209, "trialdata": {"rt": -1, "trial_type": "single-stim", "stimulus": "<p id=\"stim\">3</p>", "internal_node_id": "0.0-148.0-7.0", "time_elapsed": 913411, "key_press": -1, "trial_index": 209}, "uniqueid": "MTK2953:358010RM5F0S6VS3F7C0Q2X6DX2XV1", "dateTime": 1519595864106}, {"current_trial": 210, "trialdata": {"rt": -1, "trial_type": "single-stim", "stimulus": "<p id=\"stim\">2</p>", "internal_node_id": "0.0-148.0-8.0", "time_elapsed": 914413, "key_press": -1, "trial_index": 210}, "uniqueid": "MTK2953:358010RM5F0S6VS3F7C0Q2X6DX2XV1", "dateTime": 1519595865108}, {"current_trial": 211, "trialdata": {"rt": -1, "trial_type": "single-stim", "stimulus": "<p id=\"stim\">1</p>", "internal_node_id": "0.0-148.0-9.0", "time_elapsed": 915415, "key_press": -1, "trial_index": 211}, "uniqueid": "MTK2953:358010RM5F0S6VS3F7C0Q2X6DX2XV1", "dateTime": 1519595866110}, {"current_trial": 212, "trialdata": {"rt": -1, "trial_type": "single-stim", "stimulus": "<p id=\"stim\">+</p>", "internal_node_id": "0.0-149.0-0.0", "time_elapsed": 916917, "key_press": -1, "type": "FIXATION", "trial_index": 212}, "uniqueid": "MTK2953:358010RM5F0S6VS3F7C0Q2X6DX2XV1", "dateTime": 1519595867612}, {"current_trial": 213, "trialdata": {"rt": -1, "trial_type": "single-stim", "word": "wife", "stimulus": "<p id=\"stim\">WIFE</p>", "conditions": [24, 800, "v", 24000], "internal_node_id": "0.0-150.0", "trial": 6, "time_elapsed": 917719, "serialpos": 0, "key_press": -1, "wordID": 1608, "type": "PRES_VIS", "trial_index": 213}, "uniqueid": "MTK2953:358010RM5F0S6VS3F7C0Q2X6DX2XV1", "dateTime": 1519595868414}, {"current_trial": 214, "trialdata": {"rt": -1, "trial_type": "single-stim", "word": "film", "stimulus": "<p id=\"stim\">FILM</p>", "conditions": [24, 800, "v", 24000], "internal_node_id": "0.0-151.0", "trial": 6, "time_elapsed": 919481, "serialpos": 1, "key_press": -1, "wordID": 564, "type": "PRES_VIS", "trial_index": 214}, "uniqueid": "MTK2953:358010RM5F0S6VS3F7C0Q2X6DX2XV1", "dateTime": 1519595870177}, {"current_trial": 215, "trialdata": {"rt": -1, "trial_type": "single-stim", "word": "ghetto", "stimulus": "<p id=\"stim\">GHETTO</p>", "conditions": [24, 800, "v", 24000], "internal_node_id": "0.0-152.0", "trial": 6, "time_elapsed": 921482, "serialpos": 2, "key_press": -1, "wordID": 632, "type": "PRES_VIS", "trial_index": 215}, "uniqueid": "MTK2953:358010RM5F0S6VS3F7C0Q2X6DX2XV1", "dateTime": 1519595872177}, {"current_trial": 216, "trialdata": {"rt": -1, "trial_type": "single-stim", "word": "shoulder", "stimulus": "<p id=\"stim\">SHOULDER</p>", "conditions": [24, 800, "v", 24000], "internal_node_id": "0.0-153.0", "trial": 6, "time_elapsed": 923273, "serialpos": 3, "key_press": -1, "wordID": 1293, "type": "PRES_VIS", "trial_index": 216}, "uniqueid": "MTK2953:358010RM5F0S6VS3F7C0Q2X6DX2XV1", "dateTime": 1519595873968}, {"current_trial": 217, "trialdata": {"rt": -1, "trial_type": "single-stim", "word": "kitchen", "stimulus": "<p id=\"stim\">KITCHEN</p>", "conditions": [24, 800, "v", 24000], "internal_node_id": "0.0-154.0", "trial": 6, "time_elapsed": 925037, "serialpos": 4, "key_press": -1, "wordID": 777, "type": "PRES_VIS", "trial_index": 217}, "uniqueid": "MTK2953:358010RM5F0S6VS3F7C0Q2X6DX2XV1", "dateTime": 1519595875732}, {"current_trial": 218, "trialdata": {"rt": -1, "trial_type": "single-stim", "word": "lamp", "stimulus": "<p id=\"stim\">LAMP</p>", "conditions": [24, 800, "v", 24000], "internal_node_id": "0.0-155.0", "trial": 6, "time_elapsed": 926784, "serialpos": 5, "key_press": -1, "wordID": 797, "type": "PRES_VIS", "trial_index": 218}, "uniqueid": "MTK2953:358010RM5F0S6VS3F7C0Q2X6DX2XV1", "dateTime": 1519595877479}, {"current_trial": 219, "trialdata": {"rt": -1, "trial_type": "single-stim", "word": "proton", "stimulus": "<p id=\"stim\">PROTON</p>", "conditions": [24, 800, "v", 24000], "internal_node_id": "0.0-156.0", "trial": 6, "time_elapsed": 928501, "serialpos": 6, "key_press": -1, "wordID": 1131, "type": "PRES_VIS", "trial_index": 219}, "uniqueid": "MTK2953:358010RM5F0S6VS3F7C0Q2X6DX2XV1", "dateTime": 1519595879197}, {"current_trial": 220, "trialdata": {"rt": -1, "trial_type": "single-stim", "word": "fireman", "stimulus": "<p id=\"stim\">FIREMAN</p>", "conditions": [24, 800, "v", 24000], "internal_node_id": "0.0-157.0", "trial": 6, "time_elapsed": 930486, "serialpos": 7, "key_press": -1, "wordID": 568, "type": "PRES_VIS", "trial_index": 220}, "uniqueid": "MTK2953:358010RM5F0S6VS3F7C0Q2X6DX2XV1", "dateTime": 1519595881181}, {"current_trial": 221, "trialdata": {"rt": -1, "trial_type": "single-stim", "word": "cupboard", "stimulus": "<p id=\"stim\">CUPBOARD</p>", "conditions": [24, 800, "v", 24000], "internal_node_id": "0.0-158.0", "trial": 6, "time_elapsed": 932392, "serialpos": 8, "key_press": -1, "wordID": 424, "type": "PRES_VIS", "trial_index": 221}, "uniqueid": "MTK2953:358010RM5F0S6VS3F7C0Q2X6DX2XV1", "dateTime": 1519595883088}, {"current_trial": 222, "trialdata": {"rt": -1, "trial_type": "single-stim", "word": "army", "stimulus": "<p id=\"stim\">ARMY</p>", "conditions": [24, 800, "v", 24000], "internal_node_id": "0.0-159.0", "trial": 6, "time_elapsed": 934013, "serialpos": 9, "key_press": -1, "wordID": 38, "type": "PRES_VIS", "trial_index": 222}, "uniqueid": "MTK2953:358010RM5F0S6VS3F7C0Q2X6DX2XV1", "dateTime": 1519595884708}, {"current_trial": 223, "trialdata": {"rt": -1, "trial_type": "single-stim", "word": "egypt", "stimulus": "<p id=\"stim\">EGYPT</p>", "conditions": [24, 800, "v", 24000], "internal_node_id": "0.0-160.0", "trial": 6, "time_elapsed": 935987, "serialpos": 10, "key_press": -1, "wordID": 518, "type": "PRES_VIS", "trial_index": 223}, "uniqueid": "MTK2953:358010RM5F0S6VS3F7C0Q2X6DX2XV1", "dateTime": 1519595886682}, {"current_trial": 224, "trialdata": {"rt": -1, "trial_type": "single-stim", "word": "europe", "stimulus": "<p id=\"stim\">EUROPE</p>", "conditions": [24, 800, "v", 24000], "internal_node_id": "0.0-161.0", "trial": 6, "time_elapsed": 937684, "serialpos": 11, "key_press": -1, "wordID": 540, "type": "PRES_VIS", "trial_index": 224}, "uniqueid": "MTK2953:358010RM5F0S6VS3F7C0Q2X6DX2XV1", "dateTime": 1519595888379}, {"current_trial": 225, "trialdata": {"rt": -1, "trial_type": "single-stim", "word": "luggage", "stimulus": "<p id=\"stim\">LUGGAGE</p>", "conditions": [24, 800, "v", 24000], "internal_node_id": "0.0-162.0", "trial": 6, "time_elapsed": 939506, "serialpos": 12, "key_press": -1, "wordID": 846, "type": "PRES_VIS", "trial_index": 225}, "uniqueid": "MTK2953:358010RM5F0S6VS3F7C0Q2X6DX2XV1", "dateTime": 1519595890201}, {"current_trial": 226, "trialdata": {"rt": -1, "trial_type": "single-stim", "word": "dustpan", "stimulus": "<p id=\"stim\">DUSTPAN</p>", "conditions": [24, 800, "v", 24000], "internal_node_id": "0.0-163.0", "trial": 6, "time_elapsed": 941505, "serialpos": 13, "key_press": -1, "wordID": 508, "type": "PRES_VIS", "trial_index": 226}, "uniqueid": "MTK2953:358010RM5F0S6VS3F7C0Q2X6DX2XV1", "dateTime": 1519595892200}, {"current_trial": 227, "trialdata": {"rt": -1, "trial_type": "single-stim", "word": "tile", "stimulus": "<p id=\"stim\">TILE</p>", "conditions": [24, 800, "v", 24000], "internal_node_id": "0.0-164.0", "trial": 6, "time_elapsed": 943487, "serialpos": 14, "key_press": -1, "wordID": 1467, "type": "PRES_VIS", "trial_index": 227}, "uniqueid": "MTK2953:358010RM5F0S6VS3F7C0Q2X6DX2XV1", "dateTime": 1519595894182}, {"current_trial": 228, "trialdata": {"rt": -1, "trial_type": "single-stim", "word": "virus", "stimulus": "<p id=\"stim\">VIRUS</p>", "conditions": [24, 800, "v", 24000], "internal_node_id": "0.0-165.0", "trial": 6, "time_elapsed": 945344, "serialpos": 15, "key_press": -1, "wordID": 1571, "type": "PRES_VIS", "trial_index": 228}, "uniqueid": "MTK2953:358010RM5F0S6VS3F7C0Q2X6DX2XV1", "dateTime": 1519595896040}, {"current_trial": 229, "trialdata": {"rt": -1, "trial_type": "single-stim", "word": "citrus", "stimulus": "<p id=\"stim\">CITRUS</p>", "conditions": [24, 800, "v", 24000], "internal_node_id": "0.0-166.0", "trial": 6, "time_elapsed": 947178, "serialpos": 16, "key_press": -1, "wordID": 312, "type": "PRES_VIS", "trial_index": 229}, "uniqueid": "MTK2953:358010RM5F0S6VS3F7C0Q2X6DX2XV1", "dateTime": 1519595897873}, {"current_trial": 230, "trialdata": {"rt": -1, "trial_type": "single-stim", "word": "perfume", "stimulus": "<p id=\"stim\">PERFUME</p>", "conditions": [24, 800, "v", 24000], "internal_node_id": "0.0-167.0", "trial": 6, "time_elapsed": 948813, "serialpos": 17, "key_press": -1, "wordID": 1048, "type": "PRES_VIS", "trial_index": 230}, "uniqueid": "MTK2953:358010RM5F0S6VS3F7C0Q2X6DX2XV1", "dateTime": 1519595899508}, {"current_trial": 231, "trialdata": {"rt": -1, "trial_type": "single-stim", "word": "fragrance", "stimulus": "<p id=\"stim\">FRAGRANCE</p>", "conditions": [24, 800, "v", 24000], "internal_node_id": "0.0-168.0", "trial": 6, "time_elapsed": 950533, "serialpos": 18, "key_press": -1, "wordID": 598, "type": "PRES_VIS", "trial_index": 231}, "uniqueid": "MTK2953:358010RM5F0S6VS3F7C0Q2X6DX2XV1", "dateTime": 1519595901228}, {"current_trial": 232, "trialdata": {"rt": -1, "trial_type": "single-stim", "word": "custard", "stimulus": "<p id=\"stim\">CUSTARD</p>", "conditions": [24, 800, "v", 24000], "internal_node_id": "0.0-169.0", "trial": 6, "time_elapsed": 952370, "serialpos": 19, "key_press": -1, "wordID": 428, "type": "PRES_VIS", "trial_index": 232}, "uniqueid": "MTK2953:358010RM5F0S6VS3F7C0Q2X6DX2XV1", "dateTime": 1519595903065}, {"current_trial": 233, "trialdata": {"rt": -1, "trial_type": "single-stim", "word": "belly", "stimulus": "<p id=\"stim\">BELLY</p>", "conditions": [24, 800, "v", 24000], "internal_node_id": "0.0-170.0", "trial": 6, "time_elapsed": 954185, "serialpos": 20, "key_press": -1, "wordID": 118, "type": "PRES_VIS", "trial_index": 233}, "uniqueid": "MTK2953:358010RM5F0S6VS3F7C0Q2X6DX2XV1", "dateTime": 1519595904880}, {"current_trial": 234, "trialdata": {"rt": -1, "trial_type": "single-stim", "word": "hornet", "stimulus": "<p id=\"stim\">HORNET</p>", "conditions": [24, 800, "v", 24000], "internal_node_id": "0.0-171.0", "trial": 6, "time_elapsed": 956073, "serialpos": 21, "key_press": -1, "wordID": 717, "type": "PRES_VIS", "trial_index": 234}, "uniqueid": "MTK2953:358010RM5F0S6VS3F7C0Q2X6DX2XV1", "dateTime": 1519595906769}, {"current_trial": 235, "trialdata": {"rt": -1, "trial_type": "single-stim", "word": "bug", "stimulus": "<p id=\"stim\">BUG</p>", "conditions": [24, 800, "v", 24000], "internal_node_id": "0.0-172.0", "trial": 6, "time_elapsed": 957894, "serialpos": 22, "key_press": -1, "wordID": 186, "type": "PRES_VIS", "trial_index": 235}, "uniqueid": "MTK2953:358010RM5F0S6VS3F7C0Q2X6DX2XV1", "dateTime": 1519595908589}, {"current_trial": 236, "trialdata": {"rt": -1, "trial_type": "single-stim", "word": "cashier", "stimulus": "<p id=\"stim\">CASHIER</p>", "conditions": [24, 800, "v", 24000], "internal_node_id": "0.0-173.0", "trial": 6, "time_elapsed": 959708, "serialpos": 23, "key_press": -1, "wordID": 253, "type": "PRES_VIS", "trial_index": 236}, "uniqueid": "MTK2953:358010RM5F0S6VS3F7C0Q2X6DX2XV1", "dateTime": 1519595910403}, {"current_trial": 237, "trialdata": {"rt": -1, "trial_type": "single-stim", "stimulus": "", "internal_node_id": "0.0-174.0-0.0", "time_elapsed": 962075, "key_press": -1, "type": "PRE_RECALL_DELAY", "trial_index": 237}, "uniqueid": "MTK2953:358010RM5F0S6VS3F7C0Q2X6DX2XV1", "dateTime": 1519595912771}, {"current_trial": 238, "trialdata": {"rt": -1000, "trial_type": "single-audio", "stimulus": "/static/audio/400Hz.wav", "internal_node_id": "0.0-175.0", "time_elapsed": 962577, "key_press": -1, "type": "PRE_RECALL_ALERT", "trial_index": 238}, "uniqueid": "MTK2953:358010RM5F0S6VS3F7C0Q2X6DX2XV1", "dateTime": 1519595913273}, {"current_trial": 239, "trialdata": {"rt": [2881, 4640, 7319, 8433, 9405, 13130, 15430], "recwords": ["fireman", "custard", "hornet", "proton", "virus", "wife", "tile"], "key_times": [1426, 1587, 1680, 1878, 2049, 2481, 2585, 2881, 3184, 3389, 3580, 3808, 4044, 4326, 4535, 4640, 5742, 5838, 6011, 6198, 6330, 7222, 7319, 7560, 7677, 7775, 7938, 8010, 8206, 8433, 8609, 8764, 8910, 8993, 9277, 9405, 12490, 12580, 12715, 12934, 13130, 14844, 14917, 15124, 15203, 15430], "trial_type": "free-recall", "conditions": [24, 800, "v", 24000], "internal_node_id": "0.0-176.0-0.0", "key_presses": [70, 73, 82, 69, 77, 65, 78, 13, 67, 85, 83, 84, 65, 82, 68, 13, 72, 79, 82, 78, 69, 84, 13, 80, 82, 79, 84, 79, 78, 13, 86, 73, 82, 85, 83, 13, 87, 73, 70, 69, 13, 84, 73, 76, 69, 13], "trial": 6, "time_elapsed": 1022582, "type": "FREE_RECALL", "trial_index": 239}, "uniqueid": "MTK2953:358010RM5F0S6VS3F7C0Q2X6DX2XV1", "dateTime": 1519595973283}, {"current_trial": 240, "trialdata": {"rt": 1637, "trial_type": "text", "internal_node_id": "0.0-177.0", "time_elapsed": 1026227, "key_press": 13, "type": "INSTRUCTIONS", "trial_index": 240}, "uniqueid": "MTK2953:358010RM5F0S6VS3F7C0Q2X6DX2XV1", "dateTime": 1519595976922}, {"current_trial": 241, "trialdata": {"rt": [2321, 3651, 7640, 10835, 12920, 14512, 16521, 18374, 20041, 21436, 23512], "trial_type": "math-distractor", "key_times": [2038, 2095, 2321, 3303, 3476, 3651, 6663, 7208, 7331, 7337, 7504, 7640, 10493, 10610, 10835, 12683, 12742, 12920, 14100, 14250, 14512, 16089, 16332, 16521, 17843, 18215, 18374, 19900, 20041, 21194, 21436, 23203, 23388, 23512], "responses": ["19", "11", "24", "17", "19", "10", "15", "16", "5", "9", "11"], "num2": [9, 6, 6, 3, 9, 3, 5, 9, 1, 6, 2, 9], "num3": [1, 1, 8, 5, 7, 1, 4, 5, 2, 1, 5, 3], "conditions": [24, 1600, "v", 24000], "internal_node_id": "0.0-178.0", "key_presses": [49, 57, 13, 49, 49, 13, 49, 8, 8, 50, 52, 13, 49, 55, 13, 49, 57, 13, 49, 48, 13, 49, 53, 13, 49, 54, 13, 53, 13, 57, 13, 49, 49, 13], "trial": 7, "time_elapsed": 1052235, "type": "DISTRACTOR", "trial_index": 241, "num1": [9, 4, 9, 9, 3, 6, 6, 2, 2, 2, 4, 5]}, "uniqueid": "MTK2953:358010RM5F0S6VS3F7C0Q2X6DX2XV1", "dateTime": 1519596002930}, {"current_trial": 242, "trialdata": {"rt": -1, "trial_type": "single-stim", "stimulus": "<p id=\"stim\">10</p>", "internal_node_id": "0.0-179.0-0.0", "time_elapsed": 1055238, "key_press": -1, "trial_index": 242}, "uniqueid": "MTK2953:358010RM5F0S6VS3F7C0Q2X6DX2XV1", "dateTime": 1519596005933}, {"current_trial": 243, "trialdata": {"rt": -1, "trial_type": "single-stim", "stimulus": "<p id=\"stim\">9</p>", "internal_node_id": "0.0-179.0-1.0", "time_elapsed": 1056240, "key_press": -1, "trial_index": 243}, "uniqueid": "MTK2953:358010RM5F0S6VS3F7C0Q2X6DX2XV1", "dateTime": 1519596006935}, {"current_trial": 244, "trialdata": {"rt": -1, "trial_type": "single-stim", "stimulus": "<p id=\"stim\">8</p>", "internal_node_id": "0.0-179.0-2.0", "time_elapsed": 1057242, "key_press": -1, "trial_index": 244}, "uniqueid": "MTK2953:358010RM5F0S6VS3F7C0Q2X6DX2XV1", "dateTime": 1519596007937}, {"current_trial": 245, "trialdata": {"rt": -1, "trial_type": "single-stim", "stimulus": "<p id=\"stim\">7</p>", "internal_node_id": "0.0-179.0-3.0", "time_elapsed": 1058243, "key_press": -1, "trial_index": 245}, "uniqueid": "MTK2953:358010RM5F0S6VS3F7C0Q2X6DX2XV1", "dateTime": 1519596008941}, {"current_trial": 246, "trialdata": {"rt": -1, "trial_type": "single-stim", "stimulus": "<p id=\"stim\">6</p>", "internal_node_id": "0.0-179.0-4.0", "time_elapsed": 1059247, "key_press": -1, "trial_index": 246}, "uniqueid": "MTK2953:358010RM5F0S6VS3F7C0Q2X6DX2XV1", "dateTime": 1519596009942}, {"current_trial": 247, "trialdata": {"rt": -1, "trial_type": "single-stim", "stimulus": "<p id=\"stim\">5</p>", "internal_node_id": "0.0-179.0-5.0", "time_elapsed": 1060249, "key_press": -1, "trial_index": 247}, "uniqueid": "MTK2953:358010RM5F0S6VS3F7C0Q2X6DX2XV1", "dateTime": 1519596010945}, {"current_trial": 248, "trialdata": {"rt": -1, "trial_type": "single-stim", "stimulus": "<p id=\"stim\">4</p>", "internal_node_id": "0.0-179.0-6.0", "time_elapsed": 1061250, "key_press": -1, "trial_index": 248}, "uniqueid": "MTK2953:358010RM5F0S6VS3F7C0Q2X6DX2XV1", "dateTime": 1519596011945}, {"current_trial": 249, "trialdata": {"rt": -1, "trial_type": "single-stim", "stimulus": "<p id=\"stim\">3</p>", "internal_node_id": "0.0-179.0-7.0", "time_elapsed": 1062253, "key_press": -1, "trial_index": 249}, "uniqueid": "MTK2953:358010RM5F0S6VS3F7C0Q2X6DX2XV1", "dateTime": 1519596012948}, {"current_trial": 250, "trialdata": {"rt": -1, "trial_type": "single-stim", "stimulus": "<p id=\"stim\">2</p>", "internal_node_id": "0.0-179.0-8.0", "time_elapsed": 1063254, "key_press": -1, "trial_index": 250}, "uniqueid": "MTK2953:358010RM5F0S6VS3F7C0Q2X6DX2XV1", "dateTime": 1519596013950}, {"current_trial": 251, "trialdata": {"rt": -1, "trial_type": "single-stim", "stimulus": "<p id=\"stim\">1</p>", "internal_node_id": "0.0-179.0-9.0", "time_elapsed": 1064258, "key_press": -1, "trial_index": 251}, "uniqueid": "MTK2953:358010RM5F0S6VS3F7C0Q2X6DX2XV1", "dateTime": 1519596014953}, {"current_trial": 252, "trialdata": {"rt": -1, "trial_type": "single-stim", "stimulus": "<p id=\"stim\">+</p>", "internal_node_id": "0.0-180.0-0.0", "time_elapsed": 1065759, "key_press": -1, "type": "FIXATION", "trial_index": 252}, "uniqueid": "MTK2953:358010RM5F0S6VS3F7C0Q2X6DX2XV1", "dateTime": 1519596016455}, {"current_trial": 253, "trialdata": {"rt": -1, "trial_type": "single-stim", "word": "bacon", "stimulus": "<p id=\"stim\">BACON</p>", "conditions": [24, 1600, "v", 24000], "internal_node_id": "0.0-181.0", "trial": 7, "time_elapsed": 1067362, "serialpos": 0, "key_press": -1, "wordID": 66, "type": "PRES_VIS", "trial_index": 253}, "uniqueid": "MTK2953:358010RM5F0S6VS3F7C0Q2X6DX2XV1", "dateTime": 1519596018057}, {"current_trial": 254, "trialdata": {"rt": -1, "trial_type": "single-stim", "word": "turkey", "stimulus": "<p id=\"stim\">TURKEY</p>", "conditions": [24, 1600, "v", 24000], "internal_node_id": "0.0-182.0", "trial": 7, "time_elapsed": 1069859, "serialpos": 1, "key_press": -1, "wordID": 1519, "type": "PRES_VIS", "trial_index": 254}, "uniqueid": "MTK2953:358010RM5F0S6VS3F7C0Q2X6DX2XV1", "dateTime": 1519596020554}, {"current_trial": 255, "trialdata": {"rt": -1, "trial_type": "single-stim", "word": "pecan", "stimulus": "<p id=\"stim\">PECAN</p>", "conditions": [24, 1600, "v", 24000], "internal_node_id": "0.0-183.0", "trial": 7, "time_elapsed": 1072659, "serialpos": 2, "key_press": -1, "wordID": 1035, "type": "PRES_VIS", "trial_index": 255}, "uniqueid": "MTK2953:358010RM5F0S6VS3F7C0Q2X6DX2XV1", "dateTime": 1519596023354}, {"current_trial": 256, "trialdata": {"rt": -1, "trial_type": "single-stim", "word": "shark", "stimulus": "<p id=\"stim\">SHARK</p>", "conditions": [24, 1600, "v", 24000], "internal_node_id": "0.0-184.0", "trial": 7, "time_elapsed": 1075225, "serialpos": 3, "key_press": -1, "wordID": 1274, "type": "PRES_VIS", "trial_index": 256}, "uniqueid": "MTK2953:358010RM5F0S6VS3F7C0Q2X6DX2XV1", "dateTime": 1519596025921}, {"current_trial": 257, "trialdata": {"rt": -1, "trial_type": "single-stim", "word": "honey", "stimulus": "<p id=\"stim\">HONEY</p>", "conditions": [24, 1600, "v", 24000], "internal_node_id": "0.0-185.0", "trial": 7, "time_elapsed": 1077963, "serialpos": 4, "key_press": -1, "wordID": 712, "type": "PRES_VIS", "trial_index": 257}, "uniqueid": "MTK2953:358010RM5F0S6VS3F7C0Q2X6DX2XV1", "dateTime": 1519596028658}, {"current_trial"