{"assignmentId": "378XPAWRUDKBOC0A5QL3R5WE223AI1", "workerId": "MTK2233", "questiondata": {"origin": "United States", "strat-rehearsal": "0", "marital": "Divorced", "education": "Bachelor's degree", "ethnicity": "Not Hispanic", "color_depth": 24, "distracted": "No", "wrote-notes": "No", "strat-other": "as each word was said, I tried to attach it to something in my life..for example for infant,i visualized my son, for temple my place of worship, for ox, the farm down the road etc,etc", "screen_width": 1366, "avail_screen_width": 1366, "avail_screen_height": 728, "strat-image": "40", "language": "english", "gender": "Female", "age": "37", "gender_other": "", "race": ["Black"], "strat-categorize": "100", "pixel_depth": 24, "strat-spatial": "0", "strat-story": "0", "race_other": "", "screen_height": 768}, "bonus": 0, "hitId": "3M7OI89LVYVH1N4DX133BD0DAMG6CE", "counterbalance": 1453, "useragent": "Mozilla/5.0 (Windows NT 10.0; Win64; x64) AppleWebKit/537.36 (KHTML, like Gecko) Chrome/63.0.3239.132 Safari/537.36", "eventdata": [{"eventtype": "initialized", "interval": 0, "value": null, "timestamp": 1516899348217}, {"eventtype": "window_resize", "interval": 0, "value": [1366, 721], "timestamp": 1516899348217}, {"eventtype": "window_resize", "interval": 45582, "value": [1366, 677], "timestamp": 1516899393799}, {"eventtype": "window_resize", "interval": 4654, "value": [1366, 721], "timestamp": 1516899398453}, {"eventtype": "focus", "interval": 2392423, "value": "off", "timestamp": 1516901790876}, {"eventtype": "focus", "interval": 3099, "value": "on", "timestamp": 1516901793975}, {"eventtype": "focus", "interval": 1, "value": "on", "timestamp": 1516901793976}, {"eventtype": "focus", "interval": 675133, "value": "off", "timestamp": 1516902469109}, {"eventtype": "focus", "interval": 8862, "value": "on", "timestamp": 1516902477971}], "data": [{"current_trial": 0, "trialdata": {"rt": 8688, "trial_type": "text", "internal_node_id": "0.0-0.0", "time_elapsed": 8691, "key_press": 32, "type": "INSTRUCTIONS", "trial_index": 0}, "uniqueid": "MTK2233:378XPAWRUDKBOC0A5QL3R5WE223AI1", "dateTime": 1516899364972}, {"current_trial": 1, "trialdata": {"rt": 19074, "trial_type": "text", "internal_node_id": "0.0-1.0", "time_elapsed": 27768, "key_press": 32, "type": "INSTRUCTIONS", "trial_index": 1}, "uniqueid": "MTK2233:378XPAWRUDKBOC0A5QL3R5WE223AI1", "dateTime": 1516899384049}, {"current_trial": 2, "trialdata": {"rt": [15963], "trial_type": "audio-test", "responses": ["ocean"], "internal_node_id": "0.0-2.0", "time_elapsed": 43752, "type": "AUDIO_TEST", "trial_index": 2}, "uniqueid": "MTK2233:378XPAWRUDKBOC0A5QL3R5WE223AI1", "dateTime": 1516899400034}, {"current_trial": 3, "trialdata": {"rt": [5945], "trial_type": "audio-test", "responses": ["crystal"], "internal_node_id": "0.0-3.0", "time_elapsed": 49702, "type": "AUDIO_TEST", "trial_index": 3}, "uniqueid": "MTK2233:378XPAWRUDKBOC0A5QL3R5WE223AI1", "dateTime": 1516899405983}, {"current_trial": 4, "trialdata": {"rt": [18453], "trial_type": "audio-test", "responses": ["spice"], "internal_node_id": "0.0-4.0", "time_elapsed": 68160, "type": "AUDIO_TEST", "trial_index": 4}, "uniqueid": "MTK2233:378XPAWRUDKBOC0A5QL3R5WE223AI1", "dateTime": 1516899424441}, {"current_trial": 5, "trialdata": {"rt": 20896, "trial_type": "survey-text", "responses": "{\"Q0\":\"11:30pm\",\"Q1\":\"7:00am\",\"Q2\":\"5\"}", "internal_node_id": "0.0-5.0", "time_elapsed": 89810, "type": "SLEEP_SURVEY", "trial_index": 5}, "uniqueid": "MTK2233:378XPAWRUDKBOC0A5QL3R5WE223AI1", "dateTime": 1516899446092}, {"current_trial": 6, "trialdata": {"rt": 83592, "trial_type": "text", "internal_node_id": "0.0-6.0", "time_elapsed": 174406, "key_press": 32, "type": "INSTRUCTIONS", "trial_index": 6}, "uniqueid": "MTK2233:378XPAWRUDKBOC0A5QL3R5WE223AI1", "dateTime": 1516899530687}, {"current_trial": 7, "trialdata": {"rt": 35815, "trial_type": "text", "internal_node_id": "0.0-7.0", "time_elapsed": 210725, "key_press": 32, "type": "INSTRUCTIONS", "trial_index": 7}, "uniqueid": "MTK2233:378XPAWRUDKBOC0A5QL3R5WE223AI1", "dateTime": 1516899567006}, {"current_trial": 8, "trialdata": {"rt": 7924, "trial_type": "text", "internal_node_id": "0.0-8.0", "time_elapsed": 219153, "key_press": 32, "type": "INSTRUCTIONS", "trial_index": 8}, "uniqueid": "MTK2233:378XPAWRUDKBOC0A5QL3R5WE223AI1", "dateTime": 1516899575434}, {"current_trial": 9, "trialdata": {"rt": [4764, 7413, 9895, 16452], "trial_type": "math-distractor", "key_times": [3282, 4764, 6895, 7032, 7413, 9409, 9895, 15608, 15768, 16452], "responses": ["9", "19", "6", "15"], "num2": [3, 6, 1, 1, 6], "num3": [5, 4, 4, 6, 5], "conditions": [18, 1200, "a", 18000], "internal_node_id": "0.0-9.0", "key_presses": [57, 13, 49, 57, 13, 54, 13, 49, 53, 13], "trial": 0, "time_elapsed": 238164, "type": "DISTRACTOR", "trial_index": 9, "num1": [1, 9, 1, 8, 7]}, "uniqueid": "MTK2233:378XPAWRUDKBOC0A5QL3R5WE223AI1", "dateTime": 1516899594445}, {"current_trial": 10, "trialdata": {"rt": -1, "trial_type": "single-stim", "stimulus": "<p id=\"stim\">10</p>", "internal_node_id": "0.0-10.0-0.0", "time_elapsed": 241167, "key_press": -1, "trial_index": 10}, "uniqueid": "MTK2233:378XPAWRUDKBOC0A5QL3R5WE223AI1", "dateTime": 1516899597448}, {"current_trial": 11, "trialdata": {"rt": -1, "trial_type": "single-stim", "stimulus": "<p id=\"stim\">9</p>", "internal_node_id": "0.0-10.0-1.0", "time_elapsed": 242169, "key_press": -1, "trial_index": 11}, "uniqueid": "MTK2233:378XPAWRUDKBOC0A5QL3R5WE223AI1", "dateTime": 1516899598450}, {"current_trial": 12, "trialdata": {"rt": -1, "trial_type": "single-stim", "stimulus": "<p id=\"stim\">8</p>", "internal_node_id": "0.0-10.0-2.0", "time_elapsed": 243170, "key_press": -1, "trial_index": 12}, "uniqueid": "MTK2233:378XPAWRUDKBOC0A5QL3R5WE223AI1", "dateTime": 1516899599451}, {"current_trial": 13, "trialdata": {"rt": -1, "trial_type": "single-stim", "stimulus": "<p id=\"stim\">7</p>", "internal_node_id": "0.0-10.0-3.0", "time_elapsed": 244176, "key_press": -1, "trial_index": 13}, "uniqueid": "MTK2233:378XPAWRUDKBOC0A5QL3R5WE223AI1", "dateTime": 1516899600457}, {"current_trial": 14, "trialdata": {"rt": -1, "trial_type": "single-stim", "stimulus": "<p id=\"stim\">6</p>", "internal_node_id": "0.0-10.0-4.0", "time_elapsed": 245178, "key_press": -1, "trial_index": 14}, "uniqueid": "MTK2233:378XPAWRUDKBOC0A5QL3R5WE223AI1", "dateTime": 1516899601459}, {"current_trial": 15, "trialdata": {"rt": -1, "trial_type": "single-stim", "stimulus": "<p id=\"stim\">5</p>", "internal_node_id": "0.0-10.0-5.0", "time_elapsed": 246179, "key_press": -1, "trial_index": 15}, "uniqueid": "MTK2233:378XPAWRUDKBOC0A5QL3R5WE223AI1", "dateTime": 1516899602460}, {"current_trial": 16, "trialdata": {"rt": -1, "trial_type": "single-stim", "stimulus": "<p id=\"stim\">4</p>", "internal_node_id": "0.0-10.0-6.0", "time_elapsed": 247180, "key_press": -1, "trial_index": 16}, "uniqueid": "MTK2233:378XPAWRUDKBOC0A5QL3R5WE223AI1", "dateTime": 1516899603461}, {"current_trial": 17, "trialdata": {"rt": -1, "trial_type": "single-stim", "stimulus": "<p id=\"stim\">3</p>", "internal_node_id": "0.0-10.0-7.0", "time_elapsed": 248182, "key_press": -1, "trial_index": 17}, "uniqueid": "MTK2233:378XPAWRUDKBOC0A5QL3R5WE223AI1", "dateTime": 1516899604463}, {"current_trial": 18, "trialdata": {"rt": -1, "trial_type": "single-stim", "stimulus": "<p id=\"stim\">2</p>", "internal_node_id": "0.0-10.0-8.0", "time_elapsed": 249186, "key_press": -1, "trial_index": 18}, "uniqueid": "MTK2233:378XPAWRUDKBOC0A5QL3R5WE223AI1", "dateTime": 1516899605467}, {"current_trial": 19, "trialdata": {"rt": -1, "trial_type": "single-stim", "stimulus": "<p id=\"stim\">1</p>", "internal_node_id": "0.0-10.0-9.0", "time_elapsed": 250189, "key_press": -1, "trial_index": 19}, "uniqueid": "MTK2233:378XPAWRUDKBOC0A5QL3R5WE223AI1", "dateTime": 1516899606470}, {"current_trial": 20, "trialdata": {"rt": -1, "trial_type": "single-stim", "stimulus": "<p id=\"stim\">+</p>", "internal_node_id": "0.0-11.0-0.0", "time_elapsed": 251691, "key_press": -1, "type": "FIXATION", "trial_index": 20}, "uniqueid": "MTK2233:378XPAWRUDKBOC0A5QL3R5WE223AI1", "dateTime": 1516899607972}, {"current_trial": 21, "trialdata": {"rt": -1000, "trial_type": "single-audio", "word": "cellar", "stimulus": "/static/audio/wordpool/CELLAR.wav", "conditions": [18, 1200, "a", 18000], "internal_node_id": "0.0-12.0", "trial": 0, "time_elapsed": 253992, "serialpos": 0, "key_press": -1, "wordID": 266, "type": "PRES_AUD", "trial_index": 21}, "uniqueid": "MTK2233:378XPAWRUDKBOC0A5QL3R5WE223AI1", "dateTime": 1516899610274}, {"current_trial": 22, "trialdata": {"rt": -1000, "trial_type": "single-audio", "word": "hornet", "stimulus": "/static/audio/wordpool/HORNET.wav", "conditions": [18, 1200, "a", 18000], "internal_node_id": "0.0-13.0", "trial": 0, "time_elapsed": 256098, "serialpos": 1, "key_press": -1, "wordID": 717, "type": "PRES_AUD", "trial_index": 22}, "uniqueid": "MTK2233:378XPAWRUDKBOC0A5QL3R5WE223AI1", "dateTime": 1516899612379}, {"current_trial": 23, "trialdata": {"rt": -1000, "trial_type": "single-audio", "word": "cottage", "stimulus": "/static/audio/wordpool/COTTAGE.wav", "conditions": [18, 1200, "a", 18000], "internal_node_id": "0.0-14.0", "trial": 0, "time_elapsed": 258407, "serialpos": 2, "key_press": -1, "wordID": 383, "type": "PRES_AUD", "trial_index": 23}, "uniqueid": "MTK2233:378XPAWRUDKBOC0A5QL3R5WE223AI1", "dateTime": 1516899614688}, {"current_trial": 24, "trialdata": {"rt": -1000, "trial_type": "single-audio", "word": "lumber", "stimulus": "/static/audio/wordpool/LUMBER.wav", "conditions": [18, 1200, "a", 18000], "internal_node_id": "0.0-15.0", "trial": 0, "time_elapsed": 260777, "serialpos": 3, "key_press": -1, "wordID": 847, "type": "PRES_AUD", "trial_index": 24}, "uniqueid": "MTK2233:378XPAWRUDKBOC0A5QL3R5WE223AI1", "dateTime": 1516899617058}, {"current_trial": 25, "trialdata": {"rt": -1000, "trial_type": "single-audio", "word": "flesh", "stimulus": "/static/audio/wordpool/FLESH.wav", "conditions": [18, 1200, "a", 18000], "internal_node_id": "0.0-16.0", "trial": 0, "time_elapsed": 263061, "serialpos": 4, "key_press": -1, "wordID": 578, "type": "PRES_AUD", "trial_index": 25}, "uniqueid": "MTK2233:378XPAWRUDKBOC0A5QL3R5WE223AI1", "dateTime": 1516899619342}, {"current_trial": 26, "trialdata": {"rt": -1000, "trial_type": "single-audio", "word": "sunset", "stimulus": "/static/audio/wordpool/SUNSET.wav", "conditions": [18, 1200, "a", 18000], "internal_node_id": "0.0-17.0", "trial": 0, "time_elapsed": 265338, "serialpos": 5, "key_press": -1, "wordID": 1407, "type": "PRES_AUD", "trial_index": 26}, "uniqueid": "MTK2233:378XPAWRUDKBOC0A5QL3R5WE223AI1", "dateTime": 1516899621619}, {"current_trial": 27, "trialdata": {"rt": -1000, "trial_type": "single-audio", "word": "donor", "stimulus": "/static/audio/wordpool/DONOR.wav", "conditions": [18, 1200, "a", 18000], "internal_node_id": "0.0-18.0", "trial": 0, "time_elapsed": 267381, "serialpos": 6, "key_press": -1, "wordID": 484, "type": "PRES_AUD", "trial_index": 27}, "uniqueid": "MTK2233:378XPAWRUDKBOC0A5QL3R5WE223AI1", "dateTime": 1516899623662}, {"current_trial": 28, "trialdata": {"rt": -1000, "trial_type": "single-audio", "word": "blender", "stimulus": "/static/audio/wordpool/BLENDER.wav", "conditions": [18, 1200, "a", 18000], "internal_node_id": "0.0-19.0", "trial": 0, "time_elapsed": 269536, "serialpos": 7, "key_press": -1, "wordID": 135, "type": "PRES_AUD", "trial_index": 28}, "uniqueid": "MTK2233:378XPAWRUDKBOC0A5QL3R5WE223AI1", "dateTime": 1516899625817}, {"current_trial": 29, "trialdata": {"rt": -1000, "trial_type": "single-audio", "word": "padding", "stimulus": "/static/audio/wordpool/PADDING.wav", "conditions": [18, 1200, "a", 18000], "internal_node_id": "0.0-20.0", "trial": 0, "time_elapsed": 271582, "serialpos": 8, "key_press": -1, "wordID": 998, "type": "PRES_AUD", "trial_index": 29}, "uniqueid": "MTK2233:378XPAWRUDKBOC0A5QL3R5WE223AI1", "dateTime": 1516899627863}, {"current_trial": 30, "trialdata": {"rt": -1000, "trial_type": "single-audio", "word": "waitress", "stimulus": "/static/audio/wordpool/WAITRESS.wav", "conditions": [18, 1200, "a", 18000], "internal_node_id": "0.0-21.0", "trial": 0, "time_elapsed": 273925, "serialpos": 9, "key_press": -1, "wordID": 1580, "type": "PRES_AUD", "trial_index": 30}, "uniqueid": "MTK2233:378XPAWRUDKBOC0A5QL3R5WE223AI1", "dateTime": 1516899630206}, {"current_trial": 31, "trialdata": {"rt": -1000, "trial_type": "single-audio", "word": "sculpture", "stimulus": "/static/audio/wordpool/SCULPTURE.wav", "conditions": [18, 1200, "a", 18000], "internal_node_id": "0.0-22.0", "trial": 0, "time_elapsed": 276311, "serialpos": 10, "key_press": -1, "wordID": 1257, "type": "PRES_AUD", "trial_index": 31}, "uniqueid": "MTK2233:378XPAWRUDKBOC0A5QL3R5WE223AI1", "dateTime": 1516899632592}, {"current_trial": 32, "trialdata": {"rt": -1000, "trial_type": "single-audio", "word": "scribble", "stimulus": "/static/audio/wordpool/SCRIBBLE.wav", "conditions": [18, 1200, "a", 18000], "internal_node_id": "0.0-23.0", "trial": 0, "time_elapsed": 278558, "serialpos": 11, "key_press": -1, "wordID": 1255, "type": "PRES_AUD", "trial_index": 32}, "uniqueid": "MTK2233:378XPAWRUDKBOC0A5QL3R5WE223AI1", "dateTime": 1516899634839}, {"current_trial": 33, "trialdata": {"rt": -1000, "trial_type": "single-audio", "word": "gavel", "stimulus": "/static/audio/wordpool/GAVEL.wav", "conditions": [18, 1200, "a", 18000], "internal_node_id": "0.0-24.0", "trial": 0, "time_elapsed": 280696, "serialpos": 12, "key_press": -1, "wordID": 626, "type": "PRES_AUD", "trial_index": 33}, "uniqueid": "MTK2233:378XPAWRUDKBOC0A5QL3R5WE223AI1", "dateTime": 1516899636977}, {"current_trial": 34, "trialdata": {"rt": -1000, "trial_type": "single-audio", "word": "island", "stimulus": "/static/audio/wordpool/ISLAND.wav", "conditions": [18, 1200, "a", 18000], "internal_node_id": "0.0-25.0", "trial": 0, "time_elapsed": 282786, "serialpos": 13, "key_press": -1, "wordID": 744, "type": "PRES_AUD", "trial_index": 34}, "uniqueid": "MTK2233:378XPAWRUDKBOC0A5QL3R5WE223AI1", "dateTime": 1516899639067}, {"current_trial": 35, "trialdata": {"rt": -1000, "trial_type": "single-audio", "word": "gymnast", "stimulus": "/static/audio/wordpool/GYMNAST.wav", "conditions": [18, 1200, "a", 18000], "internal_node_id": "0.0-26.0", "trial": 0, "time_elapsed": 285008, "serialpos": 14, "key_press": -1, "wordID": 674, "type": "PRES_AUD", "trial_index": 35}, "uniqueid": "MTK2233:378XPAWRUDKBOC0A5QL3R5WE223AI1", "dateTime": 1516899641289}, {"current_trial": 36, "trialdata": {"rt": -1000, "trial_type": "single-audio", "word": "lettuce", "stimulus": "/static/audio/wordpool/LETTUCE.wav", "conditions": [18, 1200, "a", 18000], "internal_node_id": "0.0-27.0", "trial": 0, "time_elapsed": 287133, "serialpos": 15, "key_press": -1, "wordID": 813, "type": "PRES_AUD", "trial_index": 36}, "uniqueid": "MTK2233:378XPAWRUDKBOC0A5QL3R5WE223AI1", "dateTime": 1516899643414}, {"current_trial": 37, "trialdata": {"rt": -1000, "trial_type": "single-audio", "word": "catcher", "stimulus": "/static/audio/wordpool/CATCHER.wav", "conditions": [18, 1200, "a", 18000], "internal_node_id": "0.0-28.0", "trial": 0, "time_elapsed": 289345, "serialpos": 16, "key_press": -1, "wordID": 257, "type": "PRES_AUD", "trial_index": 37}, "uniqueid": "MTK2233:378XPAWRUDKBOC0A5QL3R5WE223AI1", "dateTime": 1516899645626}, {"current_trial": 38, "trialdata": {"rt": -1000, "trial_type": "single-audio", "word": "journal", "stimulus": "/static/audio/wordpool/JOURNAL.wav", "conditions": [18, 1200, "a", 18000], "internal_node_id": "0.0-29.0", "trial": 0, "time_elapsed": 291500, "serialpos": 17, "key_press": -1, "wordID": 759, "type": "PRES_AUD", "trial_index": 38}, "uniqueid": "MTK2233:378XPAWRUDKBOC0A5QL3R5WE223AI1", "dateTime": 1516899647781}, {"current_trial": 39, "trialdata": {"rt": -1, "trial_type": "single-stim", "stimulus": "", "internal_node_id": "0.0-30.0-0.0", "time_elapsed": 292898, "key_press": -1, "type": "PRE_RECALL_DELAY", "trial_index": 39}, "uniqueid": "MTK2233:378XPAWRUDKBOC0A5QL3R5WE223AI1", "dateTime": 1516899649179}, {"current_trial": 40, "trialdata": {"rt": -1000, "trial_type": "single-audio", "stimulus": "/static/audio/400Hz.wav", "internal_node_id": "0.0-31.0", "time_elapsed": 293401, "key_press": -1, "type": "PRE_RECALL_ALERT", "trial_index": 40}, "uniqueid": "MTK2233:378XPAWRUDKBOC0A5QL3R5WE223AI1", "dateTime": 1516899649682}, {"current_trial": 41, "trialdata": {"rt": [6143, 8925, 13309, 16564, 18537, 21214, 22763, 26931, 30107, 32409], "recwords": ["flash", "journal", "lettuce", "waitress", "sunset", "donor", "lumber", "salad", "island", "scribble"], "key_times": [5066, 5194, 5331, 5551, 5642, 6143, 6933, 7121, 7320, 7494, 7661, 7833, 7962, 8925, 11535, 12131, 12398, 12616, 12725, 12905, 13083, 13309, 14098, 14337, 14471, 14617, 14883, 15205, 15521, 15696, 16564, 16970, 17122, 17324, 17539, 17991, 18171, 18537, 20012, 20118, 20423, 20664, 20771, 21214, 21537, 21784, 22027, 22218, 22369, 22486, 22763, 25223, 25472, 25667, 26343, 26618, 26931, 27369, 27577, 27825, 27972, 28567, 28750, 29006, 29172, 29406, 29594, 30107, 30723, 31006, 31235, 31337, 31613, 31789, 32056, 32200, 32409], "trial_type": "free-recall", "conditions": [18, 1200, "a", 18000], "internal_node_id": "0.0-32.0-0.0", "key_presses": [70, 76, 65, 83, 72, 13, 74, 79, 85, 82, 78, 65, 76, 13, 76, 69, 84, 84, 85, 67, 69, 13, 87, 65, 73, 84, 82, 69, 83, 83, 13, 83, 85, 78, 83, 69, 84, 13, 68, 79, 78, 79, 82, 13, 76, 85, 77, 66, 69, 82, 13, 83, 65, 76, 65, 68, 13, 73, 83, 65, 76, 8, 8, 76, 65, 78, 68, 13, 83, 67, 82, 73, 66, 66, 76, 69, 13], "trial": 0, "time_elapsed": 353407, "type": "FREE_RECALL", "trial_index": 41}, "uniqueid": "MTK2233:378XPAWRUDKBOC0A5QL3R5WE223AI1", "dateTime": 1516899709691}, {"current_trial": 42, "trialdata": {"rt": 5098, "trial_type": "text", "internal_node_id": "0.0-33.0", "time_elapsed": 360512, "key_press": 32, "type": "INSTRUCTIONS", "trial_index": 42}, "uniqueid": "MTK2233:378XPAWRUDKBOC0A5QL3R5WE223AI1", "dateTime": 1516899716793}, {"current_trial": 43, "trialdata": {"rt": [2670, 8078, 10619, 12888, 15594], "trial_type": "math-distractor", "key_times": [1817, 2063, 2670, 7409, 7692, 8078, 9549, 9935, 10619, 12242, 12447, 12888, 14702, 14897, 15594], "responses": ["11", "19", "14", "16", "17"], "num2": [1, 9, 4, 5, 9, 4], "num3": [4, 4, 9, 5, 1, 8], "conditions": [18, 1200, "a", 18000], "internal_node_id": "0.0-34.0", "key_presses": [49, 49, 13, 49, 57, 13, 49, 52, 13, 49, 54, 13, 49, 55, 13], "trial": 1, "time_elapsed": 380521, "type": "DISTRACTOR", "trial_index": 43, "num1": [6, 6, 1, 6, 7, 4]}, "uniqueid": "MTK2233:378XPAWRUDKBOC0A5QL3R5WE223AI1", "dateTime": 1516899736802}, {"current_trial": 44, "trialdata": {"rt": -1, "trial_type": "single-stim", "stimulus": "<p id=\"stim\">10</p>", "internal_node_id": "0.0-35.0-0.0", "time_elapsed": 383524, "key_press": -1, "trial_index": 44}, "uniqueid": "MTK2233:378XPAWRUDKBOC0A5QL3R5WE223AI1", "dateTime": 1516899739806}, {"current_trial": 45, "trialdata": {"rt": -1, "trial_type": "single-stim", "stimulus": "<p id=\"stim\">9</p>", "internal_node_id": "0.0-35.0-1.0", "time_elapsed": 384526, "key_press": -1, "trial_index": 45}, "uniqueid": "MTK2233:378XPAWRUDKBOC0A5QL3R5WE223AI1", "dateTime": 1516899740807}, {"current_trial": 46, "trialdata": {"rt": -1, "trial_type": "single-stim", "stimulus": "<p id=\"stim\">8</p>", "internal_node_id": "0.0-35.0-2.0", "time_elapsed": 385527, "key_press": -1, "trial_index": 46}, "uniqueid": "MTK2233:378XPAWRUDKBOC0A5QL3R5WE223AI1", "dateTime": 1516899741808}, {"current_trial": 47, "trialdata": {"rt": -1, "trial_type": "single-stim", "stimulus": "<p id=\"stim\">7</p>", "internal_node_id": "0.0-35.0-3.0", "time_elapsed": 386529, "key_press": -1, "trial_index": 47}, "uniqueid": "MTK2233:378XPAWRUDKBOC0A5QL3R5WE223AI1", "dateTime": 1516899742810}, {"current_trial": 48, "trialdata": {"rt": -1, "trial_type": "single-stim", "stimulus": "<p id=\"stim\">6</p>", "internal_node_id": "0.0-35.0-4.0", "time_elapsed": 387530, "key_press": -1, "trial_index": 48}, "uniqueid": "MTK2233:378XPAWRUDKBOC0A5QL3R5WE223AI1", "dateTime": 1516899743811}, {"current_trial": 49, "trialdata": {"rt": -1, "trial_type": "single-stim", "stimulus": "<p id=\"stim\">5</p>", "internal_node_id": "0.0-35.0-5.0", "time_elapsed": 388531, "key_press": -1, "trial_index": 49}, "uniqueid": "MTK2233:378XPAWRUDKBOC0A5QL3R5WE223AI1", "dateTime": 1516899744812}, {"current_trial": 50, "trialdata": {"rt": -1, "trial_type": "single-stim", "stimulus": "<p id=\"stim\">4</p>", "internal_node_id": "0.0-35.0-6.0", "time_elapsed": 389533, "key_press": -1, "trial_index": 50}, "uniqueid": "MTK2233:378XPAWRUDKBOC0A5QL3R5WE223AI1", "dateTime": 1516899745814}, {"current_trial": 51, "trialdata": {"rt": -1, "trial_type": "single-stim", "stimulus": "<p id=\"stim\">3</p>", "internal_node_id": "0.0-35.0-7.0", "time_elapsed": 390535, "key_press": -1, "trial_index": 51}, "uniqueid": "MTK2233:378XPAWRUDKBOC0A5QL3R5WE223AI1", "dateTime": 1516899746816}, {"current_trial": 52, "trialdata": {"rt": -1, "trial_type": "single-stim", "stimulus": "<p id=\"stim\">2</p>", "internal_node_id": "0.0-35.0-8.0", "time_elapsed": 391536, "key_press": -1, "trial_index": 52}, "uniqueid": "MTK2233:378XPAWRUDKBOC0A5QL3R5WE223AI1", "dateTime": 1516899747817}, {"current_trial": 53, "trialdata": {"rt": -1, "trial_type": "single-stim", "stimulus": "<p id=\"stim\">1</p>", "internal_node_id": "0.0-35.0-9.0", "time_elapsed": 392540, "key_press": -1, "trial_index": 53}, "uniqueid": "MTK2233:378XPAWRUDKBOC0A5QL3R5WE223AI1", "dateTime": 1516899748822}, {"current_trial": 54, "trialdata": {"rt": -1, "trial_type": "single-stim", "stimulus": "<p id=\"stim\">+</p>", "internal_node_id": "0.0-36.0-0.0", "time_elapsed": 394042, "key_press": -1, "type": "FIXATION", "trial_index": 54}, "uniqueid": "MTK2233:378XPAWRUDKBOC0A5QL3R5WE223AI1", "dateTime": 1516899750324}, {"current_trial": 55, "trialdata": {"rt": -1000, "trial_type": "single-audio", "word": "parsley", "stimulus": "/static/audio/wordpool/PARSLEY.wav", "conditions": [18, 1200, "a", 18000], "internal_node_id": "0.0-37.0", "trial": 1, "time_elapsed": 396375, "serialpos": 0, "key_press": -1, "wordID": 1015, "type": "PRES_AUD", "trial_index": 55}, "uniqueid": "MTK2233:378XPAWRUDKBOC0A5QL3R5WE223AI1", "dateTime": 1516899752656}, {"current_trial": 56, "trialdata": {"rt": -1000, "trial_type": "single-audio", "word": "ankle", "stimulus": "/static/audio/wordpool/ANKLE.wav", "conditions": [18, 1200, "a", 18000], "internal_node_id": "0.0-38.0", "trial": 1, "time_elapsed": 398571, "serialpos": 1, "key_press": -1, "wordID": 23, "type": "PRES_AUD", "trial_index": 56}, "uniqueid": "MTK2233:378XPAWRUDKBOC0A5QL3R5WE223AI1", "dateTime": 1516899754852}, {"current_trial": 57, "trialdata": {"rt": -1000, "trial_type": "single-audio", "word": "passage", "stimulus": "/static/audio/wordpool/PASSAGE.wav", "conditions": [18, 1200, "a", 18000], "internal_node_id": "0.0-39.0", "trial": 1, "time_elapsed": 400965, "serialpos": 2, "key_press": -1, "wordID": 1018, "type": "PRES_AUD", "trial_index": 57}, "uniqueid": "MTK2233:378XPAWRUDKBOC0A5QL3R5WE223AI1", "dateTime": 1516899757246}, {"current_trial": 58, "trialdata": {"rt": -1000, "trial_type": "single-audio", "word": "sandwich", "stimulus": "/static/audio/wordpool/SANDWICH.wav", "conditions": [18, 1200, "a", 18000], "internal_node_id": "0.0-40.0", "trial": 1, "time_elapsed": 402979, "serialpos": 3, "key_press": -1, "wordID": 1231, "type": "PRES_AUD", "trial_index": 58}, "uniqueid": "MTK2233:378XPAWRUDKBOC0A5QL3R5WE223AI1", "dateTime": 1516899759260}, {"current_trial": 59, "trialdata": {"rt": -1000, "trial_type": "single-audio", "word": "spool", "stimulus": "/static/audio/wordpool/SPOOL.wav", "conditions": [18, 1200, "a", 18000], "internal_node_id": "0.0-41.0", "trial": 1, "time_elapsed": 405303, "serialpos": 4, "key_press": -1, "wordID": 1355, "type": "PRES_AUD", "trial_index": 59}, "uniqueid": "MTK2233:378XPAWRUDKBOC0A5QL3R5WE223AI1", "dateTime": 1516899761584}, {"current_trial": 60, "trialdata": {"rt": -1000, "trial_type": "single-audio", "word": "antler", "stimulus": "/static/audio/wordpool/ANTLER.wav", "conditions": [18, 1200, "a", 18000], "internal_node_id": "0.0-42.0", "trial": 1, "time_elapsed": 407533, "serialpos": 5, "key_press": -1, "wordID": 28, "type": "PRES_AUD", "trial_index": 60}, "uniqueid": "MTK2233:378XPAWRUDKBOC0A5QL3R5WE223AI1", "dateTime": 1516899763815}, {"current_trial": 61, "trialdata": {"rt": -1000, "trial_type": "single-audio", "word": "robot", "stimulus": "/static/audio/wordpool/ROBOT.wav", "conditions": [18, 1200, "a", 18000], "internal_node_id": "0.0-43.0", "trial": 1, "time_elapsed": 409748, "serialpos": 6, "key_press": -1, "wordID": 1199, "type": "PRES_AUD", "trial_index": 61}, "uniqueid": "MTK2233:378XPAWRUDKBOC0A5QL3R5WE223AI1", "dateTime": 1516899766029}, {"current_trial": 62, "trialdata": {"rt": -1000, "trial_type": "single-audio", "word": "forest", "stimulus": "/static/audio/wordpool/FOREST.wav", "conditions": [18, 1200, "a", 18000], "internal_node_id": "0.0-44.0", "trial": 1, "time_elapsed": 411956, "serialpos": 7, "key_press": -1, "wordID": 592, "type": "PRES_AUD", "trial_index": 62}, "uniqueid": "MTK2233:378XPAWRUDKBOC0A5QL3R5WE223AI1", "dateTime": 1516899768238}, {"current_trial": 63, "trialdata": {"rt": -1000, "trial_type": "single-audio", "word": "highway", "stimulus": "/static/audio/wordpool/HIGHWAY.wav", "conditions": [18, 1200, "a", 18000], "internal_node_id": "0.0-45.0", "trial": 1, "time_elapsed": 414065, "serialpos": 8, "key_press": -1, "wordID": 706, "type": "PRES_AUD", "trial_index": 63}, "uniqueid": "MTK2233:378XPAWRUDKBOC0A5QL3R5WE223AI1", "dateTime": 1516899770346}, {"current_trial": 64, "trialdata": {"rt": -1000, "trial_type": "single-audio", "word": "snake", "stimulus": "/static/audio/wordpool/SNAKE.wav", "conditions": [18, 1200, "a", 18000], "internal_node_id": "0.0-46.0", "trial": 1, "time_elapsed": 416263, "serialpos": 9, "key_press": -1, "wordID": 1332, "type": "PRES_AUD", "trial_index": 64}, "uniqueid": "MTK2233:378XPAWRUDKBOC0A5QL3R5WE223AI1", "dateTime": 1516899772544}, {"current_trial": 65, "trialdata": {"rt": -1000, "trial_type": "single-audio", "word": "judge", "stimulus": "/static/audio/wordpool/JUDGE.wav", "conditions": [18, 1200, "a", 18000], "internal_node_id": "0.0-47.0", "trial": 1, "time_elapsed": 418523, "serialpos": 10, "key_press": -1, "wordID": 760, "type": "PRES_AUD", "trial_index": 65}, "uniqueid": "MTK2233:378XPAWRUDKBOC0A5QL3R5WE223AI1", "dateTime": 1516899774805}, {"current_trial": 66, "trialdata": {"rt": -1000, "trial_type": "single-audio", "word": "table", "stimulus": "/static/audio/wordpool/TABLE.wav", "conditions": [18, 1200, "a", 18000], "internal_node_id": "0.0-48.0", "trial": 1, "time_elapsed": 420899, "serialpos": 11, "key_press": -1, "wordID": 1425, "type": "PRES_AUD", "trial_index": 66}, "uniqueid": "MTK2233:378XPAWRUDKBOC0A5QL3R5WE223AI1", "dateTime": 1516899777180}, {"current_trial": 67, "trialdata": {"rt": -1000, "trial_type": "single-audio", "word": "frame", "stimulus": "/static/audio/wordpool/FRAME.wav", "conditions": [18, 1200, "a", 18000], "internal_node_id": "0.0-49.0", "trial": 1, "time_elapsed": 423271, "serialpos": 12, "key_press": -1, "wordID": 599, "type": "PRES_AUD", "trial_index": 67}, "uniqueid": "MTK2233:378XPAWRUDKBOC0A5QL3R5WE223AI1", "dateTime": 1516899779552}, {"current_trial": 68, "trialdata": {"rt": -1000, "trial_type": "single-audio", "word": "fireplace", "stimulus": "/static/audio/wordpool/FIREPLACE.wav", "conditions": [18, 1200, "a", 18000], "internal_node_id": "0.0-50.0", "trial": 1, "time_elapsed": 425531, "serialpos": 13, "key_press": -1, "wordID": 569, "type": "PRES_AUD", "trial_index": 68}, "uniqueid": "MTK2233:378XPAWRUDKBOC0A5QL3R5WE223AI1", "dateTime": 1516899781815}, {"current_trial": 69, "trialdata": {"rt": -1000, "trial_type": "single-audio", "word": "inmate", "stimulus": "/static/audio/wordpool/INMATE.wav", "conditions": [18, 1200, "a", 18000], "internal_node_id": "0.0-51.0", "trial": 1, "time_elapsed": 427865, "serialpos": 14, "key_press": -1, "wordID": 737, "type": "PRES_AUD", "trial_index": 69}, "uniqueid": "MTK2233:378XPAWRUDKBOC0A5QL3R5WE223AI1", "dateTime": 1516899784146}, {"current_trial": 70, "trialdata": {"rt": -1000, "trial_type": "single-audio", "word": "salad", "stimulus": "/static/audio/wordpool/SALAD.wav", "conditions": [18, 1200, "a", 18000], "internal_node_id": "0.0-52.0", "trial": 1, "time_elapsed": 430002, "serialpos": 15, "key_press": -1, "wordID": 1223, "type": "PRES_AUD", "trial_index": 70}, "uniqueid": "MTK2233:378XPAWRUDKBOC0A5QL3R5WE223AI1", "dateTime": 1516899786283}, {"current_trial": 71, "trialdata": {"rt": -1000, "trial_type": "single-audio", "word": "lapel", "stimulus": "/static/audio/wordpool/LAPEL.wav", "conditions": [18, 1200, "a", 18000], "internal_node_id": "0.0-53.0", "trial": 1, "time_elapsed": 432138, "serialpos": 16, "key_press": -1, "wordID": 799, "type": "PRES_AUD", "trial_index": 71}, "uniqueid": "MTK2233:378XPAWRUDKBOC0A5QL3R5WE223AI1", "dateTime": 1516899788420}, {"current_trial": 72, "trialdata": {"rt": -1000, "trial_type": "single-audio", "word": "shirt", "stimulus": "/static/audio/wordpool/SHIRT.wav", "conditions": [18, 1200, "a", 18000], "internal_node_id": "0.0-54.0", "trial": 1, "time_elapsed": 434400, "serialpos": 17, "key_press": -1, "wordID": 1286, "type": "PRES_AUD", "trial_index": 72}, "uniqueid": "MTK2233:378XPAWRUDKBOC0A5QL3R5WE223AI1", "dateTime": 1516899790682}, {"current_trial": 73, "trialdata": {"rt": -1, "trial_type": "single-stim", "stimulus": "", "internal_node_id": "0.0-55.0-0.0", "time_elapsed": 435664, "key_press": -1, "type": "PRE_RECALL_DELAY", "trial_index": 73}, "uniqueid": "MTK2233:378XPAWRUDKBOC0A5QL3R5WE223AI1", "dateTime": 1516899791945}, {"current_trial": 74, "trialdata": {"rt": -1000, "trial_type": "single-audio", "stimulus": "/static/audio/400Hz.wav", "internal_node_id": "0.0-56.0", "time_elapsed": 436165, "key_press": -1, "type": "PRE_RECALL_ALERT", "trial_index": 74}, "uniqueid": "MTK2233:378XPAWRUDKBOC0A5QL3R5WE223AI1", "dateTime": 1516899792446}, {"current_trial": 75, "trialdata": {"rt": [2735, 5241, 7385, 13779, 16029, 20927, 23017, 25108, 29788, 32515, 34674, 37276, 43434, 45800, 54254], "recwords": ["shirt", "fireplace", "judge", "salad", "snake", "forest", "highway", "robot", "ankle", "passage", "school", "sandwich", "table", "frame", ""], "key_times": [1676, 1818, 2028, 2149, 2358, 2735, 3327, 3476, 3627, 3856, 4085, 4282, 4366, 4608, 4856, 5241, 6019, 6242, 6404, 6580, 7143, 7385, 10939, 11121, 11280, 11496, 12260, 12678, 12927, 13779, 14720, 14919, 15350, 15488, 15721, 16029, 19722, 19882, 20012, 20205, 20443, 20670, 20927, 21598, 21837, 21907, 22083, 22377, 22573, 22674, 23017, 23379, 23510, 23894, 24202, 24713, 25108, 28402, 28570, 28937, 29378, 29551, 29788, 30159, 30301, 30508, 30679, 30854, 31642, 31851, 32515, 32841, 33090, 33241, 33824, 34020, 34251, 34674, 35392, 35691, 35854, 36030, 36340, 36505, 36667, 36814, 37276, 42227, 42486, 42564, 42914, 43164, 43434, 44056, 44266, 44484, 44632, 44809, 45800, 54254], "trial_type": "free-recall", "conditions": [18, 1200, "a", 18000], "internal_node_id": "0.0-57.0-0.0", "key_presses": [83, 72, 73, 82, 84, 13, 70, 73, 82, 69, 80, 76, 65, 67, 69, 13, 74, 85, 68, 71, 69, 13, 83, 65, 76, 83, 8, 65, 68, 13, 83, 78, 65, 75, 69, 13, 70, 79, 82, 69, 83, 84, 13, 72, 73, 71, 72, 87, 65, 89, 13, 82, 79, 66, 79, 84, 13, 65, 78, 75, 76, 69, 13, 80, 65, 83, 83, 65, 71, 69, 13, 83, 67, 72, 79, 79, 76, 13, 83, 65, 78, 68, 87, 73, 67, 72, 13, 84, 65, 66, 76, 69, 13, 70, 82, 65, 77, 69, 13, 13], "trial": 1, "time_elapsed": 496166, "type": "FREE_RECALL", "trial_index": 75}, "uniqueid": "MTK2233:378XPAWRUDKBOC0A5QL3R5WE223AI1", "dateTime": 1516899852449}, {"current_trial": 76, "trialdata": {"rt": 10409, "trial_type": "text", "internal_node_id": "0.0-58.0", "time_elapsed": 508581, "key_press": 32, "type": "INSTRUCTIONS", "trial_index": 76}, "uniqueid": "MTK2233:378XPAWRUDKBOC0A5QL3R5WE223AI1", "dateTime": 1516899864862}, {"current_trial": 77, "trialdata": {"rt": [3455, 5411, 7972, 10529, 15299, 17704, 21820], "trial_type": "math-distractor", "key_times": [2487, 2598, 3455, 4909, 5082, 5411, 7702, 7972, 10306, 10529, 14842, 15035, 15299, 17177, 17309, 17704, 20467, 20594, 21820], "responses": ["13", "13", "9", "6", "12", "10", "18"], "num2": [3, 3, 7, 2, 1, 3, 4, 8], "num3": [5, 4, 1, 2, 7, 2, 5, 6], "conditions": [24, 800, "a", 24000], "internal_node_id": "0.0-59.0", "key_presses": [49, 51, 13, 49, 51, 13, 57, 13, 54, 13, 49, 50, 13, 49, 48, 13, 49, 56, 13], "trial": 2, "time_elapsed": 533590, "type": "DISTRACTOR", "trial_index": 77, "num1": [5, 6, 1, 2, 4, 5, 9, 8]}, "uniqueid": "MTK2233:378XPAWRUDKBOC0A5QL3R5WE223AI1", "dateTime": 1516899889871}, {"current_trial": 78, "trialdata": {"rt": -1, "trial_type": "single-stim", "stimulus": "<p id=\"stim\">10</p>", "internal_node_id": "0.0-60.0-0.0", "time_elapsed": 536592, "key_press": -1, "trial_index": 78}, "uniqueid": "MTK2233:378XPAWRUDKBOC0A5QL3R5WE223AI1", "dateTime": 1516899892874}, {"current_trial": 79, "trialdata": {"rt": -1, "trial_type": "single-stim", "stimulus": "<p id=\"stim\">9</p>", "internal_node_id": "0.0-60.0-1.0", "time_elapsed": 537597, "key_press": -1, "trial_index": 79}, "uniqueid": "MTK2233:378XPAWRUDKBOC0A5QL3R5WE223AI1", "dateTime": 1516899893878}, {"current_trial": 80, "trialdata": {"rt": -1, "trial_type": "single-stim", "stimulus": "<p id=\"stim\">8</p>", "internal_node_id": "0.0-60.0-2.0", "time_elapsed": 538602, "key_press": -1, "trial_index": 80}, "uniqueid": "MTK2233:378XPAWRUDKBOC0A5QL3R5WE223AI1", "dateTime": 1516899894883}, {"current_trial": 81, "trialdata": {"rt": -1, "trial_type": "single-stim", "stimulus": "<p id=\"stim\">7</p>", "internal_node_id": "0.0-60.0-3.0", "time_elapsed": 539606, "key_press": -1, "trial_index": 81}, "uniqueid": "MTK2233:378XPAWRUDKBOC0A5QL3R5WE223AI1", "dateTime": 1516899895888}, {"current_trial": 82, "trialdata": {"rt": -1, "trial_type": "single-stim", "stimulus": "<p id=\"stim\">6</p>", "internal_node_id": "0.0-60.0-4.0", "time_elapsed": 540611, "key_press": -1, "trial_index": 82}, "uniqueid": "MTK2233:378XPAWRUDKBOC0A5QL3R5WE223AI1", "dateTime": 1516899896892}, {"current_trial": 83, "trialdata": {"rt": -1, "trial_type": "single-stim", "stimulus": "<p id=\"stim\">5</p>", "internal_node_id": "0.0-60.0-5.0", "time_elapsed": 541615, "key_press": -1, "trial_index": 83}, "uniqueid": "MTK2233:378XPAWRUDKBOC0A5QL3R5WE223AI1", "dateTime": 1516899897896}, {"current_trial": 84, "trialdata": {"rt": -1, "trial_type": "single-stim", "stimulus": "<p id=\"stim\">4</p>", "internal_node_id": "0.0-60.0-6.0", "time_elapsed": 542619, "key_press": -1, "trial_index": 84}, "uniqueid": "MTK2233:378XPAWRUDKBOC0A5QL3R5WE223AI1", "dateTime": 1516899898901}, {"current_trial": 85, "trialdata": {"rt": -1, "trial_type": "single-stim", "stimulus": "<p id=\"stim\">3</p>", "internal_node_id": "0.0-60.0-7.0", "time_elapsed": 543624, "key_press": -1, "trial_index": 85}, "uniqueid": "MTK2233:378XPAWRUDKBOC0A5QL3R5WE223AI1", "dateTime": 1516899899905}, {"current_trial": 86, "trialdata": {"rt": -1, "trial_type": "single-stim", "stimulus": "<p id=\"stim\">2</p>", "internal_node_id": "0.0-60.0-8.0", "time_elapsed": 544629, "key_press": -1, "trial_index": 86}, "uniqueid": "MTK2233:378XPAWRUDKBOC0A5QL3R5WE223AI1", "dateTime": 1516899900910}, {"current_trial": 87, "trialdata": {"rt": -1, "trial_type": "single-stim", "stimulus": "<p id=\"stim\">1</p>", "internal_node_id": "0.0-60.0-9.0", "time_elapsed": 545631, "key_press": -1, "trial_index": 87}, "uniqueid": "MTK2233:378XPAWRUDKBOC0A5QL3R5WE223AI1", "dateTime": 1516899901912}, {"current_trial": 88, "trialdata": {"rt": -1, "trial_type": "single-stim", "stimulus": "<p id=\"stim\">+</p>", "internal_node_id": "0.0-61.0-0.0", "time_elapsed": 547132, "key_press": -1, "type": "FIXATION", "trial_index": 88}, "uniqueid": "MTK2233:378XPAWRUDKBOC0A5QL3R5WE223AI1", "dateTime": 1516899903414}, {"current_trial": 89, "trialdata": {"rt": -1000, "trial_type": "single-audio", "word": "clam", "stimulus": "/static/audio/wordpool/CLAM.wav", "conditions": [24, 800, "a", 24000], "internal_node_id": "0.0-62.0", "trial": 2, "time_elapsed": 548777, "serialpos": 0, "key_press": -1, "wordID": 314, "type": "PRES_AUD", "trial_index": 89}, "uniqueid": "MTK2233:378XPAWRUDKBOC0A5QL3R5WE223AI1", "dateTime": 1516899905058}, {"current_trial": 90, "trialdata": {"rt": -1000, "trial_type": "single-audio", "word": "cousin", "stimulus": "/static/audio/wordpool/COUSIN.wav", "conditions": [24, 800, "a", 24000], "internal_node_id": "0.0-63.0", "trial": 2, "time_elapsed": 550776, "serialpos": 1, "key_press": -1, "wordID": 391, "type": "PRES_AUD", "trial_index": 90}, "uniqueid": "MTK2233:378XPAWRUDKBOC0A5QL3R5WE223AI1", "dateTime": 1516899907057}, {"current_trial": 91, "trialdata": {"rt": -1000, "trial_type": "single-audio", "word": "salmon", "stimulus": "/static/audio/wordpool/SALMON.wav", "conditions": [24, 800, "a", 24000], "internal_node_id": "0.0-64.0", "trial": 2, "time_elapsed": 552417, "serialpos": 2, "key_press": -1, "wordID": 1226, "type": "PRES_AUD", "trial_index": 91}, "uniqueid": "MTK2233:378XPAWRUDKBOC0A5QL3R5WE223AI1", "dateTime": 1516899908698}, {"current_trial": 92, "trialdata": {"rt": -1000, "trial_type": "single-audio", "word": "sketch", "stimulus": "/static/audio/wordpool/SKETCH.wav", "conditions": [24, 800, "a", 24000], "internal_node_id": "0.0-65.0", "trial": 2, "time_elapsed": 554215, "serialpos": 3, "key_press": -1, "wordID": 1314, "type": "PRES_AUD", "trial_index": 92}, "uniqueid": "MTK2233:378XPAWRUDKBOC0A5QL3R5WE223AI1", "dateTime": 1516899910496}, {"current_trial": 93, "trialdata": {"rt": -1000, "trial_type": "single-audio", "word": "pastry", "stimulus": "/static/audio/wordpool/PASTRY.wav", "conditions": [24, 800, "a", 24000], "internal_node_id": "0.0-66.0", "trial": 2, "time_elapsed": 555964, "serialpos": 4, "key_press": -1, "wordID": 1021, "type": "PRES_AUD", "trial_index": 93}, "uniqueid": "MTK2233:378XPAWRUDKBOC0A5QL3R5WE223AI1", "dateTime": 1516899912245}, {"current_trial": 94, "trialdata": {"rt": -1000, "trial_type": "single-audio", "word": "doughnut", "stimulus": "/static/audio/wordpool/DOUGHNUT.wav", "conditions": [24, 800, "a", 24000], "internal_node_id": "0.0-67.0", "trial": 2, "time_elapsed": 557783, "serialpos": 5, "key_press": -1, "wordID": 489, "type": "PRES_AUD", "trial_index": 94}, "uniqueid": "MTK2233:378XPAWRUDKBOC0A5QL3R5WE223AI1", "dateTime": 1516899914065}, {"current_trial": 95, "trialdata": {"rt": -1000, "trial_type": "single-audio", "word": "backbone", "stimulus": "/static/audio/wordpool/BACKBONE.wav", "conditions": [24, 800, "a", 24000], "internal_node_id": "0.0-68.0", "trial": 2, "time_elapsed": 559775, "serialpos": 6, "key_press": -1, "wordID": 65, "type": "PRES_AUD", "trial_index": 95}, "uniqueid": "MTK2233:378XPAWRUDKBOC0A5QL3R5WE223AI1", "dateTime": 1516899916056}, {"current_trial": 96, "trialdata": {"rt": -1000, "trial_type": "single-audio", "word": "france", "stimulus": "/static/audio/wordpool/FRANCE.wav", "conditions": [24, 800, "a", 24000], "internal_node_id": "0.0-69.0", "trial": 2, "time_elapsed": 561517, "serialpos": 7, "key_press": -1, "wordID": 600, "type": "PRES_AUD", "trial_index": 96}, "uniqueid": "MTK2233:378XPAWRUDKBOC0A5QL3R5WE223AI1", "dateTime": 1516899917798}, {"current_trial": 97, "trialdata": {"rt": -1000, "trial_type": "single-audio", "word": "viking", "stimulus": "/static/audio/wordpool/VIKING.wav", "conditions": [24, 800, "a", 24000], "internal_node_id": "0.0-70.0", "trial": 2, "time_elapsed": 563469, "serialpos": 8, "key_press": -1, "wordID": 1564, "type": "PRES_AUD", "trial_index": 97}, "uniqueid": "MTK2233:378XPAWRUDKBOC0A5QL3R5WE223AI1", "dateTime": 1516899919750}, {"current_trial": 98, "trialdata": {"rt": -1000, "trial_type": "single-audio", "word": "husband", "stimulus": "/static/audio/wordpool/HUSBAND.wav", "conditions": [24, 800, "a", 24000], "internal_node_id": "0.0-71.0", "trial": 2, "time_elapsed": 565157, "serialpos": 9, "key_press": -1, "wordID": 727, "type": "PRES_AUD", "trial_index": 98}, "uniqueid": "MTK2233:378XPAWRUDKBOC0A5QL3R5WE223AI1", "dateTime": 1516899921438}, {"current_trial": 99, "trialdata": {"rt": -1000, "trial_type": "single-audio", "word": "silk", "stimulus": "/static/audio/wordpool/SILK.wav", "conditions": [24, 800, "a", 24000], "internal_node_id": "0.0-72.0", "trial": 2, "time_elapsed": 567139, "serialpos": 10, "key_press": -1, "wordID": 1306, "type": "PRES_AUD", "trial_index": 99}, "uniqueid": "MTK2233:378XPAWRUDKBOC0A5QL3R5WE223AI1", "dateTime": 1516899923420}, {"current_trial": 100, "trialdata": {"rt": -1000, "trial_type": "single-audio", "word": "cocoon", "stimulus": "/static/audio/wordpool/COCOON.wav", "conditions": [24, 800, "a", 24000], "internal_node_id": "0.0-73.0", "trial": 2, "time_elapsed": 569076, "serialpos": 11, "key_press": -1, "wordID": 338, "type": "PRES_AUD", "trial_index": 100}, "uniqueid": "MTK2233:378XPAWRUDKBOC0A5QL3R5WE223AI1", "dateTime": 1516899925357}, {"current_trial": 101, "trialdata": {"rt": -1000, "trial_type": "single-audio", "word": "dragon", "stimulus": "/static/audio/wordpool/DRAGON.wav", "conditions": [24, 800, "a", 24000], "internal_node_id": "0.0-74.0", "trial": 2, "time_elapsed": 570788, "serialpos": 12, "key_press": -1, "wordID": 491, "type": "PRES_AUD", "trial_index": 101}, "uniqueid": "MTK2233:378XPAWRUDKBOC0A5QL3R5WE223AI1", "dateTime": 1516899927069}, {"current_trial": 102, "trialdata": {"rt": -1000, "trial_type": "single-audio", "word": "creature", "stimulus": "/static/audio/wordpool/CREATURE.wav", "conditions": [24, 800, "a", 24000], "internal_node_id": "0.0-75.0", "trial": 2, "time_elapsed": 572772, "serialpos": 13, "key_press": -1, "wordID": 402, "type": "PRES_AUD", "trial_index": 102}, "uniqueid": "MTK2233:378XPAWRUDKBOC0A5QL3R5WE223AI1", "dateTime": 1516899929053}, {"current_trial": 103, "trialdata": {"rt": -1000, "trial_type": "single-audio", "word": "marsh", "stimulus": "/static/audio/wordpool/MARSH.wav", "conditions": [24, 800, "a", 24000], "internal_node_id": "0.0-76.0", "trial": 2, "time_elapsed": 574614, "serialpos": 14, "key_press": -1, "wordID": 873, "type": "PRES_AUD", "trial_index": 103}, "uniqueid": "MTK2233:378XPAWRUDKBOC0A5QL3R5WE223AI1", "dateTime": 1516899930895}, {"current_trial": 104, "trialdata": {"rt": -1000, "trial_type": "single-audio", "word": "cupboard", "stimulus": "/static/audio/wordpool/CUPBOARD.wav", "conditions": [24, 800, "a", 24000], "internal_node_id": "0.0-77.0", "trial": 2, "time_elapsed": 576348, "serialpos": 15, "key_press": -1, "wordID": 424, "type": "PRES_AUD", "trial_index": 104}, "uniqueid": "MTK2233:378XPAWRUDKBOC0A5QL3R5WE223AI1", "dateTime": 1516899932629}, {"current_trial": 105, "trialdata": {"rt": -1000, "trial_type": "single-audio", "word": "onion", "stimulus": "/static/audio/wordpool/ONION.wav", "conditions": [24, 800, "a", 24000], "internal_node_id": "0.0-78.0", "trial": 2, "time_elapsed": 578145, "serialpos": 16, "key_press": -1, "wordID": 976, "type": "PRES_AUD", "trial_index": 105}, "uniqueid": "MTK2233:378XPAWRUDKBOC0A5QL3R5WE223AI1", "dateTime": 1516899934426}, {"current_trial": 106, "trialdata": {"rt": -1000, "trial_type": "single-audio", "word": "wrench", "stimulus": "/static/audio/wordpool/WRENCH.wav", "conditions": [24, 800, "a", 24000], "internal_node_id": "0.0-79.0", "trial": 2, "time_elapsed": 580128, "serialpos": 17, "key_press": -1, "wordID": 1624, "type": "PRES_AUD", "trial_index": 106}, "uniqueid": "MTK2233:378XPAWRUDKBOC0A5QL3R5WE223AI1", "dateTime": 1516899936409}, {"current_trial": 107, "trialdata": {"rt": -1000, "trial_type": "single-audio", "word": "truck", "stimulus": "/static/audio/wordpool/TRUCK.wav", "conditions": [24, 800, "a", 24000], "internal_node_id": "0.0-80.0", "trial": 2, "time_elapsed": 581924, "serialpos": 18, "key_press": -1, "wordID": 1511, "type": "PRES_AUD", "trial_index": 107}, "uniqueid": "MTK2233:378XPAWRUDKBOC0A5QL3R5WE223AI1", "dateTime": 1516899938205}, {"current_trial": 108, "trialdata": {"rt": -1000, "trial_type": "single-audio", "word": "lagoon", "stimulus": "/static/audio/wordpool/LAGOON.wav", "conditions": [24, 800, "a", 24000], "internal_node_id": "0.0-81.0", "trial": 2, "time_elapsed": 583559, "serialpos": 19, "key_press": -1, "wordID": 794, "type": "PRES_AUD", "trial_index": 108}, "uniqueid": "MTK2233:378XPAWRUDKBOC0A5QL3R5WE223AI1", "dateTime": 1516899939840}, {"current_trial": 109, "trialdata": {"rt": -1000, "trial_type": "single-audio", "word": "cabbage", "stimulus": "/static/audio/wordpool/CABBAGE.wav", "conditions": [24, 800, "a", 24000], "internal_node_id": "0.0-82.0", "trial": 2, "time_elapsed": 585511, "serialpos": 20, "key_press": -1, "wordID": 209, "type": "PRES_AUD", "trial_index": 109}, "uniqueid": "MTK2233:378XPAWRUDKBOC0A5QL3R5WE223AI1", "dateTime": 1516899941792}, {"current_trial": 110, "trialdata": {"rt": -1000, "trial_type": "single-audio", "word": "spider", "stimulus": "/static/audio/wordpool/SPIDER.wav", "conditions": [24, 800, "a", 24000], "internal_node_id": "0.0-83.0", "trial": 2, "time_elapsed": 587373, "serialpos": 21, "key_press": -1, "wordID": 1350, "type": "PRES_AUD", "trial_index": 110}, "uniqueid": "MTK2233:378XPAWRUDKBOC0A5QL3R5WE223AI1", "dateTime": 1516899943654}, {"current_trial": 111, "trialdata": {"rt": -1000, "trial_type": "single-audio", "word": "flask", "stimulus": "/static/audio/wordpool/FLASK.wav", "conditions": [24, 800, "a", 24000], "internal_node_id": "0.0-84.0", "trial": 2, "time_elapsed": 589260, "serialpos": 22, "key_press": -1, "wordID": 575, "type": "PRES_AUD", "trial_index": 111}, "uniqueid": "MTK2233:378XPAWRUDKBOC0A5QL3R5WE223AI1", "dateTime": 1516899945541}, {"current_trial": 112, "trialdata": {"rt": -1000, "trial_type": "single-audio", "word": "mop", "stimulus": "/static/audio/wordpool/MOP.wav", "conditions": [24, 800, "a", 24000], "internal_node_id": "0.0-85.0", "trial": 2, "time_elapsed": 591258, "serialpos": 23, "key_press": -1, "wordID": 915, "type": "PRES_AUD", "trial_index": 112}, "uniqueid": "MTK2233:378XPAWRUDKBOC0A5QL3R5WE223AI1", "dateTime": 1516899947539}, {"current_trial": 113, "trialdata": {"rt": -1, "trial_type": "single-stim", "stimulus": "", "internal_node_id": "0.0-86.0-0.0", "time_elapsed": 592650, "key_press": -1, "type": "PRE_RECALL_DELAY", "trial_index": 113}, "uniqueid": "MTK2233:378XPAWRUDKBOC0A5QL3R5WE223AI1", "dateTime": 1516899948932}, {"current_trial": 114, "trialdata": {"rt": -1000, "trial_type": "single-audio", "stimulus": "/static/audio/400Hz.wav", "internal_node_id": "0.0-87.0", "time_elapsed": 593154, "key_press": -1, "type": "PRE_RECALL_ALERT", "trial_index": 114}, "uniqueid": "MTK2233:378XPAWRUDKBOC0A5QL3R5WE223AI1", "dateTime": 1516899949435}, {"current_trial": 115, "trialdata": {"rt": [2242, 4100, 6697, 8393, 13919, 18208, 22389, 26349, 28184, 38478, 40981, 42865, 51312, 55506, 57627], "recwords": ["mop", "flask", "truck", "dragon", "spider", "husband", "donut", "pastry", "cabbage", "france", "cousin", "salmon", "viking", "creature", "backbone"], "key_times": [1133, 1761, 1979, 2242, 2835, 2988, 3110, 3324, 3477, 4100, 5751, 5972, 6102, 6228, 6372, 6697, 7081, 7304, 7489, 7714, 7851, 8093, 8393, 12726, 12859, 13126, 13343, 13560, 13755, 13919, 16495, 16698, 16795, 16951, 17555, 17737, 17859, 18208, 21212, 21406, 21674, 21892, 21991, 22389, 24540, 25065, 25271, 25703, 25845, 25968, 26349, 26612, 26816, 27154, 27337, 27515, 27704, 27859, 28184, 34151, 34359, 34579, 34768, 36846, 37232, 37364, 37494, 38478, 39723, 39886, 40127, 40289, 40421, 40630, 40981, 41213, 41485, 41635, 41899, 42141, 42385, 42865, 49052, 49218, 49416, 49600, 49800, 49982, 51312, 52326, 52614, 52849, 53041, 53298, 53426, 54333, 54558, 55506, 55963, 56079, 56282, 56422, 56792, 57004, 57222, 57331, 57627], "trial_type": "free-recall", "conditions": [24, 800, "a", 24000], "internal_node_id": "0.0-88.0-0.0", "key_presses": [77, 79, 80, 13, 70, 76, 65, 83, 75, 13, 84, 82, 85, 67, 75, 13, 68, 82, 65, 71, 79, 78, 13, 83, 80, 73, 68, 69, 82, 13, 72, 85, 83, 66, 65, 78, 68, 13, 68, 79, 78, 85, 84, 13, 80, 65, 83, 84, 82, 89, 13, 67, 65, 66, 66, 65, 71, 69, 13, 70, 82, 65, 67, 8, 78, 67, 69, 13, 67, 79, 85, 83, 73, 78, 13, 83, 65, 76, 77, 79, 78, 13, 86, 73, 75, 73, 78, 71, 13, 67, 82, 69, 65, 84, 85, 82, 69, 13, 66, 65, 67, 75, 66, 79, 78, 69, 13], "trial": 2, "time_elapsed": 653159, "type": "FREE_RECALL", "trial_index": 115}, "uniqueid": "MTK2233:378XPAWRUDKBOC0A5QL3R5WE223AI1", "dateTime": 1516900009442}, {"current_trial": 116, "trialdata": {"rt": 3519, "trial_type": "text", "internal_node_id": "0.0-89.0", "time_elapsed": 658685, "key_press": 32, "type": "INSTRUCTIONS", "trial_index": 116}, "uniqueid": "MTK2233:378XPAWRUDKBOC0A5QL3R5WE223AI1", "dateTime": 1516900014966}, {"current_trial": 117, "trialdata": {"rt": [3061, 4868, 11330], "trial_type": "math-distractor", "key_times": [2556, 2700, 3061, 4375, 4599, 4868, 10337, 10551, 11330], "responses": ["18", "11", "22"], "num2": [8, 1, 6, 5], "num3": [4, 2, 9, 2], "conditions": [24, 1600, "a", 12000], "internal_node_id": "0.0-90.0", "key_presses": [49, 56, 13, 49, 49, 13, 50, 50, 13], "trial": 3, "time_elapsed": 672689, "type": "DISTRACTOR", "trial_index": 117, "num1": [6, 8, 7, 4]}, "uniqueid": "MTK2233:378XPAWRUDKBOC0A5QL3R5WE223AI1", "dateTime": 1516900028971}, {"current_trial": 118, "trialdata": {"rt": -1, "trial_type": "single-stim", "stimulus": "<p id=\"stim\">10</p>", "internal_node_id": "0.0-91.0-0.0", "time_elapsed": 675694, "key_press": -1, "trial_index": 118}, "uniqueid": "MTK2233:378XPAWRUDKBOC0A5QL3R5WE223AI1", "dateTime": 1516900031975}, {"current_trial": 119, "trialdata": {"rt": -1, "trial_type": "single-stim", "stimulus": "<p id=\"stim\">9</p>", "internal_node_id": "0.0-91.0-1.0", "time_elapsed": 676695, "key_press": -1, "trial_index": 119}, "uniqueid": "MTK2233:378XPAWRUDKBOC0A5QL3R5WE223AI1", "dateTime": 1516900032976}, {"current_trial": 120, "trialdata": {"rt": -1, "trial_type": "single-stim", "stimulus": "<p id=\"stim\">8</p>", "internal_node_id": "0.0-91.0-2.0", "time_elapsed": 677697, "key_press": -1, "trial_index": 120}, "uniqueid": "MTK2233:378XPAWRUDKBOC0A5QL3R5WE223AI1", "dateTime": 1516900033978}, {"current_trial": 121, "trialdata": {"rt": -1, "trial_type": "single-stim", "stimulus": "<p id=\"stim\">7</p>", "internal_node_id": "0.0-91.0-3.0", "time_elapsed": 678698, "key_press": -1, "trial_index": 121}, "uniqueid": "MTK2233:378XPAWRUDKBOC0A5QL3R5WE223AI1", "dateTime": 1516900034979}, {"current_trial": 122, "trialdata": {"rt": -1, "trial_type": "single-stim", "stimulus": "<p id=\"stim\">6</p>", "internal_node_id": "0.0-91.0-4.0", "time_elapsed": 679703, "key_press": -1, "trial_index": 122}, "uniqueid": "MTK2233:378XPAWRUDKBOC0A5QL3R5WE223AI1", "dateTime": 1516900035984}, {"current_trial": 123, "trialdata": {"rt": -1, "trial_type": "single-stim", "stimulus": "<p id=\"stim\">5</p>", "internal_node_id": "0.0-91.0-5.0", "time_elapsed": 680704, "key_press": -1, "trial_index": 123}, "uniqueid": "MTK2233:378XPAWRUDKBOC0A5QL3R5WE223AI1", "dateTime": 1516900036986}, {"current_trial": 124, "trialdata": {"rt": -1, "trial_type": "single-stim", "stimulus": "<p id=\"stim\">4</p>", "internal_node_id": "0.0-91.0-6.0", "time_elapsed": 681706, "key_press": -1, "trial_index": 124}, "uniqueid": "MTK2233:378XPAWRUDKBOC0A5QL3R5WE223AI1", "dateTime": 1516900037987}, {"current_trial": 125, "trialdata": {"rt": -1, "trial_type": "single-stim", "stimulus": "<p id=\"stim\">3</p>", "internal_node_id": "0.0-91.0-7.0", "time_elapsed": 682707, "key_press": -1, "trial_index": 125}, "uniqueid": "MTK2233:378XPAWRUDKBOC0A5QL3R5WE223AI1", "dateTime": 1516900038988}, {"current_trial": 126, "trialdata": {"rt": -1, "trial_type": "single-stim", "stimulus": "<p id=\"stim\">2</p>", "internal_node_id": "0.0-91.0-8.0", "time_elapsed": 683708, "key_press": -1, "trial_index": 126}, "uniqueid": "MTK2233:378XPAWRUDKBOC0A5QL3R5WE223AI1", "dateTime": 1516900039989}, {"current_trial": 127, "trialdata": {"rt": -1, "trial_type": "single-stim", "stimulus": "<p id=\"stim\">1</p>", "internal_node_id": "0.0-91.0-9.0", "time_elapsed": 684712, "key_press": -1, "trial_index": 127}, "uniqueid": "MTK2233:378XPAWRUDKBOC0A5QL3R5WE223AI1", "dateTime": 1516900040993}, {"current_trial": 128, "trialdata": {"rt": -1, "trial_type": "single-stim", "stimulus": "<p id=\"stim\">+</p>", "internal_node_id": "0.0-92.0-0.0", "time_elapsed": 686213, "key_press": -1, "type": "FIXATION", "trial_index": 128}, "uniqueid": "MTK2233:378XPAWRUDKBOC0A5QL3R5WE223AI1", "dateTime": 1516900042494}, {"current_trial": 129, "trialdata": {"rt": -1000, "trial_type": "single-audio", "word": "tutu", "stimulus": "/static/audio/wordpool/TUTU.wav", "conditions": [24, 1600, "a", 12000], "internal_node_id": "0.0-93.0", "trial": 3, "time_elapsed": 688634, "serialpos": 0, "key_press": -1, "wordID": 1523, "type": "PRES_AUD", "trial_index": 129}, "uniqueid": "MTK2233:378XPAWRUDKBOC0A5QL3R5WE223AI1", "dateTime": 1516900044915}, {"current_trial": 130, "trialdata": {"rt": -1000, "trial_type": "single-audio", "word": "novel", "stimulus": "/static/audio/wordpool/NOVEL.wav", "conditions": [24, 1600, "a", 12000], "internal_node_id": "0.0-94.0", "trial": 3, "time_elapsed": 691153, "serialpos": 1, "key_press": -1, "wordID": 959, "type": "PRES_AUD", "trial_index": 130}, "uniqueid": "MTK2233:378XPAWRUDKBOC0A5QL3R5WE223AI1", "dateTime": 1516900047434}, {"current_trial": 131, "trialdata": {"rt": -1000, "trial_type": "single-audio", "word": "student", "stimulus": "/static/audio/wordpool/STUDENT.wav", "conditions": [24, 1600, "a", 12000], "internal_node_id": "0.0-95.0", "trial": 3, "time_elapsed": 693816, "serialpos": 2, "key_press": -1, "wordID": 1394, "type": "PRES_AUD", "trial_index": 131}, "uniqueid": "MTK2233:378XPAWRUDKBOC0A5QL3R5WE223AI1", "dateTime": 1516900050097}, {"current_trial": 132, "trialdata": {"rt": -1000, "trial_type": "single-audio", "word": "teacher", "stimulus": "/static/audio/wordpool/TEACHER.wav", "conditions": [24, 1600, "a", 12000], "internal_node_id": "0.0-96.0", "trial": 3, "time_elapsed": 696269, "serialpos": 3, "key_press": -1, "wordID": 1439, "type": "PRES_AUD", "trial_index": 132}, "uniqueid": "MTK2233:378XPAWRUDKBOC0A5QL3R5WE223AI1", "dateTime": 1516900052550}, {"current_trial": 133, "trialdata": {"rt": -1000, "trial_type": "single-audio", "word": "contract", "stimulus": "/static/audio/wordpool/CONTRACT.wav", "conditions": [24, 1600, "a", 12000], "internal_node_id": "0.0-97.0", "trial": 3, "time_elapsed": 698688, "serialpos": 4, "key_press": -1, "wordID": 367, "type": "PRES_AUD", "trial_index": 133}, "uniqueid": "MTK2233:378XPAWRUDKBOC0A5QL3R5WE223AI1", "dateTime": 1516900054969}, {"current_trial": 134, "trialdata": {"rt": -1000, "trial_type": "single-audio", "word": "agent", "stimulus": "/static/audio/wordpool/AGENT.wav", "conditions": [24, 1600, "a", 12000], "internal_node_id": "0.0-98.0", "trial": 3, "time_elapsed": 701408, "serialpos": 5, "key_press": -1, "wordID": 9, "type": "PRES_AUD", "trial_index": 134}, "uniqueid": "MTK2233:378XPAWRUDKBOC0A5QL3R5WE223AI1", "dateTime": 1516900057689}, {"current_trial": 135, "trialdata": {"rt": -1000, "trial_type": "single-audio", "word": "turtle", "stimulus": "/static/audio/wordpool/TURTLE.wav", "conditions": [24, 1600, "a", 12000], "internal_node_id": "0.0-99.0", "trial": 3, "time_elapsed": 703892, "serialpos": 6, "key_press": -1, "wordID": 1521, "type": "PRES_AUD", "trial_index": 135}, "uniqueid": "MTK2233:378XPAWRUDKBOC0A5QL3R5WE223AI1", "dateTime": 1516900060173}, {"current_trial": 136, "trialdata": {"rt": -1000, "trial_type": "single-audio", "word": "spoon", "stimulus": "/static/audio/wordpool/SPOON.wav", "conditions": [24, 1600, "a", 12000], "internal_node_id": "0.0-100.0", "trial": 3, "time_elapsed": 706415, "serialpos": 7, "key_press": -1, "wordID": 1356, "type": "PRES_AUD", "trial_index": 136}, "uniqueid": "MTK2233:378XPAWRUDKBOC0A5QL3R5WE223AI1", "dateTime": 1516900062696}, {"current_trial": 137, "trialdata": {"rt": -1000, "trial_type": "single-audio", "word": "costume", "stimulus": "/static/audio/wordpool/COSTUME.wav", "conditions": [24, 1600, "a", 12000], "internal_node_id": "0.0-101.0", "trial": 3, "time_elapsed": 709104, "serialpos": 8, "key_press": -1, "wordID": 382, "type": "PRES_AUD", "trial_index": 137}, "uniqueid": "MTK2233:378XPAWRUDKBOC0A5QL3R5WE223AI1", "dateTime": 1516900065385}, {"current_trial": 138, "trialdata": {"rt": -1000, "trial_type": "single-audio", "word": "kidney", "stimulus": "/static/audio/wordpool/KIDNEY.wav", "conditions": [24, 1600, "a", 12000], "internal_node_id": "0.0-102.0", "trial": 3, "time_elapsed": 711661, "serialpos": 9, "key_press": -1, "wordID": 775, "type": "PRES_AUD", "trial_index": 138}, "uniqueid": "MTK2233:378XPAWRUDKBOC0A5QL3R5WE223AI1", "dateTime": 1516900067942}, {"current_trial": 139, "trialdata": {"rt": -1000, "trial_type": "single-audio", "word": "hostess", "stimulus": "/static/audio/wordpool/HOSTESS.wav", "conditions": [24, 1600, "a", 12000], "internal_node_id": "0.0-103.0", "trial": 3, "time_elapsed": 714427, "serialpos": 10, "key_press": -1, "wordID": 722, "type": "PRES_AUD", "trial_index": 139}, "uniqueid": "MTK2233:378XPAWRUDKBOC0A5QL3R5WE223AI1", "dateTime": 1516900070708}, {"current_trial": 140, "trialdata": {"rt": -1000, "trial_type": "single-audio", "word": "dandruff", "stimulus": "/static/audio/wordpool/DANDRUFF.wav", "conditions": [24, 1600, "a", 12000], "internal_node_id": "0.0-104.0", "trial": 3, "time_elapsed": 716897, "serialpos": 11, "key_press": -1, "wordID": 438, "type": "PRES_AUD", "trial_index": 140}, "uniqueid": "MTK2233:378XPAWRUDKBOC0A5QL3R5WE223AI1", "dateTime": 1516900073178}, {"current_trial": 141, "trialdata": {"rt": -1000, "trial_type": "single-audio", "word": "fruit", "stimulus": "/static/audio/wordpool/FRUIT.wav", "conditions": [24, 1600, "a", 12000], "internal_node_id": "0.0-105.0", "trial": 3, "time_elapsed": 719515, "serialpos": 12, "key_press": -1, "wordID": 609, "type": "PRES_AUD", "trial_index": 141}, "uniqueid": "MTK2233:378XPAWRUDKBOC0A5QL3R5WE223AI1", "dateTime": 1516900075796}, {"current_trial": 142, "trialdata": {"rt": -1000, "trial_type": "single-audio", "word": "wasp", "stimulus": "/static/audio/wordpool/WASP.wav", "conditions": [24, 1600, "a", 12000], "internal_node_id": "0.0-106.0", "trial": 3, "time_elapsed": 722293, "serialpos": 13, "key_press": -1, "wordID": 1592, "type": "PRES_AUD", "trial_index": 142}, "uniqueid": "MTK2233:378XPAWRUDKBOC0A5QL3R5WE223AI1", "dateTime": 1516900078574}, {"current_trial": 143, "trialdata": {"rt": -1000, "trial_type": "single-audio", "word": "robin", "stimulus": "/static/audio/wordpool/ROBIN.wav", "conditions": [24, 1600, "a", 12000], "internal_node_id": "0.0-107.0", "trial": 3, "time_elapsed": 724726, "serialpos": 14, "key_press": -1, "wordID": 1198, "type": "PRES_AUD", "trial_index": 143}, "uniqueid": "MTK2233:378XPAWRUDKBOC0A5QL3R5WE223AI1", "dateTime": 1516900081007}, {"current_trial": 144, "trialdata": {"rt": -1000, "trial_type": "single-audio", "word": "chauffeur", "stimulus": "/static/audio/wordpool/CHAUFFEUR.wav", "conditions": [24, 1600, "a", 12000], "internal_node_id": "0.0-108.0", "trial": 3, "time_elapsed": 727296, "serialpos": 15, "key_press": -1, "wordID": 282, "type": "PRES_AUD", "trial_index": 144}, "uniqueid": "MTK2233:378XPAWRUDKBOC0A5QL3R5WE223AI1", "dateTime": 1516900083577}, {"current_trial": 145, "trialdata": {"rt": -1000, "trial_type": "single-audio", "word": "asia", "stimulus": "/static/audio/wordpool/ASIA.wav", "conditions": [24, 1600, "a", 12000], "internal_node_id": "0.0-109.0", "trial": 3, "time_elapsed": 730054, "serialpos": 16, "key_press": -1, "wordID": 45, "type": "PRES_AUD", "trial_index": 145}, "uniqueid": "MTK2233:378XPAWRUDKBOC0A5QL3R5WE223AI1", "dateTime": 1516900086335}, {"current_trial": 146, "trialdata": {"rt": -1000, "trial_type": "single-audio", "word": "peach", "stimulus": "/static/audio/wordpool/PEACH.wav", "conditions": [24, 1600, "a", 12000], "internal_node_id": "0.0-110.0", "trial": 3, "time_elapsed": 732843, "serialpos": 17, "key_press": -1, "wordID": 1030, "type": "PRES_AUD", "trial_index": 146}, "uniqueid": "MTK2233:378XPAWRUDKBOC0A5QL3R5WE223AI1", "dateTime": 1516900089124}, {"current_trial": 147, "trialdata": {"rt": -1000, "trial_type": "single-audio", "word": "palace", "stimulus": "/static/audio/wordpool/PALACE.wav", "conditions": [24, 1600, "a", 12000], "internal_node_id": "0.0-111.0", "trial": 3, "time_elapsed": 735453, "serialpos": 18, "key_press": -1, "wordID": 1005, "type": "PRES_AUD", "trial_index": 147}, "uniqueid": "MTK2233:378XPAWRUDKBOC0A5QL3R5WE223AI1", "dateTime": 1516900091734}, {"current_trial": 148, "trialdata": {"rt": -1000, "trial_type": "single-audio", "word": "brook", "stimulus": "/static/audio/wordpool/BROOK.wav", "conditions": [24, 1600, "a", 12000], "internal_node_id": "0.0-112.0", "trial": 3, "time_elapsed": 738078, "serialpos": 19, "key_press": -1, "wordID": 176, "type": "PRES_AUD", "trial_index": 148}, "uniqueid": "MTK2233:378XPAWRUDKBOC0A5QL3R5WE223AI1", "dateTime": 1516900094359}, {"current_trial": 149, "trialdata": {"rt": -1000, "trial_type": "single-audio", "word": "shovel", "stimulus": "/static/audio/wordpool/SHOVEL.wav", "conditions": [24, 1600, "a", 12000], "internal_node_id": "0.0-113.0", "trial": 3, "time_elapsed": 740495, "serialpos": 20, "key_press": -1, "wordID": 1294, "type": "PRES_AUD", "trial_index": 149}, "uniqueid": "MTK2233:378XPAWRUDKBOC0A5QL3R5WE223AI1", "dateTime": 1516900096776}, {"current_trial": 150, "trialdata": {"rt": -1000, "trial_type": "single-audio", "word": "worker", "stimulus": "/static/audio/wordpool/WORKER.wav", "conditions": [24, 1600, "a", 12000], "internal_node_id": "0.0-114.0", "trial": 3, "time_elapsed": 743027, "serialpos": 21, "key_press": -1, "wordID": 1620, "type": "PRES_AUD", "trial_index": 150}, "uniqueid": "MTK2233:378XPAWRUDKBOC0A5QL3R5WE223AI1", "dateTime": 1516900099308}, {"current_trial": 151, "trialdata": {"rt": -1000, "trial_type": "single-audio", "word": "star", "stimulus": "/static/audio/wordpool/STAR.wav", "conditions": [24, 1600, "a", 12000], "internal_node_id": "0.0-115.0", "trial": 3, "time_elapsed": 745444, "serialpos": 22, "key_press": -1, "wordID": 1372, "type": "PRES_AUD", "trial_index": 151}, "uniqueid": "MTK2233:378XPAWRUDKBOC0A5QL3R5WE223AI1", "dateTime": 1516900101725}, {"current_trial": 152, "trialdata": {"rt": -1000, "trial_type": "single-audio", "word": "dancer", "stimulus": "/static/audio/wordpool/DANCER.wav", "conditions": [24, 1600, "a", 12000], "internal_node_id": "0.0-116.0", "trial": 3, "time_elapsed": 748239, "serialpos": 23, "key_press": -1, "wordID": 436, "type": "PRES_AUD", "trial_index": 152}, "uniqueid": "MTK2233:378XPAWRUDKBOC0A5QL3R5WE223AI1", "dateTime": 1516900104520}, {"current_trial": 153, "trialdata": {"rt": -1, "trial_type": "single-stim", "stimulus": "", "internal_node_id": "0.0-117.0-0.0", "time_elapsed": 749487, "key_press": -1, "type": "PRE_RECALL_DELAY", "trial_index": 153}, "uniqueid": "MTK2233:378XPAWRUDKBOC0A5QL3R5WE223AI1", "dateTime": 1516900105768}, {"current_trial": 154, "trialdata": {"rt": -1000, "trial_type": "single-audio", "stimulus": "/static/audio/400Hz.wav", "internal_node_id": "0.0-118.0", "time_elapsed": 749991, "key_press": -1, "type": "PRE_RECALL_ALERT", "trial_index": 154}, "uniqueid": "MTK2233:378XPAWRUDKBOC0A5QL3R5WE223AI1", "dateTime": 1516900106272}, {"current_trial": 155, "trialdata": {"rt": [3636, 5740, 7752, 13008, 14460, 17453, 20104, 22873, 27215, 29936, 32426, 34962, 38582, 42344, 48218, 50824, 57571], "recwords": ["student", "teacher", "wasp", "agent", "fruit", "peach", "asia", "palace", "kidney", "spoon", "dandruff", "novel", "costume", "tutu", "broke", "star", ""], "key_times": [2211, 2531, 2682, 2857, 2984, 3123, 3287, 3636, 4043, 4286, 4489, 4665, 4814, 4984, 5146, 5740, 6441, 6707, 6870, 7082, 7752, 11269, 11463, 11610, 11749, 11913, 13008, 13428, 13639, 13885, 14095, 14200, 14460, 14828, 15004, 15207, 15427, 15627, 15859, 16665, 17453, 19266, 19507, 19641, 19783, 20104, 20660, 20841, 21042, 21606, 21865, 22064, 22873, 24285, 24506, 24640, 24831, 25016, 25183, 27215, 28783, 28926, 29180, 29330, 29556, 29936, 30534, 30715, 30870, 31093, 31316, 31499, 31680, 31908, 32426, 33532, 33863, 34121, 34234, 34437, 34962, 37127, 37320, 37509, 37796, 37902, 38147, 38291, 38582, 39003, 39183, 40614, 40971, 41154, 41401, 42344, 46527, 46797, 46947, 47218, 47500, 48218, 49696, 49873, 50031, 50381, 50824, 57571], "trial_type": "free-recall", "conditions": [24, 1600, "a", 12000], "internal_node_id": "0.0-119.0-0.0", "key_presses": [83, 84, 85, 68, 69, 78, 84, 13, 84, 69, 65, 67, 72, 69, 82, 13, 87, 65, 83, 80, 13, 65, 71, 69, 78, 84, 13, 70, 82, 85, 73, 84, 13, 80, 69, 65, 67, 72, 69, 8, 13, 65, 83, 73, 65, 13, 80, 65, 76, 65, 67, 69, 13, 75, 73, 68, 78, 69, 89, 13, 83, 80, 79, 79, 78, 13, 68, 65, 78, 68, 82, 85, 70, 70, 13, 78, 79, 86, 69, 76, 13, 67, 79, 83, 84, 85, 77, 69, 13, 84, 73, 8, 85, 84, 85, 13, 66, 82, 79, 75, 69, 13, 83, 84, 65, 82, 13, 13], "trial": 3, "time_elapsed": 809995, "type": "FREE_RECALL", "trial_index": 155}, "uniqueid": "MTK2233:378XPAWRUDKBOC0A5QL3R5WE223AI1", "dateTime": 1516900166279}, {"current_trial": 156, "trialdata": {"rt": 3102, "trial_type": "text", "internal_node_id": "0.0-120.0", "time_elapsed": 815102, "key_press": 32, "type": "INSTRUCTIONS", "trial_index": 156}, "uniqueid": "MTK2233:378XPAWRUDKBOC0A5QL3R5WE223AI1", "dateTime": 1516900171383}, {"current_trial": 157, "trialdata": {"rt": [9086], "trial_type": "math-distractor", "key_times": [7139, 7476, 9086], "responses": ["15"], "num2": [7, 7], "num3": [4, 3], "conditions": [24, 800, "a", 12000], "internal_node_id": "0.0-121.0", "key_presses": [49, 53, 13], "trial": 4, "time_elapsed": 829108, "type": "DISTRACTOR", "trial_index": 157, "num1": [4, 7]}, "uniqueid": "MTK2233:378XPAWRUDKBOC0A5QL3R5WE223AI1", "dateTime": 1516900185389}, {"current_trial": 158, "trialdata": {"rt": -1, "trial_type": "single-stim", "stimulus": "<p id=\"stim\">10</p>", "internal_node_id": "0.0-122.0-0.0", "time_elapsed": 832110, "key_press": -1, "trial_index": 158}, "uniqueid": "MTK2233:378XPAWRUDKBOC0A5QL3R5WE223AI1", "dateTime": 1516900188391}, {"current_trial": 159, "trialdata": {"rt": -1, "trial_type": "single-stim", "stimulus": "<p id=\"stim\">9</p>", "internal_node_id": "0.0-122.0-1.0", "time_elapsed": 833114, "key_press": -1, "trial_index": 159}, "uniqueid": "MTK2233:378XPAWRUDKBOC0A5QL3R5WE223AI1", "dateTime": 1516900189395}, {"current_trial": 160, "trialdata": {"rt": -1, "trial_type": "single-stim", "stimulus": "<p id=\"stim\">8</p>", "internal_node_id": "0.0-122.0-2.0", "time_elapsed": 834115, "key_press": -1, "trial_index": 160}, "uniqueid": "MTK2233:378XPAWRUDKBOC0A5QL3R5WE223AI1", "dateTime": 1516900190396}, {"current_trial": 161, "trialdata": {"rt": -1, "trial_type": "single-stim", "stimulus": "<p id=\"stim\">7</p>", "internal_node_id": "0.0-122.0-3.0", "time_elapsed": 835116, "key_press": -1, "trial_index": 161}, "uniqueid": "MTK2233:378XPAWRUDKBOC0A5QL3R5WE223AI1", "dateTime": 1516900191397}, {"current_trial": 162, "trialdata": {"rt": -1, "trial_type": "single-stim", "stimulus": "<p id=\"stim\">6</p>", "internal_node_id": "0.0-122.0-4.0", "time_elapsed": 836120, "key_press": -1, "trial_index": 162}, "uniqueid": "MTK2233:378XPAWRUDKBOC0A5QL3R5WE223AI1", "dateTime": 1516900192401}, {"current_trial": 163, "trialdata": {"rt": -1, "trial_type": "single-stim", "stimulus": "<p id=\"stim\">5</p>", "internal_node_id": "0.0-122.0-5.0", "time_elapsed": 837125, "key_press": -1, "trial_index": 163}, "uniqueid": "MTK2233:378XPAWRUDKBOC0A5QL3R5WE223AI1", "dateTime": 1516900193406}, {"current_trial": 164, "trialdata": {"rt": -1, "trial_type": "single-stim", "stimulus": "<p id=\"stim\">4</p>", "internal_node_id": "0.0-122.0-6.0", "time_elapsed": 838126, "key_press": -1, "trial_index": 164}, "uniqueid": "MTK2233:378XPAWRUDKBOC0A5QL3R5WE223AI1", "dateTime": 1516900194407}, {"current_trial": 165, "trialdata": {"rt": -1, "trial_type": "single-stim", "stimulus": "<p id=\"stim\">3</p>", "internal_node_id": "0.0-122.0-7.0", "time_elapsed": 839130, "key_press": -1, "trial_index": 165}, "uniqueid": "MTK2233:378XPAWRUDKBOC0A5QL3R5WE223AI1", "dateTime": 1516900195411}, {"current_trial": 166, "trialdata": {"rt": -1, "trial_type": "single-stim", "stimulus": "<p id=\"stim\">2</p>", "internal_node_id": "0.0-122.0-8.0", "time_elapsed": 840132, "key_press": -1, "trial_index": 166}, "uniqueid": "MTK2233:378XPAWRUDKBOC0A5QL3R5WE223AI1", "dateTime": 1516900196413}, {"current_trial": 167, "trialdata": {"rt": -1, "trial_type": "single-stim", "stimulus": "<p id=\"stim\">1</p>", "internal_node_id": "0.0-122.0-9.0", "time_elapsed": 841132, "key_press": -1, "trial_index": 167}, "uniqueid": "MTK2233:378XPAWRUDKBOC0A5QL3R5WE223AI1", "dateTime": 1516900197414}, {"current_trial": 168, "trialdata": {"rt": -1, "trial_type": "single-stim", "stimulus": "<p id=\"stim\">+</p>", "internal_node_id": "0.0-123.0-0.0", "time_elapsed": 842636, "key_press": -1, "type": "FIXATION", "trial_index": 168}, "uniqueid": "MTK2233:378XPAWRUDKBOC0A5QL3R5WE223AI1", "dateTime": 1516900198917}, {"current_trial": 169, "trialdata": {"rt": -1000, "trial_type": "single-audio", "word": "leopard", "stimulus": "/static/audio/wordpool/LEOPARD.wav", "conditions": [24, 800, "a", 12000], "internal_node_id": "0.0-124.0", "trial": 4, "time_elapsed": 844466, "serialpos": 0, "key_press": -1, "wordID": 811, "type": "PRES_AUD", "trial_index": 169}, "uniqueid": "MTK2233:378XPAWRUDKBOC0A5QL3R5WE223AI1", "dateTime": 1516900200747}, {"current_trial": 170, "trialdata": {"rt": -1000, "trial_type": "single-audio", "word": "lace", "stimulus": "/static/audio/wordpool/LACE.wav", "conditions": [24, 800, "a", 12000], "internal_node_id": "0.0-125.0", "trial": 4, "time_elapsed": 846290, "serialpos": 1, "key_press": -1, "wordID": 791, "type": "PRES_AUD", "trial_index": 170}, "uniqueid": "MTK2233:378XPAWRUDKBOC0A5QL3R5WE223AI1", "dateTime": 1516900202572}, {"current_trial": 171, "trialdata": {"rt": -1000, "trial_type": "single-audio", "word": "clothes", "stimulus": "/static/audio/wordpool/CLOTHES.wav", "conditions": [24, 800, "a", 12000], "internal_node_id": "0.0-126.0", "trial": 4, "time_elapsed": 848241, "serialpos": 2, "key_press": -1, "wordID": 326, "type": "PRES_AUD", "trial_index": 171}, "uniqueid": "MTK2233:378XPAWRUDKBOC0A5QL3R5WE223AI1", "dateTime": 1516900204522}, {"current_trial": 172, "trialdata": {"rt": -1000, "trial_type": "single-audio", "word": "braces", "stimulus": "/static/audio/wordpool/BRACES.wav", "conditions": [24, 800, "a", 12000], "internal_node_id": "0.0-127.0", "trial": 4, "time_elapsed": 850224, "serialpos": 3, "key_press": -1, "wordID": 163, "type": "PRES_AUD", "trial_index": 172}, "uniqueid": "MTK2233:378XPAWRUDKBOC0A5QL3R5WE223AI1", "dateTime": 1516900206505}, {"current_trial": 173, "trialdata": {"rt": -1000, "trial_type": "single-audio", "word": "blockade", "stimulus": "/static/audio/wordpool/BLOCKADE.wav", "conditions": [24, 800, "a", 12000], "internal_node_id": "0.0-128.0", "trial": 4, "time_elapsed": 852221, "serialpos": 4, "key_press": -1, "wordID": 136, "type": "PRES_AUD", "trial_index": 173}, "uniqueid": "MTK2233:378XPAWRUDKBOC0A5QL3R5WE223AI1", "dateTime": 1516900208503}, {"current_trial": 174, "trialdata": {"rt": -1000, "trial_type": "single-audio", "word": "paper", "stimulus": "/static/audio/wordpool/PAPER.wav", "conditions": [24, 800, "a", 12000], "internal_node_id": "0.0-129.0", "trial": 4, "time_elapsed": 853898, "serialpos": 5, "key_press": -1, "wordID": 1010, "type": "PRES_AUD", "trial_index": 174}, "uniqueid": "MTK2233:378XPAWRUDKBOC0A5QL3R5WE223AI1", "dateTime": 1516900210179}, {"current_trial": 175, "trialdata": {"rt": -1000, "trial_type": "single-audio", "word": "cyclone", "stimulus": "/static/audio/wordpool/CYCLONE.wav", "conditions": [24, 800, "a", 12000], "internal_node_id": "0.0-130.0", "trial": 4, "time_elapsed": 855594, "serialpos": 6, "key_press": -1, "wordID": 430, "type": "PRES_AUD", "trial_index": 175}, "uniqueid": "MTK2233:378XPAWRUDKBOC0A5QL3R5WE223AI1", "dateTime": 1516900211875}, {"current_trial": 176, "trialdata": {"rt": -1000, "trial_type": "single-audio", "word": "stomach", "stimulus": "/static/audio/wordpool/STOMACH.wav", "conditions": [24, 800, "a", 12000], "internal_node_id": "0.0-131.0", "trial": 4, "time_elapsed": 857264, "serialpos": 7, "key_press": -1, "wordID": 1383, "type": "PRES_AUD", "trial_index": 176}, "uniqueid": "MTK2233:378XPAWRUDKBOC0A5QL3R5WE223AI1", "dateTime": 1516900213545}, {"current_trial": 177, "trialdata": {"rt": -1000, "trial_type": "single-audio", "word": "chest", "stimulus": "/static/audio/wordpool/CHEST.wav", "conditions": [24, 800, "a", 12000], "internal_node_id": "0.0-132.0", "trial": 4, "time_elapsed": 859044, "serialpos": 8, "key_press": -1, "wordID": 294, "type": "PRES_AUD", "trial_index": 177}, "uniqueid": "MTK2233:378XPAWRUDKBOC0A5QL3R5WE223AI1", "dateTime": 1516900215325}, {"current_trial": 178, "trialdata": {"rt": -1000, "trial_type": "single-audio", "word": "pizza", "stimulus": "/static/audio/wordpool/PIZZA.wav", "conditions": [24, 800, "a", 12000], "internal_node_id": "0.0-133.0", "trial": 4, "time_elapsed": 860834, "serialpos": 9, "key_press": -1, "wordID": 1078, "type": "PRES_AUD", "trial_index": 178}, "uniqueid": "MTK2233:378XPAWRUDKBOC0A5QL3R5WE223AI1", "dateTime": 1516900217115}, {"current_trial": 179, "trialdata": {"rt": -1000, "trial_type": "single-audio", "word": "mammal", "stimulus": "/static/audio/wordpool/MAMMAL.wav", "conditions": [24, 800, "a", 12000], "internal_node_id": "0.0-134.0", "trial": 4, "time_elapsed": 862646, "serialpos": 10, "key_press": -1, "wordID": 860, "type": "PRES_AUD", "trial_index": 179}, "uniqueid": "MTK2233:378XPAWRUDKBOC0A5QL3R5WE223AI1", "dateTime": 1516900218927}, {"current_trial": 180, "trialdata": {"rt": -1000, "trial_type": "single-audio", "word": "zebra", "stimulus": "/static/audio/wordpool/ZEBRA.wav", "conditions": [24, 800, "a", 12000], "internal_node_id": "0.0-135.0", "trial": 4, "time_elapsed": 864351, "serialpos": 11, "key_press": -1, "wordID": 1634, "type": "PRES_AUD", "trial_index": 180}, "uniqueid": "MTK2233:378XPAWRUDKBOC0A5QL3R5WE223AI1", "dateTime": 1516900220632}, {"current_trial": 181, "trialdata": {"rt": -1000, "trial_type": "single-audio", "word": "venus", "stimulus": "/static/audio/wordpool/VENUS.wav", "conditions": [24, 800, "a", 12000], "internal_node_id": "0.0-136.0", "trial": 4, "time_elapsed": 866270, "serialpos": 12, "key_press": -1, "wordID": 1556, "type": "PRES_AUD", "trial_index": 181}, "uniqueid": "MTK2233:378XPAWRUDKBOC0A5QL3R5WE223AI1", "dateTime": 1516900222551}, {"current_trial": 182, "trialdata": {"rt": -1000, "trial_type": "single-audio", "word": "proton", "stimulus": "/static/audio/wordpool/PROTON.wav", "conditions": [24, 800, "a", 12000], "internal_node_id": "0.0-137.0", "trial": 4, "time_elapsed": 868051, "serialpos": 13, "key_press": -1, "wordID": 1131, "type": "PRES_AUD", "trial_index": 182}, "uniqueid": "MTK2233:378XPAWRUDKBOC0A5QL3R5WE223AI1", "dateTime": 1516900224332}, {"current_trial": 183, "trialdata": {"rt": -1000, "trial_type": "single-audio", "word": "tourist", "stimulus": "/static/audio/wordpool/TOURIST.wav", "conditions": [24, 800, "a", 12000], "internal_node_id": "0.0-138.0", "trial": 4, "time_elapsed": 870004, "serialpos": 14, "key_press": -1, "wordID": 1487, "type": "PRES_AUD", "trial_index": 183}, "uniqueid": "MTK2233:378XPAWRUDKBOC0A5QL3R5WE223AI1", "dateTime": 1516900226285}, {"current_trial": 184, "trialdata": {"rt": -1000, "trial_type": "single-audio", "word": "river", "stimulus": "/static/audio/wordpool/RIVER.wav", "conditions": [24, 800, "a", 12000], "internal_node_id": "0.0-139.0", "trial": 4, "time_elapsed": 871622, "serialpos": 15, "key_press": -1, "wordID": 1193, "type": "PRES_AUD", "trial_index": 184}, "uniqueid": "MTK2233:378XPAWRUDKBOC0A5QL3R5WE223AI1", "dateTime": 1516900227903}, {"current_trial": 185, "trialdata": {"rt": -1000, "trial_type": "single-audio", "word": "shelf", "stimulus": "/static/audio/wordpool/SHELF.wav", "conditions": [24, 800, "a", 12000], "internal_node_id": "0.0-140.0", "trial": 4, "time_elapsed": 873559, "serialpos": 16, "key_press": -1, "wordID": 1279, "type": "PRES_AUD", "trial_index": 185}, "uniqueid": "MTK2233:378XPAWRUDKBOC0A5QL3R5WE223AI1", "dateTime": 1516900229840}, {"current_trial": 186, "trialdata": {"rt": -1000, "trial_type": "single-audio", "word": "dress", "stimulus": "/static/audio/wordpool/DRESS.wav", "conditions": [24, 800, "a", 12000], "internal_node_id": "0.0-141.0", "trial": 4, "time_elapsed": 875369, "serialpos": 17, "key_press": -1, "wordID": 494, "type": "PRES_AUD", "trial_index": 186}, "uniqueid": "MTK2233:378XPAWRUDKBOC0A5QL3R5WE223AI1", "dateTime": 1516900231651}, {"current_trial": 187, "trialdata": {"rt": -1000, "trial_type": "single-audio", "word": "fireman", "stimulus": "/static/audio/wordpool/FIREMAN.wav", "conditions": [24, 800, "a", 12000], "internal_node_id": "0.0-142.0", "trial": 4, "time_elapsed": 877322, "serialpos": 18, "key_press": -1, "wordID": 568, "type": "PRES_AUD", "trial_index": 187}, "uniqueid": "MTK2233:378XPAWRUDKBOC0A5QL3R5WE223AI1", "dateTime": 1516900233603}, {"current_trial": 188, "trialdata": {"rt": -1000, "trial_type": "single-audio", "word": "knife", "stimulus": "/static/audio/wordpool/KNIFE.wav", "conditions": [24, 800, "a", 12000], "internal_node_id": "0.0-143.0", "trial": 4, "time_elapsed": 879073, "serialpos": 19, "key_press": -1, "wordID": 784, "type": "PRES_AUD", "trial_index": 188}, "uniqueid": "MTK2233:378XPAWRUDKBOC0A5QL3R5WE223AI1", "dateTime": 1516900235354}, {"current_trial": 189, "trialdata": {"rt": -1000, "trial_type": "single-audio", "word": "blouse", "stimulus": "/static/audio/wordpool/BLOUSE.wav", "conditions": [24, 800, "a", 12000], "internal_node_id": "0.0-144.0", "trial": 4, "time_elapsed": 880863, "serialpos": 20, "key_press": -1, "wordID": 138, "type": "PRES_AUD", "trial_index": 189}, "uniqueid": "MTK2233:378XPAWRUDKBOC0A5QL3R5WE223AI1", "dateTime": 1516900237144}, {"current_trial": 190, "trialdata": {"rt": -1000, "trial_type": "single-audio", "word": "snack", "stimulus": "/static/audio/wordpool/SNACK.wav", "conditions": [24, 800, "a", 12000], "internal_node_id": "0.0-145.0", "trial": 4, "time_elapsed": 882537, "serialpos": 21, "key_press": -1, "wordID": 1330, "type": "PRES_AUD", "trial_index": 190}, "uniqueid": "MTK2233:378XPAWRUDKBOC0A5QL3R5WE223AI1", "dateTime": 1516900238818}, {"current_trial": 191, "trialdata": {"rt": -1000, "trial_type": "single-audio", "word": "lunch", "stimulus": "/static/audio/wordpool/LUNCH.wav", "conditions": [24, 800, "a", 12000], "internal_node_id": "0.0-146.0", "trial": 4, "time_elapsed": 884441, "serialpos": 22, "key_press": -1, "wordID": 848, "type": "PRES_AUD", "trial_index": 191}, "uniqueid": "MTK2233:378XPAWRUDKBOC0A5QL3R5WE223AI1", "dateTime": 1516900240722}, {"current_trial": 192, "trialdata": {"rt": -1000, "trial_type": "single-audio", "word": "bunny", "stimulus": "/static/audio/wordpool/BUNNY.wav", "conditions": [24, 800, "a", 12000], "internal_node_id": "0.0-147.0", "trial": 4, "time_elapsed": 886129, "serialpos": 23, "key_press": -1, "wordID": 197, "type": "PRES_AUD", "trial_index": 192}, "uniqueid": "MTK2233:378XPAWRUDKBOC0A5QL3R5WE223AI1", "dateTime": 1516900242410}, {"current_trial": 193, "trialdata": {"rt": -1, "trial_type": "single-stim", "stimulus": "", "internal_node_id": "0.0-148.0-0.0", "time_elapsed": 887473, "key_press": -1, "type": "PRE_RECALL_DELAY", "trial_index": 193}, "uniqueid": "MTK2233:378XPAWRUDKBOC0A5QL3R5WE223AI1", "dateTime": 1516900243754}, {"current_trial": 194, "trialdata": {"rt": -1000, "trial_type": "single-audio", "stimulus": "/static/audio/400Hz.wav", "internal_node_id": "0.0-149.0", "time_elapsed": 887982, "key_press": -1, "type": "PRE_RECALL_ALERT", "trial_index": 194}, "uniqueid": "MTK2233:378XPAWRUDKBOC0A5QL3R5WE223AI1", "dateTime": 1516900244263}, {"current_trial": 195, "trialdata": {"rt": [5568, 8194, 9944, 13853, 17096, 19591, 25528, 29321, 31812, 35759, 37973, 40756, 42828, 44682, 48147, 50829, 55643, 56617], "recwords": ["snack", "lunch", "zebra", "pizza", "lace", "clothes", "blouse", "paper", "braces", "stomach", "chest", "fireman", "shelf", "river", "bunny", "knife", "tourist", ""], "key_times": [4279, 4458, 4534, 4728, 4825, 5568, 6161, 6411, 6606, 6748, 6844, 8194, 8968, 9205, 9378, 9508, 9692, 9944, 12217, 12849, 13165, 13356, 13566, 13853, 16405, 16541, 16732, 16864, 17096, 17511, 17683, 17856, 18046, 18163, 18324, 18535, 19591, 24137, 24402, 24647, 24885, 25045, 25280, 25528, 28564, 28655, 28804, 28969, 29039, 29321, 30072, 30196, 30416, 30611, 30781, 31157, 31812, 33635, 33877, 33988, 34224, 34324, 34566, 34704, 35759, 37042, 37174, 37286, 37487, 37686, 37973, 38369, 38590, 38684, 38908, 39121, 39237, 39370, 40756, 41461, 41686, 41875, 42058, 42377, 42828, 43225, 43397, 43640, 43958, 44167, 44682, 46504, 46808, 47093, 47270, 47617, 48147, 48867, 49110, 49512, 49687, 49940, 50829, 51602, 51705, 51939, 52071, 52301, 52447, 53787, 53992, 54525, 54702, 54984, 55643, 56617], "trial_type": "free-recall", "conditions": [24, 800, "a", 12000], "internal_node_id": "0.0-150.0-0.0", "key_presses": [83, 78, 65, 67, 75, 13, 76, 85, 78, 67, 72, 13, 90, 69, 66, 82, 65, 13, 80, 73, 90, 90, 65, 13, 76, 65, 67, 69, 13, 67, 76, 79, 84, 72, 69, 83, 13, 66, 76, 79, 85, 83, 69, 13, 80, 65, 80, 69, 82, 13, 66, 82, 65, 67, 69, 83, 13, 83, 84, 79, 77, 65, 67, 72, 13, 67, 72, 69, 83, 84, 13, 70, 73, 82, 69, 77, 65, 78, 13, 83, 72, 69, 76, 70, 13, 82, 73, 86, 69, 82, 13, 66, 85, 78, 78, 89, 13, 75, 78, 73, 70, 69, 13, 84, 79, 85, 82, 83, 73, 8, 8, 73, 83, 84, 13, 13], "trial": 4, "time_elapsed": 947986, "type": "FREE_RECALL", "trial_index": 195}, "uniqueid": "MTK2233:378XPAWRUDKBOC0A5QL3R5WE223AI1", "dateTime": 1516900304269}, {"current_trial": 196, "trialdata": {"rt": 5383, "trial_type": "text", "internal_node_id": "0.0-151.0", "time_elapsed": 955376, "key_press": 32, "type": "INSTRUCTIONS", "trial_index": 196}, "uniqueid": "MTK2233:378XPAWRUDKBOC0A5QL3R5WE223AI1", "dateTime": 1516900311657}, {"current_trial": 197, "trialdata": {"rt": [2555, 7272, 10432, 14606, 17427, 19669, 22604], "trial_type": "math-distractor", "key_times": [2071, 2302, 2555, 6392, 6679, 7272, 9401, 9800, 10432, 14044, 14338, 14606, 17107, 17427, 19420, 19669, 21806, 22246, 22604], "responses": ["11", "17", "14", "22", "8", "8", "14"], "num2": [1, 5, 5, 6, 6, 5, 4, 4], "num3": [5, 9, 8, 8, 1, 1, 6, 4], "conditions": [12, 1600, "a", 24000], "internal_node_id": "0.0-152.0", "key_presses": [49, 49, 13, 49, 55, 13, 49, 52, 13, 50, 50, 13, 56, 13, 56, 13, 49, 52, 13], "trial": 5, "time_elapsed": 981383, "type": "DISTRACTOR", "trial_index": 197, "num1": [5, 3, 1, 6, 1, 2, 4, 7]}, "uniqueid": "MTK2233:378XPAWRUDKBOC0A5QL3R5WE223AI1", "dateTime": 1516900337665}, {"current_trial": 198, "trialdata": {"rt": -1, "trial_type": "single-stim", "stimulus": "<p id=\"stim\">10</p>", "internal_node_id": "0.0-153.0-0.0", "time_elapsed": 984386, "key_press": -1, "trial_index": 198}, "uniqueid": "MTK2233:378XPAWRUDKBOC0A5QL3R5WE223AI1", "dateTime": 1516900340667}, {"current_trial": 199, "trialdata": {"rt": -1, "trial_type": "single-stim", "stimulus": "<p id=\"stim\">9</p>", "internal_node_id": "0.0-153.0-1.0", "time_elapsed": 985388, "key_press": -1, "trial_index": 199}, "uniqueid": "MTK2233:378XPAWRUDKBOC0A5QL3R5WE223AI1", "dateTime": 1516900341669}, {"current_trial": 200, "trialdata": {"rt": -1, "trial_type": "single-stim", "stimulus": "<p id=\"stim\">8</p>", "internal_node_id": "0.0-153.0-2.0", "time_elapsed": 986390, "key_press": -1, "trial_index": 200}, "uniqueid": "MTK2233:378XPAWRUDKBOC0A5QL3R5WE223AI1", "dateTime": 1516900342671}, {"current_trial": 201, "trialdata": {"rt": -1, "trial_type": "single-stim", "stimulus": "<p id=\"stim\">7</p>", "internal_node_id": "0.0-153.0-3.0", "time_elapsed": 987394, "key_press": -1, "trial_index": 201}, "uniqueid": "MTK2233:378XPAWRUDKBOC0A5QL3R5WE223AI1", "dateTime": 1516900343676}, {"current_trial": 202, "trialdata": {"rt": -1, "trial_type": "single-stim", "stimulus": "<p id=\"stim\">6</p>", "internal_node_id": "0.0-153.0-4.0", "time_elapsed": 988399, "key_press": -1, "trial_index": 202}, "uniqueid": "MTK2233:378XPAWRUDKBOC0A5QL3R5WE223AI1", "dateTime": 1516900344680}, {"current_trial": 203, "trialdata": {"rt": -1, "trial_type": "single-stim", "stimulus": "<p id=\"stim\">5</p>", "internal_node_id": "0.0-153.0-5.0", "time_elapsed": 989401, "key_press": -1, "trial_index": 203}, "uniqueid": "MTK2233:378XPAWRUDKBOC0A5QL3R5WE223AI1", "dateTime": 1516900345682}, {"current_trial": 204, "trialdata": {"rt": -1, "trial_type": "single-stim", "stimulus": "<p id=\"stim\">4</p>", "internal_node_id": "0.0-153.0-6.0", "time_elapsed": 990402, "key_press": -1, "trial_index": 204}, "uniqueid": "MTK2233:378XPAWRUDKBOC0A5QL3R5WE223AI1", "dateTime": 1516900346683}, {"current_trial": 205, "trialdata": {"rt": -1, "trial_type": "single-stim", "stimulus": "<p id=\"stim\">3</p>", "internal_node_id": "0.0-153.0-7.0", "time_elapsed": 991404, "key_press": -1, "trial_index": 205}, "uniqueid": "MTK2233:378XPAWRUDKBOC0A5QL3R5WE223AI1", "dateTime": 1516900347685}, {"current_trial": 206, "trialdata": {"rt": -1, "trial_type": "single-stim", "stimulus": "<p id=\"stim\">2</p>", "internal_node_id": "0.0-153.0-8.0", "time_elapsed": 992409, "key_press": -1, "trial_index": 206}, "uniqueid": "MTK2233:378XPAWRUDKBOC0A5QL3R5WE223AI1", "dateTime": 1516900348690}, {"current_trial": 207, "trialdata": {"rt": -1, "trial_type": "single-stim", "stimulus": "<p id=\"stim\">1</p>", "internal_node_id": "0.0-153.0-9.0", "time_elapsed": 993410, "key_press": -1, "trial_index": 207}, "uniqueid": "MTK2233:378XPAWRUDKBOC0A5QL3R5WE223AI1", "dateTime": 1516900349691}, {"current_trial": 208, "trialdata": {"rt": -1, "trial_type": "single-stim", "stimulus": "<p id=\"stim\">+</p>", "internal_node_id": "0.0-154.0-0.0", "time_elapsed": 994911, "key_press": -1, "type": "FIXATION", "trial_index": 208}, "uniqueid": "MTK2233:378XPAWRUDKBOC0A5QL3R5WE223AI1", "dateTime": 1516900351192}, {"current_trial": 209, "trialdata": {"rt": -1000, "trial_type": "single-audio", "word": "glove", "stimulus": "/static/audio/wordpool/GLOVE.wav", "conditions": [12, 1600, "a", 24000], "internal_node_id": "0.0-155.0", "trial": 5, "time_elapsed": 997510, "serialpos": 0, "key_press": -1, "wordID": 641, "type": "PRES_AUD", "trial_index": 209}, "uniqueid": "MTK2233:378XPAWRUDKBOC0A5QL3R5WE223AI1", "dateTime": 1516900353791}, {"current_trial": 210, "trialdata": {"rt": -1000, "trial_type": "single-audio", "word": "swimmer", "stimulus": "/static/audio/wordpool/SWIMMER.wav", "conditions": [12, 1600, "a", 24000], "internal_node_id": "0.0-156.0", "trial": 5, "time_elapsed": 1000040, "serialpos": 1, "key_press": -1, "wordID": 1419, "type": "PRES_AUD", "trial_index": 210}, "uniqueid": "MTK2233:378XPAWRUDKBOC0A5QL3R5WE223AI1", "dateTime": 1516900356321}, {"current_trial": 211, "trialdata": {"rt": -1000, "trial_type": "single-audio", "word": "citrus", "stimulus": "/static/audio/wordpool/CITRUS.wav", "conditions": [12, 1600, "a", 24000], "internal_node_id": "0.0-157.0", "trial": 5, "time_elapsed": 1002690, "serialpos": 2, "key_press": -1, "wordID": 312, "type": "PRES_AUD", "trial_index": 211}, "uniqueid": "MTK2233:378XPAWRUDKBOC0A5QL3R5WE223AI1", "dateTime": 1516900358971}, {"current_trial": 212, "trialdata": {"rt": -1000, "trial_type": "single-audio", "word": "lamp", "stimulus": "/static/audio/wordpool/LAMP.wav", "conditions": [12, 1600, "a", 24000], "internal_node_id": "0.0-158.0", "trial": 5, "time_elapsed": 1005364, "serialpos": 3, "key_press": -1, "wordID": 797, "type": "PRES_AUD", "trial_index": 212}, "uniqueid": "MTK2233:378XPAWRUDKBOC0A5QL3R5WE223AI1", "dateTime": 1516900361645}, {"current_trial": 213, "trialdata": {"rt": -1000, "trial_type": "single-audio", "word": "curtain", "stimulus": "/static/audio/wordpool/CURTAIN.wav", "conditions": [12, 1600, "a", 24000], "internal_node_id": "0.0-159.0", "trial": 5, "time_elapsed": 1007817, "serialpos": 4, "key_press": -1, "wordID": 426, "type": "PRES_AUD", "trial_index": 213}, "uniqueid": "MTK2233:378XPAWRUDKBOC0A5QL3R5WE223AI1", "dateTime": 1516900364098}, {"current_trial": 214, "trialdata": {"rt": -1000, "trial_type": "single-audio", "word": "rug", "stimulus": "/static/audio/wordpool/RUG.wav", "conditions": [12, 1600, "a", 24000], "internal_node_id": "0.0-160.0", "trial": 5, "time_elapsed": 1010544, "serialpos": 5, "key_press": -1, "wordID": 1214, "type": "PRES_AUD", "trial_index": 214}, "uniqueid": "MTK2233:378XPAWRUDKBOC0A5QL3R5WE223AI1", "dateTime": 1516900366825}, {"current_trial": 215, "trialdata": {"rt": -1000, "trial_type": "single-audio", "word": "cafe", "stimulus": "/static/audio/wordpool/CAFE.wav", "conditions": [12, 1600, "a", 24000], "internal_node_id": "0.0-161.0", "trial": 5, "time_elapsed": 1013023, "serialpos": 6, "key_press": -1, "wordID": 215, "type": "PRES_AUD", "trial_index": 215}, "uniqueid": "MTK2233:378XPAWRUDKBOC0A5QL3R5WE223AI1", "dateTime": 1516900369304}, {"current_trial": 216, "trialdata": {"rt": -1000, "trial_type": "single-audio", "word": "diner", "stimulus": "/static/audio/wordpool/DINER.wav", "conditions": [12, 1600, "a", 24000], "internal_node_id": "0.0-162.0", "trial": 5, "time_elapsed": 1015740, "serialpos": 7, "key_press": -1, "wordID": 466, "type": "PRES_AUD", "trial_index": 216}, "uniqueid": "MTK2233:378XPAWRUDKBOC0A5QL3R5WE223AI1", "dateTime": 1516900372021}, {"current_trial": 217, "trialdata": {"rt": -1000, "trial_type": "single-audio", "word": "climber", "stimulus": "/static/audio/wordpool/CLIMBER.wav", "conditions": [12, 1600, "a", 24000], "internal_node_id": "0.0-163.0", "trial": 5, "time_elapsed": 1018474, "serialpos": 8, "key_press": -1, "wordID": 322, "type": "PRES_AUD", "trial_index": 217}, "uniqueid": "MTK2233:378XPAWRUDKBOC0A5QL3R5WE223AI1", "dateTime": 1516900374755}, {"current_trial": 218, "trialdata": {"rt": -1000, "trial_type": "single-audio", "word": "necklace", "stimulus": "/static/audio/wordpool/NECKLACE.wav", "conditions": [12, 1600, "a", 24000], "internal_node_id": "0.0-164.0", "trial": 5, "time_elapsed": 1021225, "serialpos": 9, "key_press": -1, "wordID": 939, "type": "PRES_AUD", "trial_index": 218}, "uniqueid": "MTK2233:378XPAWRUDKBOC0A5QL3R5WE223AI1", "dateTime": 1516900377506}, {"current_trial": 219, "trialdata": {"rt": -1000, "trial_type": "single-audio", "word": "grape", "stimulus": "/static/audio/wordpool/GRAPE.wav", "conditions": [12, 1600, "a", 24000], "internal_node_id": "0.0-165.0", "trial": 5, "time_elapsed": 1023756, "serialpos": 10, "key_press": -1, "wordID": 653, "type": "PRES_AUD", "trial_index": 219}, "uniqueid": "MTK2233:378XPAWRUDKBOC0A5QL3R5WE223AI1", "dateTime": 1516900380037}, {"current_trial": 220, "trialdata": {"rt": -1000, "trial_type": "single-audio", "word": "motel", "stimulus": "/static/audio/wordpool/MOTEL.wav", "conditions": [12, 1600, "a", 24000], "internal_node_id": "0.0-166.0", "trial": 5, "time_elapsed": 1026238, "serialpos": 11, "key_press": -1, "wordID": 918, "type": "PRES_AUD", "trial_index": 220}, "uniqueid": "MTK2233:378XPAWRUDKBOC0A5QL3R5WE223AI1", "dateTime": 1516900382519}, {"current_trial": 221, "trialdata": {"rt": -1, "trial_type": "single-stim", "stimulus": "", "internal_node_id": "0.0-167.0-0.0", "time_elapsed": 1027635, "key_press": -1, "type": "PRE_RECALL_DELAY", "trial_index": 221}, "uniqueid": "MTK2233:378XPAWRUDKBOC0A5QL3R5WE223AI1", "dateTime": 1516900383916}, {"current_trial": 222, "trialdata": {"rt": -1000, "trial_type": "single-audio", "stimulus": "/static/audio/400Hz.wav", "internal_node_id": "0.0-168.0", "time_elapsed": 1028138, "key_press": -1, "type": "PRE_RECALL_ALERT", "trial_index": 222}, "uniqueid": "MTK2233:378XPAWRUDKBOC0A5QL3R5WE223AI1", "dateTime": 1516900384419}, {"current_trial": 223, "trialdata": {"rt": [4244, 6512, 10132, 12075, 16784, 19070, 22831, 25523, 28773, 30535, 36386, 44710], "recwords": ["cafe", "diner", "lamp", "swimmer", "grape", "rug", "motel", "necklace", "curtain", "glove", "", ""], "key_times": [2693, 2864, 3080, 3267, 4244, 5408, 5560, 5819, 6108, 6209, 6512, 8103, 8248, 8411, 9462, 10132, 10596, 10789, 10975, 11241, 11386, 11479, 11554, 12075, 15834, 15953, 16174, 16349, 16513, 16784, 18231, 18446, 18711, 19070, 21795, 22043, 22185, 22417, 22533, 22831, 23199, 23343, 23572, 23740, 24009, 24121, 24319, 24440, 25523, 26468, 26718, 26911, 27122, 27348, 27648, 27896, 28773, 29551, 29685, 29939, 30087, 30278, 30535, 36386, 44710], "trial_type": "free-recall", "conditions": [12, 1600, "a", 24000], "internal_node_id": "0.0-169.0-0.0", "key_presses": [67, 65, 70, 69, 13, 68, 73, 78, 69, 82, 13, 76, 65, 77, 80, 13, 83, 87, 73, 77, 77, 69, 82, 13, 71, 82, 65, 80, 69, 13, 82, 85, 71, 13, 77, 79, 84, 69, 76, 13, 78, 69, 67, 75, 76, 65, 67, 69, 13, 67, 85, 82, 84, 65, 73, 78, 13, 71, 76, 79, 86, 69, 13, 13, 13], "trial": 5, "time_elapsed": 1088144, "type": "FREE_RECALL", "trial_index": 223}, "uniqueid": "MTK2233:378XPAWRUDKBOC0A5QL3R5WE223AI1", "dateTime": 1516900444428}, {"current_trial": 224, "trialdata": {"rt": 1459, "trial_type": "text", "internal_node_id": "0.0-170.0", "time_elapsed": 1091609, "key_press": 32, "type": "INSTRUCTIONS", "trial_index": 224}, "uniqueid": "MTK2233:378XPAWRUDKBOC0A5QL3R5WE223AI1", "dateTime": 1516900447890}, {"current_trial": 225, "trialdata": {"rt": [4736, 8337, 12654, 14975, 17663, 20740, 23754], "trial_type": "math-distractor", "key_times": [3821, 3948, 4736, 6866, 7541, 8337, 12007, 12426, 12654, 14311, 14728, 14975, 16731, 17121, 17663, 20104, 20512, 20740, 23136, 23339, 23754], "responses": ["23", "17", "12", "17", "10", "14", "10"], "num2": [6, 8, 5, 7, 8, 1, 1, 4], "num3": [6, 1, 6, 6, 1, 7, 6, 6], "conditions": [24, 1600, "a", 24000], "internal_node_id": "0.0-171.0", "key_presses": [50, 51, 13, 49, 55, 13, 49, 50, 13, 49, 55, 13, 49, 48, 13, 49, 52, 13, 49, 48, 13], "trial": 6, "time_elapsed": 1117614, "type": "DISTRACTOR", "trial_index": 225, "num1": [9, 8, 1, 4, 1, 6, 3, 5]}, "uniqueid": "MTK2233:378XPAWRUDKBOC0A5QL3R5WE223AI1", "dateTime": 1516900473895}, {"current_trial": 226, "trialdata": {"rt": -1, "trial_type": "single-stim", "stimulus": "<p id=\"stim\">10</p>", "internal_node_id": "0.0-172.0-0.0", "time_elapsed": 1120617, "key_press": -1, "trial_index": 226}, "uniqueid": "MTK2233:378XPAWRUDKBOC0A5QL3R5WE223AI1", "dateTime": 1516900476898}, {"current_trial": 227, "trialdata": {"rt": -1, "trial_type": "single-stim", "stimulus": "<p id=\"stim\">9</p>", "internal_node_id": "0.0-172.0-1.0", "time_elapsed": 1121622, "key_press": -1, "trial_index": 227}, "uniqueid": "MTK2233:378XPAWRUDKBOC0A5QL3R5WE223AI1", "dateTime": 1516900477903}, {"current_trial": 228, "trialdata": {"rt": -1, "trial_type": "single-stim", "stimulus": "<p id=\"stim\">8</p>", "internal_node_id": "0.0-172.0-2.0", "time_elapsed": 1122622, "key_press": -1, "trial_index": 228}, "uniqueid": "MTK2233:378XPAWRUDKBOC0A5QL3R5WE223AI1", "dateTime": 1516900478903}, {"current_trial": 229, "trialdata": {"rt": -1, "trial_type": "single-stim", "stimulus": "<p id=\"stim\">7</p>", "internal_node_id": "0.0-172.0-3.0", "time_elapsed": 1123627, "key_press": -1, "trial_index": 229}, "uniqueid": "MTK2233:378XPAWRUDKBOC0A5QL3R5WE223AI1", "dateTime": 1516900479908}, {"current_trial": 230, "trialdata": {"rt": -1, "trial_type": "single-stim", "stimulus": "<p id=\"stim\">6</p>", "internal_node_id": "0.0-172.0-4.0", "time_elapsed": 1124631, "key_press": -1, "trial_index": 230}, "uniqueid": "MTK2233:378XPAWRUDKBOC0A5QL3R5WE223AI1", "dateTime": 1516900480912}, {"current_trial": 231, "trialdata": {"rt": -1, "trial_type": "single-stim", "stimulus": "<p id=\"stim\">5</p>", "internal_node_id": "0.0-172.0-5.0", "time_elapsed": 1125634, "key_press": -1, "trial_index": 231}, "uniqueid": "MTK2233:378XPAWRUDKBOC0A5QL3R5WE223AI1", "dateTime": 1516900481915}, {"current_trial": 232, "trialdata": {"rt": -1, "trial_type": "single-stim", "stimulus": "<p id=\"stim\">4</p>", "internal_node_id": "0.0-172.0-6.0", "time_elapsed": 1126636, "key_press": -1, "trial_index": 232}, "uniqueid": "MTK2233:378XPAWRUDKBOC0A5QL3R5WE223AI1", "dateTime": 1516900482917}, {"current_trial": 233, "trialdata": {"rt": -1, "trial_type": "single-stim", "stimulus": "<p id=\"stim\">3</p>", "internal_node_id": "0.0-172.0-7.0", "time_elapsed": 1127638, "key_press": -1, "trial_index": 233}, "uniqueid": "MTK2233:378XPAWRUDKBOC0A5QL3R5WE223AI1", "dateTime": 1516900483919}, {"current_trial": 234, "trialdata": {"rt": -1, "trial_type": "single-stim", "stimulus": "<p id=\"stim\">2</p>", "internal_node_id": "0.0-172.0-8.0", "time_elapsed": 1128639, "key_press": -1, "trial_index": 234}, "uniqueid": "MTK2233:378XPAWRUDKBOC0A5QL3R5WE223AI1", "dateTime": 1516900484920}, {"current_trial": 235, "trialdata": {"rt": -1, "trial_type": "single-stim", "stimulus": "<p id=\"stim\">1</p>", "internal_node_id": "0.0-172.0-9.0", "time_elapsed": 1129640, "key_press": -1, "trial_index": 235}, "uniqueid": "MTK2233:378XPAWRUDKBOC0A5QL3R5WE223AI1", "dateTime": 1516900485921}, {"current_trial": 236, "trialdata": {"rt": -1, "trial_type": "single-stim", "stimulus": "<p id=\"stim\">+</p>", "internal_node_id": "0.0-173.0-0.0", "time_elapsed": 1131141, "key_press": -1, "type": "FIXATION", "trial_index": 236}, "uniqueid": "MTK2233:378XPAWRUDKBOC0A5QL3R5WE223AI1", "dateTime": 1516900487423}, {"current_trial": 237, "trialdata": {"rt": -1000, "trial_type": "single-audio", "word": "preacher", "stimulus": "/static/audio/wordpool/PREACHER.wav", "conditions": [24, 1600, "a", 24000], "internal_node_id": "0.0-174.0", "trial": 6, "time_elapsed": 1133618, "serialpos": 0, "key_press": -1, "wordID": 1118, "type": "PRES_AUD", "trial_index": 237}, "uniqueid": "MTK2233:378XPAWRUDKBOC0A5QL3R5WE223AI1", "dateTime": 1516900489899}, {"current_trial": 238, "trialdata": {"rt": -1000, "trial_type": "single-audio", "word": "stream", "stimulus": "/static/audio/wordpool/STREAM.wav", "conditions": [24, 1600, "a", 24000], "internal_node_id": "0.0-175.0", "trial": 6, "time_elapsed": 1136144, "serialpos": 1, "key_press": -1, "wordID": 1391, "type": "PRES_AUD", "trial_index": 238}, "uniqueid": "MTK2233:378XPAWRUDKBOC0A5QL3R5WE223AI1", "dateTime": 1516900492425}, {"current_trial": 239, "trialdata": {"rt": -1000, "trial_type": "single-audio", "word": "space", "stimulus": "/static/audio/wordpool/SPACE.wav", "conditions": [24, 1600, "a", 24000], "internal_node_id": "0.0-176.0", "trial": 6, "time_elapsed": 1138566, "serialpos": 2, "key_press": -1, "wordID": 1344, "type": "PRES_AUD", "trial_index": 239}, "uniqueid": "MTK2233:378XPAWRUDKBOC0A5QL3R5WE223AI1", "dateTime": 1516900494847}, {"current_trial": 240, "trialdata": {"rt": -1000, "trial_type": "single-audio", "word": "belly", "stimulus": "/static/audio/wordpool/BELLY.wav", "conditions": [24, 1600, "a", 24000], "internal_node_id": "0.0-177.0", "trial": 6, "time_elapsed": 1141351, "serialpos": 3, "key_press": -1, "wordID": 118, "type": "PRES_AUD", "trial_index": 240}, "uniqueid": "MTK2233:378XPAWRUDKBOC0A5QL3R5WE223AI1", "dateTime": 1516900497632}, {"current_trial": 241, "trialdata": {"rt": -1000, "trial_type": "single-audio", "word": "whiskers", "stimulus": "/static/audio/wordpool/WHISKERS.wav", "conditions": [24, 1600, "a", 24000], "internal_node_id": "0.0-178.0", "trial": 6, "time_elapsed": 1144127, "serialpos": 4, "key_press": -1, "wordID": 1604, "type": "PRES_AUD", "trial_index": 241}, "uniqueid": "MTK2233:378XPAWRUDKBOC0A5QL3R5WE223AI1", "dateTime": 1516900500408}, {"current_trial": 242, "trialdata": {"rt": -1000, "trial_type": "single-audio", "word": "branch", "stimulus": "/static/audio/wordpool/BRANCH.wav", "conditions": [24, 1600, "a", 24000], "internal_node_id": "0.0-179.0", "trial": 6, "time_elapsed": 1146637, "serialpos": 5, "key_press": -1, "wordID": 167, "type": "PRES_AUD", "trial_index": 242}, "uniqueid": "MTK2233:378XPAWRUDKBOC0A5QL3R5WE223AI1", "dateTime": 1516900502918}, {