{"assignmentId": "3C2NJ6JBKBOEXAGXPR5GQV9XD9MN2X", "workerId": "MTK2614", "questiondata": {"avail_screen_height": 1373, "color_depth": 24, "screen_width": 2560, "pixel_depth": 24, "avail_screen_width": 2560, "screen_height": 1440}, "bonus": 0, "hitId": "3PGQRAZX02RZRO3F06OV99OOVIDSYE", "counterbalance": 1647, "useragent": "Mozilla/5.0 (Windows NT 10.0; Win64; x64; rv:58.0) Gecko/20100101 Firefox/58.0", "eventdata": [{"eventtype": "initialized", "interval": 0, "value": null, "timestamp": 1519153474122}, {"eventtype": "window_resize", "interval": 0, "value": [2560, 1273], "timestamp": 1519153474122}, {"eventtype": "focus", "interval": 5704, "value": "off", "timestamp": 1519153479826}, {"eventtype": "focus", "interval": 4975, "value": "on", "timestamp": 1519153484801}, {"eventtype": "focus", "interval": 1105797, "value": "off", "timestamp": 1519154590598}, {"eventtype": "focus", "interval": 1094, "value": "on", "timestamp": 1519154591692}, {"eventtype": "focus", "interval": 311782, "value": "off", "timestamp": 1519154903474}, {"eventtype": "focus", "interval": 2894, "value": "on", "timestamp": 1519154906368}, {"eventtype": "focus", "interval": 330133, "value": "off", "timestamp": 1519155236501}, {"eventtype": "focus", "interval": 7366, "value": "on", "timestamp": 1519155243867}], "data": [{"current_trial": 0, "trialdata": {"rt": 1207, "trial_type": "text", "internal_node_id": "0.0-0.0", "time_elapsed": 1210, "key_press": 32, "type": "INSTRUCTIONS", "trial_index": 0}, "uniqueid": "MTK2614:3C2NJ6JBKBOEXAGXPR5GQV9XD9MN2X", "dateTime": 1519153475808}, {"current_trial": 1, "trialdata": {"rt": 18465, "trial_type": "text", "internal_node_id": "0.0-1.0", "time_elapsed": 19676, "key_press": 13, "type": "INSTRUCTIONS", "trial_index": 1}, "uniqueid": "MTK2614:3C2NJ6JBKBOEXAGXPR5GQV9XD9MN2X", "dateTime": 1519153494274}, {"current_trial": 2, "trialdata": {"rt": [6242], "trial_type": "audio-test", "responses": ["ocean"], "internal_node_id": "0.0-2.0", "time_elapsed": 26071, "type": "AUDIO_TEST", "trial_index": 2}, "uniqueid": "MTK2614:3C2NJ6JBKBOEXAGXPR5GQV9XD9MN2X", "dateTime": 1519153500670}, {"current_trial": 3, "trialdata": {"rt": [5188], "trial_type": "audio-test", "responses": ["crystal"], "internal_node_id": "0.0-3.0", "time_elapsed": 31274, "type": "AUDIO_TEST", "trial_index": 3}, "uniqueid": "MTK2614:3C2NJ6JBKBOEXAGXPR5GQV9XD9MN2X", "dateTime": 1519153505873}, {"current_trial": 4, "trialdata": {"rt": [3791], "trial_type": "audio-test", "responses": ["spice"], "internal_node_id": "0.0-4.0", "time_elapsed": 35078, "type": "AUDIO_TEST", "trial_index": 4}, "uniqueid": "MTK2614:3C2NJ6JBKBOEXAGXPR5GQV9XD9MN2X", "dateTime": 1519153509676}, {"current_trial": 5, "trialdata": {"rt": 41924, "trial_type": "survey-text", "responses": "{\"Q0\":\"8pm\",\"Q1\":\"1 am\",\"Q2\":\"3\"}", "internal_node_id": "0.0-5.0", "time_elapsed": 77758, "type": "SLEEP_SURVEY", "trial_index": 5}, "uniqueid": "MTK2614:3C2NJ6JBKBOEXAGXPR5GQV9XD9MN2X", "dateTime": 1519153552357}, {"current_trial": 6, "trialdata": {"rt": 37111, "trial_type": "text", "internal_node_id": "0.0-6.0", "time_elapsed": 115872, "key_press": 13, "type": "INSTRUCTIONS", "trial_index": 6}, "uniqueid": "MTK2614:3C2NJ6JBKBOEXAGXPR5GQV9XD9MN2X", "dateTime": 1519153590470}, {"current_trial": 7, "trialdata": {"rt": 20681, "trial_type": "text", "internal_node_id": "0.0-7.0", "time_elapsed": 137055, "key_press": 13, "type": "INSTRUCTIONS", "trial_index": 7}, "uniqueid": "MTK2614:3C2NJ6JBKBOEXAGXPR5GQV9XD9MN2X", "dateTime": 1519153611654}, {"current_trial": 8, "trialdata": {"rt": 11321, "trial_type": "text", "internal_node_id": "0.0-8.0", "time_elapsed": 148880, "key_press": 13, "type": "INSTRUCTIONS", "trial_index": 8}, "uniqueid": "MTK2614:3C2NJ6JBKBOEXAGXPR5GQV9XD9MN2X", "dateTime": 1519153623478}, {"current_trial": 9, "trialdata": {"rt": [4308, 7054, 8928, 12321, 14072, 16438, 17961], "trial_type": "math-distractor", "key_times": [2308, 2393, 4308, 6548, 6674, 7054, 8285, 8480, 8928, 11871, 12107, 12321, 13526, 13810, 14072, 15855, 16102, 16438, 17687, 17837, 17961], "responses": ["14", "20", "12", "25", "17", "17", "11"], "num2": [7, 8, 2, 8, 1, 9, 4, 1], "num3": [4, 6, 5, 9, 7, 5, 3, 1], "conditions": [18, 1200, "v", 18000], "internal_node_id": "0.0-9.0", "key_presses": [97, 100, 13, 98, 96, 13, 97, 98, 13, 98, 101, 13, 97, 103, 13, 97, 103, 13, 97, 97, 13], "trial": 0, "time_elapsed": 167885, "type": "DISTRACTOR", "trial_index": 9, "num1": [3, 6, 5, 8, 9, 3, 4, 6]}, "uniqueid": "MTK2614:3C2NJ6JBKBOEXAGXPR5GQV9XD9MN2X", "dateTime": 1519153642483}, {"current_trial": 10, "trialdata": {"rt": -1, "trial_type": "single-stim", "stimulus": "<p id=\"stim\">10</p>", "internal_node_id": "0.0-10.0-0.0", "time_elapsed": 170889, "key_press": -1, "trial_index": 10}, "uniqueid": "MTK2614:3C2NJ6JBKBOEXAGXPR5GQV9XD9MN2X", "dateTime": 1519153645487}, {"current_trial": 11, "trialdata": {"rt": -1, "trial_type": "single-stim", "stimulus": "<p id=\"stim\">9</p>", "internal_node_id": "0.0-10.0-1.0", "time_elapsed": 171891, "key_press": -1, "trial_index": 11}, "uniqueid": "MTK2614:3C2NJ6JBKBOEXAGXPR5GQV9XD9MN2X", "dateTime": 1519153646489}, {"current_trial": 12, "trialdata": {"rt": -1, "trial_type": "single-stim", "stimulus": "<p id=\"stim\">8</p>", "internal_node_id": "0.0-10.0-2.0", "time_elapsed": 172893, "key_press": -1, "trial_index": 12}, "uniqueid": "MTK2614:3C2NJ6JBKBOEXAGXPR5GQV9XD9MN2X", "dateTime": 1519153647491}, {"current_trial": 13, "trialdata": {"rt": -1, "trial_type": "single-stim", "stimulus": "<p id=\"stim\">7</p>", "internal_node_id": "0.0-10.0-3.0", "time_elapsed": 173895, "key_press": -1, "trial_index": 13}, "uniqueid": "MTK2614:3C2NJ6JBKBOEXAGXPR5GQV9XD9MN2X", "dateTime": 1519153648493}, {"current_trial": 14, "trialdata": {"rt": -1, "trial_type": "single-stim", "stimulus": "<p id=\"stim\">6</p>", "internal_node_id": "0.0-10.0-4.0", "time_elapsed": 174896, "key_press": -1, "trial_index": 14}, "uniqueid": "MTK2614:3C2NJ6JBKBOEXAGXPR5GQV9XD9MN2X", "dateTime": 1519153649495}, {"current_trial": 15, "trialdata": {"rt": -1, "trial_type": "single-stim", "stimulus": "<p id=\"stim\">5</p>", "internal_node_id": "0.0-10.0-5.0", "time_elapsed": 175898, "key_press": -1, "trial_index": 15}, "uniqueid": "MTK2614:3C2NJ6JBKBOEXAGXPR5GQV9XD9MN2X", "dateTime": 1519153650497}, {"current_trial": 16, "trialdata": {"rt": -1, "trial_type": "single-stim", "stimulus": "<p id=\"stim\">4</p>", "internal_node_id": "0.0-10.0-6.0", "time_elapsed": 176900, "key_press": -1, "trial_index": 16}, "uniqueid": "MTK2614:3C2NJ6JBKBOEXAGXPR5GQV9XD9MN2X", "dateTime": 1519153651499}, {"current_trial": 17, "trialdata": {"rt": -1, "trial_type": "single-stim", "stimulus": "<p id=\"stim\">3</p>", "internal_node_id": "0.0-10.0-7.0", "time_elapsed": 177903, "key_press": -1, "trial_index": 17}, "uniqueid": "MTK2614:3C2NJ6JBKBOEXAGXPR5GQV9XD9MN2X", "dateTime": 1519153652501}, {"current_trial": 18, "trialdata": {"rt": -1, "trial_type": "single-stim", "stimulus": "<p id=\"stim\">2</p>", "internal_node_id": "0.0-10.0-8.0", "time_elapsed": 178905, "key_press": -1, "trial_index": 18}, "uniqueid": "MTK2614:3C2NJ6JBKBOEXAGXPR5GQV9XD9MN2X", "dateTime": 1519153653503}, {"current_trial": 19, "trialdata": {"rt": -1, "trial_type": "single-stim", "stimulus": "<p id=\"stim\">1</p>", "internal_node_id": "0.0-10.0-9.0", "time_elapsed": 179907, "key_press": -1, "trial_index": 19}, "uniqueid": "MTK2614:3C2NJ6JBKBOEXAGXPR5GQV9XD9MN2X", "dateTime": 1519153654505}, {"current_trial": 20, "trialdata": {"rt": -1, "trial_type": "single-stim", "stimulus": "<p id=\"stim\">+</p>", "internal_node_id": "0.0-11.0-0.0", "time_elapsed": 181409, "key_press": -1, "type": "FIXATION", "trial_index": 20}, "uniqueid": "MTK2614:3C2NJ6JBKBOEXAGXPR5GQV9XD9MN2X", "dateTime": 1519153656007}, {"current_trial": 21, "trialdata": {"rt": -1, "trial_type": "single-stim", "word": "slide", "stimulus": "<p id=\"stim\">SLIDE</p>", "conditions": [18, 1200, "v", 18000], "internal_node_id": "0.0-12.0", "trial": 0, "time_elapsed": 182611, "serialpos": 0, "key_press": -1, "wordID": 1325, "type": "PRES_VIS", "trial_index": 21}, "uniqueid": "MTK2614:3C2NJ6JBKBOEXAGXPR5GQV9XD9MN2X", "dateTime": 1519153657209}, {"current_trial": 22, "trialdata": {"rt": -1, "trial_type": "single-stim", "word": "smog", "stimulus": "<p id=\"stim\">SMOG</p>", "conditions": [18, 1200, "v", 18000], "internal_node_id": "0.0-13.0", "trial": 0, "time_elapsed": 184806, "serialpos": 1, "key_press": -1, "wordID": 1329, "type": "PRES_VIS", "trial_index": 22}, "uniqueid": "MTK2614:3C2NJ6JBKBOEXAGXPR5GQV9XD9MN2X", "dateTime": 1519153659405}, {"current_trial": 23, "trialdata": {"rt": -1, "trial_type": "single-stim", "word": "asia", "stimulus": "<p id=\"stim\">ASIA</p>", "conditions": [18, 1200, "v", 18000], "internal_node_id": "0.0-14.0", "trial": 0, "time_elapsed": 186948, "serialpos": 2, "key_press": -1, "wordID": 45, "type": "PRES_VIS", "trial_index": 23}, "uniqueid": "MTK2614:3C2NJ6JBKBOEXAGXPR5GQV9XD9MN2X", "dateTime": 1519153661546}, {"current_trial": 24, "trialdata": {"rt": -1, "trial_type": "single-stim", "word": "leader", "stimulus": "<p id=\"stim\">LEADER</p>", "conditions": [18, 1200, "v", 18000], "internal_node_id": "0.0-15.0", "trial": 0, "time_elapsed": 189144, "serialpos": 3, "key_press": -1, "wordID": 806, "type": "PRES_VIS", "trial_index": 24}, "uniqueid": "MTK2614:3C2NJ6JBKBOEXAGXPR5GQV9XD9MN2X", "dateTime": 1519153663743}, {"current_trial": 25, "trialdata": {"rt": -1, "trial_type": "single-stim", "word": "cricket", "stimulus": "<p id=\"stim\">CRICKET</p>", "conditions": [18, 1200, "v", 18000], "internal_node_id": "0.0-16.0", "trial": 0, "time_elapsed": 191435, "serialpos": 4, "key_press": -1, "wordID": 407, "type": "PRES_VIS", "trial_index": 25}, "uniqueid": "MTK2614:3C2NJ6JBKBOEXAGXPR5GQV9XD9MN2X", "dateTime": 1519153666033}, {"current_trial": 26, "trialdata": {"rt": -1, "trial_type": "single-stim", "word": "monster", "stimulus": "<p id=\"stim\">MONSTER</p>", "conditions": [18, 1200, "v", 18000], "internal_node_id": "0.0-17.0", "trial": 0, "time_elapsed": 193654, "serialpos": 5, "key_press": -1, "wordID": 911, "type": "PRES_VIS", "trial_index": 26}, "uniqueid": "MTK2614:3C2NJ6JBKBOEXAGXPR5GQV9XD9MN2X", "dateTime": 1519153668252}, {"current_trial": 27, "trialdata": {"rt": -1, "trial_type": "single-stim", "word": "cross", "stimulus": "<p id=\"stim\">CROSS</p>", "conditions": [18, 1200, "v", 18000], "internal_node_id": "0.0-18.0", "trial": 0, "time_elapsed": 196040, "serialpos": 6, "key_press": -1, "wordID": 412, "type": "PRES_VIS", "trial_index": 27}, "uniqueid": "MTK2614:3C2NJ6JBKBOEXAGXPR5GQV9XD9MN2X", "dateTime": 1519153670638}, {"current_trial": 28, "trialdata": {"rt": -1, "trial_type": "single-stim", "word": "venus", "stimulus": "<p id=\"stim\">VENUS</p>", "conditions": [18, 1200, "v", 18000], "internal_node_id": "0.0-19.0", "trial": 0, "time_elapsed": 198303, "serialpos": 7, "key_press": -1, "wordID": 1556, "type": "PRES_VIS", "trial_index": 28}, "uniqueid": "MTK2614:3C2NJ6JBKBOEXAGXPR5GQV9XD9MN2X", "dateTime": 1519153672901}, {"current_trial": 29, "trialdata": {"rt": -1, "trial_type": "single-stim", "word": "robot", "stimulus": "<p id=\"stim\">ROBOT</p>", "conditions": [18, 1200, "v", 18000], "internal_node_id": "0.0-20.0", "trial": 0, "time_elapsed": 200621, "serialpos": 8, "key_press": -1, "wordID": 1199, "type": "PRES_VIS", "trial_index": 29}, "uniqueid": "MTK2614:3C2NJ6JBKBOEXAGXPR5GQV9XD9MN2X", "dateTime": 1519153675219}, {"current_trial": 30, "trialdata": {"rt": -1, "trial_type": "single-stim", "word": "leopard", "stimulus": "<p id=\"stim\">LEOPARD</p>", "conditions": [18, 1200, "v", 18000], "internal_node_id": "0.0-21.0", "trial": 0, "time_elapsed": 202864, "serialpos": 9, "key_press": -1, "wordID": 811, "type": "PRES_VIS", "trial_index": 30}, "uniqueid": "MTK2614:3C2NJ6JBKBOEXAGXPR5GQV9XD9MN2X", "dateTime": 1519153677462}, {"current_trial": 31, "trialdata": {"rt": -1, "trial_type": "single-stim", "word": "shelter", "stimulus": "<p id=\"stim\">SHELTER</p>", "conditions": [18, 1200, "v", 18000], "internal_node_id": "0.0-22.0", "trial": 0, "time_elapsed": 204995, "serialpos": 10, "key_press": -1, "wordID": 1281, "type": "PRES_VIS", "trial_index": 31}, "uniqueid": "MTK2614:3C2NJ6JBKBOEXAGXPR5GQV9XD9MN2X", "dateTime": 1519153679593}, {"current_trial": 32, "trialdata": {"rt": -1, "trial_type": "single-stim", "word": "baby", "stimulus": "<p id=\"stim\">BABY</p>", "conditions": [18, 1200, "v", 18000], "internal_node_id": "0.0-23.0", "trial": 0, "time_elapsed": 207184, "serialpos": 11, "key_press": -1, "wordID": 63, "type": "PRES_VIS", "trial_index": 32}, "uniqueid": "MTK2614:3C2NJ6JBKBOEXAGXPR5GQV9XD9MN2X", "dateTime": 1519153681782}, {"current_trial": 33, "trialdata": {"rt": -1, "trial_type": "single-stim", "word": "dustpan", "stimulus": "<p id=\"stim\">DUSTPAN</p>", "conditions": [18, 1200, "v", 18000], "internal_node_id": "0.0-24.0", "trial": 0, "time_elapsed": 209211, "serialpos": 12, "key_press": -1, "wordID": 508, "type": "PRES_VIS", "trial_index": 33}, "uniqueid": "MTK2614:3C2NJ6JBKBOEXAGXPR5GQV9XD9MN2X", "dateTime": 1519153683809}, {"current_trial": 34, "trialdata": {"rt": -1, "trial_type": "single-stim", "word": "grave", "stimulus": "<p id=\"stim\">GRAVE</p>", "conditions": [18, 1200, "v", 18000], "internal_node_id": "0.0-25.0", "trial": 0, "time_elapsed": 211563, "serialpos": 13, "key_press": -1, "wordID": 657, "type": "PRES_VIS", "trial_index": 34}, "uniqueid": "MTK2614:3C2NJ6JBKBOEXAGXPR5GQV9XD9MN2X", "dateTime": 1519153686161}, {"current_trial": 35, "trialdata": {"rt": -1, "trial_type": "single-stim", "word": "icing", "stimulus": "<p id=\"stim\">ICING</p>", "conditions": [18, 1200, "v", 18000], "internal_node_id": "0.0-26.0", "trial": 0, "time_elapsed": 213582, "serialpos": 14, "key_press": -1, "wordID": 731, "type": "PRES_VIS", "trial_index": 35}, "uniqueid": "MTK2614:3C2NJ6JBKBOEXAGXPR5GQV9XD9MN2X", "dateTime": 1519153688180}, {"current_trial": 36, "trialdata": {"rt": -1, "trial_type": "single-stim", "word": "poison", "stimulus": "<p id=\"stim\">POISON</p>", "conditions": [18, 1200, "v", 18000], "internal_node_id": "0.0-27.0", "trial": 0, "time_elapsed": 215934, "serialpos": 15, "key_press": -1, "wordID": 1095, "type": "PRES_VIS", "trial_index": 36}, "uniqueid": "MTK2614:3C2NJ6JBKBOEXAGXPR5GQV9XD9MN2X", "dateTime": 1519153690532}, {"current_trial": 37, "trialdata": {"rt": -1, "trial_type": "single-stim", "word": "possum", "stimulus": "<p id=\"stim\">POSSUM</p>", "conditions": [18, 1200, "v", 18000], "internal_node_id": "0.0-28.0", "trial": 0, "time_elapsed": 218254, "serialpos": 16, "key_press": -1, "wordID": 1111, "type": "PRES_VIS", "trial_index": 37}, "uniqueid": "MTK2614:3C2NJ6JBKBOEXAGXPR5GQV9XD9MN2X", "dateTime": 1519153692852}, {"current_trial": 38, "trialdata": {"rt": -1, "trial_type": "single-stim", "word": "dandruff", "stimulus": "<p id=\"stim\">DANDRUFF</p>", "conditions": [18, 1200, "v", 18000], "internal_node_id": "0.0-29.0", "trial": 0, "time_elapsed": 220590, "serialpos": 17, "key_press": -1, "wordID": 438, "type": "PRES_VIS", "trial_index": 38}, "uniqueid": "MTK2614:3C2NJ6JBKBOEXAGXPR5GQV9XD9MN2X", "dateTime": 1519153695188}, {"current_trial": 39, "trialdata": {"rt": -1, "trial_type": "single-stim", "stimulus": "", "internal_node_id": "0.0-30.0-0.0", "time_elapsed": 222849, "key_press": -1, "type": "PRE_RECALL_DELAY", "trial_index": 39}, "uniqueid": "MTK2614:3C2NJ6JBKBOEXAGXPR5GQV9XD9MN2X", "dateTime": 1519153697447}, {"current_trial": 40, "trialdata": {"rt": -1000, "trial_type": "single-audio", "stimulus": "/static/audio/400Hz.wav", "internal_node_id": "0.0-31.0", "time_elapsed": 223352, "key_press": -1, "type": "PRE_RECALL_ALERT", "trial_index": 40}, "uniqueid": "MTK2614:3C2NJ6JBKBOEXAGXPR5GQV9XD9MN2X", "dateTime": 1519153697950}, {"current_trial": 41, "trialdata": {"rt": [5068, 6719, 7770, 9548, 13906, 16121, 27852, 44384], "recwords": ["dandruff", "possum", "venus", "smog", "poison", "grave", "cricket", "cross"], "key_times": [2084, 2198, 2335, 2546, 3053, 3193, 3547, 3697, 3998, 4073, 4364, 4478, 4611, 4764, 5068, 5573, 5657, 5747, 5873, 6045, 6310, 6719, 6974, 7178, 7298, 7507, 7578, 7770, 8153, 8257, 8370, 8534, 9548, 13130, 13196, 13284, 13529, 13616, 13666, 13906, 15013, 15261, 15338, 15577, 15760, 16121, 26263, 26536, 26651, 26807, 26918, 27281, 27378, 27852, 43657, 43925, 44008, 44133, 44283, 44384], "trial_type": "free-recall", "conditions": [18, 1200, "v", 18000], "internal_node_id": "0.0-32.0-0.0", "key_presses": [68, 65, 78, 67, 82, 85, 8, 8, 8, 68, 82, 85, 70, 70, 13, 80, 79, 83, 83, 85, 77, 13, 86, 69, 78, 85, 83, 13, 83, 77, 79, 71, 13, 80, 79, 73, 83, 79, 78, 13, 71, 82, 65, 86, 69, 13, 67, 82, 73, 67, 75, 69, 84, 13, 67, 82, 79, 83, 83, 13], "trial": 0, "time_elapsed": 283355, "type": "FREE_RECALL", "trial_index": 41}, "uniqueid": "MTK2614:3C2NJ6JBKBOEXAGXPR5GQV9XD9MN2X", "dateTime": 1519153757957}, {"current_trial": 42, "trialdata": {"rt": 998, "trial_type": "text", "internal_node_id": "0.0-33.0", "time_elapsed": 286358, "key_press": 13, "type": "INSTRUCTIONS", "trial_index": 42}, "uniqueid": "MTK2614:3C2NJ6JBKBOEXAGXPR5GQV9XD9MN2X", "dateTime": 1519153760957}, {"current_trial": 43, "trialdata": {"rt": [2050, 4227, 9301, 11574, 14220, 15827], "trial_type": "math-distractor", "key_times": [1802, 2050, 3704, 3918, 4227, 9023, 9119, 9301, 11223, 11574, 13622, 14107, 14220, 15468, 15600, 15827, 17487, 17701], "responses": ["8", "14", "21", "7", "22", "14"], "num2": [6, 2, 6, 2, 7, 7, 4], "num3": [1, 8, 6, 2, 7, 6, 5], "conditions": [18, 1200, "v", 18000], "internal_node_id": "0.0-34.0", "key_presses": [104, 13, 97, 100, 13, 98, 97, 13, 103, 13, 98, 98, 13, 97, 100, 13, 97, 100], "trial": 1, "time_elapsed": 306362, "type": "DISTRACTOR", "trial_index": 43, "num1": [1, 4, 9, 3, 8, 1, 5]}, "uniqueid": "MTK2614:3C2NJ6JBKBOEXAGXPR5GQV9XD9MN2X", "dateTime": 1519153780960}, {"current_trial": 44, "trialdata": {"rt": -1, "trial_type": "single-stim", "stimulus": "<p id=\"stim\">10</p>", "internal_node_id": "0.0-35.0-0.0", "time_elapsed": 309364, "key_press": -1, "trial_index": 44}, "uniqueid": "MTK2614:3C2NJ6JBKBOEXAGXPR5GQV9XD9MN2X", "dateTime": 1519153783962}, {"current_trial": 45, "trialdata": {"rt": -1, "trial_type": "single-stim", "stimulus": "<p id=\"stim\">9</p>", "internal_node_id": "0.0-35.0-1.0", "time_elapsed": 310365, "key_press": -1, "trial_index": 45}, "uniqueid": "MTK2614:3C2NJ6JBKBOEXAGXPR5GQV9XD9MN2X", "dateTime": 1519153784963}, {"current_trial": 46, "trialdata": {"rt": -1, "trial_type": "single-stim", "stimulus": "<p id=\"stim\">8</p>", "internal_node_id": "0.0-35.0-2.0", "time_elapsed": 311365, "key_press": -1, "trial_index": 46}, "uniqueid": "MTK2614:3C2NJ6JBKBOEXAGXPR5GQV9XD9MN2X", "dateTime": 1519153785964}, {"current_trial": 47, "trialdata": {"rt": -1, "trial_type": "single-stim", "stimulus": "<p id=\"stim\">7</p>", "internal_node_id": "0.0-35.0-3.0", "time_elapsed": 312367, "key_press": -1, "trial_index": 47}, "uniqueid": "MTK2614:3C2NJ6JBKBOEXAGXPR5GQV9XD9MN2X", "dateTime": 1519153786965}, {"current_trial": 48, "trialdata": {"rt": -1, "trial_type": "single-stim", "stimulus": "<p id=\"stim\">6</p>", "internal_node_id": "0.0-35.0-4.0", "time_elapsed": 313369, "key_press": -1, "trial_index": 48}, "uniqueid": "MTK2614:3C2NJ6JBKBOEXAGXPR5GQV9XD9MN2X", "dateTime": 1519153787967}, {"current_trial": 49, "trialdata": {"rt": -1, "trial_type": "single-stim", "stimulus": "<p id=\"stim\">5</p>", "internal_node_id": "0.0-35.0-5.0", "time_elapsed": 314370, "key_press": -1, "trial_index": 49}, "uniqueid": "MTK2614:3C2NJ6JBKBOEXAGXPR5GQV9XD9MN2X", "dateTime": 1519153788968}, {"current_trial": 50, "trialdata": {"rt": -1, "trial_type": "single-stim", "stimulus": "<p id=\"stim\">4</p>", "internal_node_id": "0.0-35.0-6.0", "time_elapsed": 315371, "key_press": -1, "trial_index": 50}, "uniqueid": "MTK2614:3C2NJ6JBKBOEXAGXPR5GQV9XD9MN2X", "dateTime": 1519153789969}, {"current_trial": 51, "trialdata": {"rt": -1, "trial_type": "single-stim", "stimulus": "<p id=\"stim\">3</p>", "internal_node_id": "0.0-35.0-7.0", "time_elapsed": 316373, "key_press": -1, "trial_index": 51}, "uniqueid": "MTK2614:3C2NJ6JBKBOEXAGXPR5GQV9XD9MN2X", "dateTime": 1519153790971}, {"current_trial": 52, "trialdata": {"rt": -1, "trial_type": "single-stim", "stimulus": "<p id=\"stim\">2</p>", "internal_node_id": "0.0-35.0-8.0", "time_elapsed": 317374, "key_press": -1, "trial_index": 52}, "uniqueid": "MTK2614:3C2NJ6JBKBOEXAGXPR5GQV9XD9MN2X", "dateTime": 1519153791972}, {"current_trial": 53, "trialdata": {"rt": -1, "trial_type": "single-stim", "stimulus": "<p id=\"stim\">1</p>", "internal_node_id": "0.0-35.0-9.0", "time_elapsed": 318376, "key_press": -1, "trial_index": 53}, "uniqueid": "MTK2614:3C2NJ6JBKBOEXAGXPR5GQV9XD9MN2X", "dateTime": 1519153792974}, {"current_trial": 54, "trialdata": {"rt": -1, "trial_type": "single-stim", "stimulus": "<p id=\"stim\">+</p>", "internal_node_id": "0.0-36.0-0.0", "time_elapsed": 319877, "key_press": -1, "type": "FIXATION", "trial_index": 54}, "uniqueid": "MTK2614:3C2NJ6JBKBOEXAGXPR5GQV9XD9MN2X", "dateTime": 1519153794476}, {"current_trial": 55, "trialdata": {"rt": -1, "trial_type": "single-stim", "word": "piston", "stimulus": "<p id=\"stim\">PISTON</p>", "conditions": [18, 1200, "v", 18000], "internal_node_id": "0.0-37.0", "trial": 1, "time_elapsed": 321079, "serialpos": 0, "key_press": -1, "wordID": 1075, "type": "PRES_VIS", "trial_index": 55}, "uniqueid": "MTK2614:3C2NJ6JBKBOEXAGXPR5GQV9XD9MN2X", "dateTime": 1519153795677}, {"current_trial": 56, "trialdata": {"rt": -1, "trial_type": "single-stim", "word": "spider", "stimulus": "<p id=\"stim\">SPIDER</p>", "conditions": [18, 1200, "v", 18000], "internal_node_id": "0.0-38.0", "trial": 1, "time_elapsed": 323406, "serialpos": 1, "key_press": -1, "wordID": 1350, "type": "PRES_VIS", "trial_index": 56}, "uniqueid": "MTK2614:3C2NJ6JBKBOEXAGXPR5GQV9XD9MN2X", "dateTime": 1519153798004}, {"current_trial": 57, "trialdata": {"rt": -1, "trial_type": "single-stim", "word": "tortoise", "stimulus": "<p id=\"stim\">TORTOISE</p>", "conditions": [18, 1200, "v", 18000], "internal_node_id": "0.0-39.0", "trial": 1, "time_elapsed": 325685, "serialpos": 2, "key_press": -1, "wordID": 1485, "type": "PRES_VIS", "trial_index": 57}, "uniqueid": "MTK2614:3C2NJ6JBKBOEXAGXPR5GQV9XD9MN2X", "dateTime": 1519153800284}, {"current_trial": 58, "trialdata": {"rt": -1, "trial_type": "single-stim", "word": "slope", "stimulus": "<p id=\"stim\">SLOPE</p>", "conditions": [18, 1200, "v", 18000], "internal_node_id": "0.0-40.0", "trial": 1, "time_elapsed": 327867, "serialpos": 3, "key_press": -1, "wordID": 1327, "type": "PRES_VIS", "trial_index": 58}, "uniqueid": "MTK2614:3C2NJ6JBKBOEXAGXPR5GQV9XD9MN2X", "dateTime": 1519153802465}, {"current_trial": 59, "trialdata": {"rt": -1, "trial_type": "single-stim", "word": "puddle", "stimulus": "<p id=\"stim\">PUDDLE</p>", "conditions": [18, 1200, "v", 18000], "internal_node_id": "0.0-41.0", "trial": 1, "time_elapsed": 329920, "serialpos": 4, "key_press": -1, "wordID": 1139, "type": "PRES_VIS", "trial_index": 59}, "uniqueid": "MTK2614:3C2NJ6JBKBOEXAGXPR5GQV9XD9MN2X", "dateTime": 1519153804518}, {"current_trial": 60, "trialdata": {"rt": -1, "trial_type": "single-stim", "word": "drug", "stimulus": "<p id=\"stim\">DRUG</p>", "conditions": [18, 1200, "v", 18000], "internal_node_id": "0.0-42.0", "trial": 1, "time_elapsed": 332023, "serialpos": 5, "key_press": -1, "wordID": 500, "type": "PRES_VIS", "trial_index": 60}, "uniqueid": "MTK2614:3C2NJ6JBKBOEXAGXPR5GQV9XD9MN2X", "dateTime": 1519153806622}, {"current_trial": 61, "trialdata": {"rt": -1, "trial_type": "single-stim", "word": "suspect", "stimulus": "<p id=\"stim\">SUSPECT</p>", "conditions": [18, 1200, "v", 18000], "internal_node_id": "0.0-43.0", "trial": 1, "time_elapsed": 334405, "serialpos": 6, "key_press": -1, "wordID": 1414, "type": "PRES_VIS", "trial_index": 61}, "uniqueid": "MTK2614:3C2NJ6JBKBOEXAGXPR5GQV9XD9MN2X", "dateTime": 1519153809003}, {"current_trial": 62, "trialdata": {"rt": -1, "trial_type": "single-stim", "word": "jello", "stimulus": "<p id=\"stim\">JELLO</p>", "conditions": [18, 1200, "v", 18000], "internal_node_id": "0.0-44.0", "trial": 1, "time_elapsed": 336492, "serialpos": 7, "key_press": -1, "wordID": 753, "type": "PRES_VIS", "trial_index": 62}, "uniqueid": "MTK2614:3C2NJ6JBKBOEXAGXPR5GQV9XD9MN2X", "dateTime": 1519153811090}, {"current_trial": 63, "trialdata": {"rt": -1, "trial_type": "single-stim", "word": "suitcase", "stimulus": "<p id=\"stim\">SUITCASE</p>", "conditions": [18, 1200, "v", 18000], "internal_node_id": "0.0-45.0", "trial": 1, "time_elapsed": 338854, "serialpos": 8, "key_press": -1, "wordID": 1402, "type": "PRES_VIS", "trial_index": 63}, "uniqueid": "MTK2614:3C2NJ6JBKBOEXAGXPR5GQV9XD9MN2X", "dateTime": 1519153813453}, {"current_trial": 64, "trialdata": {"rt": -1, "trial_type": "single-stim", "word": "bank", "stimulus": "<p id=\"stim\">BANK</p>", "conditions": [18, 1200, "v", 18000], "internal_node_id": "0.0-46.0", "trial": 1, "time_elapsed": 341196, "serialpos": 9, "key_press": -1, "wordID": 82, "type": "PRES_VIS", "trial_index": 64}, "uniqueid": "MTK2614:3C2NJ6JBKBOEXAGXPR5GQV9XD9MN2X", "dateTime": 1519153815794}, {"current_trial": 65, "trialdata": {"rt": -1, "trial_type": "single-stim", "word": "cookbook", "stimulus": "<p id=\"stim\">COOKBOOK</p>", "conditions": [18, 1200, "v", 18000], "internal_node_id": "0.0-47.0", "trial": 1, "time_elapsed": 343463, "serialpos": 10, "key_press": -1, "wordID": 372, "type": "PRES_VIS", "trial_index": 65}, "uniqueid": "MTK2614:3C2NJ6JBKBOEXAGXPR5GQV9XD9MN2X", "dateTime": 1519153818062}, {"current_trial": 66, "trialdata": {"rt": -1, "trial_type": "single-stim", "word": "dresser", "stimulus": "<p id=\"stim\">DRESSER</p>", "conditions": [18, 1200, "v", 18000], "internal_node_id": "0.0-48.0", "trial": 1, "time_elapsed": 345841, "serialpos": 11, "key_press": -1, "wordID": 495, "type": "PRES_VIS", "trial_index": 66}, "uniqueid": "MTK2614:3C2NJ6JBKBOEXAGXPR5GQV9XD9MN2X", "dateTime": 1519153820439}, {"current_trial": 67, "trialdata": {"rt": -1, "trial_type": "single-stim", "word": "cigar", "stimulus": "<p id=\"stim\">CIGAR</p>", "conditions": [18, 1200, "v", 18000], "internal_node_id": "0.0-49.0", "trial": 1, "time_elapsed": 347859, "serialpos": 12, "key_press": -1, "wordID": 307, "type": "PRES_VIS", "trial_index": 67}, "uniqueid": "MTK2614:3C2NJ6JBKBOEXAGXPR5GQV9XD9MN2X", "dateTime": 1519153822457}, {"current_trial": 68, "trialdata": {"rt": -1, "trial_type": "single-stim", "word": "sphinx", "stimulus": "<p id=\"stim\">SPHINX</p>", "conditions": [18, 1200, "v", 18000], "internal_node_id": "0.0-50.0", "trial": 1, "time_elapsed": 350258, "serialpos": 13, "key_press": -1, "wordID": 1348, "type": "PRES_VIS", "trial_index": 68}, "uniqueid": "MTK2614:3C2NJ6JBKBOEXAGXPR5GQV9XD9MN2X", "dateTime": 1519153824857}, {"current_trial": 69, "trialdata": {"rt": -1, "trial_type": "single-stim", "word": "necklace", "stimulus": "<p id=\"stim\">NECKLACE</p>", "conditions": [18, 1200, "v", 18000], "internal_node_id": "0.0-51.0", "trial": 1, "time_elapsed": 352429, "serialpos": 14, "key_press": -1, "wordID": 939, "type": "PRES_VIS", "trial_index": 69}, "uniqueid": "MTK2614:3C2NJ6JBKBOEXAGXPR5GQV9XD9MN2X", "dateTime": 1519153827027}, {"current_trial": 70, "trialdata": {"rt": -1, "trial_type": "single-stim", "word": "sparrow", "stimulus": "<p id=\"stim\">SPARROW</p>", "conditions": [18, 1200, "v", 18000], "internal_node_id": "0.0-52.0", "trial": 1, "time_elapsed": 354608, "serialpos": 15, "key_press": -1, "wordID": 1346, "type": "PRES_VIS", "trial_index": 70}, "uniqueid": "MTK2614:3C2NJ6JBKBOEXAGXPR5GQV9XD9MN2X", "dateTime": 1519153829207}, {"current_trial": 71, "trialdata": {"rt": -1, "trial_type": "single-stim", "word": "orange", "stimulus": "<p id=\"stim\">ORANGE</p>", "conditions": [18, 1200, "v", 18000], "internal_node_id": "0.0-53.0", "trial": 1, "time_elapsed": 356755, "serialpos": 16, "key_press": -1, "wordID": 979, "type": "PRES_VIS", "trial_index": 71}, "uniqueid": "MTK2614:3C2NJ6JBKBOEXAGXPR5GQV9XD9MN2X", "dateTime": 1519153831353}, {"current_trial": 72, "trialdata": {"rt": -1, "trial_type": "single-stim", "word": "daughter", "stimulus": "<p id=\"stim\">DAUGHTER</p>", "conditions": [18, 1200, "v", 18000], "internal_node_id": "0.0-54.0", "trial": 1, "time_elapsed": 358956, "serialpos": 17, "key_press": -1, "wordID": 441, "type": "PRES_VIS", "trial_index": 72}, "uniqueid": "MTK2614:3C2NJ6JBKBOEXAGXPR5GQV9XD9MN2X", "dateTime": 1519153833554}, {"current_trial": 73, "trialdata": {"rt": -1, "trial_type": "single-stim", "stimulus": "", "internal_node_id": "0.0-55.0-0.0", "time_elapsed": 361005, "key_press": -1, "type": "PRE_RECALL_DELAY", "trial_index": 73}, "uniqueid": "MTK2614:3C2NJ6JBKBOEXAGXPR5GQV9XD9MN2X", "dateTime": 1519153835603}, {"current_trial": 74, "trialdata": {"rt": -1000, "trial_type": "single-audio", "stimulus": "/static/audio/400Hz.wav", "internal_node_id": "0.0-56.0", "time_elapsed": 361506, "key_press": -1, "type": "PRE_RECALL_ALERT", "trial_index": 74}, "uniqueid": "MTK2614:3C2NJ6JBKBOEXAGXPR5GQV9XD9MN2X", "dateTime": 1519153836105}, {"current_trial": 75, "trialdata": {"rt": [3461, 5108, 6642, 8319, 10304, 14662, 17665, 22647, 25170, 37976, 47049, 55694, 58727], "recwords": ["daugter", "necklace", "sparrow", "dresser", "suitcase", "spider", "piston", "puddle", "sphinx", "tortoise", "suspect", "daugter", "daughter"], "key_times": [1826, 2073, 2207, 2316, 2720, 2926, 2982, 3461, 3676, 3768, 4005, 4079, 4264, 4420, 4657, 4920, 5108, 5430, 5607, 5684, 5805, 5959, 6084, 6120, 6642, 6895, 7205, 7314, 7424, 7606, 7883, 7953, 8319, 8570, 8794, 8867, 9014, 9438, 9715, 9953, 10055, 10304, 13232, 13471, 13544, 13637, 13899, 13970, 14662, 16636, 16955, 17053, 17270, 17341, 17390, 17665, 21291, 21366, 21463, 21609, 21820, 22147, 22347, 22452, 22647, 23962, 24337, 24438, 24544, 24649, 25000, 25170, 35465, 35621, 35723, 36182, 36529, 36623, 36720, 36829, 37976, 45922, 46143, 46231, 46369, 46483, 46676, 46952, 47049, 54448, 54661, 54827, 54914, 55281, 55512, 55572, 55694, 57050, 57368, 57488, 58038, 58182, 58347, 58558, 58627, 58727], "trial_type": "free-recall", "conditions": [18, 1200, "v", 18000], "internal_node_id": "0.0-57.0-0.0", "key_presses": [68, 65, 85, 71, 84, 69, 82, 13, 78, 69, 67, 75, 76, 65, 67, 69, 13, 83, 80, 65, 82, 82, 79, 87, 13, 68, 82, 69, 83, 83, 69, 82, 13, 83, 85, 73, 84, 67, 65, 83, 69, 13, 83, 80, 73, 68, 69, 82, 13, 80, 73, 83, 84, 79, 78, 13, 80, 85, 68, 68, 69, 8, 76, 69, 13, 83, 80, 72, 73, 78, 88, 13, 84, 79, 82, 84, 79, 73, 83, 69, 13, 83, 85, 83, 80, 69, 67, 84, 13, 68, 65, 85, 71, 84, 69, 82, 13, 68, 65, 85, 71, 72, 84, 69, 82, 13], "trial": 1, "time_elapsed": 421511, "type": "FREE_RECALL", "trial_index": 75}, "uniqueid": "MTK2614:3C2NJ6JBKBOEXAGXPR5GQV9XD9MN2X", "dateTime": 1519153896112}, {"current_trial": 76, "trialdata": {"rt": 2677, "trial_type": "text", "internal_node_id": "0.0-58.0", "time_elapsed": 426192, "key_press": 13, "type": "INSTRUCTIONS", "trial_index": 76}, "uniqueid": "MTK2614:3C2NJ6JBKBOEXAGXPR5GQV9XD9MN2X", "dateTime": 1519153900790}, {"current_trial": 77, "trialdata": {"rt": [2488, 6011, 7660, 9417], "trial_type": "math-distractor", "key_times": [2054, 2132, 2488, 4178, 4315, 5164, 5699, 6011, 7410, 7660, 9152, 9222, 9417, 11563, 11635], "responses": ["13", "18", "9", "15"], "num2": [4, 4, 1, 2, 1], "num3": [6, 9, 2, 8, 8], "conditions": [12, 1600, "v", 12000], "internal_node_id": "0.0-59.0", "key_presses": [97, 99, 13, 97, 101, 8, 104, 13, 105, 13, 97, 101, 13, 97, 102], "trial": 2, "time_elapsed": 439199, "type": "DISTRACTOR", "trial_index": 77, "num1": [3, 5, 6, 5, 7]}, "uniqueid": "MTK2614:3C2NJ6JBKBOEXAGXPR5GQV9XD9MN2X", "dateTime": 1519153913797}, {"current_trial": 78, "trialdata": {"rt": -1, "trial_type": "single-stim", "stimulus": "<p id=\"stim\">10</p>", "internal_node_id": "0.0-60.0-0.0", "time_elapsed": 442201, "key_press": -1, "trial_index": 78}, "uniqueid": "MTK2614:3C2NJ6JBKBOEXAGXPR5GQV9XD9MN2X", "dateTime": 1519153916799}, {"current_trial": 79, "trialdata": {"rt": -1, "trial_type": "single-stim", "stimulus": "<p id=\"stim\">9</p>", "internal_node_id": "0.0-60.0-1.0", "time_elapsed": 443203, "key_press": -1, "trial_index": 79}, "uniqueid": "MTK2614:3C2NJ6JBKBOEXAGXPR5GQV9XD9MN2X", "dateTime": 1519153917801}, {"current_trial": 80, "trialdata": {"rt": -1, "trial_type": "single-stim", "stimulus": "<p id=\"stim\">8</p>", "internal_node_id": "0.0-60.0-2.0", "time_elapsed": 444205, "key_press": -1, "trial_index": 80}, "uniqueid": "MTK2614:3C2NJ6JBKBOEXAGXPR5GQV9XD9MN2X", "dateTime": 1519153918803}, {"current_trial": 81, "trialdata": {"rt": -1, "trial_type": "single-stim", "stimulus": "<p id=\"stim\">7</p>", "internal_node_id": "0.0-60.0-3.0", "time_elapsed": 445207, "key_press": -1, "trial_index": 81}, "uniqueid": "MTK2614:3C2NJ6JBKBOEXAGXPR5GQV9XD9MN2X", "dateTime": 1519153919806}, {"current_trial": 82, "trialdata": {"rt": -1, "trial_type": "single-stim", "stimulus": "<p id=\"stim\">6</p>", "internal_node_id": "0.0-60.0-4.0", "time_elapsed": 446209, "key_press": -1, "trial_index": 82}, "uniqueid": "MTK2614:3C2NJ6JBKBOEXAGXPR5GQV9XD9MN2X", "dateTime": 1519153920807}, {"current_trial": 83, "trialdata": {"rt": -1, "trial_type": "single-stim", "stimulus": "<p id=\"stim\">5</p>", "internal_node_id": "0.0-60.0-5.0", "time_elapsed": 447211, "key_press": -1, "trial_index": 83}, "uniqueid": "MTK2614:3C2NJ6JBKBOEXAGXPR5GQV9XD9MN2X", "dateTime": 1519153921809}, {"current_trial": 84, "trialdata": {"rt": -1, "trial_type": "single-stim", "stimulus": "<p id=\"stim\">4</p>", "internal_node_id": "0.0-60.0-6.0", "time_elapsed": 448212, "key_press": -1, "trial_index": 84}, "uniqueid": "MTK2614:3C2NJ6JBKBOEXAGXPR5GQV9XD9MN2X", "dateTime": 1519153922811}, {"current_trial": 85, "trialdata": {"rt": -1, "trial_type": "single-stim", "stimulus": "<p id=\"stim\">3</p>", "internal_node_id": "0.0-60.0-7.0", "time_elapsed": 449214, "key_press": -1, "trial_index": 85}, "uniqueid": "MTK2614:3C2NJ6JBKBOEXAGXPR5GQV9XD9MN2X", "dateTime": 1519153923813}, {"current_trial": 86, "trialdata": {"rt": -1, "trial_type": "single-stim", "stimulus": "<p id=\"stim\">2</p>", "internal_node_id": "0.0-60.0-8.0", "time_elapsed": 450216, "key_press": -1, "trial_index": 86}, "uniqueid": "MTK2614:3C2NJ6JBKBOEXAGXPR5GQV9XD9MN2X", "dateTime": 1519153924814}, {"current_trial": 87, "trialdata": {"rt": -1, "trial_type": "single-stim", "stimulus": "<p id=\"stim\">1</p>", "internal_node_id": "0.0-60.0-9.0", "time_elapsed": 451217, "key_press": -1, "trial_index": 87}, "uniqueid": "MTK2614:3C2NJ6JBKBOEXAGXPR5GQV9XD9MN2X", "dateTime": 1519153925815}, {"current_trial": 88, "trialdata": {"rt": -1, "trial_type": "single-stim", "stimulus": "<p id=\"stim\">+</p>", "internal_node_id": "0.0-61.0-0.0", "time_elapsed": 452718, "key_press": -1, "type": "FIXATION", "trial_index": 88}, "uniqueid": "MTK2614:3C2NJ6JBKBOEXAGXPR5GQV9XD9MN2X", "dateTime": 1519153927316}, {"current_trial": 89, "trialdata": {"rt": -1, "trial_type": "single-stim", "word": "blockade", "stimulus": "<p id=\"stim\">BLOCKADE</p>", "conditions": [12, 1600, "v", 12000], "internal_node_id": "0.0-62.0", "trial": 2, "time_elapsed": 454319, "serialpos": 0, "key_press": -1, "wordID": 136, "type": "PRES_VIS", "trial_index": 89}, "uniqueid": "MTK2614:3C2NJ6JBKBOEXAGXPR5GQV9XD9MN2X", "dateTime": 1519153928917}, {"current_trial": 90, "trialdata": {"rt": -1, "trial_type": "single-stim", "word": "egypt", "stimulus": "<p id=\"stim\">EGYPT</p>", "conditions": [12, 1600, "v", 12000], "internal_node_id": "0.0-63.0", "trial": 2, "time_elapsed": 456865, "serialpos": 1, "key_press": -1, "wordID": 518, "type": "PRES_VIS", "trial_index": 90}, "uniqueid": "MTK2614:3C2NJ6JBKBOEXAGXPR5GQV9XD9MN2X", "dateTime": 1519153931463}, {"current_trial": 91, "trialdata": {"rt": -1, "trial_type": "single-stim", "word": "police", "stimulus": "<p id=\"stim\">POLICE</p>", "conditions": [12, 1600, "v", 12000], "internal_node_id": "0.0-64.0", "trial": 2, "time_elapsed": 459616, "serialpos": 2, "key_press": -1, "wordID": 1097, "type": "PRES_VIS", "trial_index": 91}, "uniqueid": "MTK2614:3C2NJ6JBKBOEXAGXPR5GQV9XD9MN2X", "dateTime": 1519153934214}, {"current_trial": 92, "trialdata": {"rt": -1, "trial_type": "single-stim", "word": "clothes", "stimulus": "<p id=\"stim\">CLOTHES</p>", "conditions": [12, 1600, "v", 12000], "internal_node_id": "0.0-65.0", "trial": 2, "time_elapsed": 462301, "serialpos": 3, "key_press": -1, "wordID": 326, "type": "PRES_VIS", "trial_index": 92}, "uniqueid": "MTK2614:3C2NJ6JBKBOEXAGXPR5GQV9XD9MN2X", "dateTime": 1519153936899}, {"current_trial": 93, "trialdata": {"rt": -1, "trial_type": "single-stim", "word": "tombstone", "stimulus": "<p id=\"stim\">TOMBSTONE</p>", "conditions": [12, 1600, "v", 12000], "internal_node_id": "0.0-66.0", "trial": 2, "time_elapsed": 464849, "serialpos": 4, "key_press": -1, "wordID": 1477, "type": "PRES_VIS", "trial_index": 93}, "uniqueid": "MTK2614:3C2NJ6JBKBOEXAGXPR5GQV9XD9MN2X", "dateTime": 1519153939447}, {"current_trial": 94, "trialdata": {"rt": -1, "trial_type": "single-stim", "word": "marsh", "stimulus": "<p id=\"stim\">MARSH</p>", "conditions": [12, 1600, "v", 12000], "internal_node_id": "0.0-67.0", "trial": 2, "time_elapsed": 467426, "serialpos": 5, "key_press": -1, "wordID": 873, "type": "PRES_VIS", "trial_index": 94}, "uniqueid": "MTK2614:3C2NJ6JBKBOEXAGXPR5GQV9XD9MN2X", "dateTime": 1519153942024}, {"current_trial": 95, "trialdata": {"rt": -1, "trial_type": "single-stim", "word": "mailman", "stimulus": "<p id=\"stim\">MAILMAN</p>", "conditions": [12, 1600, "v", 12000], "internal_node_id": "0.0-68.0", "trial": 2, "time_elapsed": 469981, "serialpos": 6, "key_press": -1, "wordID": 857, "type": "PRES_VIS", "trial_index": 95}, "uniqueid": "MTK2614:3C2NJ6JBKBOEXAGXPR5GQV9XD9MN2X", "dateTime": 1519153944580}, {"current_trial": 96, "trialdata": {"rt": -1, "trial_type": "single-stim", "word": "canal", "stimulus": "<p id=\"stim\">CANAL</p>", "conditions": [12, 1600, "v", 12000], "internal_node_id": "0.0-69.0", "trial": 2, "time_elapsed": 472734, "serialpos": 7, "key_press": -1, "wordID": 225, "type": "PRES_VIS", "trial_index": 96}, "uniqueid": "MTK2614:3C2NJ6JBKBOEXAGXPR5GQV9XD9MN2X", "dateTime": 1519153947333}, {"current_trial": 97, "trialdata": {"rt": -1, "trial_type": "single-stim", "word": "brother", "stimulus": "<p id=\"stim\">BROTHER</p>", "conditions": [12, 1600, "v", 12000], "internal_node_id": "0.0-70.0", "trial": 2, "time_elapsed": 475513, "serialpos": 8, "key_press": -1, "wordID": 178, "type": "PRES_VIS", "trial_index": 97}, "uniqueid": "MTK2614:3C2NJ6JBKBOEXAGXPR5GQV9XD9MN2X", "dateTime": 1519153950111}, {"current_trial": 98, "trialdata": {"rt": -1, "trial_type": "single-stim", "word": "wife", "stimulus": "<p id=\"stim\">WIFE</p>", "conditions": [12, 1600, "v", 12000], "internal_node_id": "0.0-71.0", "trial": 2, "time_elapsed": 477926, "serialpos": 9, "key_press": -1, "wordID": 1608, "type": "PRES_VIS", "trial_index": 98}, "uniqueid": "MTK2614:3C2NJ6JBKBOEXAGXPR5GQV9XD9MN2X", "dateTime": 1519153952524}, {"current_trial": 99, "trialdata": {"rt": -1, "trial_type": "single-stim", "word": "concert", "stimulus": "<p id=\"stim\">CONCERT</p>", "conditions": [12, 1600, "v", 12000], "internal_node_id": "0.0-72.0", "trial": 2, "time_elapsed": 480496, "serialpos": 10, "key_press": -1, "wordID": 359, "type": "PRES_VIS", "trial_index": 99}, "uniqueid": "MTK2614:3C2NJ6JBKBOEXAGXPR5GQV9XD9MN2X", "dateTime": 1519153955094}, {"current_trial": 100, "trialdata": {"rt": -1, "trial_type": "single-stim", "word": "dress", "stimulus": "<p id=\"stim\">DRESS</p>", "conditions": [12, 1600, "v", 12000], "internal_node_id": "0.0-73.0", "trial": 2, "time_elapsed": 482912, "serialpos": 11, "key_press": -1, "wordID": 494, "type": "PRES_VIS", "trial_index": 100}, "uniqueid": "MTK2614:3C2NJ6JBKBOEXAGXPR5GQV9XD9MN2X", "dateTime": 1519153957510}, {"current_trial": 101, "trialdata": {"rt": -1, "trial_type": "single-stim", "stimulus": "", "internal_node_id": "0.0-74.0-0.0", "time_elapsed": 485124, "key_press": -1, "type": "PRE_RECALL_DELAY", "trial_index": 101}, "uniqueid": "MTK2614:3C2NJ6JBKBOEXAGXPR5GQV9XD9MN2X", "dateTime": 1519153959722}, {"current_trial": 102, "trialdata": {"rt": -1000, "trial_type": "single-audio", "stimulus": "/static/audio/400Hz.wav", "internal_node_id": "0.0-75.0", "time_elapsed": 485625, "key_press": -1, "type": "PRE_RECALL_ALERT", "trial_index": 102}, "uniqueid": "MTK2614:3C2NJ6JBKBOEXAGXPR5GQV9XD9MN2X", "dateTime": 1519153960224}, {"current_trial": 103, "trialdata": {"rt": [2803, 4245, 6088, 7621, 9169, 10157, 11651, 27259, 33281, 37612], "recwords": ["concert", "dress", "brother", "mailman", "policeman", "mars", "marsh", "clothes", "egypt", "blockade"], "key_times": [1969, 2038, 2082, 2160, 2389, 2499, 2645, 2803, 3001, 3280, 3413, 3693, 3940, 4245, 4553, 5032, 5174, 5299, 5441, 5574, 5643, 6088, 6484, 6631, 6719, 6803, 7238, 7333, 7408, 7621, 8007, 8090, 8296, 8374, 8517, 8722, 8844, 8936, 8998, 9169, 9468, 9562, 9664, 9884, 10157, 10864, 10942, 11011, 11195, 11337, 11651, 26398, 26502, 26693, 26840, 26928, 27047, 27112, 27259, 31849, 32044, 32405, 32485, 32650, 33281, 36419, 36536, 36715, 36808, 36900, 37102, 37294, 37496, 37612], "trial_type": "free-recall", "conditions": [12, 1600, "v", 12000], "internal_node_id": "0.0-76.0-0.0", "key_presses": [67, 79, 78, 67, 69, 82, 84, 13, 68, 82, 69, 83, 83, 13, 66, 82, 79, 84, 72, 69, 82, 13, 77, 65, 73, 76, 77, 65, 78, 13, 80, 79, 76, 73, 67, 69, 77, 65, 78, 13, 77, 65, 82, 83, 13, 77, 65, 82, 83, 72, 13, 67, 76, 79, 84, 72, 69, 83, 13, 69, 71, 89, 80, 84, 13, 66, 76, 79, 67, 75, 65, 68, 69, 13], "trial": 2, "time_elapsed": 545629, "type": "FREE_RECALL", "trial_index": 103}, "uniqueid": "MTK2614:3C2NJ6JBKBOEXAGXPR5GQV9XD9MN2X", "dateTime": 1519154020230}, {"current_trial": 104, "trialdata": {"rt": 1439, "trial_type": "text", "internal_node_id": "0.0-77.0", "time_elapsed": 549071, "key_press": 13, "type": "INSTRUCTIONS", "trial_index": 104}, "uniqueid": "MTK2614:3C2NJ6JBKBOEXAGXPR5GQV9XD9MN2X", "dateTime": 1519154023669}, {"current_trial": 105, "trialdata": {"rt": [3696, 5280, 7358, 8787, 10783, 13459, 20382, 22148, 23530], "trial_type": "math-distractor", "key_times": [3050, 3309, 3696, 4883, 5072, 5280, 6801, 7026, 7358, 8474, 8569, 8787, 10498, 10594, 10783, 12812, 13133, 13459, 15508, 15578, 16892, 17064, 17227, 19381, 19570, 20382, 21568, 21816, 22148, 23229, 23367, 23530], "responses": ["24", "10", "17", "12", "21", "19", "19", "16", "10"], "num2": [7, 4, 7, 2, 5, 7, 6, 6, 3, 3], "num3": [8, 5, 9, 2, 8, 8, 6, 5, 5, 8], "conditions": [12, 800, "v", 24000], "internal_node_id": "0.0-78.0", "key_presses": [98, 100, 13, 97, 96, 13, 97, 103, 13, 97, 98, 13, 98, 97, 13, 97, 105, 13, 97, 99, 8, 8, 8, 97, 105, 13, 97, 102, 13, 97, 96, 13], "trial": 3, "time_elapsed": 575077, "type": "DISTRACTOR", "trial_index": 105, "num1": [9, 1, 1, 8, 8, 4, 7, 5, 2, 1]}, "uniqueid": "MTK2614:3C2NJ6JBKBOEXAGXPR5GQV9XD9MN2X", "dateTime": 1519154049675}, {"current_trial": 106, "trialdata": {"rt": -1, "trial_type": "single-stim", "stimulus": "<p id=\"stim\">10</p>", "internal_node_id": "0.0-79.0-0.0", "time_elapsed": 578078, "key_press": -1, "trial_index": 106}, "uniqueid": "MTK2614:3C2NJ6JBKBOEXAGXPR5GQV9XD9MN2X", "dateTime": 1519154052676}, {"current_trial": 107, "trialdata": {"rt": -1, "trial_type": "single-stim", "stimulus": "<p id=\"stim\">9</p>", "internal_node_id": "0.0-79.0-1.0", "time_elapsed": 579080, "key_press": -1, "trial_index": 107}, "uniqueid": "MTK2614:3C2NJ6JBKBOEXAGXPR5GQV9XD9MN2X", "dateTime": 1519154053678}, {"current_trial": 108, "trialdata": {"rt": -1, "trial_type": "single-stim", "stimulus": "<p id=\"stim\">8</p>", "internal_node_id": "0.0-79.0-2.0", "time_elapsed": 580081, "key_press": -1, "trial_index": 108}, "uniqueid": "MTK2614:3C2NJ6JBKBOEXAGXPR5GQV9XD9MN2X", "dateTime": 1519154054679}, {"current_trial": 109, "trialdata": {"rt": -1, "trial_type": "single-stim", "stimulus": "<p id=\"stim\">7</p>", "internal_node_id": "0.0-79.0-3.0", "time_elapsed": 581085, "key_press": -1, "trial_index": 109}, "uniqueid": "MTK2614:3C2NJ6JBKBOEXAGXPR5GQV9XD9MN2X", "dateTime": 1519154055683}, {"current_trial": 110, "trialdata": {"rt": -1, "trial_type": "single-stim", "stimulus": "<p id=\"stim\">6</p>", "internal_node_id": "0.0-79.0-4.0", "time_elapsed": 582086, "key_press": -1, "trial_index": 110}, "uniqueid": "MTK2614:3C2NJ6JBKBOEXAGXPR5GQV9XD9MN2X", "dateTime": 1519154056685}, {"current_trial": 111, "trialdata": {"rt": -1, "trial_type": "single-stim", "stimulus": "<p id=\"stim\">5</p>", "internal_node_id": "0.0-79.0-5.0", "time_elapsed": 583089, "key_press": -1, "trial_index": 111}, "uniqueid": "MTK2614:3C2NJ6JBKBOEXAGXPR5GQV9XD9MN2X", "dateTime": 1519154057687}, {"current_trial": 112, "trialdata": {"rt": -1, "trial_type": "single-stim", "stimulus": "<p id=\"stim\">4</p>", "internal_node_id": "0.0-79.0-6.0", "time_elapsed": 584090, "key_press": -1, "trial_index": 112}, "uniqueid": "MTK2614:3C2NJ6JBKBOEXAGXPR5GQV9XD9MN2X", "dateTime": 1519154058688}, {"current_trial": 113, "trialdata": {"rt": -1, "trial_type": "single-stim", "stimulus": "<p id=\"stim\">3</p>", "internal_node_id": "0.0-79.0-7.0", "time_elapsed": 585092, "key_press": -1, "trial_index": 113}, "uniqueid": "MTK2614:3C2NJ6JBKBOEXAGXPR5GQV9XD9MN2X", "dateTime": 1519154059690}, {"current_trial": 114, "trialdata": {"rt": -1, "trial_type": "single-stim", "stimulus": "<p id=\"stim\">2</p>", "internal_node_id": "0.0-79.0-8.0", "time_elapsed": 586094, "key_press": -1, "trial_index": 114}, "uniqueid": "MTK2614:3C2NJ6JBKBOEXAGXPR5GQV9XD9MN2X", "dateTime": 1519154060692}, {"current_trial": 115, "trialdata": {"rt": -1, "trial_type": "single-stim", "stimulus": "<p id=\"stim\">1</p>", "internal_node_id": "0.0-79.0-9.0", "time_elapsed": 587095, "key_press": -1, "trial_index": 115}, "uniqueid": "MTK2614:3C2NJ6JBKBOEXAGXPR5GQV9XD9MN2X", "dateTime": 1519154061694}, {"current_trial": 116, "trialdata": {"rt": -1, "trial_type": "single-stim", "stimulus": "<p id=\"stim\">+</p>", "internal_node_id": "0.0-80.0-0.0", "time_elapsed": 588597, "key_press": -1, "type": "FIXATION", "trial_index": 116}, "uniqueid": "MTK2614:3C2NJ6JBKBOEXAGXPR5GQV9XD9MN2X", "dateTime": 1519154063195}, {"current_trial": 117, "trialdata": {"rt": -1, "trial_type": "single-stim", "word": "outfit", "stimulus": "<p id=\"stim\">OUTFIT</p>", "conditions": [12, 800, "v", 24000], "internal_node_id": "0.0-81.0", "trial": 3, "time_elapsed": 589399, "serialpos": 0, "key_press": -1, "wordID": 987, "type": "PRES_VIS", "trial_index": 117}, "uniqueid": "MTK2614:3C2NJ6JBKBOEXAGXPR5GQV9XD9MN2X", "dateTime": 1519154063997}, {"current_trial": 118, "trialdata": {"rt": -1, "trial_type": "single-stim", "word": "plaid", "stimulus": "<p id=\"stim\">PLAID</p>", "conditions": [12, 800, "v", 24000], "internal_node_id": "0.0-82.0", "trial": 3, "time_elapsed": 591270, "serialpos": 1, "key_press": -1, "wordID": 1079, "type": "PRES_VIS", "trial_index": 118}, "uniqueid": "MTK2614:3C2NJ6JBKBOEXAGXPR5GQV9XD9MN2X", "dateTime": 1519154065868}, {"current_trial": 119, "trialdata": {"rt": -1, "trial_type": "single-stim", "word": "ointment", "stimulus": "<p id=\"stim\">OINTMENT</p>", "conditions": [12, 800, "v", 24000], "internal_node_id": "0.0-83.0", "trial": 3, "time_elapsed": 593230, "serialpos": 2, "key_press": -1, "wordID": 973, "type": "PRES_VIS", "trial_index": 119}, "uniqueid": "MTK2614:3C2NJ6JBKBOEXAGXPR5GQV9XD9MN2X", "dateTime": 1519154067828}, {"current_trial": 120, "trialdata": {"rt": -1, "trial_type": "single-stim", "word": "lily", "stimulus": "<p id=\"stim\">LILY</p>", "conditions": [12, 800, "v", 24000], "internal_node_id": "0.0-84.0", "trial": 3, "time_elapsed": 594953, "serialpos": 3, "key_press": -1, "wordID": 820, "type": "PRES_VIS", "trial_index": 120}, "uniqueid": "MTK2614:3C2NJ6JBKBOEXAGXPR5GQV9XD9MN2X", "dateTime": 1519154069552}, {"current_trial": 121, "trialdata": {"rt": -1, "trial_type": "single-stim", "word": "orchid", "stimulus": "<p id=\"stim\">ORCHID</p>", "conditions": [12, 800, "v", 24000], "internal_node_id": "0.0-85.0", "trial": 3, "time_elapsed": 596888, "serialpos": 4, "key_press": -1, "wordID": 981, "type": "PRES_VIS", "trial_index": 121}, "uniqueid": "MTK2614:3C2NJ6JBKBOEXAGXPR5GQV9XD9MN2X", "dateTime": 1519154071486}, {"current_trial": 122, "trialdata": {"rt": -1, "trial_type": "single-stim", "word": "banker", "stimulus": "<p id=\"stim\">BANKER</p>", "conditions": [12, 800, "v", 24000], "internal_node_id": "0.0-86.0", "trial": 3, "time_elapsed": 598889, "serialpos": 5, "key_press": -1, "wordID": 83, "type": "PRES_VIS", "trial_index": 122}, "uniqueid": "MTK2614:3C2NJ6JBKBOEXAGXPR5GQV9XD9MN2X", "dateTime": 1519154073487}, {"current_trial": 123, "trialdata": {"rt": -1, "trial_type": "single-stim", "word": "beast", "stimulus": "<p id=\"stim\">BEAST</p>", "conditions": [12, 800, "v", 24000], "internal_node_id": "0.0-87.0", "trial": 3, "time_elapsed": 600779, "serialpos": 6, "key_press": -1, "wordID": 107, "type": "PRES_VIS", "trial_index": 123}, "uniqueid": "MTK2614:3C2NJ6JBKBOEXAGXPR5GQV9XD9MN2X", "dateTime": 1519154075377}, {"current_trial": 124, "trialdata": {"rt": -1, "trial_type": "single-stim", "word": "bacon", "stimulus": "<p id=\"stim\">BACON</p>", "conditions": [12, 800, "v", 24000], "internal_node_id": "0.0-88.0", "trial": 3, "time_elapsed": 602556, "serialpos": 7, "key_press": -1, "wordID": 66, "type": "PRES_VIS", "trial_index": 124}, "uniqueid": "MTK2614:3C2NJ6JBKBOEXAGXPR5GQV9XD9MN2X", "dateTime": 1519154077154}, {"current_trial": 125, "trialdata": {"rt": -1, "trial_type": "single-stim", "word": "lipstick", "stimulus": "<p id=\"stim\">LIPSTICK</p>", "conditions": [12, 800, "v", 24000], "internal_node_id": "0.0-89.0", "trial": 3, "time_elapsed": 604355, "serialpos": 8, "key_press": -1, "wordID": 828, "type": "PRES_VIS", "trial_index": 125}, "uniqueid": "MTK2614:3C2NJ6JBKBOEXAGXPR5GQV9XD9MN2X", "dateTime": 1519154078953}, {"current_trial": 126, "trialdata": {"rt": -1, "trial_type": "single-stim", "word": "cobra", "stimulus": "<p id=\"stim\">COBRA</p>", "conditions": [12, 800, "v", 24000], "internal_node_id": "0.0-90.0", "trial": 3, "time_elapsed": 606266, "serialpos": 9, "key_press": -1, "wordID": 335, "type": "PRES_VIS", "trial_index": 126}, "uniqueid": "MTK2614:3C2NJ6JBKBOEXAGXPR5GQV9XD9MN2X", "dateTime": 1519154080864}, {"current_trial": 127, "trialdata": {"rt": -1, "trial_type": "single-stim", "word": "omelet", "stimulus": "<p id=\"stim\">OMELET</p>", "conditions": [12, 800, "v", 24000], "internal_node_id": "0.0-91.0", "trial": 3, "time_elapsed": 608050, "serialpos": 10, "key_press": -1, "wordID": 975, "type": "PRES_VIS", "trial_index": 127}, "uniqueid": "MTK2614:3C2NJ6JBKBOEXAGXPR5GQV9XD9MN2X", "dateTime": 1519154082648}, {"current_trial": 128, "trialdata": {"rt": -1, "trial_type": "single-stim", "word": "antler", "stimulus": "<p id=\"stim\">ANTLER</p>", "conditions": [12, 800, "v", 24000], "internal_node_id": "0.0-92.0", "trial": 3, "time_elapsed": 609915, "serialpos": 11, "key_press": -1, "wordID": 28, "type": "PRES_VIS", "trial_index": 128}, "uniqueid": "MTK2614:3C2NJ6JBKBOEXAGXPR5GQV9XD9MN2X", "dateTime": 1519154084513}, {"current_trial": 129, "trialdata": {"rt": -1, "trial_type": "single-stim", "stimulus": "", "internal_node_id": "0.0-93.0-0.0", "time_elapsed": 612287, "key_press": -1, "type": "PRE_RECALL_DELAY", "trial_index": 129}, "uniqueid": "MTK2614:3C2NJ6JBKBOEXAGXPR5GQV9XD9MN2X", "dateTime": 1519154086886}, {"current_trial": 130, "trialdata": {"rt": -1000, "trial_type": "single-audio", "stimulus": "/static/audio/400Hz.wav", "internal_node_id": "0.0-94.0", "time_elapsed": 612789, "key_press": -1, "type": "PRE_RECALL_ALERT", "trial_index": 130}, "uniqueid": "MTK2614:3C2NJ6JBKBOEXAGXPR5GQV9XD9MN2X", "dateTime": 1519154087387}, {"current_trial": 131, "trialdata": {"rt": [2524, 5809, 8180, 10135, 12290, 14173, 16976], "recwords": ["omelt", "omelet", "antler", "banker", "plaid", "lily", "orchid"], "key_times": [1495, 1683, 1821, 1918, 2060, 2524, 3805, 3925, 4382, 4481, 5101, 5215, 5809, 6055, 6145, 6255, 6421, 7273, 7356, 8180, 8499, 8572, 9206, 9343, 9518, 9587, 10135, 10493, 10727, 10842, 11589, 11686, 12290, 12663, 12773, 12967, 13393, 14173, 15935, 16023, 16294, 16384, 16485, 16746, 16976], "trial_type": "free-recall", "conditions": [12, 800, "v", 24000], "internal_node_id": "0.0-95.0-0.0", "key_presses": [79, 77, 69, 76, 84, 13, 79, 77, 69, 76, 69, 84, 13, 65, 78, 84, 76, 69, 82, 13, 66, 65, 78, 75, 69, 82, 13, 80, 76, 65, 73, 68, 13, 76, 73, 76, 89, 13, 79, 82, 67, 72, 73, 68, 13], "trial": 3, "time_elapsed": 672793, "type": "FREE_RECALL", "trial_index": 131}, "uniqueid": "MTK2614:3C2NJ6JBKBOEXAGXPR5GQV9XD9MN2X", "dateTime": 1519154147393}, {"current_trial": 132, "trialdata": {"rt": 897, "trial_type": "text", "internal_node_id": "0.0-96.0", "time_elapsed": 675693, "key_press": 13, "type": "INSTRUCTIONS", "trial_index": 132}, "uniqueid": "MTK2614:3C2NJ6JBKBOEXAGXPR5GQV9XD9MN2X", "dateTime": 1519154150291}, {"current_trial": 133, "trialdata": {"rt": [3031, 4993, 6890, 8823, 11141, 13822, 15666, 17674, 19658, 22109], "trial_type": "math-distractor", "key_times": [2696, 2791, 3031, 4504, 4716, 4993, 6645, 6890, 8518, 8604, 8823, 10799, 10882, 11141, 13373, 13822, 15449, 15505, 15666, 17261, 17434, 17674, 19175, 19380, 19658, 21859, 21924, 22109], "responses": ["20", "18", "9", "15", "21", "7", "21", "14", "17", "21"], "num2": [8, 9, 1, 4, 9, 2, 8, 6, 6, 9, 4], "num3": [4, 3, 6, 7, 8, 3, 8, 5, 9, 5, 8], "conditions": [24, 800, "v", 24000], "internal_node_id": "0.0-97.0", "key_presses": [98, 96, 13, 97, 104, 13, 105, 13, 97, 101, 13, 98, 97, 13, 103, 13, 98, 97, 13, 97, 100, 13, 97, 103, 13, 98, 97, 13], "trial": 4, "time_elapsed": 701697, "type": "DISTRACTOR", "trial_index": 133, "num1": [8, 6, 2, 4, 4, 2, 5, 3, 2, 7, 9]}, "uniqueid": "MTK2614:3C2NJ6JBKBOEXAGXPR5GQV9XD9MN2X", "dateTime": 1519154176296}, {"current_trial": 134, "trialdata": {"rt": -1, "trial_type": "single-stim", "stimulus": "<p id=\"stim\">10</p>", "internal_node_id": "0.0-98.0-0.0", "time_elapsed": 704700, "key_press": -1, "trial_index": 134}, "uniqueid": "MTK2614:3C2NJ6JBKBOEXAGXPR5GQV9XD9MN2X", "dateTime": 1519154179299}, {"current_trial": 135, "trialdata": {"rt": -1, "trial_type": "single-stim", "stimulus": "<p id=\"stim\">9</p>", "internal_node_id": "0.0-98.0-1.0", "time_elapsed": 705702, "key_press": -1, "trial_index": 135}, "uniqueid": "MTK2614:3C2NJ6JBKBOEXAGXPR5GQV9XD9MN2X", "dateTime": 1519154180300}, {"current_trial": 136, "trialdata": {"rt": -1, "trial_type": "single-stim", "stimulus": "<p id=\"stim\">8</p>", "internal_node_id": "0.0-98.0-2.0", "time_elapsed": 706703, "key_press": -1, "trial_index": 136}, "uniqueid": "MTK2614:3C2NJ6JBKBOEXAGXPR5GQV9XD9MN2X", "dateTime": 1519154181301}, {"current_trial": 137, "trialdata": {"rt": -1, "trial_type": "single-stim", "stimulus": "<p id=\"stim\">7</p>", "internal_node_id": "0.0-98.0-3.0", "time_elapsed": 707704, "key_press": -1, "trial_index": 137}, "uniqueid": "MTK2614:3C2NJ6JBKBOEXAGXPR5GQV9XD9MN2X", "dateTime": 1519154182302}, {"current_trial": 138, "trialdata": {"rt": -1, "trial_type": "single-stim", "stimulus": "<p id=\"stim\">6</p>", "internal_node_id": "0.0-98.0-4.0", "time_elapsed": 708705, "key_press": -1, "trial_index": 138}, "uniqueid": "MTK2614:3C2NJ6JBKBOEXAGXPR5GQV9XD9MN2X", "dateTime": 1519154183303}, {"current_trial": 139, "trialdata": {"rt": -1, "trial_type": "single-stim", "stimulus": "<p id=\"stim\">5</p>", "internal_node_id": "0.0-98.0-5.0", "time_elapsed": 709706, "key_press": -1, "trial_index": 139}, "uniqueid": "MTK2614:3C2NJ6JBKBOEXAGXPR5GQV9XD9MN2X", "dateTime": 1519154184304}, {"current_trial": 140, "trialdata": {"rt": -1, "trial_type": "single-stim", "stimulus": "<p id=\"stim\">4</p>", "internal_node_id": "0.0-98.0-6.0", "time_elapsed": 710708, "key_press": -1, "trial_index": 140}, "uniqueid": "MTK2614:3C2NJ6JBKBOEXAGXPR5GQV9XD9MN2X", "dateTime": 1519154185306}, {"current_trial": 141, "trialdata": {"rt": -1, "trial_type": "single-stim", "stimulus": "<p id=\"stim\">3</p>", "internal_node_id": "0.0-98.0-7.0", "time_elapsed": 711708, "key_press": -1, "trial_index": 141}, "uniqueid": "MTK2614:3C2NJ6JBKBOEXAGXPR5GQV9XD9MN2X", "dateTime": 1519154186307}, {"current_trial": 142, "trialdata": {"rt": -1, "trial_type": "single-stim", "stimulus": "<p id=\"stim\">2</p>", "internal_node_id": "0.0-98.0-8.0", "time_elapsed": 712710, "key_press": -1, "trial_index": 142}, "uniqueid": "MTK2614:3C2NJ6JBKBOEXAGXPR5GQV9XD9MN2X", "dateTime": 1519154187308}, {"current_trial": 143, "trialdata": {"rt": -1, "trial_type": "single-stim", "stimulus": "<p id=\"stim\">1</p>", "internal_node_id": "0.0-98.0-9.0", "time_elapsed": 713711, "key_press": -1, "trial_index": 143}, "uniqueid": "MTK2614:3C2NJ6JBKBOEXAGXPR5GQV9XD9MN2X", "dateTime": 1519154188310}, {"current_trial": 144, "trialdata": {"rt": -1, "trial_type": "single-stim", "stimulus": "<p id=\"stim\">+</p>", "internal_node_id": "0.0-99.0-0.0", "time_elapsed": 715213, "key_press": -1, "type": "FIXATION", "trial_index": 144}, "uniqueid": "MTK2614:3C2NJ6JBKBOEXAGXPR5GQV9XD9MN2X", "dateTime": 1519154189812}, {"current_trial": 145, "trialdata": {"rt": -1, "trial_type": "single-stim", "word": "sheriff", "stimulus": "<p id=\"stim\">SHERIFF</p>", "conditions": [24, 800, "v", 24000], "internal_node_id": "0.0-100.0", "trial": 4, "time_elapsed": 716016, "serialpos": 0, "key_press": -1, "wordID": 1283, "type": "PRES_VIS", "trial_index": 145}, "uniqueid": "MTK2614:3C2NJ6JBKBOEXAGXPR5GQV9XD9MN2X", "dateTime": 1519154190614}, {"current_trial": 146, "trialdata": {"rt": -1, "trial_type": "single-stim", "word": "county", "stimulus": "<p id=\"stim\">COUNTY</p>", "conditions": [24, 800, "v", 24000], "internal_node_id": "0.0-101.0", "trial": 4, "time_elapsed": 717832, "serialpos": 1, "key_press": -1, "wordID": 388, "type": "PRES_VIS", "trial_index": 146}, "uniqueid": "MTK2614:3C2NJ6JBKBOEXAGXPR5GQV9XD9MN2X", "dateTime": 1519154192430}, {"current_trial": 147, "trialdata": {"rt": -1, "trial_type": "single-stim", "word": "gazelle", "stimulus": "<p id=\"stim\">GAZELLE</p>", "conditions": [24, 800, "v", 24000], "internal_node_id": "0.0-102.0", "trial": 4, "time_elapsed": 719812, "serialpos": 2, "key_press": -1, "wordID": 627, "type": "PRES_VIS", "trial_index": 147}, "uniqueid": "MTK2614:3C2NJ6JBKBOEXAGXPR5GQV9XD9MN2X", "dateTime": 1519154194411}, {"current_trial": 148, "trialdata": {"rt": -1, "trial_type": "single-stim", "word": "hornet", "stimulus": "<p id=\"stim\">HORNET</p>", "conditions": [24, 800, "v", 24000], "internal_node_id": "0.0-103.0", "trial": 4, "time_elapsed": 721564, "serialpos": 3, "key_press": -1, "wordID": 717, "type": "PRES_VIS", "trial_index": 148}, "uniqueid": "MTK2614:3C2NJ6JBKBOEXAGXPR5GQV9XD9MN2X", "dateTime": 1519154196163}, {"current_trial": 149, "trialdata": {"rt": -1, "trial_type": "single-stim", "word": "beaker", "stimulus": "<p id=\"stim\">BEAKER</p>", "conditions": [24, 800, "v", 24000], "internal_node_id": "0.0-104.0", "trial": 4, "time_elapsed": 723336, "serialpos": 4, "key_press": -1, "wordID": 103, "type": "PRES_VIS", "trial_index": 149}, "uniqueid": "MTK2614:3C2NJ6JBKBOEXAGXPR5GQV9XD9MN2X", "dateTime": 1519154197934}, {"current_trial": 150, "trialdata": {"rt": -1, "trial_type": "single-stim", "word": "costume", "stimulus": "<p id=\"stim\">COSTUME</p>", "conditions": [24, 800, "v", 24000], "internal_node_id": "0.0-105.0", "trial": 4, "time_elapsed": 724987, "serialpos": 5, "key_press": -1, "wordID": 382, "type": "PRES_VIS", "trial_index": 150}, "uniqueid": "MTK2614:3C2NJ6JBKBOEXAGXPR5GQV9XD9MN2X", "dateTime": 1519154199586}, {"current_trial": 151, "trialdata": {"rt": -1, "trial_type": "single-stim", "word": "hostess", "stimulus": "<p id=\"stim\">HOSTESS</p>", "conditions": [24, 800, "v", 24000], "internal_node_id": "0.0-106.0", "trial": 4, "time_elapsed": 726766, "serialpos": 6, "key_press": -1, "wordID": 722, "type": "PRES_VIS", "trial_index": 151}, "uniqueid": "MTK2614:3C2NJ6JBKBOEXAGXPR5GQV9XD9MN2X", "dateTime": 1519154201364}, {"current_trial": 152, "trialdata": {"rt": -1, "trial_type": "single-stim", "word": "skillet", "stimulus": "<p id=\"stim\">SKILLET</p>", "conditions": [24, 800, "v", 24000], "internal_node_id": "0.0-107.0", "trial": 4, "time_elapsed": 728651, "serialpos": 7, "key_press": -1, "wordID": 1316, "type": "PRES_VIS", "trial_index": 152}, "uniqueid": "MTK2614:3C2NJ6JBKBOEXAGXPR5GQV9XD9MN2X", "dateTime": 1519154203249}, {"current_trial": 153, "trialdata": {"rt": -1, "trial_type": "single-stim", "word": "fleet", "stimulus": "<p id=\"stim\">FLEET</p>", "conditions": [24, 800, "v", 24000], "internal_node_id": "0.0-108.0", "trial": 4, "time_elapsed": 730636, "serialpos": 8, "key_press": -1, "wordID": 577, "type": "PRES_VIS", "trial_index": 153}, "uniqueid": "MTK2614:3C2NJ6JBKBOEXAGXPR5GQV9XD9MN2X", "dateTime": 1519154205234}, {"current_trial": 154, "trialdata": {"rt": -1, "trial_type": "single-stim", "word": "flower", "stimulus": "<p id=\"stim\">FLOWER</p>", "conditions": [24, 800, "v", 24000], "internal_node_id": "0.0-109.0", "trial": 4, "time_elapsed": 732305, "serialpos": 9, "key_press": -1, "wordID": 583, "type": "PRES_VIS", "trial_index": 154}, "uniqueid": "MTK2614:3C2NJ6JBKBOEXAGXPR5GQV9XD9MN2X", "dateTime": 1519154206903}, {"current_trial": 155, "trialdata": {"rt": -1, "trial_type": "single-stim", "word": "stallion", "stimulus": "<p id=\"stim\">STALLION</p>", "conditions": [24, 800, "v", 24000], "internal_node_id": "0.0-110.0", "trial": 4, "time_elapsed": 734005, "serialpos": 10, "key_press": -1, "wordID": 1368, "type": "PRES_VIS", "trial_index": 155}, "uniqueid": "MTK2614:3C2NJ6JBKBOEXAGXPR5GQV9XD9MN2X", "dateTime": 1519154208603}, {"current_trial": 156, "trialdata": {"rt": -1, "trial_type": "single-stim", "word": "tutu", "stimulus": "<p id=\"stim\">TUTU</p>", "conditions": [24, 800, "v", 24000], "internal_node_id": "0.0-111.0", "trial": 4, "time_elapsed": 735783, "serialpos": 11, "key_press": -1, "wordID": 1523, "type": "PRES_VIS", "trial_index": 156}, "uniqueid": "MTK2614:3C2NJ6JBKBOEXAGXPR5GQV9XD9MN2X", "dateTime": 1519154210381}, {"current_trial": 157, "trialdata": {"rt": -1, "trial_type": "single-stim", "word": "tile", "stimulus": "<p id=\"stim\">TILE</p>", "conditions": [24, 800, "v", 24000], "internal_node_id": "0.0-112.0", "trial": 4, "time_elapsed": 737743, "serialpos": 12, "key_press": -1, "wordID": 1467, "type": "PRES_VIS", "trial_index": 157}, "uniqueid": "MTK2614:3C2NJ6JBKBOEXAGXPR5GQV9XD9MN2X", "dateTime": 1519154212341}, {"current_trial": 158, "trialdata": {"rt": -1, "trial_type": "single-stim", "word": "message", "stimulus": "<p id=\"stim\">MESSAGE</p>", "conditions": [24, 800, "v", 24000], "internal_node_id": "0.0-113.0", "trial": 4, "time_elapsed": 739482, "serialpos": 13, "key_press": -1, "wordID": 887, "type": "PRES_VIS", "trial_index": 158}, "uniqueid": "MTK2614:3C2NJ6JBKBOEXAGXPR5GQV9XD9MN2X", "dateTime": 1519154214080}, {"current_trial": 159, "trialdata": {"rt": -1, "trial_type": "single-stim", "word": "summit", "stimulus": "<p id=\"stim\">SUMMIT</p>", "conditions": [24, 800, "v", 24000], "internal_node_id": "0.0-114.0", "trial": 4, "time_elapsed": 741372, "serialpos": 14, "key_press": -1, "wordID": 1404, "type": "PRES_VIS", "trial_index": 159}, "uniqueid": "MTK2614:3C2NJ6JBKBOEXAGXPR5GQV9XD9MN2X", "dateTime": 1519154215970}, {"current_trial": 160, "trialdata": {"rt": -1, "trial_type": "single-stim", "word": "oyster", "stimulus": "<p id=\"stim\">OYSTER</p>", "conditions": [24, 800, "v", 24000], "internal_node_id": "0.0-115.0", "trial": 4, "time_elapsed": 743281, "serialpos": 15, "key_press": -1, "wordID": 994, "type": "PRES_VIS", "trial_index": 160}, "uniqueid": "MTK2614:3C2NJ6JBKBOEXAGXPR5GQV9XD9MN2X", "dateTime": 1519154217879}, {"current_trial": 161, "trialdata": {"rt": -1, "trial_type": "single-stim", "word": "pizza", "stimulus": "<p id=\"stim\">PIZZA</p>", "conditions": [24, 800, "v", 24000], "internal_node_id": "0.0-116.0", "trial": 4, "time_elapsed": 745177, "serialpos": 16, "key_press": -1, "wordID": 1078, "type": "PRES_VIS", "trial_index": 161}, "uniqueid": "MTK2614:3C2NJ6JBKBOEXAGXPR5GQV9XD9MN2X", "dateTime": 1519154219775}, {"current_trial": 162, "trialdata": {"rt": -1, "trial_type": "single-stim", "word": "mattress", "stimulus": "<p id=\"stim\">MATTRESS</p>", "conditions": [24, 800, "v", 24000], "internal_node_id": "0.0-117.0", "trial": 4, "time_elapsed": 746805, "serialpos": 17, "key_press": -1, "wordID": 878, "type": "PRES_VIS", "trial_index": 162}, "uniqueid": "MTK2614:3C2NJ6JBKBOEXAGXPR5GQV9XD9MN2X", "dateTime": 1519154221403}, {"current_trial": 163, "trialdata": {"rt": -1, "trial_type": "single-stim", "word": "couch", "stimulus": "<p id=\"stim\">COUCH</p>", "conditions": [24, 800, "v", 24000], "internal_node_id": "0.0-118.0", "trial": 4, "time_elapsed": 748618, "serialpos": 18, "key_press": -1, "wordID": 385, "type": "PRES_VIS", "trial_index": 163}, "uniqueid": "MTK2614:3C2NJ6JBKBOEXAGXPR5GQV9XD9MN2X", "dateTime": 1519154223216}, {"current_trial": 164, "trialdata": {"rt": -1, "trial_type": "single-stim", "word": "salmon", "stimulus": "<p id=\"stim\">SALMON</p>", "conditions": [24, 800, "v", 24000], "internal_node_id": "0.0-119.0", "trial": 4, "time_elapsed": 750336, "serialpos": 19, "key_press": -1, "wordID": 1226, "type": "PRES_VIS", "trial_index": 164}, "uniqueid": "MTK2614:3C2NJ6JBKBOEXAGXPR5GQV9XD9MN2X", "dateTime": 1519154224934}, {"current_trial": 165, "trialdata": {"rt": -1, "trial_type": "single-stim", "word": "zebra", "stimulus": "<p id=\"stim\">ZEBRA</p>", "conditions": [24, 800, "v", 24000], "internal_node_id": "0.0-120.0", "trial": 4, "time_elapsed": 752136, "serialpos": 20, "key_press": -1, "wordID": 1634, "type": "PRES_VIS", "trial_index": 165}, "uniqueid": "MTK2614:3C2NJ6JBKBOEXAGXPR5GQV9XD9MN2X", "dateTime": 1519154226734}, {"current_trial": 166, "trialdata": {"rt": -1, "trial_type": "single-stim", "word": "doughnut", "stimulus": "<p id=\"stim\">DOUGHNUT</p>", "conditions": [24, 800, "v", 24000], "internal_node_id": "0.0-121.0", "trial": 4, "time_elapsed": 753881, "serialpos": 21, "key_press": -1, "wordID": 489, "type": "PRES_VIS", "trial_index": 166}, "uniqueid": "MTK2614:3C2NJ6JBKBOEXAGXPR5GQV9XD9MN2X", "dateTime": 1519154228479}, {"current_trial": 167, "trialdata": {"rt": -1, "trial_type": "single-stim", "word": "statue", "stimulus": "<p id=\"stim\">STATUE</p>", "conditions": [24, 800, "v", 24000], "internal_node_id": "0.0-122.0", "trial": 4, "time_elapsed": 755500, "serialpos": 22, "key_press": -1, "wordID": 1373, "type": "PRES_VIS", "trial_index": 167}, "uniqueid": "MTK2614:3C2NJ6JBKBOEXAGXPR5GQV9XD9MN2X", "dateTime": 1519154230098}, {"current_trial": 168, "trialdata": {"rt": -1, "trial_type": "single-stim", "word": "dashboard", "stimulus": "<p id=\"stim\">DASHBOARD</p>", "conditions": [24, 800, "v", 24000], "internal_node_id": "0.0-123.0", "trial": 4, "time_elapsed": 757192, "serialpos": 23, "key_press": -1, "wordID": 440, "type": "PRES_VIS", "trial_index": 168}, "uniqueid": "MTK2614:3C2NJ6JBKBOEXAGXPR5GQV9XD9MN2X", "dateTime": 1519154231790}, {"current_trial": 169, "trialdata": {"rt": -1, "trial_type": "single-stim", "stimulus": "", "internal_node_id": "0.0-124.0-0.0", "time_elapsed": 759432, "key_press": -1, "type": "PRE_RECALL_DELAY", "trial_index": 169}, "uniqueid": "MTK2614:3C2NJ6JBKBOEXAGXPR5GQV9XD9MN2X", "dateTime": 1519154234030}, {"current_trial": 170, "trialdata": {"rt": -1000, "trial_type": "single-audio", "stimulus": "/static/audio/400Hz.wav", "internal_node_id": "0.0-125.0", "time_elapsed": 759933, "key_press": -1, "type": "PRE_RECALL_ALERT", "trial_index": 170}, "uniqueid": "MTK2614:3C2NJ6JBKBOEXAGXPR5GQV9XD9MN2X", "dateTime": 1519154234531}, {"current_trial": 171, "trialdata": {"rt": [2558, 6256, 11013, 13503, 15294, 23241, 25832, 32629, 35355, 46734], "recwords": ["statue", "dashboard", "doughnut", "mattress", "dashboard", "gazelle", "hornet", "summit", "fleet", "tutu"], "key_times": [1648, 1904, 2006, 2113, 2296, 2396, 2558, 2773, 3167, 3824, 4003, 4156, 4556, 5026, 5200, 5292, 5408, 5744, 6256, 9116, 9295, 9362, 9437, 9574, 9887, 10129, 10220, 11013, 11288, 11440, 11551, 11980, 12210, 12352, 12454, 12668, 13503, 13848, 14040, 14260, 14402, 14559, 14714, 14846, 14939, 15156, 15294, 21825, 21912, 22333, 22549, 22722, 22880, 22994, 23241, 25101, 25176, 25280, 25390, 25522, 25587, 25832, 31669, 31890, 32133, 32290, 32395, 32533, 32629, 34677, 34797, 34934, 35111, 35244, 35355, 46061, 46218, 46324, 46446, 46734], "trial_type": "free-recall", "conditions": [24, 800, "v", 24000], "internal_node_id": "0.0-126.0-0.0", "key_presses": [83, 84, 65, 84, 85, 69, 32, 68, 8, 68, 65, 83, 72, 66, 79, 65, 82, 68, 13, 68, 79, 85, 71, 72, 78, 85, 84, 13, 77, 65, 84, 84, 82, 69, 83, 83, 13, 68, 65, 83, 72, 66, 79, 65, 82, 68, 13, 71, 65, 90, 69, 76, 76, 69, 13, 72, 79, 82, 78, 69, 84, 13, 83, 85, 77, 77, 73, 84, 13, 70, 76, 69, 69, 84, 13, 84, 85, 84, 85, 13], "trial": 4, "time_elapsed": 819937, "type": "FREE_RECALL", "trial_index": 171}, "uniqueid": "MTK2614:3C2NJ6JBKBOEXAGXPR5GQV9XD9MN2X", "dateTime": 1519154294537}, {"current_trial": 172, "trialdata": {"rt": 2613, "trial_type": "text", "internal_node_id": "0.0-127.0", "time_elapsed": 824553, "key_press": 13, "type": "INSTRUCTIONS", "trial_index": 172}, "uniqueid": "MTK2614:3C2NJ6JBKBOEXAGXPR5GQV9XD9MN2X", "dateTime": 1519154299151}, {"current_trial": 173, "trialdata": {"rt": [1865, 4643, 6072, 7748, 9329, 10960], "trial_type": "math-distractor", "key_times": [1435, 1613, 1865, 4282, 4420, 4643, 5733, 5863, 6072, 7297, 7500, 7748, 9069, 9329, 10739, 10864, 10960], "responses": ["14", "14", "14", "17", "8", "11"], "num2": [6, 4, 8, 9, 4, 2, 2], "num3": [3, 7, 5, 5, 2, 8, 7], "conditions": [24, 800, "v", 12000], "internal_node_id": "0.0-128.0", "key_presses": [97, 100, 13, 97, 100, 13, 97, 100, 13, 97, 103, 13, 104, 13, 97, 97, 13], "trial": 5, "time_elapsed": 838560, "type": "DISTRACTOR", "trial_index": 173, "num1": [5, 3, 1, 3, 5, 1, 1]}, "uniqueid": "MTK2614:3C2NJ6JBKBOEXAGXPR5GQV9XD9MN2X", "dateTime": 1519154313158}, {"current_trial": 174, "trialdata": {"rt": -1, "trial_type": "single-stim", "stimulus": "<p id=\"stim\">10</p>", "internal_node_id": "0.0-129.0-0.0", "time_elapsed": 841563, "key_press": -1, "trial_index": 174}, "uniqueid": "MTK2614:3C2NJ6JBKBOEXAGXPR5GQV9XD9MN2X", "dateTime": 1519154316161}, {"current_trial": 175, "trialdata": {"rt": -1, "trial_type": "single-stim", "stimulus": "<p id=\"stim\">9</p>", "internal_node_id": "0.0-129.0-1.0", "time_elapsed": 842565, "key_press": -1, "trial_index": 175}, "uniqueid": "MTK2614:3C2NJ6JBKBOEXAGXPR5GQV9XD9MN2X", "dateTime": 1519154317163}, {"current_trial": 176, "trialdata": {"rt": -1, "trial_type": "single-stim", "stimulus": "<p id=\"stim\">8</p>", "internal_node_id": "0.0-129.0-2.0", "time_elapsed": 843566, "key_press": -1, "trial_index": 176}, "uniqueid": "MTK2614:3C2NJ6JBKBOEXAGXPR5GQV9XD9MN2X", "dateTime": 1519154318164}, {"current_trial": 177, "trialdata": {"rt": -1, "trial_type": "single-stim", "stimulus": "<p id=\"stim\">7</p>", "internal_node_id": "0.0-129.0-3.0", "time_elapsed": 844566, "key_press": -1, "trial_index": 177}, "uniqueid": "MTK2614:3C2NJ6JBKBOEXAGXPR5GQV9XD9MN2X", "dateTime": 1519154319164}, {"current_trial": 178, "trialdata": {"rt": -1, "trial_type": "single-stim", "stimulus": "<p id=\"stim\">6</p>", "internal_node_id": "0.0-129.0-4.0", "time_elapsed": 845567, "key_press": -1, "trial_index": 178}, "uniqueid": "MTK2614:3C2NJ6JBKBOEXAGXPR5GQV9XD9MN2X", "dateTime": 1519154320165}, {"current_trial": 179, "trialdata": {"rt": -1, "trial_type": "single-stim", "stimulus": "<p id=\"stim\">5</p>", "internal_node_id": "0.0-129.0-5.0", "time_elapsed": 846569, "key_press": -1, "trial_index": 179}, "uniqueid": "MTK2614:3C2NJ6JBKBOEXAGXPR5GQV9XD9MN2X", "dateTime": 1519154321167}, {"current_trial": 180, "trialdata": {"rt": -1, "trial_type": "single-stim", "stimulus": "<p id=\"stim\">4</p>", "internal_node_id": "0.0-129.0-6.0", "time_elapsed": 847570, "key_press": -1, "trial_index": 180}, "uniqueid": "MTK2614:3C2NJ6JBKBOEXAGXPR5GQV9XD9MN2X", "dateTime": 1519154322168}, {"current_trial": 181, "trialdata": {"rt": -1, "trial_type": "single-stim", "stimulus": "<p id=\"stim\">3</p>", "internal_node_id": "0.0-129.0-7.0", "time_elapsed": 848571, "key_press": -1, "trial_index": 181}, "uniqueid": "MTK2614:3C2NJ6JBKBOEXAGXPR5GQV9XD9MN2X", "dateTime": 1519154323170}, {"current_trial": 182, "trialdata": {"rt": -1, "trial_type": "single-stim", "stimulus": "<p id=\"stim\">2</p>", "internal_node_id": "0.0-129.0-8.0", "time_elapsed": 849572, "key_press": -1, "trial_index": 182}, "uniqueid": "MTK2614:3C2NJ6JBKBOEXAGXPR5GQV9XD9MN2X", "dateTime": 1519154324171}, {"current_trial": 183, "trialdata": {"rt": -1, "trial_type": "single-stim", "stimulus": "<p id=\"stim\">1</p>", "internal_node_id": "0.0-129.0-9.0", "time_elapsed": 850574, "key_press": -1, "trial_index": 183}, "uniqueid": "MTK2614:3C2NJ6JBKBOEXAGXPR5GQV9XD9MN2X", "dateTime": 1519154325172}, {"current_trial": 184, "trialdata": {"rt": -1, "trial_type": "single-stim", "stimulus": "<p id=\"stim\">+</p>", "internal_node_id": "0.0-130.0-0.0", "time_elapsed": 852075, "key_press": -1, "type": "FIXATION", "trial_index": 184}, "uniqueid": "MTK2614:3C2NJ6JBKBOEXAGXPR5GQV9XD9MN2X", "dateTime": 1519154326673}, {"current_trial": 185, "trialdata": {"rt": -1, "trial_type": "single-stim", "word": "waitress", "stimulus": "<p id=\"stim\">WAITRESS</p>", "conditions": [24, 800, "v", 12000], "internal_node_id": "0.0-131.0", "trial": 5, "time_elapsed": 852876, "serialpos": 0, "key_press": -1, "wordID": 1580, "type": "PRES_VIS", "trial_index": 185}, "uniqueid": "MTK2614:3C2NJ6JBKBOEXAGXPR5GQV9XD9MN2X", "dateTime": 1519154327474}, {"current_trial": 186, "trialdata": {"rt": -1, "trial_type": "single-stim", "word": "barrel", "stimulus": "<p id=\"stim\">BARREL</p>", "conditions": [24, 800, "v", 12000], "internal_node_id": "0.0-132.0", "trial": 5, "time_elapsed": 854522, "serialpos": 1, "key_press": -1, "wordID": 90, "type": "PRES_VIS", "trial_index": 186}, "uniqueid": "MTK2614:3C2NJ6JBKBOEXAGXPR5GQV9XD9MN2X", "dateTime": 1519154329120}, {"current_trial": 187, "trialdata": {"rt": -1, "trial_type": "single-stim", "word": "gallon", "stimulus": "<p id=\"stim\">GALLON</p>", "conditions": [24, 800, "v", 12000], "internal_node_id": "0.0-133.0", "trial": 5, "time_elapsed": 856264, "serialpos": 2, "key_press": -1, "wordID": 617, "type": "PRES_VIS", "trial_index": 187}, "uniqueid": "MTK2614:3C2NJ6JBKBOEXAGXPR5GQV9XD9MN2X", "dateTime": 1519154330862}, {"current_trial": 188, "trialdata": {"rt": -1, "trial_type": "single-stim", "word": "snail", "stimulus": "<p id=\"stim\">SNAIL</p>", "conditions": [24, 800, "v", 12000], "internal_node_id": "0.0-134.0", "trial": 5, "time_elapsed": 857957, "serialpos": 3, "key_press": -1, "wordID": 1331, "type": "PRES_VIS", "trial_index": 188}, "uniqueid": "MTK2614:3C2NJ6JBKBOEXAGXPR5GQV9XD9MN2X", "dateTime": 1519154332556}, {"current_trial": 189, "trialdata": {"rt": -1, "trial_type": "single-stim", "word": "jury", "stimulus": "<p id=\"stim\">JURY</p>", "conditions": [24, 800, "v", 12000], "internal_node_id": "0.0-135.0", "trial": 5, "time_elapsed": 859614, "serialpos": 4, "key_press": -1, "wordID": 765, "type": "PRES_VIS", "trial_index": 189}, "uniqueid": "MTK2614:3C2NJ6JBKBOEXAGXPR5GQV9XD9MN2X", "dateTime": 1519154334212}, {"current_trial": 190, "trialdata": {"rt": -1, "trial_type": "single-stim", "word": "headband", "stimulus": "<p id=\"stim\">HEADBAND</p>", "conditions": [24, 800, "v", 12000], "internal_node_id": "0.0-136.0", "trial": 5, "time_elapsed": 861367, "serialpos": 5, "key_press": -1, "wordID": 695, "type": "PRES_VIS", "trial_index": 190}, "uniqueid": "MTK2614:3C2NJ6JBKBOEXAGXPR5GQV9XD9MN2X", "dateTime": 1519154335966}, {"current_trial": 191, "trialdata": {"rt": -1, "trial_type": "single-stim", "word": "rust", "stimulus": "<p id=\"stim\">RUST</p>", "conditions": [24, 800, "v", 12000], "internal_node_id": "0.0-137.0", "trial": 5, "time_elapsed": 863349, "serialpos": 6, "key_press": -1, "wordID": 1218, "type": "PRES_VIS", "trial_index": 191}, "uniqueid": "MTK2614:3C2NJ6JBKBOEXAGXPR5GQV9XD9MN2X", "dateTime": 1519154337947}, {"current_trial": 192, "trialdata": {"rt": -1, "trial_type": "single-stim", "word": "dust", "stimulus": "<p id=\"stim\">DUST</p>", "conditions": [24, 800, "v", 12000], "internal_node_id": "0.0-138.0", "trial": 5, "time_elapsed": 865154, "serialpos": 7, "key_press": -1, "wordID": 507, "type": "PRES_VIS", "trial_index": 192}, "uniqueid": "MTK2614:3C2NJ6JBKBOEXAGXPR5GQV9XD9MN2X", "dateTime": 1519154339752}, {"current_trial": 193, "trialdata": {"rt": -1, "trial_type": "single-stim", "word": "eyelash", "stimulus": "<p id=\"stim\">EYELASH</p>", "conditions": [24, 800, "v", 12000], "internal_node_id": "0.0-139.0", "trial": 5, "time_elapsed": 866823, "serialpos": 8, "key_press": -1, "wordID": 545, "type": "PRES_VIS", "trial_index": 193}, "uniqueid": "MTK2614:3C2NJ6JBKBOEXAGXPR5GQV9XD9MN2X", "dateTime": 1519154341421}, {"current_trial": 194, "trialdata": {"rt": -1, "trial_type": "single-stim", "word": "catcher", "stimulus": "<p id=\"stim\">CATCHER</p>", "conditions": [24, 800, "v", 12000], "internal_node_id": "0.0-140.0", "trial": 5, "time_elapsed": 868492, "serialpos": 9, "key_press": -1, "wordID": 257, "type": "PRES_VIS", "trial_index": 194}, "uniqueid": "MTK2614:3C2NJ6JBKBOEXAGXPR5GQV9XD9MN2X", "dateTime": 1519154343091}, {"current_trial": 195, "trialdata": {"rt": -1, "trial_type": "single-stim", "word": "lizard", "stimulus": "<p id=\"stim\">LIZARD</p>", "conditions": [24, 800, "v", 12000], "internal_node_id": "0.0-141.0", "trial": 5, "time_elapsed": 870324, "serialpos": 10, "key_press": -1, "wordID": 833, "type": "PRES_VIS", "trial_index": 195}, "uniqueid": "MTK2614:3C2NJ6JBKBOEXAGXPR5GQV9XD9MN2X", "dateTime": 1519154344922}, {"current_trial": 196, "trialdata": {"rt": -1, "trial_type": "single-stim", "word": "husband", "stimulus": "<p id=\"stim\">HUSBAND</p>", "conditions": [24, 800, "v", 12000], "internal_node_id": "0.0-142.0", "trial": 5, "time_elapsed": 872095, "serialpos": 11, "key_press": -1, "wordID": 727, "type": "PRES_VIS", "trial_index": 196}, "uniqueid": "MTK2614:3C2NJ6JBKBOEXAGXPR5GQV9XD9MN2X", "dateTime": 1519154346693}, {"current_trial": 197, "trialdata": {"rt": -1, "trial_type": "single-stim", "word": "globe", "stimulus": "<p id=\"stim\">GLOBE</p>", "conditions": [24, 800, "v", 12000], "internal_node_id": "0.0-143.0", "trial": 5, "time_elapsed": 874017, "serialpos": 12, "key_press": -1, "wordID": 640, "type": "PRES_VIS", "trial_index": 197}, "uniqueid": "MTK2614:3C2NJ6JBKBOEXAGXPR5GQV9XD9MN2X", "dateTime": 1519154348615}, {"current_trial": 198, "trialdata": {"rt": -1, "trial_type": "single-stim", "word": "agent", "stimulus": "<p id=\"stim\">AGENT</p>", "conditions": [24, 800, "v", 12000], "internal_node_id": "0.0-144.0", "trial": 5, "time_elapsed": 876004, "serialpos": 13, "key_press": -1, "wordID": 9, "type": "PRES_VIS", "trial_index": 198}, "uniqueid": "MTK2614:3C2NJ6JBKBOEXAGXPR5GQV9XD9MN2X", "dateTime": 1519154350602}, {"current_trial": 199, "trialdata": {"rt": -1, "trial_type": "single-stim", "word": "badge", "stimulus": "<p id=\"stim\">BADGE</p>", "conditions": [24, 800, "v", 12000], "internal_node_id": "0.0-145.0", "trial": 5, "time_elapsed": 877970, "serialpos": 14, "key_press": -1, "wordID": 67, "type": "PRES_VIS", "trial_index": 199}, "uniqueid": "MTK2614:3C2NJ6JBKBOEXAGXPR5GQV9XD9MN2X", "dateTime": 1519154352568}, {"current_trial": 200, "trialdata": {"rt": -1, "trial_type": "single-stim", "word": "kitchen", "stimulus": "<p id=\"stim\">KITCHEN</p>", "conditions": [24, 800, "v", 12000], "internal_node_id": "0.0-146.0", "trial": 5, "time_elapsed": 879604, "serialpos": 15, "key_press": -1, "wordID": 777, "type": "PRES_VIS", "trial_index": 200}, "uniqueid": "MTK2614:3C2NJ6JBKBOEXAGXPR5GQV9XD9MN2X", "dateTime": 1519154354202}, {"current_trial": 201, "trialdata": {"rt": -1, "trial_type": "single-stim", "word": "lake", "stimulus": "<p id=\"stim\">LAKE</p>", "conditions": [24, 800, "v", 12000], "internal_node_id": "0.0-147.0", "trial": 5, "time_elapsed": 881565, "serialpos": 16, "key_press": -1, "wordID": 795, "type": "PRES_VIS", "trial_index": 201}, "uniqueid": "MTK2614:3C2NJ6JBKBOEXAGXPR5GQV9XD9MN2X", "dateTime": 1519154356163}, {"current_trial": 202, "trialdata": {"rt": -1, "trial_type": "single-stim", "word": "lagoon", "stimulus": "<p id=\"stim\">LAGOON</p>", "conditions": [24, 800, "v", 12000], "internal_node_id": "0.0-148.0", "trial": 5, "time_elapsed": 883254, "serialpos": 17, "key_press": -1, "wordID": 794, "type": "PRES_VIS", "trial_index": 202}, "uniqueid": "MTK2614:3C2NJ6JBKBOEXAGXPR5GQV9XD9MN2X", "dateTime": 1519154357852}, {"current_trial": 203, "trialdata": {"rt": -1, "trial_type": "single-stim", "word": "atom", "stimulus": "<p id=\"stim\">ATOM</p>", "conditions": [24, 800, "v", 12000], "internal_node_id": "0.0-149.0", "trial": 5, "time_elapsed": 885000, "serialpos": 18, "key_press": -1, "wordID": 54, "type": "PRES_VIS", "trial_index": 203}, "uniqueid": "MTK2614:3C2NJ6JBKBOEXAGXPR5GQV9XD9MN2X", "dateTime": 1519154359599}, {"current_trial": 204, "trialdata": {"rt": -1, "trial_type": "single-stim", "word": "sticker", "stimulus": "<p id=\"stim\">STICKER</p>", "conditions": [24, 800, "v", 12000], "internal_node_id": "0.0-150.0", "trial": 5, "time_elapsed": 886725, "serialpos": 19, "key_press": -1, "wordID": 1381, "type": "PRES_VIS", "trial_index": 204}, "uniqueid": "MTK2614:3C2NJ6JBKBOEXAGXPR5GQV9XD9MN2X", "dateTime": 1519154361324}, {"current_trial": 205, "trialdata": {"rt": -1, "trial_type": "single-stim", "word": "mummy", "stimulus": "<p id=\"stim\">MUMMY</p>", "conditions": [24, 800, "v", 12000], "internal_node_id": "0.0-151.0", "trial": 5, "time_elapsed": 888479, "serialpos": 20, "key_press": -1, "wordID": 931, "type": "PRES_VIS", "trial_index": 205}, "uniqueid": "MTK2614:3C2NJ6JBKBOEXAGXPR5GQV9XD9MN2X", "dateTime": 1519154363077}, {"current_trial": 206, "trialdata": {"rt": -1, "trial_type": "single-stim", "word": "hero", "stimulus": "<p id=\"stim\">HERO</p>", "conditions": [24, 800, "v", 12000], "internal_node_id": "0.0-152.0", "trial": 5, "time_elapsed": 890289, "serialpos": 21, "key_press": -1, "wordID": 705, "type": "PRES_VIS", "trial_index": 206}, "uniqueid": "MTK2614:3C2NJ6JBKBOEXAGXPR5GQV9XD9MN2X", "dateTime": 1519154364887}, {"current_trial": 207, "trialdata": {"rt": -1, "trial_type": "single-stim", "word": "relish", "stimulus": "<p id=\"stim\">RELISH</p>", "conditions": [24, 800, "v", 12000], "internal_node_id": "0.0-153.0", "trial": 5, "time_elapsed": 892004, "serialpos": 22, "key_press": -1, "wordID": 1182, "type": "PRES_VIS", "trial_index": 207}, "uniqueid": "MTK2614:3C2NJ6JBKBOEXAGXPR5GQV9XD9MN2X", "dateTime": 1519154366602}, {"current_trial": 208, "trialdata": {"rt": -1, "trial_type": "single-stim", "word": "penguin", "stimulus": "<p id=\"stim\">PENGUIN</p>", "conditions": [24, 800, "v", 12000], "internal_node_id": "0.0-154.0", "trial": 5, "time_elapsed": 893947, "serialpos": 23, "key_press": -1, "wordID": 1043, "type": "PRES_VIS", "trial_index": 208}, "uniqueid": "MTK2614:3C2NJ6JBKBOEXAGXPR5GQV9XD9MN2X", "dateTime": 1519154368545}, {"current_trial": 209, "trialdata": {"rt": -1, "trial_type": "single-stim", "stimulus": "", "internal_node_id": "0.0-155.0-0.0", "time_elapsed": 896312, "key_press": -1, "type": "PRE_RECALL_DELAY", "trial_index": 209}, "uniqueid": "MTK2614:3C2NJ6JBKBOEXAGXPR5GQV9XD9MN2X", "dateTime": 1519154370910}, {"current_trial": 210, "trialdata": {"rt": -1000, "trial_type": "single-audio", "stimulus": "/static/audio/400Hz.wav", "internal_node_id": "0.0-156.0", "time_elapsed": 896814, "key_press": -1, "type": "PRE_RECALL_ALERT", "trial_index": 210}, "uniqueid": "MTK2614:3C2NJ6JBKBOEXAGXPR5GQV9XD9MN2X", "dateTime": 1519154371413}, {"current_trial": 211, "trialdata": {"rt": [3184, 4730, 7321, 10209, 27486, 37573], "recwords": ["sticker", "mummy", "penguin", "kitchen", "headband", "lake"], "key_times": [1671, 1837, 1986, 2191, 2299, 2518, 2755, 3184, 3429, 3736, 3948, 4083, 4340, 4730, 5092, 5240, 5333, 5492, 5699, 5896, 6044, 7321, 7573, 7791, 7891, 8170, 8336, 9561, 9648, 10209, 26179, 26358, 26459, 26648, 26930, 27026, 27268, 27355, 27486, 36960, 37065, 37166, 37263, 37573], "trial_type": "free-recall", "conditions": [24, 800, "v", 12000], "internal_node_id": "0.0-157.0-0.0", "key_presses": [83, 84, 73, 67, 75, 69, 82, 13, 77, 85, 77, 77, 89, 13, 80, 69, 78, 71, 85, 73, 78, 13, 75, 73, 84, 67, 72, 69, 78, 13, 72, 69, 65, 68, 66, 65, 78, 68, 13, 76, 65, 75, 69, 13], "trial": 5, "time_elapsed": 956823, "type": "FREE_RECALL", "trial_index": 211}, "uniqueid": "MTK2614:3C2NJ6JBKBOEXAGXPR5GQV9XD9MN2X", "dateTime": 1519154431424}, {"current_trial": 212, "trialdata": {"rt": 1618, "trial_type": "text", "internal_node_id": "0.0-158.0", "time_elapsed": 960446, "key_press": 13, "type": "INSTRUCTIONS", "trial_index": 212}, "uniqueid": "MTK2614:3C2NJ6JBKBOEXAGXPR5GQV9XD9MN2X", "dateTime": 1519154435044}, {"current_trial": 213, "trialdata": {"rt": [3262, 5366, 7800, 9990, 11379], "trial_type": "math-distractor", "key_times": [2897, 2973, 3262, 5052, 5154, 5366, 7268, 7384, 7800, 9570, 9723, 9990, 10984, 11129, 11379], "responses": ["16", "15", "16", "16", "15"], "num2": [7, 3, 9, 9, 1, 6], "num3": [4, 4, 5, 1, 5, 4], "conditions": [12, 1600, "v", 12000], "internal_node_id": "0.0-159.0", "key_presses": [97, 102, 13, 97, 101, 13, 97, 102, 13, 97, 102, 13, 97, 101, 13], "trial": 6, "time_elapsed": 974453, "type": "DISTRACTOR", "trial_index": 213, "num1": [5, 8, 2, 6, 9, 2]}, "uniqueid": "MTK2614:3C2NJ6JBKBOEXAGXPR5GQV9XD9MN2X", "dateTime": 1519154449051}, {"current_trial": 214, "trialdata": {"rt": -1, "trial_type": "single-stim", "stimulus": "<p id=\"stim\">10</p>", "internal_node_id": "0.0-160.0-0.0", "time_elapsed": 977456, "key_press": -1, "trial_index": 214}, "uniqueid": "MTK2614:3C2NJ6JBKBOEXAGXPR5GQV9XD9MN2X", "dateTime": 1519154452054}, {"current_trial": 215, "trialdata": {"rt": -1, "trial_type": "single-stim", "stimulus": "<p id=\"stim\">9</p>", "internal_node_id": "0.0-160.0-1.0", "time_elapsed": 978457, "key_press": -1, "trial_index": 215}, "uniqueid": "MTK2614:3C2NJ6JBKBOEXAGXPR5GQV9XD9MN2X", "dateTime": 1519154453055}, {"current_trial": 216, "trialdata": {"rt": -1, "trial_type": "single-stim", "stimulus": "<p id=\"stim\">8</p>", "internal_node_id": "0.0-160.0-2.0", "time_elapsed": 979458, "key_press": -1, "trial_index": 216}, "uniqueid": "MTK2614:3C2NJ6JBKBOEXAGXPR5GQV9XD9MN2X", "dateTime": 1519154454057}, {"current_trial": 217, "trialdata": {"rt": -1, "trial_type": "single-stim", "stimulus": "<p id=\"stim\">7</p>", "internal_node_id": "0.0-160.0-3.0", "time_elapsed": 980460, "key_press": -1, "trial_index": 217}, "uniqueid": "MTK2614:3C2NJ6JBKBOEXAGXPR5GQV9XD9MN2X", "dateTime": 1519154455059}, {"current_trial": 218, "trialdata": {"rt": -1, "trial_type": "single-stim", "stimulus": "<p id=\"stim\">6</p>", "internal_node_id": "0.0-160.0-4.0", "time_elapsed": 981461, "key_press": -1, "trial_index": 218}, "uniqueid": "MTK2614:3C2NJ6JBKBOEXAGXPR5GQV9XD9MN2X", "dateTime": 1519154456060}, {"current_trial": 219, "trialdata": {"rt": -1, "trial_type": "single-stim", "stimulus": "<p id=\"stim\">5</p>", "internal_node_id": "0.0-160.0-5.0", "time_elapsed": 982463, "key_press": -1, "trial_index": 219}, "uniqueid": "MTK2614:3C2NJ6JBKBOEXAGXPR5GQV9XD9MN2X", "dateTime": 1519154457061}, {"current_trial": 220, "trialdata": {"rt": -1, "trial_type": "single-stim", "stimulus": "<p id=\"stim\">4</p>", "internal_node_id": "0.0-160.0-6.0", "time_elapsed": 983465, "key_press": -1, "trial_index": 220}, "uniqueid": "MTK2614:3C2NJ6JBKBOEXAGXPR5GQV9XD9MN2X", "dateTime": 1519154458063}, {"current_trial": 221, "trialdata": {"rt": -1, "trial_type": "single-stim", "stimulus": "<p id=\"stim\">3</p>", "internal_node_id": "0.0-160.0-7.0", "time_elapsed": 984466, "key_press": -1, "trial_index": 221}, "uniqueid": "MTK2614:3C2NJ6JBKBOEXAGXPR5GQV9XD9MN2X", "dateTime": 1519154459064}, {"current_trial": 222, "trialdata": {"rt": -1, "trial_type": "single-stim", "stimulus": "<p id=\"stim\">2</p>", "internal_node_id": "0.0-160.0-8.0", "time_elapsed": 985467, "key_press": -1, "trial_index": 222}, "uniqueid": "MTK2614:3C2NJ6JBKBOEXAGXPR5GQV9XD9MN2X", "dateTime": 1519154460066}, {"current_trial": 223, "trialdata": {"rt": -1, "trial_type": "single-stim", "stimulus": "<p id=\"stim\">1</p>", "internal_node_id": "0.0-160.0-9.0", "time_elapsed": 986468, "key_press": -1, "trial_index": 223}, "uniqueid": "MTK2614:3C2NJ6JBKBOEXAGXPR5GQV9XD9MN2X", "dateTime": 1519154461067}, {"current_trial": 224, "trialdata": {"rt": -1, "trial_type": "single-stim", "stimulus": "<p id=\"stim\">+</p>", "internal_node_id": "0.0-161.0-0.0", "time_elapsed": 987970, "key_press": -1, "type": "FIXATION", "trial_index": 224}, "uniqueid": "MTK2614:3C2NJ6JBKBOEXAGXPR5GQV9XD9MN2X", "dateTime": 1519154462568}, {"current_trial": 225, "trialdata": {"rt": -1, "trial_type": "single-stim", "word": "bunny", "stimulus": "<p id=\"stim\">BUNNY</p>", "conditions": [12, 1600, "v", 12000], "internal_node_id": "0.0-162.0", "trial": 6, "time_elapsed": 989571, "serialpos": 0, "key_press": -1, "wordID": 197, "type": "PRES_VIS", "trial_index": 225}, "uniqueid": "MTK2614:3C2NJ6JBKBOEXAGXPR5GQV9XD9MN2X", "dateTime": 1519154464169}, {"current_trial": 226, "trialdata": {"rt": -1, "trial_type": "single-stim", "word": "basement", "stimulus": "<p id=\"stim\">BASEMENT</p>", "conditions": [12, 1600, "v", 12000], "internal_node_id": "0.0-163.0", "trial": 6, "time_elapsed": 992341, "serialpos": 1, "key_press": -1, "wordID": 93, "type": "PRES_VIS", "trial_index": 226}, "uniqueid": "MTK2614:3C2NJ6JBKBOEXAGXPR5GQV9XD9MN2X", "dateTime": 1519154466939}, {"current_trial": 227, "trialdata": {"rt": -1, "trial_type": "single-stim", "word": "cellar", "stimulus": "<p id=\"stim\">CELLAR</p>", "conditions": [12, 1600, "v", 12000], "internal_node_id": "0.0-164.0", "trial": 6, "time_elapsed": 994920, "serialpos": 2, "key_press": -1, "wordID": 266, "type": "PRES_VIS", "trial_index": 227}, "uniqueid": "MTK2614:3C2NJ6JBKBOEXAGXPR5GQV9XD9MN2X", "dateTime": 1519154469518}, {"current_trial": 228, "trialdata": {"rt": -1, "trial_type": "single-stim", "word": "space", "stimulus": "<p id=\"stim\">SPACE</p>", "conditions": [12, 1600, "v", 12000], "internal_node_id": "0.0-165.0", "trial": 6, "time_elapsed": 997599, "serialpos": 3, "key_press": -1, "wordID": 1344, "type": "PRES_VIS", "trial_index": 228}, "uniqueid": "MTK2614:3C2NJ6JBKBOEXAGXPR5GQV9XD9MN2X", "dateTime": 1519154472197}, {"current_trial": 229, "trialdata": {"rt": -1, "trial_type": "single-stim", "word": "proton", "stimulus": "<p id=\"stim\">PROTON</p>", "conditions": [12, 1600, "v", 12000], "internal_node_id": "0.0-166.0", "trial": 6, "time_elapsed": 1000282, "serialpos": 4, "key_press": -1, "wordID": 1131, "type": "PRES_VIS", "trial_index": 229}, "uniqueid": "MTK2614:3C2NJ6JBKBOEXAGXPR5GQV9XD9MN2X", "dateTime": 1519154474880}, {"current_trial": 230, "trialdata": {"rt": -1, "trial_type": "single-stim", "word": "lettuce", "stimulus": "<p id=\"stim\">LETTUCE</p>", "conditions": [12, 1600, "v", 12000], "internal_node_id": "0.0-167.0", "trial": 6, "time_elapsed": 1002829, "serialpos": 5, "key_press": -1, "wordID": 813, "type": "PRES_VIS", "trial_index": 230}, "uniqueid": "MTK2614:3C2NJ6JBKBOEXAGXPR5GQV9XD9MN2X", "dateTime": 1519154477427}, {"current_trial": 231, "trialdata": {"rt": -1, "trial_type": "single-stim", "word": "chipmunk", "stimulus": "<p id=\"stim\">CHIPMUNK</p>", "conditions": [12, 1600, "v", 12000], "internal_node_id": "0.0-168.0", "trial": 6, "time_elapsed": 1005599, "serialpos": 6, "key_press": -1, "wordID": 303, "type": "PRES_VIS", "trial_index": 231}, "uniqueid": "MTK2614:3C2NJ6JBKBOEXAGXPR5GQV9XD9MN2X", "dateTime": 1519154480197}, {"current_trial": 232, "trialdata": {"rt": -1, "trial_type": "single-stim", "word": "inmate", "stimulus": "<p id=\"stim\">INMATE</p>", "conditions": [12, 1600, "v", 12000], "internal_node_id": "0.0-169.0", "trial": 6, "time_elapsed": 1008130, "serialpos": 7, "key_press": -1, "wordID": 737, "type": "PRES_VIS", "trial_index": 232}, "uniqueid": "MTK2614:3C2NJ6JBKBOEXAGXPR5GQV9XD9MN2X", "dateTime": 1519154482728}, {"current_trial": 233, "trialdata": {"rt": -1, "trial_type": "single-stim", "word": "postage", "stimulus": "<p id=\"stim\">POSTAGE</p>", "conditions": [12, 1600, "v", 12000], "internal_node_id": "0.0-170.0", "trial": 6, "time_elapsed": 1010900, "serialpos": 8, "key_press": -1, "wordID": 1112, "type": "PRES_VIS", "trial_index": 233}, "uniqueid": "MTK2614:3C2NJ6JBKBOEXAGXPR5GQV9XD9MN2X", "dateTime": 1519154485498}, {"current_trial": 234, "trialdata": {"rt": -1, "trial_type": "single-stim", "word": "sister", "stimulus": "<p id=\"stim\">SISTER</p>", "conditions": [12, 1600, "v", 12000], "internal_node_id": "0.0-171.0", "trial": 6, "time_elapsed": 1013375, "serialpos": 9, "key_press": -1, "wordID": 1311, "type": "PRES_VIS", "trial_index": 234}, "uniqueid": "MTK2614:3C2NJ6JBKBOEXAGXPR5GQV9XD9MN2X", "dateTime": 1519154487973}, {"current_trial": 235, "trialdata": {"rt": -1, "trial_type": "single-stim", "word": "cashier", "stimulus": "<p id=\"stim\">CASHIER</p>", "conditions": [12, 1600, "v", 12000], "internal_node_id": "0.0-172.0", "trial": 6, "time_elapsed": 1015880, "serialpos": 10, "key_press": -1, "wordID": 253, "type": "PRES_VIS", "trial_index": 235}, "uniqueid": "MTK2614:3C2NJ6JBKBOEXAGXPR5GQV9XD9MN2X", "dateTime": 1519154490479}, {"current_trial": 236, "trialdata": {"rt": -1, "trial_type": "single-stim", "word": "child", "stimulus": "<p id=\"stim\">CHILD</p>", "conditions": [12, 1600, "v", 12000], "internal_node_id": "0.0-173.0", "trial": 6, "time_elapsed": 1018311, "serialpos": 11, "key_press": -1, "wordID": 298, "type": "PRES_VIS", "trial_index": 236}, "uniqueid": "MTK2614:3C2NJ6JBKBOEXAGXPR5GQV9XD9MN2X", "dateTime": 1519154492909}, {"current_trial": 237, "trialdata": {"rt": -1, "trial_type": "single-stim", "stimulus": "", "internal_node_id": "0.0-174.0-0.0", "time_elapsed": 1020421, "key_press": -1, "type": "PRE_RECALL_DELAY", "trial_index": 237}, "uniqueid": "MTK2614:3C2NJ6JBKBOEXAGXPR5GQV9XD9MN2X", "dateTime": 1519154495019}, {"current_trial": 238, "trialdata": {"rt": -1000, "trial_type": "single-audio", "stimulus": "/static/audio/400Hz.wav", "internal_node_id": "0.0-175.0", "time_elapsed": 1020921, "key_press": -1, "type": "PRE_RECALL_ALERT", "trial_index": 238}, "uniqueid": "MTK2614:3C2NJ6JBKBOEXAGXPR5GQV9XD9MN2X", "dateTime": 1519154495520}, {"current_trial": 239, "trialdata": {"rt": [3929, 6540, 8991, 30987, 32592, 34614, 36363, 51131], "recwords": ["sister", "cashier", "child", "basement", "cellar", "space", "proton", "bunny"], "key_times": [2034, 2219, 2613, 2830, 2930, 3191, 3507, 3593, 3929, 4211, 4495, 4698, 4809, 5114, 5462, 5676, 5842, 5891, 6540, 6887, 6978, 7885, 7967, 8595, 8991, 29598, 29789, 30011, 30117, 30405, 30546, 30699, 30799, 30987, 31507, 31802, 31923, 32084, 32185, 32267, 32592, 32798, 33012, 33322, 33546, 33644, 33893, 34155, 34614, 34979, 35364, 35475, 35588, 35681, 35758, 36363, 49316, 49479, 49741, 49856, 50216, 51131, 51798, 51918, 52173, 52564, 52725, 52866], "trial_type": "free-recall", "conditions": [12, 1600, "v", 12000], "internal_node_id": "0.0-176.0-0.0", "key_presses": [83, 83, 8, 73, 83, 84, 69, 82, 13, 67, 65, 83, 72, 69, 8, 73, 69, 82, 13, 67, 72, 73, 76, 68, 13, 66, 65, 83, 69, 77, 69, 78, 84, 13, 67, 69, 76, 76, 65, 82, 13, 83, 65, 8, 80, 65, 67, 69, 13, 80, 82, 79, 84, 79, 78, 13, 66, 85, 78, 78, 89, 13, 66, 65, 83, 8, 8, 8], "trial": 6, "time_elapsed": 1080926, "type": "FREE_RECALL", "trial_index": 239}, "uniqueid": "MTK2614:3C2NJ6JBKBOEXAGXPR5GQV9XD9MN2X", "dateTime": 1519154555530}, {"current_trial": 240, "trialdata": {"rt": 1882, "trial_type": "text", "internal_node_id": "0.0-177.0", "time_elapsed": 1084815, "key_press": 13, "type": "INSTRUCTIONS", "trial_index": 240}, "uniqueid": "MTK2614:3C2NJ6JBKBOEXAGXPR5GQV9XD9MN2X", "dateTime": 1519154559413}, {"current_trial": 241, "trialdata": {"rt": [2461, 5085, 8304, 10085, 12192, 14611, 16061, 23937], "trial_type": "math-distractor", "key_times": [2195, 2269, 2461, 4134, 4725, 5085, 7788, 7971, 8304, 9580, 9755, 10085, 11804, 11905, 12192, 14320, 14394, 14611, 15795, 16061, 21945, 22093, 23937], "responses": ["21", "19", "17", "19", "20", "20", "7", "11"], "num2": [9, 7, 8, 1, 6, 5, 5, 3, 2], "num3": [8, 4, 3, 9, 6, 7, 1, 7, 2], "conditions": [12, 1600, "v", 24000], "internal_node_id": "0.0-178.0", "key_presses": [98, 97, 13, 97, 105, 13, 97, 103, 13, 97, 105, 13, 98, 96, 13, 98, 96, 13, 103, 13, 97, 97, 13], "trial": 7, "time_elapsed": 1110822, "type": "DISTRACTOR", "trial_index": 241, "num1": [4, 8, 6, 9, 8, 8, 1, 1, 6]}, "uniqueid": "MTK2614:3C2NJ6JBKBOEXAGXPR5GQV9XD9MN2X", "dateTime": 1519154585420}, {"current_trial": 242, "trialdata": {"rt": -1, "trial_type": "single-stim", "stimulus": "<p id=\"stim\">10</p>", "internal_node_id": "0.0-179.0-0.0", "time_elapsed": 1113824, "key_press": -1, "trial_index": 242}, "uniqueid": "MTK2614:3C2NJ6JBKBOEXAGXPR5GQV9XD9MN2X", "dateTime": 1519154588422}, {"current_trial": 243, "trialdata": {"rt": -1, "trial_type": "single-stim", "stimulus": "<p id=\"stim\">9</p>", "internal_node_id": "0.0-179.0-1.0", "time_elapsed": 1114825, "key_press": -1, "trial_index": 243}, "uniqueid": "MTK2614:3C2NJ6JBKBOEXAGXPR5GQV9XD9MN2X", "dateTime": 1519154589423}, {"current_trial": 244, "trialdata": {"rt": -1, "trial_type": "single-stim", "stimulus": "<p id=\"stim\">8</p>", "internal_node_id": "0.0-179.0-2.0", "time_elapsed": 1115826, "key_press": -1, "trial_index": 244}, "uniqueid": "MTK2614:3C2NJ6JBKBOEXAGXPR5GQV9XD9MN2X", "dateTime": 1519154590424}, {"current_trial": 245, "trialdata": {"rt": -1, "trial_type": "single-stim", "stimulus": "<p id=\"stim\">7</p>", "internal_node_id": "0.0-179.0-3.0", "time_elapsed": 1116828, "key_press": -1, "trial_index": 245}, "uniqueid": "MTK2614:3C2NJ6JBKBOEXAGXPR5GQV9XD9MN2X", "dateTime": 1519154591426}, {"current_trial": 246, "trialdata": {"rt": -1, "trial_type": "single-stim", "stimulus": "<p id=\"stim\">6</p>", "internal_node_id": "0.0-179.0-4.0", "time_elapsed": 1117830, "key_press": -1, "trial_index": 246}, "uniqueid": "MTK2614:3C2NJ6JBKBOEXAGXPR5GQV9XD9MN2X", "dateTime": 1519154592428}, {"current_trial": 247, "trialdata": {"rt": -1, "trial_type": "single-stim", "stimulus": "<p id=\"stim\">5</p>", "internal_node_id": "0.0-179.0-5.0", "time_elapsed": 1118830, "key_press": -1, "trial_index": 247}, "uniqueid": "MTK2614:3C2NJ6JBKBOEXAGXPR5GQV9XD9MN2X", "dateTime": 1519154593428}, {"current_trial": 248, "trialdata": {"rt": -1, "trial_type": "single-stim", "stimulus": "<p id=\"stim\">4</p>", "internal_node_id": "0.0-179.0-6.0", "time_elapsed": 1119831, "key_press": -1, "trial_index": 248}, "uniqueid": "MTK2614:3C2NJ6JBKBOEXAGXPR5GQV9XD9MN2X", "dateTime": 1519154594430}, {"current_trial": 249, "trialdata": {"rt": -1, "trial_type": "single-stim", "stimulus": "<p id=\"stim\">3</p>", "internal_node_id": "0.0-179.0-7.0", "time_elapsed": 1120833, "key_press": -1, "trial_index": 249}, "uniqueid": "MTK2614:3C2NJ6JBKBOEXAGXPR5GQV9XD9MN2X", "dateTime": 1519154595431}, {"current_trial": 250, "trialdata": {"rt": -1, "trial_type": "single-stim", "stimulus": "<p id=\"stim\">2</p>", "internal_node_id": "0.0-179.0-8.0", "time_elapsed": 1121834, "key_press": -1, "trial_index": 250}, "uniqueid": "MTK2614:3C2NJ6JBKBOEXAGXPR5GQV9XD9MN2X", "dateTime": 1519154596432}, {"current_trial": 251, "trialdata": {"rt": -1, "trial_type": "single-stim", "stimulus": "<p id=\"stim\">1</p>", "internal_node_id": "0.0-179.0-9.0", "time_elapsed": 1122834, "key_press": -1, "trial_index": 251}, "uniqueid": "MTK2614:3C2NJ6JBKBOEXAGXPR5GQV9XD9MN2X", "dateTime": 1519154597433}, {"current_trial": 252, "trialdata": {"rt": -1, "trial_type": "single-stim", "stimulus": "<p id=\"stim\">+</p>", "internal_node_id": "0.0-180.0-0.0", "time_elapsed": 1124336, "key_press": -1, "type": "FIXATION", "trial_index": 252}, "uniqueid": "MTK2614:3C2NJ6JBKBOEXAGXPR5GQV9XD9MN2X", "dateTime":