{"assignmentId": "3B1NLC6UG034FP0H4L3XWO8TLQAGPN", "workerId": "MTK2023", "questiondata": {"origin": "United States", "strat-rehearsal": "0", "marital": "Divorced", "education": "Some graduate education", "ethnicity": "Not Hispanic", "color_depth": 24, "distracted": "No", "wrote-notes": "No", "strat-other": "", "screen_width": 1366, "avail_screen_width": 1366, "avail_screen_height": 728, "strat-image": "100", "language": "English", "gender": "Female", "age": "63", "gender_other": "", "race": ["White"], "strat-categorize": "100", "pixel_depth": 24, "strat-spatial": "0", "strat-story": "0", "race_other": "", "screen_height": 768}, "bonus": 0, "hitId": "3VLL1PIENQVKYMLRPB953BNP4ZDOZR", "counterbalance": 918, "useragent": "Mozilla/5.0 (Windows NT 10.0; Win64; x64) AppleWebKit/537.36 (KHTML, like Gecko) Chrome/63.0.3239.132 Safari/537.36", "eventdata": [{"eventtype": "initialized", "interval": 0, "value": null, "timestamp": 1516648534482}, {"eventtype": "window_resize", "interval": 0, "value": [1366, 721], "timestamp": 1516648534482}, {"eventtype": "focus", "interval": 101866, "value": "off", "timestamp": 1516648636348}, {"eventtype": "focus", "interval": 3795, "value": "on", "timestamp": 1516648640143}, {"eventtype": "focus", "interval": 1259815, "value": "off", "timestamp": 1516649899958}, {"eventtype": "focus", "interval": 37093, "value": "on", "timestamp": 1516649937051}, {"eventtype": "focus", "interval": 857552, "value": "off", "timestamp": 1516650794603}, {"eventtype": "focus", "interval": 70822, "value": "on", "timestamp": 1516650865425}, {"eventtype": "focus", "interval": 141698, "value": "off", "timestamp": 1516651007123}, {"eventtype": "focus", "interval": 8121, "value": "on", "timestamp": 1516651015244}, {"eventtype": "focus", "interval": 369286, "value": "off", "timestamp": 1516651384530}, {"eventtype": "focus", "interval": 40337, "value": "on", "timestamp": 1516651424867}], "data": [{"current_trial": 0, "trialdata": {"rt": 3004, "trial_type": "text", "internal_node_id": "0.0-0.0", "time_elapsed": 3007, "key_press": 32, "type": "INSTRUCTIONS", "trial_index": 0}, "uniqueid": "MTK2023:3B1NLC6UG034FP0H4L3XWO8TLQAGPN", "dateTime": 1516648562859}, {"current_trial": 1, "trialdata": {"rt": 20590, "trial_type": "text", "internal_node_id": "0.0-1.0", "time_elapsed": 23599, "key_press": 32, "type": "INSTRUCTIONS", "trial_index": 1}, "uniqueid": "MTK2023:3B1NLC6UG034FP0H4L3XWO8TLQAGPN", "dateTime": 1516648583451}, {"current_trial": 2, "trialdata": {"rt": [20878], "trial_type": "audio-test", "responses": ["ocean"], "internal_node_id": "0.0-2.0", "time_elapsed": 44489, "type": "AUDIO_TEST", "trial_index": 2}, "uniqueid": "MTK2023:3B1NLC6UG034FP0H4L3XWO8TLQAGPN", "dateTime": 1516648604342}, {"current_trial": 3, "trialdata": {"rt": [11433], "trial_type": "audio-test", "responses": ["crystal"], "internal_node_id": "0.0-3.0", "time_elapsed": 55927, "type": "AUDIO_TEST", "trial_index": 3}, "uniqueid": "MTK2023:3B1NLC6UG034FP0H4L3XWO8TLQAGPN", "dateTime": 1516648615780}, {"current_trial": 4, "trialdata": {"rt": [13879], "trial_type": "audio-test", "responses": ["spice"], "internal_node_id": "0.0-4.0", "time_elapsed": 69811, "type": "AUDIO_TEST", "trial_index": 4}, "uniqueid": "MTK2023:3B1NLC6UG034FP0H4L3XWO8TLQAGPN", "dateTime": 1516648629664}, {"current_trial": 5, "trialdata": {"rt": 55767, "trial_type": "survey-text", "responses": "{\"Q0\":\"11:00pm\",\"Q1\":\"8:00 am\",\"Q2\":\"5\"}", "internal_node_id": "0.0-5.0", "time_elapsed": 126331, "type": "SLEEP_SURVEY", "trial_index": 5}, "uniqueid": "MTK2023:3B1NLC6UG034FP0H4L3XWO8TLQAGPN", "dateTime": 1516648686183}, {"current_trial": 6, "trialdata": {"rt": 57854, "trial_type": "text", "internal_node_id": "0.0-6.0", "time_elapsed": 185187, "key_press": 13, "type": "INSTRUCTIONS", "trial_index": 6}, "uniqueid": "MTK2023:3B1NLC6UG034FP0H4L3XWO8TLQAGPN", "dateTime": 1516648745039}, {"current_trial": 7, "trialdata": {"rt": 31133, "trial_type": "text", "internal_node_id": "0.0-7.0", "time_elapsed": 216821, "key_press": 32, "type": "INSTRUCTIONS", "trial_index": 7}, "uniqueid": "MTK2023:3B1NLC6UG034FP0H4L3XWO8TLQAGPN", "dateTime": 1516648776673}, {"current_trial": 8, "trialdata": {"rt": 13518, "trial_type": "text", "internal_node_id": "0.0-8.0", "time_elapsed": 230841, "key_press": 32, "type": "INSTRUCTIONS", "trial_index": 8}, "uniqueid": "MTK2023:3B1NLC6UG034FP0H4L3XWO8TLQAGPN", "dateTime": 1516648790693}, {"current_trial": 9, "trialdata": {"rt": [11191, 15420], "trial_type": "math-distractor", "key_times": [9767, 10164, 11191, 14544, 14715, 15420], "responses": ["16", "11"], "num2": [8, 6, 7], "num3": [6, 2, 5], "conditions": [18, 1200, "a", 18000], "internal_node_id": "0.0-9.0", "key_presses": [97, 102, 13, 97, 97, 13], "trial": 0, "time_elapsed": 249846, "type": "DISTRACTOR", "trial_index": 9, "num1": [2, 3, 9]}, "uniqueid": "MTK2023:3B1NLC6UG034FP0H4L3XWO8TLQAGPN", "dateTime": 1516648809698}, {"current_trial": 10, "trialdata": {"rt": -1, "trial_type": "single-stim", "stimulus": "<p id=\"stim\">10</p>", "internal_node_id": "0.0-10.0-0.0", "time_elapsed": 252848, "key_press": -1, "trial_index": 10}, "uniqueid": "MTK2023:3B1NLC6UG034FP0H4L3XWO8TLQAGPN", "dateTime": 1516648812701}, {"current_trial": 11, "trialdata": {"rt": -1, "trial_type": "single-stim", "stimulus": "<p id=\"stim\">9</p>", "internal_node_id": "0.0-10.0-1.0", "time_elapsed": 253849, "key_press": -1, "trial_index": 11}, "uniqueid": "MTK2023:3B1NLC6UG034FP0H4L3XWO8TLQAGPN", "dateTime": 1516648813702}, {"current_trial": 12, "trialdata": {"rt": -1, "trial_type": "single-stim", "stimulus": "<p id=\"stim\">8</p>", "internal_node_id": "0.0-10.0-2.0", "time_elapsed": 254851, "key_press": -1, "trial_index": 12}, "uniqueid": "MTK2023:3B1NLC6UG034FP0H4L3XWO8TLQAGPN", "dateTime": 1516648814703}, {"current_trial": 13, "trialdata": {"rt": -1, "trial_type": "single-stim", "stimulus": "<p id=\"stim\">7</p>", "internal_node_id": "0.0-10.0-3.0", "time_elapsed": 255852, "key_press": -1, "trial_index": 13}, "uniqueid": "MTK2023:3B1NLC6UG034FP0H4L3XWO8TLQAGPN", "dateTime": 1516648815704}, {"current_trial": 14, "trialdata": {"rt": -1, "trial_type": "single-stim", "stimulus": "<p id=\"stim\">6</p>", "internal_node_id": "0.0-10.0-4.0", "time_elapsed": 256853, "key_press": -1, "trial_index": 14}, "uniqueid": "MTK2023:3B1NLC6UG034FP0H4L3XWO8TLQAGPN", "dateTime": 1516648816705}, {"current_trial": 15, "trialdata": {"rt": -1, "trial_type": "single-stim", "stimulus": "<p id=\"stim\">5</p>", "internal_node_id": "0.0-10.0-5.0", "time_elapsed": 257856, "key_press": -1, "trial_index": 15}, "uniqueid": "MTK2023:3B1NLC6UG034FP0H4L3XWO8TLQAGPN", "dateTime": 1516648817708}, {"current_trial": 16, "trialdata": {"rt": -1, "trial_type": "single-stim", "stimulus": "<p id=\"stim\">4</p>", "internal_node_id": "0.0-10.0-6.0", "time_elapsed": 258858, "key_press": -1, "trial_index": 16}, "uniqueid": "MTK2023:3B1NLC6UG034FP0H4L3XWO8TLQAGPN", "dateTime": 1516648818710}, {"current_trial": 17, "trialdata": {"rt": -1, "trial_type": "single-stim", "stimulus": "<p id=\"stim\">3</p>", "internal_node_id": "0.0-10.0-7.0", "time_elapsed": 259859, "key_press": -1, "trial_index": 17}, "uniqueid": "MTK2023:3B1NLC6UG034FP0H4L3XWO8TLQAGPN", "dateTime": 1516648819711}, {"current_trial": 18, "trialdata": {"rt": -1, "trial_type": "single-stim", "stimulus": "<p id=\"stim\">2</p>", "internal_node_id": "0.0-10.0-8.0", "time_elapsed": 260860, "key_press": -1, "trial_index": 18}, "uniqueid": "MTK2023:3B1NLC6UG034FP0H4L3XWO8TLQAGPN", "dateTime": 1516648820712}, {"current_trial": 19, "trialdata": {"rt": -1, "trial_type": "single-stim", "stimulus": "<p id=\"stim\">1</p>", "internal_node_id": "0.0-10.0-9.0", "time_elapsed": 261861, "key_press": -1, "trial_index": 19}, "uniqueid": "MTK2023:3B1NLC6UG034FP0H4L3XWO8TLQAGPN", "dateTime": 1516648821713}, {"current_trial": 20, "trialdata": {"rt": -1, "trial_type": "single-stim", "stimulus": "<p id=\"stim\">+</p>", "internal_node_id": "0.0-11.0-0.0", "time_elapsed": 263363, "key_press": -1, "type": "FIXATION", "trial_index": 20}, "uniqueid": "MTK2023:3B1NLC6UG034FP0H4L3XWO8TLQAGPN", "dateTime": 1516648823215}, {"current_trial": 21, "trialdata": {"rt": -1000, "trial_type": "single-audio", "word": "spider", "stimulus": "/static/audio/wordpool/SPIDER.wav", "conditions": [18, 1200, "a", 18000], "internal_node_id": "0.0-12.0", "trial": 0, "time_elapsed": 265695, "serialpos": 0, "key_press": -1, "wordID": 1350, "type": "PRES_AUD", "trial_index": 21}, "uniqueid": "MTK2023:3B1NLC6UG034FP0H4L3XWO8TLQAGPN", "dateTime": 1516648825547}, {"current_trial": 22, "trialdata": {"rt": -1000, "trial_type": "single-audio", "word": "lake", "stimulus": "/static/audio/wordpool/LAKE.wav", "conditions": [18, 1200, "a", 18000], "internal_node_id": "0.0-13.0", "trial": 0, "time_elapsed": 267719, "serialpos": 1, "key_press": -1, "wordID": 795, "type": "PRES_AUD", "trial_index": 22}, "uniqueid": "MTK2023:3B1NLC6UG034FP0H4L3XWO8TLQAGPN", "dateTime": 1516648827571}, {"current_trial": 23, "trialdata": {"rt": -1000, "trial_type": "single-audio", "word": "sunrise", "stimulus": "/static/audio/wordpool/SUNRISE.wav", "conditions": [18, 1200, "a", 18000], "internal_node_id": "0.0-14.0", "trial": 0, "time_elapsed": 269985, "serialpos": 2, "key_press": -1, "wordID": 1406, "type": "PRES_AUD", "trial_index": 23}, "uniqueid": "MTK2023:3B1NLC6UG034FP0H4L3XWO8TLQAGPN", "dateTime": 1516648829837}, {"current_trial": 24, "trialdata": {"rt": -1000, "trial_type": "single-audio", "word": "worker", "stimulus": "/static/audio/wordpool/WORKER.wav", "conditions": [18, 1200, "a", 18000], "internal_node_id": "0.0-15.0", "trial": 0, "time_elapsed": 271999, "serialpos": 3, "key_press": -1, "wordID": 1620, "type": "PRES_AUD", "trial_index": 24}, "uniqueid": "MTK2023:3B1NLC6UG034FP0H4L3XWO8TLQAGPN", "dateTime": 1516648831851}, {"current_trial": 25, "trialdata": {"rt": -1000, "trial_type": "single-audio", "word": "crutch", "stimulus": "/static/audio/wordpool/CRUTCH.wav", "conditions": [18, 1200, "a", 18000], "internal_node_id": "0.0-16.0", "trial": 0, "time_elapsed": 274297, "serialpos": 4, "key_press": -1, "wordID": 416, "type": "PRES_AUD", "trial_index": 25}, "uniqueid": "MTK2023:3B1NLC6UG034FP0H4L3XWO8TLQAGPN", "dateTime": 1516648834149}, {"current_trial": 26, "trialdata": {"rt": -1000, "trial_type": "single-audio", "word": "blouse", "stimulus": "/static/audio/wordpool/BLOUSE.wav", "conditions": [18, 1200, "a", 18000], "internal_node_id": "0.0-17.0", "trial": 0, "time_elapsed": 276400, "serialpos": 5, "key_press": -1, "wordID": 138, "type": "PRES_AUD", "trial_index": 26}, "uniqueid": "MTK2023:3B1NLC6UG034FP0H4L3XWO8TLQAGPN", "dateTime": 1516648836253}, {"current_trial": 27, "trialdata": {"rt": -1000, "trial_type": "single-audio", "word": "balloon", "stimulus": "/static/audio/wordpool/BALLOON.wav", "conditions": [18, 1200, "a", 18000], "internal_node_id": "0.0-18.0", "trial": 0, "time_elapsed": 278670, "serialpos": 6, "key_press": -1, "wordID": 74, "type": "PRES_AUD", "trial_index": 27}, "uniqueid": "MTK2023:3B1NLC6UG034FP0H4L3XWO8TLQAGPN", "dateTime": 1516648838522}, {"current_trial": 28, "trialdata": {"rt": -1000, "trial_type": "single-audio", "word": "orange", "stimulus": "/static/audio/wordpool/ORANGE.wav", "conditions": [18, 1200, "a", 18000], "internal_node_id": "0.0-19.0", "trial": 0, "time_elapsed": 280697, "serialpos": 7, "key_press": -1, "wordID": 979, "type": "PRES_AUD", "trial_index": 28}, "uniqueid": "MTK2023:3B1NLC6UG034FP0H4L3XWO8TLQAGPN", "dateTime": 1516648840549}, {"current_trial": 29, "trialdata": {"rt": -1000, "trial_type": "single-audio", "word": "female", "stimulus": "/static/audio/wordpool/FEMALE.wav", "conditions": [18, 1200, "a", 18000], "internal_node_id": "0.0-20.0", "trial": 0, "time_elapsed": 283053, "serialpos": 8, "key_press": -1, "wordID": 558, "type": "PRES_AUD", "trial_index": 29}, "uniqueid": "MTK2023:3B1NLC6UG034FP0H4L3XWO8TLQAGPN", "dateTime": 1516648842905}, {"current_trial": 30, "trialdata": {"rt": -1000, "trial_type": "single-audio", "word": "frame", "stimulus": "/static/audio/wordpool/FRAME.wav", "conditions": [18, 1200, "a", 18000], "internal_node_id": "0.0-21.0", "trial": 0, "time_elapsed": 285428, "serialpos": 9, "key_press": -1, "wordID": 599, "type": "PRES_AUD", "trial_index": 30}, "uniqueid": "MTK2023:3B1NLC6UG034FP0H4L3XWO8TLQAGPN", "dateTime": 1516648845280}, {"current_trial": 31, "trialdata": {"rt": -1000, "trial_type": "single-audio", "word": "fireman", "stimulus": "/static/audio/wordpool/FIREMAN.wav", "conditions": [18, 1200, "a", 18000], "internal_node_id": "0.0-22.0", "trial": 0, "time_elapsed": 287643, "serialpos": 10, "key_press": -1, "wordID": 568, "type": "PRES_AUD", "trial_index": 31}, "uniqueid": "MTK2023:3B1NLC6UG034FP0H4L3XWO8TLQAGPN", "dateTime": 1516648847495}, {"current_trial": 32, "trialdata": {"rt": -1000, "trial_type": "single-audio", "word": "shelf", "stimulus": "/static/audio/wordpool/SHELF.wav", "conditions": [18, 1200, "a", 18000], "internal_node_id": "0.0-23.0", "trial": 0, "time_elapsed": 290014, "serialpos": 11, "key_press": -1, "wordID": 1279, "type": "PRES_AUD", "trial_index": 32}, "uniqueid": "MTK2023:3B1NLC6UG034FP0H4L3XWO8TLQAGPN", "dateTime": 1516648849866}, {"current_trial": 33, "trialdata": {"rt": -1000, "trial_type": "single-audio", "word": "flute", "stimulus": "/static/audio/wordpool/FLUTE.wav", "conditions": [18, 1200, "a", 18000], "internal_node_id": "0.0-24.0", "trial": 0, "time_elapsed": 292241, "serialpos": 12, "key_press": -1, "wordID": 584, "type": "PRES_AUD", "trial_index": 33}, "uniqueid": "MTK2023:3B1NLC6UG034FP0H4L3XWO8TLQAGPN", "dateTime": 1516648852093}, {"current_trial": 34, "trialdata": {"rt": -1000, "trial_type": "single-audio", "word": "champagne", "stimulus": "/static/audio/wordpool/CHAMPAGNE.wav", "conditions": [18, 1200, "a", 18000], "internal_node_id": "0.0-25.0", "trial": 0, "time_elapsed": 294317, "serialpos": 13, "key_press": -1, "wordID": 277, "type": "PRES_AUD", "trial_index": 34}, "uniqueid": "MTK2023:3B1NLC6UG034FP0H4L3XWO8TLQAGPN", "dateTime": 1516648854169}, {"current_trial": 35, "trialdata": {"rt": -1000, "trial_type": "single-audio", "word": "banquet", "stimulus": "/static/audio/wordpool/BANQUET.wav", "conditions": [18, 1200, "a", 18000], "internal_node_id": "0.0-26.0", "trial": 0, "time_elapsed": 296688, "serialpos": 14, "key_press": -1, "wordID": 85, "type": "PRES_AUD", "trial_index": 35}, "uniqueid": "MTK2023:3B1NLC6UG034FP0H4L3XWO8TLQAGPN", "dateTime": 1516648856540}, {"current_trial": 36, "trialdata": {"rt": -1000, "trial_type": "single-audio", "word": "mildew", "stimulus": "/static/audio/wordpool/MILDEW.wav", "conditions": [18, 1200, "a", 18000], "internal_node_id": "0.0-27.0", "trial": 0, "time_elapsed": 299056, "serialpos": 15, "key_press": -1, "wordID": 892, "type": "PRES_AUD", "trial_index": 36}, "uniqueid": "MTK2023:3B1NLC6UG034FP0H4L3XWO8TLQAGPN", "dateTime": 1516648858908}, {"current_trial": 37, "trialdata": {"rt": -1000, "trial_type": "single-audio", "word": "river", "stimulus": "/static/audio/wordpool/RIVER.wav", "conditions": [18, 1200, "a", 18000], "internal_node_id": "0.0-28.0", "trial": 0, "time_elapsed": 301319, "serialpos": 16, "key_press": -1, "wordID": 1193, "type": "PRES_AUD", "trial_index": 37}, "uniqueid": "MTK2023:3B1NLC6UG034FP0H4L3XWO8TLQAGPN", "dateTime": 1516648861171}, {"current_trial": 38, "trialdata": {"rt": -1000, "trial_type": "single-audio", "word": "coin", "stimulus": "/static/audio/wordpool/COIN.wav", "conditions": [18, 1200, "a", 18000], "internal_node_id": "0.0-29.0", "trial": 0, "time_elapsed": 303480, "serialpos": 17, "key_press": -1, "wordID": 342, "type": "PRES_AUD", "trial_index": 38}, "uniqueid": "MTK2023:3B1NLC6UG034FP0H4L3XWO8TLQAGPN", "dateTime": 1516648863332}, {"current_trial": 39, "trialdata": {"rt": -1, "trial_type": "single-stim", "stimulus": "", "internal_node_id": "0.0-30.0-0.0", "time_elapsed": 304801, "key_press": -1, "type": "PRE_RECALL_DELAY", "trial_index": 39}, "uniqueid": "MTK2023:3B1NLC6UG034FP0H4L3XWO8TLQAGPN", "dateTime": 1516648864654}, {"current_trial": 40, "trialdata": {"rt": -1000, "trial_type": "single-audio", "stimulus": "/static/audio/400Hz.wav", "internal_node_id": "0.0-31.0", "time_elapsed": 305303, "key_press": -1, "type": "PRE_RECALL_ALERT", "trial_index": 40}, "uniqueid": "MTK2023:3B1NLC6UG034FP0H4L3XWO8TLQAGPN", "dateTime": 1516648865155}, {"current_trial": 41, "trialdata": {"rt": [3345, 5693, 8034, 11305, 13107, 17801, 22112, 42161, 59846], "recwords": ["coin", "river", "orange", "sunrise", "lake", "mildew", "spider", "female", ""], "key_times": [1967, 2291, 2517, 2809, 3345, 4178, 4491, 4672, 4846, 5042, 5693, 6259, 6504, 6689, 6809, 7130, 7331, 8034, 8488, 9146, 9449, 9658, 9810, 9988, 10264, 11305, 12028, 12166, 12309, 12465, 13107, 15128, 15323, 15544, 16004, 16745, 17001, 17801, 19297, 19484, 19675, 19863, 20188, 20533, 20720, 20863, 21095, 21294, 22112, 38832, 39087, 39750, 39946, 40305, 40773, 41389, 41510, 42161, 59846], "trial_type": "free-recall", "conditions": [18, 1200, "a", 18000], "internal_node_id": "0.0-32.0-0.0", "key_presses": [67, 79, 73, 78, 13, 82, 73, 86, 69, 82, 13, 79, 82, 65, 78, 71, 69, 13, 83, 85, 78, 82, 73, 83, 69, 13, 76, 65, 75, 69, 13, 77, 73, 76, 68, 69, 87, 13, 83, 80, 73, 67, 69, 8, 8, 68, 69, 82, 13, 70, 69, 77, 65, 73, 8, 76, 69, 13, 13], "trial": 0, "time_elapsed": 365306, "type": "FREE_RECALL", "trial_index": 41}, "uniqueid": "MTK2023:3B1NLC6UG034FP0H4L3XWO8TLQAGPN", "dateTime": 1516648925160}, {"current_trial": 42, "trialdata": {"rt": 2556, "trial_type": "text", "internal_node_id": "0.0-33.0", "time_elapsed": 369866, "key_press": 32, "type": "INSTRUCTIONS", "trial_index": 42}, "uniqueid": "MTK2023:3B1NLC6UG034FP0H4L3XWO8TLQAGPN", "dateTime": 1516648929718}, {"current_trial": 43, "trialdata": {"rt": [12351], "trial_type": "math-distractor", "key_times": [11120, 11397, 12351], "responses": ["15"], "num2": [2, 7], "num3": [6, 3], "conditions": [18, 1200, "a", 18000], "internal_node_id": "0.0-34.0", "key_presses": [97, 101, 13], "trial": 1, "time_elapsed": 389869, "type": "DISTRACTOR", "trial_index": 43, "num1": [7, 9]}, "uniqueid": "MTK2023:3B1NLC6UG034FP0H4L3XWO8TLQAGPN", "dateTime": 1516648949721}, {"current_trial": 44, "trialdata": {"rt": -1, "trial_type": "single-stim", "stimulus": "<p id=\"stim\">10</p>", "internal_node_id": "0.0-35.0-0.0", "time_elapsed": 392871, "key_press": -1, "trial_index": 44}, "uniqueid": "MTK2023:3B1NLC6UG034FP0H4L3XWO8TLQAGPN", "dateTime": 1516648952723}, {"current_trial": 45, "trialdata": {"rt": -1, "trial_type": "single-stim", "stimulus": "<p id=\"stim\">9</p>", "internal_node_id": "0.0-35.0-1.0", "time_elapsed": 393873, "key_press": -1, "trial_index": 45}, "uniqueid": "MTK2023:3B1NLC6UG034FP0H4L3XWO8TLQAGPN", "dateTime": 1516648953725}, {"current_trial": 46, "trialdata": {"rt": -1, "trial_type": "single-stim", "stimulus": "<p id=\"stim\">8</p>", "internal_node_id": "0.0-35.0-2.0", "time_elapsed": 394875, "key_press": -1, "trial_index": 46}, "uniqueid": "MTK2023:3B1NLC6UG034FP0H4L3XWO8TLQAGPN", "dateTime": 1516648954727}, {"current_trial": 47, "trialdata": {"rt": -1, "trial_type": "single-stim", "stimulus": "<p id=\"stim\">7</p>", "internal_node_id": "0.0-35.0-3.0", "time_elapsed": 395877, "key_press": -1, "trial_index": 47}, "uniqueid": "MTK2023:3B1NLC6UG034FP0H4L3XWO8TLQAGPN", "dateTime": 1516648955729}, {"current_trial": 48, "trialdata": {"rt": -1, "trial_type": "single-stim", "stimulus": "<p id=\"stim\">6</p>", "internal_node_id": "0.0-35.0-4.0", "time_elapsed": 396878, "key_press": -1, "trial_index": 48}, "uniqueid": "MTK2023:3B1NLC6UG034FP0H4L3XWO8TLQAGPN", "dateTime": 1516648956730}, {"current_trial": 49, "trialdata": {"rt": -1, "trial_type": "single-stim", "stimulus": "<p id=\"stim\">5</p>", "internal_node_id": "0.0-35.0-5.0", "time_elapsed": 397881, "key_press": -1, "trial_index": 49}, "uniqueid": "MTK2023:3B1NLC6UG034FP0H4L3XWO8TLQAGPN", "dateTime": 1516648957733}, {"current_trial": 50, "trialdata": {"rt": -1, "trial_type": "single-stim", "stimulus": "<p id=\"stim\">4</p>", "internal_node_id": "0.0-35.0-6.0", "time_elapsed": 398882, "key_press": -1, "trial_index": 50}, "uniqueid": "MTK2023:3B1NLC6UG034FP0H4L3XWO8TLQAGPN", "dateTime": 1516648958734}, {"current_trial": 51, "trialdata": {"rt": -1, "trial_type": "single-stim", "stimulus": "<p id=\"stim\">3</p>", "internal_node_id": "0.0-35.0-7.0", "time_elapsed": 399883, "key_press": -1, "trial_index": 51}, "uniqueid": "MTK2023:3B1NLC6UG034FP0H4L3XWO8TLQAGPN", "dateTime": 1516648959735}, {"current_trial": 52, "trialdata": {"rt": -1, "trial_type": "single-stim", "stimulus": "<p id=\"stim\">2</p>", "internal_node_id": "0.0-35.0-8.0", "time_elapsed": 400884, "key_press": -1, "trial_index": 52}, "uniqueid": "MTK2023:3B1NLC6UG034FP0H4L3XWO8TLQAGPN", "dateTime": 1516648960736}, {"current_trial": 53, "trialdata": {"rt": -1, "trial_type": "single-stim", "stimulus": "<p id=\"stim\">1</p>", "internal_node_id": "0.0-35.0-9.0", "time_elapsed": 401886, "key_press": -1, "trial_index": 53}, "uniqueid": "MTK2023:3B1NLC6UG034FP0H4L3XWO8TLQAGPN", "dateTime": 1516648961738}, {"current_trial": 54, "trialdata": {"rt": -1, "trial_type": "single-stim", "stimulus": "<p id=\"stim\">+</p>", "internal_node_id": "0.0-36.0-0.0", "time_elapsed": 403388, "key_press": -1, "type": "FIXATION", "trial_index": 54}, "uniqueid": "MTK2023:3B1NLC6UG034FP0H4L3XWO8TLQAGPN", "dateTime": 1516648963241}, {"current_trial": 55, "trialdata": {"rt": -1000, "trial_type": "single-audio", "word": "queen", "stimulus": "/static/audio/wordpool/QUEEN.wav", "conditions": [18, 1200, "a", 18000], "internal_node_id": "0.0-37.0", "trial": 1, "time_elapsed": 405595, "serialpos": 0, "key_press": -1, "wordID": 1148, "type": "PRES_AUD", "trial_index": 55}, "uniqueid": "MTK2023:3B1NLC6UG034FP0H4L3XWO8TLQAGPN", "dateTime": 1516648965447}, {"current_trial": 56, "trialdata": {"rt": -1000, "trial_type": "single-audio", "word": "lace", "stimulus": "/static/audio/wordpool/LACE.wav", "conditions": [18, 1200, "a", 18000], "internal_node_id": "0.0-38.0", "trial": 1, "time_elapsed": 407843, "serialpos": 1, "key_press": -1, "wordID": 791, "type": "PRES_AUD", "trial_index": 56}, "uniqueid": "MTK2023:3B1NLC6UG034FP0H4L3XWO8TLQAGPN", "dateTime": 1516648967696}, {"current_trial": 57, "trialdata": {"rt": -1000, "trial_type": "single-audio", "word": "chapel", "stimulus": "/static/audio/wordpool/CHAPEL.wav", "conditions": [18, 1200, "a", 18000], "internal_node_id": "0.0-39.0", "trial": 1, "time_elapsed": 409941, "serialpos": 2, "key_press": -1, "wordID": 279, "type": "PRES_AUD", "trial_index": 57}, "uniqueid": "MTK2023:3B1NLC6UG034FP0H4L3XWO8TLQAGPN", "dateTime": 1516648969794}, {"current_trial": 58, "trialdata": {"rt": -1000, "trial_type": "single-audio", "word": "daisy", "stimulus": "/static/audio/wordpool/DAISY.wav", "conditions": [18, 1200, "a", 18000], "internal_node_id": "0.0-40.0", "trial": 1, "time_elapsed": 412068, "serialpos": 3, "key_press": -1, "wordID": 434, "type": "PRES_AUD", "trial_index": 58}, "uniqueid": "MTK2023:3B1NLC6UG034FP0H4L3XWO8TLQAGPN", "dateTime": 1516648971920}, {"current_trial": 59, "trialdata": {"rt": -1000, "trial_type": "single-audio", "word": "lunch", "stimulus": "/static/audio/wordpool/LUNCH.wav", "conditions": [18, 1200, "a", 18000], "internal_node_id": "0.0-41.0", "trial": 1, "time_elapsed": 414251, "serialpos": 4, "key_press": -1, "wordID": 848, "type": "PRES_AUD", "trial_index": 59}, "uniqueid": "MTK2023:3B1NLC6UG034FP0H4L3XWO8TLQAGPN", "dateTime": 1516648974103}, {"current_trial": 60, "trialdata": {"rt": -1000, "trial_type": "single-audio", "word": "crown", "stimulus": "/static/audio/wordpool/CROWN.wav", "conditions": [18, 1200, "a", 18000], "internal_node_id": "0.0-42.0", "trial": 1, "time_elapsed": 416545, "serialpos": 5, "key_press": -1, "wordID": 414, "type": "PRES_AUD", "trial_index": 60}, "uniqueid": "MTK2023:3B1NLC6UG034FP0H4L3XWO8TLQAGPN", "dateTime": 1516648976398}, {"current_trial": 61, "trialdata": {"rt": -1000, "trial_type": "single-audio", "word": "motel", "stimulus": "/static/audio/wordpool/MOTEL.wav", "conditions": [18, 1200, "a", 18000], "internal_node_id": "0.0-43.0", "trial": 1, "time_elapsed": 418635, "serialpos": 6, "key_press": -1, "wordID": 918, "type": "PRES_AUD", "trial_index": 61}, "uniqueid": "MTK2023:3B1NLC6UG034FP0H4L3XWO8TLQAGPN", "dateTime": 1516648978487}, {"current_trial": 62, "trialdata": {"rt": -1000, "trial_type": "single-audio", "word": "ghetto", "stimulus": "/static/audio/wordpool/GHETTO.wav", "conditions": [18, 1200, "a", 18000], "internal_node_id": "0.0-44.0", "trial": 1, "time_elapsed": 421008, "serialpos": 7, "key_press": -1, "wordID": 632, "type": "PRES_AUD", "trial_index": 62}, "uniqueid": "MTK2023:3B1NLC6UG034FP0H4L3XWO8TLQAGPN", "dateTime": 1516648980860}, {"current_trial": 63, "trialdata": {"rt": -1000, "trial_type": "single-audio", "word": "snail", "stimulus": "/static/audio/wordpool/SNAIL.wav", "conditions": [18, 1200, "a", 18000], "internal_node_id": "0.0-45.0", "trial": 1, "time_elapsed": 423319, "serialpos": 8, "key_press": -1, "wordID": 1331, "type": "PRES_AUD", "trial_index": 63}, "uniqueid": "MTK2023:3B1NLC6UG034FP0H4L3XWO8TLQAGPN", "dateTime": 1516648983171}, {"current_trial": 64, "trialdata": {"rt": -1000, "trial_type": "single-audio", "word": "vagrant", "stimulus": "/static/audio/wordpool/VAGRANT.wav", "conditions": [18, 1200, "a", 18000], "internal_node_id": "0.0-46.0", "trial": 1, "time_elapsed": 425611, "serialpos": 9, "key_press": -1, "wordID": 1543, "type": "PRES_AUD", "trial_index": 64}, "uniqueid": "MTK2023:3B1NLC6UG034FP0H4L3XWO8TLQAGPN", "dateTime": 1516648985463}, {"current_trial": 65, "trialdata": {"rt": -1000, "trial_type": "single-audio", "word": "cellar", "stimulus": "/static/audio/wordpool/CELLAR.wav", "conditions": [18, 1200, "a", 18000], "internal_node_id": "0.0-47.0", "trial": 1, "time_elapsed": 427842, "serialpos": 10, "key_press": -1, "wordID": 266, "type": "PRES_AUD", "trial_index": 65}, "uniqueid": "MTK2023:3B1NLC6UG034FP0H4L3XWO8TLQAGPN", "dateTime": 1516648987695}, {"current_trial": 66, "trialdata": {"rt": -1000, "trial_type": "single-audio", "word": "marrow", "stimulus": "/static/audio/wordpool/MARROW.wav", "conditions": [18, 1200, "a", 18000], "internal_node_id": "0.0-48.0", "trial": 1, "time_elapsed": 430212, "serialpos": 11, "key_press": -1, "wordID": 871, "type": "PRES_AUD", "trial_index": 66}, "uniqueid": "MTK2023:3B1NLC6UG034FP0H4L3XWO8TLQAGPN", "dateTime": 1516648990064}, {"current_trial": 67, "trialdata": {"rt": -1000, "trial_type": "single-audio", "word": "princess", "stimulus": "/static/audio/wordpool/PRINCESS.wav", "conditions": [18, 1200, "a", 18000], "internal_node_id": "0.0-49.0", "trial": 1, "time_elapsed": 432476, "serialpos": 12, "key_press": -1, "wordID": 1124, "type": "PRES_AUD", "trial_index": 67}, "uniqueid": "MTK2023:3B1NLC6UG034FP0H4L3XWO8TLQAGPN", "dateTime": 1516648992328}, {"current_trial": 68, "trialdata": {"rt": -1000, "trial_type": "single-audio", "word": "nomad", "stimulus": "/static/audio/wordpool/NOMAD.wav", "conditions": [18, 1200, "a", 18000], "internal_node_id": "0.0-50.0", "trial": 1, "time_elapsed": 434521, "serialpos": 13, "key_press": -1, "wordID": 954, "type": "PRES_AUD", "trial_index": 68}, "uniqueid": "MTK2023:3B1NLC6UG034FP0H4L3XWO8TLQAGPN", "dateTime": 1516648994373}, {"current_trial": 69, "trialdata": {"rt": -1000, "trial_type": "single-audio", "word": "candy", "stimulus": "/static/audio/wordpool/CANDY.wav", "conditions": [18, 1200, "a", 18000], "internal_node_id": "0.0-51.0", "trial": 1, "time_elapsed": 436692, "serialpos": 14, "key_press": -1, "wordID": 229, "type": "PRES_AUD", "trial_index": 69}, "uniqueid": "MTK2023:3B1NLC6UG034FP0H4L3XWO8TLQAGPN", "dateTime": 1516648996544}, {"current_trial": 70, "trialdata": {"rt": -1000, "trial_type": "single-audio", "word": "jury", "stimulus": "/static/audio/wordpool/JURY.wav", "conditions": [18, 1200, "a", 18000], "internal_node_id": "0.0-52.0", "trial": 1, "time_elapsed": 438755, "serialpos": 15, "key_press": -1, "wordID": 765, "type": "PRES_AUD", "trial_index": 70}, "uniqueid": "MTK2023:3B1NLC6UG034FP0H4L3XWO8TLQAGPN", "dateTime": 1516648998607}, {"current_trial": 71, "trialdata": {"rt": -1000, "trial_type": "single-audio", "word": "star", "stimulus": "/static/audio/wordpool/STAR.wav", "conditions": [18, 1200, "a", 18000], "internal_node_id": "0.0-53.0", "trial": 1, "time_elapsed": 440943, "serialpos": 16, "key_press": -1, "wordID": 1372, "type": "PRES_AUD", "trial_index": 71}, "uniqueid": "MTK2023:3B1NLC6UG034FP0H4L3XWO8TLQAGPN", "dateTime": 1516649000795}, {"current_trial": 72, "trialdata": {"rt": -1000, "trial_type": "single-audio", "word": "dentist", "stimulus": "/static/audio/wordpool/DENTIST.wav", "conditions": [18, 1200, "a", 18000], "internal_node_id": "0.0-54.0", "trial": 1, "time_elapsed": 442995, "serialpos": 17, "key_press": -1, "wordID": 446, "type": "PRES_AUD", "trial_index": 72}, "uniqueid": "MTK2023:3B1NLC6UG034FP0H4L3XWO8TLQAGPN", "dateTime": 1516649002847}, {"current_trial": 73, "trialdata": {"rt": -1, "trial_type": "single-stim", "stimulus": "", "internal_node_id": "0.0-55.0-0.0", "time_elapsed": 444207, "key_press": -1, "type": "PRE_RECALL_DELAY", "trial_index": 73}, "uniqueid": "MTK2023:3B1NLC6UG034FP0H4L3XWO8TLQAGPN", "dateTime": 1516649004059}, {"current_trial": 74, "trialdata": {"rt": -1000, "trial_type": "single-audio", "stimulus": "/static/audio/400Hz.wav", "internal_node_id": "0.0-56.0", "time_elapsed": 444708, "key_press": -1, "type": "PRE_RECALL_ALERT", "trial_index": 74}, "uniqueid": "MTK2023:3B1NLC6UG034FP0H4L3XWO8TLQAGPN", "dateTime": 1516649004560}, {"current_trial": 75, "trialdata": {"rt": [3181, 5787, 8219, 10262, 18535, 21487, 26334, 38687, 46068, 56330], "recwords": ["queen", "princess", "dentist", "star", "banquet", "crown", "jury", "nomad", "snail", ""], "key_times": [1511, 1809, 2070, 2297, 2448, 3181, 3661, 3901, 4093, 4297, 4535, 4794, 4970, 5154, 5787, 6214, 6432, 6588, 6922, 7210, 7415, 7701, 8219, 8425, 8617, 8820, 9145, 10262, 12686, 12941, 13206, 13394, 13568, 14945, 15145, 15326, 15505, 15673, 16328, 16498, 16756, 17147, 17339, 17644, 17964, 18535, 19956, 20178, 20321, 20473, 20721, 21487, 22455, 23014, 24182, 24884, 25045, 25449, 26334, 37097, 37269, 37513, 37688, 37991, 38687, 44316, 44452, 44620, 45234, 45446, 46068, 56330], "trial_type": "free-recall", "conditions": [18, 1200, "a", 18000], "internal_node_id": "0.0-57.0-0.0", "key_presses": [81, 85, 69, 69, 78, 13, 80, 82, 73, 78, 67, 69, 83, 83, 13, 68, 69, 78, 84, 73, 83, 84, 13, 83, 84, 65, 82, 13, 76, 85, 78, 67, 72, 8, 8, 8, 8, 8, 66, 65, 78, 81, 85, 69, 84, 13, 67, 82, 79, 87, 78, 13, 74, 82, 8, 85, 82, 89, 13, 78, 79, 77, 65, 68, 13, 83, 78, 65, 73, 76, 13, 13], "trial": 1, "time_elapsed": 504711, "type": "FREE_RECALL", "trial_index": 75}, "uniqueid": "MTK2023:3B1NLC6UG034FP0H4L3XWO8TLQAGPN", "dateTime": 1516649064564}, {"current_trial": 76, "trialdata": {"rt": 3169, "trial_type": "text", "internal_node_id": "0.0-58.0", "time_elapsed": 509883, "key_press": 32, "type": "INSTRUCTIONS", "trial_index": 76}, "uniqueid": "MTK2023:3B1NLC6UG034FP0H4L3XWO8TLQAGPN", "dateTime": 1516649069735}, {"current_trial": 77, "trialdata": {"rt": [7590, 11423, 15259, 18339, 22323], "trial_type": "math-distractor", "key_times": [6632, 6871, 7590, 10228, 10681, 11423, 14136, 15259, 17368, 17612, 18339, 21448, 21655, 22323], "responses": ["26", "19", "8", "12", "11"], "num2": [9, 5, 4, 4, 1, 8], "num3": [7, 5, 2, 2, 6, 6], "conditions": [12, 800, "a", 24000], "internal_node_id": "0.0-59.0", "key_presses": [98, 102, 13, 97, 105, 13, 104, 13, 97, 98, 13, 97, 97, 13], "trial": 2, "time_elapsed": 534885, "type": "DISTRACTOR", "trial_index": 77, "num1": [9, 9, 2, 6, 2, 8]}, "uniqueid": "MTK2023:3B1NLC6UG034FP0H4L3XWO8TLQAGPN", "dateTime": 1516649094737}, {"current_trial": 78, "trialdata": {"rt": -1, "trial_type": "single-stim", "stimulus": "<p id=\"stim\">10</p>", "internal_node_id": "0.0-60.0-0.0", "time_elapsed": 537888, "key_press": -1, "trial_index": 78}, "uniqueid": "MTK2023:3B1NLC6UG034FP0H4L3XWO8TLQAGPN", "dateTime": 1516649097742}, {"current_trial": 79, "trialdata": {"rt": -1, "trial_type": "single-stim", "stimulus": "<p id=\"stim\">9</p>", "internal_node_id": "0.0-60.0-1.0", "time_elapsed": 538891, "key_press": -1, "trial_index": 79}, "uniqueid": "MTK2023:3B1NLC6UG034FP0H4L3XWO8TLQAGPN", "dateTime": 1516649098743}, {"current_trial": 80, "trialdata": {"rt": -1, "trial_type": "single-stim", "stimulus": "<p id=\"stim\">8</p>", "internal_node_id": "0.0-60.0-2.0", "time_elapsed": 539891, "key_press": -1, "trial_index": 80}, "uniqueid": "MTK2023:3B1NLC6UG034FP0H4L3XWO8TLQAGPN", "dateTime": 1516649099743}, {"current_trial": 81, "trialdata": {"rt": -1, "trial_type": "single-stim", "stimulus": "<p id=\"stim\">7</p>", "internal_node_id": "0.0-60.0-3.0", "time_elapsed": 540893, "key_press": -1, "trial_index": 81}, "uniqueid": "MTK2023:3B1NLC6UG034FP0H4L3XWO8TLQAGPN", "dateTime": 1516649100745}, {"current_trial": 82, "trialdata": {"rt": -1, "trial_type": "single-stim", "stimulus": "<p id=\"stim\">6</p>", "internal_node_id": "0.0-60.0-4.0", "time_elapsed": 541894, "key_press": -1, "trial_index": 82}, "uniqueid": "MTK2023:3B1NLC6UG034FP0H4L3XWO8TLQAGPN", "dateTime": 1516649101746}, {"current_trial": 83, "trialdata": {"rt": -1, "trial_type": "single-stim", "stimulus": "<p id=\"stim\">5</p>", "internal_node_id": "0.0-60.0-5.0", "time_elapsed": 542895, "key_press": -1, "trial_index": 83}, "uniqueid": "MTK2023:3B1NLC6UG034FP0H4L3XWO8TLQAGPN", "dateTime": 1516649102747}, {"current_trial": 84, "trialdata": {"rt": -1, "trial_type": "single-stim", "stimulus": "<p id=\"stim\">4</p>", "internal_node_id": "0.0-60.0-6.0", "time_elapsed": 543896, "key_press": -1, "trial_index": 84}, "uniqueid": "MTK2023:3B1NLC6UG034FP0H4L3XWO8TLQAGPN", "dateTime": 1516649103748}, {"current_trial": 85, "trialdata": {"rt": -1, "trial_type": "single-stim", "stimulus": "<p id=\"stim\">3</p>", "internal_node_id": "0.0-60.0-7.0", "time_elapsed": 544897, "key_press": -1, "trial_index": 85}, "uniqueid": "MTK2023:3B1NLC6UG034FP0H4L3XWO8TLQAGPN", "dateTime": 1516649104749}, {"current_trial": 86, "trialdata": {"rt": -1, "trial_type": "single-stim", "stimulus": "<p id=\"stim\">2</p>", "internal_node_id": "0.0-60.0-8.0", "time_elapsed": 545899, "key_press": -1, "trial_index": 86}, "uniqueid": "MTK2023:3B1NLC6UG034FP0H4L3XWO8TLQAGPN", "dateTime": 1516649105751}, {"current_trial": 87, "trialdata": {"rt": -1, "trial_type": "single-stim", "stimulus": "<p id=\"stim\">1</p>", "internal_node_id": "0.0-60.0-9.0", "time_elapsed": 546900, "key_press": -1, "trial_index": 87}, "uniqueid": "MTK2023:3B1NLC6UG034FP0H4L3XWO8TLQAGPN", "dateTime": 1516649106752}, {"current_trial": 88, "trialdata": {"rt": -1, "trial_type": "single-stim", "stimulus": "<p id=\"stim\">+</p>", "internal_node_id": "0.0-61.0-0.0", "time_elapsed": 548401, "key_press": -1, "type": "FIXATION", "trial_index": 88}, "uniqueid": "MTK2023:3B1NLC6UG034FP0H4L3XWO8TLQAGPN", "dateTime": 1516649108253}, {"current_trial": 89, "trialdata": {"rt": -1000, "trial_type": "single-audio", "word": "thief", "stimulus": "/static/audio/wordpool/THIEF.wav", "conditions": [12, 800, "a", 24000], "internal_node_id": "0.0-62.0", "trial": 2, "time_elapsed": 550401, "serialpos": 0, "key_press": -1, "wordID": 1455, "type": "PRES_AUD", "trial_index": 89}, "uniqueid": "MTK2023:3B1NLC6UG034FP0H4L3XWO8TLQAGPN", "dateTime": 1516649110253}, {"current_trial": 90, "trialdata": {"rt": -1000, "trial_type": "single-audio", "word": "item", "stimulus": "/static/audio/wordpool/ITEM.wav", "conditions": [12, 800, "a", 24000], "internal_node_id": "0.0-63.0", "trial": 2, "time_elapsed": 552182, "serialpos": 1, "key_press": -1, "wordID": 745, "type": "PRES_AUD", "trial_index": 90}, "uniqueid": "MTK2023:3B1NLC6UG034FP0H4L3XWO8TLQAGPN", "dateTime": 1516649112034}, {"current_trial": 91, "trialdata": {"rt": -1000, "trial_type": "single-audio", "word": "fiddle", "stimulus": "/static/audio/wordpool/FIDDLE.wav", "conditions": [12, 800, "a", 24000], "internal_node_id": "0.0-64.0", "trial": 2, "time_elapsed": 554134, "serialpos": 2, "key_press": -1, "wordID": 560, "type": "PRES_AUD", "trial_index": 91}, "uniqueid": "MTK2023:3B1NLC6UG034FP0H4L3XWO8TLQAGPN", "dateTime": 1516649113986}, {"current_trial": 92, "trialdata": {"rt": -1000, "trial_type": "single-audio", "word": "scribble", "stimulus": "/static/audio/wordpool/SCRIBBLE.wav", "conditions": [12, 800, "a", 24000], "internal_node_id": "0.0-65.0", "trial": 2, "time_elapsed": 555762, "serialpos": 3, "key_press": -1, "wordID": 1255, "type": "PRES_AUD", "trial_index": 92}, "uniqueid": "MTK2023:3B1NLC6UG034FP0H4L3XWO8TLQAGPN", "dateTime": 1516649115615}, {"current_trial": 93, "trialdata": {"rt": -1000, "trial_type": "single-audio", "word": "swamp", "stimulus": "/static/audio/wordpool/SWAMP.wav", "conditions": [12, 800, "a", 24000], "internal_node_id": "0.0-66.0", "trial": 2, "time_elapsed": 557553, "serialpos": 4, "key_press": -1, "wordID": 1415, "type": "PRES_AUD", "trial_index": 93}, "uniqueid": "MTK2023:3B1NLC6UG034FP0H4L3XWO8TLQAGPN", "dateTime": 1516649117405}, {"current_trial": 94, "trialdata": {"rt": -1000, "trial_type": "single-audio", "word": "rebel", "stimulus": "/static/audio/wordpool/REBEL.wav", "conditions": [12, 800, "a", 24000], "internal_node_id": "0.0-67.0", "trial": 2, "time_elapsed": 559349, "serialpos": 5, "key_press": -1, "wordID": 1171, "type": "PRES_AUD", "trial_index": 94}, "uniqueid": "MTK2023:3B1NLC6UG034FP0H4L3XWO8TLQAGPN", "dateTime": 1516649119201}, {"current_trial": 95, "trialdata": {"rt": -1000, "trial_type": "single-audio", "word": "fox", "stimulus": "/static/audio/wordpool/FOX.wav", "conditions": [12, 800, "a", 24000], "internal_node_id": "0.0-68.0", "trial": 2, "time_elapsed": 561269, "serialpos": 6, "key_press": -1, "wordID": 597, "type": "PRES_AUD", "trial_index": 95}, "uniqueid": "MTK2023:3B1NLC6UG034FP0H4L3XWO8TLQAGPN", "dateTime": 1516649121121}, {"current_trial": 96, "trialdata": {"rt": -1000, "trial_type": "single-audio", "word": "dresser", "stimulus": "/static/audio/wordpool/DRESSER.wav", "conditions": [12, 800, "a", 24000], "internal_node_id": "0.0-69.0", "trial": 2, "time_elapsed": 563244, "serialpos": 7, "key_press": -1, "wordID": 495, "type": "PRES_AUD", "trial_index": 96}, "uniqueid": "MTK2023:3B1NLC6UG034FP0H4L3XWO8TLQAGPN", "dateTime": 1516649123096}, {"current_trial": 97, "trialdata": {"rt": -1000, "trial_type": "single-audio", "word": "grape", "stimulus": "/static/audio/wordpool/GRAPE.wav", "conditions": [12, 800, "a", 24000], "internal_node_id": "0.0-70.0", "trial": 2, "time_elapsed": 565109, "serialpos": 8, "key_press": -1, "wordID": 653, "type": "PRES_AUD", "trial_index": 97}, "uniqueid": "MTK2023:3B1NLC6UG034FP0H4L3XWO8TLQAGPN", "dateTime": 1516649124962}, {"current_trial": 98, "trialdata": {"rt": -1000, "trial_type": "single-audio", "word": "honey", "stimulus": "/static/audio/wordpool/HONEY.wav", "conditions": [12, 800, "a", 24000], "internal_node_id": "0.0-71.0", "trial": 2, "time_elapsed": 567027, "serialpos": 9, "key_press": -1, "wordID": 712, "type": "PRES_AUD", "trial_index": 98}, "uniqueid": "MTK2023:3B1NLC6UG034FP0H4L3XWO8TLQAGPN", "dateTime": 1516649126879}, {"current_trial": 99, "trialdata": {"rt": -1000, "trial_type": "single-audio", "word": "banjo", "stimulus": "/static/audio/wordpool/BANJO.wav", "conditions": [12, 800, "a", 24000], "internal_node_id": "0.0-72.0", "trial": 2, "time_elapsed": 568672, "serialpos": 10, "key_press": -1, "wordID": 81, "type": "PRES_AUD", "trial_index": 99}, "uniqueid": "MTK2023:3B1NLC6UG034FP0H4L3XWO8TLQAGPN", "dateTime": 1516649128524}, {"current_trial": 100, "trialdata": {"rt": -1000, "trial_type": "single-audio", "word": "cabbage", "stimulus": "/static/audio/wordpool/CABBAGE.wav", "conditions": [12, 800, "a", 24000], "internal_node_id": "0.0-73.0", "trial": 2, "time_elapsed": 570283, "serialpos": 11, "key_press": -1, "wordID": 209, "type": "PRES_AUD", "trial_index": 100}, "uniqueid": "MTK2023:3B1NLC6UG034FP0H4L3XWO8TLQAGPN", "dateTime": 1516649130135}, {"current_trial": 101, "trialdata": {"rt": -1, "trial_type": "single-stim", "stimulus": "", "internal_node_id": "0.0-74.0-0.0", "time_elapsed": 571525, "key_press": -1, "type": "PRE_RECALL_DELAY", "trial_index": 101}, "uniqueid": "MTK2023:3B1NLC6UG034FP0H4L3XWO8TLQAGPN", "dateTime": 1516649131377}, {"current_trial": 102, "trialdata": {"rt": -1000, "trial_type": "single-audio", "stimulus": "/static/audio/400Hz.wav", "internal_node_id": "0.0-75.0", "time_elapsed": 572027, "key_press": -1, "type": "PRE_RECALL_ALERT", "trial_index": 102}, "uniqueid": "MTK2023:3B1NLC6UG034FP0H4L3XWO8TLQAGPN", "dateTime": 1516649131879}, {"current_trial": 103, "trialdata": {"rt": [2823, 5648, 8460, 13646, 17979, 28003, 32634, 45216, 49399, 58689], "recwords": ["leaf", "swamp", "cabbage", "banjo", "scribb", "scribble", "item", "honey", "grape", ""], "key_times": [1416, 1562, 1760, 2069, 2823, 3010, 3241, 3693, 4178, 4832, 5648, 6454, 6628, 7045, 7235, 7351, 7592, 7774, 8460, 9107, 9282, 9491, 10359, 10911, 11263, 11489, 12423, 12922, 13646, 14237, 14497, 14747, 14881, 15129, 15620, 15819, 17023, 17221, 17422, 17979, 18170, 20130, 20476, 20982, 21198, 21465, 21474, 21950, 22152, 22892, 23126, 23306, 23702, 23894, 24058, 24830, 25185, 25714, 25906, 26543, 26899, 27143, 27341, 27488, 28003, 31397, 31517, 31704, 31870, 32634, 43554, 43753, 44071, 44313, 44501, 45216, 47999, 48165, 48369, 48579, 48842, 49399, 58689], "trial_type": "free-recall", "conditions": [12, 800, "a", 24000], "internal_node_id": "0.0-76.0-0.0", "key_presses": [76, 69, 65, 70, 13, 83, 87, 65, 77, 80, 13, 67, 65, 66, 66, 65, 71, 69, 13, 66, 65, 77, 8, 78, 74, 80, 8, 79, 13, 83, 67, 82, 79, 66, 8, 8, 73, 66, 66, 186, 69, 8, 83, 67, 82, 79, 73, 8, 8, 66, 66, 66, 8, 8, 8, 66, 66, 8, 8, 73, 66, 66, 76, 69, 13, 73, 84, 69, 77, 13, 72, 79, 78, 69, 89, 13, 71, 82, 65, 80, 69, 13, 13], "trial": 2, "time_elapsed": 632029, "type": "FREE_RECALL", "trial_index": 103}, "uniqueid": "MTK2023:3B1NLC6UG034FP0H4L3XWO8TLQAGPN", "dateTime": 1516649191883}, {"current_trial": 104, "trialdata": {"rt": 2736, "trial_type": "text", "internal_node_id": "0.0-77.0", "time_elapsed": 636769, "key_press": 32, "type": "INSTRUCTIONS", "trial_index": 104}, "uniqueid": "MTK2023:3B1NLC6UG034FP0H4L3XWO8TLQAGPN", "dateTime": 1516649196621}, {"current_trial": 105, "trialdata": {"rt": [6132], "trial_type": "math-distractor", "key_times": [5591, 5821, 6132, 11822, 11990], "responses": ["25"], "num2": [9, 8], "num3": [8, 7], "conditions": [12, 800, "a", 12000], "internal_node_id": "0.0-78.0", "key_presses": [98, 101, 13, 98, 98], "trial": 3, "time_elapsed": 650773, "type": "DISTRACTOR", "trial_index": 105, "num1": [8, 7]}, "uniqueid": "MTK2023:3B1NLC6UG034FP0H4L3XWO8TLQAGPN", "dateTime": 1516649210625}, {"current_trial": 106, "trialdata": {"rt": -1, "trial_type": "single-stim", "stimulus": "<p id=\"stim\">10</p>", "internal_node_id": "0.0-79.0-0.0", "time_elapsed": 653775, "key_press": -1, "trial_index": 106}, "uniqueid": "MTK2023:3B1NLC6UG034FP0H4L3XWO8TLQAGPN", "dateTime": 1516649213627}, {"current_trial": 107, "trialdata": {"rt": -1, "trial_type": "single-stim", "stimulus": "<p id=\"stim\">9</p>", "internal_node_id": "0.0-79.0-1.0", "time_elapsed": 654778, "key_press": -1, "trial_index": 107}, "uniqueid": "MTK2023:3B1NLC6UG034FP0H4L3XWO8TLQAGPN", "dateTime": 1516649214630}, {"current_trial": 108, "trialdata": {"rt": -1, "trial_type": "single-stim", "stimulus": "<p id=\"stim\">8</p>", "internal_node_id": "0.0-79.0-2.0", "time_elapsed": 655780, "key_press": -1, "trial_index": 108}, "uniqueid": "MTK2023:3B1NLC6UG034FP0H4L3XWO8TLQAGPN", "dateTime": 1516649215632}, {"current_trial": 109, "trialdata": {"rt": -1, "trial_type": "single-stim", "stimulus": "<p id=\"stim\">7</p>", "internal_node_id": "0.0-79.0-3.0", "time_elapsed": 656781, "key_press": -1, "trial_index": 109}, "uniqueid": "MTK2023:3B1NLC6UG034FP0H4L3XWO8TLQAGPN", "dateTime": 1516649216633}, {"current_trial": 110, "trialdata": {"rt": -1, "trial_type": "single-stim", "stimulus": "<p id=\"stim\">6</p>", "internal_node_id": "0.0-79.0-4.0", "time_elapsed": 657783, "key_press": -1, "trial_index": 110}, "uniqueid": "MTK2023:3B1NLC6UG034FP0H4L3XWO8TLQAGPN", "dateTime": 1516649217635}, {"current_trial": 111, "trialdata": {"rt": -1, "trial_type": "single-stim", "stimulus": "<p id=\"stim\">5</p>", "internal_node_id": "0.0-79.0-5.0", "time_elapsed": 658784, "key_press": -1, "trial_index": 111}, "uniqueid": "MTK2023:3B1NLC6UG034FP0H4L3XWO8TLQAGPN", "dateTime": 1516649218636}, {"current_trial": 112, "trialdata": {"rt": -1, "trial_type": "single-stim", "stimulus": "<p id=\"stim\">4</p>", "internal_node_id": "0.0-79.0-6.0", "time_elapsed": 659785, "key_press": -1, "trial_index": 112}, "uniqueid": "MTK2023:3B1NLC6UG034FP0H4L3XWO8TLQAGPN", "dateTime": 1516649219637}, {"current_trial": 113, "trialdata": {"rt": -1, "trial_type": "single-stim", "stimulus": "<p id=\"stim\">3</p>", "internal_node_id": "0.0-79.0-7.0", "time_elapsed": 660786, "key_press": -1, "trial_index": 113}, "uniqueid": "MTK2023:3B1NLC6UG034FP0H4L3XWO8TLQAGPN", "dateTime": 1516649220638}, {"current_trial": 114, "trialdata": {"rt": -1, "trial_type": "single-stim", "stimulus": "<p id=\"stim\">2</p>", "internal_node_id": "0.0-79.0-8.0", "time_elapsed": 661787, "key_press": -1, "trial_index": 114}, "uniqueid": "MTK2023:3B1NLC6UG034FP0H4L3XWO8TLQAGPN", "dateTime": 1516649221639}, {"current_trial": 115, "trialdata": {"rt": -1, "trial_type": "single-stim", "stimulus": "<p id=\"stim\">1</p>", "internal_node_id": "0.0-79.0-9.0", "time_elapsed": 662788, "key_press": -1, "trial_index": 115}, "uniqueid": "MTK2023:3B1NLC6UG034FP0H4L3XWO8TLQAGPN", "dateTime": 1516649222640}, {"current_trial": 116, "trialdata": {"rt": -1, "trial_type": "single-stim", "stimulus": "<p id=\"stim\">+</p>", "internal_node_id": "0.0-80.0-0.0", "time_elapsed": 664290, "key_press": -1, "type": "FIXATION", "trial_index": 116}, "uniqueid": "MTK2023:3B1NLC6UG034FP0H4L3XWO8TLQAGPN", "dateTime": 1516649224142}, {"current_trial": 117, "trialdata": {"rt": -1000, "trial_type": "single-audio", "word": "virus", "stimulus": "/static/audio/wordpool/VIRUS.wav", "conditions": [12, 800, "a", 12000], "internal_node_id": "0.0-81.0", "trial": 3, "time_elapsed": 665896, "serialpos": 0, "key_press": -1, "wordID": 1571, "type": "PRES_AUD", "trial_index": 117}, "uniqueid": "MTK2023:3B1NLC6UG034FP0H4L3XWO8TLQAGPN", "dateTime": 1516649225749}, {"current_trial": 118, "trialdata": {"rt": -1000, "trial_type": "single-audio", "word": "raft", "stimulus": "/static/audio/wordpool/RAFT.wav", "conditions": [12, 800, "a", 12000], "internal_node_id": "0.0-82.0", "trial": 3, "time_elapsed": 667609, "serialpos": 1, "key_press": -1, "wordID": 1158, "type": "PRES_AUD", "trial_index": 118}, "uniqueid": "MTK2023:3B1NLC6UG034FP0H4L3XWO8TLQAGPN", "dateTime": 1516649227461}, {"current_trial": 119, "trialdata": {"rt": -1000, "trial_type": "single-audio", "word": "wagon", "stimulus": "/static/audio/wordpool/WAGON.wav", "conditions": [12, 800, "a", 12000], "internal_node_id": "0.0-83.0", "trial": 3, "time_elapsed": 669608, "serialpos": 2, "key_press": -1, "wordID": 1577, "type": "PRES_AUD", "trial_index": 119}, "uniqueid": "MTK2023:3B1NLC6UG034FP0H4L3XWO8TLQAGPN", "dateTime": 1516649229460}, {"current_trial": 120, "trialdata": {"rt": -1000, "trial_type": "single-audio", "word": "tractor", "stimulus": "/static/audio/wordpool/TRACTOR.wav", "conditions": [12, 800, "a", 12000], "internal_node_id": "0.0-84.0", "trial": 3, "time_elapsed": 671552, "serialpos": 3, "key_press": -1, "wordID": 1492, "type": "PRES_AUD", "trial_index": 120}, "uniqueid": "MTK2023:3B1NLC6UG034FP0H4L3XWO8TLQAGPN", "dateTime": 1516649231404}, {"current_trial": 121, "trialdata": {"rt": -1000, "trial_type": "single-audio", "word": "tweezers", "stimulus": "/static/audio/wordpool/TWEEZERS.wav", "conditions": [12, 800, "a", 12000], "internal_node_id": "0.0-85.0", "trial": 3, "time_elapsed": 673411, "serialpos": 4, "key_press": -1, "wordID": 1525, "type": "PRES_AUD", "trial_index": 121}, "uniqueid": "MTK2023:3B1NLC6UG034FP0H4L3XWO8TLQAGPN", "dateTime": 1516649233263}, {"current_trial": 122, "trialdata": {"rt": -1000, "trial_type": "single-audio", "word": "velvet", "stimulus": "/static/audio/wordpool/VELVET.wav", "conditions": [12, 800, "a", 12000], "internal_node_id": "0.0-86.0", "trial": 3, "time_elapsed": 675290, "serialpos": 5, "key_press": -1, "wordID": 1554, "type": "PRES_AUD", "trial_index": 122}, "uniqueid": "MTK2023:3B1NLC6UG034FP0H4L3XWO8TLQAGPN", "dateTime": 1516649235142}, {"current_trial": 123, "trialdata": {"rt": -1000, "trial_type": "single-audio", "word": "blockade", "stimulus": "/static/audio/wordpool/BLOCKADE.wav", "conditions": [12, 800, "a", 12000], "internal_node_id": "0.0-87.0", "trial": 3, "time_elapsed": 677039, "serialpos": 6, "key_press": -1, "wordID": 136, "type": "PRES_AUD", "trial_index": 123}, "uniqueid": "MTK2023:3B1NLC6UG034FP0H4L3XWO8TLQAGPN", "dateTime": 1516649236892}, {"current_trial": 124, "trialdata": {"rt": -1000, "trial_type": "single-audio", "word": "pliers", "stimulus": "/static/audio/wordpool/PLIERS.wav", "conditions": [12, 800, "a", 12000], "internal_node_id": "0.0-88.0", "trial": 3, "time_elapsed": 678648, "serialpos": 7, "key_press": -1, "wordID": 1088, "type": "PRES_AUD", "trial_index": 124}, "uniqueid": "MTK2023:3B1NLC6UG034FP0H4L3XWO8TLQAGPN", "dateTime": 1516649238500}, {"current_trial": 125, "trialdata": {"rt": -1000, "trial_type": "single-audio", "word": "barley", "stimulus": "/static/audio/wordpool/BARLEY.wav", "conditions": [12, 800, "a", 12000], "internal_node_id": "0.0-89.0", "trial": 3, "time_elapsed": 680260, "serialpos": 8, "key_press": -1, "wordID": 87, "type": "PRES_AUD", "trial_index": 125}, "uniqueid": "MTK2023:3B1NLC6UG034FP0H4L3XWO8TLQAGPN", "dateTime": 1516649240112}, {"current_trial": 126, "trialdata": {"rt": -1000, "trial_type": "single-audio", "word": "coffee", "stimulus": "/static/audio/wordpool/COFFEE.wav", "conditions": [12, 800, "a", 12000], "internal_node_id": "0.0-90.0", "trial": 3, "time_elapsed": 682157, "serialpos": 9, "key_press": -1, "wordID": 340, "type": "PRES_AUD", "trial_index": 126}, "uniqueid": "MTK2023:3B1NLC6UG034FP0H4L3XWO8TLQAGPN", "dateTime": 1516649242009}, {"current_trial": 127, "trialdata": {"rt": -1000, "trial_type": "single-audio", "word": "marsh", "stimulus": "/static/audio/wordpool/MARSH.wav", "conditions": [12, 800, "a", 12000], "internal_node_id": "0.0-91.0", "trial": 3, "time_elapsed": 683990, "serialpos": 10, "key_press": -1, "wordID": 873, "type": "PRES_AUD", "trial_index": 127}, "uniqueid": "MTK2023:3B1NLC6UG034FP0H4L3XWO8TLQAGPN", "dateTime": 1516649243842}, {"current_trial": 128, "trialdata": {"rt": -1000, "trial_type": "single-audio", "word": "dolphin", "stimulus": "/static/audio/wordpool/DOLPHIN.wav", "conditions": [12, 800, "a", 12000], "internal_node_id": "0.0-92.0", "trial": 3, "time_elapsed": 685636, "serialpos": 11, "key_press": -1, "wordID": 482, "type": "PRES_AUD", "trial_index": 128}, "uniqueid": "MTK2023:3B1NLC6UG034FP0H4L3XWO8TLQAGPN", "dateTime": 1516649245488}, {"current_trial": 129, "trialdata": {"rt": -1, "trial_type": "single-stim", "stimulus": "", "internal_node_id": "0.0-93.0-0.0", "time_elapsed": 686943, "key_press": -1, "type": "PRE_RECALL_DELAY", "trial_index": 129}, "uniqueid": "MTK2023:3B1NLC6UG034FP0H4L3XWO8TLQAGPN", "dateTime": 1516649246795}, {"current_trial": 130, "trialdata": {"rt": -1000, "trial_type": "single-audio", "stimulus": "/static/audio/400Hz.wav", "internal_node_id": "0.0-94.0", "time_elapsed": 687444, "key_press": -1, "type": "PRE_RECALL_ALERT", "trial_index": 130}, "uniqueid": "MTK2023:3B1NLC6UG034FP0H4L3XWO8TLQAGPN", "dateTime": 1516649247296}, {"current_trial": 131, "trialdata": {"rt": [2748, 5216, 9274, 19096, 23935, 24018, 27845, 47700], "recwords": ["dolphin", "coffe", "marsh", "velvet", "virus", "", "barley", ""], "key_times": [626, 975, 1245, 1502, 1748, 1959, 2136, 2748, 3283, 3614, 4069, 4262, 4444, 5216, 7688, 7835, 7996, 8438, 8585, 9274, 17078, 17254, 17366, 17921, 18106, 18329, 19096, 22461, 22613, 22765, 23071, 23246, 23935, 24018, 25895, 26042, 26247, 26645, 26907, 27072, 27845, 47700], "trial_type": "free-recall", "conditions": [12, 800, "a", 12000], "internal_node_id": "0.0-95.0-0.0", "key_presses": [68, 79, 76, 80, 72, 73, 78, 13, 67, 79, 70, 70, 69, 13, 77, 65, 82, 83, 72, 13, 86, 69, 76, 86, 69, 84, 13, 86, 73, 82, 85, 83, 13, 13, 66, 65, 82, 76, 69, 89, 13, 13], "trial": 3, "time_elapsed": 747448, "type": "FREE_RECALL", "trial_index": 131}, "uniqueid": "MTK2023:3B1NLC6UG034FP0H4L3XWO8TLQAGPN", "dateTime": 1516649307302}, {"current_trial": 132, "trialdata": {"rt": 2013, "trial_type": "text", "internal_node_id": "0.0-96.0", "time_elapsed": 751464, "key_press": 32, "type": "INSTRUCTIONS", "trial_index": 132}, "uniqueid": "MTK2023:3B1NLC6UG034FP0H4L3XWO8TLQAGPN", "dateTime": 1516649311316}, {"current_trial": 133, "trialdata": {"rt": [8246], "trial_type": "math-distractor", "key_times": [7631, 7847, 8246], "responses": ["14"], "num2": [2, 5], "num3": [9, 9], "conditions": [24, 1600, "a", 12000], "internal_node_id": "0.0-97.0", "key_presses": [97, 100, 13], "trial": 4, "time_elapsed": 765467, "type": "DISTRACTOR", "trial_index": 133, "num1": [3, 7]}, "uniqueid": "MTK2023:3B1NLC6UG034FP0H4L3XWO8TLQAGPN", "dateTime": 1516649325319}, {"current_trial": 134, "trialdata": {"rt": -1, "trial_type": "single-stim", "stimulus": "<p id=\"stim\">10</p>", "internal_node_id": "0.0-98.0-0.0", "time_elapsed": 768468, "key_press": -1, "trial_index": 134}, "uniqueid": "MTK2023:3B1NLC6UG034FP0H4L3XWO8TLQAGPN", "dateTime": 1516649328320}, {"current_trial": 135, "trialdata": {"rt": -1, "trial_type": "single-stim", "stimulus": "<p id=\"stim\">9</p>", "internal_node_id": "0.0-98.0-1.0", "time_elapsed": 769469, "key_press": -1, "trial_index": 135}, "uniqueid": "MTK2023:3B1NLC6UG034FP0H4L3XWO8TLQAGPN", "dateTime": 1516649329321}, {"current_trial": 136, "trialdata": {"rt": -1, "trial_type": "single-stim", "stimulus": "<p id=\"stim\">8</p>", "internal_node_id": "0.0-98.0-2.0", "time_elapsed": 770470, "key_press": -1, "trial_index": 136}, "uniqueid": "MTK2023:3B1NLC6UG034FP0H4L3XWO8TLQAGPN", "dateTime": 1516649330322}, {"current_trial": 137, "trialdata": {"rt": -1, "trial_type": "single-stim", "stimulus": "<p id=\"stim\">7</p>", "internal_node_id": "0.0-98.0-3.0", "time_elapsed": 771471, "key_press": -1, "trial_index": 137}, "uniqueid": "MTK2023:3B1NLC6UG034FP0H4L3XWO8TLQAGPN", "dateTime": 1516649331324}, {"current_trial": 138, "trialdata": {"rt": -1, "trial_type": "single-stim", "stimulus": "<p id=\"stim\">6</p>", "internal_node_id": "0.0-98.0-4.0", "time_elapsed": 772474, "key_press": -1, "trial_index": 138}, "uniqueid": "MTK2023:3B1NLC6UG034FP0H4L3XWO8TLQAGPN", "dateTime": 1516649332326}, {"current_trial": 139, "trialdata": {"rt": -1, "trial_type": "single-stim", "stimulus": "<p id=\"stim\">5</p>", "internal_node_id": "0.0-98.0-5.0", "time_elapsed": 773475, "key_press": -1, "trial_index": 139}, "uniqueid": "MTK2023:3B1NLC6UG034FP0H4L3XWO8TLQAGPN", "dateTime": 1516649333327}, {"current_trial": 140, "trialdata": {"rt": -1, "trial_type": "single-stim", "stimulus": "<p id=\"stim\">4</p>", "internal_node_id": "0.0-98.0-6.0", "time_elapsed": 774478, "key_press": -1, "trial_index": 140}, "uniqueid": "MTK2023:3B1NLC6UG034FP0H4L3XWO8TLQAGPN", "dateTime": 1516649334330}, {"current_trial": 141, "trialdata": {"rt": -1, "trial_type": "single-stim", "stimulus": "<p id=\"stim\">3</p>", "internal_node_id": "0.0-98.0-7.0", "time_elapsed": 775480, "key_press": -1, "trial_index": 141}, "uniqueid": "MTK2023:3B1NLC6UG034FP0H4L3XWO8TLQAGPN", "dateTime": 1516649335332}, {"current_trial": 142, "trialdata": {"rt": -1, "trial_type": "single-stim", "stimulus": "<p id=\"stim\">2</p>", "internal_node_id": "0.0-98.0-8.0", "time_elapsed": 776481, "key_press": -1, "trial_index": 142}, "uniqueid": "MTK2023:3B1NLC6UG034FP0H4L3XWO8TLQAGPN", "dateTime": 1516649336333}, {"current_trial": 143, "trialdata": {"rt": -1, "trial_type": "single-stim", "stimulus": "<p id=\"stim\">1</p>", "internal_node_id": "0.0-98.0-9.0", "time_elapsed": 777483, "key_press": -1, "trial_index": 143}, "uniqueid": "MTK2023:3B1NLC6UG034FP0H4L3XWO8TLQAGPN", "dateTime": 1516649337335}, {"current_trial": 144, "trialdata": {"rt": -1, "trial_type": "single-stim", "stimulus": "<p id=\"stim\">+</p>", "internal_node_id": "0.0-99.0-0.0", "time_elapsed": 778983, "key_press": -1, "type": "FIXATION", "trial_index": 144}, "uniqueid": "MTK2023:3B1NLC6UG034FP0H4L3XWO8TLQAGPN", "dateTime": 1516649338835}, {"current_trial": 145, "trialdata": {"rt": -1000, "trial_type": "single-audio", "word": "plate", "stimulus": "/static/audio/wordpool/PLATE.wav", "conditions": [24, 1600, "a", 12000], "internal_node_id": "0.0-100.0", "trial": 4, "time_elapsed": 781707, "serialpos": 0, "key_press": -1, "wordID": 1085, "type": "PRES_AUD", "trial_index": 145}, "uniqueid": "MTK2023:3B1NLC6UG034FP0H4L3XWO8TLQAGPN", "dateTime": 1516649341559}, {"current_trial": 146, "trialdata": {"rt": -1000, "trial_type": "single-audio", "word": "spoon", "stimulus": "/static/audio/wordpool/SPOON.wav", "conditions": [24, 1600, "a", 12000], "internal_node_id": "0.0-101.0", "trial": 4, "time_elapsed": 784448, "serialpos": 1, "key_press": -1, "wordID": 1356, "type": "PRES_AUD", "trial_index": 146}, "uniqueid": "MTK2023:3B1NLC6UG034FP0H4L3XWO8TLQAGPN", "dateTime": 1516649344300}, {"current_trial": 147, "trialdata": {"rt": -1000, "trial_type": "single-audio", "word": "turkey", "stimulus": "/static/audio/wordpool/TURKEY.wav", "conditions": [24, 1600, "a", 12000], "internal_node_id": "0.0-102.0", "trial": 4, "time_elapsed": 787214, "serialpos": 2, "key_press": -1, "wordID": 1519, "type": "PRES_AUD", "trial_index": 147}, "uniqueid": "MTK2023:3B1NLC6UG034FP0H4L3XWO8TLQAGPN", "dateTime": 1516649347066}, {"current_trial": 148, "trialdata": {"rt": -1000, "trial_type": "single-audio", "word": "valley", "stimulus": "/static/audio/wordpool/VALLEY.wav", "conditions": [24, 1600, "a", 12000], "internal_node_id": "0.0-103.0", "trial": 4, "time_elapsed": 789661, "serialpos": 3, "key_press": -1, "wordID": 1544, "type": "PRES_AUD", "trial_index": 148}, "uniqueid": "MTK2023:3B1NLC6UG034FP0H4L3XWO8TLQAGPN", "dateTime": 1516649349513}, {"current_trial": 149, "trialdata": {"rt": -1000, "trial_type": "single-audio", "word": "gallon", "stimulus": "/static/audio/wordpool/GALLON.wav", "conditions": [24, 1600, "a", 12000], "internal_node_id": "0.0-104.0", "trial": 4, "time_elapsed": 792250, "serialpos": 4, "key_press": -1, "wordID": 617, "type": "PRES_AUD", "trial_index": 149}, "uniqueid": "MTK2023:3B1NLC6UG034FP0H4L3XWO8TLQAGPN", "dateTime": 1516649352102}, {"current_trial": 150, "trialdata": {"rt": -1000, "trial_type": "single-audio", "word": "rust", "stimulus": "/static/audio/wordpool/RUST.wav", "conditions": [24, 1600, "a", 12000], "internal_node_id": "0.0-105.0", "trial": 4, "time_elapsed": 794999, "serialpos": 5, "key_press": -1, "wordID": 1218, "type": "PRES_AUD", "trial_index": 150}, "uniqueid": "MTK2023:3B1NLC6UG034FP0H4L3XWO8TLQAGPN", "dateTime": 1516649354851}, {"current_trial": 151, "trialdata": {"rt": -1000, "trial_type": "single-audio", "word": "plaid", "stimulus": "/static/audio/wordpool/PLAID.wav", "conditions": [24, 1600, "a", 12000], "internal_node_id": "0.0-106.0", "trial": 4, "time_elapsed": 797475, "serialpos": 6, "key_press": -1, "wordID": 1079, "type": "PRES_AUD", "trial_index": 151}, "uniqueid": "MTK2023:3B1NLC6UG034FP0H4L3XWO8TLQAGPN", "dateTime": 1516649357327}, {"current_trial": 152, "trialdata": {"rt": -1000, "trial_type": "single-audio", "word": "quail", "stimulus": "/static/audio/wordpool/QUAIL.wav", "conditions": [24, 1600, "a", 12000], "internal_node_id": "0.0-107.0", "trial": 4, "time_elapsed": 800211, "serialpos": 7, "key_press": -1, "wordID": 1146, "type": "PRES_AUD", "trial_index": 152}, "uniqueid": "MTK2023:3B1NLC6UG034FP0H4L3XWO8TLQAGPN", "dateTime": 1516649360063}, {"current_trial": 153, "trialdata": {"rt": -1000, "trial_type": "single-audio", "word": "softball", "stimulus": "/static/audio/wordpool/SOFTBALL.wav", "conditions": [24, 1600, "a", 12000], "internal_node_id": "0.0-108.0", "trial": 4, "time_elapsed": 802673, "serialpos": 8, "key_press": -1, "wordID": 1342, "type": "PRES_AUD", "trial_index": 153}, "uniqueid": "MTK2023:3B1NLC6UG034FP0H4L3XWO8TLQAGPN", "dateTime": 1516649362525}, {"current_trial": 154, "trialdata": {"rt": -1000, "trial_type": "single-audio", "word": "pastry", "stimulus": "/static/audio/wordpool/PASTRY.wav", "conditions": [24, 1600, "a", 12000], "internal_node_id": "0.0-109.0", "trial": 4, "time_elapsed": 805371, "serialpos": 9, "key_press": -1, "wordID": 1021, "type": "PRES_AUD", "trial_index": 154}, "uniqueid": "MTK2023:3B1NLC6UG034FP0H4L3XWO8TLQAGPN", "dateTime": 1516649365223}, {"current_trial": 155, "trialdata": {"rt": -1000, "trial_type": "single-audio", "word": "fragrance", "stimulus": "/static/audio/wordpool/FRAGRANCE.wav", "conditions": [24, 1600, "a", 12000], "internal_node_id": "0.0-110.0", "trial": 4, "time_elapsed": 807880, "serialpos": 10, "key_press": -1, "wordID": 598, "type": "PRES_AUD", "trial_index": 155}, "uniqueid": "MTK2023:3B1NLC6UG034FP0H4L3XWO8TLQAGPN", "dateTime": 1516649367732}, {"current_trial": 156, "trialdata": {"rt": -1000, "trial_type": "single-audio", "word": "perfume", "stimulus": "/static/audio/wordpool/PERFUME.wav", "conditions": [24, 1600, "a", 12000], "internal_node_id": "0.0-111.0", "trial": 4, "time_elapsed": 810642, "serialpos": 11, "key_press": -1, "wordID": 1048, "type": "PRES_AUD", "trial_index": 156}, "uniqueid": "MTK2023:3B1NLC6UG034FP0H4L3XWO8TLQAGPN", "dateTime": 1516649370494}, {"current_trial": 157, "trialdata": {"rt": -1000, "trial_type": "single-audio", "word": "lily", "stimulus": "/static/audio/wordpool/LILY.wav", "conditions": [24, 1600, "a", 12000], "internal_node_id": "0.0-112.0", "trial": 4, "time_elapsed": 813050, "serialpos": 12, "key_press": -1, "wordID": 820, "type": "PRES_AUD", "trial_index": 157}, "uniqueid": "MTK2023:3B1NLC6UG034FP0H4L3XWO8TLQAGPN", "dateTime": 1516649372902}, {"current_trial": 158, "trialdata": {"rt": -1000, "trial_type": "single-audio", "word": "branch", "stimulus": "/static/audio/wordpool/BRANCH.wav", "conditions": [24, 1600, "a", 12000], "internal_node_id": "0.0-113.0", "trial": 4, "time_elapsed": 815564, "serialpos": 13, "key_press": -1, "wordID": 167, "type": "PRES_AUD", "trial_index": 158}, "uniqueid": "MTK2023:3B1NLC6UG034FP0H4L3XWO8TLQAGPN", "dateTime": 1516649375417}, {"current_trial": 159, "trialdata": {"rt": -1000, "trial_type": "single-audio", "word": "bank", "stimulus": "/static/audio/wordpool/BANK.wav", "conditions": [24, 1600, "a", 12000], "internal_node_id": "0.0-114.0", "trial": 4, "time_elapsed": 818221, "serialpos": 14, "key_press": -1, "wordID": 82, "type": "PRES_AUD", "trial_index": 159}, "uniqueid": "MTK2023:3B1NLC6UG034FP0H4L3XWO8TLQAGPN", "dateTime": 1516649378073}, {"current_trial": 160, "trialdata": {"rt": -1000, "trial_type": "single-audio", "word": "mammal", "stimulus": "/static/audio/wordpool/MAMMAL.wav", "conditions": [24, 1600, "a", 12000], "internal_node_id": "0.0-115.0", "trial": 4, "time_elapsed": 820993, "serialpos": 15, "key_press": -1, "wordID": 860, "type": "PRES_AUD", "trial_index": 160}, "uniqueid": "MTK2023:3B1NLC6UG034FP0H4L3XWO8TLQAGPN", "dateTime": 1516649380845}, {"current_trial": 161, "trialdata": {"rt": -1000, "trial_type": "single-audio", "word": "venus", "stimulus": "/static/audio/wordpool/VENUS.wav", "conditions": [24, 1600, "a", 12000], "internal_node_id": "0.0-116.0", "trial": 4, "time_elapsed": 823526, "serialpos": 16, "key_press": -1, "wordID": 1556, "type": "PRES_AUD", "trial_index": 161}, "uniqueid": "MTK2023:3B1NLC6UG034FP0H4L3XWO8TLQAGPN", "dateTime": 1516649383378}, {"current_trial": 162, "trialdata": {"rt": -1000, "trial_type": "single-audio", "word": "yarn", "stimulus": "/static/audio/wordpool/YARN.wav", "conditions": [24, 1600, "a", 12000], "internal_node_id": "0.0-117.0", "trial": 4, "time_elapsed": 825970, "serialpos": 17, "key_press": -1, "wordID": 1630, "type": "PRES_AUD", "trial_index": 162}, "uniqueid": "MTK2023:3B1NLC6UG034FP0H4L3XWO8TLQAGPN", "dateTime": 1516649385822}, {"current_trial": 163, "trialdata": {"rt": -1000, "trial_type": "single-audio", "word": "apron", "stimulus": "/static/audio/wordpool/APRON.wav", "conditions": [24, 1600, "a", 12000], "internal_node_id": "0.0-118.0", "trial": 4, "time_elapsed": 828429, "serialpos": 18, "key_press": -1, "wordID": 34, "type": "PRES_AUD", "trial_index": 163}, "uniqueid": "MTK2023:3B1NLC6UG034FP0H4L3XWO8TLQAGPN", "dateTime": 1516649388281}, {"current_trial": 164, "trialdata": {"rt": -1000, "trial_type": "single-audio", "word": "drink", "stimulus": "/static/audio/wordpool/DRINK.wav", "conditions": [24, 1600, "a", 12000], "internal_node_id": "0.0-119.0", "trial": 4, "time_elapsed": 830861, "serialpos": 19, "key_press": -1, "wordID": 497, "type": "PRES_AUD", "trial_index": 164}, "uniqueid": "MTK2023:3B1NLC6UG034FP0H4L3XWO8TLQAGPN", "dateTime": 1516649390713}, {"current_trial": 165, "trialdata": {"rt": -1000, "trial_type": "single-audio", "word": "picnic", "stimulus": "/static/audio/wordpool/PICNIC.wav", "conditions": [24, 1600, "a", 12000], "internal_node_id": "0.0-120.0", "trial": 4, "time_elapsed": 833652, "serialpos": 20, "key_press": -1, "wordID": 1059, "type": "PRES_AUD", "trial_index": 165}, "uniqueid": "MTK2023:3B1NLC6UG034FP0H4L3XWO8TLQAGPN", "dateTime": 1516649393504}, {"current_trial": 166, "trialdata": {"rt": -1000, "trial_type": "single-audio", "word": "guard", "stimulus": "/static/audio/wordpool/GUARD.wav", "conditions": [24, 1600, "a", 12000], "internal_node_id": "0.0-121.0", "trial": 4, "time_elapsed": 836420, "serialpos": 21, "key_press": -1, "wordID": 666, "type": "PRES_AUD", "trial_index": 166}, "uniqueid": "MTK2023:3B1NLC6UG034FP0H4L3XWO8TLQAGPN", "dateTime": 1516649396272}, {"current_trial": 167, "trialdata": {"rt": -1000, "trial_type": "single-audio", "word": "shark", "stimulus": "/static/audio/wordpool/SHARK.wav", "conditions": [24, 1600, "a", 12000], "internal_node_id": "0.0-122.0", "trial": 4, "time_elapsed": 838884, "serialpos": 22, "key_press": -1, "wordID": 1274, "type": "PRES_AUD", "trial_index": 167}, "uniqueid": "MTK2023:3B1NLC6UG034FP0H4L3XWO8TLQAGPN", "dateTime": 1516649398736}, {"current_trial": 168, "trialdata": {"rt": -1000, "trial_type": "single-audio", "word": "lamp", "stimulus": "/static/audio/wordpool/LAMP.wav", "conditions": [24, 1600, "a", 12000], "internal_node_id": "0.0-123.0", "trial": 4, "time_elapsed": 841347, "serialpos": 23, "key_press": -1, "wordID": 797, "type": "PRES_AUD", "trial_index": 168}, "uniqueid": "MTK2023:3B1NLC6UG034FP0H4L3XWO8TLQAGPN", "dateTime": 1516649401199}, {"current_trial": 169, "trialdata": {"rt": -1, "trial_type": "single-stim", "stimulus": "", "internal_node_id": "0.0-124.0-0.0", "time_elapsed": 842602, "key_press": -1, "type": "PRE_RECALL_DELAY", "trial_index": 169}, "uniqueid": "MTK2023:3B1NLC6UG034FP0H4L3XWO8TLQAGPN", "dateTime": 1516649402454}, {"current_trial": 170, "trialdata": {"rt": -1000, "trial_type": "single-audio", "stimulus": "/static/audio/400Hz.wav", "internal_node_id": "0.0-125.0", "time_elapsed": 843103, "key_press": -1, "type": "PRE_RECALL_ALERT", "trial_index": 170}, "uniqueid": "MTK2023:3B1NLC6UG034FP0H4L3XWO8TLQAGPN", "dateTime": 1516649402955}, {"current_trial": 171, "trialdata": {"rt": [3724, 6261, 8266, 11657, 14507, 17307], "recwords": ["lamp", "shark", "guard", "fragrance", "perfume", "lily"], "key_times": [1761, 2326, 2552, 2935, 3724, 4436, 4589, 4763, 4981, 5606, 6261, 6667, 6979, 7159, 7334, 7652, 8266, 8632, 8837, 9042, 9299, 9573, 10190, 10355, 10555, 10644, 10922, 11174, 11657, 12562, 12683, 12874, 13121, 13300, 13594, 14007, 14507, 14994, 15434, 15660, 16177, 17307, 19228, 21089], "trial_type": "free-recall", "conditions": [24, 1600, "a", 12000], "internal_node_id": "0.0-126.0-0.0", "key_presses": [76, 65, 77, 80, 13, 83, 72, 65, 82, 75, 13, 71, 85, 65, 82, 68, 13, 70, 82, 65, 71, 65, 8, 82, 65, 78, 67, 69, 13, 80, 69, 82, 70, 85, 77, 69, 13, 76, 73, 76, 89, 13, 86, 8], "trial": 4, "time_elapsed": 903105, "type": "FREE_RECALL", "trial_index": 171}, "uniqueid": "MTK2023:3B1NLC6UG034FP0H4L3XWO8TLQAGPN", "dateTime": 1516649462961}, {"current_trial": 172, "trialdata": {"rt": 2678, "trial_type": "text", "internal_node_id": "0.0-127.0", "time_elapsed": 907789, "key_press": 32, "type": "INSTRUCTIONS", "trial_index": 172}, "uniqueid": "MTK2023:3B1NLC6UG034FP0H4L3XWO8TLQAGPN", "dateTime": 1516649467641}, {"current_trial": 173, "trialdata": {"rt": [5776, 9968, 15587, 18722], "trial_type": "math-distractor", "key_times": [4762, 4967, 5776, 9274, 9534, 9968, 14854, 15022, 15587, 17732, 17926, 18722, 23538], "responses": ["12", "13", "22", "14"], "num2": [7, 8, 6, 2, 5], "num3": [2, 2, 8, 6, 2], "conditions": [24, 1600, "a", 24000], "internal_node_id": "0.0-128.0", "key_presses": [97, 98, 13, 97, 99, 13, 98, 98, 13, 97, 100, 13, 97], "trial": 5, "time_elapsed": 933792, "type": "DISTRACTOR", "trial_index": 173, "num1": [3, 3, 8, 6, 9]}, "uniqueid": "MTK2023:3B1NLC6UG034FP0H4L3XWO8TLQAGPN", "dateTime": 1516649493644}, {"current_trial": 174, "trialdata": {"rt": -1, "trial_type": "single-stim", "stimulus": "<p id=\"stim\">10</p>", "internal_node_id": "0.0-129.0-0.0", "time_elapsed": 936795, "key_press": -1, "trial_index": 174}, "uniqueid": "MTK2023:3B1NLC6UG034FP0H4L3XWO8TLQAGPN", "dateTime": 1516649496647}, {"current_trial": 175, "trialdata": {"rt": -1, "trial_type": "single-stim", "stimulus": "<p id=\"stim\">9</p>", "internal_node_id": "0.0-129.0-1.0", "time_elapsed": 937798, "key_press": -1, "trial_index": 175}, "uniqueid": "MTK2023:3B1NLC6UG034FP0H4L3XWO8TLQAGPN", "dateTime": 1516649497650}, {"current_trial": 176, "trialdata": {"rt": -1, "trial_type": "single-stim", "stimulus": "<p id=\"stim\">8</p>", "internal_node_id": "0.0-129.0-2.0", "time_elapsed": 938799, "key_press": -1, "trial_index": 176}, "uniqueid": "MTK2023:3B1NLC6UG034FP0H4L3XWO8TLQAGPN", "dateTime": 1516649498651}, {"current_trial": 177, "trialdata": {"rt": -1, "trial_type": "single-stim", "stimulus": "<p id=\"stim\">7</p>", "internal_node_id": "0.0-129.0-3.0", "time_elapsed": 939801, "key_press": -1, "trial_index": 177}, "uniqueid": "MTK2023:3B1NLC6UG034FP0H4L3XWO8TLQAGPN", "dateTime": 1516649499653}, {"current_trial": 178, "trialdata": {"rt": -1, "trial_type": "single-stim", "stimulus": "<p id=\"stim\">6</p>", "internal_node_id": "0.0-129.0-4.0", "time_elapsed": 940803, "key_press": -1, "trial_index": 178}, "uniqueid": "MTK2023:3B1NLC6UG034FP0H4L3XWO8TLQAGPN", "dateTime": 1516649500655}, {"current_trial": 179, "trialdata": {"rt": -1, "trial_type": "single-stim", "stimulus": "<p id=\"stim\">5</p>", "internal_node_id": "0.0-129.0-5.0", "time_elapsed": 941805, "key_press": -1, "trial_index": 179}, "uniqueid": "MTK2023:3B1NLC6UG034FP0H4L3XWO8TLQAGPN", "dateTime": 1516649501657}, {"current_trial": 180, "trialdata": {"rt": -1, "trial_type": "single-stim", "stimulus": "<p id=\"stim\">4</p>", "internal_node_id": "0.0-129.0-6.0", "time_elapsed": 942806, "key_press": -1, "trial_index": 180}, "uniqueid": "MTK2023:3B1NLC6UG034FP0H4L3XWO8TLQAGPN", "dateTime": 1516649502658}, {"current_trial": 181, "trialdata": {"rt": -1, "trial_type": "single-stim", "stimulus": "<p id=\"stim\">3</p>", "internal_node_id": "0.0-129.0-7.0", "time_elapsed": 943807, "key_press": -1, "trial_index": 181}, "uniqueid": "MTK2023:3B1NLC6UG034FP0H4L3XWO8TLQAGPN", "dateTime": 1516649503659}, {"current_trial": 182, "trialdata": {"rt": -1, "trial_type": "single-stim", "stimulus": "<p id=\"stim\">2</p>", "internal_node_id": "0.0-129.0-8.0", "time_elapsed": 944809, "key_press": -1, "trial_index": 182}, "uniqueid": "MTK2023:3B1NLC6UG034FP0H4L3XWO8TLQAGPN", "dateTime": 1516649504661}, {"current_trial": 183, "trialdata": {"rt": -1, "trial_type": "single-stim", "stimulus": "<p id=\"stim\">1</p>", "internal_node_id": "0.0-129.0-9.0", "time_elapsed": 945812, "key_press": -1, "trial_index": 183}, "uniqueid": "MTK2023:3B1NLC6UG034FP0H4L3XWO8TLQAGPN", "dateTime": 1516649505664}, {"current_trial": 184, "trialdata": {"rt": -1, "trial_type": "single-stim", "stimulus": "<p id=\"stim\">+</p>", "internal_node_id": "0.0-130.0-0.0", "time_elapsed": 947314, "key_press": -1, "type": "FIXATION", "trial_index": 184}, "uniqueid": "MTK2023:3B1NLC6UG034FP0H4L3XWO8TLQAGPN", "dateTime": 1516649507166}, {"current_trial": 185, "trialdata": {"rt": -1000, "trial_type": "single-audio", "word": "author", "stimulus": "/static/audio/wordpool/AUTHOR.wav", "conditions": [24, 1600, "a", 24000], "internal_node_id": "0.0-131.0", "trial": 5, "time_elapsed": 949726, "serialpos": 0, "key_press": -1, "wordID": 60, "type": "PRES_AUD", "trial_index": 185}, "uniqueid": "MTK2023:3B1NLC6UG034FP0H4L3XWO8TLQAGPN", "dateTime": 1516649509578}, {"current_trial": 186, "trialdata": {"rt": -1000, "trial_type": "single-audio", "word": "robber", "stimulus": "/static/audio/wordpool/ROBBER.wav", "conditions": [24, 1600, "a", 24000], "internal_node_id": "0.0-132.0", "trial": 5, "time_elapsed": 952521, "serialpos": 1, "key_press": -1, "wordID": 1196, "type": "PRES_AUD", "trial_index": 186}, "uniqueid": "MTK2023:3B1NLC6UG034FP0H4L3XWO8TLQAGPN", "dateTime": 1516649512373}, {"current_trial": 187, "trialdata": {"rt": -1000, "trial_type": "single-audio", "word": "scotch", "stimulus": "/static/audio/wordpool/SCOTCH.wav", "conditions": [24, 1600, "a", 24000], "internal_node_id": "0.0-133.0", "trial": 5, "time_elapsed": 955030, "serialpos": 2, "key_press": -1, "wordID": 1250, "type": "PRES_AUD", "trial_index": 187}, "uniqueid": "MTK2023:3B1NLC6UG034FP0H4L3XWO8TLQAGPN", "dateTime": 1516649514882}, {"current_trial": 188, "trialdata": {"rt": -1000, "trial_type": "single-audio", "word": "pigeon", "stimulus": "/static/audio/wordpool/PIGEON.wav", "conditions": [24, 1600, "a", 24000], "internal_node_id": "0.0-134.0", "trial": 5, "time_elapsed": 957574, "serialpos": 3, "key_press": -1, "wordID": 1064, "type": "PRES_AUD", "trial_index": 188}, "uniqueid": "MTK2023:3B1NLC6UG034FP0H4L3XWO8TLQAGPN", "dateTime": 1516649517426}, {"current_trial": 189, "trialdata": {"rt": -1000, "trial_type": "single-audio", "word": "county", "stimulus": "/static/audio/wordpool/COUNTY.wav", "conditions": [24, 1600, "a", 24000], "internal_node_id": "0.0-135.0", "trial": 5, "time_elapsed": 960304, "serialpos": 4, "key_press": -1, "wordID": 388, "type": "PRES_AUD", "trial_index": 189}, "uniqueid": "MTK2023:3B1NLC6UG034FP0H4L3XWO8TLQAGPN", "dateTime": 1516649520156}, {"current_trial": 190, "trialdata": {"rt": -1000, "trial_type": "single-audio", "word": "film", "stimulus": "/static/audio/wordpool/FILM.wav", "conditions": [24, 1600, "a", 24000], "internal_node_id": "0.0-136.0", "trial": 5, "time_elapsed": 963035, "serialpos": 5, "key_press": -1, "wordID": 564, "type": "PRES_AUD", "trial_index": 190}, "uniqueid": "MTK2023:3B1NLC6UG034FP0H4L3XWO8TLQAGPN", "dateTime": 1516649522887}, {"current_trial": 191, "trialdata": {"rt": -1000, "trial_type": "single-audio", "word": "actor", "stimulus": "/static/audio/wordpool/ACTOR.wav", "conditions": [24, 1600, "a", 24000], "internal_node_id": "0.0-137.0", "trial": 5, "time_elapsed": 965659, "serialpos": 6, "key_press": -1, "wordID": 4, "type": "PRES_AUD", "trial_index": 191}, "uniqueid": "MTK2023:3B1NLC6UG034FP0H4L3XWO8TLQAGPN", "dateTime": 1516649525512}, {"current_trial": 192, "trialdata": {"rt": -1000, "trial_type": "single-audio", "word": "couch", "stimulus": "/static/audio/wordpool/COUCH.wav", "conditions": [24, 1600, "a", 24000], "internal_node_id": "0.0-138.0", "trial": 5, "time_elapsed": 968395, "serialpos": 7, "key_press": -1, "wordID": 385, "type": "PRES_AUD", "trial_index": 192}, "uniqueid": "MTK2023:3B1NLC6UG034FP0H4L3XWO8TLQAGPN", "dateTime": 1516649528247}, {"current_trial": 193, "trialdata": {"rt": -1000, "trial_type": "single-audio", "word": "pizza", "stimulus": "/static/audio/wordpool/PIZZA.wav", "conditions": [24, 1600, "a", 24000], "internal_node_id": "0.0-139.0", "trial": 5, "time_elapsed": 970799, "serialpos": 8, "key_press": -1, "wordID": 1078, "type": "PRES_AUD", "trial_index": 193}, "uniqueid": "MTK2023:3B1NLC6UG034FP0H4L3XWO8TLQAGPN", "dateTime": 1516649530651}, {"current_trial": 194, "trialdata": {"rt": -1000, "trial_type": "single-audio", "word": "airport", "stimulus": "/static/audio/wordpool/AIRPORT.wav", "conditions": [24, 1600, "a", 24000], "internal_node_id": "0.0-140.0", "trial": 5, "time_elapsed": 973236, "serialpos": 9, "key_press": -1, "wordID": 12, "type": "PRES_AUD", "trial_index": 194}, "uniqueid": "MTK2023:3B1NLC6UG034FP0H4L3XWO8TLQAGPN", "dateTime": 1516649533088}, {"current_trial": 195, "trialdata": {"rt": -1000, "trial_type": "single-audio", "word": "stamp", "stimulus": "/static/audio/wordpool/STAMP.wav", "conditions": [24, 1600, "a", 24000], "internal_node_id": "0.0-141.0", "trial": 5, "time_elapsed": 975978, "serialpos": 10, "key_press": -1, "wordID": 1369, "type": "PRES_AUD", "trial_index": 195}, "uniqueid": "MTK2023:3B1NLC6UG034FP0H4L3XWO8TLQAGPN", "dateTime": 1516649535830}, {"current_trial": 196, "trialdata": {"rt": -1000, "trial_type": "single-audio", "word": "rabbit", "stimulus": "/static/audio/wordpool/RABBIT.wav", "conditions": [24, 1600, "a", 24000], "internal_node_id": "0.0-142.0", "trial": 5, "time_elapsed": 978430, "serialpos": 11, "key_press": -1, "wordID": 1151, "type": "PRES_AUD", "trial_index": 196}, "uniqueid": "MTK2023:3B1NLC6UG034FP0H4L3XWO8TLQAGPN", "dateTime": 1516649538282}, {"current_trial": 197, "trialdata": {"rt": -1000, "trial_type": "single-audio", "word": "chauffeur", "stimulus": "/static/audio/wordpool/CHAUFFEUR.wav", "conditions": [24, 1600, "a", 24000], "internal_node_id": "0.0-143.0", "trial": 5, "time_elapsed": 980856, "serialpos": 12, "key_press": -1, "wordID": 282, "type": "PRES_AUD", "trial_index": 197}, "uniqueid": "MTK2023:3B1NLC6UG034FP0H4L3XWO8TLQAGPN", "dateTime": 1516649540708}, {"current_trial": 198, "trialdata": {"rt": -1000, "trial_type": "single-audio", "word": "novel", "stimulus": "/static/audio/wordpool/NOVEL.wav", "conditions": [24, 1600, "a", 24000], "internal_node_id": "0.0-144.0", "trial": 5, "time_elapsed": 983263, "serialpos": 13, "key_press": -1, "wordID": 959, "type": "PRES_AUD", "trial_index": 198}, "uniqueid": "MTK2023:3B1NLC6UG034FP0H4L3XWO8TLQAGPN", "dateTime": 1516649543115}, {"current_trial": 199, "trialdata": {"rt": -1000, "trial_type": "single-audio", "word": "suspect", "stimulus": "/static/audio/wordpool/SUSPECT.wav", "conditions": [24, 1600, "a", 24000], "internal_node_id": "0.0-145.0", "trial": 5, "time_elapsed": 985707, "serialpos": 14, "key_press": -1, "wordID": 1414, "type": "PRES_AUD", "trial_index": 199}, "uniqueid": "MTK2023:3B1NLC6UG034FP0H4L3XWO8TLQAGPN", "dateTime": 1516649545559}, {"current_trial": 200, "trialdata": {"rt": -1000, "trial_type": "single-audio", "word": "victim", "stimulus": "/static/audio/wordpool/VICTIM.wav", "conditions": [24, 1600, "a", 24000], "internal_node_id": "0.0-146.0", "trial": 5, "time_elapsed": 988315, "serialpos": 15, "key_press": -1, "wordID": 1561, "type": "PRES_AUD", "trial_index": 200}, "uniqueid": "MTK2023:3B1NLC6UG034FP0H4L3XWO8TLQAGPN", "dateTime": 1516649548167}, {"current_trial": 201, "trialdata": {"rt": -1000, "trial_type": "single-audio", "word": "student", "stimulus": "/static/audio/wordpool/STUDENT.wav", "conditions": [24, 1600, "a", 24000], "internal_node_id": "0.0-147.0", "trial": 5, "time_elapsed": 990793, "serialpos": 16, "key_press": -1, "wordID": 1394, "type": "PRES_AUD", "trial_index": 201}, "uniqueid": "MTK2023:3B1NLC6UG034FP0H4L3XWO8TLQAGPN", "dateTime": 1516649550645}, {"current_trial": 202, "trialdata": {"rt": -1000, "trial_type": "single-audio", "word": "space", "stimulus": "/static/audio/wordpool/SPACE.wav", "conditions": [24, 1600, "a", 24000], "internal_node_id": "0.0-148.0", "trial": 5, "time_elapsed": 993197, "serialpos": 17, "key_press": -1, "wordID": 1344, "type": "PRES_AUD", "trial_index": 202}, "uniqueid": "MTK2023:3B1NLC6UG034FP0H4L3XWO8TLQAGPN", "dateTime": 1516649553049}, {"current_trial": 203, "trialdata": {"rt": -1000, "trial_type": "single-audio", "word": "tart", "stimulus": "/static/audio/wordpool/TART.wav", "conditions": [24, 1600, "a", 24000], "internal_node_id": "0.0-149.0", "trial": 5, "time_elapsed": 995785, "serialpos": 18, "key_press": -1, "wordID": 1435, "type": "PRES_AUD", "trial_index": 203}, "uniqueid": "MTK2023:3B1NLC6UG034FP0H4L3XWO8TLQAGPN", "dateTime": 1516649555637}, {"current_trial": 204, "trialdata": {"rt": -1000, "trial_type": "single-audio", "word": "cook", "stimulus": "/static/audio/wordpool/COOK.wav", "conditions": [24, 1600, "a", 24000], "internal_node_id": "0.0-150.0", "trial": 5, "time_elapsed": 998249, "serialpos": 19, "key_press": -1, "wordID": 371, "type": "PRES_AUD", "trial_index": 204}, "uniqueid": "MTK2023:3B1NLC6UG034FP0H4L3XWO8TLQAGPN", "dateTime": 1516649558102}, {"current_trial": 205, "trialdata": {"rt": -1000, "trial_type": "single-audio", "word": "dorm", "stimulus": "/static/audio/wordpool/DORM.wav", "conditions": [24, 1600, "a", 24000], "internal_node_id": "0.0-151.0", "trial": 5, "time_elapsed": 1000962, "serialpos": 20, "key_press": -1, "wordID": 487, "type": "PRES_AUD", "trial_index": 205}, "uniqueid": "MTK2023:3B1NLC6UG034FP0H4L3XWO8TLQAGPN", "dateTime": 1516649560814}, {"current_trial": 206, "trialdata": {"rt": -1000, "trial_type": "single-audio", "word": "casket", "stimulus": "/static/audio/wordpool/CASKET.wav", "conditions": [24, 1600, "a", 24000], "internal_node_id": "0.0-152.0", "trial": 5, "time_elapsed": 1003742, "serialpos": 21, "key_press": -1, "wordID": 254, "type": "PRES_AUD", "trial_index": 206}, "uniqueid": "MTK2023:3B1NLC6UG034FP0H4L3XWO8TLQAGPN", "dateTime": 1516649563594}, {"current_trial": 207, "trialdata": {"rt": -1000, "trial_type": "single-audio", "word": "wife", "stimulus": "/static/audio/wordpool/WIFE.wav", "conditions": [24, 1600, "a", 24000], "internal_node_id": "0.0-153.0", "trial": 5, "time_elapsed": 1006472, "serialpos": 22, "key_press": -1, "wordID": 1608, "type": "PRES_AUD", "trial_index": 207}, "uniqueid": "MTK2023:3B1NLC6UG034FP0H4L3XWO8TLQAGPN", "dateTime": 1516649566324}, {"current_trial": 208, "trialdata": {"rt": -1000, "trial_type": "single-audio", "word": "label", "stimulus": "/static/audio/wordpool/LABEL.wav", "conditions": [24, 1600, "a", 24000], "internal_node_id": "0.0-154.0", "trial": 5, "time_elapsed": 1008920, "serialpos": 23, "key_press": -1, "wordID": 789, "type": "PRES_AUD", "trial_index": 208}, "uniqueid": "MTK2023:3B1NLC6UG034FP0H4L3XWO8TLQAGPN", "dateTime": 1516649568772}, {"current_trial": 209, "trialdata": {"rt": -1, "trial_type": "single-stim", "stimulus": "", "internal_node_id": "0.0-155.0-0.0", "time_elapsed": 1010124, "key_press": -1, "type": "PRE_RECALL_DELAY", "trial_index": 209}, "uniqueid": "MTK2023:3B1NLC6UG034FP0H4L3XWO8TLQAGPN", "dateTime": 1516649569976}, {"current_trial": 210, "trialdata": {"rt": -1000, "trial_type": "single-audio", "stimulus": "/static/audio/400Hz.wav", "internal_node_id": "0.0-156.0", "time_elapsed": 1010625, "key_press": -1, "type": "PRE_RECALL_ALERT", "trial_index": 210}, "uniqueid": "MTK2023:3B1NLC6UG034FP0H4L3XWO8TLQAGPN", "dateTime": 1516649570477}, {"current_trial": 211, "trialdata": {"rt": [5217, 9274, 11713, 16109, 18935, 22731, 24610, 30634, 33607, 54301], "recwords": ["labe", "casket", "dorm'", "student", "author", "film", "space", "victim", "suspect", "wife"], "key_times": [941, 1212, 1676, 2453, 2686, 5052, 5217, 6614, 6789, 7057, 8362, 8469, 8650, 9274, 10649, 10791, 10916, 11045, 11552, 11713, 12718, 12981, 13137, 13538, 13716, 13884, 14062, 14247, 14465, 14765, 15031, 15213, 15430, 16109, 16879, 17012, 17204, 17342, 17485, 17961, 18224, 18350, 18934, 18935, 20526, 20762, 20974, 22042, 22731, 23239, 23425, 23586, 23843, 24075, 24610, 27963, 28093, 28593, 28807, 28966, 29512, 29825, 30018, 30634, 30945, 31131, 31336, 32092, 32257, 32546, 32787, 33607, 51131, 51223, 52429, 52621, 52848, 53121, 53390, 53708, 54301], "trial_type": "free-recall", "conditions": [24, 1600, "a", 24000], "internal_node_id": "0.0-157.0-0.0", "key_presses": [76, 65, 86, 8, 66, 69, 186, 67, 65, 83, 75, 69, 84, 13, 68, 79, 82, 77, 222, 13, 68, 84, 85, 8, 8, 8, 83, 84, 85, 68, 69, 78, 84, 13, 65, 85, 84, 72, 69, 8, 79, 82, 16, 13, 70, 73, 76, 77, 13, 83, 80, 65, 67, 69, 32, 86, 73, 67, 84, 85, 8, 73, 77, 13, 83, 85, 83, 80, 69, 67, 84, 13, 69, 73, 8, 8, 87, 73, 70, 69, 13], "trial": 5, "time_elapsed": 1070628, "type": "FREE_RECALL", "trial_index": 211}, "uniqueid": "MTK2023:3B1NLC6UG034FP0H4L3XWO8TLQAGPN", "dateTime": 1516649630483}, {"current_trial": 212, "trialdata": {"rt": 7348, "trial_type": "text", "internal_node_id": "0.0-158.0", "time_elapsed": 1079979, "key_press": 32, "type": "INSTRUCTIONS", "trial_index": 212}, "uniqueid": "MTK2023:3B1NLC6UG034FP0H4L3XWO8TLQAGPN", "dateTime": 1516649639831}, {"current_trial": 213, "trialdata": {"rt": [6507, 10797], "trial_type": "math-distractor", "key_times": [5359, 5660, 6507, 8944, 9273, 10797], "responses": ["17", "19"], "num2": [5, 2, 9], "num3": [4, 9, 5], "conditions": [12, 800, "a", 12000], "internal_node_id": "0.0-159.0", "key_presses": [97, 103, 13, 97, 105, 13], "trial": 6, "time_elapsed": 1093982, "type": "DISTRACTOR", "trial_index": 213, "num1": [8, 8, 8]}, "uniqueid": "MTK2023:3B1NLC6UG034FP0H4L3XWO8TLQAGPN", "dateTime": 1516649653834}, {"current_trial": 214, "trialdata": {"rt": -1, "trial_type": "single-stim", "stimulus": "<p id=\"stim\">10</p>", "internal_node_id": "0.0-160.0-0.0", "time_elapsed": 1096985, "key_press": -1, "trial_index": 214}, "uniqueid": "MTK2023:3B1NLC6UG034FP0H4L3XWO8TLQAGPN", "dateTime": 1516649656837}, {"current_trial": 215, "trialdata": {"rt": -1, "trial_type": "single-stim", "stimulus": "<p id=\"stim\">9</p>", "internal_node_id": "0.0-160.0-1.0", "time_elapsed": 1097986, "key_press": -1, "trial_index": 215}, "uniqueid": "MTK2023:3B1NLC6UG034FP0H4L3XWO8TLQAGPN", "dateTime": 1516649657839}, {"current_trial": 216, "trialdata": {"rt": -1, "trial_type": "single-stim", "stimulus": "<p id=\"stim\">8</p>", "internal_node_id": "0.0-160.0-2.0", "time_elapsed": 1098987, "key_press": -1, "trial_index": 216}, "uniqueid": "MTK2023:3B1NLC6UG034FP0H4L3XWO8TLQAGPN", "dateTime": 1516649658840}, {"current_trial": 217, "trialdata": {"rt": -1, "trial_type": "single-stim", "stimulus": "<p id=\"stim\">7</p>", "internal_node_id": "0.0-160.0-3.0", "time_elapsed": 1099988, "key_press": -1, "trial_index": 217}, "uniqueid": "MTK2023:3B1NLC6UG034FP0H4L3XWO8TLQAGPN", "dateTime": 1516649659840}, {"current_trial": 218, "trialdata": {"rt": -1, "trial_type": "single-stim", "stimulus": "<p id=\"stim\">6</p>", "internal_node_id": "0.0-160.0-4.0", "time_elapsed": 1100990, "key_press": -1, "trial_index": 218}, "uniqueid": "MTK2023:3B1NLC6UG034FP0H4L3XWO8TLQAGPN", "dateTime": 1516649660842}, {"current_trial": 219, "trialdata": {"rt": -1, "trial_type": "single-stim", "stimulus": "<p id=\"stim\">5</p>", "internal_node_id": "0.0-160.0-5.0", "time_elapsed": 1101993, "key_press": -1, "trial_index": 219}, "uniqueid": "MTK2023:3B1NLC6UG034FP0H4L3XWO8TLQAGPN", "dateTime": 1516649661845}, {"current_trial": 220, "trialdata": {"rt": -1, "trial_type": "single-stim", "stimulus": "<p id=\"stim\">4</p>", "internal_node_id": "0.0-160.0-6.0", "time_elapsed": 1102994, "key_press": -1, "trial_index": 220}, "uniqueid": "MTK2023:3B1NLC6UG034FP0H4L3XWO8TLQAGPN", "dateTime": 1516649662846}, {"current_trial": 221, "trialdata": {"rt": -1, "trial_type": "single-stim", "stimulus": "<p id=\"stim\">3</p>", "internal_node_id": "0.0-160.0-7.0", "time_elapsed": 1103995, "key_press": -1, "trial_index": 221}, "uniqueid": "MTK2023:3B1NLC6UG034FP0H4L3XWO8TLQAGPN", "dateTime": 1516649663847}, {"current_trial": 222, "trialdata": {"rt": -1, "trial_type": "single-stim", "stimulus": "<p id=\"stim\">2</p>", "internal_node_id": "0.0-160.0-8.0", "time_elapsed": 1104997, "key_press": -1, "trial_index": 222}, "uniqueid": "MTK2023:3B1NLC6UG034FP0H4L3XWO8TLQAGPN", "dateTime": 1516649664849}, {"current_trial": 223, "trialdata": {"rt": -1, "trial_type": "single-stim", "stimulus": "<p id=\"stim\">1</p>", "internal_node_id": "0.0-160.0-9.0", "time_elapsed": 1105998, "key_press": -1, "trial_index": 223}, "uniqueid": "MTK2023:3B1NLC6UG034FP0H4L3XWO8TLQAGPN", "dateTime": 1516649665850}, {"current_trial": 224, "trialdata": {"rt": -1, "trial_type": "single-stim", "stimulus": "<p id=\"stim\">+</p>", "internal_node_id": "0.0-161.0-0.0", "time_elapsed": 1107499, "key_press": -1, "type": "FIXATION", "trial_index": 224}, "uniqueid": "MTK2023:3B1NLC6UG034FP0H4L3XWO8TLQAGPN", "dateTime": 1516649667351}, {"current_trial": 225, "trialdata": {"rt": -1000, "trial_type": "single-audio", "word": "shorts", "stimulus": "/static/audio/wordpool/SHORTS.wav", "conditions": [12, 800, "a", 12000], "internal_node_id": "0.0-162.0", "trial": 6, "time_elapsed": 1109101, "serialpos": 0, "key_press": -1, "wordID": 1292, "type": "PRES_AUD", "trial_index": 225}, "uniqueid": "MTK2023:3B1NLC6UG034FP0H4L3XWO8TLQAGPN", "dateTime": 1516649668953}, {"current_trial": 226, "trialdata": {"rt": -1000, "trial_type": "single-audio", "word": "asia", "stimulus": "/static/audio/wordpool/ASIA.wav", "conditions": [12, 800, "a", 12000], "internal_node_id": "0.0-163.0", "trial": 6, "time_elapsed": 1111064, "serialpos": 1, "key_press": -1, "wordID": 45, "type": "PRES_AUD", "trial_index": 226}, "uniqueid": "MTK2023:3B1NLC6UG034FP0H4L3XWO8TLQAGPN", "dateTime": 1516649670916}, {"current_trial": 227, "trialdata": {"rt": -1000, "trial_type": "single-audio", "word": "grave", "stimulus": "/static/audio/wordpool/GRAVE.wav", "conditions": [12, 800, "a", 12000], "internal_node_id": "0.0-164.0", "trial": 6, "time_elapsed": 1113047, "serialpos": 2, "key_press": -1, "wordID": 657, "type": "PRES_AUD", "trial_index": 227}, "uniqueid": "MTK2023:3B1NLC6UG034FP0H4L3XWO8TLQAGPN", "dateTime": 1516649672899}, {"current_trial": 228, "trialdata": {"rt": -1000, "trial_type": "single-audio", "word": "sausage", "stimulus": "/static/audio/wordpool/SAUSAGE.wav", "conditions": [12, 800, "a", 12000], "internal_node_id": "0.0-165.0", "trial": 6, "time_elapsed": 1114761, "serialpos": 3, "key_press": -1, "wordID": 1237, "type": "PRES_AUD", "trial_index": 228}, "uniqueid": "MTK2023:3B1NLC6UG034FP0H4L3XWO8TLQAGPN", "dateTime": 1516649674613}, {"current_trial": 229, "trialdata": {"rt": -1000, "trial_type": "single-audio", "word": "pork", "stimulus": "/static/audio/wordpool/PORK.wav", "conditions": [12, 800, "a", 12000], "internal_node_id": "0.0-166.0", "trial": 6, "time_elapsed": 1116568, "serialpos": 4, "key_press": -1, "wordID": 1107, "type": "PRES_AUD", "trial_index": 229}, "uniqueid": "MTK2023:3B1NLC6UG034FP0H4L3XWO8TLQAGPN", "dateTime": 1516649676420}, {"current_trial": 230, "trialdata": {"rt": -1000, "trial_type": "single-audio", "word": "razor", "stimulus": "/static/audio/wordpool/RAZOR.wav", "conditions": [12, 800, "a", 12000], "internal_node_id": "0.0-167.0", "trial": 6, "time_elapsed": 1118273, "serialpos": 5, "key_press": -1, "wordID": 1170, "type": "PRES_AUD", "trial_index": 230}, "uniqueid": "MTK2023:3B1NLC6UG034FP0H4L3XWO8TLQAGPN", "dateTime": 1516649678125}, {"current_trial": 231, "trialdata": {"rt": -1000, "trial_type": "single-audio", "word": "laser", "stimulus": "/static/audio/wordpool/LASER.wav", "conditions": [12, 800, "a", 12000], "internal_node_id": "0.0-168.0", "trial": 6, "time_elapsed": 1119894, "serialpos": 6, "key_press": -1, "wordID": 800, "type": "PRES_AUD", "trial_index": 231}, "uniqueid": "MTK2023:3B1NLC6UG034FP0H4L3XWO8TLQAGPN", "dateTime": 1516649679746}, {"current_trial": 232, "trialdata": {"rt": -1000, "trial_type": "single-audio", "word": "japan", "stimulus": "/static/audio/wordpool/JAPAN.wav", "conditions": [12, 800, "a", 12000], "internal_node_id": "0.0-169.0", "trial": 6, "time_elapsed": 1121728, "serialpos": 7, "key_press": -1, "wordID": 748, "type": "PRES_AUD", "trial_index": 232}, "uniqueid": "MTK2023:3B1NLC6UG034FP0H4L3XWO8TLQAGPN", "dateTime": 1516649681581}, {"current_trial": 233, "trialdata": {"rt": -1000, "trial_type": "single-audio", "word": "helmet", "stimulus": "/static/audio/wordpool/HELMET.wav", "conditions": [12, 800, "a", 12000], "internal_node_id": "0.0-170.0", "trial": 6, "time_elapsed": 1123399, "serialpos": 8, "key_press": -1, "wordID": 701, "type": "PRES_AUD", "trial_index": 233}, "uniqueid": "MTK2023:3B1NLC6UG034FP0H4L3XWO8TLQAGPN", "dateTime": 1516649683251}, {"current_trial": 234, "trialdata": {"rt": -1000, "trial_type": "single-audio", "word": "fireplace", "stimulus": "/static/audio/wordpool/FIREPLACE.wav", "conditions": [12, 800, "a", 12000], "internal_node_id": "0.0-171.0", "trial": 6, "time_elapsed": 1125220, "serialpos": 9, "key_press": -1, "wordID": 569, "type": "PRES_AUD", "trial_index": 234}, "uniqueid": "MTK2023:3B1NLC6UG034FP0H4L3XWO8TLQAGPN", "dateTime": 1516649685073}, {"current_trial": 235, "trialdata": {"rt": -1000, "trial_type": "single-audio", "word": "sphinx", "stimulus": "/static/audio/wordpool/SPHINX.wav", "conditions": [12, 800, "a", 12000], "internal_node_id": "0.0-172.0", "trial": 6, "time_elapsed": 1127026, "serialpos": 10, "key_press": -1, "wordID": 1348, "type": "PRES_AUD", "trial_index": 235}, "uniqueid": "MTK2023:3B1NLC6UG034FP0H4L3XWO8TLQAGPN", "dateTime": 1516649686879}, {"current_trial": 236, "trialdata": {"rt": -1000, "trial_type": "single-audio", "word": "child", "stimulus": "/static/audio/wordpool/CHILD.wav", "conditions": [12, 800, "a", 12000], "internal_node_id": "0.0-173.0", "trial": 6, "time_elapsed": 1128984, "serialpos": 11, "key_press": -1, "wordID": 298, "type": "PRES_AUD", "trial_index": 236}, "uniqueid": "MTK2023:3B1NLC6UG034FP0H4L3XWO8TLQAGPN", "dateTime": 1516649688836}, {"current_trial": 237, "trialdata": {"rt": -1, "trial_type": "single-stim", "stimulus": "", "internal_node_id": "0.0-174.0-0.0", "time_elapsed": 1130337, "key_press": -1, "type": "PRE_RECALL_DELAY", "trial_index": 237}, "uniqueid": "MTK2023:3B1NLC6UG034FP0H4L3XWO8TLQAGPN", "dateTime": 1516649690189}, {"current_trial": 238, "trialdata": {"rt": -1000, "trial_type": "single-audio", "stimulus": "/static/audio/400Hz.wav", "internal_node_id": "0.0-175.0", "time_elapsed": 1130837, "key_press": -1, "type": "PRE_RECALL_ALERT", "trial_index": 238}, "uniqueid": "MTK2023:3B1NLC6UG034FP0H4L3XWO8TLQAGPN", "dateTime": 1516649690690}, {"current_trial": 239, "trialdata": {"rt": [3943, 6963, 8799, 11178, 13773, 16013, 25667, 50039], "recwords": ["child", "fireplace", "fix", "laser", "asia", "japan", "sausage", ""], "key_times": [885, 1425, 1651, 2482, 2861, 3062, 3270, 3943, 4288, 4471, 4752, 5002, 5485, 5694, 5842, 6103, 6332, 6963, 7465, 7814, 8025, 8799, 9426, 9578, 10050, 10310, 10536, 11178, 11591, 11765, 12169, 12387, 12743, 13773, 14304, 14434, 14620, 14844, 15086, 15233, 16013, 23324, 23590, 23826, 24321, 24547, 24752, 24933, 25667, 50039], "trial_type": "free-recall", "conditions": [12, 800, "a", 12000], "internal_node_id": "0.0-176.0-0.0", "key_presses": [67, 72, 79, 8, 73, 76, 68, 13, 70, 73, 82, 69, 80, 76, 65, 67, 69, 13, 70, 73, 88, 13, 76, 65, 83, 69, 82, 13, 16, 65, 83, 73, 65, 13, 16, 74, 65, 80, 65, 78, 13, 83, 65, 85, 83, 65, 71, 69, 13, 13], "trial": 6, "time_elapsed": 1190840, "type": "FREE_RECALL", "trial_index": 239}, "uniqueid": "MTK2023:3B1NLC6UG034FP0H4L3XWO8TLQAGPN", "dateTime": 1516649750695}, {"current_trial": 240, "trialdata": {"rt": 5446, "trial_type": "text", "internal_node_id": "0.0-177.0", "time_elapsed": 1198290, "key_press": 32, "type": "INSTRUCTIONS", "trial_index": 240}, "uniqueid": "MTK2023:3B1NLC6UG034FP0H4L3XWO8TLQAGPN", "dateTime": 1516649758142}, {"current_trial": 241, "trialdata": {"rt": [5382, 9136], "trial_type": "math-distractor", "key_times": [4444, 4705, 5382, 8378, 9136], "responses": ["17", "9"], "num2": [9, 1, 8], "num3": [1, 1, 8], "conditions": [24, 800, "a", 12000], "internal_node_id": "0.0-178.0", "key_presses": [97, 103, 13, 105, 13], "trial": 7, "time_elapsed": 1212293, "type": "DISTRACTOR", "trial_index": 241, "num1": [7, 7, 5]}, "uniqueid": "MTK2023:3B1NLC6UG034FP0H4L3XWO8TLQAGPN", "dateTime": 1516649772145}, {"current_trial": 242, "trialdata": {"rt": -1, "trial_type": "single-stim", "stimulus": "<p id=\"stim\">10</p>", "internal_node_id": "0.0-179.0-0.0", "time_elapsed": 1215296, "key_press": -1, "trial_index": 242}, "uniqueid": "MTK2023:3B1NLC6UG034FP0H4L3XWO8TLQAGPN", "dateTime": 1516649775149}, {"current_trial": 243, "trialdata": {"rt": -1, "trial_type": "single-stim", "stimulus": "<p id=\"stim\">9</p>", "internal_node_id": "0.0-179.0-1.0", "time_elapsed": 1216298, "key_press": -1, "trial_index": 243}, "uniqueid": "MTK2023:3B1NLC6UG034FP0H4L3XWO8TLQAGPN", "dateTime": 1516649776150}, {"current_trial": 244, "trialdata": {"rt": -1, "trial_type": "single-stim", "stimulus": "<p id=\"stim\">8</p>", "internal_node_id": "0.0-179.0-2.0", "time_elapsed": 1217299, "key_press": -1, "trial_index": 244}, "uniqueid": "MTK2023:3B1NLC6UG034FP0H4L3XWO8TLQAGPN", "dateTime": 1516649777151}, {"current_trial": 245, "trialdata": {"rt": -1, "trial_type": "single-stim", "stimulus": "<p id=\"stim\">7</p>", "internal_node_id": "0.0-179.0-3.0", "time_elapsed": 1218301, "key_press": -1, "trial_index": 245}, "uniqueid": "MTK2023:3B1NLC6UG034FP0H4L3XWO8TLQAGPN", "dateTime": 1516649778153}, {"current_trial": 246, "trialdata": {"rt": -1, "trial_type": "single-stim", "stimulus": "<p id=\"stim\">6</p>", "internal_node_id": "0.0-179.0-4.0", "time_elapsed": 1219302, "key_press": -1, "trial_index": 246}, "uniqueid": "MTK2023:3B1NLC6UG034FP0H4L3XWO8TLQAGPN", "dateTime": 1516649779154}, {"current_trial": 247, "trialdata": {"rt": -1, "trial_type": "single-stim", "stimulus": "<p id=\"stim\">5</p>", "internal_node_id": "0.0-179.0-5.0", "time_elapsed": 1220305, "key_press": -1, "trial_index": 247}, "uniqueid": "MTK2023:3B1NLC6UG034FP0H4L3XWO8TLQAGPN", "dateTime": 1516649780157}, {"current_trial": 248, "trialdata": {"rt": -1, "trial_type": "single-stim", "stimulus": "<p id=\"stim\">4</p>", "internal_node_id": "0.0-179.0-6.0", "time_elapsed": 1221306, "key_press": -1, "trial_index": 248}, "uniqueid": "MTK2023:3B1NLC6UG034FP0H4L3XWO8TLQAGPN", "dateTime": 1516649781159}, {"current_trial": 249, "trialdata": {"rt": -1, "trial_type": "single-stim", "stimulus": "<p id=\"stim\">3</p>", "internal_node_id": "0.0-179.0-7.0", "time_elapsed": 1222309, "key_press": -1, "trial_index": 249}, "uniqueid": "MTK2023:3B1NLC6UG034FP0H4L3XWO8TLQAGPN", "dateTime": 1516649782161}, {"current_trial": 250, "trialdata": {"rt": -1, "trial_type": "single-stim", "stimulus": "<p id=\"stim\">2</p>", "internal_node_id": "0.0-179.0-8.0", "time_elapsed": 1223311, "key_press": -1, "trial_index": 250}, "uniqueid": "MTK2023:3B1NLC6UG034FP0H4L3XWO8TLQAGPN", "dateTime": 1516649783163}, {"current_trial": 251, "trialdata": {"rt": -1, "trial_type": "single-stim", "stimulus": "<p id=\"stim\">1</p>", "internal_node_id": "0.0-179.0-9.0", "time_elapsed": 1224313, "key_press": -1, "trial_index": 251}, "uniqueid": "MTK2023:3B1NLC6UG034FP0H4L3XWO8TLQAGPN", "dateTime": 1516649784165}, {"current_trial": 252, "trialdata": {"rt": -1, "trial_type": "single-stim", "stimulus": "<p id=\"stim\">+</p>", "internal_node_id": "0.0-180.0-0.0", "time_elapsed": 1225814, "key_press": -1, "type": "FIXATION", "trial_index": 252}, "uniqueid": "MTK2023:3B1NLC6UG034FP0H4L3XWO8TLQAGPN", "dateTime": 1516649785666}, {"current_trial": 253, "trialdata": {"rt": -1000, "trial_type": "single-audio", "word": "dustpan", "stimulus": "/static/audio/wordpool/DUSTPAN.wav", "conditions": [24, 800, "a", 12000], "internal_node_id": "0.0-181.0", "trial": 7, "time_elapsed": 1227577, "serialpos": 0, "key_press": -1, "wordID": 508, "type": "PRES_AUD", "trial_index": 253}, "uniqueid": "MTK2023:3B1NLC6UG034FP0H4L3XWO8TLQAGPN", "dateTime": 1516649787429}, {"current_trial": 254, "trialdata": {"rt": -1000, "trial_type": "single-audio", "word