{"assignmentId": "3WI0P0II62ZMFI65FN6EVY5BA83DR8", "workerId": "MTK2384", "questiondata": {"origin": "United States", "strat-rehearsal": "10", "marital": "Single", "education": "Bachelor's degree", "ethnicity": "Not Hispanic", "color_depth": 24, "distracted": "No", "wrote-notes": "No", "strat-other": "None", "screen_width": 1920, "avail_screen_width": 1920, "avail_screen_height": 1040, "strat-image": "93", "language": "English", "gender": "Male", "age": "26", "gender_other": "", "race": ["White"], "strat-categorize": "16", "pixel_depth": 24, "strat-spatial": "0", "strat-story": "83", "race_other": "", "screen_height": 1080}, "bonus": 0, "hitId": "3IJ95K7NDXJ2PKQAY4L33F7E353NGN", "counterbalance": 1824, "useragent": "Mozilla/5.0 (Windows NT 6.1; Win64; x64) AppleWebKit/537.36 (KHTML, like Gecko) Chrome/64.0.3282.119 Safari/537.36", "eventdata": [{"eventtype": "initialized", "interval": 0, "value": null, "timestamp": 1517014606382}, {"eventtype": "window_resize", "interval": 0, "value": [1920, 990], "timestamp": 1517014606382}, {"eventtype": "focus", "interval": 10601, "value": "off", "timestamp": 1517014616983}, {"eventtype": "focus", "interval": 6813, "value": "on", "timestamp": 1517014623796}, {"eventtype": "focus", "interval": 14641, "value": "off", "timestamp": 1517014638437}, {"eventtype": "focus", "interval": 11, "value": "on", "timestamp": 1517014638448}, {"eventtype": "focus", "interval": 1028685, "value": "off", "timestamp": 1517015667133}, {"eventtype": "focus", "interval": 46, "value": "on", "timestamp": 1517015667179}, {"eventtype": "focus", "interval": 2129346, "value": "off", "timestamp": 1517017796525}, {"eventtype": "focus", "interval": 2957, "value": "on", "timestamp": 1517017799482}], "data": [{"current_trial": 0, "trialdata": {"rt": 2476, "trial_type": "text", "internal_node_id": "0.0-0.0", "time_elapsed": 2478, "key_press": 32, "type": "INSTRUCTIONS", "trial_index": 0}, "uniqueid": "MTK2384:3WI0P0II62ZMFI65FN6EVY5BA83DR8", "dateTime": 1517014642135}, {"current_trial": 1, "trialdata": {"rt": 15070, "trial_type": "text", "internal_node_id": "0.0-1.0", "time_elapsed": 17551, "key_press": 32, "type": "INSTRUCTIONS", "trial_index": 1}, "uniqueid": "MTK2384:3WI0P0II62ZMFI65FN6EVY5BA83DR8", "dateTime": 1517014657207}, {"current_trial": 2, "trialdata": {"rt": [9957], "trial_type": "audio-test", "responses": ["ocean"], "internal_node_id": "0.0-2.0", "time_elapsed": 27615, "type": "AUDIO_TEST", "trial_index": 2}, "uniqueid": "MTK2384:3WI0P0II62ZMFI65FN6EVY5BA83DR8", "dateTime": 1517014667271}, {"current_trial": 3, "trialdata": {"rt": [6998], "trial_type": "audio-test", "responses": ["crystal"], "internal_node_id": "0.0-3.0", "time_elapsed": 34622, "type": "AUDIO_TEST", "trial_index": 3}, "uniqueid": "MTK2384:3WI0P0II62ZMFI65FN6EVY5BA83DR8", "dateTime": 1517014674278}, {"current_trial": 4, "trialdata": {"rt": [4458], "trial_type": "audio-test", "responses": ["spice"], "internal_node_id": "0.0-4.0", "time_elapsed": 39086, "type": "AUDIO_TEST", "trial_index": 4}, "uniqueid": "MTK2384:3WI0P0II62ZMFI65FN6EVY5BA83DR8", "dateTime": 1517014678743}, {"current_trial": 5, "trialdata": {"rt": 22914, "trial_type": "survey-text", "responses": "{\"Q0\":\"2 am\",\"Q1\":\"10 am\",\"Q2\":\"5\"}", "internal_node_id": "0.0-5.0", "time_elapsed": 62752, "type": "SLEEP_SURVEY", "trial_index": 5}, "uniqueid": "MTK2384:3WI0P0II62ZMFI65FN6EVY5BA83DR8", "dateTime": 1517014702408}, {"current_trial": 6, "trialdata": {"rt": 87627, "trial_type": "text", "internal_node_id": "0.0-6.0", "time_elapsed": 151381, "key_press": 32, "type": "INSTRUCTIONS", "trial_index": 6}, "uniqueid": "MTK2384:3WI0P0II62ZMFI65FN6EVY5BA83DR8", "dateTime": 1517014791037}, {"current_trial": 7, "trialdata": {"rt": 28162, "trial_type": "text", "internal_node_id": "0.0-7.0", "time_elapsed": 180044, "key_press": 32, "type": "INSTRUCTIONS", "trial_index": 7}, "uniqueid": "MTK2384:3WI0P0II62ZMFI65FN6EVY5BA83DR8", "dateTime": 1517014819700}, {"current_trial": 8, "trialdata": {"rt": 8994, "trial_type": "text", "internal_node_id": "0.0-8.0", "time_elapsed": 189540, "key_press": 32, "type": "INSTRUCTIONS", "trial_index": 8}, "uniqueid": "MTK2384:3WI0P0II62ZMFI65FN6EVY5BA83DR8", "dateTime": 1517014829196}, {"current_trial": 9, "trialdata": {"rt": [5386, 10754, 13099, 17709], "trial_type": "math-distractor", "key_times": [4694, 4786, 5386, 9395, 9523, 10754, 12771, 12867, 13099, 17355, 17466, 17709], "responses": ["21", "21", "14", "22"], "num2": [6, 9, 7, 7, 6], "num3": [9, 8, 4, 7, 6], "conditions": [18, 1200, "a", 18000], "internal_node_id": "0.0-9.0", "key_presses": [98, 97, 13, 98, 97, 13, 97, 100, 13, 98, 98, 13], "trial": 0, "time_elapsed": 208546, "type": "DISTRACTOR", "trial_index": 9, "num1": [6, 4, 3, 8, 5]}, "uniqueid": "MTK2384:3WI0P0II62ZMFI65FN6EVY5BA83DR8", "dateTime": 1517014848202}, {"current_trial": 10, "trialdata": {"rt": -1, "trial_type": "single-stim", "stimulus": "<p id=\"stim\">10</p>", "internal_node_id": "0.0-10.0-0.0", "time_elapsed": 211549, "key_press": -1, "trial_index": 10}, "uniqueid": "MTK2384:3WI0P0II62ZMFI65FN6EVY5BA83DR8", "dateTime": 1517014851205}, {"current_trial": 11, "trialdata": {"rt": -1, "trial_type": "single-stim", "stimulus": "<p id=\"stim\">9</p>", "internal_node_id": "0.0-10.0-1.0", "time_elapsed": 212551, "key_press": -1, "trial_index": 11}, "uniqueid": "MTK2384:3WI0P0II62ZMFI65FN6EVY5BA83DR8", "dateTime": 1517014852207}, {"current_trial": 12, "trialdata": {"rt": -1, "trial_type": "single-stim", "stimulus": "<p id=\"stim\">8</p>", "internal_node_id": "0.0-10.0-2.0", "time_elapsed": 213552, "key_press": -1, "trial_index": 12}, "uniqueid": "MTK2384:3WI0P0II62ZMFI65FN6EVY5BA83DR8", "dateTime": 1517014853208}, {"current_trial": 13, "trialdata": {"rt": -1, "trial_type": "single-stim", "stimulus": "<p id=\"stim\">7</p>", "internal_node_id": "0.0-10.0-3.0", "time_elapsed": 214554, "key_press": -1, "trial_index": 13}, "uniqueid": "MTK2384:3WI0P0II62ZMFI65FN6EVY5BA83DR8", "dateTime": 1517014854210}, {"current_trial": 14, "trialdata": {"rt": -1, "trial_type": "single-stim", "stimulus": "<p id=\"stim\">6</p>", "internal_node_id": "0.0-10.0-4.0", "time_elapsed": 215555, "key_press": -1, "trial_index": 14}, "uniqueid": "MTK2384:3WI0P0II62ZMFI65FN6EVY5BA83DR8", "dateTime": 1517014855211}, {"current_trial": 15, "trialdata": {"rt": -1, "trial_type": "single-stim", "stimulus": "<p id=\"stim\">5</p>", "internal_node_id": "0.0-10.0-5.0", "time_elapsed": 216557, "key_press": -1, "trial_index": 15}, "uniqueid": "MTK2384:3WI0P0II62ZMFI65FN6EVY5BA83DR8", "dateTime": 1517014856213}, {"current_trial": 16, "trialdata": {"rt": -1, "trial_type": "single-stim", "stimulus": "<p id=\"stim\">4</p>", "internal_node_id": "0.0-10.0-6.0", "time_elapsed": 217558, "key_press": -1, "trial_index": 16}, "uniqueid": "MTK2384:3WI0P0II62ZMFI65FN6EVY5BA83DR8", "dateTime": 1517014857215}, {"current_trial": 17, "trialdata": {"rt": -1, "trial_type": "single-stim", "stimulus": "<p id=\"stim\">3</p>", "internal_node_id": "0.0-10.0-7.0", "time_elapsed": 218561, "key_press": -1, "trial_index": 17}, "uniqueid": "MTK2384:3WI0P0II62ZMFI65FN6EVY5BA83DR8", "dateTime": 1517014858217}, {"current_trial": 18, "trialdata": {"rt": -1, "trial_type": "single-stim", "stimulus": "<p id=\"stim\">2</p>", "internal_node_id": "0.0-10.0-8.0", "time_elapsed": 219570, "key_press": -1, "trial_index": 18}, "uniqueid": "MTK2384:3WI0P0II62ZMFI65FN6EVY5BA83DR8", "dateTime": 1517014859226}, {"current_trial": 19, "trialdata": {"rt": -1, "trial_type": "single-stim", "stimulus": "<p id=\"stim\">1</p>", "internal_node_id": "0.0-10.0-9.0", "time_elapsed": 220572, "key_press": -1, "trial_index": 19}, "uniqueid": "MTK2384:3WI0P0II62ZMFI65FN6EVY5BA83DR8", "dateTime": 1517014860228}, {"current_trial": 20, "trialdata": {"rt": -1, "trial_type": "single-stim", "stimulus": "<p id=\"stim\">+</p>", "internal_node_id": "0.0-11.0-0.0", "time_elapsed": 222075, "key_press": -1, "type": "FIXATION", "trial_index": 20}, "uniqueid": "MTK2384:3WI0P0II62ZMFI65FN6EVY5BA83DR8", "dateTime": 1517014861731}, {"current_trial": 21, "trialdata": {"rt": -1000, "trial_type": "single-audio", "word": "college", "stimulus": "/static/audio/wordpool/COLLEGE.wav", "conditions": [18, 1200, "a", 18000], "internal_node_id": "0.0-12.0", "trial": 0, "time_elapsed": 224117, "serialpos": 0, "key_press": -1, "wordID": 345, "type": "PRES_AUD", "trial_index": 21}, "uniqueid": "MTK2384:3WI0P0II62ZMFI65FN6EVY5BA83DR8", "dateTime": 1517014863773}, {"current_trial": 22, "trialdata": {"rt": -1000, "trial_type": "single-audio", "word": "report", "stimulus": "/static/audio/wordpool/REPORT.wav", "conditions": [18, 1200, "a", 18000], "internal_node_id": "0.0-13.0", "trial": 0, "time_elapsed": 226498, "serialpos": 1, "key_press": -1, "wordID": 1183, "type": "PRES_AUD", "trial_index": 22}, "uniqueid": "MTK2384:3WI0P0II62ZMFI65FN6EVY5BA83DR8", "dateTime": 1517014866154}, {"current_trial": 23, "trialdata": {"rt": -1000, "trial_type": "single-audio", "word": "critic", "stimulus": "/static/audio/wordpool/CRITIC.wav", "conditions": [18, 1200, "a", 18000], "internal_node_id": "0.0-14.0", "trial": 0, "time_elapsed": 228782, "serialpos": 2, "key_press": -1, "wordID": 409, "type": "PRES_AUD", "trial_index": 23}, "uniqueid": "MTK2384:3WI0P0II62ZMFI65FN6EVY5BA83DR8", "dateTime": 1517014868440}, {"current_trial": 24, "trialdata": {"rt": -1000, "trial_type": "single-audio", "word": "compass", "stimulus": "/static/audio/wordpool/COMPASS.wav", "conditions": [18, 1200, "a", 18000], "internal_node_id": "0.0-15.0", "trial": 0, "time_elapsed": 230852, "serialpos": 3, "key_press": -1, "wordID": 357, "type": "PRES_AUD", "trial_index": 24}, "uniqueid": "MTK2384:3WI0P0II62ZMFI65FN6EVY5BA83DR8", "dateTime": 1517014870508}, {"current_trial": 25, "trialdata": {"rt": -1000, "trial_type": "single-audio", "word": "award", "stimulus": "/static/audio/wordpool/AWARD.wav", "conditions": [18, 1200, "a", 18000], "internal_node_id": "0.0-16.0", "trial": 0, "time_elapsed": 233180, "serialpos": 4, "key_press": -1, "wordID": 62, "type": "PRES_AUD", "trial_index": 25}, "uniqueid": "MTK2384:3WI0P0II62ZMFI65FN6EVY5BA83DR8", "dateTime": 1517014872836}, {"current_trial": 26, "trialdata": {"rt": -1000, "trial_type": "single-audio", "word": "drawing", "stimulus": "/static/audio/wordpool/DRAWING.wav", "conditions": [18, 1200, "a", 18000], "internal_node_id": "0.0-17.0", "trial": 0, "time_elapsed": 235243, "serialpos": 5, "key_press": -1, "wordID": 493, "type": "PRES_AUD", "trial_index": 26}, "uniqueid": "MTK2384:3WI0P0II62ZMFI65FN6EVY5BA83DR8", "dateTime": 1517014874900}, {"current_trial": 27, "trialdata": {"rt": -1000, "trial_type": "single-audio", "word": "tile", "stimulus": "/static/audio/wordpool/TILE.wav", "conditions": [18, 1200, "a", 18000], "internal_node_id": "0.0-18.0", "trial": 0, "time_elapsed": 237384, "serialpos": 6, "key_press": -1, "wordID": 1467, "type": "PRES_AUD", "trial_index": 27}, "uniqueid": "MTK2384:3WI0P0II62ZMFI65FN6EVY5BA83DR8", "dateTime": 1517014877040}, {"current_trial": 28, "trialdata": {"rt": -1000, "trial_type": "single-audio", "word": "wife", "stimulus": "/static/audio/wordpool/WIFE.wav", "conditions": [18, 1200, "a", 18000], "internal_node_id": "0.0-19.0", "trial": 0, "time_elapsed": 239570, "serialpos": 7, "key_press": -1, "wordID": 1608, "type": "PRES_AUD", "trial_index": 28}, "uniqueid": "MTK2384:3WI0P0II62ZMFI65FN6EVY5BA83DR8", "dateTime": 1517014879226}, {"current_trial": 29, "trialdata": {"rt": -1000, "trial_type": "single-audio", "word": "servant", "stimulus": "/static/audio/wordpool/SERVANT.wav", "conditions": [18, 1200, "a", 18000], "internal_node_id": "0.0-20.0", "trial": 0, "time_elapsed": 241629, "serialpos": 8, "key_press": -1, "wordID": 1270, "type": "PRES_AUD", "trial_index": 29}, "uniqueid": "MTK2384:3WI0P0II62ZMFI65FN6EVY5BA83DR8", "dateTime": 1517014881285}, {"current_trial": 30, "trialdata": {"rt": -1000, "trial_type": "single-audio", "word": "pecan", "stimulus": "/static/audio/wordpool/PECAN.wav", "conditions": [18, 1200, "a", 18000], "internal_node_id": "0.0-21.0", "trial": 0, "time_elapsed": 243676, "serialpos": 9, "key_press": -1, "wordID": 1035, "type": "PRES_AUD", "trial_index": 30}, "uniqueid": "MTK2384:3WI0P0II62ZMFI65FN6EVY5BA83DR8", "dateTime": 1517014883332}, {"current_trial": 31, "trialdata": {"rt": -1000, "trial_type": "single-audio", "word": "marker", "stimulus": "/static/audio/wordpool/MARKER.wav", "conditions": [18, 1200, "a", 18000], "internal_node_id": "0.0-22.0", "trial": 0, "time_elapsed": 245734, "serialpos": 10, "key_press": -1, "wordID": 869, "type": "PRES_AUD", "trial_index": 31}, "uniqueid": "MTK2384:3WI0P0II62ZMFI65FN6EVY5BA83DR8", "dateTime": 1517014885390}, {"current_trial": 32, "trialdata": {"rt": -1000, "trial_type": "single-audio", "word": "marsh", "stimulus": "/static/audio/wordpool/MARSH.wav", "conditions": [18, 1200, "a", 18000], "internal_node_id": "0.0-23.0", "trial": 0, "time_elapsed": 247738, "serialpos": 11, "key_press": -1, "wordID": 873, "type": "PRES_AUD", "trial_index": 32}, "uniqueid": "MTK2384:3WI0P0II62ZMFI65FN6EVY5BA83DR8", "dateTime": 1517014887394}, {"current_trial": 33, "trialdata": {"rt": -1000, "trial_type": "single-audio", "word": "scallop", "stimulus": "/static/audio/wordpool/SCALLOP.wav", "conditions": [18, 1200, "a", 18000], "internal_node_id": "0.0-24.0", "trial": 0, "time_elapsed": 249874, "serialpos": 12, "key_press": -1, "wordID": 1241, "type": "PRES_AUD", "trial_index": 33}, "uniqueid": "MTK2384:3WI0P0II62ZMFI65FN6EVY5BA83DR8", "dateTime": 1517014889530}, {"current_trial": 34, "trialdata": {"rt": -1000, "trial_type": "single-audio", "word": "pudding", "stimulus": "/static/audio/wordpool/PUDDING.wav", "conditions": [18, 1200, "a", 18000], "internal_node_id": "0.0-25.0", "trial": 0, "time_elapsed": 252144, "serialpos": 13, "key_press": -1, "wordID": 1138, "type": "PRES_AUD", "trial_index": 34}, "uniqueid": "MTK2384:3WI0P0II62ZMFI65FN6EVY5BA83DR8", "dateTime": 1517014891800}, {"current_trial": 35, "trialdata": {"rt": -1000, "trial_type": "single-audio", "word": "tutu", "stimulus": "/static/audio/wordpool/TUTU.wav", "conditions": [18, 1200, "a", 18000], "internal_node_id": "0.0-26.0", "trial": 0, "time_elapsed": 254305, "serialpos": 14, "key_press": -1, "wordID": 1523, "type": "PRES_AUD", "trial_index": 35}, "uniqueid": "MTK2384:3WI0P0II62ZMFI65FN6EVY5BA83DR8", "dateTime": 1517014893961}, {"current_trial": 36, "trialdata": {"rt": -1000, "trial_type": "single-audio", "word": "lodge", "stimulus": "/static/audio/wordpool/LODGE.wav", "conditions": [18, 1200, "a", 18000], "internal_node_id": "0.0-27.0", "trial": 0, "time_elapsed": 256580, "serialpos": 15, "key_press": -1, "wordID": 838, "type": "PRES_AUD", "trial_index": 36}, "uniqueid": "MTK2384:3WI0P0II62ZMFI65FN6EVY5BA83DR8", "dateTime": 1517014896236}, {"current_trial": 37, "trialdata": {"rt": -1000, "trial_type": "single-audio", "word": "novel", "stimulus": "/static/audio/wordpool/NOVEL.wav", "conditions": [18, 1200, "a", 18000], "internal_node_id": "0.0-28.0", "trial": 0, "time_elapsed": 258651, "serialpos": 16, "key_press": -1, "wordID": 959, "type": "PRES_AUD", "trial_index": 37}, "uniqueid": "MTK2384:3WI0P0II62ZMFI65FN6EVY5BA83DR8", "dateTime": 1517014898307}, {"current_trial": 38, "trialdata": {"rt": -1000, "trial_type": "single-audio", "word": "milk", "stimulus": "/static/audio/wordpool/MILK.wav", "conditions": [18, 1200, "a", 18000], "internal_node_id": "0.0-29.0", "trial": 0, "time_elapsed": 260795, "serialpos": 17, "key_press": -1, "wordID": 894, "type": "PRES_AUD", "trial_index": 38}, "uniqueid": "MTK2384:3WI0P0II62ZMFI65FN6EVY5BA83DR8", "dateTime": 1517014900451}, {"current_trial": 39, "trialdata": {"rt": -1, "trial_type": "single-stim", "stimulus": "", "internal_node_id": "0.0-30.0-0.0", "time_elapsed": 262079, "key_press": -1, "type": "PRE_RECALL_DELAY", "trial_index": 39}, "uniqueid": "MTK2384:3WI0P0II62ZMFI65FN6EVY5BA83DR8", "dateTime": 1517014901735}, {"current_trial": 40, "trialdata": {"rt": -1000, "trial_type": "single-audio", "stimulus": "/static/audio/400Hz.wav", "internal_node_id": "0.0-31.0", "time_elapsed": 262581, "key_press": -1, "type": "PRE_RECALL_ALERT", "trial_index": 40}, "uniqueid": "MTK2384:3WI0P0II62ZMFI65FN6EVY5BA83DR8", "dateTime": 1517014902238}, {"current_trial": 41, "trialdata": {"rt": [3316, 4660, 6709, 11683, 13692, 16620, 17788, 18756, 19644], "recwords": ["college", "report", "critic", "pudding", "critic", "lodge", "novel", "tutu", "milk"], "key_times": [2333, 2468, 2660, 2781, 2844, 2924, 3020, 3316, 3692, 3764, 3924, 4068, 4132, 4260, 4660, 5788, 5964, 6060, 6156, 6228, 6364, 6709, 9836, 10092, 10188, 10628, 11036, 11143, 11276, 11683, 12741, 12956, 13076, 13172, 13228, 13389, 13692, 15788, 15964, 16036, 16228, 16316, 16620, 17020, 17244, 17355, 17444, 17509, 17788, 18092, 18235, 18332, 18396, 18756, 19020, 19140, 19332, 19475, 19644], "trial_type": "free-recall", "conditions": [18, 1200, "a", 18000], "internal_node_id": "0.0-32.0-0.0", "key_presses": [67, 79, 76, 76, 69, 71, 69, 13, 82, 69, 80, 79, 82, 84, 13, 67, 82, 73, 84, 73, 67, 13, 80, 85, 68, 68, 73, 78, 71, 13, 67, 82, 73, 84, 73, 67, 13, 76, 79, 68, 71, 69, 13, 78, 79, 86, 69, 76, 13, 84, 85, 84, 85, 13, 77, 73, 76, 75, 13], "trial": 0, "time_elapsed": 322588, "type": "FREE_RECALL", "trial_index": 41}, "uniqueid": "MTK2384:3WI0P0II62ZMFI65FN6EVY5BA83DR8", "dateTime": 1517014962246}, {"current_trial": 42, "trialdata": {"rt": 1693, "trial_type": "text", "internal_node_id": "0.0-33.0", "time_elapsed": 326285, "key_press": 32, "type": "INSTRUCTIONS", "trial_index": 42}, "uniqueid": "MTK2384:3WI0P0II62ZMFI65FN6EVY5BA83DR8", "dateTime": 1517014965941}, {"current_trial": 43, "trialdata": {"rt": [2188, 6124, 7885, 9548, 11756, 15084, 17813], "trial_type": "math-distractor", "key_times": [1796, 1877, 2188, 5628, 5685, 6124, 7516, 7621, 7885, 9245, 9308, 9548, 11324, 11756, 14269, 14388, 15084, 17499, 17588, 17813], "responses": ["18", "14", "17", "13", "9", "19", "18"], "num2": [7, 4, 2, 4, 1, 9, 9, 4], "num3": [3, 6, 7, 6, 2, 8, 5, 8], "conditions": [18, 1200, "a", 18000], "internal_node_id": "0.0-34.0", "key_presses": [97, 104, 13, 97, 100, 13, 97, 103, 13, 97, 99, 13, 105, 13, 97, 105, 13, 97, 104, 13], "trial": 1, "time_elapsed": 346289, "type": "DISTRACTOR", "trial_index": 43, "num1": [8, 4, 8, 3, 6, 2, 4, 8]}, "uniqueid": "MTK2384:3WI0P0II62ZMFI65FN6EVY5BA83DR8", "dateTime": 1517014985945}, {"current_trial": 44, "trialdata": {"rt": -1, "trial_type": "single-stim", "stimulus": "<p id=\"stim\">10</p>", "internal_node_id": "0.0-35.0-0.0", "time_elapsed": 349291, "key_press": -1, "trial_index": 44}, "uniqueid": "MTK2384:3WI0P0II62ZMFI65FN6EVY5BA83DR8", "dateTime": 1517014988947}, {"current_trial": 45, "trialdata": {"rt": -1, "trial_type": "single-stim", "stimulus": "<p id=\"stim\">9</p>", "internal_node_id": "0.0-35.0-1.0", "time_elapsed": 350292, "key_press": -1, "trial_index": 45}, "uniqueid": "MTK2384:3WI0P0II62ZMFI65FN6EVY5BA83DR8", "dateTime": 1517014989949}, {"current_trial": 46, "trialdata": {"rt": -1, "trial_type": "single-stim", "stimulus": "<p id=\"stim\">8</p>", "internal_node_id": "0.0-35.0-2.0", "time_elapsed": 351293, "key_press": -1, "trial_index": 46}, "uniqueid": "MTK2384:3WI0P0II62ZMFI65FN6EVY5BA83DR8", "dateTime": 1517014990949}, {"current_trial": 47, "trialdata": {"rt": -1, "trial_type": "single-stim", "stimulus": "<p id=\"stim\">7</p>", "internal_node_id": "0.0-35.0-3.0", "time_elapsed": 352295, "key_press": -1, "trial_index": 47}, "uniqueid": "MTK2384:3WI0P0II62ZMFI65FN6EVY5BA83DR8", "dateTime": 1517014991951}, {"current_trial": 48, "trialdata": {"rt": -1, "trial_type": "single-stim", "stimulus": "<p id=\"stim\">6</p>", "internal_node_id": "0.0-35.0-4.0", "time_elapsed": 353297, "key_press": -1, "trial_index": 48}, "uniqueid": "MTK2384:3WI0P0II62ZMFI65FN6EVY5BA83DR8", "dateTime": 1517014992953}, {"current_trial": 49, "trialdata": {"rt": -1, "trial_type": "single-stim", "stimulus": "<p id=\"stim\">5</p>", "internal_node_id": "0.0-35.0-5.0", "time_elapsed": 354298, "key_press": -1, "trial_index": 49}, "uniqueid": "MTK2384:3WI0P0II62ZMFI65FN6EVY5BA83DR8", "dateTime": 1517014993954}, {"current_trial": 50, "trialdata": {"rt": -1, "trial_type": "single-stim", "stimulus": "<p id=\"stim\">4</p>", "internal_node_id": "0.0-35.0-6.0", "time_elapsed": 355300, "key_press": -1, "trial_index": 50}, "uniqueid": "MTK2384:3WI0P0II62ZMFI65FN6EVY5BA83DR8", "dateTime": 1517014994956}, {"current_trial": 51, "trialdata": {"rt": -1, "trial_type": "single-stim", "stimulus": "<p id=\"stim\">3</p>", "internal_node_id": "0.0-35.0-7.0", "time_elapsed": 356300, "key_press": -1, "trial_index": 51}, "uniqueid": "MTK2384:3WI0P0II62ZMFI65FN6EVY5BA83DR8", "dateTime": 1517014995956}, {"current_trial": 52, "trialdata": {"rt": -1, "trial_type": "single-stim", "stimulus": "<p id=\"stim\">2</p>", "internal_node_id": "0.0-35.0-8.0", "time_elapsed": 357301, "key_press": -1, "trial_index": 52}, "uniqueid": "MTK2384:3WI0P0II62ZMFI65FN6EVY5BA83DR8", "dateTime": 1517014996957}, {"current_trial": 53, "trialdata": {"rt": -1, "trial_type": "single-stim", "stimulus": "<p id=\"stim\">1</p>", "internal_node_id": "0.0-35.0-9.0", "time_elapsed": 358302, "key_press": -1, "trial_index": 53}, "uniqueid": "MTK2384:3WI0P0II62ZMFI65FN6EVY5BA83DR8", "dateTime": 1517014997959}, {"current_trial": 54, "trialdata": {"rt": -1, "trial_type": "single-stim", "stimulus": "<p id=\"stim\">+</p>", "internal_node_id": "0.0-36.0-0.0", "time_elapsed": 359805, "key_press": -1, "type": "FIXATION", "trial_index": 54}, "uniqueid": "MTK2384:3WI0P0II62ZMFI65FN6EVY5BA83DR8", "dateTime": 1517014999461}, {"current_trial": 55, "trialdata": {"rt": -1000, "trial_type": "single-audio", "word": "passage", "stimulus": "/static/audio/wordpool/PASSAGE.wav", "conditions": [18, 1200, "a", 18000], "internal_node_id": "0.0-37.0", "trial": 1, "time_elapsed": 361990, "serialpos": 0, "key_press": -1, "wordID": 1018, "type": "PRES_AUD", "trial_index": 55}, "uniqueid": "MTK2384:3WI0P0II62ZMFI65FN6EVY5BA83DR8", "dateTime": 1517015001646}, {"current_trial": 56, "trialdata": {"rt": -1000, "trial_type": "single-audio", "word": "crab", "stimulus": "/static/audio/wordpool/CRAB.wav", "conditions": [18, 1200, "a", 18000], "internal_node_id": "0.0-38.0", "trial": 1, "time_elapsed": 364259, "serialpos": 1, "key_press": -1, "wordID": 396, "type": "PRES_AUD", "trial_index": 56}, "uniqueid": "MTK2384:3WI0P0II62ZMFI65FN6EVY5BA83DR8", "dateTime": 1517015003915}, {"current_trial": 57, "trialdata": {"rt": -1000, "trial_type": "single-audio", "word": "bureau", "stimulus": "/static/audio/wordpool/BUREAU.wav", "conditions": [18, 1200, "a", 18000], "internal_node_id": "0.0-39.0", "trial": 1, "time_elapsed": 366530, "serialpos": 2, "key_press": -1, "wordID": 198, "type": "PRES_AUD", "trial_index": 57}, "uniqueid": "MTK2384:3WI0P0II62ZMFI65FN6EVY5BA83DR8", "dateTime": 1517015006186}, {"current_trial": 58, "trialdata": {"rt": -1000, "trial_type": "single-audio", "word": "judge", "stimulus": "/static/audio/wordpool/JUDGE.wav", "conditions": [18, 1200, "a", 18000], "internal_node_id": "0.0-40.0", "trial": 1, "time_elapsed": 368661, "serialpos": 3, "key_press": -1, "wordID": 760, "type": "PRES_AUD", "trial_index": 58}, "uniqueid": "MTK2384:3WI0P0II62ZMFI65FN6EVY5BA83DR8", "dateTime": 1517015008317}, {"current_trial": 59, "trialdata": {"rt": -1000, "trial_type": "single-audio", "word": "cellar", "stimulus": "/static/audio/wordpool/CELLAR.wav", "conditions": [18, 1200, "a", 18000], "internal_node_id": "0.0-41.0", "trial": 1, "time_elapsed": 371008, "serialpos": 4, "key_press": -1, "wordID": 266, "type": "PRES_AUD", "trial_index": 59}, "uniqueid": "MTK2384:3WI0P0II62ZMFI65FN6EVY5BA83DR8", "dateTime": 1517015010664}, {"current_trial": 60, "trialdata": {"rt": -1000, "trial_type": "single-audio", "word": "xerox", "stimulus": "/static/audio/wordpool/XEROX.wav", "conditions": [18, 1200, "a", 18000], "internal_node_id": "0.0-42.0", "trial": 1, "time_elapsed": 373158, "serialpos": 5, "key_press": -1, "wordID": 1627, "type": "PRES_AUD", "trial_index": 60}, "uniqueid": "MTK2384:3WI0P0II62ZMFI65FN6EVY5BA83DR8", "dateTime": 1517015012814}, {"current_trial": 61, "trialdata": {"rt": -1000, "trial_type": "single-audio", "word": "gift", "stimulus": "/static/audio/wordpool/GIFT.wav", "conditions": [18, 1200, "a", 18000], "internal_node_id": "0.0-43.0", "trial": 1, "time_elapsed": 375500, "serialpos": 6, "key_press": -1, "wordID": 634, "type": "PRES_AUD", "trial_index": 61}, "uniqueid": "MTK2384:3WI0P0II62ZMFI65FN6EVY5BA83DR8", "dateTime": 1517015015156}, {"current_trial": 62, "trialdata": {"rt": -1000, "trial_type": "single-audio", "word": "foot", "stimulus": "/static/audio/wordpool/FOOT.wav", "conditions": [18, 1200, "a", 18000], "internal_node_id": "0.0-44.0", "trial": 1, "time_elapsed": 377705, "serialpos": 7, "key_press": -1, "wordID": 589, "type": "PRES_AUD", "trial_index": 62}, "uniqueid": "MTK2384:3WI0P0II62ZMFI65FN6EVY5BA83DR8", "dateTime": 1517015017361}, {"current_trial": 63, "trialdata": {"rt": -1000, "trial_type": "single-audio", "word": "lake", "stimulus": "/static/audio/wordpool/LAKE.wav", "conditions": [18, 1200, "a", 18000], "internal_node_id": "0.0-45.0", "trial": 1, "time_elapsed": 379993, "serialpos": 8, "key_press": -1, "wordID": 795, "type": "PRES_AUD", "trial_index": 63}, "uniqueid": "MTK2384:3WI0P0II62ZMFI65FN6EVY5BA83DR8", "dateTime": 1517015019649}, {"current_trial": 64, "trialdata": {"rt": -1000, "trial_type": "single-audio", "word": "barrel", "stimulus": "/static/audio/wordpool/BARREL.wav", "conditions": [18, 1200, "a", 18000], "internal_node_id": "0.0-46.0", "trial": 1, "time_elapsed": 382264, "serialpos": 9, "key_press": -1, "wordID": 90, "type": "PRES_AUD", "trial_index": 64}, "uniqueid": "MTK2384:3WI0P0II62ZMFI65FN6EVY5BA83DR8", "dateTime": 1517015021920}, {"current_trial": 65, "trialdata": {"rt": -1000, "trial_type": "single-audio", "word": "beast", "stimulus": "/static/audio/wordpool/BEAST.wav", "conditions": [18, 1200, "a", 18000], "internal_node_id": "0.0-47.0", "trial": 1, "time_elapsed": 384404, "serialpos": 10, "key_press": -1, "wordID": 107, "type": "PRES_AUD", "trial_index": 65}, "uniqueid": "MTK2384:3WI0P0II62ZMFI65FN6EVY5BA83DR8", "dateTime": 1517015024060}, {"current_trial": 66, "trialdata": {"rt": -1000, "trial_type": "single-audio", "word": "thief", "stimulus": "/static/audio/wordpool/THIEF.wav", "conditions": [18, 1200, "a", 18000], "internal_node_id": "0.0-48.0", "trial": 1, "time_elapsed": 386739, "serialpos": 11, "key_press": -1, "wordID": 1455, "type": "PRES_AUD", "trial_index": 66}, "uniqueid": "MTK2384:3WI0P0II62ZMFI65FN6EVY5BA83DR8", "dateTime": 1517015026395}, {"current_trial": 67, "trialdata": {"rt": -1000, "trial_type": "single-audio", "word": "mailman", "stimulus": "/static/audio/wordpool/MAILMAN.wav", "conditions": [18, 1200, "a", 18000], "internal_node_id": "0.0-49.0", "trial": 1, "time_elapsed": 389086, "serialpos": 12, "key_press": -1, "wordID": 857, "type": "PRES_AUD", "trial_index": 67}, "uniqueid": "MTK2384:3WI0P0II62ZMFI65FN6EVY5BA83DR8", "dateTime": 1517015028742}, {"current_trial": 68, "trialdata": {"rt": -1000, "trial_type": "single-audio", "word": "picnic", "stimulus": "/static/audio/wordpool/PICNIC.wav", "conditions": [18, 1200, "a", 18000], "internal_node_id": "0.0-50.0", "trial": 1, "time_elapsed": 391302, "serialpos": 13, "key_press": -1, "wordID": 1059, "type": "PRES_AUD", "trial_index": 68}, "uniqueid": "MTK2384:3WI0P0II62ZMFI65FN6EVY5BA83DR8", "dateTime": 1517015030959}, {"current_trial": 69, "trialdata": {"rt": -1000, "trial_type": "single-audio", "word": "plaster", "stimulus": "/static/audio/wordpool/PLASTER.wav", "conditions": [18, 1200, "a", 18000], "internal_node_id": "0.0-51.0", "trial": 1, "time_elapsed": 393559, "serialpos": 14, "key_press": -1, "wordID": 1084, "type": "PRES_AUD", "trial_index": 69}, "uniqueid": "MTK2384:3WI0P0II62ZMFI65FN6EVY5BA83DR8", "dateTime": 1517015033215}, {"current_trial": 70, "trialdata": {"rt": -1000, "trial_type": "single-audio", "word": "guitar", "stimulus": "/static/audio/wordpool/GUITAR.wav", "conditions": [18, 1200, "a", 18000], "internal_node_id": "0.0-52.0", "trial": 1, "time_elapsed": 395826, "serialpos": 15, "key_press": -1, "wordID": 669, "type": "PRES_AUD", "trial_index": 70}, "uniqueid": "MTK2384:3WI0P0II62ZMFI65FN6EVY5BA83DR8", "dateTime": 1517015035482}, {"current_trial": 71, "trialdata": {"rt": -1000, "trial_type": "single-audio", "word": "flesh", "stimulus": "/static/audio/wordpool/FLESH.wav", "conditions": [18, 1200, "a", 18000], "internal_node_id": "0.0-53.0", "trial": 1, "time_elapsed": 397839, "serialpos": 16, "key_press": -1, "wordID": 578, "type": "PRES_AUD", "trial_index": 71}, "uniqueid": "MTK2384:3WI0P0II62ZMFI65FN6EVY5BA83DR8", "dateTime": 1517015037495}, {"current_trial": 72, "trialdata": {"rt": -1000, "trial_type": "single-audio", "word": "popcorn", "stimulus": "/static/audio/wordpool/POPCORN.wav", "conditions": [18, 1200, "a", 18000], "internal_node_id": "0.0-54.0", "trial": 1, "time_elapsed": 400108, "serialpos": 17, "key_press": -1, "wordID": 1103, "type": "PRES_AUD", "trial_index": 72}, "uniqueid": "MTK2384:3WI0P0II62ZMFI65FN6EVY5BA83DR8", "dateTime": 1517015039764}, {"current_trial": 73, "trialdata": {"rt": -1, "trial_type": "single-stim", "stimulus": "", "internal_node_id": "0.0-55.0-0.0", "time_elapsed": 401418, "key_press": -1, "type": "PRE_RECALL_DELAY", "trial_index": 73}, "uniqueid": "MTK2384:3WI0P0II62ZMFI65FN6EVY5BA83DR8", "dateTime": 1517015041074}, {"current_trial": 74, "trialdata": {"rt": -1000, "trial_type": "single-audio", "stimulus": "/static/audio/400Hz.wav", "internal_node_id": "0.0-56.0", "time_elapsed": 401920, "key_press": -1, "type": "PRE_RECALL_ALERT", "trial_index": 74}, "uniqueid": "MTK2384:3WI0P0II62ZMFI65FN6EVY5BA83DR8", "dateTime": 1517015041576}, {"current_trial": 75, "trialdata": {"rt": [3305, 5177, 7001, 8657, 9321, 10290, 11913, 17265, 22233], "recwords": ["passage", "crab", "bureau", "foot", "lake", "barrel", "report", "popcorn", "plaster"], "key_times": [2250, 2361, 2561, 2722, 2865, 3041, 3105, 3305, 3530, 3706, 3825, 3993, 4682, 4826, 5177, 6025, 6153, 6225, 6313, 6498, 6561, 7001, 7585, 7729, 7849, 7905, 8657, 8897, 8993, 9089, 9185, 9321, 9577, 9673, 9832, 9961, 10065, 10113, 10290, 11321, 11385, 11473, 11633, 11673, 11817, 11913, 14842, 15313, 15433, 15905, 16273, 16353, 16520, 16640, 16768, 17265, 21273, 21329, 21433, 21625, 21753, 21880, 21953, 22233], "trial_type": "free-recall", "conditions": [18, 1200, "a", 18000], "internal_node_id": "0.0-57.0-0.0", "key_presses": [80, 65, 83, 83, 65, 71, 69, 13, 67, 82, 65, 78, 8, 66, 13, 66, 85, 82, 69, 65, 85, 13, 70, 79, 79, 84, 13, 76, 65, 75, 69, 13, 66, 65, 82, 82, 69, 76, 13, 82, 69, 80, 79, 82, 84, 13, 80, 79, 80, 86, 8, 67, 79, 82, 78, 13, 80, 76, 65, 83, 84, 69, 82, 13], "trial": 1, "time_elapsed": 461924, "type": "FREE_RECALL", "trial_index": 75}, "uniqueid": "MTK2384:3WI0P0II62ZMFI65FN6EVY5BA83DR8", "dateTime": 1517015101582}, {"current_trial": 76, "trialdata": {"rt": 2740, "trial_type": "text", "internal_node_id": "0.0-58.0", "time_elapsed": 466668, "key_press": 32, "type": "INSTRUCTIONS", "trial_index": 76}, "uniqueid": "MTK2384:3WI0P0II62ZMFI65FN6EVY5BA83DR8", "dateTime": 1517015106324}, {"current_trial": 77, "trialdata": {"rt": [3412, 5931, 8873], "trial_type": "math-distractor", "key_times": [2948, 3172, 3412, 5499, 5668, 5931, 7884, 8139, 8873], "responses": ["12", "17", "19"], "num2": [1, 9, 6, 8], "num3": [7, 2, 5, 6], "conditions": [12, 800, "a", 12000], "internal_node_id": "0.0-59.0", "key_presses": [97, 98, 13, 97, 103, 13, 97, 105, 13], "trial": 2, "time_elapsed": 479672, "type": "DISTRACTOR", "trial_index": 77, "num1": [4, 6, 8, 9]}, "uniqueid": "MTK2384:3WI0P0II62ZMFI65FN6EVY5BA83DR8", "dateTime": 1517015119328}, {"current_trial": 78, "trialdata": {"rt": -1, "trial_type": "single-stim", "stimulus": "<p id=\"stim\">10</p>", "internal_node_id": "0.0-60.0-0.0", "time_elapsed": 482674, "key_press": -1, "trial_index": 78}, "uniqueid": "MTK2384:3WI0P0II62ZMFI65FN6EVY5BA83DR8", "dateTime": 1517015122332}, {"current_trial": 79, "trialdata": {"rt": -1, "trial_type": "single-stim", "stimulus": "<p id=\"stim\">9</p>", "internal_node_id": "0.0-60.0-1.0", "time_elapsed": 483677, "key_press": -1, "trial_index": 79}, "uniqueid": "MTK2384:3WI0P0II62ZMFI65FN6EVY5BA83DR8", "dateTime": 1517015123334}, {"current_trial": 80, "trialdata": {"rt": -1, "trial_type": "single-stim", "stimulus": "<p id=\"stim\">8</p>", "internal_node_id": "0.0-60.0-2.0", "time_elapsed": 484680, "key_press": -1, "trial_index": 80}, "uniqueid": "MTK2384:3WI0P0II62ZMFI65FN6EVY5BA83DR8", "dateTime": 1517015124336}, {"current_trial": 81, "trialdata": {"rt": -1, "trial_type": "single-stim", "stimulus": "<p id=\"stim\">7</p>", "internal_node_id": "0.0-60.0-3.0", "time_elapsed": 485681, "key_press": -1, "trial_index": 81}, "uniqueid": "MTK2384:3WI0P0II62ZMFI65FN6EVY5BA83DR8", "dateTime": 1517015125337}, {"current_trial": 82, "trialdata": {"rt": -1, "trial_type": "single-stim", "stimulus": "<p id=\"stim\">6</p>", "internal_node_id": "0.0-60.0-4.0", "time_elapsed": 486682, "key_press": -1, "trial_index": 82}, "uniqueid": "MTK2384:3WI0P0II62ZMFI65FN6EVY5BA83DR8", "dateTime": 1517015126338}, {"current_trial": 83, "trialdata": {"rt": -1, "trial_type": "single-stim", "stimulus": "<p id=\"stim\">5</p>", "internal_node_id": "0.0-60.0-5.0", "time_elapsed": 487685, "key_press": -1, "trial_index": 83}, "uniqueid": "MTK2384:3WI0P0II62ZMFI65FN6EVY5BA83DR8", "dateTime": 1517015127341}, {"current_trial": 84, "trialdata": {"rt": -1, "trial_type": "single-stim", "stimulus": "<p id=\"stim\">4</p>", "internal_node_id": "0.0-60.0-6.0", "time_elapsed": 488686, "key_press": -1, "trial_index": 84}, "uniqueid": "MTK2384:3WI0P0II62ZMFI65FN6EVY5BA83DR8", "dateTime": 1517015128342}, {"current_trial": 85, "trialdata": {"rt": -1, "trial_type": "single-stim", "stimulus": "<p id=\"stim\">3</p>", "internal_node_id": "0.0-60.0-7.0", "time_elapsed": 489687, "key_press": -1, "trial_index": 85}, "uniqueid": "MTK2384:3WI0P0II62ZMFI65FN6EVY5BA83DR8", "dateTime": 1517015129343}, {"current_trial": 86, "trialdata": {"rt": -1, "trial_type": "single-stim", "stimulus": "<p id=\"stim\">2</p>", "internal_node_id": "0.0-60.0-8.0", "time_elapsed": 490688, "key_press": -1, "trial_index": 86}, "uniqueid": "MTK2384:3WI0P0II62ZMFI65FN6EVY5BA83DR8", "dateTime": 1517015130344}, {"current_trial": 87, "trialdata": {"rt": -1, "trial_type": "single-stim", "stimulus": "<p id=\"stim\">1</p>", "internal_node_id": "0.0-60.0-9.0", "time_elapsed": 491690, "key_press": -1, "trial_index": 87}, "uniqueid": "MTK2384:3WI0P0II62ZMFI65FN6EVY5BA83DR8", "dateTime": 1517015131347}, {"current_trial": 88, "trialdata": {"rt": -1, "trial_type": "single-stim", "stimulus": "<p id=\"stim\">+</p>", "internal_node_id": "0.0-61.0-0.0", "time_elapsed": 493192, "key_press": -1, "type": "FIXATION", "trial_index": 88}, "uniqueid": "MTK2384:3WI0P0II62ZMFI65FN6EVY5BA83DR8", "dateTime": 1517015132848}, {"current_trial": 89, "trialdata": {"rt": -1000, "trial_type": "single-audio", "word": "world", "stimulus": "/static/audio/wordpool/WORLD.wav", "conditions": [12, 800, "a", 12000], "internal_node_id": "0.0-62.0", "trial": 2, "time_elapsed": 495068, "serialpos": 0, "key_press": -1, "wordID": 1621, "type": "PRES_AUD", "trial_index": 89}, "uniqueid": "MTK2384:3WI0P0II62ZMFI65FN6EVY5BA83DR8", "dateTime": 1517015134724}, {"current_trial": 90, "trialdata": {"rt": -1000, "trial_type": "single-audio", "word": "loft", "stimulus": "/static/audio/wordpool/LOFT.wav", "conditions": [12, 800, "a", 12000], "internal_node_id": "0.0-63.0", "trial": 2, "time_elapsed": 496743, "serialpos": 1, "key_press": -1, "wordID": 839, "type": "PRES_AUD", "trial_index": 90}, "uniqueid": "MTK2384:3WI0P0II62ZMFI65FN6EVY5BA83DR8", "dateTime": 1517015136399}, {"current_trial": 91, "trialdata": {"rt": -1000, "trial_type": "single-audio", "word": "county", "stimulus": "/static/audio/wordpool/COUNTY.wav", "conditions": [12, 800, "a", 12000], "internal_node_id": "0.0-64.0", "trial": 2, "time_elapsed": 498631, "serialpos": 2, "key_press": -1, "wordID": 388, "type": "PRES_AUD", "trial_index": 91}, "uniqueid": "MTK2384:3WI0P0II62ZMFI65FN6EVY5BA83DR8", "dateTime": 1517015138287}, {"current_trial": 92, "trialdata": {"rt": -1000, "trial_type": "single-audio", "word": "apron", "stimulus": "/static/audio/wordpool/APRON.wav", "conditions": [12, 800, "a", 12000], "internal_node_id": "0.0-65.0", "trial": 2, "time_elapsed": 500303, "serialpos": 3, "key_press": -1, "wordID": 34, "type": "PRES_AUD", "trial_index": 92}, "uniqueid": "MTK2384:3WI0P0II62ZMFI65FN6EVY5BA83DR8", "dateTime": 1517015139959}, {"current_trial": 93, "trialdata": {"rt": -1000, "trial_type": "single-audio", "word": "salmon", "stimulus": "/static/audio/wordpool/SALMON.wav", "conditions": [12, 800, "a", 12000], "internal_node_id": "0.0-66.0", "trial": 2, "time_elapsed": 502281, "serialpos": 4, "key_press": -1, "wordID": 1226, "type": "PRES_AUD", "trial_index": 93}, "uniqueid": "MTK2384:3WI0P0II62ZMFI65FN6EVY5BA83DR8", "dateTime": 1517015141937}, {"current_trial": 94, "trialdata": {"rt": -1000, "trial_type": "single-audio", "word": "frame", "stimulus": "/static/audio/wordpool/FRAME.wav", "conditions": [12, 800, "a", 12000], "internal_node_id": "0.0-67.0", "trial": 2, "time_elapsed": 504074, "serialpos": 5, "key_press": -1, "wordID": 599, "type": "PRES_AUD", "trial_index": 94}, "uniqueid": "MTK2384:3WI0P0II62ZMFI65FN6EVY5BA83DR8", "dateTime": 1517015143730}, {"current_trial": 95, "trialdata": {"rt": -1000, "trial_type": "single-audio", "word": "doughnut", "stimulus": "/static/audio/wordpool/DOUGHNUT.wav", "conditions": [12, 800, "a", 12000], "internal_node_id": "0.0-68.0", "trial": 2, "time_elapsed": 505728, "serialpos": 6, "key_press": -1, "wordID": 489, "type": "PRES_AUD", "trial_index": 95}, "uniqueid": "MTK2384:3WI0P0II62ZMFI65FN6EVY5BA83DR8", "dateTime": 1517015145384}, {"current_trial": 96, "trialdata": {"rt": -1000, "trial_type": "single-audio", "word": "raft", "stimulus": "/static/audio/wordpool/RAFT.wav", "conditions": [12, 800, "a", 12000], "internal_node_id": "0.0-69.0", "trial": 2, "time_elapsed": 507622, "serialpos": 7, "key_press": -1, "wordID": 1158, "type": "PRES_AUD", "trial_index": 96}, "uniqueid": "MTK2384:3WI0P0II62ZMFI65FN6EVY5BA83DR8", "dateTime": 1517015147278}, {"current_trial": 97, "trialdata": {"rt": -1000, "trial_type": "single-audio", "word": "iceberg", "stimulus": "/static/audio/wordpool/ICEBERG.wav", "conditions": [12, 800, "a", 12000], "internal_node_id": "0.0-70.0", "trial": 2, "time_elapsed": 509543, "serialpos": 8, "key_press": -1, "wordID": 730, "type": "PRES_AUD", "trial_index": 97}, "uniqueid": "MTK2384:3WI0P0II62ZMFI65FN6EVY5BA83DR8", "dateTime": 1517015149200}, {"current_trial": 98, "trialdata": {"rt": -1000, "trial_type": "single-audio", "word": "kidney", "stimulus": "/static/audio/wordpool/KIDNEY.wav", "conditions": [12, 800, "a", 12000], "internal_node_id": "0.0-71.0", "trial": 2, "time_elapsed": 511183, "serialpos": 9, "key_press": -1, "wordID": 775, "type": "PRES_AUD", "trial_index": 98}, "uniqueid": "MTK2384:3WI0P0II62ZMFI65FN6EVY5BA83DR8", "dateTime": 1517015150839}, {"current_trial": 99, "trialdata": {"rt": -1000, "trial_type": "single-audio", "word": "transplant", "stimulus": "/static/audio/wordpool/TRANSPLANT.wav", "conditions": [12, 800, "a", 12000], "internal_node_id": "0.0-72.0", "trial": 2, "time_elapsed": 513070, "serialpos": 10, "key_press": -1, "wordID": 1495, "type": "PRES_AUD", "trial_index": 99}, "uniqueid": "MTK2384:3WI0P0II62ZMFI65FN6EVY5BA83DR8", "dateTime": 1517015152726}, {"current_trial": 100, "trialdata": {"rt": -1000, "trial_type": "single-audio", "word": "trout", "stimulus": "/static/audio/wordpool/TROUT.wav", "conditions": [12, 800, "a", 12000], "internal_node_id": "0.0-73.0", "trial": 2, "time_elapsed": 514834, "serialpos": 11, "key_press": -1, "wordID": 1510, "type": "PRES_AUD", "trial_index": 100}, "uniqueid": "MTK2384:3WI0P0II62ZMFI65FN6EVY5BA83DR8", "dateTime": 1517015154490}, {"current_trial": 101, "trialdata": {"rt": -1, "trial_type": "single-stim", "stimulus": "", "internal_node_id": "0.0-74.0-0.0", "time_elapsed": 516056, "key_press": -1, "type": "PRE_RECALL_DELAY", "trial_index": 101}, "uniqueid": "MTK2384:3WI0P0II62ZMFI65FN6EVY5BA83DR8", "dateTime": 1517015155712}, {"current_trial": 102, "trialdata": {"rt": -1000, "trial_type": "single-audio", "stimulus": "/static/audio/400Hz.wav", "internal_node_id": "0.0-75.0", "time_elapsed": 516557, "key_press": -1, "type": "PRE_RECALL_ALERT", "trial_index": 102}, "uniqueid": "MTK2384:3WI0P0II62ZMFI65FN6EVY5BA83DR8", "dateTime": 1517015156213}, {"current_trial": 103, "trialdata": {"rt": [2811, 4667, 5922, 8043, 10771, 12970, 14762, 16515], "recwords": ["world", "loft", "apron", "county", "salmon", "kidney", "transplant", "trout"], "key_times": [2019, 2195, 2315, 2411, 2547, 2811, 3323, 3523, 3739, 3947, 4667, 4891, 5059, 5203, 5411, 5515, 5922, 6163, 6306, 6531, 6587, 6707, 6947, 7395, 7483, 8043, 9579, 9755, 9875, 9994, 10179, 10259, 10771, 11971, 12147, 12234, 12378, 12490, 12587, 12970, 13282, 13483, 13642, 13818, 13915, 14075, 14162, 14290, 14403, 14498, 14762, 15714, 15883, 15994, 16194, 16307, 16515], "trial_type": "free-recall", "conditions": [12, 800, "a", 12000], "internal_node_id": "0.0-76.0-0.0", "key_presses": [87, 79, 82, 76, 68, 13, 76, 79, 70, 84, 13, 65, 80, 82, 79, 78, 13, 67, 79, 85, 78, 84, 82, 8, 89, 13, 83, 65, 76, 77, 79, 78, 13, 75, 73, 68, 78, 69, 89, 13, 84, 82, 65, 78, 83, 80, 76, 65, 78, 84, 13, 84, 82, 79, 85, 84, 13], "trial": 2, "time_elapsed": 576562, "type": "FREE_RECALL", "trial_index": 103}, "uniqueid": "MTK2384:3WI0P0II62ZMFI65FN6EVY5BA83DR8", "dateTime": 1517015216219}, {"current_trial": 104, "trialdata": {"rt": 2653, "trial_type": "text", "internal_node_id": "0.0-77.0", "time_elapsed": 581218, "key_press": 75, "type": "INSTRUCTIONS", "trial_index": 104}, "uniqueid": "MTK2384:3WI0P0II62ZMFI65FN6EVY5BA83DR8", "dateTime": 1517015220874}, {"current_trial": 105, "trialdata": {"rt": [1621, 2965, 4493, 6309, 8549, 11533, 14941, 17573, 21181], "trial_type": "math-distractor", "key_times": [1365, 1621, 2661, 2757, 2965, 4013, 4493, 5957, 6061, 6309, 8190, 8317, 8549, 11133, 11333, 11533, 13557, 13678, 14941, 17165, 17359, 17573, 20629, 20709, 21181], "responses": ["5", "12", "4", "12", "14", "14", "16", "20", "14"], "num2": [1, 5, 1, 6, 4, 7, 8, 6, 6, 7], "num3": [3, 2, 1, 5, 6, 5, 5, 7, 7, 5], "conditions": [24, 1600, "a", 24000], "internal_node_id": "0.0-78.0", "key_presses": [101, 13, 97, 98, 13, 100, 13, 97, 98, 13, 97, 100, 13, 97, 100, 13, 97, 102, 13, 98, 96, 13, 97, 100, 13], "trial": 3, "time_elapsed": 607224, "type": "DISTRACTOR", "trial_index": 105, "num1": [1, 5, 2, 1, 4, 2, 3, 6, 1, 2]}, "uniqueid": "MTK2384:3WI0P0II62ZMFI65FN6EVY5BA83DR8", "dateTime": 1517015246880}, {"current_trial": 106, "trialdata": {"rt": -1, "trial_type": "single-stim", "stimulus": "<p id=\"stim\">10</p>", "internal_node_id": "0.0-79.0-0.0", "time_elapsed": 610227, "key_press": -1, "trial_index": 106}, "uniqueid": "MTK2384:3WI0P0II62ZMFI65FN6EVY5BA83DR8", "dateTime": 1517015249883}, {"current_trial": 107, "trialdata": {"rt": -1, "trial_type": "single-stim", "stimulus": "<p id=\"stim\">9</p>", "internal_node_id": "0.0-79.0-1.0", "time_elapsed": 611228, "key_press": -1, "trial_index": 107}, "uniqueid": "MTK2384:3WI0P0II62ZMFI65FN6EVY5BA83DR8", "dateTime": 1517015250885}, {"current_trial": 108, "trialdata": {"rt": -1, "trial_type": "single-stim", "stimulus": "<p id=\"stim\">8</p>", "internal_node_id": "0.0-79.0-2.0", "time_elapsed": 612231, "key_press": -1, "trial_index": 108}, "uniqueid": "MTK2384:3WI0P0II62ZMFI65FN6EVY5BA83DR8", "dateTime": 1517015251887}, {"current_trial": 109, "trialdata": {"rt": -1, "trial_type": "single-stim", "stimulus": "<p id=\"stim\">7</p>", "internal_node_id": "0.0-79.0-3.0", "time_elapsed": 613233, "key_press": -1, "trial_index": 109}, "uniqueid": "MTK2384:3WI0P0II62ZMFI65FN6EVY5BA83DR8", "dateTime": 1517015252889}, {"current_trial": 110, "trialdata": {"rt": -1, "trial_type": "single-stim", "stimulus": "<p id=\"stim\">6</p>", "internal_node_id": "0.0-79.0-4.0", "time_elapsed": 614234, "key_press": -1, "trial_index": 110}, "uniqueid": "MTK2384:3WI0P0II62ZMFI65FN6EVY5BA83DR8", "dateTime": 1517015253890}, {"current_trial": 111, "trialdata": {"rt": -1, "trial_type": "single-stim", "stimulus": "<p id=\"stim\">5</p>", "internal_node_id": "0.0-79.0-5.0", "time_elapsed": 615235, "key_press": -1, "trial_index": 111}, "uniqueid": "MTK2384:3WI0P0II62ZMFI65FN6EVY5BA83DR8", "dateTime": 1517015254891}, {"current_trial": 112, "trialdata": {"rt": -1, "trial_type": "single-stim", "stimulus": "<p id=\"stim\">4</p>", "internal_node_id": "0.0-79.0-6.0", "time_elapsed": 616236, "key_press": -1, "trial_index": 112}, "uniqueid": "MTK2384:3WI0P0II62ZMFI65FN6EVY5BA83DR8", "dateTime": 1517015255892}, {"current_trial": 113, "trialdata": {"rt": -1, "trial_type": "single-stim", "stimulus": "<p id=\"stim\">3</p>", "internal_node_id": "0.0-79.0-7.0", "time_elapsed": 617236, "key_press": -1, "trial_index": 113}, "uniqueid": "MTK2384:3WI0P0II62ZMFI65FN6EVY5BA83DR8", "dateTime": 1517015256892}, {"current_trial": 114, "trialdata": {"rt": -1, "trial_type": "single-stim", "stimulus": "<p id=\"stim\">2</p>", "internal_node_id": "0.0-79.0-8.0", "time_elapsed": 618238, "key_press": -1, "trial_index": 114}, "uniqueid": "MTK2384:3WI0P0II62ZMFI65FN6EVY5BA83DR8", "dateTime": 1517015257894}, {"current_trial": 115, "trialdata": {"rt": -1, "trial_type": "single-stim", "stimulus": "<p id=\"stim\">1</p>", "internal_node_id": "0.0-79.0-9.0", "time_elapsed": 619239, "key_press": -1, "trial_index": 115}, "uniqueid": "MTK2384:3WI0P0II62ZMFI65FN6EVY5BA83DR8", "dateTime": 1517015258895}, {"current_trial": 116, "trialdata": {"rt": -1, "trial_type": "single-stim", "stimulus": "<p id=\"stim\">+</p>", "internal_node_id": "0.0-80.0-0.0", "time_elapsed": 620740, "key_press": -1, "type": "FIXATION", "trial_index": 116}, "uniqueid": "MTK2384:3WI0P0II62ZMFI65FN6EVY5BA83DR8", "dateTime": 1517015260396}, {"current_trial": 117, "trialdata": {"rt": -1000, "trial_type": "single-audio", "word": "patient", "stimulus": "/static/audio/wordpool/PATIENT.wav", "conditions": [24, 1600, "a", 24000], "internal_node_id": "0.0-81.0", "trial": 3, "time_elapsed": 623487, "serialpos": 0, "key_press": -1, "wordID": 1023, "type": "PRES_AUD", "trial_index": 117}, "uniqueid": "MTK2384:3WI0P0II62ZMFI65FN6EVY5BA83DR8", "dateTime": 1517015263144}, {"current_trial": 118, "trialdata": {"rt": -1000, "trial_type": "single-audio", "word": "lagoon", "stimulus": "/static/audio/wordpool/LAGOON.wav", "conditions": [24, 1600, "a", 24000], "internal_node_id": "0.0-82.0", "trial": 3, "time_elapsed": 626237, "serialpos": 1, "key_press": -1, "wordID": 794, "type": "PRES_AUD", "trial_index": 118}, "uniqueid": "MTK2384:3WI0P0II62ZMFI65FN6EVY5BA83DR8", "dateTime": 1517015265893}, {"current_trial": 119, "trialdata": {"rt": -1000, "trial_type": "single-audio", "word": "kitchen", "stimulus": "/static/audio/wordpool/KITCHEN.wav", "conditions": [24, 1600, "a", 24000], "internal_node_id": "0.0-83.0", "trial": 3, "time_elapsed": 628766, "serialpos": 2, "key_press": -1, "wordID": 777, "type": "PRES_AUD", "trial_index": 119}, "uniqueid": "MTK2384:3WI0P0II62ZMFI65FN6EVY5BA83DR8", "dateTime": 1517015268422}, {"current_trial": 120, "trialdata": {"rt": -1000, "trial_type": "single-audio", "word": "church", "stimulus": "/static/audio/wordpool/CHURCH.wav", "conditions": [24, 1600, "a", 24000], "internal_node_id": "0.0-84.0", "trial": 3, "time_elapsed": 631539, "serialpos": 3, "key_press": -1, "wordID": 306, "type": "PRES_AUD", "trial_index": 120}, "uniqueid": "MTK2384:3WI0P0II62ZMFI65FN6EVY5BA83DR8", "dateTime": 1517015271195}, {"current_trial": 121, "trialdata": {"rt": -1000, "trial_type": "single-audio", "word": "tablet", "stimulus": "/static/audio/wordpool/TABLET.wav", "conditions": [24, 1600, "a", 24000], "internal_node_id": "0.0-85.0", "trial": 3, "time_elapsed": 634246, "serialpos": 4, "key_press": -1, "wordID": 1426, "type": "PRES_AUD", "trial_index": 121}, "uniqueid": "MTK2384:3WI0P0II62ZMFI65FN6EVY5BA83DR8", "dateTime": 1517015273902}, {"current_trial": 122, "trialdata": {"rt": -1000, "trial_type": "single-audio", "word": "bubble", "stimulus": "/static/audio/wordpool/BUBBLE.wav", "conditions": [24, 1600, "a", 24000], "internal_node_id": "0.0-86.0", "trial": 3, "time_elapsed": 637038, "serialpos": 5, "key_press": -1, "wordID": 182, "type": "PRES_AUD", "trial_index": 122}, "uniqueid": "MTK2384:3WI0P0II62ZMFI65FN6EVY5BA83DR8", "dateTime": 1517015276694}, {"current_trial": 123, "trialdata": {"rt": -1000, "trial_type": "single-audio", "word": "stone", "stimulus": "/static/audio/wordpool/STONE.wav", "conditions": [24, 1600, "a", 24000], "internal_node_id": "0.0-87.0", "trial": 3, "time_elapsed": 639543, "serialpos": 6, "key_press": -1, "wordID": 1384, "type": "PRES_AUD", "trial_index": 123}, "uniqueid": "MTK2384:3WI0P0II62ZMFI65FN6EVY5BA83DR8", "dateTime": 1517015279199}, {"current_trial": 124, "trialdata": {"rt": -1000, "trial_type": "single-audio", "word": "human", "stimulus": "/static/audio/wordpool/HUMAN.wav", "conditions": [24, 1600, "a", 24000], "internal_node_id": "0.0-88.0", "trial": 3, "time_elapsed": 642037, "serialpos": 7, "key_press": -1, "wordID": 725, "type": "PRES_AUD", "trial_index": 124}, "uniqueid": "MTK2384:3WI0P0II62ZMFI65FN6EVY5BA83DR8", "dateTime": 1517015281694}, {"current_trial": 125, "trialdata": {"rt": -1000, "trial_type": "single-audio", "word": "dolphin", "stimulus": "/static/audio/wordpool/DOLPHIN.wav", "conditions": [24, 1600, "a", 24000], "internal_node_id": "0.0-89.0", "trial": 3, "time_elapsed": 644603, "serialpos": 8, "key_press": -1, "wordID": 482, "type": "PRES_AUD", "trial_index": 125}, "uniqueid": "MTK2384:3WI0P0II62ZMFI65FN6EVY5BA83DR8", "dateTime": 1517015284259}, {"current_trial": 126, "trialdata": {"rt": -1000, "trial_type": "single-audio", "word": "child", "stimulus": "/static/audio/wordpool/CHILD.wav", "conditions": [24, 1600, "a", 24000], "internal_node_id": "0.0-90.0", "trial": 3, "time_elapsed": 647162, "serialpos": 9, "key_press": -1, "wordID": 298, "type": "PRES_AUD", "trial_index": 126}, "uniqueid": "MTK2384:3WI0P0II62ZMFI65FN6EVY5BA83DR8", "dateTime": 1517015286818}, {"current_trial": 127, "trialdata": {"rt": -1000, "trial_type": "single-audio", "word": "girl", "stimulus": "/static/audio/wordpool/GIRL.wav", "conditions": [24, 1600, "a", 24000], "internal_node_id": "0.0-91.0", "trial": 3, "time_elapsed": 649934, "serialpos": 10, "key_press": -1, "wordID": 636, "type": "PRES_AUD", "trial_index": 127}, "uniqueid": "MTK2384:3WI0P0II62ZMFI65FN6EVY5BA83DR8", "dateTime": 1517015289591}, {"current_trial": 128, "trialdata": {"rt": -1000, "trial_type": "single-audio", "word": "river", "stimulus": "/static/audio/wordpool/RIVER.wav", "conditions": [24, 1600, "a", 24000], "internal_node_id": "0.0-92.0", "trial": 3, "time_elapsed": 652679, "serialpos": 11, "key_press": -1, "wordID": 1193, "type": "PRES_AUD", "trial_index": 128}, "uniqueid": "MTK2384:3WI0P0II62ZMFI65FN6EVY5BA83DR8", "dateTime": 1517015292335}, {"current_trial": 129, "trialdata": {"rt": -1000, "trial_type": "single-audio", "word": "cookbook", "stimulus": "/static/audio/wordpool/COOKBOOK.wav", "conditions": [24, 1600, "a", 24000], "internal_node_id": "0.0-93.0", "trial": 3, "time_elapsed": 655205, "serialpos": 12, "key_press": -1, "wordID": 372, "type": "PRES_AUD", "trial_index": 129}, "uniqueid": "MTK2384:3WI0P0II62ZMFI65FN6EVY5BA83DR8", "dateTime": 1517015294861}, {"current_trial": 130, "trialdata": {"rt": -1000, "trial_type": "single-audio", "word": "japan", "stimulus": "/static/audio/wordpool/JAPAN.wav", "conditions": [24, 1600, "a", 24000], "internal_node_id": "0.0-94.0", "trial": 3, "time_elapsed": 657968, "serialpos": 13, "key_press": -1, "wordID": 748, "type": "PRES_AUD", "trial_index": 130}, "uniqueid": "MTK2384:3WI0P0II62ZMFI65FN6EVY5BA83DR8", "dateTime": 1517015297624}, {"current_trial": 131, "trialdata": {"rt": -1000, "trial_type": "single-audio", "word": "hostess", "stimulus": "/static/audio/wordpool/HOSTESS.wav", "conditions": [24, 1600, "a", 24000], "internal_node_id": "0.0-95.0", "trial": 3, "time_elapsed": 660608, "serialpos": 14, "key_press": -1, "wordID": 722, "type": "PRES_AUD", "trial_index": 131}, "uniqueid": "MTK2384:3WI0P0II62ZMFI65FN6EVY5BA83DR8", "dateTime": 1517015300264}, {"current_trial": 132, "trialdata": {"rt": -1000, "trial_type": "single-audio", "word": "napkin", "stimulus": "/static/audio/wordpool/NAPKIN.wav", "conditions": [24, 1600, "a", 24000], "internal_node_id": "0.0-96.0", "trial": 3, "time_elapsed": 663042, "serialpos": 15, "key_press": -1, "wordID": 936, "type": "PRES_AUD", "trial_index": 132}, "uniqueid": "MTK2384:3WI0P0II62ZMFI65FN6EVY5BA83DR8", "dateTime": 1517015302699}, {"current_trial": 133, "trialdata": {"rt": -1000, "trial_type": "single-audio", "word": "gymnast", "stimulus": "/static/audio/wordpool/GYMNAST.wav", "conditions": [24, 1600, "a", 24000], "internal_node_id": "0.0-97.0", "trial": 3, "time_elapsed": 665446, "serialpos": 16, "key_press": -1, "wordID": 674, "type": "PRES_AUD", "trial_index": 133}, "uniqueid": "MTK2384:3WI0P0II62ZMFI65FN6EVY5BA83DR8", "dateTime": 1517015305102}, {"current_trial": 134, "trialdata": {"rt": -1000, "trial_type": "single-audio", "word": "bison", "stimulus": "/static/audio/wordpool/BISON.wav", "conditions": [24, 1600, "a", 24000], "internal_node_id": "0.0-98.0", "trial": 3, "time_elapsed": 667868, "serialpos": 17, "key_press": -1, "wordID": 130, "type": "PRES_AUD", "trial_index": 134}, "uniqueid": "MTK2384:3WI0P0II62ZMFI65FN6EVY5BA83DR8", "dateTime": 1517015307524}, {"current_trial": 135, "trialdata": {"rt": -1000, "trial_type": "single-audio", "word": "scissors", "stimulus": "/static/audio/wordpool/SCISSORS.wav", "conditions": [24, 1600, "a", 24000], "internal_node_id": "0.0-99.0", "trial": 3, "time_elapsed": 670443, "serialpos": 18, "key_press": -1, "wordID": 1249, "type": "PRES_AUD", "trial_index": 135}, "uniqueid": "MTK2384:3WI0P0II62ZMFI65FN6EVY5BA83DR8", "dateTime": 1517015310099}, {"current_trial": 136, "trialdata": {"rt": -1000, "trial_type": "single-audio", "word": "razor", "stimulus": "/static/audio/wordpool/RAZOR.wav", "conditions": [24, 1600, "a", 24000], "internal_node_id": "0.0-100.0", "trial": 3, "time_elapsed": 673008, "serialpos": 19, "key_press": -1, "wordID": 1170, "type": "PRES_AUD", "trial_index": 136}, "uniqueid": "MTK2384:3WI0P0II62ZMFI65FN6EVY5BA83DR8", "dateTime": 1517015312664}, {"current_trial": 137, "trialdata": {"rt": -1000, "trial_type": "single-audio", "word": "asia", "stimulus": "/static/audio/wordpool/ASIA.wav", "conditions": [24, 1600, "a", 24000], "internal_node_id": "0.0-101.0", "trial": 3, "time_elapsed": 675749, "serialpos": 20, "key_press": -1, "wordID": 45, "type": "PRES_AUD", "trial_index": 137}, "uniqueid": "MTK2384:3WI0P0II62ZMFI65FN6EVY5BA83DR8", "dateTime": 1517015315405}, {"current_trial": 138, "trialdata": {"rt": -1000, "trial_type": "single-audio", "word": "cashier", "stimulus": "/static/audio/wordpool/CASHIER.wav", "conditions": [24, 1600, "a", 24000], "internal_node_id": "0.0-102.0", "trial": 3, "time_elapsed": 678545, "serialpos": 21, "key_press": -1, "wordID": 253, "type": "PRES_AUD", "trial_index": 138}, "uniqueid": "MTK2384:3WI0P0II62ZMFI65FN6EVY5BA83DR8", "dateTime": 1517015318201}, {"current_trial": 139, "trialdata": {"rt": -1000, "trial_type": "single-audio", "word": "cousin", "stimulus": "/static/audio/wordpool/COUSIN.wav", "conditions": [24, 1600, "a", 24000], "internal_node_id": "0.0-103.0", "trial": 3, "time_elapsed": 681294, "serialpos": 22, "key_press": -1, "wordID": 391, "type": "PRES_AUD", "trial_index": 139}, "uniqueid": "MTK2384:3WI0P0II62ZMFI65FN6EVY5BA83DR8", "dateTime": 1517015320950}, {"current_trial": 140, "trialdata": {"rt": -1000, "trial_type": "single-audio", "word": "princess", "stimulus": "/static/audio/wordpool/PRINCESS.wav", "conditions": [24, 1600, "a", 24000], "internal_node_id": "0.0-104.0", "trial": 3, "time_elapsed": 684075, "serialpos": 23, "key_press": -1, "wordID": 1124, "type": "PRES_AUD", "trial_index": 140}, "uniqueid": "MTK2384:3WI0P0II62ZMFI65FN6EVY5BA83DR8", "dateTime": 1517015323732}, {"current_trial": 141, "trialdata": {"rt": -1, "trial_type": "single-stim", "stimulus": "", "internal_node_id": "0.0-105.0-0.0", "time_elapsed": 685375, "key_press": -1, "type": "PRE_RECALL_DELAY", "trial_index": 141}, "uniqueid": "MTK2384:3WI0P0II62ZMFI65FN6EVY5BA83DR8", "dateTime": 1517015325031}, {"current_trial": 142, "trialdata": {"rt": -1000, "trial_type": "single-audio", "stimulus": "/static/audio/400Hz.wav", "internal_node_id": "0.0-106.0", "time_elapsed": 685877, "key_press": -1, "type": "PRE_RECALL_ALERT", "trial_index": 142}, "uniqueid": "MTK2384:3WI0P0II62ZMFI65FN6EVY5BA83DR8", "dateTime": 1517015325533}, {"current_trial": 143, "trialdata": {"rt": [3200, 4880, 5953, 7424, 8776, 11848, 12896, 14640, 16704, 17592, 18849, 23097, 27336, 28424, 30047, 32656, 34632, 35808, 38952, 40239, 41247], "recwords": ["patient", "lagoon", "kitchen", "church", "tablet", "bubble", "rock", "human", "dolphin", "child", "girl", "river", "japan", "napkin", "hostess", "gymnast", "scissors", "bison", "razor", "cashier", "cousin"], "key_times": [1752, 1864, 2105, 2685, 2761, 2864, 2945, 3200, 3449, 3537, 3728, 3808, 3920, 4024, 4880, 5096, 5248, 5312, 5537, 5585, 5728, 5769, 5953, 6144, 6264, 6352, 6449, 6672, 6744, 7424, 7552, 7737, 7817, 7993, 8080, 8129, 8776, 10560, 10688, 10824, 10952, 11160, 11256, 11848, 12144, 12288, 12424, 12521, 12896, 13240, 13609, 13912, 14016, 14248, 14344, 14425, 14640, 14904, 15048, 15248, 15432, 15752, 16087, 16328, 16424, 16536, 16704, 16896, 17024, 17088, 17320, 17415, 17592, 18416, 18496, 18615, 18696, 18849, 20640, 20735, 20881, 21144, 21616, 21728, 21800, 23097, 24975, 25476, 25509, 25541, 25574, 25607, 25640, 25673, 25680, 26136, 26640, 26736, 26840, 27336, 27552, 27664, 27776, 28008, 28160, 28224, 28424, 28640, 28767, 28848, 28975, 29168, 29376, 29496, 30047, 31016, 31497, 31583, 31728, 31823, 32112, 32184, 32352, 32479, 32656, 33480, 33815, 33960, 34072, 34208, 34320, 34407, 34511, 34632, 34888, 35032, 35119, 35400, 35479, 35808, 37528, 37695, 37936, 38087, 38208, 38952, 39152, 39320, 39727, 39831, 39928, 39999, 40071, 40239, 40448, 40519, 40688, 40799, 40903, 40992, 41247], "trial_type": "free-recall", "conditions": [24, 1600, "a", 24000], "internal_node_id": "0.0-107.0-0.0", "key_presses": [80, 65, 84, 73, 69, 78, 84, 13, 76, 65, 71, 79, 79, 78, 13, 75, 73, 84, 67, 72, 69, 78, 13, 67, 72, 85, 82, 67, 72, 13, 84, 65, 66, 76, 69, 84, 13, 66, 85, 66, 66, 76, 69, 13, 82, 79, 67, 75, 13, 85, 8, 72, 85, 77, 65, 78, 13, 68, 79, 76, 80, 73, 8, 72, 73, 78, 13, 67, 72, 73, 76, 68, 13, 71, 73, 82, 76, 13, 82, 73, 86, 82, 8, 69, 82, 13, 16, 16, 16, 16, 16, 16, 16, 16, 74, 65, 80, 65, 78, 13, 78, 65, 80, 75, 73, 78, 13, 72, 79, 83, 84, 69, 83, 83, 13, 72, 8, 71, 89, 77, 78, 65, 83, 84, 13, 83, 67, 73, 83, 83, 79, 82, 83, 13, 66, 73, 83, 79, 78, 13, 82, 65, 90, 79, 82, 13, 67, 65, 83, 72, 73, 69, 82, 13, 67, 79, 85, 83, 73, 78, 13], "trial": 3, "time_elapsed": 745883, "type": "FREE_RECALL", "trial_index": 143}, "uniqueid": "MTK2384:3WI0P0II62ZMFI65FN6EVY5BA83DR8", "dateTime": 1517015385543}, {"current_trial": 144, "trialdata": {"rt": 2553, "trial_type": "text", "internal_node_id": "0.0-108.0", "time_elapsed": 750441, "key_press": 32, "type": "INSTRUCTIONS", "trial_index": 144}, "uniqueid": "MTK2384:3WI0P0II62ZMFI65FN6EVY5BA83DR8", "dateTime": 1517015390097}, {"current_trial": 145, "trialdata": {"rt": [3068, 4796, 6804, 10028, 11340], "trial_type": "math-distractor", "key_times": [2644, 2780, 3068, 4500, 4612, 4796, 6244, 6396, 6804, 8413, 8532, 10028, 11068, 11340], "responses": ["19", "11", "20", "12", "4"], "num2": [8, 1, 6, 4, 1, 7], "num3": [7, 7, 6, 4, 1, 1], "conditions": [12, 800, "a", 12000], "internal_node_id": "0.0-109.0", "key_presses": [97, 105, 13, 97, 97, 13, 98, 96, 13, 97, 98, 13, 100, 13], "trial": 4, "time_elapsed": 764446, "type": "DISTRACTOR", "trial_index": 145, "num1": [4, 3, 8, 4, 2, 6]}, "uniqueid": "MTK2384:3WI0P0II62ZMFI65FN6EVY5BA83DR8", "dateTime": 1517015404102}, {"current_trial": 146, "trialdata": {"rt": -1, "trial_type": "single-stim", "stimulus": "<p id=\"stim\">10</p>", "internal_node_id": "0.0-110.0-0.0", "time_elapsed": 767449, "key_press": -1, "trial_index": 146}, "uniqueid": "MTK2384:3WI0P0II62ZMFI65FN6EVY5BA83DR8", "dateTime": 1517015407105}, {"current_trial": 147, "trialdata": {"rt": -1, "trial_type": "single-stim", "stimulus": "<p id=\"stim\">9</p>", "internal_node_id": "0.0-110.0-1.0", "time_elapsed": 768450, "key_press": -1, "trial_index": 147}, "uniqueid": "MTK2384:3WI0P0II62ZMFI65FN6EVY5BA83DR8", "dateTime": 1517015408106}, {"current_trial": 148, "trialdata": {"rt": -1, "trial_type": "single-stim", "stimulus": "<p id=\"stim\">8</p>", "internal_node_id": "0.0-110.0-2.0", "time_elapsed": 769452, "key_press": -1, "trial_index": 148}, "uniqueid": "MTK2384:3WI0P0II62ZMFI65FN6EVY5BA83DR8", "dateTime": 1517015409108}, {"current_trial": 149, "trialdata": {"rt": -1, "trial_type": "single-stim", "stimulus": "<p id=\"stim\">7</p>", "internal_node_id": "0.0-110.0-3.0", "time_elapsed": 770453, "key_press": -1, "trial_index": 149}, "uniqueid": "MTK2384:3WI0P0II62ZMFI65FN6EVY5BA83DR8", "dateTime": 1517015410110}, {"current_trial": 150, "trialdata": {"rt": -1, "trial_type": "single-stim", "stimulus": "<p id=\"stim\">6</p>", "internal_node_id": "0.0-110.0-4.0", "time_elapsed": 771454, "key_press": -1, "trial_index": 150}, "uniqueid": "MTK2384:3WI0P0II62ZMFI65FN6EVY5BA83DR8", "dateTime": 1517015411111}, {"current_trial": 151, "trialdata": {"rt": -1, "trial_type": "single-stim", "stimulus": "<p id=\"stim\">5</p>", "internal_node_id": "0.0-110.0-5.0", "time_elapsed": 772456, "key_press": -1, "trial_index": 151}, "uniqueid": "MTK2384:3WI0P0II62ZMFI65FN6EVY5BA83DR8", "dateTime": 1517015412112}, {"current_trial": 152, "trialdata": {"rt": -1, "trial_type": "single-stim", "stimulus": "<p id=\"stim\">4</p>", "internal_node_id": "0.0-110.0-6.0", "time_elapsed": 773458, "key_press": -1, "trial_index": 152}, "uniqueid": "MTK2384:3WI0P0II62ZMFI65FN6EVY5BA83DR8", "dateTime": 1517015413114}, {"current_trial": 153, "trialdata": {"rt": -1, "trial_type": "single-stim", "stimulus": "<p id=\"stim\">3</p>", "internal_node_id": "0.0-110.0-7.0", "time_elapsed": 774460, "key_press": -1, "trial_index": 153}, "uniqueid": "MTK2384:3WI0P0II62ZMFI65FN6EVY5BA83DR8", "dateTime": 1517015414117}, {"current_trial": 154, "trialdata": {"rt": -1, "trial_type": "single-stim", "stimulus": "<p id=\"stim\">2</p>", "internal_node_id": "0.0-110.0-8.0", "time_elapsed": 775463, "key_press": -1, "trial_index": 154}, "uniqueid": "MTK2384:3WI0P0II62ZMFI65FN6EVY5BA83DR8", "dateTime": 1517015415120}, {"current_trial": 155, "trialdata": {"rt": -1, "trial_type": "single-stim", "stimulus": "<p id=\"stim\">1</p>", "internal_node_id": "0.0-110.0-9.0", "time_elapsed": 776466, "key_press": -1, "trial_index": 155}, "uniqueid": "MTK2384:3WI0P0II62ZMFI65FN6EVY5BA83DR8", "dateTime": 1517015416122}, {"current_trial": 156, "trialdata": {"rt": -1, "trial_type": "single-stim", "stimulus": "<p id=\"stim\">+</p>", "internal_node_id": "0.0-111.0-0.0", "time_elapsed": 777968, "key_press": -1, "type": "FIXATION", "trial_index": 156}, "uniqueid": "MTK2384:3WI0P0II62ZMFI65FN6EVY5BA83DR8", "dateTime": 1517015417625}, {"current_trial": 157, "trialdata": {"rt": -1000, "trial_type": "single-audio", "word": "keeper", "stimulus": "/static/audio/wordpool/KEEPER.wav", "conditions": [12, 800, "a", 12000], "internal_node_id": "0.0-112.0", "trial": 4, "time_elapsed": 779641, "serialpos": 0, "key_press": -1, "wordID": 768, "type": "PRES_AUD", "trial_index": 157}, "uniqueid": "MTK2384:3WI0P0II62ZMFI65FN6EVY5BA83DR8", "dateTime": 1517015419297}, {"current_trial": 158, "trialdata": {"rt": -1000, "trial_type": "single-audio", "word": "stallion", "stimulus": "/static/audio/wordpool/STALLION.wav", "conditions": [12, 800, "a", 12000], "internal_node_id": "0.0-113.0", "trial": 4, "time_elapsed": 781502, "serialpos": 1, "key_press": -1, "wordID": 1368, "type": "PRES_AUD", "trial_index": 158}, "uniqueid": "MTK2384:3WI0P0II62ZMFI65FN6EVY5BA83DR8", "dateTime": 1517015421159}, {"current_trial": 159, "trialdata": {"rt": -1000, "trial_type": "single-audio", "word": "cupboard", "stimulus": "/static/audio/wordpool/CUPBOARD.wav", "conditions": [12, 800, "a", 12000], "internal_node_id": "0.0-114.0", "trial": 4, "time_elapsed": 783393, "serialpos": 2, "key_press": -1, "wordID": 424, "type": "PRES_AUD", "trial_index": 159}, "uniqueid": "MTK2384:3WI0P0II62ZMFI65FN6EVY5BA83DR8", "dateTime": 1517015423050}, {"current_trial": 160, "trialdata": {"rt": -1000, "trial_type": "single-audio", "word": "blouse", "stimulus": "/static/audio/wordpool/BLOUSE.wav", "conditions": [12, 800, "a", 12000], "internal_node_id": "0.0-115.0", "trial": 4, "time_elapsed": 785064, "serialpos": 3, "key_press": -1, "wordID": 138, "type": "PRES_AUD", "trial_index": 160}, "uniqueid": "MTK2384:3WI0P0II62ZMFI65FN6EVY5BA83DR8", "dateTime": 1517015424720}, {"current_trial": 161, "trialdata": {"rt": -1000, "trial_type": "single-audio", "word": "driver", "stimulus": "/static/audio/wordpool/DRIVER.wav", "conditions": [12, 800, "a", 12000], "internal_node_id": "0.0-116.0", "trial": 4, "time_elapsed": 786756, "serialpos": 4, "key_press": -1, "wordID": 498, "type": "PRES_AUD", "trial_index": 161}, "uniqueid": "MTK2384:3WI0P0II62ZMFI65FN6EVY5BA83DR8", "dateTime": 1517015426412}, {"current_trial": 162, "trialdata": {"rt": -1000, "trial_type": "single-audio", "word": "machine", "stimulus": "/static/audio/wordpool/MACHINE.wav", "conditions": [12, 800, "a", 12000], "internal_node_id": "0.0-117.0", "trial": 4, "time_elapsed": 788367, "serialpos": 5, "key_press": -1, "wordID": 851, "type": "PRES_AUD", "trial_index": 162}, "uniqueid": "MTK2384:3WI0P0II62ZMFI65FN6EVY5BA83DR8", "dateTime": 1517015428024}, {"current_trial": 163, "trialdata": {"rt": -1000, "trial_type": "single-audio", "word": "garden", "stimulus": "/static/audio/wordpool/GARDEN.wav", "conditions": [12, 800, "a", 12000], "internal_node_id": "0.0-118.0", "trial": 4, "time_elapsed": 790144, "serialpos": 6, "key_press": -1, "wordID": 622, "type": "PRES_AUD", "trial_index": 163}, "uniqueid": "MTK2384:3WI0P0II62ZMFI65FN6EVY5BA83DR8", "dateTime": 1517015429800}, {"current_trial": 164, "trialdata": {"rt": -1000, "trial_type": "single-audio", "word": "dresser", "stimulus": "/static/audio/wordpool/DRESSER.wav", "conditions": [12, 800, "a", 12000], "internal_node_id": "0.0-119.0", "trial": 4, "time_elapsed": 791993, "serialpos": 7, "key_press": -1, "wordID": 495, "type": "PRES_AUD", "trial_index": 164}, "uniqueid": "MTK2384:3WI0P0II62ZMFI65FN6EVY5BA83DR8", "dateTime": 1517015431649}, {"current_trial": 165, "trialdata": {"rt": -1000, "trial_type": "single-audio", "word": "possum", "stimulus": "/static/audio/wordpool/POSSUM.wav", "conditions": [12, 800, "a", 12000], "internal_node_id": "0.0-120.0", "trial": 4, "time_elapsed": 793865, "serialpos": 8, "key_press": -1, "wordID": 1111, "type": "PRES_AUD", "trial_index": 165}, "uniqueid": "MTK2384:3WI0P0II62ZMFI65FN6EVY5BA83DR8", "dateTime": 1517015433521}, {"current_trial": 166, "trialdata": {"rt": -1000, "trial_type": "single-audio", "word": "panther", "stimulus": "/static/audio/wordpool/PANTHER.wav", "conditions": [12, 800, "a", 12000], "internal_node_id": "0.0-121.0", "trial": 4, "time_elapsed": 795745, "serialpos": 9, "key_press": -1, "wordID": 1008, "type": "PRES_AUD", "trial_index": 166}, "uniqueid": "MTK2384:3WI0P0II62ZMFI65FN6EVY5BA83DR8", "dateTime": 1517015435401}, {"current_trial": 167, "trialdata": {"rt": -1000, "trial_type": "single-audio", "word": "banjo", "stimulus": "/static/audio/wordpool/BANJO.wav", "conditions": [12, 800, "a", 12000], "internal_node_id": "0.0-122.0", "trial": 4, "time_elapsed": 797611, "serialpos": 10, "key_press": -1, "wordID": 81, "type": "PRES_AUD", "trial_index": 167}, "uniqueid": "MTK2384:3WI0P0II62ZMFI65FN6EVY5BA83DR8", "dateTime": 1517015437267}, {"current_trial": 168, "trialdata": {"rt": -1000, "trial_type": "single-audio", "word": "poison", "stimulus": "/static/audio/wordpool/POISON.wav", "conditions": [12, 800, "a", 12000], "internal_node_id": "0.0-123.0", "trial": 4, "time_elapsed": 799269, "serialpos": 11, "key_press": -1, "wordID": 1095, "type": "PRES_AUD", "trial_index": 168}, "uniqueid": "MTK2384:3WI0P0II62ZMFI65FN6EVY5BA83DR8", "dateTime": 1517015438925}, {"current_trial": 169, "trialdata": {"rt": -1, "trial_type": "single-stim", "stimulus": "", "internal_node_id": "0.0-124.0-0.0", "time_elapsed": 800510, "key_press": -1, "type": "PRE_RECALL_DELAY", "trial_index": 169}, "uniqueid": "MTK2384:3WI0P0II62ZMFI65FN6EVY5BA83DR8", "dateTime": 1517015440167}, {"current_trial": 170, "trialdata": {"rt": -1000, "trial_type": "single-audio", "stimulus": "/static/audio/400Hz.wav", "internal_node_id": "0.0-125.0", "time_elapsed": 801011, "key_press": -1, "type": "PRE_RECALL_ALERT", "trial_index": 170}, "uniqueid": "MTK2384:3WI0P0II62ZMFI65FN6EVY5BA83DR8", "dateTime": 1517015440668}, {"current_trial": 171, "trialdata": {"rt": [8746, 9947, 11987, 15442, 18451, 19362, 20643, 22394, 24435, 27707, 48196, 53506], "recwords": ["poison", "panther", "banjo", "possum", "garden", "machine", "driver", "keeper", "dresser", "stallion", "cupbard", "blouse"], "key_times": [7107, 7627, 7835, 7987, 8283, 8395, 8746, 9178, 9275, 9339, 9474, 9563, 9634, 9699, 9947, 10426, 10523, 10626, 10851, 10979, 11987, 13258, 13443, 13571, 13699, 13803, 13883, 14490, 14627, 14866, 15035, 15442, 17587, 17754, 17890, 18074, 18186, 18266, 18451, 18650, 18731, 18891, 18970, 19050, 19146, 19259, 19362, 19539, 19674, 19754, 19891, 20010, 20098, 20643, 21627, 21714, 21874, 21946, 22059, 22139, 22394, 23507, 23683, 23762, 23938, 24090, 24234, 24306, 24435, 26602, 26739, 26874, 26954, 27082, 27276, 27468, 27539, 27707, 27915, 28090, 28746, 28890, 29074, 29146, 29707, 29834, 29986, 30162, 30547, 30690, 30827, 30938, 31178, 31298, 31379, 31490, 31634, 32058, 32558, 32590, 32738, 32882, 33435, 33883, 34379, 34570, 34722, 35130, 35630, 35663, 35696, 35729, 35762, 35795, 35828, 35862, 37298, 37746, 38058, 38186, 39210, 39329, 39658, 39866, 40298, 40402, 40537, 40698, 41058, 41186, 41314, 41442, 41633, 41762, 41905, 43171, 43669, 43702, 43735, 43769, 43801, 43835, 43867, 45306, 45410, 45585, 46754, 46818, 46970, 47116, 48196, 52418, 52546, 52746, 53118, 53234, 53370, 53506], "trial_type": "free-recall", "conditions": [12, 800, "a", 12000], "internal_node_id": "0.0-126.0-0.0", "key_presses": [80, 79, 73, 83, 79, 78, 13, 80, 65, 78, 84, 72, 69, 82, 13, 66, 65, 78, 74, 79, 13, 80, 79, 83, 83, 79, 77, 8, 8, 85, 77, 13, 71, 65, 82, 68, 69, 78, 13, 77, 65, 67, 72, 73, 78, 69, 13, 68, 82, 73, 86, 69, 82, 13, 75, 69, 69, 80, 69, 82, 13, 68, 82, 69, 83, 83, 69, 82, 13, 83, 84, 65, 76, 76, 73, 79, 78, 13, 83, 85, 8, 8, 67, 85, 80, 80, 65, 82, 8, 8, 8, 8, 66, 66, 65, 82, 68, 8, 8, 8, 8, 8, 80, 66, 65, 82, 68, 8, 8, 8, 8, 8, 8, 8, 8, 8, 66, 85, 8, 8, 67, 85, 80, 66, 79, 65, 82, 68, 8, 8, 8, 8, 65, 82, 68, 8, 8, 8, 8, 8, 8, 8, 8, 67, 85, 80, 66, 65, 82, 68, 13, 66, 76, 79, 85, 83, 69, 13], "trial": 4, "time_elapsed": 861016, "type": "FREE_RECALL", "trial_index": 171}, "uniqueid": "MTK2384:3WI0P0II62ZMFI65FN6EVY5BA83DR8", "dateTime": 1517015500679}, {"current_trial": 172, "trialdata": {"rt": 2263, "trial_type": "text", "internal_node_id": "0.0-127.0", "time_elapsed": 865288, "key_press": 32, "type": "INSTRUCTIONS", "trial_index": 172}, "uniqueid": "MTK2384:3WI0P0II62ZMFI65FN6EVY5BA83DR8", "dateTime": 1517015504944}, {"current_trial": 173, "trialdata": {"rt": [2813, 5205, 7596, 9853, 11676], "trial_type": "math-distractor", "key_times": [2285, 2613, 2813, 4645, 4796, 5205, 6765, 6941, 7596, 9157, 9293, 9853, 11133, 11348, 11676], "responses": ["13", "19", "19", "17", "14"], "num2": [4, 3, 2, 6, 9, 6], "num3": [4, 8, 9, 6, 2, 7], "conditions": [24, 1600, "a", 12000], "internal_node_id": "0.0-128.0", "key_presses": [97, 99, 13, 97, 105, 13, 97, 105, 13, 97, 103, 13, 97, 100, 13], "trial": 5, "time_elapsed": 879292, "type": "DISTRACTOR", "trial_index": 173, "num1": [5, 8, 8, 5, 3, 9]}, "uniqueid": "MTK2384:3WI0P0II62ZMFI65FN6EVY5BA83DR8", "dateTime": 1517015518948}, {"current_trial": 174, "trialdata": {"rt": -1, "trial_type": "single-stim", "stimulus": "<p id=\"stim\">10</p>", "internal_node_id": "0.0-129.0-0.0", "time_elapsed": 882294, "key_press": -1, "trial_index": 174}, "uniqueid": "MTK2384:3WI0P0II62ZMFI65FN6EVY5BA83DR8", "dateTime": 1517015521950}, {"current_trial": 175, "trialdata": {"rt": -1, "trial_type": "single-stim", "stimulus": "<p id=\"stim\">9</p>", "internal_node_id": "0.0-129.0-1.0", "time_elapsed": 883295, "key_press": -1, "trial_index": 175}, "uniqueid": "MTK2384:3WI0P0II62ZMFI65FN6EVY5BA83DR8", "dateTime": 1517015522951}, {"current_trial": 176, "trialdata": {"rt": -1, "trial_type": "single-stim", "stimulus": "<p id=\"stim\">8</p>", "internal_node_id": "0.0-129.0-2.0", "time_elapsed": 884297, "key_press": -1, "trial_index": 176}, "uniqueid": "MTK2384:3WI0P0II62ZMFI65FN6EVY5BA83DR8", "dateTime": 1517015523953}, {"current_trial": 177, "trialdata": {"rt": -1, "trial_type": "single-stim", "stimulus": "<p id=\"stim\">7</p>", "internal_node_id": "0.0-129.0-3.0", "time_elapsed": 885298, "key_press": -1, "trial_index": 177}, "uniqueid": "MTK2384:3WI0P0II62ZMFI65FN6EVY5BA83DR8", "dateTime": 1517015524954}, {"current_trial": 178, "trialdata": {"rt": -1, "trial_type": "single-stim", "stimulus": "<p id=\"stim\">6</p>", "internal_node_id": "0.0-129.0-4.0", "time_elapsed": 886299, "key_press": -1, "trial_index": 178}, "uniqueid": "MTK2384:3WI0P0II62ZMFI65FN6EVY5BA83DR8", "dateTime": 1517015525955}, {"current_trial": 179, "trialdata": {"rt": -1, "trial_type": "single-stim", "stimulus": "<p id=\"stim\">5</p>", "internal_node_id": "0.0-129.0-5.0", "time_elapsed": 887300, "key_press": -1, "trial_index": 179}, "uniqueid": "MTK2384:3WI0P0II62ZMFI65FN6EVY5BA83DR8", "dateTime": 1517015526956}, {"current_trial": 180, "trialdata": {"rt": -1, "trial_type": "single-stim", "stimulus": "<p id=\"stim\">4</p>", "internal_node_id": "0.0-129.0-6.0", "time_elapsed": 888302, "key_press": -1, "trial_index": 180}, "uniqueid": "MTK2384:3WI0P0II62ZMFI65FN6EVY5BA83DR8", "dateTime": 1517015527958}, {"current_trial": 181, "trialdata": {"rt": -1, "trial_type": "single-stim", "stimulus": "<p id=\"stim\">3</p>", "internal_node_id": "0.0-129.0-7.0", "time_elapsed": 889306, "key_press": -1, "trial_index": 181}, "uniqueid": "MTK2384:3WI0P0II62ZMFI65FN6EVY5BA83DR8", "dateTime": 1517015528962}, {"current_trial": 182, "trialdata": {"rt": -1, "trial_type": "single-stim", "stimulus": "<p id=\"stim\">2</p>", "internal_node_id": "0.0-129.0-8.0", "time_elapsed": 890307, "key_press": -1, "trial_index": 182}, "uniqueid": "MTK2384:3WI0P0II62ZMFI65FN6EVY5BA83DR8", "dateTime": 1517015529963}, {"current_trial": 183, "trialdata": {"rt": -1, "trial_type": "single-stim", "stimulus": "<p id=\"stim\">1</p>", "internal_node_id": "0.0-129.0-9.0", "time_elapsed": 891309, "key_press": -1, "trial_index": 183}, "uniqueid": "MTK2384:3WI0P0II62ZMFI65FN6EVY5BA83DR8", "dateTime": 1517015530965}, {"current_trial": 184, "trialdata": {"rt": -1, "trial_type": "single-stim", "stimulus": "<p id=\"stim\">+</p>", "internal_node_id": "0.0-130.0-0.0", "time_elapsed": 892812, "key_press": -1, "type": "FIXATION", "trial_index": 184}, "uniqueid": "MTK2384:3WI0P0II62ZMFI65FN6EVY5BA83DR8", "dateTime": 1517015532468}, {"current_trial": 185, "trialdata": {"rt": -1000, "trial_type": "single-audio", "word": "pizza", "stimulus": "/static/audio/wordpool/PIZZA.wav", "conditions": [24, 1600, "a", 12000], "internal_node_id": "0.0-131.0", "trial": 5, "time_elapsed": 895399, "serialpos": 0, "key_press": -1, "wordID": 1078, "type": "PRES_AUD", "trial_index": 185}, "uniqueid": "MTK2384:3WI0P0II62ZMFI65FN6EVY5BA83DR8", "dateTime": 1517015535056}, {"current_trial": 186, "trialdata": {"rt": -1000, "trial_type": "single-audio", "word": "couch", "stimulus": "/static/audio/wordpool/COUCH.wav", "conditions": [24, 1600, "a", 12000], "internal_node_id": "0.0-132.0", "trial": 5, "time_elapsed": 898151, "serialpos": 1, "key_press": -1, "wordID": 385, "type": "PRES_AUD", "trial_index": 186}, "uniqueid": "MTK2384:3WI0P0II62ZMFI65FN6EVY5BA83DR8", "dateTime": 1517015537808}, {"current_trial": 187, "trialdata": {"rt": -1000, "trial_type": "single-audio", "word": "mattress", "stimulus": "/static/audio/wordpool/MATTRESS.wav", "conditions": [24, 1600, "a", 12000], "internal_node_id": "0.0-133.0", "trial": 5, "time_elapsed": 900880, "serialpos": 2, "key_press": -1, "wordID": 878, "type": "PRES_AUD", "trial_index": 187}, "uniqueid": "MTK2384:3WI0P0II62ZMFI65FN6EVY5BA83DR8", "dateTime": 1517015540536}, {"current_trial": 188, "trialdata": {"rt": -1000, "trial_type": "single-audio", "word": "globe", "stimulus": "/static/audio/wordpool/GLOBE.wav", "conditions": [24, 1600, "a", 12000], "internal_node_id": "0.0-134.0", "trial": 5, "time_elapsed": 903399, "serialpos": 3, "key_press": -1, "wordID": 640, "type": "PRES_AUD", "trial_index": 188}, "uniqueid": "MTK2384:3WI0P0II62ZMFI65FN6EVY5BA83DR8", "dateTime": 1517015543055}, {"current_trial": 189, "trialdata": {"rt": -1000, "trial_type": "single-audio", "word": "actor", "stimulus": "/static/audio/wordpool/ACTOR.wav", "conditions": [24, 1600, "a", 12000], "internal_node_id": "0.0-135.0", "trial": 5, "time_elapsed": 906072, "serialpos": 4, "key_press": -1, "wordID": 4, "type": "PRES_AUD", "trial_index": 189}, "uniqueid": "MTK2384:3WI0P0II62ZMFI65FN6EVY5BA83DR8", "dateTime": 1517015545728}, {"current_trial": 190, "trialdata": {"rt": -1000, "trial_type": "single-audio", "word": "hornet", "stimulus": "/static/audio/wordpool/HORNET.wav", "conditions": [24, 1600, "a", 12000], "internal_node_id": "0.0-136.0", "trial": 5, "time_elapsed": 908735, "serialpos": 5, "key_press": -1, "wordID": 717, "type": "PRES_AUD", "trial_index": 190}, "uniqueid": "MTK2384:3WI0P0II62ZMFI65FN6EVY5BA83DR8", "dateTime": 1517015548391}, {"current_trial": 191, "trialdata": {"rt": -1000, "trial_type": "single-audio", "word": "turnip", "stimulus": "/static/audio/wordpool/TURNIP.wav", "conditions": [24, 1600, "a", 12000], "internal_node_id": "0.0-137.0", "trial": 5, "time_elapsed": 911243, "serialpos": 6, "key_press": -1, "wordID": 1520, "type": "PRES_AUD", "trial_index": 191}, "uniqueid": "MTK2384:3WI0P0II62ZMFI65FN6EVY5BA83DR8", "dateTime": 1517015550900}, {"current_trial": 192, "trialdata": {"rt": -1000, "trial_type": "single-audio", "word": "football", "stimulus": "/static/audio/wordpool/FOOTBALL.wav", "conditions": [24, 1600, "a", 12000], "internal_node_id": "0.0-138.0", "trial": 5, "time_elapsed": 913962, "serialpos": 7, "key_press": -1, "wordID": 590, "type": "PRES_AUD", "trial_index": 192}, "uniqueid": "MTK2384:3WI0P0II62ZMFI65FN6EVY5BA83DR8", "dateTime": 1517015553618}, {"current_trial": 193, "trialdata": {"rt": -1000, "trial_type": "single-audio", "word": "kleenex", "stimulus": "/static/audio/wordpool/KLEENEX.wav", "conditions": [24, 1600, "a", 12000], "internal_node_id": "0.0-139.0", "trial": 5, "time_elapsed": 916669, "serialpos": 8, "key_press": -1, "wordID": 781, "type": "PRES_AUD", "trial_index": 193}, "uniqueid": "MTK2384:3WI0P0II62ZMFI65FN6EVY5BA83DR8", "dateTime": 1517015556325}, {"current_trial": 194, "trialdata": {"rt": -1000, "trial_type": "single-audio", "word": "film", "stimulus": "/static/audio/wordpool/FILM.wav", "conditions": [24, 1600, "a", 12000], "internal_node_id": "0.0-140.0", "trial": 5, "time_elapsed": 919288, "serialpos": 9, "key_press": -1, "wordID": 564, "type": "PRES_AUD", "trial_index": 194}, "uniqueid": "MTK2384:3WI0P0II62ZMFI65FN6EVY5BA83DR8", "dateTime": 1517015558944}, {"current_trial": 195, "trialdata": {"rt": -1000, "trial_type": "single-audio", "word": "hiker", "stimulus": "/static/audio/wordpool/HIKER.wav", "conditions": [24, 1600, "a", 12000], "internal_node_id": "0.0-141.0", "trial": 5, "time_elapsed": 921938, "serialpos": 10, "key_press": -1, "wordID": 707, "type": "PRES_AUD", "trial_index": 195}, "uniqueid": "MTK2384:3WI0P0II62ZMFI65FN6EVY5BA83DR8", "dateTime": 1517015561594}, {"current_trial": 196, "trialdata": {"rt": -1000, "trial_type": "single-audio", "word": "pasta", "stimulus": "/static/audio/wordpool/PASTA.wav", "conditions": [24, 1600, "a", 12000], "internal_node_id": "0.0-142.0", "trial": 5, "time_elapsed": 924365, "serialpos": 11, "key_press": -1, "wordID": 1020, "type": "PRES_AUD", "trial_index": 196}, "uniqueid": "MTK2384:3WI0P0II62ZMFI65FN6EVY5BA83DR8", "dateTime": 1517015564021}, {"current_trial": 197, "trialdata": {"rt": -1000, "trial_type": "single-audio", "word": "seafood", "stimulus": "/static/audio/wordpool/SEAFOOD.wav", "conditions": [24, 1600, "a", 12000], "internal_node_id": "0.0-143.0", "trial": 5, "time_elapsed": 926870, "serialpos": 12, "key_press": -1, "wordID": 1259, "type": "PRES_AUD", "trial_index": 197}, "uniqueid": "MTK2384:3WI0P0II62ZMFI65FN6EVY5BA83DR8", "dateTime": 1517015566526}, {"current_trial": 198, "trialdata": {"rt": -1000, "trial_type": "single-audio", "word": "turtle", "stimulus": "/static/audio/wordpool/TURTLE.wav", "conditions": [24, 1600, "a", 12000], "internal_node_id": "0.0-144.0", "trial": 5, "time_elapsed": 929402, "serialpos": 13, "key_press": -1, "wordID": 1521, "type": "PRES_AUD", "trial_index": 198}, "uniqueid": "MTK2384:3WI0P0II62ZMFI65FN6EVY5BA83DR8", "dateTime": 1517015569058}, {"current_trial": 199, "trialdata": {"rt": -1000, "trial_type": "single-audio", "word": "penguin", "stimulus": "/static/audio/wordpool/PENGUIN.wav", "conditions": [24, 1600, "a", 12000], "internal_node_id": "0.0-145.0", "trial": 5, "time_elapsed": 931860, "serialpos": 14, "key_press": -1, "wordID": 1043, "type": "PRES_AUD", "trial_index": 199}, "uniqueid": "MTK2384:3WI0P0II62ZMFI65FN6EVY5BA83DR8", "dateTime": 1517015571516}, {"current_trial": 200, "trialdata": {"rt": -1000, "trial_type": "single-audio", "word": "blade", "stimulus": "/static/audio/wordpool/BLADE.wav", "conditions": [24, 1600, "a", 12000], "internal_node_id": "0.0-146.0", "trial": 5, "time_elapsed": 934372, "serialpos": 15, "key_press": -1, "wordID": 133, "type": "PRES_AUD", "trial_index": 200}, "uniqueid": "MTK2384:3WI0P0II62ZMFI65FN6EVY5BA83DR8", "dateTime": 1517015574028}, {"current_trial": 201, "trialdata": {"rt": -1000, "trial_type": "single-audio", "word": "shark", "stimulus": "/static/audio/wordpool/SHARK.wav", "conditions": [24, 1600, "a", 12000], "internal_node_id": "0.0-147.0", "trial": 5, "time_elapsed": 937038, "serialpos": 16, "key_press": -1, "wordID": 1274, "type": "PRES_AUD", "trial_index": 201}, "uniqueid": "MTK2384:3WI0P0II62ZMFI65FN6EVY5BA83DR8", "dateTime": 1517015576694}, {"current_trial": 202, "trialdata": {"rt": -1000, "trial_type": "single-audio", "word": "quarter", "stimulus": "/static/audio/wordpool/QUARTER.wav", "conditions": [24, 1600, "a", 12000], "internal_node_id": "0.0-148.0", "trial": 5, "time_elapsed": 939699, "serialpos": 17, "key_press": -1, "wordID": 1147, "type": "PRES_AUD", "trial_index": 202}, "uniqueid": "MTK2384:3WI0P0II62ZMFI65FN6EVY5BA83DR8", "dateTime": 1517015579356}, {"current_trial": 203, "trialdata": {"rt": -1000, "trial_type": "single-audio", "word": "pastry", "stimulus": "/static/audio/wordpool/PASTRY.wav", "conditions": [24, 1600, "a", 12000], "internal_node_id": "0.0-149.0", "trial": 5, "time_elapsed": 942244, "serialpos": 18, "key_press": -1, "wordID": 1021, "type": "PRES_AUD", "trial_index": 203}, "uniqueid": "MTK2384:3WI0P0II62ZMFI65FN6EVY5BA83DR8", "dateTime": 1517015581900}, {"current_trial": 204, "trialdata": {"rt": -1000, "trial_type": "single-audio", "word": "cod", "stimulus": "/static/audio/wordpool/COD.wav", "conditions": [24, 1600, "a", 12000], "internal_node_id": "0.0-150.0", "trial": 5, "time_elapsed": 944811, "serialpos": 19, "key_press": -1, "wordID": 339, "type": "PRES_AUD", "trial_index": 204}, "uniqueid": "MTK2384:3WI0P0II62ZMFI65FN6EVY5BA83DR8", "dateTime": 1517015584467}, {"current_trial": 205, "trialdata": {"rt": -1000, "trial_type": "single-audio", "word": "shortcake", "stimulus": "/static/audio/wordpool/SHORTCAKE.wav", "conditions": [24, 1600, "a", 12000], "internal_node_id": "0.0-151.0", "trial": 5, "time_elapsed": 947587, "serialpos": 20, "key_press": -1, "wordID": 1291, "type": "PRES_AUD", "trial_index": 205}, "uniqueid": "MTK2384:3WI0P0II62ZMFI65FN6EVY5BA83DR8", "dateTime": 1517015587243}, {"current_trial": 206, "trialdata": {"rt": -1000, "trial_type": "single-audio", "word": "tractor", "stimulus": "/static/audio/wordpool/TRACTOR.wav", "conditions": [24, 1600, "a", 12000], "internal_node_id": "0.0-152.0", "trial": 5, "time_elapsed": 950230, "serialpos": 21, "key_press": -1, "wordID": 1492, "type": "PRES_AUD", "trial_index": 206}, "uniqueid": "MTK2384:3WI0P0II62ZMFI65FN6EVY5BA83DR8", "dateTime": 1517015589887}, {"current_trial": 207, "trialdata": {"rt": -1000, "trial_type": "single-audio", "word": "comet", "stimulus": "/static/audio/wordpool/COMET.wav", "conditions": [24, 1600, "a", 12000], "internal_node_id": "0.0-153.0", "trial": 5, "time_elapsed": 953006, "serialpos": 22, "key_press": -1, "wordID": 352, "type": "PRES_AUD", "trial_index": 207}, "uniqueid": "MTK2384:3WI0P0II62ZMFI65FN6EVY5BA83DR8", "dateTime": 1517015592662}, {"current_trial": 208, "trialdata": {"rt": -1000, "trial_type": "single-audio", "word": "salt", "stimulus": "/static/audio/wordpool/SALT.wav", "conditions": [24, 1600, "a", 12000], "internal_node_id": "0.0-154.0", "trial": 5, "time_elapsed": 955585, "serialpos": 23, "key_press": -1, "wordID": 1228, "type": "PRES_AUD", "trial_index": 208}, "uniqueid": "MTK2384:3WI0P0II62ZMFI65FN6EVY5BA83DR8", "dateTime": 1517015595242}, {"current_trial": 209, "trialdata": {"rt": -1, "trial_type": "single-stim", "stimulus": "", "internal_node_id": "0.0-155.0-0.0", "time_elapsed": 956949, "key_press": -1, "type": "PRE_RECALL_DELAY", "trial_index": 209}, "uniqueid": "MTK2384:3WI0P0II62ZMFI65FN6EVY5BA83DR8", "dateTime": 1517015596605}, {"current_trial": 210, "trialdata": {"rt": -1000, "trial_type": "single-audio", "stimulus": "/static/audio/400Hz.wav", "internal_node_id": "0.0-156.0", "time_elapsed": 957451, "key_press": -1, "type": "PRE_RECALL_ALERT", "trial_index": 210}, "uniqueid": "MTK2384:3WI0P0II62ZMFI65FN6EVY5BA83DR8", "dateTime": 1517015597107}, {"current_trial": 211, "trialdata": {"rt": [2081, 3673, 4425, 5017, 7281, 8306, 10305, 12051, 14074, 15394, 21122, 22330, 24554, 27825, 29522, 31905, 33050, 40161], "recwords": ["cod", "shortcake", "comet", "salt", "couch", "pizza", "mattress", "globe", "actor", "hornet", "hiker", "pasta", "seafood", "penguin", "turtle", "shark", "blade", "football"], "key_times": [1657, 1792, 1897, 2081, 2337, 2441, 2657, 2769, 2921, 3169, 3328, 3457, 3561, 3673, 3889, 3985, 4065, 4178, 4249, 4425, 4569, 4713, 4801, 4913, 5017, 6561, 6665, 6849, 6929, 7025, 7281, 7489, 7657, 7745, 7865, 8024, 8306, 8929, 9017, 9169, 9329, 9474, 9697, 9873, 10001, 10305, 10891, 10962, 11114, 11194, 11330, 12051, 12433, 12658, 12826, 12938, 13003, 14074, 14762, 14882, 14970, 15082, 15170, 15226, 15394, 20538, 20650, 20850, 20930, 20986, 21122, 21314, 21386, 21546, 21666, 21809, 22330, 22522, 22682, 22826, 23091, 23178, 23290, 23386, 24554, 26434, 26530, 26650, 26857, 27194, 27394, 27457, 27825, 27978, 28201, 28377, 28602, 28794, 28874, 29522, 31308, 31426, 31529, 31658, 31738, 31905, 32153, 32347, 32417, 32554, 32674, 33050, 39354, 39474, 39602, 39666, 39762, 39881, 39945, 40041, 40161], "trial_type": "free-recall", "conditions": [24, 1600, "a", 12000], "internal_node_id": "0.0-157.0-0.0", "key_presses": [67, 79, 68, 13, 83, 72, 79, 82, 84, 67, 65, 75, 69, 13, 67, 79, 77, 69, 84, 13, 83, 65, 76, 84, 13, 67, 79, 85, 67, 72, 13, 80, 73, 90, 90, 65, 13, 77, 65, 84, 84, 82, 69, 83, 83, 13, 71, 76, 79, 66, 69, 13, 65, 67, 84, 79, 82, 13, 72, 79, 82, 78, 69, 84, 13, 72, 73, 75, 69, 82, 13, 80, 65, 83, 84, 65, 13, 83, 69, 65, 70, 79, 79, 68, 13, 80, 69, 78, 71, 85, 73, 78, 13, 84, 85, 82, 84, 76, 69, 13, 83, 72, 65, 82, 75, 13, 66, 76, 65, 68, 69, 13, 70, 79, 79, 84, 66, 65, 76, 76, 13], "trial": 5, "time_elapsed": 1017456, "type": "FREE_RECALL", "trial_index": 211}, "uniqueid": "MTK2384:3WI0P0II62ZMFI65FN6EVY5BA83DR8", "dateTime": 1517015657124}, {"current_trial": 212, "trialdata": {"rt": 10488, "trial_type": "text", "internal_node_id": "0.0-158.0", "time_elapsed": 1029959, "key_press": 72, "type": "INSTRUCTIONS", "trial_index": 212}, "uniqueid": "MTK2384:3WI0P0II62ZMFI65FN6EVY5BA83DR8", "dateTime": 1517015669615}, {"current_trial": 213, "trialdata": {"rt": [3197, 5173, 6941, 10941], "trial_type": "math-distractor", "key_times": [2829, 2942, 3197, 4757, 4901, 5173, 6446, 6941, 10541, 10733, 10941], "responses": ["14", "19", "7", "24"], "num2": [6, 8, 3, 8, 7], "num3": [1, 3, 3, 7, 1], "conditions": [12, 1600, "a", 12000], "internal_node_id": "0.0-159.0", "key_presses": [97, 100, 13, 97, 105, 13, 103, 13, 98, 100, 13], "trial": 6, "time_elapsed": 1043962, "type": "DISTRACTOR", "trial_index": 213, "num1": [7, 8, 1, 8, 4]}, "uniqueid": "MTK2384:3WI0P0II62ZMFI65FN6EVY5BA83DR8", "dateTime": 1517015683618}, {"current_trial": 214, "trialdata": {"rt": -1, "trial_type": "single-stim", "stimulus": "<p id=\"stim\">10</p>", "internal_node_id": "0.0-160.0-0.0", "time_elapsed": 1046965, "key_press": -1, "trial_index": 214}, "uniqueid": "MTK2384:3WI0P0II62ZMFI65FN6EVY5BA83DR8", "dateTime": 1517015686621}, {"current_trial": 215, "trialdata": {"rt": -1, "trial_type": "single-stim", "stimulus": "<p id=\"stim\">9</p>", "internal_node_id": "0.0-160.0-1.0", "time_elapsed": 1047966, "key_press": -1, "trial_index": 215}, "uniqueid": "MTK2384:3WI0P0II62ZMFI65FN6EVY5BA83DR8", "dateTime": 1517015687622}, {"current_trial": 216, "trialdata": {"rt": -1, "trial_type": "single-stim", "stimulus": "<p id=\"stim\">8</p>", "internal_node_id": "0.0-160.0-2.0", "time_elapsed": 1048967, "key_press": -1, "trial_index": 216}, "uniqueid": "MTK2384:3WI0P0II62ZMFI65FN6EVY5BA83DR8", "dateTime": 1517015688624}, {"current_trial": 217, "trialdata": {"rt": -1, "trial_type": "single-stim", "stimulus": "<p id=\"stim\">7</p>", "internal_node_id": "0.0-160.0-3.0", "time_elapsed": 1049970, "key_press": -1, "trial_index": 217}, "uniqueid": "MTK2384:3WI0P0II62ZMFI65FN6EVY5BA83DR8", "dateTime": 1517015689626}, {"current_trial": 218, "trialdata": {"rt": -1, "trial_type": "single-stim", "stimulus": "<p id=\"stim\">6</p>", "internal_node_id": "0.0-160.0-4.0", "time_elapsed": 1050972, "key_press": -1, "trial_index": 218}, "uniqueid": "MTK2384:3WI0P0II62ZMFI65FN6EVY5BA83DR8", "dateTime": 1517015690628}, {"current_trial": 219, "trialdata": {"rt": -1, "trial_type": "single-stim", "stimulus": "<p id=\"stim\">5</p>", "internal_node_id": "0.0-160.0-5.0", "time_elapsed": 1051974, "key_press": -1, "trial_index": 219}, "uniqueid": "MTK2384:3WI0P0II62ZMFI65FN6EVY5BA83DR8", "dateTime": 1517015691630}, {"current_trial": 220, "trialdata": {"rt": -1, "trial_type": "single-stim", "stimulus": "<p id=\"stim\">4</p>", "internal_node_id": "0.0-160.0-6.0", "time_elapsed": 1052975, "key_press": -1, "trial_index": 220}, "uniqueid": "MTK2384:3WI0P0II62ZMFI65FN6EVY5BA83DR8", "dateTime": 1517015692632}, {"current_trial": 221, "trialdata": {"rt": -1, "trial_type": "single-stim", "stimulus": "<p id=\"stim\">3</p>", "internal_node_id": "0.0-160.0-7.0", "time_elapsed": 1053977, "key_press": -1, "trial_index": 221}, "uniqueid": "MTK2384:3WI0P0II62ZMFI65FN6EVY5BA83DR8", "dateTime": 1517015693633}, {"current_trial": 222, "trialdata": {"rt": -1, "trial_type": "single-stim", "stimulus": "<p id=\"stim\">2</p>", "internal_node_id": "0.0-160.0-8.0", "time_elapsed": 1054978, "key_press": -1, "trial_index": 222}, "uniqueid": "MTK2384:3WI0P0II62ZMFI65FN6EVY5BA83DR8", "dateTime": 1517015694634}, {"current_trial": 223, "trialdata": {"rt": -1, "trial_type": "single-stim", "stimulus": "<p id=\"stim\">1</p>", "internal_node_id": "0.0-160.0-9.0", "time_elapsed": 1055979, "key_press": -1, "trial_index": 223}, "uniqueid": "MTK2384:3WI0P0II62ZMFI65FN6EVY5BA83DR8", "dateTime": 1517015695635}, {"current_trial": 224, "trialdata": {"rt": -1, "trial_type": "single-stim", "stimulus": "<p id=\"stim\">+</p>", "internal_node_id": "0.0-161.0-0.0", "time_elapsed": 1057480, "key_press": -1, "type": "FIXATION", "trial_index": 224}, "uniqueid": "MTK2384:3WI0P0II62ZMFI65FN6EVY5BA83DR8", "dateTime": 1517015697136}, {"current_trial": 225, "trialdata": {"rt": -1000, "trial_type": "single-audio", "word": "dress", "stimulus": "/static/audio/wordpool/DRESS.wav", "conditions": [12, 1600, "a", 12000], "internal_node_id": "0.0-162.0", "trial": 6, "time_elapsed": 1060029, "serialpos": 0, "key_press": -1, "wordID": 494, "type": "PRES_AUD", "trial_index": 225}, "uniqueid": "MTK2384:3WI0P0II62ZMFI65FN6EVY5BA83DR8", "dateTime": 1517015699685}, {"current_trial": 226, "trialdata": {"rt": -1000, "trial_type": "single-audio", "word": "costume", "stimulus": "/static/audio/wordpool/COSTUME.wav", "conditions": [12, 1600, "a", 12000], "internal_node_id": "0.0-163.0", "trial": 6, "time_elapsed": 1062713, "serialpos": 1, "key_press": -1, "wordID": 382, "type": "PRES_AUD", "trial_index": 226}, "uniqueid": "MTK2384:3WI0P0II62ZMFI65FN6EVY5BA83DR8", "dateTime": 1517015702369}, {"current_trial": 227, "trialdata": {"rt": -1000, "trial_type": "single-audio", "word": "climber", "stimulus": "/static/audio/wordpool/CLIMBER.wav", "conditions": [12, 1600, "a", 12000], "internal_node_id": "0.0-164.0", "trial": 6, "time_elapsed": 1065477, "serialpos": 2, "key_press": -1, "wordID": 322, "type": "PRES_AUD", "trial_index": 227}, "uniqueid": "MTK2384:3WI0P0II62ZMFI65FN6EVY5BA83DR8", "dateTime": 1517015705133}, {"current_trial": 228, "trialdata": {"rt": -1000, "trial_type": "single-audio", "word": "spool", "stimulus": "/static/audio/wordpool/SPOOL.wav", "conditions": [12, 1600, "a", 12000], "internal_node_id": "0.0-165.0", "trial": 6, "time_elapsed": 1067948, "serialpos": 3, "key_press": -1, "wordID": 1355, "type": "PRES_AUD", "trial_index": 228}, "uniqueid": "MTK2384:3WI0P0II62ZMFI65FN6EVY5BA83DR8", "dateTime": 1517015707604}, {"current_trial": 229, "trialdata": {"rt": -1000, "trial_type": "single-audio", "word": "sphinx", "stimulus": "/static/audio/wordpool/SPHINX.wav", "conditions": [12, 1600, "a", 12000], "internal_node_id": "0.0-166.0", "trial": 6, "time_elapsed": 1070468, "serialpos": 4, "key_press": -1, "wordID": 1348, "type": "PRES_AUD", "trial_index": 229}, "uniqueid": "MTK2384:3WI0P0II62ZMFI65FN6EVY5BA83DR8", "dateTime": 1517015710124}, {"current_trial": 230, "trialdata": {"rt": -1000, "trial_type": "single-audio", "word": "hawk", "stimulus": "/static/audio/wordpool/HAWK.wav", "conditions": [12, 1600, "a", 12000], "internal_node_id": "0.0-167.0", "trial": 6, "time_elapsed": 1073175, "serialpos": 5, "key_press": -1, "wordID": 691, "type": "PRES_AUD", "trial_index": 230}, "uniqueid": "MTK2384:3WI0P0II62ZMFI65FN6EVY5BA83DR8", "dateTime": 1517015712831}, {"current_trial": 231, "trialdata": {"rt": -1000, "trial_type": "single-audio", "word": "daisy", "stimulus": "/static/audio/wordpool/DAISY.wav", "conditions": [12, 1600, "a", 12000], "internal_node_id": "0.0-168.0", "trial": 6, "time_elapsed": 1075802, "serialpos": 6, "key_press": -1, "wordID": 434, "type": "PRES_AUD", "trial_index": 231}, "uniqueid": "MTK2384:3WI0P0II62ZMFI65FN6EVY5BA83DR8", "dateTime": 1517015715458}, {"current_trial": 232, "trialdata": {"rt": -1000, "trial_type": "single-audio", "word": "motel", "stimulus": "/static/audio/wordpool/MOTEL.wav", "conditions": [12, 1600, "a", 12000], "internal_node_id": "0.0-169.0", "trial": 6, "time_elapsed": 1078301, "serialpos": 7, "key_press": -1, "wordID": 918, "type": "PRES_AUD", "trial_index": 232}, "uniqueid": "MTK2384:3WI0P0II62ZMFI65FN6EVY5BA83DR8", "dateTime": 1517015717957}, {"current_trial": 233, "trialdata": {"rt": -1000, "trial_type": "single-audio", "word": "cocoon", "stimulus": "/static/audio/wordpool/COCOON.wav", "conditions": [12, 1600, "a", 12000], "internal_node_id": "0.0-170.0", "trial": 6, "time_elapsed": 1081006, "serialpos": 8, "key_press": -1, "wordID": 338, "type": "PRES_AUD", "trial_index": 233}, "uniqueid": "MTK2384:3WI0P0II62ZMFI65FN6EVY5BA83DR8", "dateTime": 1517015720662}, {"current_trial": 234, "trialdata": {"rt": -1000, "trial_type": "single-audio", "word": "ointment", "stimulus": "/static/audio/wordpool/OINTMENT.wav", "conditions": [12, 1600, "a", 12000], "internal_node_id": "0.0-171.0", "trial": 6, "time_elapsed": 1083696, "serialpos": 9, "key_press": -1, "wordID": 973, "type": "PRES_AUD", "trial_index": 234}, "uniqueid": "MTK2384:3WI0P0II62ZMFI65FN6EVY5BA83DR8", "dateTime": 1517015723353}, {"current_trial": 235, "trialdata": {"rt": -1000, "trial_type": "single-audio", "word": "rod", "stimulus": "/static/audio/wordpool/ROD.wav", "conditions": [12, 1600, "a", 12000], "internal_node_id": "0.0-172.0", "trial": 6, "time_elapsed": 1086411, "serialpos": 10, "key_press": -1, "wordID": 1202, "type": "PRES_AUD", "trial_index": 235}, "uniqueid": "MTK2384:3WI0P0II62ZMFI65FN6EVY5BA83DR8", "dateTime": 1517015726067}, {"current_trial": 236, "trialdata": {"rt": -1000, "trial_type": "single-audio", "word": "flute", "stimulus": "/static/audio/wordpool/FLUTE.wav", "conditions": [12, 1600, "a", 12000], "internal_node_id": "0.0-173.0", "trial": 6, "time_elapsed": 1089174, "serialpos": 11, "key_press": -1, "wordID": 584, "type": "PRES_AUD", "trial_index": 236}, "uniqueid": "MTK2384:3WI0P0II62ZMFI65FN6EVY5BA83DR8", "dateTime": 1517015728830}, {"current_trial": 237, "trialdata": {"rt": -1, "trial_type": "single-stim", "stimulus": "", "internal_node_id": "0.0-174.0-0.0", "time_elapsed": 1090563, "key_press": -1, "type": "PRE_RECALL_DELAY", "trial_index": 237}, "uniqueid": "MTK2384:3WI0P0II62ZMFI65FN6EVY5BA83DR8", "dateTime": 1517015730219}, {"current_trial": 238, "trialdata": {"rt": -1000, "trial_type": "single-audio", "stimulus": "/static/audio/400Hz.wav", "internal_node_id": "0.0-175.0", "time_elapsed": 1091066, "key_press": -1, "type": "PRE_RECALL_ALERT", "trial_index": 238}, "uniqueid": "MTK2384:3WI0P0II62ZMFI65FN6EVY5BA83DR8", "dateTime": 1517015730722}, {"current_trial": 239, "trialdata": {"rt": [3506, 4986, 7634, 10481, 12145, 14786, 16201, 16938, 21306, 23866, 24841, 27817], "recwords": ["dress", "costume", "climber", "spool", "sphinx", "falcon", "daisy", "motel", "coccoon", "ointment", "rod", "flute"], "key_times": [2850, 3003, 3074, 3242, 3378, 3506, 3786, 3881, 4001, 4121, 4210, 4458, 4530, 4986, 5170, 6290, 6466, 6602, 6986, 7059, 7122, 7634, 9338, 9777, 10002, 10122, 10314, 10481, 10761, 10841, 11106, 11363, 11474, 11834, 12145, 13027, 13210, 13330, 13458, 13569, 13706, 14786, 15041, 15217, 15298, 15394, 15945, 16201, 16441, 16553, 16643, 16714, 16794, 16938, 18769, 18881, 19065, 19193, 19290, 19426, 19730, 21306, 23081, 23266, 23346, 23418, 23529, 23634, 23697, 23762, 23866, 24537, 24642, 24738, 24841, 25546, 25666, 26193, 26370, 26513, 26625, 26833, 26882, 26969, 27817], "trial_type": "free-recall", "conditions": [12, 1600, "a", 12000], "internal_node_id": "0.0-176.0-0.0", "key_presses": [68, 82, 69, 83, 83, 13, 67, 79, 83, 84, 85, 77, 69, 13, 67, 76, 73, 77, 66, 69, 82, 13, 83, 80, 79, 79, 76, 13, 83, 80, 72, 73, 78, 88, 13, 70, 65, 76, 67, 79, 78, 13, 68, 65, 73, 83, 89, 13, 77, 79, 84, 69, 76, 13, 67, 79, 67, 67, 79, 79, 78, 13, 79, 73, 78, 84, 77, 69, 78, 84, 13, 82, 79, 68, 13, 76, 70, 8, 8, 70, 76, 85, 84, 69, 13], "trial": 6, "time_elapsed": 1151070, "type": "FREE_RECALL", "trial_index": 239}, "uniqueid": "MTK2384:3WI0P0II62ZMFI65FN6EVY5BA83DR8", "dateTime": 1517015790731}, {"current_trial": 240, "trialdata": {"rt": 3170, "trial_type": "text", "internal_node_id": "0.0-177.0", "time_elapsed": 1156246, "key_press": 74, "type": "INSTRUCTIONS", 