{"assignmentId": "39L1G8WVWRY04L5RO4LNCY1MEG331O", "workerId": "MTK2139", "questiondata": {"origin": "United States", "strat-rehearsal": "83", "marital": "Married/Domestic Partnership", "education": "Some graduate education", "ethnicity": "Not Hispanic", "color_depth": 24, "distracted": "No", "wrote-notes": "Yes", "strat-other": "no other strategy; mostly grouping the words into categories, and using repitition", "screen_width": 1366, "avail_screen_width": 1366, "avail_screen_height": 728, "strat-image": "51", "language": "English", "gender": "Female", "age": "42", "gender_other": "", "race": ["White"], "strat-categorize": "83", "pixel_depth": 24, "strat-spatial": "1", "strat-story": "69", "race_other": "", "screen_height": 768}, "bonus": 0, "hitId": "3NRZ1LDP7WD2JMXS4BMKSBSFE5QZP2", "counterbalance": 2757, "useragent": "Mozilla/5.0 (Windows NT 10.0; Win64; x64) AppleWebKit/537.36 (KHTML, like Gecko) Chrome/63.0.3239.132 Safari/537.36", "eventdata": [{"eventtype": "initialized", "interval": 0, "value": null, "timestamp": 1516737997815}, {"eventtype": "window_resize", "interval": 0, "value": [1362, 713], "timestamp": 1516737997815}, {"eventtype": "focus", "interval": 10841, "value": "off", "timestamp": 1516738008656}, {"eventtype": "focus", "interval": 6558, "value": "on", "timestamp": 1516738015214}, {"eventtype": "focus", "interval": 163837, "value": "off", "timestamp": 1516738179051}, {"eventtype": "focus", "interval": 12867, "value": "on", "timestamp": 1516738191918}, {"eventtype": "focus", "interval": 4392, "value": "off", "timestamp": 1516738196310}, {"eventtype": "focus", "interval": 643, "value": "on", "timestamp": 1516738196953}, {"eventtype": "focus", "interval": 138790, "value": "off", "timestamp": 1516738335743}, {"eventtype": "focus", "interval": 3283, "value": "on", "timestamp": 1516738339026}, {"eventtype": "focus", "interval": 1515244, "value": "off", "timestamp": 1516739854270}, {"eventtype": "focus", "interval": 1492, "value": "on", "timestamp": 1516739855762}], "data": [{"current_trial": 0, "trialdata": {"rt": 1709, "trial_type": "text", "internal_node_id": "0.0-0.0", "time_elapsed": 1713, "key_press": 32, "type": "INSTRUCTIONS", "trial_index": 0}, "uniqueid": "MTK2139:39L1G8WVWRY04L5RO4LNCY1MEG331O", "dateTime": 1516738000736}, {"current_trial": 1, "trialdata": {"rt": 16848, "trial_type": "text", "internal_node_id": "0.0-1.0", "time_elapsed": 18565, "key_press": 40, "type": "INSTRUCTIONS", "trial_index": 1}, "uniqueid": "MTK2139:39L1G8WVWRY04L5RO4LNCY1MEG331O", "dateTime": 1516738017587}, {"current_trial": 2, "trialdata": {"rt": [8049], "trial_type": "audio-test", "responses": ["ocean"], "internal_node_id": "0.0-2.0", "time_elapsed": 26644, "type": "AUDIO_TEST", "trial_index": 2}, "uniqueid": "MTK2139:39L1G8WVWRY04L5RO4LNCY1MEG331O", "dateTime": 1516738025666}, {"current_trial": 3, "trialdata": {"rt": [11197], "trial_type": "audio-test", "responses": ["crystal"], "internal_node_id": "0.0-3.0", "time_elapsed": 37850, "type": "AUDIO_TEST", "trial_index": 3}, "uniqueid": "MTK2139:39L1G8WVWRY04L5RO4LNCY1MEG331O", "dateTime": 1516738036872}, {"current_trial": 4, "trialdata": {"rt": [10412], "trial_type": "audio-test", "responses": ["spice"], "internal_node_id": "0.0-4.0", "time_elapsed": 48271, "type": "AUDIO_TEST", "trial_index": 4}, "uniqueid": "MTK2139:39L1G8WVWRY04L5RO4LNCY1MEG331O", "dateTime": 1516738047293}, {"current_trial": 5, "trialdata": {"rt": 32418, "trial_type": "survey-text", "responses": "{\"Q0\":\"11:00\",\"Q1\":\"7:00\",\"Q2\":\"5\"}", "internal_node_id": "0.0-5.0", "time_elapsed": 81443, "type": "SLEEP_SURVEY", "trial_index": 5}, "uniqueid": "MTK2139:39L1G8WVWRY04L5RO4LNCY1MEG331O", "dateTime": 1516738080466}, {"current_trial": 6, "trialdata": {"rt": 81999, "trial_type": "text", "internal_node_id": "0.0-6.0", "time_elapsed": 164444, "key_press": 32, "type": "INSTRUCTIONS", "trial_index": 6}, "uniqueid": "MTK2139:39L1G8WVWRY04L5RO4LNCY1MEG331O", "dateTime": 1516738163467}, {"current_trial": 7, "trialdata": {"rt": 35236, "trial_type": "text", "internal_node_id": "0.0-7.0", "time_elapsed": 200182, "key_press": 13, "type": "INSTRUCTIONS", "trial_index": 7}, "uniqueid": "MTK2139:39L1G8WVWRY04L5RO4LNCY1MEG331O", "dateTime": 1516738199204}, {"current_trial": 8, "trialdata": {"rt": 11389, "trial_type": "text", "internal_node_id": "0.0-8.0", "time_elapsed": 212072, "key_press": 32, "type": "INSTRUCTIONS", "trial_index": 8}, "uniqueid": "MTK2139:39L1G8WVWRY04L5RO4LNCY1MEG331O", "dateTime": 1516738211094}, {"current_trial": 9, "trialdata": {"rt": [1921, 4393, 6635, 10644, 14663, 17321], "trial_type": "math-distractor", "key_times": [1487, 1921, 4051, 4393, 6233, 6398, 6635, 10012, 10297, 10644, 14186, 14379, 14663, 16334, 16948, 17321], "responses": ["3", "6", "11", "20", "22", "18"], "num2": [1, 2, 3, 9, 6, 7, 2], "num3": [1, 3, 6, 4, 9, 3, 8], "conditions": [18, 1200, "v", 18000], "internal_node_id": "0.0-9.0", "key_presses": [51, 13, 54, 13, 49, 49, 13, 50, 48, 13, 50, 50, 13, 49, 56, 13], "trial": 0, "time_elapsed": 231098, "type": "DISTRACTOR", "trial_index": 9, "num1": [1, 1, 2, 7, 7, 8, 7]}, "uniqueid": "MTK2139:39L1G8WVWRY04L5RO4LNCY1MEG331O", "dateTime": 1516738230120}, {"current_trial": 10, "trialdata": {"rt": -1, "trial_type": "single-stim", "stimulus": "<p id=\"stim\">10</p>", "internal_node_id": "0.0-10.0-0.0", "time_elapsed": 234100, "key_press": -1, "trial_index": 10}, "uniqueid": "MTK2139:39L1G8WVWRY04L5RO4LNCY1MEG331O", "dateTime": 1516738233122}, {"current_trial": 11, "trialdata": {"rt": -1, "trial_type": "single-stim", "stimulus": "<p id=\"stim\">9</p>", "internal_node_id": "0.0-10.0-1.0", "time_elapsed": 235102, "key_press": -1, "trial_index": 11}, "uniqueid": "MTK2139:39L1G8WVWRY04L5RO4LNCY1MEG331O", "dateTime": 1516738234124}, {"current_trial": 12, "trialdata": {"rt": -1, "trial_type": "single-stim", "stimulus": "<p id=\"stim\">8</p>", "internal_node_id": "0.0-10.0-2.0", "time_elapsed": 236104, "key_press": -1, "trial_index": 12}, "uniqueid": "MTK2139:39L1G8WVWRY04L5RO4LNCY1MEG331O", "dateTime": 1516738235126}, {"current_trial": 13, "trialdata": {"rt": -1, "trial_type": "single-stim", "stimulus": "<p id=\"stim\">7</p>", "internal_node_id": "0.0-10.0-3.0", "time_elapsed": 237106, "key_press": -1, "trial_index": 13}, "uniqueid": "MTK2139:39L1G8WVWRY04L5RO4LNCY1MEG331O", "dateTime": 1516738236129}, {"current_trial": 14, "trialdata": {"rt": -1, "trial_type": "single-stim", "stimulus": "<p id=\"stim\">6</p>", "internal_node_id": "0.0-10.0-4.0", "time_elapsed": 238108, "key_press": -1, "trial_index": 14}, "uniqueid": "MTK2139:39L1G8WVWRY04L5RO4LNCY1MEG331O", "dateTime": 1516738237130}, {"current_trial": 15, "trialdata": {"rt": -1, "trial_type": "single-stim", "stimulus": "<p id=\"stim\">5</p>", "internal_node_id": "0.0-10.0-5.0", "time_elapsed": 239109, "key_press": -1, "trial_index": 15}, "uniqueid": "MTK2139:39L1G8WVWRY04L5RO4LNCY1MEG331O", "dateTime": 1516738238131}, {"current_trial": 16, "trialdata": {"rt": -1, "trial_type": "single-stim", "stimulus": "<p id=\"stim\">4</p>", "internal_node_id": "0.0-10.0-6.0", "time_elapsed": 240109, "key_press": -1, "trial_index": 16}, "uniqueid": "MTK2139:39L1G8WVWRY04L5RO4LNCY1MEG331O", "dateTime": 1516738239132}, {"current_trial": 17, "trialdata": {"rt": -1, "trial_type": "single-stim", "stimulus": "<p id=\"stim\">3</p>", "internal_node_id": "0.0-10.0-7.0", "time_elapsed": 241111, "key_press": -1, "trial_index": 17}, "uniqueid": "MTK2139:39L1G8WVWRY04L5RO4LNCY1MEG331O", "dateTime": 1516738240134}, {"current_trial": 18, "trialdata": {"rt": -1, "trial_type": "single-stim", "stimulus": "<p id=\"stim\">2</p>", "internal_node_id": "0.0-10.0-8.0", "time_elapsed": 242113, "key_press": -1, "trial_index": 18}, "uniqueid": "MTK2139:39L1G8WVWRY04L5RO4LNCY1MEG331O", "dateTime": 1516738241136}, {"current_trial": 19, "trialdata": {"rt": -1, "trial_type": "single-stim", "stimulus": "<p id=\"stim\">1</p>", "internal_node_id": "0.0-10.0-9.0", "time_elapsed": 243116, "key_press": -1, "trial_index": 19}, "uniqueid": "MTK2139:39L1G8WVWRY04L5RO4LNCY1MEG331O", "dateTime": 1516738242138}, {"current_trial": 20, "trialdata": {"rt": -1, "trial_type": "single-stim", "stimulus": "<p id=\"stim\">+</p>", "internal_node_id": "0.0-11.0-0.0", "time_elapsed": 244619, "key_press": -1, "type": "FIXATION", "trial_index": 20}, "uniqueid": "MTK2139:39L1G8WVWRY04L5RO4LNCY1MEG331O", "dateTime": 1516738243641}, {"current_trial": 21, "trialdata": {"rt": -1, "trial_type": "single-stim", "word": "typist", "stimulus": "<p id=\"stim\">TYPIST</p>", "conditions": [18, 1200, "v", 18000], "internal_node_id": "0.0-12.0", "trial": 0, "time_elapsed": 245822, "serialpos": 0, "key_press": -1, "wordID": 1531, "type": "PRES_VIS", "trial_index": 21}, "uniqueid": "MTK2139:39L1G8WVWRY04L5RO4LNCY1MEG331O", "dateTime": 1516738244844}, {"current_trial": 22, "trialdata": {"rt": -1, "trial_type": "single-stim", "word": "daisy", "stimulus": "<p id=\"stim\">DAISY</p>", "conditions": [18, 1200, "v", 18000], "internal_node_id": "0.0-13.0", "trial": 0, "time_elapsed": 247934, "serialpos": 1, "key_press": -1, "wordID": 434, "type": "PRES_VIS", "trial_index": 22}, "uniqueid": "MTK2139:39L1G8WVWRY04L5RO4LNCY1MEG331O", "dateTime": 1516738246956}, {"current_trial": 23, "trialdata": {"rt": -1, "trial_type": "single-stim", "word": "jury", "stimulus": "<p id=\"stim\">JURY</p>", "conditions": [18, 1200, "v", 18000], "internal_node_id": "0.0-14.0", "trial": 0, "time_elapsed": 250095, "serialpos": 2, "key_press": -1, "wordID": 765, "type": "PRES_VIS", "trial_index": 23}, "uniqueid": "MTK2139:39L1G8WVWRY04L5RO4LNCY1MEG331O", "dateTime": 1516738249117}, {"current_trial": 24, "trialdata": {"rt": -1, "trial_type": "single-stim", "word": "blueprint", "stimulus": "<p id=\"stim\">BLUEPRINT</p>", "conditions": [18, 1200, "v", 18000], "internal_node_id": "0.0-15.0", "trial": 0, "time_elapsed": 252488, "serialpos": 3, "key_press": -1, "wordID": 141, "type": "PRES_VIS", "trial_index": 24}, "uniqueid": "MTK2139:39L1G8WVWRY04L5RO4LNCY1MEG331O", "dateTime": 1516738251510}, {"current_trial": 25, "trialdata": {"rt": -1, "trial_type": "single-stim", "word": "thief", "stimulus": "<p id=\"stim\">THIEF</p>", "conditions": [18, 1200, "v", 18000], "internal_node_id": "0.0-16.0", "trial": 0, "time_elapsed": 254611, "serialpos": 4, "key_press": -1, "wordID": 1455, "type": "PRES_VIS", "trial_index": 25}, "uniqueid": "MTK2139:39L1G8WVWRY04L5RO4LNCY1MEG331O", "dateTime": 1516738253634}, {"current_trial": 26, "trialdata": {"rt": -1, "trial_type": "single-stim", "word": "driver", "stimulus": "<p id=\"stim\">DRIVER</p>", "conditions": [18, 1200, "v", 18000], "internal_node_id": "0.0-17.0", "trial": 0, "time_elapsed": 256783, "serialpos": 5, "key_press": -1, "wordID": 498, "type": "PRES_VIS", "trial_index": 26}, "uniqueid": "MTK2139:39L1G8WVWRY04L5RO4LNCY1MEG331O", "dateTime": 1516738255806}, {"current_trial": 27, "trialdata": {"rt": -1, "trial_type": "single-stim", "word": "palace", "stimulus": "<p id=\"stim\">PALACE</p>", "conditions": [18, 1200, "v", 18000], "internal_node_id": "0.0-18.0", "trial": 0, "time_elapsed": 258987, "serialpos": 6, "key_press": -1, "wordID": 1005, "type": "PRES_VIS", "trial_index": 27}, "uniqueid": "MTK2139:39L1G8WVWRY04L5RO4LNCY1MEG331O", "dateTime": 1516738258009}, {"current_trial": 28, "trialdata": {"rt": -1, "trial_type": "single-stim", "word": "freezer", "stimulus": "<p id=\"stim\">FREEZER</p>", "conditions": [18, 1200, "v", 18000], "internal_node_id": "0.0-19.0", "trial": 0, "time_elapsed": 261059, "serialpos": 7, "key_press": -1, "wordID": 603, "type": "PRES_VIS", "trial_index": 28}, "uniqueid": "MTK2139:39L1G8WVWRY04L5RO4LNCY1MEG331O", "dateTime": 1516738260082}, {"current_trial": 29, "trialdata": {"rt": -1, "trial_type": "single-stim", "word": "lamp", "stimulus": "<p id=\"stim\">LAMP</p>", "conditions": [18, 1200, "v", 18000], "internal_node_id": "0.0-20.0", "trial": 0, "time_elapsed": 263119, "serialpos": 8, "key_press": -1, "wordID": 797, "type": "PRES_VIS", "trial_index": 29}, "uniqueid": "MTK2139:39L1G8WVWRY04L5RO4LNCY1MEG331O", "dateTime": 1516738262141}, {"current_trial": 30, "trialdata": {"rt": -1, "trial_type": "single-stim", "word": "pizza", "stimulus": "<p id=\"stim\">PIZZA</p>", "conditions": [18, 1200, "v", 18000], "internal_node_id": "0.0-21.0", "trial": 0, "time_elapsed": 265462, "serialpos": 9, "key_press": -1, "wordID": 1078, "type": "PRES_VIS", "trial_index": 30}, "uniqueid": "MTK2139:39L1G8WVWRY04L5RO4LNCY1MEG331O", "dateTime": 1516738264484}, {"current_trial": 31, "trialdata": {"rt": -1, "trial_type": "single-stim", "word": "concert", "stimulus": "<p id=\"stim\">CONCERT</p>", "conditions": [18, 1200, "v", 18000], "internal_node_id": "0.0-22.0", "trial": 0, "time_elapsed": 267794, "serialpos": 10, "key_press": -1, "wordID": 359, "type": "PRES_VIS", "trial_index": 31}, "uniqueid": "MTK2139:39L1G8WVWRY04L5RO4LNCY1MEG331O", "dateTime": 1516738266816}, {"current_trial": 32, "trialdata": {"rt": -1, "trial_type": "single-stim", "word": "knife", "stimulus": "<p id=\"stim\">KNIFE</p>", "conditions": [18, 1200, "v", 18000], "internal_node_id": "0.0-23.0", "trial": 0, "time_elapsed": 269942, "serialpos": 11, "key_press": -1, "wordID": 784, "type": "PRES_VIS", "trial_index": 32}, "uniqueid": "MTK2139:39L1G8WVWRY04L5RO4LNCY1MEG331O", "dateTime": 1516738268965}, {"current_trial": 33, "trialdata": {"rt": -1, "trial_type": "single-stim", "word": "pimple", "stimulus": "<p id=\"stim\">PIMPLE</p>", "conditions": [18, 1200, "v", 18000], "internal_node_id": "0.0-24.0", "trial": 0, "time_elapsed": 272001, "serialpos": 12, "key_press": -1, "wordID": 1070, "type": "PRES_VIS", "trial_index": 33}, "uniqueid": "MTK2139:39L1G8WVWRY04L5RO4LNCY1MEG331O", "dateTime": 1516738271023}, {"current_trial": 34, "trialdata": {"rt": -1, "trial_type": "single-stim", "word": "crevice", "stimulus": "<p id=\"stim\">CREVICE</p>", "conditions": [18, 1200, "v", 18000], "internal_node_id": "0.0-25.0", "trial": 0, "time_elapsed": 274027, "serialpos": 13, "key_press": -1, "wordID": 404, "type": "PRES_VIS", "trial_index": 34}, "uniqueid": "MTK2139:39L1G8WVWRY04L5RO4LNCY1MEG331O", "dateTime": 1516738273049}, {"current_trial": 35, "trialdata": {"rt": -1, "trial_type": "single-stim", "word": "skillet", "stimulus": "<p id=\"stim\">SKILLET</p>", "conditions": [18, 1200, "v", 18000], "internal_node_id": "0.0-26.0", "trial": 0, "time_elapsed": 276173, "serialpos": 14, "key_press": -1, "wordID": 1316, "type": "PRES_VIS", "trial_index": 35}, "uniqueid": "MTK2139:39L1G8WVWRY04L5RO4LNCY1MEG331O", "dateTime": 1516738275196}, {"current_trial": 36, "trialdata": {"rt": -1, "trial_type": "single-stim", "word": "gangster", "stimulus": "<p id=\"stim\">GANGSTER</p>", "conditions": [18, 1200, "v", 18000], "internal_node_id": "0.0-27.0", "trial": 0, "time_elapsed": 278223, "serialpos": 15, "key_press": -1, "wordID": 619, "type": "PRES_VIS", "trial_index": 36}, "uniqueid": "MTK2139:39L1G8WVWRY04L5RO4LNCY1MEG331O", "dateTime": 1516738277245}, {"current_trial": 37, "trialdata": {"rt": -1, "trial_type": "single-stim", "word": "cabin", "stimulus": "<p id=\"stim\">CABIN</p>", "conditions": [18, 1200, "v", 18000], "internal_node_id": "0.0-28.0", "trial": 0, "time_elapsed": 280309, "serialpos": 16, "key_press": -1, "wordID": 210, "type": "PRES_VIS", "trial_index": 37}, "uniqueid": "MTK2139:39L1G8WVWRY04L5RO4LNCY1MEG331O", "dateTime": 1516738279332}, {"current_trial": 38, "trialdata": {"rt": -1, "trial_type": "single-stim", "word": "perch", "stimulus": "<p id=\"stim\">PERCH</p>", "conditions": [18, 1200, "v", 18000], "internal_node_id": "0.0-29.0", "trial": 0, "time_elapsed": 282408, "serialpos": 17, "key_press": -1, "wordID": 1047, "type": "PRES_VIS", "trial_index": 38}, "uniqueid": "MTK2139:39L1G8WVWRY04L5RO4LNCY1MEG331O", "dateTime": 1516738281430}, {"current_trial": 39, "trialdata": {"rt": -1, "trial_type": "single-stim", "stimulus": "", "internal_node_id": "0.0-30.0-0.0", "time_elapsed": 284686, "key_press": -1, "type": "PRE_RECALL_DELAY", "trial_index": 39}, "uniqueid": "MTK2139:39L1G8WVWRY04L5RO4LNCY1MEG331O", "dateTime": 1516738283708}, {"current_trial": 40, "trialdata": {"rt": -1000, "trial_type": "single-audio", "stimulus": "/static/audio/400Hz.wav", "internal_node_id": "0.0-31.0", "time_elapsed": 285190, "key_press": -1, "type": "PRE_RECALL_ALERT", "trial_index": 40}, "uniqueid": "MTK2139:39L1G8WVWRY04L5RO4LNCY1MEG331O", "dateTime": 1516738284212}, {"current_trial": 41, "trialdata": {"rt": [2522, 4990, 8276, 10255, 14871, 18397, 22100, 27831, 35715], "recwords": ["perch", "cabin", "gangster", "typist", "daisy", "crevice", "lamp", "blueprint", "doctor"], "key_times": [1584, 1750, 1931, 2176, 2349, 2522, 2714, 3792, 4097, 4553, 4794, 4990, 6333, 6713, 6870, 7134, 7403, 7649, 7873, 8062, 8276, 8872, 9047, 9302, 9518, 9742, 10001, 10255, 13934, 14179, 14333, 14450, 14633, 14871, 16801, 17077, 17341, 17578, 17781, 17927, 18151, 18397, 19336, 20711, 20854, 21066, 22100, 25026, 25555, 25827, 26138, 26415, 26722, 26939, 27155, 27399, 27831, 33999, 34470, 34778, 35103, 35247, 35374, 35715], "trial_type": "free-recall", "conditions": [18, 1200, "v", 18000], "internal_node_id": "0.0-32.0-0.0", "key_presses": [80, 69, 82, 67, 72, 32, 67, 65, 66, 73, 78, 32, 71, 65, 78, 71, 83, 84, 69, 82, 32, 84, 89, 80, 73, 83, 84, 32, 68, 65, 73, 83, 89, 32, 67, 82, 69, 86, 73, 67, 69, 32, 76, 65, 77, 80, 32, 66, 76, 85, 69, 80, 82, 73, 78, 84, 32, 68, 79, 67, 84, 79, 82, 32], "trial": 0, "time_elapsed": 345193, "type": "FREE_RECALL", "trial_index": 41}, "uniqueid": "MTK2139:39L1G8WVWRY04L5RO4LNCY1MEG331O", "dateTime": 1516738344218}, {"current_trial": 42, "trialdata": {"rt": 1376, "trial_type": "text", "internal_node_id": "0.0-33.0", "time_elapsed": 348573, "key_press": 32, "type": "INSTRUCTIONS", "trial_index": 42}, "uniqueid": "MTK2139:39L1G8WVWRY04L5RO4LNCY1MEG331O", "dateTime": 1516738347595}, {"current_trial": 43, "trialdata": {"rt": [6880, 9693, 13917], "trial_type": "math-distractor", "key_times": [4528, 4716, 5462, 6241, 6880, 8784, 9447, 9693, 13201, 13621, 13917, 17992], "responses": ["23  ", "19", "13"], "num2": [9, 7, 1, 8], "num3": [8, 3, 8, 4], "conditions": [18, 1200, "v", 18000], "internal_node_id": "0.0-34.0", "key_presses": [50, 51, 32, 32, 13, 49, 57, 13, 49, 51, 13, 50], "trial": 1, "time_elapsed": 368576, "type": "DISTRACTOR", "trial_index": 43, "num1": [6, 9, 4, 9]}, "uniqueid": "MTK2139:39L1G8WVWRY04L5RO4LNCY1MEG331O", "dateTime": 1516738367599}, {"current_trial": 44, "trialdata": {"rt": -1, "trial_type": "single-stim", "stimulus": "<p id=\"stim\">10</p>", "internal_node_id": "0.0-35.0-0.0", "time_elapsed": 371579, "key_press": -1, "trial_index": 44}, "uniqueid": "MTK2139:39L1G8WVWRY04L5RO4LNCY1MEG331O", "dateTime": 1516738370601}, {"current_trial": 45, "trialdata": {"rt": -1, "trial_type": "single-stim", "stimulus": "<p id=\"stim\">9</p>", "internal_node_id": "0.0-35.0-1.0", "time_elapsed": 372580, "key_press": -1, "trial_index": 45}, "uniqueid": "MTK2139:39L1G8WVWRY04L5RO4LNCY1MEG331O", "dateTime": 1516738371602}, {"current_trial": 46, "trialdata": {"rt": -1, "trial_type": "single-stim", "stimulus": "<p id=\"stim\">8</p>", "internal_node_id": "0.0-35.0-2.0", "time_elapsed": 373581, "key_press": -1, "trial_index": 46}, "uniqueid": "MTK2139:39L1G8WVWRY04L5RO4LNCY1MEG331O", "dateTime": 1516738372604}, {"current_trial": 47, "trialdata": {"rt": -1, "trial_type": "single-stim", "stimulus": "<p id=\"stim\">7</p>", "internal_node_id": "0.0-35.0-3.0", "time_elapsed": 374583, "key_press": -1, "trial_index": 47}, "uniqueid": "MTK2139:39L1G8WVWRY04L5RO4LNCY1MEG331O", "dateTime": 1516738373605}, {"current_trial": 48, "trialdata": {"rt": -1, "trial_type": "single-stim", "stimulus": "<p id=\"stim\">6</p>", "internal_node_id": "0.0-35.0-4.0", "time_elapsed": 375585, "key_press": -1, "trial_index": 48}, "uniqueid": "MTK2139:39L1G8WVWRY04L5RO4LNCY1MEG331O", "dateTime": 1516738374607}, {"current_trial": 49, "trialdata": {"rt": -1, "trial_type": "single-stim", "stimulus": "<p id=\"stim\">5</p>", "internal_node_id": "0.0-35.0-5.0", "time_elapsed": 376586, "key_press": -1, "trial_index": 49}, "uniqueid": "MTK2139:39L1G8WVWRY04L5RO4LNCY1MEG331O", "dateTime": 1516738375608}, {"current_trial": 50, "trialdata": {"rt": -1, "trial_type": "single-stim", "stimulus": "<p id=\"stim\">4</p>", "internal_node_id": "0.0-35.0-6.0", "time_elapsed": 377586, "key_press": -1, "trial_index": 50}, "uniqueid": "MTK2139:39L1G8WVWRY04L5RO4LNCY1MEG331O", "dateTime": 1516738376609}, {"current_trial": 51, "trialdata": {"rt": -1, "trial_type": "single-stim", "stimulus": "<p id=\"stim\">3</p>", "internal_node_id": "0.0-35.0-7.0", "time_elapsed": 378587, "key_press": -1, "trial_index": 51}, "uniqueid": "MTK2139:39L1G8WVWRY04L5RO4LNCY1MEG331O", "dateTime": 1516738377610}, {"current_trial": 52, "trialdata": {"rt": -1, "trial_type": "single-stim", "stimulus": "<p id=\"stim\">2</p>", "internal_node_id": "0.0-35.0-8.0", "time_elapsed": 379589, "key_press": -1, "trial_index": 52}, "uniqueid": "MTK2139:39L1G8WVWRY04L5RO4LNCY1MEG331O", "dateTime": 1516738378612}, {"current_trial": 53, "trialdata": {"rt": -1, "trial_type": "single-stim", "stimulus": "<p id=\"stim\">1</p>", "internal_node_id": "0.0-35.0-9.0", "time_elapsed": 380590, "key_press": -1, "trial_index": 53}, "uniqueid": "MTK2139:39L1G8WVWRY04L5RO4LNCY1MEG331O", "dateTime": 1516738379613}, {"current_trial": 54, "trialdata": {"rt": -1, "trial_type": "single-stim", "stimulus": "<p id=\"stim\">+</p>", "internal_node_id": "0.0-36.0-0.0", "time_elapsed": 382091, "key_press": -1, "type": "FIXATION", "trial_index": 54}, "uniqueid": "MTK2139:39L1G8WVWRY04L5RO4LNCY1MEG331O", "dateTime": 1516738381114}, {"current_trial": 55, "trialdata": {"rt": -1, "trial_type": "single-stim", "word": "branch", "stimulus": "<p id=\"stim\">BRANCH</p>", "conditions": [18, 1200, "v", 18000], "internal_node_id": "0.0-37.0", "trial": 1, "time_elapsed": 383293, "serialpos": 0, "key_press": -1, "wordID": 167, "type": "PRES_VIS", "trial_index": 55}, "uniqueid": "MTK2139:39L1G8WVWRY04L5RO4LNCY1MEG331O", "dateTime": 1516738382315}, {"current_trial": 56, "trialdata": {"rt": -1, "trial_type": "single-stim", "word": "twig", "stimulus": "<p id=\"stim\">TWIG</p>", "conditions": [18, 1200, "v", 18000], "internal_node_id": "0.0-38.0", "trial": 1, "time_elapsed": 385525, "serialpos": 1, "key_press": -1, "wordID": 1526, "type": "PRES_VIS", "trial_index": 56}, "uniqueid": "MTK2139:39L1G8WVWRY04L5RO4LNCY1MEG331O", "dateTime": 1516738384547}, {"current_trial": 57, "trialdata": {"rt": -1, "trial_type": "single-stim", "word": "thread", "stimulus": "<p id=\"stim\">THREAD</p>", "conditions": [18, 1200, "v", 18000], "internal_node_id": "0.0-39.0", "trial": 1, "time_elapsed": 387596, "serialpos": 2, "key_press": -1, "wordID": 1459, "type": "PRES_VIS", "trial_index": 57}, "uniqueid": "MTK2139:39L1G8WVWRY04L5RO4LNCY1MEG331O", "dateTime": 1516738386618}, {"current_trial": 58, "trialdata": {"rt": -1, "trial_type": "single-stim", "word": "dustpan", "stimulus": "<p id=\"stim\">DUSTPAN</p>", "conditions": [18, 1200, "v", 18000], "internal_node_id": "0.0-40.0", "trial": 1, "time_elapsed": 389951, "serialpos": 3, "key_press": -1, "wordID": 508, "type": "PRES_VIS", "trial_index": 58}, "uniqueid": "MTK2139:39L1G8WVWRY04L5RO4LNCY1MEG331O", "dateTime": 1516738388973}, {"current_trial": 59, "trialdata": {"rt": -1, "trial_type": "single-stim", "word": "hook", "stimulus": "<p id=\"stim\">HOOK</p>", "conditions": [18, 1200, "v", 18000], "internal_node_id": "0.0-41.0", "trial": 1, "time_elapsed": 391982, "serialpos": 4, "key_press": -1, "wordID": 714, "type": "PRES_VIS", "trial_index": 59}, "uniqueid": "MTK2139:39L1G8WVWRY04L5RO4LNCY1MEG331O", "dateTime": 1516738391004}, {"current_trial": 60, "trialdata": {"rt": -1, "trial_type": "single-stim", "word": "church", "stimulus": "<p id=\"stim\">CHURCH</p>", "conditions": [18, 1200, "v", 18000], "internal_node_id": "0.0-42.0", "trial": 1, "time_elapsed": 394313, "serialpos": 5, "key_press": -1, "wordID": 306, "type": "PRES_VIS", "trial_index": 60}, "uniqueid": "MTK2139:39L1G8WVWRY04L5RO4LNCY1MEG331O", "dateTime": 1516738393335}, {"current_trial": 61, "trialdata": {"rt": -1, "trial_type": "single-stim", "word": "mustard", "stimulus": "<p id=\"stim\">MUSTARD</p>", "conditions": [18, 1200, "v", 18000], "internal_node_id": "0.0-43.0", "trial": 1, "time_elapsed": 396704, "serialpos": 6, "key_press": -1, "wordID": 934, "type": "PRES_VIS", "trial_index": 61}, "uniqueid": "MTK2139:39L1G8WVWRY04L5RO4LNCY1MEG331O", "dateTime": 1516738395726}, {"current_trial": 62, "trialdata": {"rt": -1, "trial_type": "single-stim", "word": "girl", "stimulus": "<p id=\"stim\">GIRL</p>", "conditions": [18, 1200, "v", 18000], "internal_node_id": "0.0-44.0", "trial": 1, "time_elapsed": 398878, "serialpos": 7, "key_press": -1, "wordID": 636, "type": "PRES_VIS", "trial_index": 62}, "uniqueid": "MTK2139:39L1G8WVWRY04L5RO4LNCY1MEG331O", "dateTime": 1516738397901}, {"current_trial": 63, "trialdata": {"rt": -1, "trial_type": "single-stim", "word": "box", "stimulus": "<p id=\"stim\">BOX</p>", "conditions": [18, 1200, "v", 18000], "internal_node_id": "0.0-45.0", "trial": 1, "time_elapsed": 401176, "serialpos": 8, "key_press": -1, "wordID": 158, "type": "PRES_VIS", "trial_index": 63}, "uniqueid": "MTK2139:39L1G8WVWRY04L5RO4LNCY1MEG331O", "dateTime": 1516738400198}, {"current_trial": 64, "trialdata": {"rt": -1, "trial_type": "single-stim", "word": "poet", "stimulus": "<p id=\"stim\">POET</p>", "conditions": [18, 1200, "v", 18000], "internal_node_id": "0.0-46.0", "trial": 1, "time_elapsed": 403254, "serialpos": 9, "key_press": -1, "wordID": 1094, "type": "PRES_VIS", "trial_index": 64}, "uniqueid": "MTK2139:39L1G8WVWRY04L5RO4LNCY1MEG331O", "dateTime": 1516738402277}, {"current_trial": 65, "trialdata": {"rt": -1, "trial_type": "single-stim", "word": "pastry", "stimulus": "<p id=\"stim\">PASTRY</p>", "conditions": [18, 1200, "v", 18000], "internal_node_id": "0.0-47.0", "trial": 1, "time_elapsed": 405659, "serialpos": 10, "key_press": -1, "wordID": 1021, "type": "PRES_VIS", "trial_index": 65}, "uniqueid": "MTK2139:39L1G8WVWRY04L5RO4LNCY1MEG331O", "dateTime": 1516738404682}, {"current_trial": 66, "trialdata": {"rt": -1, "trial_type": "single-stim", "word": "carriage", "stimulus": "<p id=\"stim\">CARRIAGE</p>", "conditions": [18, 1200, "v", 18000], "internal_node_id": "0.0-48.0", "trial": 1, "time_elapsed": 407727, "serialpos": 11, "key_press": -1, "wordID": 247, "type": "PRES_VIS", "trial_index": 66}, "uniqueid": "MTK2139:39L1G8WVWRY04L5RO4LNCY1MEG331O", "dateTime": 1516738406750}, {"current_trial": 67, "trialdata": {"rt": -1, "trial_type": "single-stim", "word": "helmet", "stimulus": "<p id=\"stim\">HELMET</p>", "conditions": [18, 1200, "v", 18000], "internal_node_id": "0.0-49.0", "trial": 1, "time_elapsed": 409765, "serialpos": 12, "key_press": -1, "wordID": 701, "type": "PRES_VIS", "trial_index": 67}, "uniqueid": "MTK2139:39L1G8WVWRY04L5RO4LNCY1MEG331O", "dateTime": 1516738408788}, {"current_trial": 68, "trialdata": {"rt": -1, "trial_type": "single-stim", "word": "iceberg", "stimulus": "<p id=\"stim\">ICEBERG</p>", "conditions": [18, 1200, "v", 18000], "internal_node_id": "0.0-50.0", "trial": 1, "time_elapsed": 411908, "serialpos": 13, "key_press": -1, "wordID": 730, "type": "PRES_VIS", "trial_index": 68}, "uniqueid": "MTK2139:39L1G8WVWRY04L5RO4LNCY1MEG331O", "dateTime": 1516738410933}, {"current_trial": 69, "trialdata": {"rt": -1, "trial_type": "single-stim", "word": "ulcer", "stimulus": "<p id=\"stim\">ULCER</p>", "conditions": [18, 1200, "v", 18000], "internal_node_id": "0.0-51.0", "trial": 1, "time_elapsed": 414198, "serialpos": 14, "key_press": -1, "wordID": 1532, "type": "PRES_VIS", "trial_index": 69}, "uniqueid": "MTK2139:39L1G8WVWRY04L5RO4LNCY1MEG331O", "dateTime": 1516738413220}, {"current_trial": 70, "trialdata": {"rt": -1, "trial_type": "single-stim", "word": "bucket", "stimulus": "<p id=\"stim\">BUCKET</p>", "conditions": [18, 1200, "v", 18000], "internal_node_id": "0.0-52.0", "trial": 1, "time_elapsed": 416301, "serialpos": 15, "key_press": -1, "wordID": 183, "type": "PRES_VIS", "trial_index": 70}, "uniqueid": "MTK2139:39L1G8WVWRY04L5RO4LNCY1MEG331O", "dateTime": 1516738415323}, {"current_trial": 71, "trialdata": {"rt": -1, "trial_type": "single-stim", "word": "salt", "stimulus": "<p id=\"stim\">SALT</p>", "conditions": [18, 1200, "v", 18000], "internal_node_id": "0.0-53.0", "trial": 1, "time_elapsed": 418454, "serialpos": 16, "key_press": -1, "wordID": 1228, "type": "PRES_VIS", "trial_index": 71}, "uniqueid": "MTK2139:39L1G8WVWRY04L5RO4LNCY1MEG331O", "dateTime": 1516738417476}, {"current_trial": 72, "trialdata": {"rt": -1, "trial_type": "single-stim", "word": "blender", "stimulus": "<p id=\"stim\">BLENDER</p>", "conditions": [18, 1200, "v", 18000], "internal_node_id": "0.0-54.0", "trial": 1, "time_elapsed": 420589, "serialpos": 17, "key_press": -1, "wordID": 135, "type": "PRES_VIS", "trial_index": 72}, "uniqueid": "MTK2139:39L1G8WVWRY04L5RO4LNCY1MEG331O", "dateTime": 1516738419611}, {"current_trial": 73, "trialdata": {"rt": -1, "trial_type": "single-stim", "stimulus": "", "internal_node_id": "0.0-55.0-0.0", "time_elapsed": 422898, "key_press": -1, "type": "PRE_RECALL_DELAY", "trial_index": 73}, "uniqueid": "MTK2139:39L1G8WVWRY04L5RO4LNCY1MEG331O", "dateTime": 1516738421921}, {"current_trial": 74, "trialdata": {"rt": -1000, "trial_type": "single-audio", "stimulus": "/static/audio/400Hz.wav", "internal_node_id": "0.0-56.0", "time_elapsed": 423404, "key_press": -1, "type": "PRE_RECALL_ALERT", "trial_index": 74}, "uniqueid": "MTK2139:39L1G8WVWRY04L5RO4LNCY1MEG331O", "dateTime": 1516738422426}, {"current_trial": 75, "trialdata": {"rt": [2416, 4997, 7413, 9397, 11121, 12332, 23293, 32217, 34896, 42580, 44749, 46988], "recwords": ["salt", "blender", "bucket", "branch", "twig", "girl", "cement", "ulcer", "iceberg", "dustpan", "bucket", "poet"], "key_times": [1151, 1430, 1634, 1865, 2416, 3162, 3534, 3861, 4112, 4357, 4572, 4783, 4997, 5382, 5639, 6234, 6591, 6867, 7138, 7413, 7689, 7928, 8195, 8417, 8788, 9008, 9397, 10152, 10437, 10640, 10867, 11121, 11423, 11640, 11848, 12056, 12332, 22264, 22514, 22653, 22751, 22873, 23008, 23293, 30715, 31052, 31464, 31706, 31918, 32217, 33010, 33284, 33524, 33832, 34056, 34265, 34513, 34896, 39045, 39257, 39562, 39914, 40172, 40352, 40908, 41296, 41892, 42132, 42399, 42580, 43315, 43627, 43868, 44080, 44279, 44532, 44749, 46100, 46331, 46545, 46807, 46988], "trial_type": "free-recall", "conditions": [18, 1200, "v", 18000], "internal_node_id": "0.0-57.0-0.0", "key_presses": [83, 65, 76, 84, 32, 66, 76, 69, 78, 68, 69, 82, 32, 66, 85, 67, 75, 69, 84, 32, 66, 82, 65, 78, 67, 72, 32, 84, 87, 73, 71, 32, 71, 73, 82, 76, 32, 67, 69, 77, 69, 78, 84, 32, 85, 76, 67, 69, 82, 32, 73, 67, 69, 66, 69, 82, 71, 32, 68, 85, 83, 84, 66, 65, 8, 8, 80, 65, 78, 32, 66, 85, 67, 75, 69, 84, 32, 80, 79, 69, 84, 32], "trial": 1, "time_elapsed": 483406, "type": "FREE_RECALL", "trial_index": 75}, "uniqueid": "MTK2139:39L1G8WVWRY04L5RO4LNCY1MEG331O", "dateTime": 1516738482431}, {"current_trial": 76, "trialdata": {"rt": 2032, "trial_type": "text", "internal_node_id": "0.0-58.0", "time_elapsed": 487442, "key_press": 32, "type": "INSTRUCTIONS", "trial_index": 76}, "uniqueid": "MTK2139:39L1G8WVWRY04L5RO4LNCY1MEG331O", "dateTime": 1516738486464}, {"current_trial": 77, "trialdata": {"rt": [5051, 9394, 11631], "trial_type": "math-distractor", "key_times": [3211, 3693, 3919, 5051, 9021, 9213, 9394, 10967, 11488, 11631], "responses": ["15 ", "23", "19"], "num2": [7, 9, 7, 4], "num3": [2, 8, 7, 1], "conditions": [24, 1600, "v", 12000], "internal_node_id": "0.0-59.0", "key_presses": [49, 53, 32, 13, 50, 51, 13, 49, 57, 13], "trial": 2, "time_elapsed": 500450, "type": "DISTRACTOR", "trial_index": 77, "num1": [6, 6, 5, 1]}, "uniqueid": "MTK2139:39L1G8WVWRY04L5RO4LNCY1MEG331O", "dateTime": 1516738499472}, {"current_trial": 78, "trialdata": {"rt": -1, "trial_type": "single-stim", "stimulus": "<p id=\"stim\">10</p>", "internal_node_id": "0.0-60.0-0.0", "time_elapsed": 503452, "key_press": -1, "trial_index": 78}, "uniqueid": "MTK2139:39L1G8WVWRY04L5RO4LNCY1MEG331O", "dateTime": 1516738502474}, {"current_trial": 79, "trialdata": {"rt": -1, "trial_type": "single-stim", "stimulus": "<p id=\"stim\">9</p>", "internal_node_id": "0.0-60.0-1.0", "time_elapsed": 504454, "key_press": -1, "trial_index": 79}, "uniqueid": "MTK2139:39L1G8WVWRY04L5RO4LNCY1MEG331O", "dateTime": 1516738503476}, {"current_trial": 80, "trialdata": {"rt": -1, "trial_type": "single-stim", "stimulus": "<p id=\"stim\">8</p>", "internal_node_id": "0.0-60.0-2.0", "time_elapsed": 505456, "key_press": -1, "trial_index": 80}, "uniqueid": "MTK2139:39L1G8WVWRY04L5RO4LNCY1MEG331O", "dateTime": 1516738504478}, {"current_trial": 81, "trialdata": {"rt": -1, "trial_type": "single-stim", "stimulus": "<p id=\"stim\">7</p>", "internal_node_id": "0.0-60.0-3.0", "time_elapsed": 506459, "key_press": -1, "trial_index": 81}, "uniqueid": "MTK2139:39L1G8WVWRY04L5RO4LNCY1MEG331O", "dateTime": 1516738505481}, {"current_trial": 82, "trialdata": {"rt": -1, "trial_type": "single-stim", "stimulus": "<p id=\"stim\">6</p>", "internal_node_id": "0.0-60.0-4.0", "time_elapsed": 507460, "key_press": -1, "trial_index": 82}, "uniqueid": "MTK2139:39L1G8WVWRY04L5RO4LNCY1MEG331O", "dateTime": 1516738506482}, {"current_trial": 83, "trialdata": {"rt": -1, "trial_type": "single-stim", "stimulus": "<p id=\"stim\">5</p>", "internal_node_id": "0.0-60.0-5.0", "time_elapsed": 508461, "key_press": -1, "trial_index": 83}, "uniqueid": "MTK2139:39L1G8WVWRY04L5RO4LNCY1MEG331O", "dateTime": 1516738507483}, {"current_trial": 84, "trialdata": {"rt": -1, "trial_type": "single-stim", "stimulus": "<p id=\"stim\">4</p>", "internal_node_id": "0.0-60.0-6.0", "time_elapsed": 509462, "key_press": -1, "trial_index": 84}, "uniqueid": "MTK2139:39L1G8WVWRY04L5RO4LNCY1MEG331O", "dateTime": 1516738508484}, {"current_trial": 85, "trialdata": {"rt": -1, "trial_type": "single-stim", "stimulus": "<p id=\"stim\">3</p>", "internal_node_id": "0.0-60.0-7.0", "time_elapsed": 510463, "key_press": -1, "trial_index": 85}, "uniqueid": "MTK2139:39L1G8WVWRY04L5RO4LNCY1MEG331O", "dateTime": 1516738509485}, {"current_trial": 86, "trialdata": {"rt": -1, "trial_type": "single-stim", "stimulus": "<p id=\"stim\">2</p>", "internal_node_id": "0.0-60.0-8.0", "time_elapsed": 511464, "key_press": -1, "trial_index": 86}, "uniqueid": "MTK2139:39L1G8WVWRY04L5RO4LNCY1MEG331O", "dateTime": 1516738510486}, {"current_trial": 87, "trialdata": {"rt": -1, "trial_type": "single-stim", "stimulus": "<p id=\"stim\">1</p>", "internal_node_id": "0.0-60.0-9.0", "time_elapsed": 512466, "key_press": -1, "trial_index": 87}, "uniqueid": "MTK2139:39L1G8WVWRY04L5RO4LNCY1MEG331O", "dateTime": 1516738511488}, {"current_trial": 88, "trialdata": {"rt": -1, "trial_type": "single-stim", "stimulus": "<p id=\"stim\">+</p>", "internal_node_id": "0.0-61.0-0.0", "time_elapsed": 513968, "key_press": -1, "type": "FIXATION", "trial_index": 88}, "uniqueid": "MTK2139:39L1G8WVWRY04L5RO4LNCY1MEG331O", "dateTime": 1516738512990}, {"current_trial": 89, "trialdata": {"rt": -1, "trial_type": "single-stim", "word": "spoon", "stimulus": "<p id=\"stim\">SPOON</p>", "conditions": [24, 1600, "v", 12000], "internal_node_id": "0.0-62.0", "trial": 2, "time_elapsed": 515569, "serialpos": 0, "key_press": -1, "wordID": 1356, "type": "PRES_VIS", "trial_index": 89}, "uniqueid": "MTK2139:39L1G8WVWRY04L5RO4LNCY1MEG331O", "dateTime": 1516738514591}, {"current_trial": 90, "trialdata": {"rt": -1, "trial_type": "single-stim", "word": "leader", "stimulus": "<p id=\"stim\">LEADER</p>", "conditions": [24, 1600, "v", 12000], "internal_node_id": "0.0-63.0", "trial": 2, "time_elapsed": 518363, "serialpos": 1, "key_press": -1, "wordID": 806, "type": "PRES_VIS", "trial_index": 90}, "uniqueid": "MTK2139:39L1G8WVWRY04L5RO4LNCY1MEG331O", "dateTime": 1516738517385}, {"current_trial": 91, "trialdata": {"rt": -1, "trial_type": "single-stim", "word": "record", "stimulus": "<p id=\"stim\">RECORD</p>", "conditions": [24, 1600, "v", 12000], "internal_node_id": "0.0-64.0", "trial": 2, "time_elapsed": 521093, "serialpos": 2, "key_press": -1, "wordID": 1175, "type": "PRES_VIS", "trial_index": 91}, "uniqueid": "MTK2139:39L1G8WVWRY04L5RO4LNCY1MEG331O", "dateTime": 1516738520115}, {"current_trial": 92, "trialdata": {"rt": -1, "trial_type": "single-stim", "word": "liver", "stimulus": "<p id=\"stim\">LIVER</p>", "conditions": [24, 1600, "v", 12000], "internal_node_id": "0.0-65.0", "trial": 2, "time_elapsed": 523536, "serialpos": 3, "key_press": -1, "wordID": 832, "type": "PRES_VIS", "trial_index": 92}, "uniqueid": "MTK2139:39L1G8WVWRY04L5RO4LNCY1MEG331O", "dateTime": 1516738522558}, {"current_trial": 93, "trialdata": {"rt": -1, "trial_type": "single-stim", "word": "seal", "stimulus": "<p id=\"stim\">SEAL</p>", "conditions": [24, 1600, "v", 12000], "internal_node_id": "0.0-66.0", "trial": 2, "time_elapsed": 526016, "serialpos": 4, "key_press": -1, "wordID": 1261, "type": "PRES_VIS", "trial_index": 93}, "uniqueid": "MTK2139:39L1G8WVWRY04L5RO4LNCY1MEG331O", "dateTime": 1516738525038}, {"current_trial": 94, "trialdata": {"rt": -1, "trial_type": "single-stim", "word": "slide", "stimulus": "<p id=\"stim\">SLIDE</p>", "conditions": [24, 1600, "v", 12000], "internal_node_id": "0.0-67.0", "trial": 2, "time_elapsed": 528806, "serialpos": 5, "key_press": -1, "wordID": 1325, "type": "PRES_VIS", "trial_index": 94}, "uniqueid": "MTK2139:39L1G8WVWRY04L5RO4LNCY1MEG331O", "dateTime": 1516738527828}, {"current_trial": 95, "trialdata": {"rt": -1, "trial_type": "single-stim", "word": "switch", "stimulus": "<p id=\"stim\">SWITCH</p>", "conditions": [24, 1600, "v", 12000], "internal_node_id": "0.0-68.0", "trial": 2, "time_elapsed": 531483, "serialpos": 6, "key_press": -1, "wordID": 1421, "type": "PRES_VIS", "trial_index": 95}, "uniqueid": "MTK2139:39L1G8WVWRY04L5RO4LNCY1MEG331O", "dateTime": 1516738530506}, {"current_trial": 96, "trialdata": {"rt": -1, "trial_type": "single-stim", "word": "marrow", "stimulus": "<p id=\"stim\">MARROW</p>", "conditions": [24, 1600, "v", 12000], "internal_node_id": "0.0-69.0", "trial": 2, "time_elapsed": 534112, "serialpos": 7, "key_press": -1, "wordID": 871, "type": "PRES_VIS", "trial_index": 96}, "uniqueid": "MTK2139:39L1G8WVWRY04L5RO4LNCY1MEG331O", "dateTime": 1516738533134}, {"current_trial": 97, "trialdata": {"rt": -1, "trial_type": "single-stim", "word": "tombstone", "stimulus": "<p id=\"stim\">TOMBSTONE</p>", "conditions": [24, 1600, "v", 12000], "internal_node_id": "0.0-70.0", "trial": 2, "time_elapsed": 536852, "serialpos": 8, "key_press": -1, "wordID": 1477, "type": "PRES_VIS", "trial_index": 97}, "uniqueid": "MTK2139:39L1G8WVWRY04L5RO4LNCY1MEG331O", "dateTime": 1516738535874}, {"current_trial": 98, "trialdata": {"rt": -1, "trial_type": "single-stim", "word": "casket", "stimulus": "<p id=\"stim\">CASKET</p>", "conditions": [24, 1600, "v", 12000], "internal_node_id": "0.0-71.0", "trial": 2, "time_elapsed": 539649, "serialpos": 9, "key_press": -1, "wordID": 254, "type": "PRES_VIS", "trial_index": 98}, "uniqueid": "MTK2139:39L1G8WVWRY04L5RO4LNCY1MEG331O", "dateTime": 1516738538672}, {"current_trial": 99, "trialdata": {"rt": -1, "trial_type": "single-stim", "word": "bacon", "stimulus": "<p id=\"stim\">BACON</p>", "conditions": [24, 1600, "v", 12000], "internal_node_id": "0.0-72.0", "trial": 2, "time_elapsed": 542451, "serialpos": 10, "key_press": -1, "wordID": 66, "type": "PRES_VIS", "trial_index": 99}, "uniqueid": "MTK2139:39L1G8WVWRY04L5RO4LNCY1MEG331O", "dateTime": 1516738541473}, {"current_trial": 100, "trialdata": {"rt": -1, "trial_type": "single-stim", "word": "crown", "stimulus": "<p id=\"stim\">CROWN</p>", "conditions": [24, 1600, "v", 12000], "internal_node_id": "0.0-73.0", "trial": 2, "time_elapsed": 545068, "serialpos": 11, "key_press": -1, "wordID": 414, "type": "PRES_VIS", "trial_index": 100}, "uniqueid": "MTK2139:39L1G8WVWRY04L5RO4LNCY1MEG331O", "dateTime": 1516738544091}, {"current_trial": 101, "trialdata": {"rt": -1, "trial_type": "single-stim", "word": "ketchup", "stimulus": "<p id=\"stim\">KETCHUP</p>", "conditions": [24, 1600, "v", 12000], "internal_node_id": "0.0-74.0", "trial": 2, "time_elapsed": 547861, "serialpos": 12, "key_press": -1, "wordID": 770, "type": "PRES_VIS", "trial_index": 101}, "uniqueid": "MTK2139:39L1G8WVWRY04L5RO4LNCY1MEG331O", "dateTime": 1516738546883}, {"current_trial": 102, "trialdata": {"rt": -1, "trial_type": "single-stim", "word": "forehead", "stimulus": "<p id=\"stim\">FOREHEAD</p>", "conditions": [24, 1600, "v", 12000], "internal_node_id": "0.0-75.0", "trial": 2, "time_elapsed": 550506, "serialpos": 13, "key_press": -1, "wordID": 591, "type": "PRES_VIS", "trial_index": 102}, "uniqueid": "MTK2139:39L1G8WVWRY04L5RO4LNCY1MEG331O", "dateTime": 1516738549528}, {"current_trial": 103, "trialdata": {"rt": -1, "trial_type": "single-stim", "word": "beast", "stimulus": "<p id=\"stim\">BEAST</p>", "conditions": [24, 1600, "v", 12000], "internal_node_id": "0.0-76.0", "trial": 2, "time_elapsed": 553070, "serialpos": 14, "key_press": -1, "wordID": 107, "type": "PRES_VIS", "trial_index": 103}, "uniqueid": "MTK2139:39L1G8WVWRY04L5RO4LNCY1MEG331O", "dateTime": 1516738552092}, {"current_trial": 104, "trialdata": {"rt": -1, "trial_type": "single-stim", "word": "popcorn", "stimulus": "<p id=\"stim\">POPCORN</p>", "conditions": [24, 1600, "v", 12000], "internal_node_id": "0.0-77.0", "trial": 2, "time_elapsed": 555692, "serialpos": 15, "key_press": -1, "wordID": 1103, "type": "PRES_VIS", "trial_index": 104}, "uniqueid": "MTK2139:39L1G8WVWRY04L5RO4LNCY1MEG331O", "dateTime": 1516738554714}, {"current_trial": 105, "trialdata": {"rt": -1, "trial_type": "single-stim", "word": "sunset", "stimulus": "<p id=\"stim\">SUNSET</p>", "conditions": [24, 1600, "v", 12000], "internal_node_id": "0.0-78.0", "trial": 2, "time_elapsed": 558435, "serialpos": 16, "key_press": -1, "wordID": 1407, "type": "PRES_VIS", "trial_index": 105}, "uniqueid": "MTK2139:39L1G8WVWRY04L5RO4LNCY1MEG331O", "dateTime": 1516738557457}, {"current_trial": 106, "trialdata": {"rt": -1, "trial_type": "single-stim", "word": "zipper", "stimulus": "<p id=\"stim\">ZIPPER</p>", "conditions": [24, 1600, "v", 12000], "internal_node_id": "0.0-79.0", "trial": 2, "time_elapsed": 560981, "serialpos": 17, "key_press": -1, "wordID": 1635, "type": "PRES_VIS", "trial_index": 106}, "uniqueid": "MTK2139:39L1G8WVWRY04L5RO4LNCY1MEG331O", "dateTime": 1516738560004}, {"current_trial": 107, "trialdata": {"rt": -1, "trial_type": "single-stim", "word": "costume", "stimulus": "<p id=\"stim\">COSTUME</p>", "conditions": [24, 1600, "v", 12000], "internal_node_id": "0.0-80.0", "trial": 2, "time_elapsed": 563529, "serialpos": 18, "key_press": -1, "wordID": 382, "type": "PRES_VIS", "trial_index": 107}, "uniqueid": "MTK2139:39L1G8WVWRY04L5RO4LNCY1MEG331O", "dateTime": 1516738562552}, {"current_trial": 108, "trialdata": {"rt": -1, "trial_type": "single-stim", "word": "pliers", "stimulus": "<p id=\"stim\">PLIERS</p>", "conditions": [24, 1600, "v", 12000], "internal_node_id": "0.0-81.0", "trial": 2, "time_elapsed": 566230, "serialpos": 19, "key_press": -1, "wordID": 1088, "type": "PRES_VIS", "trial_index": 108}, "uniqueid": "MTK2139:39L1G8WVWRY04L5RO4LNCY1MEG331O", "dateTime": 1516738565252}, {"current_trial": 109, "trialdata": {"rt": -1, "trial_type": "single-stim", "word": "scissors", "stimulus": "<p id=\"stim\">SCISSORS</p>", "conditions": [24, 1600, "v", 12000], "internal_node_id": "0.0-82.0", "trial": 2, "time_elapsed": 569011, "serialpos": 20, "key_press": -1, "wordID": 1249, "type": "PRES_VIS", "trial_index": 109}, "uniqueid": "MTK2139:39L1G8WVWRY04L5RO4LNCY1MEG331O", "dateTime": 1516738568034}, {"current_trial": 110, "trialdata": {"rt": -1, "trial_type": "single-stim", "word": "pasta", "stimulus": "<p id=\"stim\">PASTA</p>", "conditions": [24, 1600, "v", 12000], "internal_node_id": "0.0-83.0", "trial": 2, "time_elapsed": 571501, "serialpos": 21, "key_press": -1, "wordID": 1020, "type": "PRES_VIS", "trial_index": 110}, "uniqueid": "MTK2139:39L1G8WVWRY04L5RO4LNCY1MEG331O", "dateTime": 1516738570524}, {"current_trial": 111, "trialdata": {"rt": -1, "trial_type": "single-stim", "word": "mattress", "stimulus": "<p id=\"stim\">MATTRESS</p>", "conditions": [24, 1600, "v", 12000], "internal_node_id": "0.0-84.0", "trial": 2, "time_elapsed": 574116, "serialpos": 22, "key_press": -1, "wordID": 878, "type": "PRES_VIS", "trial_index": 111}, "uniqueid": "MTK2139:39L1G8WVWRY04L5RO4LNCY1MEG331O", "dateTime": 1516738573138}, {"current_trial": 112, "trialdata": {"rt": -1, "trial_type": "single-stim", "word": "sunrise", "stimulus": "<p id=\"stim\">SUNRISE</p>", "conditions": [24, 1600, "v", 12000], "internal_node_id": "0.0-85.0", "trial": 2, "time_elapsed": 576912, "serialpos": 23, "key_press": -1, "wordID": 1406, "type": "PRES_VIS", "trial_index": 112}, "uniqueid": "MTK2139:39L1G8WVWRY04L5RO4LNCY1MEG331O", "dateTime": 1516738575934}, {"current_trial": 113, "trialdata": {"rt": -1, "trial_type": "single-stim", "stimulus": "", "internal_node_id": "0.0-86.0-0.0", "time_elapsed": 579091, "key_press": -1, "type": "PRE_RECALL_DELAY", "trial_index": 113}, "uniqueid": "MTK2139:39L1G8WVWRY04L5RO4LNCY1MEG331O", "dateTime": 1516738578114}, {"current_trial": 114, "trialdata": {"rt": -1000, "trial_type": "single-audio", "stimulus": "/static/audio/400Hz.wav", "internal_node_id": "0.0-87.0", "time_elapsed": 579593, "key_press": -1, "type": "PRE_RECALL_ALERT", "trial_index": 114}, "uniqueid": "MTK2139:39L1G8WVWRY04L5RO4LNCY1MEG331O", "dateTime": 1516738578615}, {"current_trial": 115, "trialdata": {"rt": [2671, 5608, 8170, 16422, 22787, 31681, 44077, 58855], "recwords": ["mattress", "sunrise", "zipper", "mattress", "sunset", "forehead", "food", "pliers"], "key_times": [1071, 1213, 1572, 1731, 1953, 2161, 2392, 2546, 2671, 3527, 3734, 4194, 4552, 4740, 5137, 5373, 5608, 6187, 6393, 6632, 6777, 7020, 7427, 8170, 14680, 14871, 15206, 15358, 15597, 15805, 16050, 16204, 16422, 19722, 19867, 20066, 21068, 21693, 21884, 22117, 22379, 22787, 25291, 25515, 25735, 25966, 26255, 26532, 27363, 28583, 28793, 28972, 29160, 29328, 30178, 30396, 30568, 30718, 30929, 31163, 31681, 43254, 43445, 43606, 43753, 44077, 57255, 57447, 57629, 57799, 57991, 58213, 58855], "trial_type": "free-recall", "conditions": [24, 1600, "v", 12000], "internal_node_id": "0.0-88.0-0.0", "key_presses": [77, 65, 84, 84, 82, 69, 83, 83, 32, 83, 85, 78, 82, 73, 83, 69, 32, 90, 73, 80, 80, 69, 82, 32, 77, 65, 84, 84, 82, 69, 83, 83, 32, 83, 85, 83, 8, 78, 83, 69, 84, 32, 70, 79, 82, 72, 69, 65, 68, 8, 8, 8, 8, 8, 82, 69, 72, 69, 65, 68, 13, 70, 79, 79, 68, 13, 80, 76, 73, 69, 82, 83, 32], "trial": 2, "time_elapsed": 639596, "type": "FREE_RECALL", "trial_index": 115}, "uniqueid": "MTK2139:39L1G8WVWRY04L5RO4LNCY1MEG331O", "dateTime": 1516738638621}, {"current_trial": 116, "trialdata": {"rt": 2596, "trial_type": "text", "internal_node_id": "0.0-89.0", "time_elapsed": 644196, "key_press": 32, "type": "INSTRUCTIONS", "trial_index": 116}, "uniqueid": "MTK2139:39L1G8WVWRY04L5RO4LNCY1MEG331O", "dateTime": 1516738643218}, {"current_trial": 117, "trialdata": {"rt": [2807, 5004, 7134, 8995, 12199, 15002, 17059, 18927, 20489, 23606], "trial_type": "math-distractor", "key_times": [2109, 2467, 2807, 4290, 4719, 5004, 6505, 6758, 7134, 8624, 8819, 8995, 11218, 11727, 12199, 14224, 14694, 15002, 16193, 16759, 17059, 18468, 18721, 18927, 20161, 20343, 20489, 23234, 23437, 23606], "responses": ["19", "14", "18", "11", "20", "17", "18", "12", "11", "23"], "num2": [6, 1, 8, 6, 5, 9, 3, 3, 3, 6, 3], "num3": [4, 7, 1, 3, 7, 4, 8, 3, 3, 8, 1], "conditions": [24, 800, "v", 24000], "internal_node_id": "0.0-90.0", "key_presses": [49, 57, 13, 49, 52, 13, 49, 56, 13, 49, 49, 13, 50, 48, 13, 49, 55, 13, 49, 56, 13, 49, 50, 13, 49, 49, 13, 50, 51, 13], "trial": 3, "time_elapsed": 670199, "type": "DISTRACTOR", "trial_index": 117, "num1": [9, 6, 9, 2, 8, 4, 7, 6, 5, 9, 3]}, "uniqueid": "MTK2139:39L1G8WVWRY04L5RO4LNCY1MEG331O", "dateTime": 1516738669221}, {"current_trial": 118, "trialdata": {"rt": -1, "trial_type": "single-stim", "stimulus": "<p id=\"stim\">10</p>", "internal_node_id": "0.0-91.0-0.0", "time_elapsed": 673199, "key_press": -1, "trial_index": 118}, "uniqueid": "MTK2139:39L1G8WVWRY04L5RO4LNCY1MEG331O", "dateTime": 1516738672222}, {"current_trial": 119, "trialdata": {"rt": -1, "trial_type": "single-stim", "stimulus": "<p id=\"stim\">9</p>", "internal_node_id": "0.0-91.0-1.0", "time_elapsed": 674200, "key_press": -1, "trial_index": 119}, "uniqueid": "MTK2139:39L1G8WVWRY04L5RO4LNCY1MEG331O", "dateTime": 1516738673223}, {"current_trial": 120, "trialdata": {"rt": -1, "trial_type": "single-stim", "stimulus": "<p id=\"stim\">8</p>", "internal_node_id": "0.0-91.0-2.0", "time_elapsed": 675201, "key_press": -1, "trial_index": 120}, "uniqueid": "MTK2139:39L1G8WVWRY04L5RO4LNCY1MEG331O", "dateTime": 1516738674224}, {"current_trial": 121, "trialdata": {"rt": -1, "trial_type": "single-stim", "stimulus": "<p id=\"stim\">7</p>", "internal_node_id": "0.0-91.0-3.0", "time_elapsed": 676202, "key_press": -1, "trial_index": 121}, "uniqueid": "MTK2139:39L1G8WVWRY04L5RO4LNCY1MEG331O", "dateTime": 1516738675225}, {"current_trial": 122, "trialdata": {"rt": -1, "trial_type": "single-stim", "stimulus": "<p id=\"stim\">6</p>", "internal_node_id": "0.0-91.0-4.0", "time_elapsed": 677203, "key_press": -1, "trial_index": 122}, "uniqueid": "MTK2139:39L1G8WVWRY04L5RO4LNCY1MEG331O", "dateTime": 1516738676226}, {"current_trial": 123, "trialdata": {"rt": -1, "trial_type": "single-stim", "stimulus": "<p id=\"stim\">5</p>", "internal_node_id": "0.0-91.0-5.0", "time_elapsed": 678204, "key_press": -1, "trial_index": 123}, "uniqueid": "MTK2139:39L1G8WVWRY04L5RO4LNCY1MEG331O", "dateTime": 1516738677226}, {"current_trial": 124, "trialdata": {"rt": -1, "trial_type": "single-stim", "stimulus": "<p id=\"stim\">4</p>", "internal_node_id": "0.0-91.0-6.0", "time_elapsed": 679205, "key_press": -1, "trial_index": 124}, "uniqueid": "MTK2139:39L1G8WVWRY04L5RO4LNCY1MEG331O", "dateTime": 1516738678228}, {"current_trial": 125, "trialdata": {"rt": -1, "trial_type": "single-stim", "stimulus": "<p id=\"stim\">3</p>", "internal_node_id": "0.0-91.0-7.0", "time_elapsed": 680207, "key_press": -1, "trial_index": 125}, "uniqueid": "MTK2139:39L1G8WVWRY04L5RO4LNCY1MEG331O", "dateTime": 1516738679229}, {"current_trial": 126, "trialdata": {"rt": -1, "trial_type": "single-stim", "stimulus": "<p id=\"stim\">2</p>", "internal_node_id": "0.0-91.0-8.0", "time_elapsed": 681207, "key_press": -1, "trial_index": 126}, "uniqueid": "MTK2139:39L1G8WVWRY04L5RO4LNCY1MEG331O", "dateTime": 1516738680231}, {"current_trial": 127, "trialdata": {"rt": -1, "trial_type": "single-stim", "stimulus": "<p id=\"stim\">1</p>", "internal_node_id": "0.0-91.0-9.0", "time_elapsed": 682210, "key_press": -1, "trial_index": 127}, "uniqueid": "MTK2139:39L1G8WVWRY04L5RO4LNCY1MEG331O", "dateTime": 1516738681232}, {"current_trial": 128, "trialdata": {"rt": -1, "trial_type": "single-stim", "stimulus": "<p id=\"stim\">+</p>", "internal_node_id": "0.0-92.0-0.0", "time_elapsed": 683710, "key_press": -1, "type": "FIXATION", "trial_index": 128}, "uniqueid": "MTK2139:39L1G8WVWRY04L5RO4LNCY1MEG331O", "dateTime": 1516738682733}, {"current_trial": 129, "trialdata": {"rt": -1, "trial_type": "single-stim", "word": "globe", "stimulus": "<p id=\"stim\">GLOBE</p>", "conditions": [24, 800, "v", 24000], "internal_node_id": "0.0-93.0", "trial": 3, "time_elapsed": 684512, "serialpos": 0, "key_press": -1, "wordID": 640, "type": "PRES_VIS", "trial_index": 129}, "uniqueid": "MTK2139:39L1G8WVWRY04L5RO4LNCY1MEG331O", "dateTime": 1516738683534}, {"current_trial": 130, "trialdata": {"rt": -1, "trial_type": "single-stim", "word": "world", "stimulus": "<p id=\"stim\">WORLD</p>", "conditions": [24, 800, "v", 24000], "internal_node_id": "0.0-94.0", "trial": 3, "time_elapsed": 686288, "serialpos": 1, "key_press": -1, "wordID": 1621, "type": "PRES_VIS", "trial_index": 130}, "uniqueid": "MTK2139:39L1G8WVWRY04L5RO4LNCY1MEG331O", "dateTime": 1516738685310}, {"current_trial": 131, "trialdata": {"rt": -1, "trial_type": "single-stim", "word": "playground", "stimulus": "<p id=\"stim\">PLAYGROUND</p>", "conditions": [24, 800, "v", 24000], "internal_node_id": "0.0-95.0", "trial": 3, "time_elapsed": 688024, "serialpos": 2, "key_press": -1, "wordID": 1086, "type": "PRES_VIS", "trial_index": 131}, "uniqueid": "MTK2139:39L1G8WVWRY04L5RO4LNCY1MEG331O", "dateTime": 1516738687046}, {"current_trial": 132, "trialdata": {"rt": -1, "trial_type": "single-stim", "word": "football", "stimulus": "<p id=\"stim\">FOOTBALL</p>", "conditions": [24, 800, "v", 24000], "internal_node_id": "0.0-96.0", "trial": 3, "time_elapsed": 689716, "serialpos": 3, "key_press": -1, "wordID": 590, "type": "PRES_VIS", "trial_index": 132}, "uniqueid": "MTK2139:39L1G8WVWRY04L5RO4LNCY1MEG331O", "dateTime": 1516738688738}, {"current_trial": 133, "trialdata": {"rt": -1, "trial_type": "single-stim", "word": "leg", "stimulus": "<p id=\"stim\">LEG</p>", "conditions": [24, 800, "v", 24000], "internal_node_id": "0.0-97.0", "trial": 3, "time_elapsed": 691716, "serialpos": 4, "key_press": -1, "wordID": 808, "type": "PRES_VIS", "trial_index": 133}, "uniqueid": "MTK2139:39L1G8WVWRY04L5RO4LNCY1MEG331O", "dateTime": 1516738690738}, {"current_trial": 134, "trialdata": {"rt": -1, "trial_type": "single-stim", "word": "sticker", "stimulus": "<p id=\"stim\">STICKER</p>", "conditions": [24, 800, "v", 24000], "internal_node_id": "0.0-98.0", "trial": 3, "time_elapsed": 693327, "serialpos": 5, "key_press": -1, "wordID": 1381, "type": "PRES_VIS", "trial_index": 134}, "uniqueid": "MTK2139:39L1G8WVWRY04L5RO4LNCY1MEG331O", "dateTime": 1516738692350}, {"current_trial": 135, "trialdata": {"rt": -1, "trial_type": "single-stim", "word": "egypt", "stimulus": "<p id=\"stim\">EGYPT</p>", "conditions": [24, 800, "v", 24000], "internal_node_id": "0.0-99.0", "trial": 3, "time_elapsed": 695109, "serialpos": 6, "key_press": -1, "wordID": 518, "type": "PRES_VIS", "trial_index": 135}, "uniqueid": "MTK2139:39L1G8WVWRY04L5RO4LNCY1MEG331O", "dateTime": 1516738694131}, {"current_trial": 136, "trialdata": {"rt": -1, "trial_type": "single-stim", "word": "peach", "stimulus": "<p id=\"stim\">PEACH</p>", "conditions": [24, 800, "v", 24000], "internal_node_id": "0.0-100.0", "trial": 3, "time_elapsed": 696786, "serialpos": 7, "key_press": -1, "wordID": 1030, "type": "PRES_VIS", "trial_index": 136}, "uniqueid": "MTK2139:39L1G8WVWRY04L5RO4LNCY1MEG331O", "dateTime": 1516738695808}, {"current_trial": 137, "trialdata": {"rt": -1, "trial_type": "single-stim", "word": "compass", "stimulus": "<p id=\"stim\">COMPASS</p>", "conditions": [24, 800, "v", 24000], "internal_node_id": "0.0-101.0", "trial": 3, "time_elapsed": 698440, "serialpos": 8, "key_press": -1, "wordID": 357, "type": "PRES_VIS", "trial_index": 137}, "uniqueid": "MTK2139:39L1G8WVWRY04L5RO4LNCY1MEG331O", "dateTime": 1516738697462}, {"current_trial": 138, "trialdata": {"rt": -1, "trial_type": "single-stim", "word": "sparrow", "stimulus": "<p id=\"stim\">SPARROW</p>", "conditions": [24, 800, "v", 24000], "internal_node_id": "0.0-102.0", "trial": 3, "time_elapsed": 700439, "serialpos": 9, "key_press": -1, "wordID": 1346, "type": "PRES_VIS", "trial_index": 138}, "uniqueid": "MTK2139:39L1G8WVWRY04L5RO4LNCY1MEG331O", "dateTime": 1516738699461}, {"current_trial": 139, "trialdata": {"rt": -1, "trial_type": "single-stim", "word": "puppy", "stimulus": "<p id=\"stim\">PUPPY</p>", "conditions": [24, 800, "v", 24000], "internal_node_id": "0.0-103.0", "trial": 3, "time_elapsed": 702426, "serialpos": 10, "key_press": -1, "wordID": 1143, "type": "PRES_VIS", "trial_index": 139}, "uniqueid": "MTK2139:39L1G8WVWRY04L5RO4LNCY1MEG331O", "dateTime": 1516738701449}, {"current_trial": 140, "trialdata": {"rt": -1, "trial_type": "single-stim", "word": "badge", "stimulus": "<p id=\"stim\">BADGE</p>", "conditions": [24, 800, "v", 24000], "internal_node_id": "0.0-104.0", "trial": 3, "time_elapsed": 704300, "serialpos": 11, "key_press": -1, "wordID": 67, "type": "PRES_VIS", "trial_index": 140}, "uniqueid": "MTK2139:39L1G8WVWRY04L5RO4LNCY1MEG331O", "dateTime": 1516738703322}, {"current_trial": 141, "trialdata": {"rt": -1, "trial_type": "single-stim", "word": "actress", "stimulus": "<p id=\"stim\">ACTRESS</p>", "conditions": [24, 800, "v", 24000], "internal_node_id": "0.0-105.0", "trial": 3, "time_elapsed": 706108, "serialpos": 12, "key_press": -1, "wordID": 5, "type": "PRES_VIS", "trial_index": 141}, "uniqueid": "MTK2139:39L1G8WVWRY04L5RO4LNCY1MEG331O", "dateTime": 1516738705131}, {"current_trial": 142, "trialdata": {"rt": -1, "trial_type": "single-stim", "word": "twister", "stimulus": "<p id=\"stim\">TWISTER</p>", "conditions": [24, 800, "v", 24000], "internal_node_id": "0.0-106.0", "trial": 3, "time_elapsed": 707847, "serialpos": 13, "key_press": -1, "wordID": 1529, "type": "PRES_VIS", "trial_index": 142}, "uniqueid": "MTK2139:39L1G8WVWRY04L5RO4LNCY1MEG331O", "dateTime": 1516738706870}, {"current_trial": 143, "trialdata": {"rt": -1, "trial_type": "single-stim", "word": "inmate", "stimulus": "<p id=\"stim\">INMATE</p>", "conditions": [24, 800, "v", 24000], "internal_node_id": "0.0-107.0", "trial": 3, "time_elapsed": 709644, "serialpos": 14, "key_press": -1, "wordID": 737, "type": "PRES_VIS", "trial_index": 143}, "uniqueid": "MTK2139:39L1G8WVWRY04L5RO4LNCY1MEG331O", "dateTime": 1516738708667}, {"current_trial": 144, "trialdata": {"rt": -1, "trial_type": "single-stim", "word": "mister", "stimulus": "<p id=\"stim\">MISTER</p>", "conditions": [24, 800, "v", 24000], "internal_node_id": "0.0-108.0", "trial": 3, "time_elapsed": 711510, "serialpos": 15, "key_press": -1, "wordID": 900, "type": "PRES_VIS", "trial_index": 144}, "uniqueid": "MTK2139:39L1G8WVWRY04L5RO4LNCY1MEG331O", "dateTime": 1516738710532}, {"current_trial": 145, "trialdata": {"rt": -1, "trial_type": "single-stim", "word": "report", "stimulus": "<p id=\"stim\">REPORT</p>", "conditions": [24, 800, "v", 24000], "internal_node_id": "0.0-109.0", "trial": 3, "time_elapsed": 713436, "serialpos": 16, "key_press": -1, "wordID": 1183, "type": "PRES_VIS", "trial_index": 145}, "uniqueid": "MTK2139:39L1G8WVWRY04L5RO4LNCY1MEG331O", "dateTime": 1516738712458}, {"current_trial": 146, "trialdata": {"rt": -1, "trial_type": "single-stim", "word": "child", "stimulus": "<p id=\"stim\">CHILD</p>", "conditions": [24, 800, "v", 24000], "internal_node_id": "0.0-110.0", "trial": 3, "time_elapsed": 715170, "serialpos": 17, "key_press": -1, "wordID": 298, "type": "PRES_VIS", "trial_index": 146}, "uniqueid": "MTK2139:39L1G8WVWRY04L5RO4LNCY1MEG331O", "dateTime": 1516738714192}, {"current_trial": 147, "trialdata": {"rt": -1, "trial_type": "single-stim", "word": "shelf", "stimulus": "<p id=\"stim\">SHELF</p>", "conditions": [24, 800, "v", 24000], "internal_node_id": "0.0-111.0", "trial": 3, "time_elapsed": 716968, "serialpos": 18, "key_press": -1, "wordID": 1279, "type": "PRES_VIS", "trial_index": 147}, "uniqueid": "MTK2139:39L1G8WVWRY04L5RO4LNCY1MEG331O", "dateTime": 1516738715991}, {"current_trial": 148, "trialdata": {"rt": -1, "trial_type": "single-stim", "word": "toaster", "stimulus": "<p id=\"stim\">TOASTER</p>", "conditions": [24, 800, "v", 24000], "internal_node_id": "0.0-112.0", "trial": 3, "time_elapsed": 718904, "serialpos": 19, "key_press": -1, "wordID": 1471, "type": "PRES_VIS", "trial_index": 148}, "uniqueid": "MTK2139:39L1G8WVWRY04L5RO4LNCY1MEG331O", "dateTime": 1516738717927}, {"current_trial": 149, "trialdata": {"rt": -1, "trial_type": "single-stim", "word": "survey", "stimulus": "<p id=\"stim\">SURVEY</p>", "conditions": [24, 800, "v", 24000], "internal_node_id": "0.0-113.0", "trial": 3, "time_elapsed": 720628, "serialpos": 20, "key_press": -1, "wordID": 1413, "type": "PRES_VIS", "trial_index": 149}, "uniqueid": "MTK2139:39L1G8WVWRY04L5RO4LNCY1MEG331O", "dateTime": 1516738719650}, {"current_trial": 150, "trialdata": {"rt": -1, "trial_type": "single-stim", "word": "snail", "stimulus": "<p id=\"stim\">SNAIL</p>", "conditions": [24, 800, "v", 24000], "internal_node_id": "0.0-114.0", "trial": 3, "time_elapsed": 722434, "serialpos": 21, "key_press": -1, "wordID": 1331, "type": "PRES_VIS", "trial_index": 150}, "uniqueid": "MTK2139:39L1G8WVWRY04L5RO4LNCY1MEG331O", "dateTime": 1516738721456}, {"current_trial": 151, "trialdata": {"rt": -1, "trial_type": "single-stim", "word": "sidewalk", "stimulus": "<p id=\"stim\">SIDEWALK</p>", "conditions": [24, 800, "v", 24000], "internal_node_id": "0.0-115.0", "trial": 3, "time_elapsed": 724102, "serialpos": 22, "key_press": -1, "wordID": 1302, "type": "PRES_VIS", "trial_index": 151}, "uniqueid": "MTK2139:39L1G8WVWRY04L5RO4LNCY1MEG331O", "dateTime": 1516738723125}, {"current_trial": 152, "trialdata": {"rt": -1, "trial_type": "single-stim", "word": "plaza", "stimulus": "<p id=\"stim\">PLAZA</p>", "conditions": [24, 800, "v", 24000], "internal_node_id": "0.0-116.0", "trial": 3, "time_elapsed": 725712, "serialpos": 23, "key_press": -1, "wordID": 1087, "type": "PRES_VIS", "trial_index": 152}, "uniqueid": "MTK2139:39L1G8WVWRY04L5RO4LNCY1MEG331O", "dateTime": 1516738724734}, {"current_trial": 153, "trialdata": {"rt": -1, "trial_type": "single-stim", "stimulus": "", "internal_node_id": "0.0-117.0-0.0", "time_elapsed": 727877, "key_press": -1, "type": "PRE_RECALL_DELAY", "trial_index": 153}, "uniqueid": "MTK2139:39L1G8WVWRY04L5RO4LNCY1MEG331O", "dateTime": 1516738726900}, {"current_trial": 154, "trialdata": {"rt": -1000, "trial_type": "single-audio", "stimulus": "/static/audio/400Hz.wav", "internal_node_id": "0.0-118.0", "time_elapsed": 728379, "key_press": -1, "type": "PRE_RECALL_ALERT", "trial_index": 154}, "uniqueid": "MTK2139:39L1G8WVWRY04L5RO4LNCY1MEG331O", "dateTime": 1516738727401}, {"current_trial": 155, "trialdata": {"rt": [2311, 8571, 11525, 13518, 15302, 25285, 40407, 50555], "recwords": ["plaza", "playground", "sidewalk", "globe", "world", "twister", "sister", "snail"], "key_times": [940, 1156, 1410, 1645, 1880, 2311, 3246, 3498, 3714, 3893, 4276, 4513, 4768, 4974, 5226, 5967, 6362, 6603, 6782, 7515, 7720, 7937, 8159, 8362, 8571, 9298, 9546, 9751, 10006, 10244, 10455, 10618, 10847, 11525, 12392, 12556, 12762, 13085, 13297, 13518, 13740, 14135, 14404, 14578, 14801, 15302, 23460, 23774, 24001, 24171, 24458, 24683, 24881, 25285, 39035, 39155, 39321, 39600, 39826, 40060, 40407, 49043, 49434, 49716, 49922, 50151, 50555], "trial_type": "free-recall", "conditions": [24, 800, "v", 24000], "internal_node_id": "0.0-119.0-0.0", "key_presses": [80, 76, 65, 90, 65, 13, 80, 76, 65, 89, 71, 79, 85, 78, 68, 8, 8, 8, 8, 82, 79, 85, 78, 68, 13, 83, 73, 68, 69, 87, 65, 76, 75, 13, 71, 76, 79, 66, 69, 13, 87, 79, 82, 76, 68, 13, 84, 87, 73, 83, 84, 69, 82, 13, 83, 73, 83, 84, 69, 82, 13, 83, 78, 65, 73, 76, 13], "trial": 3, "time_elapsed": 788383, "type": "FREE_RECALL", "trial_index": 155}, "uniqueid": "MTK2139:39L1G8WVWRY04L5RO4LNCY1MEG331O", "dateTime": 1516738787409}, {"current_trial": 156, "trialdata": {"rt": 94095, "trial_type": "text", "internal_node_id": "0.0-120.0", "time_elapsed": 884484, "key_press": 32, "type": "INSTRUCTIONS", "trial_index": 156}, "uniqueid": "MTK2139:39L1G8WVWRY04L5RO4LNCY1MEG331O", "dateTime": 1516738883506}, {"current_trial": 157, "trialdata": {"rt": [3481, 5188, 7442, 9451, 11247, 13227, 15659, 17490, 19417, 23208], "trial_type": "math-distractor", "key_times": [1810, 2282, 2852, 3481, 5001, 5188, 6833, 7292, 7442, 8839, 9304, 9451, 10895, 11091, 11247, 12769, 13083, 13227, 15105, 15334, 15659, 16994, 17234, 17490, 19019, 19279, 19417, 22586, 23031, 23208], "responses": ["19 ", "9", "16", "18", "12", "14", "13", "13", "13", "18"], "num2": [3, 3, 3, 8, 1, 8, 6, 2, 6, 5, 8], "num3": [8, 3, 4, 3, 4, 5, 5, 2, 1, 7, 8], "conditions": [24, 1600, "v", 24000], "internal_node_id": "0.0-121.0", "key_presses": [49, 57, 32, 13, 57, 13, 49, 54, 13, 49, 56, 13, 49, 50, 13, 49, 52, 13, 49, 51, 13, 49, 51, 13, 49, 51, 13, 49, 56, 13], "trial": 4, "time_elapsed": 910486, "type": "DISTRACTOR", "trial_index": 157, "num1": [8, 3, 9, 7, 7, 1, 2, 9, 6, 6, 3]}, "uniqueid": "MTK2139:39L1G8WVWRY04L5RO4LNCY1MEG331O", "dateTime": 1516738909508}, {"current_trial": 158, "trialdata": {"rt": -1, "trial_type": "single-stim", "stimulus": "<p id=\"stim\">10</p>", "internal_node_id": "0.0-122.0-0.0", "time_elapsed": 913489, "key_press": -1, "trial_index": 158}, "uniqueid": "MTK2139:39L1G8WVWRY04L5RO4LNCY1MEG331O", "dateTime": 1516738912511}, {"current_trial": 159, "trialdata": {"rt": -1, "trial_type": "single-stim", "stimulus": "<p id=\"stim\">9</p>", "internal_node_id": "0.0-122.0-1.0", "time_elapsed": 914490, "key_press": -1, "trial_index": 159}, "uniqueid": "MTK2139:39L1G8WVWRY04L5RO4LNCY1MEG331O", "dateTime": 1516738913513}, {"current_trial": 160, "trialdata": {"rt": -1, "trial_type": "single-stim", "stimulus": "<p id=\"stim\">8</p>", "internal_node_id": "0.0-122.0-2.0", "time_elapsed": 915491, "key_press": -1, "trial_index": 160}, "uniqueid": "MTK2139:39L1G8WVWRY04L5RO4LNCY1MEG331O", "dateTime": 1516738914514}, {"current_trial": 161, "trialdata": {"rt": -1, "trial_type": "single-stim", "stimulus": "<p id=\"stim\">7</p>", "internal_node_id": "0.0-122.0-3.0", "time_elapsed": 916493, "key_press": -1, "trial_index": 161}, "uniqueid": "MTK2139:39L1G8WVWRY04L5RO4LNCY1MEG331O", "dateTime": 1516738915515}, {"current_trial": 162, "trialdata": {"rt": -1, "trial_type": "single-stim", "stimulus": "<p id=\"stim\">6</p>", "internal_node_id": "0.0-122.0-4.0", "time_elapsed": 917495, "key_press": -1, "trial_index": 162}, "uniqueid": "MTK2139:39L1G8WVWRY04L5RO4LNCY1MEG331O", "dateTime": 1516738916517}, {"current_trial": 163, "trialdata": {"rt": -1, "trial_type": "single-stim", "stimulus": "<p id=\"stim\">5</p>", "internal_node_id": "0.0-122.0-5.0", "time_elapsed": 918496, "key_press": -1, "trial_index": 163}, "uniqueid": "MTK2139:39L1G8WVWRY04L5RO4LNCY1MEG331O", "dateTime": 1516738917518}, {"current_trial": 164, "trialdata": {"rt": -1, "trial_type": "single-stim", "stimulus": "<p id=\"stim\">4</p>", "internal_node_id": "0.0-122.0-6.0", "time_elapsed": 919498, "key_press": -1, "trial_index": 164}, "uniqueid": "MTK2139:39L1G8WVWRY04L5RO4LNCY1MEG331O", "dateTime": 1516738918521}, {"current_trial": 165, "trialdata": {"rt": -1, "trial_type": "single-stim", "stimulus": "<p id=\"stim\">3</p>", "internal_node_id": "0.0-122.0-7.0", "time_elapsed": 920500, "key_press": -1, "trial_index": 165}, "uniqueid": "MTK2139:39L1G8WVWRY04L5RO4LNCY1MEG331O", "dateTime": 1516738919523}, {"current_trial": 166, "trialdata": {"rt": -1, "trial_type": "single-stim", "stimulus": "<p id=\"stim\">2</p>", "internal_node_id": "0.0-122.0-8.0", "time_elapsed": 921501, "key_press": -1, "trial_index": 166}, "uniqueid": "MTK2139:39L1G8WVWRY04L5RO4LNCY1MEG331O", "dateTime": 1516738920524}, {"current_trial": 167, "trialdata": {"rt": -1, "trial_type": "single-stim", "stimulus": "<p id=\"stim\">1</p>", "internal_node_id": "0.0-122.0-9.0", "time_elapsed": 922502, "key_press": -1, "trial_index": 167}, "uniqueid": "MTK2139:39L1G8WVWRY04L5RO4LNCY1MEG331O", "dateTime": 1516738921525}, {"current_trial": 168, "trialdata": {"rt": -1, "trial_type": "single-stim", "stimulus": "<p id=\"stim\">+</p>", "internal_node_id": "0.0-123.0-0.0", "time_elapsed": 924005, "key_press": -1, "type": "FIXATION", "trial_index": 168}, "uniqueid": "MTK2139:39L1G8WVWRY04L5RO4LNCY1MEG331O", "dateTime": 1516738923027}, {"current_trial": 169, "trialdata": {"rt": -1, "trial_type": "single-stim", "word": "taxi", "stimulus": "<p id=\"stim\">TAXI</p>", "conditions": [24, 1600, "v", 24000], "internal_node_id": "0.0-124.0", "trial": 4, "time_elapsed": 925606, "serialpos": 0, "key_press": -1, "wordID": 1437, "type": "PRES_VIS", "trial_index": 169}, "uniqueid": "MTK2139:39L1G8WVWRY04L5RO4LNCY1MEG331O", "dateTime": 1516738924628}, {"current_trial": 170, "trialdata": {"rt": -1, "trial_type": "single-stim", "word": "handbag", "stimulus": "<p id=\"stim\">HANDBAG</p>", "conditions": [24, 1600, "v", 24000], "internal_node_id": "0.0-125.0", "trial": 4, "time_elapsed": 928077, "serialpos": 1, "key_press": -1, "wordID": 683, "type": "PRES_VIS", "trial_index": 170}, "uniqueid": "MTK2139:39L1G8WVWRY04L5RO4LNCY1MEG331O", "dateTime": 1516738927099}, {"current_trial": 171, "trialdata": {"rt": -1, "trial_type": "single-stim", "word": "wagon", "stimulus": "<p id=\"stim\">WAGON</p>", "conditions": [24, 1600, "v", 24000], "internal_node_id": "0.0-126.0", "trial": 4, "time_elapsed": 930554, "serialpos": 2, "key_press": -1, "wordID": 1577, "type": "PRES_VIS", "trial_index": 171}, "uniqueid": "MTK2139:39L1G8WVWRY04L5RO4LNCY1MEG331O", "dateTime": 1516738929577}, {"current_trial": 172, "trialdata": {"rt": -1, "trial_type": "single-stim", "word": "body", "stimulus": "<p id=\"stim\">BODY</p>", "conditions": [24, 1600, "v", 24000], "internal_node_id": "0.0-127.0", "trial": 4, "time_elapsed": 933216, "serialpos": 3, "key_press": -1, "wordID": 144, "type": "PRES_VIS", "trial_index": 172}, "uniqueid": "MTK2139:39L1G8WVWRY04L5RO4LNCY1MEG331O", "dateTime": 1516738932239}, {"current_trial": 173, "trialdata": {"rt": -1, "trial_type": "single-stim", "word": "expert", "stimulus": "<p id=\"stim\">EXPERT</p>", "conditions": [24, 1600, "v", 24000], "internal_node_id": "0.0-128.0", "trial": 4, "time_elapsed": 935865, "serialpos": 4, "key_press": -1, "wordID": 542, "type": "PRES_VIS", "trial_index": 173}, "uniqueid": "MTK2139:39L1G8WVWRY04L5RO4LNCY1MEG331O", "dateTime": 1516738934888}, {"current_trial": 174, "trialdata": {"rt": -1, "trial_type": "single-stim", "word": "sibling", "stimulus": "<p id=\"stim\">SIBLING</p>", "conditions": [24, 1600, "v", 24000], "internal_node_id": "0.0-129.0", "trial": 4, "time_elapsed": 938609, "serialpos": 5, "key_press": -1, "wordID": 1300, "type": "PRES_VIS", "trial_index": 174}, "uniqueid": "MTK2139:39L1G8WVWRY04L5RO4LNCY1MEG331O", "dateTime": 1516738937632}, {"current_trial": 175, "trialdata": {"rt": -1, "trial_type": "single-stim", "word": "canyon", "stimulus": "<p id=\"stim\">CANYON</p>", "conditions": [24, 1600, "v", 24000], "internal_node_id": "0.0-130.0", "trial": 4, "time_elapsed": 941358, "serialpos": 6, "key_press": -1, "wordID": 234, "type": "PRES_VIS", "trial_index": 175}, "uniqueid": "MTK2139:39L1G8WVWRY04L5RO4LNCY1MEG331O", "dateTime": 1516738940381}, {"current_trial": 176, "trialdata": {"rt": -1, "trial_type": "single-stim", "word": "friend", "stimulus": "<p id=\"stim\">FRIEND</p>", "conditions": [24, 1600, "v", 24000], "internal_node_id": "0.0-131.0", "trial": 4, "time_elapsed": 943930, "serialpos": 7, "key_press": -1, "wordID": 605, "type": "PRES_VIS", "trial_index": 176}, "uniqueid": "MTK2139:39L1G8WVWRY04L5RO4LNCY1MEG331O", "dateTime": 1516738942953}, {"current_trial": 177, "trialdata": {"rt": -1, "trial_type": "single-stim", "word": "banjo", "stimulus": "<p id=\"stim\">BANJO</p>", "conditions": [24, 1600, "v", 24000], "internal_node_id": "0.0-132.0", "trial": 4, "time_elapsed": 946403, "serialpos": 8, "key_press": -1, "wordID": 81, "type": "PRES_VIS", "trial_index": 177}, "uniqueid": "MTK2139:39L1G8WVWRY04L5RO4LNCY1MEG331O", "dateTime": 1516738945426}, {"current_trial": 178, "trialdata": {"rt": -1, "trial_type": "single-stim", "word": "truck", "stimulus": "<p id=\"stim\">TRUCK</p>", "conditions": [24, 1600, "v", 24000], "internal_node_id": "0.0-133.0", "trial": 4, "time_elapsed": 949139, "serialpos": 9, "key_press": -1, "wordID": 1511, "type": "PRES_VIS", "trial_index": 178}, "uniqueid": "MTK2139:39L1G8WVWRY04L5RO4LNCY1MEG331O", "dateTime": 1516738948161}, {"current_trial": 179, "trialdata": {"rt": -1, "trial_type": "single-stim", "word": "orchid", "stimulus": "<p id=\"stim\">ORCHID</p>", "conditions": [24, 1600, "v", 24000], "internal_node_id": "0.0-134.0", "trial": 4, "time_elapsed": 951631, "serialpos": 10, "key_press": -1, "wordID": 981, "type": "PRES_VIS", "trial_index": 179}, "uniqueid": "MTK2139:39L1G8WVWRY04L5RO4LNCY1MEG331O", "dateTime": 1516738950654}, {"current_trial": 180, "trialdata": {"rt": -1, "trial_type": "single-stim", "word": "flower", "stimulus": "<p id=\"stim\">FLOWER</p>", "conditions": [24, 1600, "v", 24000], "internal_node_id": "0.0-135.0", "trial": 4, "time_elapsed": 954290, "serialpos": 11, "key_press": -1, "wordID": 583, "type": "PRES_VIS", "trial_index": 180}, "uniqueid": "MTK2139:39L1G8WVWRY04L5RO4LNCY1MEG331O", "dateTime": 1516738953313}, {"current_trial": 181, "trialdata": {"rt": -1, "trial_type": "single-stim", "word": "statue", "stimulus": "<p id=\"stim\">STATUE</p>", "conditions": [24, 1600, "v", 24000], "internal_node_id": "0.0-136.0", "trial": 4, "time_elapsed": 956738, "serialpos": 12, "key_press": -1, "wordID": 1373, "type": "PRES_VIS", "trial_index": 181}, "uniqueid": "MTK2139:39L1G8WVWRY04L5RO4LNCY1MEG331O", "dateTime": 1516738955760}, {"current_trial": 182, "trialdata": {"rt": -1, "trial_type": "single-stim", "word": "igloo", "stimulus": "<p id=\"stim\">IGLOO</p>", "conditions": [24, 1600, "v", 24000], "internal_node_id": "0.0-137.0", "trial": 4, "time_elapsed": 959281, "serialpos": 13, "key_press": -1, "wordID": 733, "type": "PRES_VIS", "trial_index": 182}, "uniqueid": "MTK2139:39L1G8WVWRY04L5RO4LNCY1MEG331O", "dateTime": 1516738958303}, {"current_trial": 183, "trialdata": {"rt": -1, "trial_type": "single-stim", "word": "slug", "stimulus": "<p id=\"stim\">SLUG</p>", "conditions": [24, 1600, "v", 24000], "internal_node_id": "0.0-138.0", "trial": 4, "time_elapsed": 961823, "serialpos": 14, "key_press": -1, "wordID": 1328, "type": "PRES_VIS", "trial_index": 183}, "uniqueid": "MTK2139:39L1G8WVWRY04L5RO4LNCY1MEG331O", "dateTime": 1516738960846}, {"current_trial": 184, "trialdata": {"rt": -1, "trial_type": "single-stim", "word": "country", "stimulus": "<p id=\"stim\">COUNTRY</p>", "conditions": [24, 1600, "v", 24000], "internal_node_id": "0.0-139.0", "trial": 4, "time_elapsed": 964317, "serialpos": 15, "key_press": -1, "wordID": 387, "type": "PRES_VIS", "trial_index": 184}, "uniqueid": "MTK2139:39L1G8WVWRY04L5RO4LNCY1MEG331O", "dateTime": 1516738963340}, {"current_trial": 185, "trialdata": {"rt": -1, "trial_type": "single-stim", "word": "asia", "stimulus": "<p id=\"stim\">ASIA</p>", "conditions": [24, 1600, "v", 24000], "internal_node_id": "0.0-140.0", "trial": 4, "time_elapsed": 966875, "serialpos": 16, "key_press": -1, "wordID": 45, "type": "PRES_VIS", "trial_index": 185}, "uniqueid": "MTK2139:39L1G8WVWRY04L5RO4LNCY1MEG331O", "dateTime": 1516738965898}, {"current_trial": 186, "trialdata": {"rt": -1, "trial_type": "single-stim", "word": "sculpture", "stimulus": "<p id=\"stim\">SCULPTURE</p>", "conditions": [24, 1600, "v", 24000], "internal_node_id": "0.0-141.0", "trial": 4, "time_elapsed": 969515, "serialpos": 17, "key_press": -1, "wordID": 1257, "type": "PRES_VIS", "trial_index": 186}, "uniqueid": "MTK2139:39L1G8WVWRY04L5RO4LNCY1MEG331O", "dateTime": 1516738968537}, {"current_trial": 187, "trialdata": {"rt": -1, "trial_type": "single-stim", "word": "crab", "stimulus": "<p id=\"stim\">CRAB</p>", "conditions": [24, 1600, "v", 24000], "internal_node_id": "0.0-142.0", "trial": 4, "time_elapsed": 972015, "serialpos": 18, "key_press": -1, "wordID": 396, "type": "PRES_VIS", "trial_index": 187}, "uniqueid": "MTK2139:39L1G8WVWRY04L5RO4LNCY1MEG331O", "dateTime": 1516738971037}, {"current_trial": 188, "trialdata": {"rt": -1, "trial_type": "single-stim", "word": "clam", "stimulus": "<p id=\"stim\">CLAM</p>", "conditions": [24, 1600, "v", 24000], "internal_node_id": "0.0-143.0", "trial": 4, "time_elapsed": 974582, "serialpos": 19, "key_press": -1, "wordID": 314, "type": "PRES_VIS", "trial_index": 188}, "uniqueid": "MTK2139:39L1G8WVWRY04L5RO4LNCY1MEG331O", "dateTime": 1516738973605}, {"current_trial": 189, "trialdata": {"rt": -1, "trial_type": "single-stim", "word": "parent", "stimulus": "<p id=\"stim\">PARENT</p>", "conditions": [24, 1600, "v", 24000], "internal_node_id": "0.0-144.0", "trial": 4, "time_elapsed": 977079, "serialpos": 20, "key_press": -1, "wordID": 1012, "type": "PRES_VIS", "trial_index": 189}, "uniqueid": "MTK2139:39L1G8WVWRY04L5RO4LNCY1MEG331O", "dateTime": 1516738976102}, {"current_trial": 190, "trialdata": {"rt": -1, "trial_type": "single-stim", "word": "paper", "stimulus": "<p id=\"stim\">PAPER</p>", "conditions": [24, 1600, "v", 24000], "internal_node_id": "0.0-145.0", "trial": 4, "time_elapsed": 979630, "serialpos": 21, "key_press": -1, "wordID": 1010, "type": "PRES_VIS", "trial_index": 190}, "uniqueid": "MTK2139:39L1G8WVWRY04L5RO4LNCY1MEG331O", "dateTime": 1516738978653}, {"current_trial": 191, "trialdata": {"rt": -1, "trial_type": "single-stim", "word": "bison", "stimulus": "<p id=\"stim\">BISON</p>", "conditions": [24, 1600, "v", 24000], "internal_node_id": "0.0-146.0", "trial": 4, "time_elapsed": 982343, "serialpos": 22, "key_press": -1, "wordID": 130, "type": "PRES_VIS", "trial_index": 191}, "uniqueid": "MTK2139:39L1G8WVWRY04L5RO4LNCY1MEG331O", "dateTime": 1516738981366}, {"current_trial": 192, "trialdata": {"rt": -1, "trial_type": "single-stim", "word": "hound", "stimulus": "<p id=\"stim\">HOUND</p>", "conditions": [24, 1600, "v", 24000], "internal_node_id": "0.0-147.0", "trial": 4, "time_elapsed": 984785, "serialpos": 23, "key_press": -1, "wordID": 723, "type": "PRES_VIS", "trial_index": 192}, "uniqueid": "MTK2139:39L1G8WVWRY04L5RO4LNCY1MEG331O", "dateTime": 1516738983807}, {"current_trial": 193, "trialdata": {"rt": -1, "trial_type": "single-stim", "stimulus": "", "internal_node_id": "0.0-148.0-0.0", "time_elapsed": 987088, "key_press": -1, "type": "PRE_RECALL_DELAY", "trial_index": 193}, "uniqueid": "MTK2139:39L1G8WVWRY04L5RO4LNCY1MEG331O", "dateTime": 1516738986110}, {"current_trial": 194, "trialdata": {"rt": -1000, "trial_type": "single-audio", "stimulus": "/static/audio/400Hz.wav", "internal_node_id": "0.0-149.0", "time_elapsed": 987589, "key_press": -1, "type": "PRE_RECALL_ALERT", "trial_index": 194}, "uniqueid": "MTK2139:39L1G8WVWRY04L5RO4LNCY1MEG331O", "dateTime": 1516738986612}, {"current_trial": 195, "trialdata": {"rt": [3626, 5650, 8606, 10937, 13014, 17973, 20561, 26653, 32913, 40161, 58712], "recwords": ["bison", "hound", "sibling", "parent", "taxi", "flower", "orchid", "igloo", "crab", "banjo", "body"], "key_times": [1430, 2148, 2791, 3105, 3358, 3626, 4604, 4823, 4975, 5211, 5426, 5650, 6288, 6533, 6966, 7341, 7556, 7820, 8181, 8606, 9084, 9328, 9663, 9925, 10153, 10437, 10937, 11639, 12023, 12382, 12614, 13014, 16230, 16405, 16616, 17223, 17421, 17642, 17973, 18975, 19170, 19531, 19672, 19887, 20175, 20561, 25064, 25427, 25719, 25987, 26195, 26653, 31438, 32051, 32363, 32715, 32913, 38904, 39131, 39382, 39614, 39853, 40161, 56666, 57953, 58135, 58456, 58712], "trial_type": "free-recall", "conditions": [24, 1600, "v", 24000], "internal_node_id": "0.0-150.0-0.0", "key_presses": [66, 73, 83, 79, 78, 32, 72, 79, 85, 78, 68, 32, 83, 73, 66, 76, 73, 78, 71, 32, 80, 65, 82, 69, 78, 84, 32, 84, 65, 88, 73, 32, 70, 76, 79, 87, 69, 82, 32, 79, 82, 67, 72, 73, 68, 32, 73, 71, 76, 79, 79, 32, 67, 82, 65, 66, 32, 66, 65, 78, 74, 79, 32, 66, 79, 68, 89, 32], "trial": 4, "time_elapsed": 1047594, "type": "FREE_RECALL", "trial_index": 195}, "uniqueid": "MTK2139:39L1G8WVWRY04L5RO4LNCY1MEG331O", "dateTime": 1516739046622}, {"current_trial": 196, "trialdata": {"rt": 1728, "trial_type": "text", "internal_node_id": "0.0-151.0", "time_elapsed": 1051330, "key_press": 32, "type": "INSTRUCTIONS", "trial_index": 196}, "uniqueid": "MTK2139:39L1G8WVWRY04L5RO4LNCY1MEG331O", "dateTime": 1516739050352}, {"current_trial": 197, "trialdata": {"rt": [2124, 3548, 5803, 7891, 9838, 13728, 15324, 17951, 20419, 22523], "trial_type": "math-distractor", "key_times": [1355, 1723, 2124, 3347, 3548, 5116, 5638, 5803, 7726, 7891, 9403, 9644, 9838, 13263, 13589, 13728, 15004, 15198, 15324, 17023, 17809, 17951, 19917, 20307, 20419, 21887, 22401, 22523], "responses": ["19", "9", "16", "6", "10", "25", "12", "17", "14", "16"], "num2": [9, 1, 6, 3, 4, 9, 7, 7, 1, 1, 8], "num3": [9, 1, 8, 1, 4, 8, 4, 6, 8, 6, 4], "conditions": [24, 800, "v", 24000], "internal_node_id": "0.0-152.0", "key_presses": [49, 57, 13, 57, 13, 49, 54, 13, 54, 13, 49, 48, 13, 50, 53, 13, 49, 50, 13, 49, 55, 13, 49, 52, 13, 49, 54, 13], "trial": 5, "time_elapsed": 1077332, "type": "DISTRACTOR", "trial_index": 197, "num1": [1, 7, 2, 2, 2, 8, 1, 4, 5, 9, 9]}, "uniqueid": "MTK2139:39L1G8WVWRY04L5RO4LNCY1MEG331O", "dateTime": 1516739076354}, {"current_trial": 198, "trialdata": {"rt": -1, "trial_type": "single-stim", "stimulus": "<p id=\"stim\">10</p>", "internal_node_id": "0.0-153.0-0.0", "time_elapsed": 1080334, "key_press": -1, "trial_index": 198}, "uniqueid": "MTK2139:39L1G8WVWRY04L5RO4LNCY1MEG331O", "dateTime": 1516739079356}, {"current_trial": 199, "trialdata": {"rt": -1, "trial_type": "single-stim", "stimulus": "<p id=\"stim\">9</p>", "internal_node_id": "0.0-153.0-1.0", "time_elapsed": 1081334, "key_press": -1, "trial_index": 199}, "uniqueid": "MTK2139:39L1G8WVWRY04L5RO4LNCY1MEG331O", "dateTime": 1516739080357}, {"current_trial": 200, "trialdata": {"rt": -1, "trial_type": "single-stim", "stimulus": "<p id=\"stim\">8</p>", "internal_node_id": "0.0-153.0-2.0", "time_elapsed": 1082336, "key_press": -1, "trial_index": 200}, "uniqueid": "MTK2139:39L1G8WVWRY04L5RO4LNCY1MEG331O", "dateTime": 1516739081358}, {"current_trial": 201, "trialdata": {"rt": -1, "trial_type": "single-stim", "stimulus": "<p id=\"stim\">7</p>", "internal_node_id": "0.0-153.0-3.0", "time_elapsed": 1083337, "key_press": -1, "trial_index": 201}, "uniqueid": "MTK2139:39L1G8WVWRY04L5RO4LNCY1MEG331O", "dateTime": 1516739082359}, {"current_trial": 202, "trialdata": {"rt": -1, "trial_type": "single-stim", "stimulus": "<p id=\"stim\">6</p>", "internal_node_id": "0.0-153.0-4.0", "time_elapsed": 1084339, "key_press": -1, "trial_index": 202}, "uniqueid": "MTK2139:39L1G8WVWRY04L5RO4LNCY1MEG331O", "dateTime": 1516739083361}, {"current_trial": 203, "trialdata": {"rt": -1, "trial_type": "single-stim", "stimulus": "<p id=\"stim\">5</p>", "internal_node_id": "0.0-153.0-5.0", "time_elapsed": 1085340, "key_press": -1, "trial_index": 203}, "uniqueid": "MTK2139:39L1G8WVWRY04L5RO4LNCY1MEG331O", "dateTime": 1516739084362}, {"current_trial": 204, "trialdata": {"rt": -1, "trial_type": "single-stim", "stimulus": "<p id=\"stim\">4</p>", "internal_node_id": "0.0-153.0-6.0", "time_elapsed": 1086340, "key_press": -1, "trial_index": 204}, "uniqueid": "MTK2139:39L1G8WVWRY04L5RO4LNCY1MEG331O", "dateTime": 1516739085362}, {"current_trial": 205, "trialdata": {"rt": -1, "trial_type": "single-stim", "stimulus": "<p id=\"stim\">3</p>", "internal_node_id": "0.0-153.0-7.0", "time_elapsed": 1087342, "key_press": -1, "trial_index": 205}, "uniqueid": "MTK2139:39L1G8WVWRY04L5RO4LNCY1MEG331O", "dateTime": 1516739086364}, {"current_trial": 206, "trialdata": {"rt": -1, "trial_type": "single-stim", "stimulus": "<p id=\"stim\">2</p>", "internal_node_id": "0.0-153.0-8.0", "time_elapsed": 1088343, "key_press": -1, "trial_index": 206}, "uniqueid": "MTK2139:39L1G8WVWRY04L5RO4LNCY1MEG331O", "dateTime": 1516739087365}, {"current_trial": 207, "trialdata": {"rt": -1, "trial_type": "single-stim", "stimulus": "<p id=\"stim\">1</p>", "internal_node_id": "0.0-153.0-9.0", "time_elapsed": 1089345, "key_press": -1, "trial_index": 207}, "uniqueid": "MTK2139:39L1G8WVWRY04L5RO4LNCY1MEG331O", "dateTime": 1516739088367}, {"current_trial": 208, "trialdata": {"rt": -1, "trial_type": "single-stim", "stimulus": "<p id=\"stim\">+</p>", "internal_node_id": "0.0-154.0-0.0", "time_elapsed": 1090847, "key_press": -1, "type": "FIXATION", "trial_index": 208}, "uniqueid": "MTK2139:39L1G8WVWRY04L5RO4LNCY1MEG331O", "dateTime": 1516739089869}, {"current_trial": 209, "trialdata": {"rt": -1, "trial_type": "single-stim", "word": "razor", "stimulus": "<p id=\"stim\">RAZOR</p>", "conditions": [24, 800, "v", 24000], "internal_node_id": "0.0-155.0", "trial": 5, "time_elapsed": 1091650, "serialpos": 0, "key_press": -1, "wordID": 1170, "type": "PRES_VIS", "trial_index": 209}, "uniqueid": "MTK2139:39L1G8WVWRY04L5RO4LNCY1MEG331O", "dateTime": 1516739090672}, {"current_trial": 210, "trialdata": {"rt": -1, "trial_type": "single-stim", "word": "brick", "stimulus": "<p id=\"stim\">BRICK</p>", "conditions": [24, 800, "v", 24000], "internal_node_id": "0.0-156.0", "trial": 5, "time_elapsed": 1093482, "serialpos": 1, "key_press": -1, "wordID": 171, "type": "PRES_VIS", "trial_index": 210}, "uniqueid": "MTK2139:39L1G8WVWRY04L5RO4LNCY1MEG331O", "dateTime": 1516739092505}, {"current_trial": 211, "trialdata": {"rt": -1, "trial_type": "single-stim", "word": "tile", "stimulus": "<p id=\"stim\">TILE</p>", "conditions": [24, 800, "v", 24000], "internal_node_id": "0.0-157.0", "trial": 5, "time_elapsed": 1095380, "serialpos": 2, "key_press": -1, "wordID": 1467, "type": "PRES_VIS", "trial_index": 211}, "uniqueid": "MTK2139:39L1G8WVWRY04L5RO4LNCY1MEG331O", "dateTime": 1516739094403}, {"current_trial": 212, "trialdata": {"rt": -1, "trial_type": "single-stim", "word": "bubble", "stimulus": "<p id=\"stim\">BUBBLE</p>", "conditions": [24, 800, "v", 24000], "internal_node_id": "0.0-158.0", "trial": 5, "time_elapsed": 1097094, "serialpos": 3, "key_press": -1, "wordID": 182, "type": "PRES_VIS", "trial_index": 212}, "uniqueid": "MTK2139:39L1G8WVWRY04L5RO4LNCY1MEG331O", "dateTime": 1516739096117}, {"current_trial": 213, "trialdata": {"rt": -1, "trial_type": "single-stim", "word": "cupboard", "stimulus": "<p id=\"stim\">CUPBOARD</p>", "conditions": [24, 800, "v", 24000], "internal_node_id": "0.0-159.0", "trial": 5, "time_elapsed": 1098877, "serialpos": 4, "key_press": -1, "wordID": 424, "type": "PRES_VIS", "trial_index": 213}, "uniqueid": "MTK2139:39L1G8WVWRY04L5RO4LNCY1MEG331O", "dateTime": 1516739097899}, {"current_trial": 214, "trialdata": {"rt": -1, "trial_type": "single-stim", "word": "dancer", "stimulus": "<p id=\"stim\">DANCER</p>", "conditions": [24, 800, "v", 24000], "internal_node_id": "0.0-160.0", "trial": 5, "time_elapsed": 1100681, "serialpos": 5, "key_press": -1, "wordID": 436, "type": "PRES_VIS", "trial_index": 214}, "uniqueid": "MTK2139:39L1G8WVWRY04L5RO4LNCY1MEG331O", "dateTime": 1516739099703}, {"current_trial": 215, "trialdata": {"rt": -1, "trial_type": "single-stim", "word": "plaid", "stimulus": "<p id=\"stim\">PLAID</p>", "conditions": [24, 800, "v", 24000], "internal_node_id": "0.0-161.0", "trial": 5, "time_elapsed": 1102459, "serialpos": 6, "key_press": -1, "wordID": 1079, "type": "PRES_VIS", "trial_index": 215}, "uniqueid": "MTK2139:39L1G8WVWRY04L5RO4LNCY1MEG331O", "dateTime": 1516739101481}, {"current_trial": 216, "trialdata": {"rt": -1, "trial_type": "single-stim", "word": "mailman", "stimulus": "<p id=\"stim\">MAILMAN</p>", "conditions": [24, 800, "v", 24000], "internal_node_id": "0.0-162.0", "trial": 5, "time_elapsed": 1104270, "serialpos": 7, "key_press": -1, "wordID": 857, "type": "PRES_VIS", "trial_index": 216}, "uniqueid": "MTK2139:39L1G8WVWRY04L5RO4LNCY1MEG331O", "dateTime": 1516739103292}, {"current_trial": 217, "trialdata": {"rt": -1, "trial_type": "single-stim", "word": "cookbook", "stimulus": "<p id=\"stim\">COOKBOOK</p>", "conditions": [24, 800, "v", 24000], "internal_node_id": "0.0-163.0", "trial": 5, "time_elapsed": 1105986, "serialpos": 8, "key_press": -1, "wordID": 372, "type": "PRES_VIS", "trial_index": 217}, "uniqueid": "MTK2139:39L1G8WVWRY04L5RO4LNCY1MEG331O", "dateTime": 1516739105009}, {"current_trial": 218, "trialdata": {"rt": -1, "trial_type": "single-stim", "word": "beef", "stimulus": "<p id=\"stim\">BEEF</p>", "conditions": [24, 800, "v", 24000], "internal_node_id": "0.0-164.0", "trial": 5, "time_elapsed": 1107873, "serialpos": 9, "key_press": -1, "wordID": 112, "type": "PRES_VIS", "trial_index": 218}, "uniqueid": "MTK2139:39L1G8WVWRY04L5RO4LNCY1MEG331O", "dateTime": 1516739106895}, {"current_trial": 219, "trialdata": {"rt": -1, "trial_type": "single-stim", "word": "kitchen", "stimulus": "<p id=\"stim\">KITCHEN</p>", "conditions": [24, 800, "v", 24000], "internal_node_id": "0.0-165.0", "trial": 5, "time_elapsed": 1109841, "serialpos": 10, "key_press": -1, "wordID": 777, "type": "PRES_VIS", "trial_index": 219}, "uniqueid": "MTK2139:39L1G8WVWRY04L5RO4LNCY1MEG331O", "dateTime": 1516739108863}, {"current_trial": 220, "trialdata": {"rt": -1, "trial_type": "single-stim", "word": "dandruff", "stimulus": "<p id=\"stim\">DANDRUFF</p>", "conditions": [24, 800, "v", 24000], "internal_node_id": "0.0-166.0", "trial": 5, "time_elapsed": 1111746, "serialpos": 11, "key_press": -1, "wordID": 438, "type": "PRES_VIS", "trial_index": 220}, "uniqueid": "MTK2139:39L1G8WVWRY04L5RO4LNCY1MEG331O", "dateTime": 1516739110768}, {"current_trial": 221, "trialdata": {"rt": -1, "trial_type": "single-stim", "word": "donor", "stimulus": "<p id=\"stim\">DONOR</p>", "conditions": [24, 800, "v", 24000], "internal_node_id": "0.0-167.0", "trial": 5, "time_elapsed": 1113591, "serialpos": 12, "key_press": -1, "wordID": 484, "type": "PRES_VIS", "trial_index": 221}, "uniqueid": "MTK2139:39L1G8WVWRY04L5RO4LNCY1MEG331O", "dateTime": 1516739112613}, {"current_trial": 222, "trialdata": {"rt": -1, "trial_type": "single-stim", "word": "honey", "stimulus": "<p id=\"stim\">HONEY</p>", "conditions": [24, 800, "v", 24000], "internal_node_id": "0.0-168.0", "trial": 5, "time_elapsed": 1115466, "serialpos": 13, "key_press": -1, "wordID": 712, "type": "PRES_VIS", "trial_index": 222}, "uniqueid": "MTK2139:39L1G8WVWRY04L5RO4LNCY1MEG331O", "dateTime": 1516739114488}, {"current_trial": 223, "trialdata": {"rt": -1, "trial_type": "single-stim", "word": "hood", "stimulus": "<p id=\"stim\">HOOD</p>", "conditions": [24, 800, "v", 24000], "internal_node_id": "0.0-169.0", "trial": 5, "time_elapsed": 1117421, "serialpos": 14, "key_press": -1, "wordID": 713, "type": "PRES_VIS", "trial_index": 223}, "uniqueid": "MTK2139:39L1G8WVWRY04L5RO4LNCY1MEG331O", "dateTime": 1516739116443}, {"current_trial": 224, "trialdata": {"rt": -1, "trial_type": "single-stim", "word": "camel", "stimulus": "<p id=\"stim\">CAMEL</p>", "conditions": [24, 800, "v", 24000], "internal_node_id": "0.0-170.0", "trial": 5, "time_elapsed": 1119247, "serialpos": 15, "key_press": -1, "wordID": 222, "type": "PRES_VIS", "trial_index": 224}, "uniqueid": "MTK2139:39L1G8WVWRY04L5RO4LNCY1MEG331O", "dateTime": 1516739118270}, {"current_trial": 225, "trialdata": {"rt": -1, "trial_type": "single-stim", "word": "donkey", "stimulus": "<p id=\"stim\">DONKEY</p>", "conditions": [24, 800, "v", 24000], "internal_node_id": "0.0-171.0", "trial": 5, "time_elapsed": 1120918, "serialpos": 16, "key_press": -1, "wordID": 483, "type": "PRES_VIS", "trial_index": 225}, "uniqueid": "MTK2139:39L1G8WVWRY04L5RO4LNCY1MEG331O", "dateTime": 1516739119941}, {"current_trial": 226, "trialdata": {"rt": -1, "trial_type": "single-stim", "word": "drink", "stimulus": "<p id=\"stim\">DRINK</p>", "conditions": [24, 800, "v", 24000], "internal_node_id": "0.0-172.0", "trial": 5, "time_elapsed": 1122651, "serialpos": 17, "key_press": -1, "wordID": 497, "type": "PRES_VIS", "trial_index": 226}, "uniqueid": "MTK2139:39L1G8WVWRY04L5RO4LNCY1MEG331O", "dateTime": 1516739121673}, {"current_trial": 227, "trialdata": {"rt": -1, "trial_type": "single-stim", "word": "blackboard", "stimulus": "<p id=\"stim\">BLACKBOARD</p>", "conditions": [24, 800, "v", 24000], "internal_node_id": "0.0-173.0", "trial": 5, "time_elapsed": 1124490, "serialpos": 18, "key_press": -1, "wordID": 132, "type": "PRES_VIS", "trial_index": 227}, "uniqueid": "MTK2139:39L1G8WVWRY04L5RO4LNCY1MEG331O", "dateTime": 1516739123512}, {"current_trial": 228, "trialdata": {"rt": -1, "trial_type": "single-stim", "word": "smog", "stimulus": "<p id=\"stim\">SMOG</p>", "conditions": [24, 800, "v", 24000], "internal_node_id": "0.0-174.0", "trial": 5, "time_elapsed": 1126416, "serialpos": 19, "key_press": -1, "wordID": 1329, "type": "PRES_VIS", "trial_index": 228}, "uniqueid": "MTK2139:39L1G8WVWRY04L5RO4LNCY1MEG331O", "dateTime": 1516739125438}, {"current_trial": 229, "trialdata": {"rt": -1, "trial_type": "single-stim", "word": "peanut", "stimulus": "<p id=\"stim\">PEANUT</p>", "conditions": [24, 800, "v", 24000], "internal_node_id": "0.0-175.0", "trial": 5, "time_elapsed": 1128321, "serialpos": 20, "key_press": -1, "wordID": 1031, "type": "PRES_VIS", "trial_index": 229}, "uniqueid": "MTK2139:39L1G8WVWRY04L5RO4LNCY1MEG331O", "dateTime": 1516739127344}, {"current_trial": 230, "trialdata": {"rt": -1, "trial_type": "single-stim", "word": "cloud", "stimulus": "<p id=\"stim\">CLOUD</p>", "conditions": [24, 800, "v", 24000], "internal_node_id": "0.0-176.0", "trial": 5, "time_elapsed": 1130217, "serialpos": 21, "key_press": -1, "wordID": 327, "type": "PRES_VIS", "trial_index": 230}, "uniqueid": "MTK2139:39L1G8WVWRY04L5RO4LNCY1MEG331O", "dateTime": 1516739129239}, {"current_trial": 231, "trialdata": {"rt": -1, "trial_type": "single-stim", "word": "grape", "stimulus": "<p id=\"stim\">GRAPE</p>", "conditions": [24, 800, "v", 24000], "internal_node_id": "0.0-177.0", "trial": 5, "time_elapsed": 1132061, "serialpos": 22, "key_press": -1, "wordID": 653, "type": "PRES_VIS", "trial_index": 231}, "uniqueid": "MTK2139:39L1G8WVWRY04L5RO4LNCY1MEG331O", "dateTime": 1516739131084}, {"current_trial": 232, "trialdata": {"rt": -1, "trial_type": "single-stim", "word": "balloon", "stimulus": "<p id=\"stim\">BALLOON</p>", "conditions": [24, 800, "v", 24000], "internal_node_id": "0.0-178.0", "trial": 5, "time_elapsed": 1133772, "serialpos": 23, "key_press": -1, "wordID": 74, "type": "PRES_VIS", "trial_index": 232}, "uniqueid": "MTK2139:39L1G8WVWRY04L5RO4LNCY1MEG331O", "dateTime": 1516739132795}, {"current_trial": 233, "trialdata": {"rt": -1, "trial_type": "single-stim", "stimulus": "", "internal_node_id": "0.0-179.0-0.0", "time_elapsed": 1136126, "key_press": -1, "type": "PRE_RECALL_DELAY", "trial_index": 233}, "uniqueid": "MTK2139:39L1G8WVWRY04L5RO4LNCY1MEG331O", "dateTime": 1516739135148}, {"current_trial": 234, "trialdata": {"rt": -1000, "trial_type": "single-audio", "stimulus": "/static/audio/400Hz.wav", "internal_node_id": "0.0-180.0", "time_elapsed": 1136631, "key_press": -1, "type": "PRE_RECALL_ALERT", "trial_index": 234}, "uniqueid": "MTK2139:39L1G8WVWRY04L5RO4LNCY1MEG331O", "dateTime": 1516739135653}, {"current_trial": 235, "trialdata": {"rt": [4098, 6342, 9085, 15317, 20123, 22308, 27152, 33512, 37432, 44572, 48643], "recwords": ["balloon", "grape", "kitchen", "bubble", "cookbook", "honey", "donkey", "grape", "cloud", "mailman", "plaid"], "key_times": [1749, 2030, 2357, 2485, 2705, 2840, 3473, 4098, 5048, 5353, 5536, 5964, 6122, 6342, 6960, 7156, 7693, 8139, 8361, 8548, 8759, 9085, 12623, 13618, 14234, 14369, 14604, 14886, 15317, 17719, 17984, 18119, 18320, 18722, 19143, 19382, 19576, 19720, 19892, 20123, 21307, 21499, 21718, 21863, 22088, 22308, 25857, 26064, 26419, 26661, 26808, 26939, 27152, 32489, 32735, 33033, 33174, 33416, 33512, 36367, 36492, 36660, 37030, 37242, 37432, 43294, 43502, 43682, 43874, 44056, 44195, 44337, 44572, 47033, 47288, 47509, 47639, 48217, 48643, 57343, 57538, 58214, 58514, 58729, 59038, 59644], "trial_type": "free-recall", "conditions": [24, 800, "v", 24000], "internal_node_id": "0.0-181.0-0.0", "key_presses": [66, 65, 76, 76, 79, 79, 78, 13, 71, 82, 65, 80, 69, 13, 75, 73, 84, 67, 72, 69, 78, 13, 66, 85, 66, 66, 76, 69, 13, 67, 79, 79, 75, 78, 8, 66, 79, 79, 75, 13, 72, 79, 78, 69, 89, 13, 68, 79, 78, 75, 69, 89, 13, 71, 82, 65, 80, 69, 13, 67, 76, 79, 85, 68, 13, 77, 65, 73, 76, 77, 65, 78, 13, 80, 76, 65, 73, 68, 13, 75, 73, 84, 67, 72, 82, 8], "trial": 5, "time_elapsed": 1196634, "type": "FREE_RECALL", "trial_index": 235}, "uniqueid": "MTK2139:39L1G8WVWRY04L5RO4LNCY1MEG331O", "dateTime": 1516739195662}, {"current_trial": 236, "trialdata": {"rt": 518, "trial_type": "text", "internal_node_id": "0.0-182.0", "time_elapsed": 1199160, "key_press": 32, "type": "INSTRUCTIONS", "trial_index": 236}, "uniqueid": "MTK2139:39L1G8WVWRY04L5RO4LNCY1MEG331O", "dateTime": 1516739198182}, {"current_trial": 237, "trialdata": {"rt": [2103, 3852, 5673, 7262, 9587], "trial_type": "math-distractor", "key_times": [1752, 1941, 2103, 3687, 3852, 5195, 5506, 5673, 7154, 7262, 9248, 9437, 9587, 11445, 11833], "responses": ["10", "9", "18", "7", "21"], "num2": [4, 5, 1, 3, 9, 5], "num3": [5, 2, 9, 1, 7, 6], "conditions": [12, 800, "v", 12000], "internal_node_id": "0.0-183.0", "key_presses": [49, 48, 13, 57, 13, 49, 56, 13, 55, 13, 50, 49, 13, 49, 56], "trial": 6, "time_elapsed": 1213165, "type": "DISTRACTOR", "trial_index": 237, "num1": [1, 2, 8, 3, 5, 7]}, "uniqueid": "MTK2139:39L1G8WVWRY04L5RO4LNCY1MEG331O", "dateTime": 1516739212188}, {"current_trial": 238, "trialdata": {"rt": -1, "trial_type": "single-stim", "stimulus": "<p id=\"stim\">10</p>", "internal_node_id": "0.0-184.0-0.0", "time_elapsed": 1216166, "key_press": -1, "trial_index": 238}, "uniqueid": "MTK2139:39L1G8WVWRY04L5RO4LNCY1MEG331O", "dateTime": 1516739215190}, {"current_trial": 239, "trialdata": {"rt": -1, "trial_type": "single-stim", "stimulus": "<p id=\"stim\">9</p>", "internal_node_id": "0.0-184.0-1.0", "time_elapsed": 1217169, "key_press": -1, "trial_index": 239}, "uniqueid": "MTK2139:39L1G8WVWRY04L5RO4LNCY1MEG331O", "dateTime": 1516739216191}, {"current_trial": 240, "trialdata": {"rt": -1, "trial_type": "single-stim", "stimulus": "<p id=\"stim\">8</p>", "internal_node_id": "0.0-184.0-2.0", "time_elapsed": 1218170, "key_press": -1, "trial_index": 240}, "uniqueid": "MTK2139:39L1G8WVWRY04L5RO4LNCY1MEG331O", "dateTime": 1516739217192}, {"current_trial": 241, "trialdata": {"rt": -1, "trial_type": "single-stim", "stimulus": "<p id=\"stim\">7</p>", "internal_node_id": "0.0-184.0-3.0", "time_elapsed": 1219172, "key_press": -1, "trial_index": 241}, "uniqueid": "MTK2139:39L1G8WVWRY04L5RO4LNCY1MEG331O", "dateTime": 1516739218194}, {"current_trial": 242, "trialdata": {"rt": -1, "trial_type": "single-stim", "stimulus": "<p id=\"stim\">6</p>", "internal_node_id": "0.0-184.0-4.0", "time_elapsed": 1220175, "key_press": -1, "trial_index": 242}, "uniqueid": "MTK2139:39L1G8WVWRY04L5RO4LNCY1MEG331O", "dateTime": 1516739219197}, {"current_trial": 243, "trialdata": {"rt": -1, "trial_type": "single-stim", "stimulus": "<p id=\"stim\">5</p>", "internal_node_id": "0.0-184.0-5.0", "time_elapsed": 1221177, "key_press": -1, "trial_index": 243}, "uniqueid": "MTK2139:39L1G8WVWRY04L5RO4LNCY1MEG331O", "dateTime": 1516739220199}, {"current_trial": 244, "trialdata": {"rt": -1, "trial_type": "single-stim", "stimulus": "<p id=\"stim\">4</p>", "internal_node_id": "0.0-184.0-6.0", "time_elapsed": 1222179, "key_press": -1, "trial_index": 244}, "uniqueid": "MTK2139:39L1G8WVWRY04L5RO4LNCY1MEG331O", "dateTime": 1516739221201}, {"current_trial": 245, "trialdata": {"rt": -1, "trial_type": "single-stim", "stimulus": "<p id=\"stim\">3</p>", "internal_node_id": "0.0-184.0-7.0", "time_elapsed": 1223181, "key_press": -1, "trial_index": 245}, "uniqueid": "MTK2139:39L1G8WVWRY04L5RO4LNCY1MEG331O", "dateTime": 1516739222203}, {"current_trial": 246, "trialdata": {"rt": -1, "trial_type": "single-stim", "stimulus": "<p id=\"stim\">2</p>", "internal_node_id": "0.0-184.0-8.0", "time_elapsed": 1224183, "key_press": -1, "trial_index": 246}, "uniqueid": "MTK2139:39L1G8WVWRY04L5RO4LNCY1MEG331O", "dateTime": 1516739223205}, {"current_trial": 247, "trialdata": {"rt": -1, "trial_type": "single-stim", "stimulus": "<p id=\"stim\">1</p>", "internal_node_id": "0.0-184.0-9.0", "time_elapsed": 1225184, "key_press": -1, "trial_index": 247}, "uniqueid": "MTK2139:39L1G8WVWRY04L5RO4LNCY1MEG331O", "dateTime": 1516739224206}, {"current_trial": 248, "trialdata": {"rt": -1, "trial_type": "single-stim", "stimulus": "<p id=\"stim\">+</p>", "internal_node_id": "0.0-185.0-0.0", "time_elapsed": 1226687, "key_press": -1, "type": "FIXATION", "trial_index": 248}, "uniqueid": "MTK2139:39L1G8WVWRY04L5RO4LNCY1MEG331O", "dateTime": 1516739225709}, {"current_trial": 249, "trialdata": {"rt": -1, "trial_type": "si