{"assignmentId": "3NJM2BJS4XDRYDKC2Z7E6XNEOSSPCL", "workerId": "MTK2392", "questiondata": {"origin": "United States", "strat-rehearsal": "40", "marital": "Married/Domestic Partnership", "education": "Master's degree", "ethnicity": "Not Hispanic", "color_depth": 24, "distracted": "No", "wrote-notes": "Yes", "strat-other": "Nope. My biggest strategy was grouping, as listed above.", "screen_width": 1280, "avail_screen_width": 1280, "avail_screen_height": 725, "strat-image": "15", "language": "English", "gender": "Male", "age": "30", "gender_other": "", "race": ["White"], "strat-categorize": "80", "pixel_depth": 24, "strat-spatial": "5", "strat-story": "30", "race_other": "", "screen_height": 800}, "bonus": 0, "hitId": "3IH9TRB0FB6D74PGJ5N8RK7RFIR1IO", "counterbalance": 1530, "useragent": "Mozilla/5.0 (Macintosh; Intel Mac OS X 10_13_1) AppleWebKit/537.36 (KHTML, like Gecko) Chrome/63.0.3239.132 Safari/537.36", "eventdata": [{"eventtype": "initialized", "interval": 0, "value": null, "timestamp": 1517074240567}, {"eventtype": "window_resize", "interval": 0, "value": [1280, 675], "timestamp": 1517074240567}, {"eventtype": "focus", "interval": 165973, "value": "off", "timestamp": 1517074406540}, {"eventtype": "focus", "interval": 29711, "value": "on", "timestamp": 1517074436251}, {"eventtype": "focus", "interval": 169051, "value": "off", "timestamp": 1517074605302}, {"eventtype": "focus", "interval": 2620, "value": "on", "timestamp": 1517074607922}, {"eventtype": "focus", "interval": 2372, "value": "off", "timestamp": 1517074610294}, {"eventtype": "focus", "interval": 1858, "value": "on", "timestamp": 1517074612152}, {"eventtype": "focus", "interval": 130614, "value": "off", "timestamp": 1517074742766}, {"eventtype": "focus", "interval": 1747, "value": "on", "timestamp": 1517074744513}, {"eventtype": "focus", "interval": 164613, "value": "off", "timestamp": 1517074909126}, {"eventtype": "focus", "interval": 1745, "value": "on", "timestamp": 1517074910871}, {"eventtype": "focus", "interval": 1388070, "value": "off", "timestamp": 1517076298941}, {"eventtype": "focus", "interval": 685107, "value": "on", "timestamp": 1517076984048}, {"eventtype": "focus", "interval": 112785, "value": "off", "timestamp": 1517077096833}, {"eventtype": "focus", "interval": 1936, "value": "on", "timestamp": 1517077098769}, {"eventtype": "focus", "interval": 1047274, "value": "off", "timestamp": 1517078146043}, {"eventtype": "focus", "interval": 42637, "value": "on", "timestamp": 1517078188680}], "data": [{"current_trial": 0, "trialdata": {"rt": 60819, "trial_type": "text", "internal_node_id": "0.0-0.0", "time_elapsed": 60821, "key_press": 32, "type": "INSTRUCTIONS", "trial_index": 0}, "uniqueid": "MTK2392:3NJM2BJS4XDRYDKC2Z7E6XNEOSSPCL", "dateTime": 1517074317116}, {"current_trial": 1, "trialdata": {"rt": 15178, "trial_type": "text", "internal_node_id": "0.0-1.0", "time_elapsed": 76002, "key_press": 32, "type": "INSTRUCTIONS", "trial_index": 1}, "uniqueid": "MTK2392:3NJM2BJS4XDRYDKC2Z7E6XNEOSSPCL", "dateTime": 1517074332296}, {"current_trial": 2, "trialdata": {"rt": [19980], "trial_type": "audio-test", "responses": ["ocean"], "internal_node_id": "0.0-2.0", "time_elapsed": 95994, "type": "AUDIO_TEST", "trial_index": 2}, "uniqueid": "MTK2392:3NJM2BJS4XDRYDKC2Z7E6XNEOSSPCL", "dateTime": 1517074352288}, {"current_trial": 3, "trialdata": {"rt": [8018], "trial_type": "audio-test", "responses": ["crystal"], "internal_node_id": "0.0-3.0", "time_elapsed": 104017, "type": "AUDIO_TEST", "trial_index": 3}, "uniqueid": "MTK2392:3NJM2BJS4XDRYDKC2Z7E6XNEOSSPCL", "dateTime": 1517074360312}, {"current_trial": 4, "trialdata": {"rt": [5698], "trial_type": "audio-test", "responses": ["spice"], "internal_node_id": "0.0-4.0", "time_elapsed": 109722, "type": "AUDIO_TEST", "trial_index": 4}, "uniqueid": "MTK2392:3NJM2BJS4XDRYDKC2Z7E6XNEOSSPCL", "dateTime": 1517074366016}, {"current_trial": 5, "trialdata": {"rt": 24063, "trial_type": "survey-text", "responses": "{\"Q0\":\"12:30\",\"Q1\":\"9:00\",\"Q2\":\"4\"}", "internal_node_id": "0.0-5.0", "time_elapsed": 134541, "type": "SLEEP_SURVEY", "trial_index": 5}, "uniqueid": "MTK2392:3NJM2BJS4XDRYDKC2Z7E6XNEOSSPCL", "dateTime": 1517074390835}, {"current_trial": 6, "trialdata": {"rt": 107318, "trial_type": "text", "internal_node_id": "0.0-6.0", "time_elapsed": 242861, "key_press": 32, "type": "INSTRUCTIONS", "trial_index": 6}, "uniqueid": "MTK2392:3NJM2BJS4XDRYDKC2Z7E6XNEOSSPCL", "dateTime": 1517074499155}, {"current_trial": 7, "trialdata": {"rt": 21635, "trial_type": "text", "internal_node_id": "0.0-7.0", "time_elapsed": 265002, "key_press": 32, "type": "INSTRUCTIONS", "trial_index": 7}, "uniqueid": "MTK2392:3NJM2BJS4XDRYDKC2Z7E6XNEOSSPCL", "dateTime": 1517074521296}, {"current_trial": 8, "trialdata": {"rt": 5481, "trial_type": "text", "internal_node_id": "0.0-8.0", "time_elapsed": 270988, "key_press": 32, "type": "INSTRUCTIONS", "trial_index": 8}, "uniqueid": "MTK2392:3NJM2BJS4XDRYDKC2Z7E6XNEOSSPCL", "dateTime": 1517074527282}, {"current_trial": 9, "trialdata": {"rt": [7869, 11125, 13765, 16557], "trial_type": "math-distractor", "key_times": [2611, 2819, 6686, 7213, 7869, 9965, 10069, 11125, 13117, 13317, 13765, 15229, 15317, 16557], "responses": ["22", "19", "17", "20"], "num2": [5, 8, 4, 8, 9], "num3": [8, 5, 8, 9, 7], "conditions": [18, 1200, "a", 18000], "internal_node_id": "0.0-9.0", "key_presses": [50, 50, 32, 8, 13, 49, 57, 13, 49, 55, 13, 50, 48, 13], "trial": 0, "time_elapsed": 289996, "type": "DISTRACTOR", "trial_index": 9, "num1": [9, 6, 5, 3, 5]}, "uniqueid": "MTK2392:3NJM2BJS4XDRYDKC2Z7E6XNEOSSPCL", "dateTime": 1517074546290}, {"current_trial": 10, "trialdata": {"rt": -1, "trial_type": "single-stim", "stimulus": "<p id=\"stim\">10</p>", "internal_node_id": "0.0-10.0-0.0", "time_elapsed": 293002, "key_press": -1, "trial_index": 10}, "uniqueid": "MTK2392:3NJM2BJS4XDRYDKC2Z7E6XNEOSSPCL", "dateTime": 1517074549296}, {"current_trial": 11, "trialdata": {"rt": -1, "trial_type": "single-stim", "stimulus": "<p id=\"stim\">9</p>", "internal_node_id": "0.0-10.0-1.0", "time_elapsed": 294006, "key_press": -1, "trial_index": 11}, "uniqueid": "MTK2392:3NJM2BJS4XDRYDKC2Z7E6XNEOSSPCL", "dateTime": 1517074550300}, {"current_trial": 12, "trialdata": {"rt": -1, "trial_type": "single-stim", "stimulus": "<p id=\"stim\">8</p>", "internal_node_id": "0.0-10.0-2.0", "time_elapsed": 295009, "key_press": -1, "trial_index": 12}, "uniqueid": "MTK2392:3NJM2BJS4XDRYDKC2Z7E6XNEOSSPCL", "dateTime": 1517074551304}, {"current_trial": 13, "trialdata": {"rt": -1, "trial_type": "single-stim", "stimulus": "<p id=\"stim\">7</p>", "internal_node_id": "0.0-10.0-3.0", "time_elapsed": 296014, "key_press": -1, "trial_index": 13}, "uniqueid": "MTK2392:3NJM2BJS4XDRYDKC2Z7E6XNEOSSPCL", "dateTime": 1517074552308}, {"current_trial": 14, "trialdata": {"rt": -1, "trial_type": "single-stim", "stimulus": "<p id=\"stim\">6</p>", "internal_node_id": "0.0-10.0-4.0", "time_elapsed": 297018, "key_press": -1, "trial_index": 14}, "uniqueid": "MTK2392:3NJM2BJS4XDRYDKC2Z7E6XNEOSSPCL", "dateTime": 1517074553312}, {"current_trial": 15, "trialdata": {"rt": -1, "trial_type": "single-stim", "stimulus": "<p id=\"stim\">5</p>", "internal_node_id": "0.0-10.0-5.0", "time_elapsed": 298023, "key_press": -1, "trial_index": 15}, "uniqueid": "MTK2392:3NJM2BJS4XDRYDKC2Z7E6XNEOSSPCL", "dateTime": 1517074554317}, {"current_trial": 16, "trialdata": {"rt": -1, "trial_type": "single-stim", "stimulus": "<p id=\"stim\">4</p>", "internal_node_id": "0.0-10.0-6.0", "time_elapsed": 299026, "key_press": -1, "trial_index": 16}, "uniqueid": "MTK2392:3NJM2BJS4XDRYDKC2Z7E6XNEOSSPCL", "dateTime": 1517074555320}, {"current_trial": 17, "trialdata": {"rt": -1, "trial_type": "single-stim", "stimulus": "<p id=\"stim\">3</p>", "internal_node_id": "0.0-10.0-7.0", "time_elapsed": 300030, "key_press": -1, "trial_index": 17}, "uniqueid": "MTK2392:3NJM2BJS4XDRYDKC2Z7E6XNEOSSPCL", "dateTime": 1517074556324}, {"current_trial": 18, "trialdata": {"rt": -1, "trial_type": "single-stim", "stimulus": "<p id=\"stim\">2</p>", "internal_node_id": "0.0-10.0-8.0", "time_elapsed": 301034, "key_press": -1, "trial_index": 18}, "uniqueid": "MTK2392:3NJM2BJS4XDRYDKC2Z7E6XNEOSSPCL", "dateTime": 1517074557328}, {"current_trial": 19, "trialdata": {"rt": -1, "trial_type": "single-stim", "stimulus": "<p id=\"stim\">1</p>", "internal_node_id": "0.0-10.0-9.0", "time_elapsed": 302038, "key_press": -1, "trial_index": 19}, "uniqueid": "MTK2392:3NJM2BJS4XDRYDKC2Z7E6XNEOSSPCL", "dateTime": 1517074558332}, {"current_trial": 20, "trialdata": {"rt": -1, "trial_type": "single-stim", "stimulus": "<p id=\"stim\">+</p>", "internal_node_id": "0.0-11.0-0.0", "time_elapsed": 303541, "key_press": -1, "type": "FIXATION", "trial_index": 20}, "uniqueid": "MTK2392:3NJM2BJS4XDRYDKC2Z7E6XNEOSSPCL", "dateTime": 1517074559835}, {"current_trial": 21, "trialdata": {"rt": -1000, "trial_type": "single-audio", "word": "journal", "stimulus": "/static/audio/wordpool/JOURNAL.wav", "conditions": [18, 1200, "a", 18000], "internal_node_id": "0.0-12.0", "trial": 0, "time_elapsed": 305604, "serialpos": 0, "key_press": -1, "wordID": 759, "type": "PRES_AUD", "trial_index": 21}, "uniqueid": "MTK2392:3NJM2BJS4XDRYDKC2Z7E6XNEOSSPCL", "dateTime": 1517074561898}, {"current_trial": 22, "trialdata": {"rt": -1000, "trial_type": "single-audio", "word": "flashlight", "stimulus": "/static/audio/wordpool/FLASHLIGHT.wav", "conditions": [18, 1200, "a", 18000], "internal_node_id": "0.0-13.0", "trial": 0, "time_elapsed": 307775, "serialpos": 1, "key_press": -1, "wordID": 574, "type": "PRES_AUD", "trial_index": 22}, "uniqueid": "MTK2392:3NJM2BJS4XDRYDKC2Z7E6XNEOSSPCL", "dateTime": 1517074564069}, {"current_trial": 23, "trialdata": {"rt": -1000, "trial_type": "single-audio", "word": "clam", "stimulus": "/static/audio/wordpool/CLAM.wav", "conditions": [18, 1200, "a", 18000], "internal_node_id": "0.0-14.0", "trial": 0, "time_elapsed": 309859, "serialpos": 2, "key_press": -1, "wordID": 314, "type": "PRES_AUD", "trial_index": 23}, "uniqueid": "MTK2392:3NJM2BJS4XDRYDKC2Z7E6XNEOSSPCL", "dateTime": 1517074566153}, {"current_trial": 24, "trialdata": {"rt": -1000, "trial_type": "single-audio", "word": "zebra", "stimulus": "/static/audio/wordpool/ZEBRA.wav", "conditions": [18, 1200, "a", 18000], "internal_node_id": "0.0-15.0", "trial": 0, "time_elapsed": 311917, "serialpos": 3, "key_press": -1, "wordID": 1634, "type": "PRES_AUD", "trial_index": 24}, "uniqueid": "MTK2392:3NJM2BJS4XDRYDKC2Z7E6XNEOSSPCL", "dateTime": 1517074568211}, {"current_trial": 25, "trialdata": {"rt": -1000, "trial_type": "single-audio", "word": "turnip", "stimulus": "/static/audio/wordpool/TURNIP.wav", "conditions": [18, 1200, "a", 18000], "internal_node_id": "0.0-16.0", "trial": 0, "time_elapsed": 314293, "serialpos": 4, "key_press": -1, "wordID": 1520, "type": "PRES_AUD", "trial_index": 25}, "uniqueid": "MTK2392:3NJM2BJS4XDRYDKC2Z7E6XNEOSSPCL", "dateTime": 1517074570587}, {"current_trial": 26, "trialdata": {"rt": -1000, "trial_type": "single-audio", "word": "palace", "stimulus": "/static/audio/wordpool/PALACE.wav", "conditions": [18, 1200, "a", 18000], "internal_node_id": "0.0-17.0", "trial": 0, "time_elapsed": 316593, "serialpos": 5, "key_press": -1, "wordID": 1005, "type": "PRES_AUD", "trial_index": 26}, "uniqueid": "MTK2392:3NJM2BJS4XDRYDKC2Z7E6XNEOSSPCL", "dateTime": 1517074572887}, {"current_trial": 27, "trialdata": {"rt": -1000, "trial_type": "single-audio", "word": "shoulder", "stimulus": "/static/audio/wordpool/SHOULDER.wav", "conditions": [18, 1200, "a", 18000], "internal_node_id": "0.0-18.0", "trial": 0, "time_elapsed": 318624, "serialpos": 6, "key_press": -1, "wordID": 1293, "type": "PRES_AUD", "trial_index": 27}, "uniqueid": "MTK2392:3NJM2BJS4XDRYDKC2Z7E6XNEOSSPCL", "dateTime": 1517074574918}, {"current_trial": 28, "trialdata": {"rt": -1000, "trial_type": "single-audio", "word": "handbag", "stimulus": "/static/audio/wordpool/HANDBAG.wav", "conditions": [18, 1200, "a", 18000], "internal_node_id": "0.0-19.0", "trial": 0, "time_elapsed": 320666, "serialpos": 7, "key_press": -1, "wordID": 683, "type": "PRES_AUD", "trial_index": 28}, "uniqueid": "MTK2392:3NJM2BJS4XDRYDKC2Z7E6XNEOSSPCL", "dateTime": 1517074576961}, {"current_trial": 29, "trialdata": {"rt": -1000, "trial_type": "single-audio", "word": "tile", "stimulus": "/static/audio/wordpool/TILE.wav", "conditions": [18, 1200, "a", 18000], "internal_node_id": "0.0-20.0", "trial": 0, "time_elapsed": 322711, "serialpos": 8, "key_press": -1, "wordID": 1467, "type": "PRES_AUD", "trial_index": 29}, "uniqueid": "MTK2392:3NJM2BJS4XDRYDKC2Z7E6XNEOSSPCL", "dateTime": 1517074579005}, {"current_trial": 30, "trialdata": {"rt": -1000, "trial_type": "single-audio", "word": "puppy", "stimulus": "/static/audio/wordpool/PUPPY.wav", "conditions": [18, 1200, "a", 18000], "internal_node_id": "0.0-21.0", "trial": 0, "time_elapsed": 325067, "serialpos": 9, "key_press": -1, "wordID": 1143, "type": "PRES_AUD", "trial_index": 30}, "uniqueid": "MTK2392:3NJM2BJS4XDRYDKC2Z7E6XNEOSSPCL", "dateTime": 1517074581361}, {"current_trial": 31, "trialdata": {"rt": -1000, "trial_type": "single-audio", "word": "sword", "stimulus": "/static/audio/wordpool/SWORD.wav", "conditions": [18, 1200, "a", 18000], "internal_node_id": "0.0-22.0", "trial": 0, "time_elapsed": 327455, "serialpos": 10, "key_press": -1, "wordID": 1422, "type": "PRES_AUD", "trial_index": 31}, "uniqueid": "MTK2392:3NJM2BJS4XDRYDKC2Z7E6XNEOSSPCL", "dateTime": 1517074583749}, {"current_trial": 32, "trialdata": {"rt": -1000, "trial_type": "single-audio", "word": "pistol", "stimulus": "/static/audio/wordpool/PISTOL.wav", "conditions": [18, 1200, "a", 18000], "internal_node_id": "0.0-23.0", "trial": 0, "time_elapsed": 329775, "serialpos": 11, "key_press": -1, "wordID": 1074, "type": "PRES_AUD", "trial_index": 32}, "uniqueid": "MTK2392:3NJM2BJS4XDRYDKC2Z7E6XNEOSSPCL", "dateTime": 1517074586069}, {"current_trial": 33, "trialdata": {"rt": -1000, "trial_type": "single-audio", "word": "garbage", "stimulus": "/static/audio/wordpool/GARBAGE.wav", "conditions": [18, 1200, "a", 18000], "internal_node_id": "0.0-24.0", "trial": 0, "time_elapsed": 332027, "serialpos": 12, "key_press": -1, "wordID": 621, "type": "PRES_AUD", "trial_index": 33}, "uniqueid": "MTK2392:3NJM2BJS4XDRYDKC2Z7E6XNEOSSPCL", "dateTime": 1517074588321}, {"current_trial": 34, "trialdata": {"rt": -1000, "trial_type": "single-audio", "word": "plaid", "stimulus": "/static/audio/wordpool/PLAID.wav", "conditions": [18, 1200, "a", 18000], "internal_node_id": "0.0-25.0", "trial": 0, "time_elapsed": 334332, "serialpos": 13, "key_press": -1, "wordID": 1079, "type": "PRES_AUD", "trial_index": 34}, "uniqueid": "MTK2392:3NJM2BJS4XDRYDKC2Z7E6XNEOSSPCL", "dateTime": 1517074590626}, {"current_trial": 35, "trialdata": {"rt": -1000, "trial_type": "single-audio", "word": "termite", "stimulus": "/static/audio/wordpool/TERMITE.wav", "conditions": [18, 1200, "a", 18000], "internal_node_id": "0.0-26.0", "trial": 0, "time_elapsed": 336462, "serialpos": 14, "key_press": -1, "wordID": 1450, "type": "PRES_AUD", "trial_index": 35}, "uniqueid": "MTK2392:3NJM2BJS4XDRYDKC2Z7E6XNEOSSPCL", "dateTime": 1517074592756}, {"current_trial": 36, "trialdata": {"rt": -1000, "trial_type": "single-audio", "word": "vagrant", "stimulus": "/static/audio/wordpool/VAGRANT.wav", "conditions": [18, 1200, "a", 18000], "internal_node_id": "0.0-27.0", "trial": 0, "time_elapsed": 338755, "serialpos": 15, "key_press": -1, "wordID": 1543, "type": "PRES_AUD", "trial_index": 36}, "uniqueid": "MTK2392:3NJM2BJS4XDRYDKC2Z7E6XNEOSSPCL", "dateTime": 1517074595049}, {"current_trial": 37, "trialdata": {"rt": -1000, "trial_type": "single-audio", "word": "flag", "stimulus": "/static/audio/wordpool/FLAG.wav", "conditions": [18, 1200, "a", 18000], "internal_node_id": "0.0-28.0", "trial": 0, "time_elapsed": 340781, "serialpos": 16, "key_press": -1, "wordID": 572, "type": "PRES_AUD", "trial_index": 37}, "uniqueid": "MTK2392:3NJM2BJS4XDRYDKC2Z7E6XNEOSSPCL", "dateTime": 1517074597075}, {"current_trial": 38, "trialdata": {"rt": -1000, "trial_type": "single-audio", "word": "shirt", "stimulus": "/static/audio/wordpool/SHIRT.wav", "conditions": [18, 1200, "a", 18000], "internal_node_id": "0.0-29.0", "trial": 0, "time_elapsed": 342993, "serialpos": 17, "key_press": -1, "wordID": 1286, "type": "PRES_AUD", "trial_index": 38}, "uniqueid": "MTK2392:3NJM2BJS4XDRYDKC2Z7E6XNEOSSPCL", "dateTime": 1517074599287}, {"current_trial": 39, "trialdata": {"rt": -1, "trial_type": "single-stim", "stimulus": "", "internal_node_id": "0.0-30.0-0.0", "time_elapsed": 344252, "key_press": -1, "type": "PRE_RECALL_DELAY", "trial_index": 39}, "uniqueid": "MTK2392:3NJM2BJS4XDRYDKC2Z7E6XNEOSSPCL", "dateTime": 1517074600547}, {"current_trial": 40, "trialdata": {"rt": -1000, "trial_type": "single-audio", "stimulus": "/static/audio/400Hz.wav", "internal_node_id": "0.0-31.0", "time_elapsed": 344754, "key_press": -1, "type": "PRE_RECALL_ALERT", "trial_index": 40}, "uniqueid": "MTK2392:3NJM2BJS4XDRYDKC2Z7E6XNEOSSPCL", "dateTime": 1517074601048}, {"current_trial": 41, "trialdata": {"rt": [2284, 7300, 11420, 12708, 15724, 18291, 21891, 31323], "recwords": ["shirt", "vagrant", "puppy", "zebra", "shirt", "palace", "flag", "termite"], "key_times": [1333, 1347, 1452, 1548, 1780, 2284, 3212, 3396, 3539, 3708, 3796, 3899, 3996, 4252, 7300, 7852, 7980, 8332, 8564, 8828, 9244, 11420, 11820, 12003, 12195, 12380, 12491, 12708, 15091, 15155, 15243, 15323, 15507, 15724, 17387, 17476, 17603, 17699, 17923, 18107, 18291, 21347, 21403, 21516, 21675, 21891, 30419, 30547, 30635, 30739, 30835, 30915, 31003, 31323, 33203, 33779], "trial_type": "free-recall", "conditions": [18, 1200, "a", 18000], "internal_node_id": "0.0-32.0-0.0", "key_presses": [83, 72, 73, 82, 84, 32, 86, 65, 71, 82, 65, 78, 84, 9, 32, 80, 85, 80, 80, 89, 9, 32, 90, 69, 66, 82, 65, 32, 83, 72, 73, 82, 84, 32, 80, 65, 76, 65, 67, 69, 32, 70, 76, 65, 71, 32, 84, 69, 82, 77, 73, 84, 69, 32, 74, 8], "trial": 0, "time_elapsed": 404760, "type": "FREE_RECALL", "trial_index": 41}, "uniqueid": "MTK2392:3NJM2BJS4XDRYDKC2Z7E6XNEOSSPCL", "dateTime": 1517074661056}, {"current_trial": 42, "trialdata": {"rt": 1515, "trial_type": "text", "internal_node_id": "0.0-33.0", "time_elapsed": 408281, "key_press": 32, "type": "INSTRUCTIONS", "trial_index": 42}, "uniqueid": "MTK2392:3NJM2BJS4XDRYDKC2Z7E6XNEOSSPCL", "dateTime": 1517074664575}, {"current_trial": 43, "trialdata": {"rt": [3211, 7243, 10067, 11571, 13195, 15275, 16914], "trial_type": "math-distractor", "key_times": [1771, 1915, 2459, 2923, 3211, 5923, 6179, 7243, 9523, 9739, 10067, 11187, 11299, 11571, 12803, 13195, 14635, 15275, 16371, 16659, 16914], "responses": ["11", "26", "12", "10", "8", "9", "16"], "num2": [3, 8, 3, 5, 4, 1, 8, 4], "num3": [6, 9, 5, 1, 2, 5, 7, 9], "conditions": [18, 1200, "a", 18000], "internal_node_id": "0.0-34.0", "key_presses": [49, 49, 32, 8, 13, 50, 54, 13, 49, 50, 13, 49, 48, 13, 56, 13, 57, 13, 49, 54, 13], "trial": 1, "time_elapsed": 428288, "type": "DISTRACTOR", "trial_index": 43, "num1": [2, 9, 4, 4, 2, 3, 1, 5]}, "uniqueid": "MTK2392:3NJM2BJS4XDRYDKC2Z7E6XNEOSSPCL", "dateTime": 1517074684582}, {"current_trial": 44, "trialdata": {"rt": -1, "trial_type": "single-stim", "stimulus": "<p id=\"stim\">10</p>", "internal_node_id": "0.0-35.0-0.0", "time_elapsed": 431294, "key_press": -1, "trial_index": 44}, "uniqueid": "MTK2392:3NJM2BJS4XDRYDKC2Z7E6XNEOSSPCL", "dateTime": 1517074687588}, {"current_trial": 45, "trialdata": {"rt": -1, "trial_type": "single-stim", "stimulus": "<p id=\"stim\">9</p>", "internal_node_id": "0.0-35.0-1.0", "time_elapsed": 432298, "key_press": -1, "trial_index": 45}, "uniqueid": "MTK2392:3NJM2BJS4XDRYDKC2Z7E6XNEOSSPCL", "dateTime": 1517074688592}, {"current_trial": 46, "trialdata": {"rt": -1, "trial_type": "single-stim", "stimulus": "<p id=\"stim\">8</p>", "internal_node_id": "0.0-35.0-2.0", "time_elapsed": 433302, "key_press": -1, "trial_index": 46}, "uniqueid": "MTK2392:3NJM2BJS4XDRYDKC2Z7E6XNEOSSPCL", "dateTime": 1517074689596}, {"current_trial": 47, "trialdata": {"rt": -1, "trial_type": "single-stim", "stimulus": "<p id=\"stim\">7</p>", "internal_node_id": "0.0-35.0-3.0", "time_elapsed": 434306, "key_press": -1, "trial_index": 47}, "uniqueid": "MTK2392:3NJM2BJS4XDRYDKC2Z7E6XNEOSSPCL", "dateTime": 1517074690600}, {"current_trial": 48, "trialdata": {"rt": -1, "trial_type": "single-stim", "stimulus": "<p id=\"stim\">6</p>", "internal_node_id": "0.0-35.0-4.0", "time_elapsed": 435310, "key_press": -1, "trial_index": 48}, "uniqueid": "MTK2392:3NJM2BJS4XDRYDKC2Z7E6XNEOSSPCL", "dateTime": 1517074691604}, {"current_trial": 49, "trialdata": {"rt": -1, "trial_type": "single-stim", "stimulus": "<p id=\"stim\">5</p>", "internal_node_id": "0.0-35.0-5.0", "time_elapsed": 436314, "key_press": -1, "trial_index": 49}, "uniqueid": "MTK2392:3NJM2BJS4XDRYDKC2Z7E6XNEOSSPCL", "dateTime": 1517074692608}, {"current_trial": 50, "trialdata": {"rt": -1, "trial_type": "single-stim", "stimulus": "<p id=\"stim\">4</p>", "internal_node_id": "0.0-35.0-6.0", "time_elapsed": 437318, "key_press": -1, "trial_index": 50}, "uniqueid": "MTK2392:3NJM2BJS4XDRYDKC2Z7E6XNEOSSPCL", "dateTime": 1517074693612}, {"current_trial": 51, "trialdata": {"rt": -1, "trial_type": "single-stim", "stimulus": "<p id=\"stim\">3</p>", "internal_node_id": "0.0-35.0-7.0", "time_elapsed": 438322, "key_press": -1, "trial_index": 51}, "uniqueid": "MTK2392:3NJM2BJS4XDRYDKC2Z7E6XNEOSSPCL", "dateTime": 1517074694616}, {"current_trial": 52, "trialdata": {"rt": -1, "trial_type": "single-stim", "stimulus": "<p id=\"stim\">2</p>", "internal_node_id": "0.0-35.0-8.0", "time_elapsed": 439326, "key_press": -1, "trial_index": 52}, "uniqueid": "MTK2392:3NJM2BJS4XDRYDKC2Z7E6XNEOSSPCL", "dateTime": 1517074695621}, {"current_trial": 53, "trialdata": {"rt": -1, "trial_type": "single-stim", "stimulus": "<p id=\"stim\">1</p>", "internal_node_id": "0.0-35.0-9.0", "time_elapsed": 440331, "key_press": -1, "trial_index": 53}, "uniqueid": "MTK2392:3NJM2BJS4XDRYDKC2Z7E6XNEOSSPCL", "dateTime": 1517074696625}, {"current_trial": 54, "trialdata": {"rt": -1, "trial_type": "single-stim", "stimulus": "<p id=\"stim\">+</p>", "internal_node_id": "0.0-36.0-0.0", "time_elapsed": 441833, "key_press": -1, "type": "FIXATION", "trial_index": 54}, "uniqueid": "MTK2392:3NJM2BJS4XDRYDKC2Z7E6XNEOSSPCL", "dateTime": 1517074698128}, {"current_trial": 55, "trialdata": {"rt": -1000, "trial_type": "single-audio", "word": "female", "stimulus": "/static/audio/wordpool/FEMALE.wav", "conditions": [18, 1200, "a", 18000], "internal_node_id": "0.0-37.0", "trial": 1, "time_elapsed": 444036, "serialpos": 0, "key_press": -1, "wordID": 558, "type": "PRES_AUD", "trial_index": 55}, "uniqueid": "MTK2392:3NJM2BJS4XDRYDKC2Z7E6XNEOSSPCL", "dateTime": 1517074700330}, {"current_trial": 56, "trialdata": {"rt": -1000, "trial_type": "single-audio", "word": "sticker", "stimulus": "/static/audio/wordpool/STICKER.wav", "conditions": [18, 1200, "a", 18000], "internal_node_id": "0.0-38.0", "trial": 1, "time_elapsed": 446157, "serialpos": 1, "key_press": -1, "wordID": 1381, "type": "PRES_AUD", "trial_index": 56}, "uniqueid": "MTK2392:3NJM2BJS4XDRYDKC2Z7E6XNEOSSPCL", "dateTime": 1517074702452}, {"current_trial": 57, "trialdata": {"rt": -1000, "trial_type": "single-audio", "word": "county", "stimulus": "/static/audio/wordpool/COUNTY.wav", "conditions": [18, 1200, "a", 18000], "internal_node_id": "0.0-39.0", "trial": 1, "time_elapsed": 448282, "serialpos": 2, "key_press": -1, "wordID": 388, "type": "PRES_AUD", "trial_index": 57}, "uniqueid": "MTK2392:3NJM2BJS4XDRYDKC2Z7E6XNEOSSPCL", "dateTime": 1517074704576}, {"current_trial": 58, "trialdata": {"rt": -1000, "trial_type": "single-audio", "word": "flute", "stimulus": "/static/audio/wordpool/FLUTE.wav", "conditions": [18, 1200, "a", 18000], "internal_node_id": "0.0-40.0", "trial": 1, "time_elapsed": 450468, "serialpos": 3, "key_press": -1, "wordID": 584, "type": "PRES_AUD", "trial_index": 58}, "uniqueid": "MTK2392:3NJM2BJS4XDRYDKC2Z7E6XNEOSSPCL", "dateTime": 1517074706764}, {"current_trial": 59, "trialdata": {"rt": -1000, "trial_type": "single-audio", "word": "dragon", "stimulus": "/static/audio/wordpool/DRAGON.wav", "conditions": [18, 1200, "a", 18000], "internal_node_id": "0.0-41.0", "trial": 1, "time_elapsed": 452746, "serialpos": 4, "key_press": -1, "wordID": 491, "type": "PRES_AUD", "trial_index": 59}, "uniqueid": "MTK2392:3NJM2BJS4XDRYDKC2Z7E6XNEOSSPCL", "dateTime": 1517074709040}, {"current_trial": 60, "trialdata": {"rt": -1000, "trial_type": "single-audio", "word": "silk", "stimulus": "/static/audio/wordpool/SILK.wav", "conditions": [18, 1200, "a", 18000], "internal_node_id": "0.0-42.0", "trial": 1, "time_elapsed": 454969, "serialpos": 5, "key_press": -1, "wordID": 1306, "type": "PRES_AUD", "trial_index": 60}, "uniqueid": "MTK2392:3NJM2BJS4XDRYDKC2Z7E6XNEOSSPCL", "dateTime": 1517074711263}, {"current_trial": 61, "trialdata": {"rt": -1000, "trial_type": "single-audio", "word": "igloo", "stimulus": "/static/audio/wordpool/IGLOO.wav", "conditions": [18, 1200, "a", 18000], "internal_node_id": "0.0-43.0", "trial": 1, "time_elapsed": 457162, "serialpos": 6, "key_press": -1, "wordID": 733, "type": "PRES_AUD", "trial_index": 61}, "uniqueid": "MTK2392:3NJM2BJS4XDRYDKC2Z7E6XNEOSSPCL", "dateTime": 1517074713456}, {"current_trial": 62, "trialdata": {"rt": -1000, "trial_type": "single-audio", "word": "shorts", "stimulus": "/static/audio/wordpool/SHORTS.wav", "conditions": [18, 1200, "a", 18000], "internal_node_id": "0.0-44.0", "trial": 1, "time_elapsed": 459555, "serialpos": 7, "key_press": -1, "wordID": 1292, "type": "PRES_AUD", "trial_index": 62}, "uniqueid": "MTK2392:3NJM2BJS4XDRYDKC2Z7E6XNEOSSPCL", "dateTime": 1517074715849}, {"current_trial": 63, "trialdata": {"rt": -1000, "trial_type": "single-audio", "word": "mask", "stimulus": "/static/audio/wordpool/MASK.wav", "conditions": [18, 1200, "a", 18000], "internal_node_id": "0.0-45.0", "trial": 1, "time_elapsed": 461650, "serialpos": 8, "key_press": -1, "wordID": 875, "type": "PRES_AUD", "trial_index": 63}, "uniqueid": "MTK2392:3NJM2BJS4XDRYDKC2Z7E6XNEOSSPCL", "dateTime": 1517074717944}, {"current_trial": 64, "trialdata": {"rt": -1000, "trial_type": "single-audio", "word": "scotch", "stimulus": "/static/audio/wordpool/SCOTCH.wav", "conditions": [18, 1200, "a", 18000], "internal_node_id": "0.0-46.0", "trial": 1, "time_elapsed": 463885, "serialpos": 9, "key_press": -1, "wordID": 1250, "type": "PRES_AUD", "trial_index": 64}, "uniqueid": "MTK2392:3NJM2BJS4XDRYDKC2Z7E6XNEOSSPCL", "dateTime": 1517074720180}, {"current_trial": 65, "trialdata": {"rt": -1000, "trial_type": "single-audio", "word": "finger", "stimulus": "/static/audio/wordpool/FINGER.wav", "conditions": [18, 1200, "a", 18000], "internal_node_id": "0.0-47.0", "trial": 1, "time_elapsed": 465893, "serialpos": 10, "key_press": -1, "wordID": 566, "type": "PRES_AUD", "trial_index": 65}, "uniqueid": "MTK2392:3NJM2BJS4XDRYDKC2Z7E6XNEOSSPCL", "dateTime": 1517074722187}, {"current_trial": 66, "trialdata": {"rt": -1000, "trial_type": "single-audio", "word": "tortoise", "stimulus": "/static/audio/wordpool/TORTOISE.wav", "conditions": [18, 1200, "a", 18000], "internal_node_id": "0.0-48.0", "trial": 1, "time_elapsed": 467914, "serialpos": 11, "key_press": -1, "wordID": 1485, "type": "PRES_AUD", "trial_index": 66}, "uniqueid": "MTK2392:3NJM2BJS4XDRYDKC2Z7E6XNEOSSPCL", "dateTime": 1517074724208}, {"current_trial": 67, "trialdata": {"rt": -1000, "trial_type": "single-audio", "word": "primate", "stimulus": "/static/audio/wordpool/PRIMATE.wav", "conditions": [18, 1200, "a", 18000], "internal_node_id": "0.0-49.0", "trial": 1, "time_elapsed": 470010, "serialpos": 12, "key_press": -1, "wordID": 1122, "type": "PRES_AUD", "trial_index": 67}, "uniqueid": "MTK2392:3NJM2BJS4XDRYDKC2Z7E6XNEOSSPCL", "dateTime": 1517074726304}, {"current_trial": 68, "trialdata": {"rt": -1000, "trial_type": "single-audio", "word": "taxi", "stimulus": "/static/audio/wordpool/TAXI.wav", "conditions": [18, 1200, "a", 18000], "internal_node_id": "0.0-50.0", "trial": 1, "time_elapsed": 472250, "serialpos": 13, "key_press": -1, "wordID": 1437, "type": "PRES_AUD", "trial_index": 68}, "uniqueid": "MTK2392:3NJM2BJS4XDRYDKC2Z7E6XNEOSSPCL", "dateTime": 1517074728544}, {"current_trial": 69, "trialdata": {"rt": -1000, "trial_type": "single-audio", "word": "slug", "stimulus": "/static/audio/wordpool/SLUG.wav", "conditions": [18, 1200, "a", 18000], "internal_node_id": "0.0-51.0", "trial": 1, "time_elapsed": 474352, "serialpos": 14, "key_press": -1, "wordID": 1328, "type": "PRES_AUD", "trial_index": 69}, "uniqueid": "MTK2392:3NJM2BJS4XDRYDKC2Z7E6XNEOSSPCL", "dateTime": 1517074730646}, {"current_trial": 70, "trialdata": {"rt": -1000, "trial_type": "single-audio", "word": "dime", "stimulus": "/static/audio/wordpool/DIME.wav", "conditions": [18, 1200, "a", 18000], "internal_node_id": "0.0-52.0", "trial": 1, "time_elapsed": 476477, "serialpos": 15, "key_press": -1, "wordID": 465, "type": "PRES_AUD", "trial_index": 70}, "uniqueid": "MTK2392:3NJM2BJS4XDRYDKC2Z7E6XNEOSSPCL", "dateTime": 1517074732771}, {"current_trial": 71, "trialdata": {"rt": -1000, "trial_type": "single-audio", "word": "japan", "stimulus": "/static/audio/wordpool/JAPAN.wav", "conditions": [18, 1200, "a", 18000], "internal_node_id": "0.0-53.0", "trial": 1, "time_elapsed": 478842, "serialpos": 16, "key_press": -1, "wordID": 748, "type": "PRES_AUD", "trial_index": 71}, "uniqueid": "MTK2392:3NJM2BJS4XDRYDKC2Z7E6XNEOSSPCL", "dateTime": 1517074735137}, {"current_trial": 72, "trialdata": {"rt": -1000, "trial_type": "single-audio", "word": "orchid", "stimulus": "/static/audio/wordpool/ORCHID.wav", "conditions": [18, 1200, "a", 18000], "internal_node_id": "0.0-54.0", "trial": 1, "time_elapsed": 481004, "serialpos": 17, "key_press": -1, "wordID": 981, "type": "PRES_AUD", "trial_index": 72}, "uniqueid": "MTK2392:3NJM2BJS4XDRYDKC2Z7E6XNEOSSPCL", "dateTime": 1517074737298}, {"current_trial": 73, "trialdata": {"rt": -1, "trial_type": "single-stim", "stimulus": "", "internal_node_id": "0.0-55.0-0.0", "time_elapsed": 482252, "key_press": -1, "type": "PRE_RECALL_DELAY", "trial_index": 73}, "uniqueid": "MTK2392:3NJM2BJS4XDRYDKC2Z7E6XNEOSSPCL", "dateTime": 1517074738546}, {"current_trial": 74, "trialdata": {"rt": -1000, "trial_type": "single-audio", "stimulus": "/static/audio/400Hz.wav", "internal_node_id": "0.0-56.0", "time_elapsed": 482753, "key_press": -1, "type": "PRE_RECALL_ALERT", "trial_index": 74}, "uniqueid": "MTK2392:3NJM2BJS4XDRYDKC2Z7E6XNEOSSPCL", "dateTime": 1517074739048}, {"current_trial": 75, "trialdata": {"rt": [2452, 5948, 7116, 8308, 9763, 12468, 16380, 17555], "recwords": ["orchid", "japan", "slug", "dime", "email", "female", "shorts", "dragon"], "key_times": [638, 692, 940, 980, 1060, 1180, 2452, 2836, 2940, 3052, 3212, 3324, 3716, 5948, 6516, 6628, 6732, 6828, 7116, 7460, 7628, 7731, 7820, 8308, 8956, 9044, 9211, 9227, 9404, 9763, 10044, 10212, 10268, 10428, 10492, 10644, 10756, 11148, 11291, 11435, 11691, 11796, 12468, 14732, 14843, 15235, 15484, 15539, 15651, 15835, 16011, 16380, 16652, 16795, 16908, 17044, 17147, 17268, 17555], "trial_type": "free-recall", "conditions": [18, 1200, "a", 18000], "internal_node_id": "0.0-57.0-0.0", "key_presses": [79, 82, 67, 72, 73, 68, 32, 74, 65, 80, 65, 78, 9, 32, 83, 76, 85, 71, 32, 68, 73, 77, 69, 32, 69, 77, 65, 73, 76, 32, 70, 69, 77, 65, 73, 76, 69, 8, 8, 8, 76, 69, 32, 83, 79, 8, 72, 79, 82, 84, 83, 32, 68, 82, 65, 71, 79, 78, 32], "trial": 1, "time_elapsed": 542759, "type": "FREE_RECALL", "trial_index": 75}, "uniqueid": "MTK2392:3NJM2BJS4XDRYDKC2Z7E6XNEOSSPCL", "dateTime": 1517074799054}, {"current_trial": 76, "trialdata": {"rt": 3307, "trial_type": "text", "internal_node_id": "0.0-58.0", "time_elapsed": 548074, "key_press": 32, "type": "INSTRUCTIONS", "trial_index": 76}, "uniqueid": "MTK2392:3NJM2BJS4XDRYDKC2Z7E6XNEOSSPCL", "dateTime": 1517074804368}, {"current_trial": 77, "trialdata": {"rt": [3689, 4857, 6593, 8761, 10233, 12497, 14473, 16033, 17785, 19769, 22145, 23953], "trial_type": "math-distractor", "key_times": [2353, 2665, 3034, 3434, 3689, 4537, 4721, 4857, 6265, 6369, 6593, 8329, 8522, 8761, 9866, 10057, 10233, 12145, 12313, 12497, 14105, 14233, 14473, 15753, 15881, 16033, 17449, 17633, 17785, 19377, 19569, 19769, 21785, 21953, 22145, 23681, 23953], "responses": ["16", "11", "20", "23", "14", "13", "19", "14", "11", "24", "23", "7"], "num2": [4, 1, 5, 8, 4, 8, 9, 8, 3, 9, 8, 3, 6], "num3": [3, 9, 9, 7, 7, 2, 4, 1, 4, 9, 6, 3, 7], "conditions": [24, 1600, "a", 24000], "internal_node_id": "0.0-59.0", "key_presses": [49, 54, 32, 8, 13, 49, 49, 13, 50, 48, 13, 50, 51, 13, 49, 52, 13, 49, 51, 13, 49, 57, 13, 49, 52, 13, 49, 49, 13, 50, 52, 13, 50, 51, 13, 55, 13], "trial": 2, "time_elapsed": 573083, "type": "DISTRACTOR", "trial_index": 77, "num1": [9, 1, 6, 8, 3, 3, 6, 5, 4, 6, 9, 1, 8]}, "uniqueid": "MTK2392:3NJM2BJS4XDRYDKC2Z7E6XNEOSSPCL", "dateTime": 1517074829377}, {"current_trial": 78, "trialdata": {"rt": -1, "trial_type": "single-stim", "stimulus": "<p id=\"stim\">10</p>", "internal_node_id": "0.0-60.0-0.0", "time_elapsed": 576090, "key_press": -1, "trial_index": 78}, "uniqueid": "MTK2392:3NJM2BJS4XDRYDKC2Z7E6XNEOSSPCL", "dateTime": 1517074832384}, {"current_trial": 79, "trialdata": {"rt": -1, "trial_type": "single-stim", "stimulus": "<p id=\"stim\">9</p>", "internal_node_id": "0.0-60.0-1.0", "time_elapsed": 577094, "key_press": -1, "trial_index": 79}, "uniqueid": "MTK2392:3NJM2BJS4XDRYDKC2Z7E6XNEOSSPCL", "dateTime": 1517074833388}, {"current_trial": 80, "trialdata": {"rt": -1, "trial_type": "single-stim", "stimulus": "<p id=\"stim\">8</p>", "internal_node_id": "0.0-60.0-2.0", "time_elapsed": 578098, "key_press": -1, "trial_index": 80}, "uniqueid": "MTK2392:3NJM2BJS4XDRYDKC2Z7E6XNEOSSPCL", "dateTime": 1517074834392}, {"current_trial": 81, "trialdata": {"rt": -1, "trial_type": "single-stim", "stimulus": "<p id=\"stim\">7</p>", "internal_node_id": "0.0-60.0-3.0", "time_elapsed": 579102, "key_press": -1, "trial_index": 81}, "uniqueid": "MTK2392:3NJM2BJS4XDRYDKC2Z7E6XNEOSSPCL", "dateTime": 1517074835396}, {"current_trial": 82, "trialdata": {"rt": -1, "trial_type": "single-stim", "stimulus": "<p id=\"stim\">6</p>", "internal_node_id": "0.0-60.0-4.0", "time_elapsed": 580106, "key_press": -1, "trial_index": 82}, "uniqueid": "MTK2392:3NJM2BJS4XDRYDKC2Z7E6XNEOSSPCL", "dateTime": 1517074836400}, {"current_trial": 83, "trialdata": {"rt": -1, "trial_type": "single-stim", "stimulus": "<p id=\"stim\">5</p>", "internal_node_id": "0.0-60.0-5.0", "time_elapsed": 581110, "key_press": -1, "trial_index": 83}, "uniqueid": "MTK2392:3NJM2BJS4XDRYDKC2Z7E6XNEOSSPCL", "dateTime": 1517074837404}, {"current_trial": 84, "trialdata": {"rt": -1, "trial_type": "single-stim", "stimulus": "<p id=\"stim\">4</p>", "internal_node_id": "0.0-60.0-6.0", "time_elapsed": 582114, "key_press": -1, "trial_index": 84}, "uniqueid": "MTK2392:3NJM2BJS4XDRYDKC2Z7E6XNEOSSPCL", "dateTime": 1517074838408}, {"current_trial": 85, "trialdata": {"rt": -1, "trial_type": "single-stim", "stimulus": "<p id=\"stim\">3</p>", "internal_node_id": "0.0-60.0-7.0", "time_elapsed": 583118, "key_press": -1, "trial_index": 85}, "uniqueid": "MTK2392:3NJM2BJS4XDRYDKC2Z7E6XNEOSSPCL", "dateTime": 1517074839412}, {"current_trial": 86, "trialdata": {"rt": -1, "trial_type": "single-stim", "stimulus": "<p id=\"stim\">2</p>", "internal_node_id": "0.0-60.0-8.0", "time_elapsed": 584122, "key_press": -1, "trial_index": 86}, "uniqueid": "MTK2392:3NJM2BJS4XDRYDKC2Z7E6XNEOSSPCL", "dateTime": 1517074840416}, {"current_trial": 87, "trialdata": {"rt": -1, "trial_type": "single-stim", "stimulus": "<p id=\"stim\">1</p>", "internal_node_id": "0.0-60.0-9.0", "time_elapsed": 585126, "key_press": -1, "trial_index": 87}, "uniqueid": "MTK2392:3NJM2BJS4XDRYDKC2Z7E6XNEOSSPCL", "dateTime": 1517074841420}, {"current_trial": 88, "trialdata": {"rt": -1, "trial_type": "single-stim", "stimulus": "<p id=\"stim\">+</p>", "internal_node_id": "0.0-61.0-0.0", "time_elapsed": 586630, "key_press": -1, "type": "FIXATION", "trial_index": 88}, "uniqueid": "MTK2392:3NJM2BJS4XDRYDKC2Z7E6XNEOSSPCL", "dateTime": 1517074842924}, {"current_trial": 89, "trialdata": {"rt": -1000, "trial_type": "single-audio", "word": "orange", "stimulus": "/static/audio/wordpool/ORANGE.wav", "conditions": [24, 1600, "a", 24000], "internal_node_id": "0.0-62.0", "trial": 2, "time_elapsed": 589288, "serialpos": 0, "key_press": -1, "wordID": 979, "type": "PRES_AUD", "trial_index": 89}, "uniqueid": "MTK2392:3NJM2BJS4XDRYDKC2Z7E6XNEOSSPCL", "dateTime": 1517074845582}, {"current_trial": 90, "trialdata": {"rt": -1000, "trial_type": "single-audio", "word": "possum", "stimulus": "/static/audio/wordpool/POSSUM.wav", "conditions": [24, 1600, "a", 24000], "internal_node_id": "0.0-63.0", "trial": 2, "time_elapsed": 591813, "serialpos": 1, "key_press": -1, "wordID": 1111, "type": "PRES_AUD", "trial_index": 90}, "uniqueid": "MTK2392:3NJM2BJS4XDRYDKC2Z7E6XNEOSSPCL", "dateTime": 1517074848107}, {"current_trial": 91, "trialdata": {"rt": -1000, "trial_type": "single-audio", "word": "crab", "stimulus": "/static/audio/wordpool/CRAB.wav", "conditions": [24, 1600, "a", 24000], "internal_node_id": "0.0-64.0", "trial": 2, "time_elapsed": 594315, "serialpos": 2, "key_press": -1, "wordID": 396, "type": "PRES_AUD", "trial_index": 91}, "uniqueid": "MTK2392:3NJM2BJS4XDRYDKC2Z7E6XNEOSSPCL", "dateTime": 1517074850609}, {"current_trial": 92, "trialdata": {"rt": -1000, "trial_type": "single-audio", "word": "cod", "stimulus": "/static/audio/wordpool/COD.wav", "conditions": [24, 1600, "a", 24000], "internal_node_id": "0.0-65.0", "trial": 2, "time_elapsed": 597061, "serialpos": 3, "key_press": -1, "wordID": 339, "type": "PRES_AUD", "trial_index": 92}, "uniqueid": "MTK2392:3NJM2BJS4XDRYDKC2Z7E6XNEOSSPCL", "dateTime": 1517074853355}, {"current_trial": 93, "trialdata": {"rt": -1000, "trial_type": "single-audio", "word": "church", "stimulus": "/static/audio/wordpool/CHURCH.wav", "conditions": [24, 1600, "a", 24000], "internal_node_id": "0.0-66.0", "trial": 2, "time_elapsed": 599857, "serialpos": 4, "key_press": -1, "wordID": 306, "type": "PRES_AUD", "trial_index": 93}, "uniqueid": "MTK2392:3NJM2BJS4XDRYDKC2Z7E6XNEOSSPCL", "dateTime": 1517074856151}, {"current_trial": 94, "trialdata": {"rt": -1000, "trial_type": "single-audio", "word": "custard", "stimulus": "/static/audio/wordpool/CUSTARD.wav", "conditions": [24, 1600, "a", 24000], "internal_node_id": "0.0-67.0", "trial": 2, "time_elapsed": 602303, "serialpos": 5, "key_press": -1, "wordID": 428, "type": "PRES_AUD", "trial_index": 94}, "uniqueid": "MTK2392:3NJM2BJS4XDRYDKC2Z7E6XNEOSSPCL", "dateTime": 1517074858597}, {"current_trial": 95, "trialdata": {"rt": -1000, "trial_type": "single-audio", "word": "salmon", "stimulus": "/static/audio/wordpool/SALMON.wav", "conditions": [24, 1600, "a", 24000], "internal_node_id": "0.0-68.0", "trial": 2, "time_elapsed": 605083, "serialpos": 6, "key_press": -1, "wordID": 1226, "type": "PRES_AUD", "trial_index": 95}, "uniqueid": "MTK2392:3NJM2BJS4XDRYDKC2Z7E6XNEOSSPCL", "dateTime": 1517074861377}, {"current_trial": 96, "trialdata": {"rt": -1000, "trial_type": "single-audio", "word": "lodge", "stimulus": "/static/audio/wordpool/LODGE.wav", "conditions": [24, 1600, "a", 24000], "internal_node_id": "0.0-69.0", "trial": 2, "time_elapsed": 607645, "serialpos": 7, "key_press": -1, "wordID": 838, "type": "PRES_AUD", "trial_index": 96}, "uniqueid": "MTK2392:3NJM2BJS4XDRYDKC2Z7E6XNEOSSPCL", "dateTime": 1517074863939}, {"current_trial": 97, "trialdata": {"rt": -1000, "trial_type": "single-audio", "word": "summit", "stimulus": "/static/audio/wordpool/SUMMIT.wav", "conditions": [24, 1600, "a", 24000], "internal_node_id": "0.0-70.0", "trial": 2, "time_elapsed": 610429, "serialpos": 8, "key_press": -1, "wordID": 1404, "type": "PRES_AUD", "trial_index": 97}, "uniqueid": "MTK2392:3NJM2BJS4XDRYDKC2Z7E6XNEOSSPCL", "dateTime": 1517074866724}, {"current_trial": 98, "trialdata": {"rt": -1000, "trial_type": "single-audio", "word": "knife", "stimulus": "/static/audio/wordpool/KNIFE.wav", "conditions": [24, 1600, "a", 24000], "internal_node_id": "0.0-71.0", "trial": 2, "time_elapsed": 613204, "serialpos": 9, "key_press": -1, "wordID": 784, "type": "PRES_AUD", "trial_index": 98}, "uniqueid": "MTK2392:3NJM2BJS4XDRYDKC2Z7E6XNEOSSPCL", "dateTime": 1517074869498}, {"current_trial": 99, "trialdata": {"rt": -1000, "trial_type": "single-audio", "word": "postage", "stimulus": "/static/audio/wordpool/POSTAGE.wav", "conditions": [24, 1600, "a", 24000], "internal_node_id": "0.0-72.0", "trial": 2, "time_elapsed": 615623, "serialpos": 10, "key_press": -1, "wordID": 1112, "type": "PRES_AUD", "trial_index": 99}, "uniqueid": "MTK2392:3NJM2BJS4XDRYDKC2Z7E6XNEOSSPCL", "dateTime": 1517074871917}, {"current_trial": 100, "trialdata": {"rt": -1000, "trial_type": "single-audio", "word": "jelly", "stimulus": "/static/audio/wordpool/JELLY.wav", "conditions": [24, 1600, "a", 24000], "internal_node_id": "0.0-73.0", "trial": 2, "time_elapsed": 618262, "serialpos": 11, "key_press": -1, "wordID": 754, "type": "PRES_AUD", "trial_index": 100}, "uniqueid": "MTK2392:3NJM2BJS4XDRYDKC2Z7E6XNEOSSPCL", "dateTime": 1517074874556}, {"current_trial": 101, "trialdata": {"rt": -1000, "trial_type": "single-audio", "word": "denim", "stimulus": "/static/audio/wordpool/DENIM.wav", "conditions": [24, 1600, "a", 24000], "internal_node_id": "0.0-74.0", "trial": 2, "time_elapsed": 621029, "serialpos": 12, "key_press": -1, "wordID": 445, "type": "PRES_AUD", "trial_index": 101}, "uniqueid": "MTK2392:3NJM2BJS4XDRYDKC2Z7E6XNEOSSPCL", "dateTime": 1517074877323}, {"current_trial": 102, "trialdata": {"rt": -1000, "trial_type": "single-audio", "word": "bug", "stimulus": "/static/audio/wordpool/BUG.wav", "conditions": [24, 1600, "a", 24000], "internal_node_id": "0.0-75.0", "trial": 2, "time_elapsed": 623833, "serialpos": 13, "key_press": -1, "wordID": 186, "type": "PRES_AUD", "trial_index": 102}, "uniqueid": "MTK2392:3NJM2BJS4XDRYDKC2Z7E6XNEOSSPCL", "dateTime": 1517074880128}, {"current_trial": 103, "trialdata": {"rt": -1000, "trial_type": "single-audio", "word": "widow", "stimulus": "/static/audio/wordpool/WIDOW.wav", "conditions": [24, 1600, "a", 24000], "internal_node_id": "0.0-76.0", "trial": 2, "time_elapsed": 626457, "serialpos": 14, "key_press": -1, "wordID": 1607, "type": "PRES_AUD", "trial_index": 103}, "uniqueid": "MTK2392:3NJM2BJS4XDRYDKC2Z7E6XNEOSSPCL", "dateTime": 1517074882751}, {"current_trial": 104, "trialdata": {"rt": -1000, "trial_type": "single-audio", "word": "truck", "stimulus": "/static/audio/wordpool/TRUCK.wav", "conditions": [24, 1600, "a", 24000], "internal_node_id": "0.0-77.0", "trial": 2, "time_elapsed": 629069, "serialpos": 15, "key_press": -1, "wordID": 1511, "type": "PRES_AUD", "trial_index": 104}, "uniqueid": "MTK2392:3NJM2BJS4XDRYDKC2Z7E6XNEOSSPCL", "dateTime": 1517074885363}, {"current_trial": 105, "trialdata": {"rt": -1000, "trial_type": "single-audio", "word": "wife", "stimulus": "/static/audio/wordpool/WIFE.wav", "conditions": [24, 1600, "a", 24000], "internal_node_id": "0.0-78.0", "trial": 2, "time_elapsed": 631838, "serialpos": 16, "key_press": -1, "wordID": 1608, "type": "PRES_AUD", "trial_index": 105}, "uniqueid": "MTK2392:3NJM2BJS4XDRYDKC2Z7E6XNEOSSPCL", "dateTime": 1517074888132}, {"current_trial": 106, "trialdata": {"rt": -1000, "trial_type": "single-audio", "word": "spouse", "stimulus": "/static/audio/wordpool/SPOUSE.wav", "conditions": [24, 1600, "a", 24000], "internal_node_id": "0.0-79.0", "trial": 2, "time_elapsed": 634295, "serialpos": 17, "key_press": -1, "wordID": 1357, "type": "PRES_AUD", "trial_index": 106}, "uniqueid": "MTK2392:3NJM2BJS4XDRYDKC2Z7E6XNEOSSPCL", "dateTime": 1517074890589}, {"current_trial": 107, "trialdata": {"rt": -1000, "trial_type": "single-audio", "word": "statue", "stimulus": "/static/audio/wordpool/STATUE.wav", "conditions": [24, 1600, "a", 24000], "internal_node_id": "0.0-80.0", "trial": 2, "time_elapsed": 636902, "serialpos": 18, "key_press": -1, "wordID": 1373, "type": "PRES_AUD", "trial_index": 107}, "uniqueid": "MTK2392:3NJM2BJS4XDRYDKC2Z7E6XNEOSSPCL", "dateTime": 1517074893197}, {"current_trial": 108, "trialdata": {"rt": -1000, "trial_type": "single-audio", "word": "buggy", "stimulus": "/static/audio/wordpool/BUGGY.wav", "conditions": [24, 1600, "a", 24000], "internal_node_id": "0.0-81.0", "trial": 2, "time_elapsed": 639622, "serialpos": 19, "key_press": -1, "wordID": 187, "type": "PRES_AUD", "trial_index": 108}, "uniqueid": "MTK2392:3NJM2BJS4XDRYDKC2Z7E6XNEOSSPCL", "dateTime": 1517074895916}, {"current_trial": 109, "trialdata": {"rt": -1000, "trial_type": "single-audio", "word": "tractor", "stimulus": "/static/audio/wordpool/TRACTOR.wav", "conditions": [24, 1600, "a", 24000], "internal_node_id": "0.0-82.0", "trial": 2, "time_elapsed": 642182, "serialpos": 20, "key_press": -1, "wordID": 1492, "type": "PRES_AUD", "trial_index": 109}, "uniqueid": "MTK2392:3NJM2BJS4XDRYDKC2Z7E6XNEOSSPCL", "dateTime": 1517074898476}, {"current_trial": 110, "trialdata": {"rt": -1000, "trial_type": "single-audio", "word": "gallon", "stimulus": "/static/audio/wordpool/GALLON.wav", "conditions": [24, 1600, "a", 24000], "internal_node_id": "0.0-83.0", "trial": 2, "time_elapsed": 644666, "serialpos": 21, "key_press": -1, "wordID": 617, "type": "PRES_AUD", "trial_index": 110}, "uniqueid": "MTK2392:3NJM2BJS4XDRYDKC2Z7E6XNEOSSPCL", "dateTime": 1517074900961}, {"current_trial": 111, "trialdata": {"rt": -1000, "trial_type": "single-audio", "word": "casket", "stimulus": "/static/audio/wordpool/CASKET.wav", "conditions": [24, 1600, "a", 24000], "internal_node_id": "0.0-84.0", "trial": 2, "time_elapsed": 647198, "serialpos": 22, "key_press": -1, "wordID": 254, "type": "PRES_AUD", "trial_index": 111}, "uniqueid": "MTK2392:3NJM2BJS4XDRYDKC2Z7E6XNEOSSPCL", "dateTime": 1517074903492}, {"current_trial": 112, "trialdata": {"rt": -1000, "trial_type": "single-audio", "word": "jury", "stimulus": "/static/audio/wordpool/JURY.wav", "conditions": [24, 1600, "a", 24000], "internal_node_id": "0.0-85.0", "trial": 2, "time_elapsed": 649653, "serialpos": 23, "key_press": -1, "wordID": 765, "type": "PRES_AUD", "trial_index": 112}, "uniqueid": "MTK2392:3NJM2BJS4XDRYDKC2Z7E6XNEOSSPCL", "dateTime": 1517074905947}, {"current_trial": 113, "trialdata": {"rt": -1, "trial_type": "single-stim", "stimulus": "", "internal_node_id": "0.0-86.0-0.0", "time_elapsed": 650946, "key_press": -1, "type": "PRE_RECALL_DELAY", "trial_index": 113}, "uniqueid": "MTK2392:3NJM2BJS4XDRYDKC2Z7E6XNEOSSPCL", "dateTime": 1517074907240}, {"current_trial": 114, "trialdata": {"rt": -1000, "trial_type": "single-audio", "stimulus": "/static/audio/400Hz.wav", "internal_node_id": "0.0-87.0", "time_elapsed": 651447, "key_press": -1, "type": "PRE_RECALL_ALERT", "trial_index": 114}, "uniqueid": "MTK2392:3NJM2BJS4XDRYDKC2Z7E6XNEOSSPCL", "dateTime": 1517074907742}, {"current_trial": 115, "trialdata": {"rt": [3326, 4622, 7542, 8502, 9750, 10910, 12862, 15158, 16294, 18022, 21478, 25814, 31062], "recwords": ["jury", "buggy", "crab", "cod", "salmon", "lodge", "orange", "wife", "spouse", "tractor", "truck", "summit", "jelly"], "key_times": [511, 646, 766, 878, 1382, 3326, 3686, 3774, 4046, 4183, 4294, 4622, 6263, 6422, 6535, 6710, 7542, 7926, 8022, 8126, 8502, 8838, 8974, 9070, 9190, 9294, 9422, 9750, 10014, 10182, 10278, 10422, 10575, 10910, 11126, 11206, 11430, 11590, 11718, 11926, 12862, 14582, 14638, 14751, 14894, 15158, 15454, 15558, 15638, 15766, 15838, 15926, 16294, 16766, 16934, 16966, 17318, 17542, 17654, 17782, 18022, 18302, 19014, 20815, 20998, 21062, 21214, 21302, 21478, 24758, 24894, 25126, 25302, 25414, 25542, 25814, 30230, 30382, 30510, 30670, 30822, 31062], "trial_type": "free-recall", "conditions": [24, 1600, "a", 24000], "internal_node_id": "0.0-88.0-0.0", "key_presses": [74, 85, 82, 89, 9, 32, 66, 85, 71, 71, 89, 32, 67, 82, 65, 66, 32, 67, 79, 68, 32, 83, 65, 76, 77, 79, 78, 32, 76, 79, 68, 71, 69, 32, 79, 82, 65, 78, 71, 69, 32, 87, 73, 70, 69, 32, 83, 80, 79, 85, 83, 69, 32, 84, 82, 65, 67, 84, 79, 82, 32, 83, 8, 84, 82, 85, 67, 75, 32, 83, 85, 77, 77, 73, 84, 32, 74, 69, 76, 76, 89, 32], "trial": 2, "time_elapsed": 711454, "type": "FREE_RECALL", "trial_index": 115}, "uniqueid": "MTK2392:3NJM2BJS4XDRYDKC2Z7E6XNEOSSPCL", "dateTime": 1517074967750}, {"current_trial": 116, "trialdata": {"rt": 1325, "trial_type": "text", "internal_node_id": "0.0-89.0", "time_elapsed": 714787, "key_press": 32, "type": "INSTRUCTIONS", "trial_index": 116}, "uniqueid": "MTK2392:3NJM2BJS4XDRYDKC2Z7E6XNEOSSPCL", "dateTime": 1517074971081}, {"current_trial": 117, "trialdata": {"rt": [2043, 3819, 5147, 7403, 9803, 11515], "trial_type": "math-distractor", "key_times": [1548, 1643, 2043, 3483, 3667, 3819, 4900, 5027, 5147, 7075, 7196, 7403, 9396, 9539, 9803, 11203, 11299, 11515], "responses": ["19", "24", "14", "23", "17", "19"], "num2": [7, 9, 6, 9, 5, 9, 6], "num3": [5, 6, 5, 9, 9, 4, 3], "conditions": [24, 1600, "a", 12000], "internal_node_id": "0.0-90.0", "key_presses": [49, 57, 13, 50, 52, 13, 49, 52, 13, 50, 51, 13, 49, 55, 13, 49, 57, 13], "trial": 3, "time_elapsed": 728796, "type": "DISTRACTOR", "trial_index": 117, "num1": [7, 9, 3, 5, 3, 6, 7]}, "uniqueid": "MTK2392:3NJM2BJS4XDRYDKC2Z7E6XNEOSSPCL", "dateTime": 1517074985090}, {"current_trial": 118, "trialdata": {"rt": -1, "trial_type": "single-stim", "stimulus": "<p id=\"stim\">10</p>", "internal_node_id": "0.0-91.0-0.0", "time_elapsed": 731799, "key_press": -1, "trial_index": 118}, "uniqueid": "MTK2392:3NJM2BJS4XDRYDKC2Z7E6XNEOSSPCL", "dateTime": 1517074988093}, {"current_trial": 119, "trialdata": {"rt": -1, "trial_type": "single-stim", "stimulus": "<p id=\"stim\">9</p>", "internal_node_id": "0.0-91.0-1.0", "time_elapsed": 732800, "key_press": -1, "trial_index": 119}, "uniqueid": "MTK2392:3NJM2BJS4XDRYDKC2Z7E6XNEOSSPCL", "dateTime": 1517074989094}, {"current_trial": 120, "trialdata": {"rt": -1, "trial_type": "single-stim", "stimulus": "<p id=\"stim\">8</p>", "internal_node_id": "0.0-91.0-2.0", "time_elapsed": 733802, "key_press": -1, "trial_index": 120}, "uniqueid": "MTK2392:3NJM2BJS4XDRYDKC2Z7E6XNEOSSPCL", "dateTime": 1517074990096}, {"current_trial": 121, "trialdata": {"rt": -1, "trial_type": "single-stim", "stimulus": "<p id=\"stim\">7</p>", "internal_node_id": "0.0-91.0-3.0", "time_elapsed": 734804, "key_press": -1, "trial_index": 121}, "uniqueid": "MTK2392:3NJM2BJS4XDRYDKC2Z7E6XNEOSSPCL", "dateTime": 1517074991098}, {"current_trial": 122, "trialdata": {"rt": -1, "trial_type": "single-stim", "stimulus": "<p id=\"stim\">6</p>", "internal_node_id": "0.0-91.0-4.0", "time_elapsed": 735806, "key_press": -1, "trial_index": 122}, "uniqueid": "MTK2392:3NJM2BJS4XDRYDKC2Z7E6XNEOSSPCL", "dateTime": 1517074992100}, {"current_trial": 123, "trialdata": {"rt": -1, "trial_type": "single-stim", "stimulus": "<p id=\"stim\">5</p>", "internal_node_id": "0.0-91.0-5.0", "time_elapsed": 736811, "key_press": -1, "trial_index": 123}, "uniqueid": "MTK2392:3NJM2BJS4XDRYDKC2Z7E6XNEOSSPCL", "dateTime": 1517074993105}, {"current_trial": 124, "trialdata": {"rt": -1, "trial_type": "single-stim", "stimulus": "<p id=\"stim\">4</p>", "internal_node_id": "0.0-91.0-6.0", "time_elapsed": 737815, "key_press": -1, "trial_index": 124}, "uniqueid": "MTK2392:3NJM2BJS4XDRYDKC2Z7E6XNEOSSPCL", "dateTime": 1517074994109}, {"current_trial": 125, "trialdata": {"rt": -1, "trial_type": "single-stim", "stimulus": "<p id=\"stim\">3</p>", "internal_node_id": "0.0-91.0-7.0", "time_elapsed": 738819, "key_press": -1, "trial_index": 125}, "uniqueid": "MTK2392:3NJM2BJS4XDRYDKC2Z7E6XNEOSSPCL", "dateTime": 1517074995113}, {"current_trial": 126, "trialdata": {"rt": -1, "trial_type": "single-stim", "stimulus": "<p id=\"stim\">2</p>", "internal_node_id": "0.0-91.0-8.0", "time_elapsed": 739823, "key_press": -1, "trial_index": 126}, "uniqueid": "MTK2392:3NJM2BJS4XDRYDKC2Z7E6XNEOSSPCL", "dateTime": 1517074996117}, {"current_trial": 127, "trialdata": {"rt": -1, "trial_type": "single-stim", "stimulus": "<p id=\"stim\">1</p>", "internal_node_id": "0.0-91.0-9.0", "time_elapsed": 740827, "key_press": -1, "trial_index": 127}, "uniqueid": "MTK2392:3NJM2BJS4XDRYDKC2Z7E6XNEOSSPCL", "dateTime": 1517074997121}, {"current_trial": 128, "trialdata": {"rt": -1, "trial_type": "single-stim", "stimulus": "<p id=\"stim\">+</p>", "internal_node_id": "0.0-92.0-0.0", "time_elapsed": 742330, "key_press": -1, "type": "FIXATION", "trial_index": 128}, "uniqueid": "MTK2392:3NJM2BJS4XDRYDKC2Z7E6XNEOSSPCL", "dateTime": 1517074998624}, {"current_trial": 129, "trialdata": {"rt": -1000, "trial_type": "single-audio", "word": "ketchup", "stimulus": "/static/audio/wordpool/KETCHUP.wav", "conditions": [24, 1600, "a", 12000], "internal_node_id": "0.0-93.0", "trial": 3, "time_elapsed": 744990, "serialpos": 0, "key_press": -1, "wordID": 770, "type": "PRES_AUD", "trial_index": 129}, "uniqueid": "MTK2392:3NJM2BJS4XDRYDKC2Z7E6XNEOSSPCL", "dateTime": 1517075001284}, {"current_trial": 130, "trialdata": {"rt": -1000, "trial_type": "single-audio", "word": "dandruff", "stimulus": "/static/audio/wordpool/DANDRUFF.wav", "conditions": [24, 1600, "a", 12000], "internal_node_id": "0.0-94.0", "trial": 3, "time_elapsed": 747589, "serialpos": 1, "key_press": -1, "wordID": 438, "type": "PRES_AUD", "trial_index": 130}, "uniqueid": "MTK2392:3NJM2BJS4XDRYDKC2Z7E6XNEOSSPCL", "dateTime": 1517075003883}, {"current_trial": 131, "trialdata": {"rt": -1000, "trial_type": "single-audio", "word": "nomad", "stimulus": "/static/audio/wordpool/NOMAD.wav", "conditions": [24, 1600, "a", 12000], "internal_node_id": "0.0-95.0", "trial": 3, "time_elapsed": 750248, "serialpos": 2, "key_press": -1, "wordID": 954, "type": "PRES_AUD", "trial_index": 131}, "uniqueid": "MTK2392:3NJM2BJS4XDRYDKC2Z7E6XNEOSSPCL", "dateTime": 1517075006542}, {"current_trial": 132, "trialdata": {"rt": -1000, "trial_type": "single-audio", "word": "chest", "stimulus": "/static/audio/wordpool/CHEST.wav", "conditions": [24, 1600, "a", 12000], "internal_node_id": "0.0-96.0", "trial": 3, "time_elapsed": 752825, "serialpos": 3, "key_press": -1, "wordID": 294, "type": "PRES_AUD", "trial_index": 132}, "uniqueid": "MTK2392:3NJM2BJS4XDRYDKC2Z7E6XNEOSSPCL", "dateTime": 1517075009119}, {"current_trial": 133, "trialdata": {"rt": -1000, "trial_type": "single-audio", "word": "curtain", "stimulus": "/static/audio/wordpool/CURTAIN.wav", "conditions": [24, 1600, "a", 12000], "internal_node_id": "0.0-97.0", "trial": 3, "time_elapsed": 755565, "serialpos": 4, "key_press": -1, "wordID": 426, "type": "PRES_AUD", "trial_index": 133}, "uniqueid": "MTK2392:3NJM2BJS4XDRYDKC2Z7E6XNEOSSPCL", "dateTime": 1517075011859}, {"current_trial": 134, "trialdata": {"rt": -1000, "trial_type": "single-audio", "word": "europe", "stimulus": "/static/audio/wordpool/EUROPE.wav", "conditions": [24, 1600, "a", 12000], "internal_node_id": "0.0-98.0", "trial": 3, "time_elapsed": 758189, "serialpos": 5, "key_press": -1, "wordID": 540, "type": "PRES_AUD", "trial_index": 134}, "uniqueid": "MTK2392:3NJM2BJS4XDRYDKC2Z7E6XNEOSSPCL", "dateTime": 1517075014483}, {"current_trial": 135, "trialdata": {"rt": -1000, "trial_type": "single-audio", "word": "asia", "stimulus": "/static/audio/wordpool/ASIA.wav", "conditions": [24, 1600, "a", 12000], "internal_node_id": "0.0-99.0", "trial": 3, "time_elapsed": 760810, "serialpos": 6, "key_press": -1, "wordID": 45, "type": "PRES_AUD", "trial_index": 135}, "uniqueid": "MTK2392:3NJM2BJS4XDRYDKC2Z7E6XNEOSSPCL", "dateTime": 1517075017104}, {"current_trial": 136, "trialdata": {"rt": -1000, "trial_type": "single-audio", "word": "stomach", "stimulus": "/static/audio/wordpool/STOMACH.wav", "conditions": [24, 1600, "a", 12000], "internal_node_id": "0.0-100.0", "trial": 3, "time_elapsed": 763320, "serialpos": 7, "key_press": -1, "wordID": 1383, "type": "PRES_AUD", "trial_index": 136}, "uniqueid": "MTK2392:3NJM2BJS4XDRYDKC2Z7E6XNEOSSPCL", "dateTime": 1517075019614}, {"current_trial": 137, "trialdata": {"rt": -1000, "trial_type": "single-audio", "word": "diver", "stimulus": "/static/audio/wordpool/DIVER.wav", "conditions": [24, 1600, "a", 12000], "internal_node_id": "0.0-101.0", "trial": 3, "time_elapsed": 765900, "serialpos": 8, "key_press": -1, "wordID": 475, "type": "PRES_AUD", "trial_index": 137}, "uniqueid": "MTK2392:3NJM2BJS4XDRYDKC2Z7E6XNEOSSPCL", "dateTime": 1517075022194}, {"current_trial": 138, "trialdata": {"rt": -1000, "trial_type": "single-audio", "word": "badge", "stimulus": "/static/audio/wordpool/BADGE.wav", "conditions": [24, 1600, "a", 12000], "internal_node_id": "0.0-102.0", "trial": 3, "time_elapsed": 768423, "serialpos": 9, "key_press": -1, "wordID": 67, "type": "PRES_AUD", "trial_index": 138}, "uniqueid": "MTK2392:3NJM2BJS4XDRYDKC2Z7E6XNEOSSPCL", "dateTime": 1517075024717}, {"current_trial": 139, "trialdata": {"rt": -1000, "trial_type": "single-audio", "word": "blockade", "stimulus": "/static/audio/wordpool/BLOCKADE.wav", "conditions": [24, 1600, "a", 12000], "internal_node_id": "0.0-103.0", "trial": 3, "time_elapsed": 770930, "serialpos": 10, "key_press": -1, "wordID": 136, "type": "PRES_AUD", "trial_index": 139}, "uniqueid": "MTK2392:3NJM2BJS4XDRYDKC2Z7E6XNEOSSPCL", "dateTime": 1517075027224}, {"current_trial": 140, "trialdata": {"rt": -1000, "trial_type": "single-audio", "word": "fiddle", "stimulus": "/static/audio/wordpool/FIDDLE.wav", "conditions": [24, 1600, "a", 12000], "internal_node_id": "0.0-104.0", "trial": 3, "time_elapsed": 773479, "serialpos": 11, "key_press": -1, "wordID": 560, "type": "PRES_AUD", "trial_index": 140}, "uniqueid": "MTK2392:3NJM2BJS4XDRYDKC2Z7E6XNEOSSPCL", "dateTime": 1517075029773}, {"current_trial": 141, "trialdata": {"rt": -1000, "trial_type": "single-audio", "word": "ankle", "stimulus": "/static/audio/wordpool/ANKLE.wav", "conditions": [24, 1600, "a", 12000], "internal_node_id": "0.0-105.0", "trial": 3, "time_elapsed": 775957, "serialpos": 12, "key_press": -1, "wordID": 23, "type": "PRES_AUD", "trial_index": 141}, "uniqueid": "MTK2392:3NJM2BJS4XDRYDKC2Z7E6XNEOSSPCL", "dateTime": 1517075032251}, {"current_trial": 142, "trialdata": {"rt": -1000, "trial_type": "single-audio", "word": "rust", "stimulus": "/static/audio/wordpool/RUST.wav", "conditions": [24, 1600, "a", 12000], "internal_node_id": "0.0-106.0", "trial": 3, "time_elapsed": 778761, "serialpos": 13, "key_press": -1, "wordID": 1218, "type": "PRES_AUD", "trial_index": 142}, "uniqueid": "MTK2392:3NJM2BJS4XDRYDKC2Z7E6XNEOSSPCL", "dateTime": 1517075035055}, {"current_trial": 143, "trialdata": {"rt": -1000, "trial_type": "single-audio", "word": "candy", "stimulus": "/static/audio/wordpool/CANDY.wav", "conditions": [24, 1600, "a", 12000], "internal_node_id": "0.0-107.0", "trial": 3, "time_elapsed": 781515, "serialpos": 14, "key_press": -1, "wordID": 229, "type": "PRES_AUD", "trial_index": 143}, "uniqueid": "MTK2392:3NJM2BJS4XDRYDKC2Z7E6XNEOSSPCL", "dateTime": 1517075037810}, {"current_trial": 144, "trialdata": {"rt": -1000, "trial_type": "single-audio", "word": "ox", "stimulus": "/static/audio/wordpool/OX.wav", "conditions": [24, 1600, "a", 12000], "internal_node_id": "0.0-108.0", "trial": 3, "time_elapsed": 784177, "serialpos": 15, "key_press": -1, "wordID": 993, "type": "PRES_AUD", "trial_index": 144}, "uniqueid": "MTK2392:3NJM2BJS4XDRYDKC2Z7E6XNEOSSPCL", "dateTime": 1517075040471}, {"current_trial": 145, "trialdata": {"rt": -1000, "trial_type": "single-audio", "word": "child", "stimulus": "/static/audio/wordpool/CHILD.wav", "conditions": [24, 1600, "a", 12000], "internal_node_id": "0.0-109.0", "trial": 3, "time_elapsed": 786778, "serialpos": 16, "key_press": -1, "wordID": 298, "type": "PRES_AUD", "trial_index": 145}, "uniqueid": "MTK2392:3NJM2BJS4XDRYDKC2Z7E6XNEOSSPCL", "dateTime": 1517075043072}, {"current_trial": 146, "trialdata": {"rt": -1000, "trial_type": "single-audio", "word": "freezer", "stimulus": "/static/audio/wordpool/FREEZER.wav", "conditions": [24, 1600, "a", 12000], "internal_node_id": "0.0-110.0", "trial": 3, "time_elapsed": 789262, "serialpos": 17, "key_press": -1, "wordID": 603, "type": "PRES_AUD", "trial_index": 146}, "uniqueid": "MTK2392:3NJM2BJS4XDRYDKC2Z7E6XNEOSSPCL", "dateTime": 1517075045556}, {"current_trial": 147, "trialdata": {"rt": -1000, "trial_type": "single-audio", "word": "scarecrow", "stimulus": "/static/audio/wordpool/SCARECROW.wav", "conditions": [24, 1600, "a", 12000], "internal_node_id": "0.0-111.0", "trial": 3, "time_elapsed": 791863, "serialpos": 18, "key_press": -1, "wordID": 1244, "type": "PRES_AUD", "trial_index": 147}, "uniqueid": "MTK2392:3NJM2BJS4XDRYDKC2Z7E6XNEOSSPCL", "dateTime": 1517075048157}, {"current_trial": 148, "trialdata": {"rt": -1000, "trial_type": "single-audio", "word": "costume", "stimulus": "/static/audio/wordpool/COSTUME.wav", "conditions": [24, 1600, "a", 12000], "internal_node_id": "0.0-112.0", "trial": 3, "time_elapsed": 794388, "serialpos": 19, "key_press": -1, "wordID": 382, "type": "PRES_AUD", "trial_index": 148}, "uniqueid": "MTK2392:3NJM2BJS4XDRYDKC2Z7E6XNEOSSPCL", "dateTime": 1517075050682}, {"current_trial": 149, "trialdata": {"rt": -1000, "trial_type": "single-audio", "word": "leg", "stimulus": "/static/audio/wordpool/LEG.wav", "conditions": [24, 1600, "a", 12000], "internal_node_id": "0.0-113.0", "trial": 3, "time_elapsed": 796824, "serialpos": 20, "key_press": -1, "wordID": 808, "type": "PRES_AUD", "trial_index": 149}, "uniqueid": "MTK2392:3NJM2BJS4XDRYDKC2Z7E6XNEOSSPCL", "dateTime": 1517075053118}, {"current_trial": 150, "trialdata": {"rt": -1000, "trial_type": "single-audio", "word": "dancer", "stimulus": "/static/audio/wordpool/DANCER.wav", "conditions": [24, 1600, "a", 12000], "internal_node_id": "0.0-114.0", "trial": 3, "time_elapsed": 799432, "serialpos": 21, "key_press": -1, "wordID": 436, "type": "PRES_AUD", "trial_index": 150}, "uniqueid": "MTK2392:3NJM2BJS4XDRYDKC2Z7E6XNEOSSPCL", "dateTime": 1517075055726}, {"current_trial": 151, "trialdata": {"rt": -1000, "trial_type": "single-audio", "word": "poet", "stimulus": "/static/audio/wordpool/POET.wav", "conditions": [24, 1600, "a", 12000], "internal_node_id": "0.0-115.0", "trial": 3, "time_elapsed": 801975, "serialpos": 22, "key_press": -1, "wordID": 1094, "type": "PRES_AUD", "trial_index": 151}, "uniqueid": "MTK2392:3NJM2BJS4XDRYDKC2Z7E6XNEOSSPCL", "dateTime": 1517075058269}, {"current_trial": 152, "trialdata": {"rt": -1000, "trial_type": "single-audio", "word": "fireman", "stimulus": "/static/audio/wordpool/FIREMAN.wav", "conditions": [24, 1600, "a", 12000], "internal_node_id": "0.0-116.0", "trial": 3, "time_elapsed": 804552, "serialpos": 23, "key_press": -1, "wordID": 568, "type": "PRES_AUD", "trial_index": 152}, "uniqueid": "MTK2392:3NJM2BJS4XDRYDKC2Z7E6XNEOSSPCL", "dateTime": 1517075060846}, {"current_trial": 153, "trialdata": {"rt": -1, "trial_type": "single-stim", "stimulus": "", "internal_node_id": "0.0-117.0-0.0", "time_elapsed": 805841, "key_press": -1, "type": "PRE_RECALL_DELAY", "trial_index": 153}, "uniqueid": "MTK2392:3NJM2BJS4XDRYDKC2Z7E6XNEOSSPCL", "dateTime": 1517075062135}, {"current_trial": 154, "trialdata": {"rt": -1000, "trial_type": "single-audio", "stimulus": "/static/audio/400Hz.wav", "internal_node_id": "0.0-118.0", "time_elapsed": 806342, "key_press": -1, "type": "PRE_RECALL_ALERT", "trial_index": 154}, "uniqueid": "MTK2392:3NJM2BJS4XDRYDKC2Z7E6XNEOSSPCL", "dateTime": 1517075062636}, {"current_trial": 155, "trialdata": {"rt": [1251, 2987, 5587, 8491, 10251, 12211, 13771, 17355, 23388, 26476], "recwords": ["fireman", "poet", "scarecrow", "costume", "dandruff", "europe", "asia", "blockade", "dandruff", "ox"], "key_times": [485, 515, 635, 707, 819, 955, 1027, 1251, 1595, 1708, 2051, 2171, 2987, 3555, 3787, 4115, 4235, 4315, 4643, 4763, 4931, 5059, 5587, 5883, 6003, 6547, 6683, 6779, 6907, 7075, 7307, 7387, 7579, 7659, 8491, 8723, 8867, 8915, 9027, 9219, 9331, 9451, 9611, 10251, 10884, 11003, 11203, 11467, 11795, 11931, 12211, 12499, 12627, 12851, 13043, 13771, 15275, 15355, 15539, 15627, 15723, 15899, 16067, 16227, 16748, 16891, 16971, 17187, 17355, 22132, 22244, 22283, 22436, 22820, 22972, 23076, 23252, 23388, 26052, 26180, 26476], "trial_type": "free-recall", "conditions": [24, 1600, "a", 12000], "internal_node_id": "0.0-119.0-0.0", "key_presses": [70, 73, 82, 69, 77, 65, 78, 32, 80, 79, 69, 84, 32, 83, 67, 65, 82, 69, 67, 82, 79, 87, 32, 83, 79, 8, 8, 67, 79, 83, 84, 85, 77, 69, 32, 68, 65, 78, 68, 82, 85, 70, 70, 32, 69, 85, 82, 79, 80, 69, 32, 65, 83, 73, 65, 32, 66, 76, 79, 67, 75, 65, 71, 69, 8, 8, 68, 69, 32, 68, 65, 78, 68, 82, 85, 70, 70, 32, 79, 88, 32], "trial": 3, "time_elapsed": 866347, "type": "FREE_RECALL", "trial_index": 155}, "uniqueid": "MTK2392:3NJM2BJS4XDRYDKC2Z7E6XNEOSSPCL", "dateTime": 1517075122644}, {"current_trial": 156, "trialdata": {"rt": 1813, "trial_type": "text", "internal_node_id": "0.0-120.0", "time_elapsed": 870167, "key_press": 32, "type": "INSTRUCTIONS", "trial_index": 156}, "uniqueid": "MTK2392:3NJM2BJS4XDRYDKC2Z7E6XNEOSSPCL", "dateTime": 1517075126461}, {"current_trial": 157, "trialdata": {"rt": [1885, 3381, 5181, 7229, 8605, 10317, 11765, 13893, 15805, 18429, 19821, 21372, 23428], "trial_type": "math-distractor", "key_times": [1573, 1725, 1885, 3085, 3197, 3381, 4869, 5045, 5181, 6869, 7077, 7229, 8293, 8453, 8605, 9949, 10045, 10317, 11261, 11453, 11765, 13197, 13701, 13893, 15245, 15621, 15805, 17948, 18213, 18429, 19500, 19597, 19821, 21020, 21372, 22876, 23060, 23428], "responses": ["15", "14", "11", "15", "13", "18", "17", "16", "16", "16", "20", "8", "17"], "num2": [4, 8, 3, 3, 6, 9, 8, 1, 9, 4, 7, 6, 8, 3], "num3": [9, 3, 6, 3, 2, 6, 1, 6, 2, 3, 5, 2, 2, 8], "conditions": [12, 800, "a", 24000], "internal_node_id": "0.0-121.0", "key_presses": [49, 53, 13, 49, 52, 13, 49, 49, 13, 49, 53, 13, 49, 51, 13, 49, 56, 13, 49, 55, 13, 49, 54, 13, 49, 54, 13, 49, 54, 13, 50, 48, 13, 56, 13, 49, 55, 13], "trial": 4, "time_elapsed": 896173, "type": "DISTRACTOR", "trial_index": 157, "num1": [2, 3, 2, 9, 5, 3, 8, 9, 5, 9, 8, 1, 7, 3]}, "uniqueid": "MTK2392:3NJM2BJS4XDRYDKC2Z7E6XNEOSSPCL", "dateTime": 1517075152467}, {"current_trial": 158, "trialdata": {"rt": -1, "trial_type": "single-stim", "stimulus": "<p id=\"stim\">10</p>", "internal_node_id": "0.0-122.0-0.0", "time_elapsed": 899179, "key_press": -1, "trial_index": 158}, "uniqueid": "MTK2392:3NJM2BJS4XDRYDKC2Z7E6XNEOSSPCL", "dateTime": 1517075155473}, {"current_trial": 159, "trialdata": {"rt": -1, "trial_type": "single-stim", "stimulus": "<p id=\"stim\">9</p>", "internal_node_id": "0.0-122.0-1.0", "time_elapsed": 900183, "key_press": -1, "trial_index": 159}, "uniqueid": "MTK2392:3NJM2BJS4XDRYDKC2Z7E6XNEOSSPCL", "dateTime": 1517075156478}, {"current_trial": 160, "trialdata": {"rt": -1, "trial_type": "single-stim", "stimulus": "<p id=\"stim\">8</p>", "internal_node_id": "0.0-122.0-2.0", "time_elapsed": 901187, "key_press": -1, "trial_index": 160}, "uniqueid": "MTK2392:3NJM2BJS4XDRYDKC2Z7E6XNEOSSPCL", "dateTime": 1517075157481}, {"current_trial": 161, "trialdata": {"rt": -1, "trial_type": "single-stim", "stimulus": "<p id=\"stim\">7</p>", "internal_node_id": "0.0-122.0-3.0", "time_elapsed": 902191, "key_press": -1, "trial_index": 161}, "uniqueid": "MTK2392:3NJM2BJS4XDRYDKC2Z7E6XNEOSSPCL", "dateTime": 1517075158486}, {"current_trial": 162, "trialdata": {"rt": -1, "trial_type": "single-stim", "stimulus": "<p id=\"stim\">6</p>", "internal_node_id": "0.0-122.0-4.0", "time_elapsed": 903196, "key_press": -1, "trial_index": 162}, "uniqueid": "MTK2392:3NJM2BJS4XDRYDKC2Z7E6XNEOSSPCL", "dateTime": 1517075159490}, {"current_trial": 163, "trialdata": {"rt": -1, "trial_type": "single-stim", "stimulus": "<p id=\"stim\">5</p>", "internal_node_id": "0.0-122.0-5.0", "time_elapsed": 904200, "key_press": -1, "trial_index": 163}, "uniqueid": "MTK2392:3NJM2BJS4XDRYDKC2Z7E6XNEOSSPCL", "dateTime": 1517075160494}, {"current_trial": 164, "trialdata": {"rt": -1, "trial_type": "single-stim", "stimulus": "<p id=\"stim\">4</p>", "internal_node_id": "0.0-122.0-6.0", "time_elapsed": 905204, "key_press": -1, "trial_index": 164}, "uniqueid": "MTK2392:3NJM2BJS4XDRYDKC2Z7E6XNEOSSPCL", "dateTime": 1517075161498}, {"current_trial": 165, "trialdata": {"rt": -1, "trial_type": "single-stim", "stimulus": "<p id=\"stim\">3</p>", "internal_node_id": "0.0-122.0-7.0", "time_elapsed": 906208, "key_press": -1, "trial_index": 165}, "uniqueid": "MTK2392:3NJM2BJS4XDRYDKC2Z7E6XNEOSSPCL", "dateTime": 1517075162502}, {"current_trial": 166, "trialdata": {"rt": -1, "trial_type": "single-stim", "stimulus": "<p id=\"stim\">2</p>", "internal_node_id": "0.0-122.0-8.0", "time_elapsed": 907212, "key_press": -1, "trial_index": 166}, "uniqueid": "MTK2392:3NJM2BJS4XDRYDKC2Z7E6XNEOSSPCL", "dateTime": 1517075163506}, {"current_trial": 167, "trialdata": {"rt": -1, "trial_type": "single-stim", "stimulus": "<p id=\"stim\">1</p>", "internal_node_id": "0.0-122.0-9.0", "time_elapsed": 908216, "key_press": -1, "trial_index": 167}, "uniqueid": "MTK2392:3NJM2BJS4XDRYDKC2Z7E6XNEOSSPCL", "dateTime": 1517075164510}, {"current_trial": 168, "trialdata": {"rt": -1, "trial_type": "single-stim", "stimulus": "<p id=\"stim\">+</p>", "internal_node_id": "0.0-123.0-0.0", "time_elapsed": 909719, "key_press": -1, "type": "FIXATION", "trial_index": 168}, "uniqueid": "MTK2392:3NJM2BJS4XDRYDKC2Z7E6XNEOSSPCL", "dateTime": 1517075166013}, {"current_trial": 169, "trialdata": {"rt": -1000, "trial_type": "single-audio", "word": "bunny", "stimulus": "/static/audio/wordpool/BUNNY.wav", "conditions": [12, 800, "a", 24000], "internal_node_id": "0.0-124.0", "trial": 4, "time_elapsed": 911388, "serialpos": 0, "key_press": -1, "wordID": 197, "type": "PRES_AUD", "trial_index": 169}, "uniqueid": "MTK2392:3NJM2BJS4XDRYDKC2Z7E6XNEOSSPCL", "dateTime": 1517075167682}, {"current_trial": 170, "trialdata": {"rt": -1000, "trial_type": "single-audio", "word": "lizard", "stimulus": "/static/audio/wordpool/LIZARD.wav", "conditions": [12, 800, "a", 24000], "internal_node_id": "0.0-125.0", "trial": 4, "time_elapsed": 913242, "serialpos": 1, "key_press": -1, "wordID": 833, "type": "PRES_AUD", "trial_index": 170}, "uniqueid": "MTK2392:3NJM2BJS4XDRYDKC2Z7E6XNEOSSPCL", "dateTime": 1517075169536}, {"current_trial": 171, "trialdata": {"rt": -1000, "trial_type": "single-audio", "word": "ulcer", "stimulus": "/static/audio/wordpool/ULCER.wav", "conditions": [12, 800, "a", 24000], "internal_node_id": "0.0-126.0", "trial": 4, "time_elapsed": 915076, "serialpos": 2, "key_press": -1, "wordID": 1532, "type": "PRES_AUD", "trial_index": 171}, "uniqueid": "MTK2392:3NJM2BJS4XDRYDKC2Z7E6XNEOSSPCL", "dateTime": 1517075171370}, {"current_trial": 172, "trialdata": {"rt": -1000, "trial_type": "single-audio", "word": "award", "stimulus": "/static/audio/wordpool/AWARD.wav", "conditions": [12, 800, "a", 24000], "internal_node_id": "0.0-127.0", "trial": 4, "time_elapsed": 916765, "serialpos": 3, "key_press": -1, "wordID": 62, "type": "PRES_AUD", "trial_index": 172}, "uniqueid": "MTK2392:3NJM2BJS4XDRYDKC2Z7E6XNEOSSPCL", "dateTime": 1517075173059}, {"current_trial": 173, "trialdata": {"rt": -1000, "trial_type": "single-audio", "word": "machine", "stimulus": "/static/audio/wordpool/MACHINE.wav", "conditions": [12, 800, "a", 24000], "internal_node_id": "0.0-128.0", "trial": 4, "time_elapsed": 918449, "serialpos": 4, "key_press": -1, "wordID": 851, "type": "PRES_AUD", "trial_index": 173}, "uniqueid": "MTK2392:3NJM2BJS4XDRYDKC2Z7E6XNEOSSPCL", "dateTime": 1517075174743}, {"current_trial": 174, "trialdata": {"rt": -1000, "trial_type": "single-audio", "word": "turkey", "stimulus": "/static/audio/wordpool/TURKEY.wav", "conditions": [12, 800, "a", 24000], "internal_node_id": "0.0-129.0", "trial": 4, "time_elapsed": 920173, "serialpos": 5, "key_press": -1, "wordID": 1519, "type": "PRES_AUD", "trial_index": 174}, "uniqueid": "MTK2392:3NJM2BJS4XDRYDKC2Z7E6XNEOSSPCL", "dateTime": 1517075176467}, {"current_trial": 175, "trialdata": {"rt": -1000, "trial_type": "single-audio", "word": "swamp", "stimulus": "/static/audio/wordpool/SWAMP.wav", "conditions": [12, 800, "a", 24000], "internal_node_id": "0.0-130.0", "trial": 4, "time_elapsed": 921972, "serialpos": 6, "key_press": -1, "wordID": 1415, "type": "PRES_AUD", "trial_index": 175}, "uniqueid": "MTK2392:3NJM2BJS4XDRYDKC2Z7E6XNEOSSPCL", "dateTime": 1517075178266}, {"current_trial": 176, "trialdata": {"rt": -1000, "trial_type": "single-audio", "word": "flower", "stimulus": "/static/audio/wordpool/FLOWER.wav", "conditions": [12, 800, "a", 24000], "internal_node_id": "0.0-131.0", "trial": 4, "time_elapsed": 923754, "serialpos": 7, "key_press": -1, "wordID": 583, "type": "PRES_AUD", "trial_index": 176}, "uniqueid": "MTK2392:3NJM2BJS4XDRYDKC2Z7E6XNEOSSPCL", "dateTime": 1517075180048}, {"current_trial": 177, "trialdata": {"rt": -1000, "trial_type": "single-audio", "word": "daisy", "stimulus": "/static/audio/wordpool/DAISY.wav", "conditions": [12, 800, "a", 24000], "internal_node_id": "0.0-132.0", "trial": 4, "time_elapsed": 925501, "serialpos": 8, "key_press": -1, "wordID": 434, "type": "PRES_AUD", "trial_index": 177}, "uniqueid": "MTK2392:3NJM2BJS4XDRYDKC2Z7E6XNEOSSPCL", "dateTime": 1517075181795}, {"current_trial": 178, "trialdata": {"rt": -1000, "trial_type": "single-audio", "word": "quail", "stimulus": "/static/audio/wordpool/QUAIL.wav", "conditions": [12, 800, "a", 24000], "internal_node_id": "0.0-133.0", "trial": 4, "time_elapsed": 927104, "serialpos": 9, "key_press": -1, "wordID": 1146, "type": "PRES_AUD", "trial_index": 178}, "uniqueid": "MTK2392:3NJM2BJS4XDRYDKC2Z7E6XNEOSSPCL", "dateTime": 1517075183398}, {"current_trial": 179, "trialdata": {"rt": -1000, "trial_type": "single-audio", "word": "queen", "stimulus": "/static/audio/wordpool/QUEEN.wav", "conditions": [12, 800, "a", 24000], "internal_node_id": "0.0-134.0", "trial": 4, "time_elapsed": 928874, "serialpos": 10, "key_press": -1, "wordID": 1148, "type": "PRES_AUD", "trial_index": 179}, "uniqueid": "MTK2392:3NJM2BJS4XDRYDKC2Z7E6XNEOSSPCL", "dateTime": 1517075185168}, {"current_trial": 180, "trialdata": {"rt": -1000, "trial_type": "single-audio", "word": "pigment", "stimulus": "/static/audio/wordpool/PIGMENT.wav", "conditions": [12, 800, "a", 24000], "internal_node_id": "0.0-135.0", "trial": 4, "time_elapsed": 930685, "serialpos": 11, "key_press": -1, "wordID": 1065, "type": "PRES_AUD", "trial_index": 180}, "uniqueid": "MTK2392:3NJM2BJS4XDRYDKC2Z7E6XNEOSSPCL", "dateTime": 1517075186979}, {"current_trial": 181, "trialdata": {"rt": -1, "trial_type": "single-stim", "stimulus": "", "internal_node_id": "0.0-136.0-0.0", "time_elapsed": 932020, "key_press": -1, "type": "PRE_RECALL_DELAY", "trial_index": 181}, "uniqueid": "MTK2392:3NJM2BJS4XDRYDKC2Z7E6XNEOSSPCL", "dateTime": 1517075188315}, {"current_trial": 182, "trialdata": {"rt": -1000, "trial_type": "single-audio", "stimulus": "/static/audio/400Hz.wav", "internal_node_id": "0.0-137.0", "time_elapsed": 932522, "key_press": -1, "type": "PRE_RECALL_ALERT", "trial_index": 182}, "uniqueid": "MTK2392:3NJM2BJS4XDRYDKC2Z7E6XNEOSSPCL", "dateTime": 1517075188816}, {"current_trial": 183, "trialdata": {"rt": [1861, 4277, 5677, 7612, 10029, 11509, 14245], "recwords": ["pigment", "quail", "queen", "bunny", "lizard", "pigment", "swamp"], "key_times": [606, 700, 821, 941, 1077, 1157, 1237, 1861, 2525, 2613, 2773, 2885, 3429, 3613, 3805, 4277, 4661, 4757, 4877, 5037, 5165, 5677, 5916, 6021, 6237, 6373, 6581, 7612, 8596, 8660, 8781, 9037, 9133, 9325, 10029, 10517, 10605, 10749, 10877, 11021, 11109, 11213, 11509, 13245, 13477, 13620, 13700, 13837, 14245], "trial_type": "free-recall", "conditions": [12, 800, "a", 24000], "internal_node_id": "0.0-138.0-0.0", "key_presses": [80, 73, 71, 77, 69, 78, 84, 32, 81, 85, 65, 76, 8, 73, 76, 32, 81, 85, 69, 69, 78, 32, 66, 85, 78, 78, 89, 32, 76, 73, 90, 65, 82, 68, 32, 80, 73, 71, 77, 69, 78, 84, 32, 83, 87, 65, 77, 80, 32], "trial": 4, "time_elapsed": 992527, "type": "FREE_RECALL", "trial_index": 183}, "uniqueid": "MTK2392:3NJM2BJS4XDRYDKC2Z7E6XNEOSSPCL", "dateTime": 1517075248823}, {"current_trial": 184, "trialdata": {"rt": 1258, "trial_type": "text", "internal_node_id": "0.0-139.0", "time_elapsed": 995793, "key_press": 32, "type": "INSTRUCTIONS", "trial_index": 184}, "uniqueid": "MTK2392:3NJM2BJS4XDRYDKC2Z7E6XNEOSSPCL", "dateTime": 1517075252087}, {"current_trial": 185, "trialdata": {"rt": [2612, 3972, 5228, 6884, 8556, 10004, 12420, 14172, 15548, 17044, 19588, 20940, 23644], "trial_type": "math-distractor", "key_times": [2172, 2324, 2612, 3636, 3805, 3972, 4892, 5012, 5228, 6620, 6884, 8205, 8412, 8556, 9636, 9740, 10004, 12052, 12172, 12420, 13596, 13748, 14172, 15228, 15324, 15548, 16700, 16820, 17044, 19189, 19340, 19588, 20612, 20804, 20940, 22324, 23268, 23644], "responses": ["22", "13", "10", "9", "15", "19", "19", "14", "19", "19", "17", "12", "17"], "num2": [9, 3, 2, 1, 1, 9, 6, 7, 8, 6, 8, 3, 9, 7], "num3": [8, 5, 1, 3, 6, 1, 8, 3, 8, 9, 5, 2, 3, 3], "conditions": [24, 800, "a", 24000], "internal_node_id": "0.0-140.0", "key_presses": [50, 50, 13, 49, 51, 13, 49, 48, 13, 57, 13, 49, 53, 13, 49, 57, 13, 49, 57, 13, 49, 52, 13, 49, 57, 13, 49, 57, 13, 49, 55, 13, 49, 50, 13, 49, 55, 13], "trial": 5, "time_elapsed": 1021796, "type": "DISTRACTOR", "trial_index": 185, "num1": [5, 5, 7, 5, 8, 9, 5, 4, 3, 4, 4, 7, 5, 4]}, "uniqueid": "MTK2392:3NJM2BJS4XDRYDKC2Z7E6XNEOSSPCL", "dateTime": 1517075278090}, {"current_trial": 186, "trialdata": {"rt": -1, "trial_type": "single-stim", "stimulus": "<p id=\"stim\">10</p>", "internal_node_id": "0.0-141.0-0.0", "time_elapsed": 1024800, "key_press": -1, "trial_index": 186}, "uniqueid": "MTK2392:3NJM2BJS4XDRYDKC2Z7E6XNEOSSPCL", "dateTime": 1517075281094}, {"current_trial": 187, "trialdata": {"rt": -1, "trial_type": "single-stim", "stimulus": "<p id=\"stim\">9</p>", "internal_node_id": "0.0-141.0-1.0", "time_elapsed": 1025802, "key_press": -1, "trial_index": 187}, "uniqueid": "MTK2392:3NJM2BJS4XDRYDKC2Z7E6XNEOSSPCL", "dateTime": 1517075282096}, {"current_trial": 188, "trialdata": {"rt": -1, "trial_type": "single-stim", "stimulus": "<p id=\"stim\">8</p>", "internal_node_id": "0.0-141.0-2.0", "time_elapsed": 1026804, "key_press": -1, "trial_index": 188}, "uniqueid": "MTK2392:3NJM2BJS4XDRYDKC2Z7E6XNEOSSPCL", "dateTime": 1517075283098}, {"current_trial": 189, "trialdata": {"rt": -1, "trial_type": "single-stim", "stimulus": "<p id=\"stim\">7</p>", "internal_node_id": "0.0-141.0-3.0", "time_elapsed": 1027808, "key_press": -1, "trial_index": 189}, "uniqueid": "MTK2392:3NJM2BJS4XDRYDKC2Z7E6XNEOSSPCL", "dateTime": 1517075284102}, {"current_trial": 190, "trialdata": {"rt": -1, "trial_type": "single-stim", "stimulus": "<p id=\"stim\">6</p>", "internal_node_id": "0.0-141.0-4.0", "time_elapsed": 1028812, "key_press": -1, "trial_index": 190}, "uniqueid": "MTK2392:3NJM2BJS4XDRYDKC2Z7E6XNEOSSPCL", "dateTime": 1517075285106}, {"current_trial": 191, "trialdata": {"rt": -1, "trial_type": "single-stim", "stimulus": "<p id=\"stim\">5</p>", "internal_node_id": "0.0-141.0-5.0", "time_elapsed": 1029816, "key_press": -1, "trial_index": 191}, "uniqueid": "MTK2392:3NJM2BJS4XDRYDKC2Z7E6XNEOSSPCL", "dateTime": 1517075286110}, {"current_trial": 192, "trialdata": {"rt": -1, "trial_type": "single-stim", "stimulus": "<p id=\"stim\">4</p>", "internal_node_id": "0.0-141.0-6.0", "time_elapsed": 1030820, "key_press": -1, "trial_index": 192}, "uniqueid": "MTK2392:3NJM2BJS4XDRYDKC2Z7E6XNEOSSPCL", "dateTime": 1517075287114}, {"current_trial": 193, "trialdata": {"rt": -1, "trial_type": "single-stim", "stimulus": "<p id=\"stim\">3</p>", "internal_node_id": "0.0-141.0-7.0", "time_elapsed": 1031824, "key_press": -1, "trial_index": 193}, "uniqueid": "MTK2392:3NJM2BJS4XDRYDKC2Z7E6XNEOSSPCL", "dateTime": 1517075288118}, {"current_trial": 194, "trialdata": {"rt": -1, "trial_type": "single-stim", "stimulus": "<p id=\"stim\">2</p>", "internal_node_id": "0.0-141.0-8.0", "time_elapsed": 1032828, "key_press": -1, "trial_index": 194}, "uniqueid": "MTK2392:3NJM2BJS4XDRYDKC2Z7E6XNEOSSPCL", "dateTime": 1517075289122}, {"current_trial": 195, "trialdata": {"rt": -1, "trial_type": "single-stim", "stimulus": "<p id=\"stim\">1</p>", "internal_node_id": "0.0-141.0-9.0", "time_elapsed": 1033833, "key_press": -1, "trial_index": 195}, "uniqueid": "MTK2392:3NJM2BJS4XDRYDKC2Z7E6XNEOSSPCL", "dateTime": 1517075290127}, {"current_trial": 196, "trialdata": {"rt": -1, "trial_type": "single-stim", "stimulus": "<p id=\"stim\">+</p>", "internal_node_id": "0.0-142.0-0.0", "time_elapsed": 1035336, "key_press": -1, "type": "FIXATION", "trial_index": 196}, "uniqueid": "MTK2392:3NJM2BJS4XDRYDKC2Z7E6XNEOSSPCL", "dateTime": 1517075291630}, {"current_trial": 197, "trialdata": {"rt": -1000, "trial_type": "single-audio", "word": "picnic", "stimulus": "/static/audio/wordpool/PICNIC.wav", "conditions": [24, 800, "a", 24000], "internal_node_id": "0.0-143.0", "trial": 5, "time_elapsed": 1037049, "serialpos": 0, "key_press": -1, "wordID": 1059, "type": "PRES_AUD", "trial_index": 197}, "uniqueid": "MTK2392:3NJM2BJS4XDRYDKC2Z7E6XNEOSSPCL", "dateTime": 1517075293343}, {"current_trial": 198, "trialdata": {"rt": -1000, "trial_type": "single-audio", "word": "pecan", "stimulus": "/static/audio/wordpool/PECAN.wav", "conditions": [24, 800, "a", 24000], "internal_node_id": "0.0-144.0", "trial": 5, "time_elapsed": 1039023, "serialpos": 1, "key_press": -1, "wordID": 1035, "type": "PRES_AUD", "trial_index": 198}, "uniqueid": "MTK2392:3NJM2BJS4XDRYDKC2Z7E6XNEOSSPCL", "dateTime": 1517075295317}, {"current_trial": 199, "trialdata": {"rt": -1000, "trial_type": "single-audio", "word": "friend", "stimulus": "/static/audio/wordpool/FRIEND.wav", "conditions": [24, 800, "a", 24000], "internal_node_id": "0.0-145.0", "trial": 5, "time_elapsed": 1040665, "serialpos": 2, "key_press": -1, "wordID": 605, "type": "PRES_AUD", "trial_index": 199}, "uniqueid": "MTK2392:3NJM2BJS4XDRYDKC2Z7E6XNEOSSPCL", "dateTime": 1517075296959}, {"current_trial": 200, "trialdata": {"rt": -1000, "trial_type": "single-audio", "word": "suitcase", "stimulus": "/static/audio/wordpool/SUITCASE.wav", "conditions": [24, 800, "a", 24000], "internal_node_id": "0.0-146.0", "trial": 5, "time_elapsed": 1042471, "serialpos": 3, "key_press": -1, "wordID": 1402, "type": "PRES_AUD", "trial_index": 200}, "uniqueid": "MTK2392:3NJM2BJS4XDRYDKC2Z7E6XNEOSSPCL", "dateTime": 1517075298765}, {"current_trial": 201, "trialdata": {"rt": -1000, "trial_type": "single-audio", "word": "piano", "stimulus": "/static/audio/wordpool/PIANO.wav", "conditions": [24, 800, "a", 24000], "internal_node_id": "0.0-147.0", "trial": 5, "time_elapsed": 1044142, "serialpos": 4, "key_press": -1, "wordID": 1056, "type": "PRES_AUD", "trial_index": 201}, "uniqueid": "MTK2392:3NJM2BJS4XDRYDKC2Z7E6XNEOSSPCL", "dateTime": 1517075300437}, {"current_trial": 202, "trialdata": {"rt": -1000, "trial_type": "single-audio", "word": "clock", "stimulus": "/static/audio/wordpool/CLOCK.wav", "conditions": [24, 800, "a", 24000], "internal_node_id": "0.0-148.0", "trial": 5, "time_elapsed": 1046145, "serialpos": 5, "key_press": -1, "wordID": 324, "type": "PRES_AUD", "trial_index": 202}, "uniqueid": "MTK2392:3NJM2BJS4XDRYDKC2Z7E6XNEOSSPCL", "dateTime": 1517075302439}, {"current_trial": 203, "trialdata": {"rt": -1000, "trial_type": "single-audio", "word": "daughter", "stimulus": "/static/audio/wordpool/DAUGHTER.wav", "conditions": [24, 800, "a", 24000], "internal_node_id": "0.0-149.0", "trial": 5, "time_elapsed": 1047893, "serialpos": 6, "key_press": -1, "wordID": 441, "type": "PRES_AUD", "trial_index": 203}, "uniqueid": "MTK2392:3NJM2BJS4XDRYDKC2Z7E6XNEOSSPCL", "dateTime": 1517075304187}, {"current_trial": 204, "trialdata": {"rt": -1000, "trial_type": "single-audio", "word": "supper", "stimulus": "/static/audio/wordpool/SUPPER.wav", "conditions": [24, 800, "a", 24000], "internal_node_id": "0.0-150.0", "trial": 5, "time_elapsed": 1049669, "serialpos": 7, "key_press": -1, "wordID": 1410, "type": "PRES_AUD", "trial_index": 204}, "uniqueid": "MTK2392:3NJM2BJS4XDRYDKC2Z7E6XNEOSSPCL", "dateTime": 1517075305963}, {"current_trial": 205, "trialdata": {"rt": -1000, "trial_type": "single-audio", "word": "brother", "stimulus": "/static/audio/wordpool/BROTHER.wav", "conditions": [24, 800, "a", 24000], "internal_node_id": "0.0-151.0", "trial": 5, "time_elapsed": 1051538, "serialpos": 8, "key_press": -1, "wordID": 178, "type": "PRES_AUD", "trial_index": 205}, "uniqueid": "MTK2392:3NJM2BJS4XDRYDKC2Z7E6XNEOSSPCL", "dateTime": 1517075307832}, {"current_trial": 206, "trialdata": {"rt": -1000, "trial_type": "single-audio", "word": "sibling", "stimulus": "/static/audio/wordpool/SIBLING.wav", "conditions": [24, 800, "a", 24000], "internal_node_id": "0.0-152.0", "trial": 5, "time_elapsed": 1053326, "serialpos": 9, "key_press": -1, "wordID": 1300, "type": "PRES_AUD", "trial_index": 206}, "uniqueid": "MTK2392:3NJM2BJS4XDRYDKC2Z7E6XNEOSSPCL", "dateTime": 1517075309620}, {"current_trial": 207, "trialdata": {"rt": -1000, "trial_type": "single-audio", "word": "sculpture", "stimulus": "/static/audio/wordpool/SCULPTURE.wav", "conditions": [24, 800, "a", 24000], "internal_node_id": "0.0-153.0", "trial": 5, "time_elapsed": 1055267, "serialpos": 10, "key_press": -1, "wordID": 1257, "type": "PRES_AUD", "trial_index": 207}, "uniqueid": "MTK2392:3NJM2BJS4XDRYDKC2Z7E6XNEOSSPCL", "dateTime": 1517075311561}, {"current_trial": 208, "trialdata": {"rt": -1000, "trial_type": "single-audio", "word": "sunrise", "stimulus": "/static/audio/wordpool/SUNRISE.wav", "conditions": [24, 800, "a", 24000], "internal_node_id": "0.0-154.0", "trial": 5, "time_elapsed": 1057198, "serialpos": 11, "key_press": -1, "wordID": 1406, "type": "PRES_AUD", "trial_index": 208}, "uniqueid": "MTK2392:3NJM2BJS4XDRYDKC2Z7E6XNEOSSPCL", "dateTime": 1517075313492}, {"current_trial": 209, "trialdata": {"rt": -1000, "trial_type": "single-audio", "word": "waiter", "stimulus": "/static/audio/wordpool/WAITER.wav", "conditions": [24, 800, "a", 24000], "internal_node_id": "0.0-155.0", "trial": 5, "time_elapsed": 1058925, "serialpos": 12, "key_press": -1, "wordID": 1579, "type": "PRES_AUD", "trial_index": 209}, "uniqueid": "MTK2392:3NJM2BJS4XDRYDKC2Z7E6XNEOSSPCL", "dateTime": 1517075315219}, {"current_trial": 210, "trialdata": {"rt": -1000, "trial_type": "single-audio", "word": "marker", "stimulus": "/static/audio/wordpool/MARKER.wav", "conditions": [24, 800, "a", 24000], "internal_node_id": "0.0-156.0", "trial": 5, "time_elapsed": 1060855, "serialpos": 13, "key_press": -1, "wordID": 869, "type": "PRES_AUD", "trial_index": 210}, "uniqueid": "MTK2392:3NJM2BJS4XDRYDKC2Z7E6XNEOSSPCL", "dateTime": 1517075317149}, {"current_trial": 211, "trialdata": {"rt": -1000, "trial_type": "single-audio", "word": "lace", "stimulus": "/static/audio/wordpool/LACE.wav", "conditions": [24, 800, "a", 24000], "internal_node_id": "0.0-157.0", "trial": 5, "time_elapsed": 1062772, "serialpos": 14, "key_press": -1, "wordID": 791, "type": "PRES_AUD", "trial_index": 211}, "uniqueid": "MTK2392:3NJM2BJS4XDRYDKC2Z7E6XNEOSSPCL", "dateTime": 1517075319066}, {"current_trial": 212, "trialdata": {"rt": -1000, "trial_type": "single-audio", "word": "student", "stimulus": "/static/audio/wordpool/STUDENT.wav", "conditions": [24, 800, "a", 24000], "internal_node_id": "0.0-158.0", "trial": 5, "time_elapsed": 1064395, "serialpos": 15, "key_press": -1, "wordID": 1394, "type": "PRES_AUD", "trial_index": 212}, "uniqueid": "MTK2392:3NJM2BJS4XDRYDKC2Z7E6XNEOSSPCL", "dateTime": 1517075320690}, {"current_trial": 213, "trialdata": {"rt": -1000, "trial_type": "single-audio", "word": "valve", "stimulus": "/static/audio/wordpool/VALVE.wav", "conditions": [24, 800, "a", 24000], "internal_node_id": "0.0-159.0", "trial": 5, "time_elapsed": 1066288, "serialpos": 16, "key_press": -1, "wordID": 1545, "type": "PRES_AUD", "trial_index": 213}, "uniqueid": "MTK2392:3NJM2BJS4XDRYDKC2Z7E6XNEOSSPCL", "dateTime": 1517075322582}, {"current_trial": 214, "trialdata": {"rt": -1000, "trial_type": "single-audio", "word": "piston", "stimulus": "/static/audio/wordpool/PISTON.wav", "conditions": [24, 800, "a", 24000], "internal_node_id": "0.0-160.0", "trial": 5, "time_elapsed": 1068204, "serialpos": 17, "key_press": -1, "wordID": 1075, "type": "PRES_AUD", "trial_index": 214}, "uniqueid": "MTK2392:3NJM2BJS4XDRYDKC2Z7E6XNEOSSPCL", "dateTime": 1517075324498}, {"current_trial": 215, "trialdata": {"rt": -1000, "trial_type": "single-audio", "word": "nurse", "stimulus": "/static/audio/wordpool/NURSE.wav", "conditions": [24, 800, "a", 24000], "internal_node_id": "0.0-161.0", "trial": 5, "time_elapsed": 1069846, "serialpos": 18, "key_press": -1, "wordID": 962, "type": "PRES_AUD", "trial_index": 215}, "uniqueid": "MTK2392:3NJM2BJS4XDRYDKC2Z7E6XNEOSSPCL", "dateTime": 1517075326140}, {"current_trial": 216, "trialdata": {"rt": -1000, "trial_type": "single-audio", "word": "highway", "stimulus": "/static/audio/wordpool/HIGHWAY.wav", "conditions": [24, 800, "a", 24000], "internal_node_id": "0.0-162.0", "trial": 5, "time_elapsed": 1071669, "serialpos": 19, "key_press": -1, "wordID": 706, "type": "PRES_AUD", "trial_index": 216}, "uniqueid": "MTK2392:3NJM2BJS4XDRYDKC2Z7E6XNEOSSPCL", "dateTime": 1517075327963}, {"current_trial": 217, "trialdata": {"rt": -1000, "trial_type": "single-audio", "word": "cookbook", "stimulus": "/static/audio/wordpool/COOKBOOK.wav", "conditions": [24, 800, "a", 24000], "internal_node_id": "0.0-163.0", "trial": 5, "time_elapsed": 1073608, "serialpos": 20, "key_press": -1, "wordID": 372, "type": "PRES_AUD", "trial_index": 217}, "uniqueid": "MTK2392:3NJM2BJS4XDRYDKC2Z7E6XNEOSSPCL", "dateTime": 1517075329902}, {"current_trial": 218, "trialdata": {"rt": -1000, "trial_type": "single-audio", "word": "beaker", "stimulus": "/static/audio/wordpool/BEAKER.wav", "conditions": [24, 800, "a", 24000], "internal_node_id": "0.0-164.0", "trial": 5, "time_elapsed": 1075477, "serialpos": 21, "key_press": -1, "wordID": 103, "type": "PRES_AUD", "trial_index": 218}, "uniqueid": "MTK2392:3NJM2BJS4XDRYDKC2Z7E6XNEOSSPCL", "dateTime": 1517075331771}, {"current_trial": 219, "trialdata": {"rt": -1000, "trial_type": "single-audio", "word": "parsley", "stimulus": "/static/audio/wordpool/PARSLEY.wav", "conditions": [24, 800, "a", 24000], "internal_node_id": "0.0-165.0", "trial": 5, "time_elapsed": 1077364, "serialpos": 22, "key_press": -1, "wordID": 1015, "type": "PRES_AUD", "trial_index": 219}, "uniqueid": "MTK2392:3NJM2BJS4XDRYDKC2Z7E6XNEOSSPCL", "dateTime": 1517075333658}, {"current_trial": 220, "trialdata": {"rt": -1000, "trial_type": "single-audio", "word": "velvet", "stimulus": "/static/audio/wordpool/VELVET.wav", "conditions": [24, 800, "a", 24000], "internal_node_id": "0.0-166.0", "trial": 5, "time_elapsed": 1079360, "serialpos": 23, "key_press": -1, "wordID": 1554, "type": "PRES_AUD", "trial_index": 220}, "uniqueid": "MTK2392:3NJM2BJS4XDRYDKC2Z7E6XNEOSSPCL", "dateTime": 1517075335655}, {"current_trial": 221, "trialdata": {"rt": -1, "trial_type": "single-stim", "stimulus": "", "internal_node_id": "0.0-167.0-0.0", "time_elapsed": 1080614, "key_press": -1, "type": "PRE_RECALL_DELAY", "trial_index": 221}, "uniqueid": "MTK2392:3NJM2BJS4XDRYDKC2Z7E6XNEOSSPCL", "dateTime": 1517075336909}, {"current_trial": 222, "trialdata": {"rt": 387.6190476191823, "trial_type": "single-audio", "stimulus": "/static/audio/400Hz.wav", "internal_node_id": "0.0-168.0", "time_elapsed": 1081116, "key_press": 86, "type": "PRE_RECALL_ALERT", "trial_index": 222}, "uniqueid": "MTK2392:3NJM2BJS4XDRYDKC2Z7E6XNEOSSPCL", "dateTime": 1517075337410}, {"current_trial": 223, "trialdata": {"rt": [2594, 5114, 8818, 10451, 13546, 15314, 18650, 47992], "recwords": ["velvet", "parsely", "cookbook", "beaker", "daughter", "brother", "picnic", "beaker"], "key_times": [530, 730, 842, 1346, 1554, 1658, 1922, 2330, 2594, 2962, 3066, 3154, 3298, 3754, 3834, 3994, 4138, 4362, 5114, 7258, 7354, 7522, 7650, 7730, 7858, 8034, 8130, 8818, 9354, 9522, 9626, 9706, 9810, 9890, 10451, 12338, 12482, 12586, 12682, 12778, 12890, 13026, 13130, 13546, 13818, 14018, 14130, 14210, 14322, 14370, 14498, 15314, 17234, 17330, 17450, 17586, 17778, 17922, 18650, 46466, 47232, 47360, 47520, 47648, 47744, 47992], "trial_type": "free-recall", "conditions": [24, 800, "a", 24000], "internal_node_id": "0.0-169.0-0.0", "key_presses": [86, 69, 76, 86, 69, 84, 80, 8, 32, 80, 65, 82, 76, 8, 83, 69, 76, 89, 32, 67, 79, 79, 75, 66, 79, 79, 75, 32, 66, 69, 65, 75, 69, 82, 32, 68, 65, 85, 71, 72, 84, 69, 82, 32, 66, 82, 79, 84, 72, 69, 82, 32, 80, 73, 67, 78, 73, 67, 32, 66, 69, 65, 75, 69, 82, 32], "trial": 5, "time_elapsed": 1141117, "type": "FREE_RECALL", "trial_index": 223}, "uniqueid": "MTK2392:3NJM2BJS4XDRYDKC2Z7E6XNEOSSPCL", "dateTime": 1517075397414}, {"current_trial": 224, "trialdata": {"rt": 1520, "trial_type": "text", "internal_node_id": "0.0-170.0", "time_elapsed": 1144642, "key_press": 32, "type": "INSTRUCTIONS", "trial_index": 224}, "uniqueid": "MTK2392:3NJM2BJS4XDRYDKC2Z7E6XNEOSSPCL", "dateTime": 1517075400937}, {"current_trial": 225, "trialdata": {"rt": [2289, 4449, 5801, 8017, 9553, 10961], "trial_type": "math-distractor", "key_times": [1897, 2025, 2289, 3833, 4185, 4449, 5449, 5657, 5801, 7505, 7737, 8017, 9233, 9369, 9553, 10561, 10729, 10961], "responses": ["14", "16", "15", "17", "13", "18"], "num2": [9, 3, 7, 9, 6, 8, 4], "num3": [2, 5, 7, 1, 4, 9, 7], "conditions": [24, 1600, "a", 12000], "internal_node_id": "0.0-171.0", "key_presses": [49, 52, 13, 49, 54, 13, 49, 53, 13, 49, 55, 13, 49, 51, 13, 49, 56, 13], "trial": 6, "time_elapsed": 1158652, "type": "DISTRACTOR", "trial_index": 225, "num1": [3, 8, 1, 7, 3, 1, 9]}, "uniqueid": "MTK2392:3NJM2BJS4XDRYDKC2Z7E6XNEOSSPCL", "dateTime": 1517075414946}, {"current_trial": 226, "trialdata": {"rt": -1, "trial_type": "single-stim", "stimulus": "<p id=\"stim\">10</p>", "internal_node_id": "0.0-172.0-0.0", "time_elapsed": 1161660, "key_press": -1, "trial_index": 226}, "uniqueid": "MTK2392:3NJM2BJS4XDRYDKC2Z7E6XNEOSSPCL", "dateTime": 1517075417955}, {"current_trial": 227, "trialdata": {"rt": -1, "trial_type": "single-stim", "stimulus": "<p id=\"stim\">9</p>", "internal_node_id": "0.0-172.0-1.0", "time_elapsed": 1162665, "key_press": -1, "trial_index": 227}, "uniqueid": "MTK2392:3NJM2BJS4XDRYDKC2Z7E6XNEOSSPCL", "dateTime": 1517075418959}, {"current_trial": 228, "trialdata": {"rt": -1, "trial_type": "single-stim", "stimulus": "<p id=\"stim\">8</p>", "internal_node_id": "0.0-172.0-2.0", "time_elapsed": 1163668, "key_press": -1, "trial_index": 228}, "uniqueid": "MTK2392:3NJM2BJS4XDRYDKC2Z7E6XNEOSSPCL", "dateTime": 1517075419963}, {"current_trial": 229, "trialdata": {"rt": -1, "trial_type": "single-stim", "stimulus": "<p id=\"stim\">7</p>", "internal_node_id": "0.0-172.0-3.0", "time_elapsed": 1164673, "key_press": -1, "trial_index": 229}, "uniqueid": "MTK2392:3NJM2BJS4XDRYDKC2Z7E6XNEOSSPCL", "dateTime": 1517075420967}, {"current_trial": 230, "trialdata": {"rt": -1, "trial_type": "single-stim", "stimulus": "<p id=\"stim\">6</p>", "internal_node_id": "0.0-172.0-4.0", "time_elapsed": 1165676, "key_press": -1, "trial_index": 230}, "uniqueid": "MTK2392:3NJM2BJS4XDRYDKC2Z7E6XNEOSSPCL", "dateTime": 1517075421971}, {"current_trial": 231, "trialdata": {"rt": -1, "trial_type": "single-stim", "stimulus": "<p id=\"stim\">5</p>", "internal_node_id": "0.0-172.0-5.0", "time_elapsed": 1166681, "key_press": -1, "trial_index": 231}, "uniqueid": "MTK2392:3NJM2BJS4XDRYDKC2Z7E6XNEOSSPCL", "dateTime": 1517075422975}, {"current_trial": 232, "trialdata": {"rt": -1, "trial_type": "single-stim", "stimulus": "<p id=\"stim\">4</p>", "internal_node_id": "0.0-172.0-6.0", "time_elapsed": 1167684, "key_press": -1, "trial_index": 232}, "uniqueid": "MTK2392:3NJM2BJS4XDRYDKC2Z7E6XNEOSSPCL", "dateTime": 1517075423979}, {"current_trial": 233, "trialdata": {"rt": -1, "trial_type": "single-stim", "stimulus": "<p id=\"stim\">3</p>", "internal_node_id": "0.0-172.0-7.0", "time_elapsed": 1168689, "key_press": -1, "trial_index": 233}, "uniqueid": "MTK2392:3NJM2BJS4XDRYDKC2Z7E6XNEOSSPCL", "dateTime": 1517075424983}, {"current_trial": 234, "trialdata": {"rt": -1, "trial_type": "single-stim", "stimulus": "<p id=\"stim\">2</p>", "internal_node_id": "0.0-172.0-8.0", "time_elapsed": 1169693, "key_press": -1, "trial_index": 234}, "uniqueid": "MTK2392:3NJM2BJS4XDRYDKC2Z7E6XNEOSSPCL", "dateTime": 1517075425987}, {"current_trial": 235, "trialdata": {"rt": -1, "trial_type": "single-stim", "stimulus": "<p id=\"stim\">1</p>", "internal_node_id": "0.0-172.0-9.0", "time_elapsed": 1170697, "key_press": -1, "trial_index": 235}, "uniqueid": "MTK2392:3NJM2BJS4XDRYDKC2Z7E6XNEOSSPCL", "dateTime": 1517075426991}, {"current_trial": 236, "trialdata": {"rt": -1, "trial_type": "single-stim", "stimulus": "<p id=\"stim\">+</p>", "internal_node_id": "0.0-173.0-0.0", "time_elapsed": 1172200, "key_press": -1, "type": "FIXATION", "trial_index": 236}, "uniqueid": "MTK2392:3NJM2BJS4XDRYDKC2Z7E6XNEOSSPCL", "dateTime": 1517075428494}, {"current_trial": 237, "trialdata": {"rt": -1000, "trial_type": "single-audio", "word": "temple", "stimulus": "/static/audio/wordpool/TEMPLE.wav", "conditions": [24, 1600, "a", 12000], "internal_node_id": "0.0-174.0", "trial": 6, "time_elapsed": 1174702, "serialpos": 0, "key_press": -1, "wordID": 1447, "type": "PRES_AUD", "trial_index": 237}, "uniqueid": "MTK2392:3NJM2BJS4XDRYDKC2Z7E6XNEOSSPCL", "dateTime": 1517075430996}, {"current_trial": 238, "trialdata": {"rt": -1000, "trial_type": "single-audio", "word": "glass", "stimulus": "/static/audio/wordpool/GLASS.wav", "conditions": [24, 1600, "a", 12000], "internal_node_id": "0.0-175.0", "trial": 6, "time_elapsed": 1177378, "serialpos": 1, "key_press": -1, "wordID": 638, "type": "PRES_AUD", "trial_index": 238}, "uniqueid": "MTK2392:3NJM2BJS4XDRYDKC2Z7E6XNEOSSPCL", "dateTime": 1517075433672}, {"current_trial": 239, "trialdata": {"rt": -1000, "trial_type": "single-audio", "word": "fireplace", "stimulus": "/static/audio/wordpool/FIREPLACE.wav", "conditions": [24, 1600, "a", 12000], "internal_node_id": "0.0-176.0", "trial": 6, "time_elapsed": 1179828, "serialpos": 2, "key_press": -1, "wordID": 569, "type": "PRES_AUD", "trial_index": 239}, "uniqueid": "MTK2392:3NJM2BJS4XDRYDKC2Z7E6XNEOSSPCL", "dateTime": 1517075436122}, {"current_trial": 240, "trialdata": {"rt": -1000, "trial_type": "single-audio", "word": "sister", "stimulus": "/static/audio/wordpool/SISTER.wav", "conditions": [24, 1600, "a", 12000], "internal_node_id": "0.0-177.0", "trial": 6, "time_elapsed": 1182608, "serialpos": 3, "key_press": -1, "wordID": 1311, "type": "PRES_AUD", "trial_index": 240}, "uniqueid": "MTK2392:3NJM2BJS4XDRYDKC2Z7E6XNEOSSPCL", "dateTime": 1517075438902}, {"current_trial": 241, "trialdata": {"rt": -1000, "trial_type": "single-audio", "word": "scalpel", "stimulus": "/static/audio/wordpool/SCALPEL.wav", "conditions": [24, 1600, "a", 12000], "internal_node_id": "0.0-178.0", "trial": 6, "time_elapsed": 1185101, "serialpos": 4, "key_press": -1, "wordID": 1242, "type": "PRES_AUD", "trial_index": 241}, "uniqueid": "MTK2392:3NJM2BJS4XDRYDKC2Z7E6XNEOSSPCL", "dateTime": 1517075441395}, {"current_trial": 242, "trialdata": {"rt": -1000, "trial_type": "single-audio", "word": "scissors", "stimulus": "/static/audio/wordpool/SCISSORS.wav", "conditions": [24, 1600, "a", 12000], "internal_node_id": "0.0-179.0", "trial": 6, "time_elapsed": 1187554, "serialpos": 5, "key_press": -1, "wordID": 1249, "type": "PRES_AUD", "trial_index": 242}, "uniqueid": "MTK2392:3NJM2BJS4XDRYDKC2Z7E6XNEOSSPCL", "dateTime": 1517075443848}, {"current_trial": 243, "trialdata": {"rt": -1000, "trial_type": "single-audio", "word": "xerox", "stimulus": "/static/audio/wordpool/XEROX.wav", "conditions": [24, 1600, "a", 12000], "internal_node_id": "0.0-180.0", "trial": 6, "time_elapsed": 1189963, "serialpos": 6, "key_press": -1, "wordID": 1627, "type": "PRES_AUD", "trial_index": 243}, "uniqueid": "MTK2392:3NJM2BJS4XDRYDKC2Z7E6XNEOSSPCL", "dateTime": 1517075446257}, {"current_tri