{"assignmentId": "3VD82FOHKRV9DD8BNZUZHXIOGG0OCV", "workerId": "MTK2747", "questiondata": {"avail_screen_height": 1273, "color_depth": 24, "screen_width": 2400, "pixel_depth": 24, "avail_screen_width": 2400, "screen_height": 1350}, "bonus": 0, "hitId": "3X55NP42EON1YTQZJ4RBOAN0ZYYP3E", "counterbalance": 2923, "useragent": "Mozilla/5.0 (Windows NT 10.0; Win64; x64; rv:58.0) Gecko/20100101 Firefox/58.0", "eventdata": [{"eventtype": "initialized", "interval": 0, "value": null, "timestamp": 1519323066558}, {"eventtype": "window_resize", "interval": 0, "value": [2400, 1198], "timestamp": 1519323066558}, {"eventtype": "focus", "interval": 59817, "value": "off", "timestamp": 1519323126375}, {"eventtype": "focus", "interval": 2138, "value": "on", "timestamp": 1519323128513}], "data": [{"current_trial": 0, "trialdata": {"rt": 15720, "trial_type": "text", "internal_node_id": "0.0-0.0", "time_elapsed": 15726, "key_press": 32, "type": "INSTRUCTIONS", "trial_index": 0}, "uniqueid": "MTK2747:3VD82FOHKRV9DD8BNZUZHXIOGG0OCV", "dateTime": 1519323082694}, {"current_trial": 1, "trialdata": {"rt": 16452, "trial_type": "text", "internal_node_id": "0.0-1.0", "time_elapsed": 32184, "key_press": 59, "type": "INSTRUCTIONS", "trial_index": 1}, "uniqueid": "MTK2747:3VD82FOHKRV9DD8BNZUZHXIOGG0OCV", "dateTime": 1519323099151}, {"current_trial": 2, "trialdata": {"rt": [15327], "trial_type": "audio-test", "responses": ["ocean"], "internal_node_id": "0.0-2.0", "time_elapsed": 47605, "type": "AUDIO_TEST", "trial_index": 2}, "uniqueid": "MTK2747:3VD82FOHKRV9DD8BNZUZHXIOGG0OCV", "dateTime": 1519323114571}, {"current_trial": 3, "trialdata": {"rt": [8703], "trial_type": "audio-test", "responses": ["crystal"], "internal_node_id": "0.0-3.0", "time_elapsed": 56321, "type": "AUDIO_TEST", "trial_index": 3}, "uniqueid": "MTK2747:3VD82FOHKRV9DD8BNZUZHXIOGG0OCV", "dateTime": 1519323123287}, {"current_trial": 4, "trialdata": {"rt": [8493], "trial_type": "audio-test", "responses": ["spice"], "internal_node_id": "0.0-4.0", "time_elapsed": 64827, "type": "AUDIO_TEST", "trial_index": 4}, "uniqueid": "MTK2747:3VD82FOHKRV9DD8BNZUZHXIOGG0OCV", "dateTime": 1519323131794}, {"current_trial": 5, "trialdata": {"rt": 24498, "trial_type": "survey-text", "responses": "{\"Q0\":\"9:30 pm\",\"Q1\":\"5:30 am\",\"Q2\":\"5\"}", "internal_node_id": "0.0-5.0", "time_elapsed": 90081, "type": "SLEEP_SURVEY", "trial_index": 5}, "uniqueid": "MTK2747:3VD82FOHKRV9DD8BNZUZHXIOGG0OCV", "dateTime": 1519323157048}, {"current_trial": 6, "trialdata": {"rt": 37664, "trial_type": "text", "internal_node_id": "0.0-6.0", "time_elapsed": 128750, "key_press": 13, "type": "INSTRUCTIONS", "trial_index": 6}, "uniqueid": "MTK2747:3VD82FOHKRV9DD8BNZUZHXIOGG0OCV", "dateTime": 1519323195716}, {"current_trial": 7, "trialdata": {"rt": 8939, "trial_type": "text", "internal_node_id": "0.0-7.0", "time_elapsed": 138192, "key_press": 13, "type": "INSTRUCTIONS", "trial_index": 7}, "uniqueid": "MTK2747:3VD82FOHKRV9DD8BNZUZHXIOGG0OCV", "dateTime": 1519323205158}, {"current_trial": 8, "trialdata": {"rt": 2671, "trial_type": "text", "internal_node_id": "0.0-8.0", "time_elapsed": 141365, "key_press": 13, "type": "INSTRUCTIONS", "trial_index": 8}, "uniqueid": "MTK2747:3VD82FOHKRV9DD8BNZUZHXIOGG0OCV", "dateTime": 1519323208331}, {"current_trial": 9, "trialdata": {"rt": [3096, 6945, 9375, 11492, 13834, 16262], "trial_type": "math-distractor", "key_times": [2037, 2236, 3096, 4952, 5234, 6945, 8645, 8884, 9375, 11090, 11492, 13038, 13365, 13834, 15417, 15739, 16262], "responses": ["12", "17", "17", "9", "18", "14"], "num2": [1, 7, 5, 6, 8, 6, 3], "num3": [6, 1, 5, 2, 6, 5, 5], "conditions": [18, 1200, "v", 18000], "internal_node_id": "0.0-9.0", "key_presses": [49, 50, 13, 49, 55, 13, 49, 55, 13, 57, 13, 49, 56, 13, 49, 52, 13], "trial": 0, "time_elapsed": 160375, "type": "DISTRACTOR", "trial_index": 9, "num1": [5, 9, 7, 1, 4, 3, 1]}, "uniqueid": "MTK2747:3VD82FOHKRV9DD8BNZUZHXIOGG0OCV", "dateTime": 1519323227341}, {"current_trial": 10, "trialdata": {"rt": -1, "trial_type": "single-stim", "stimulus": "<p id=\"stim\">10</p>", "internal_node_id": "0.0-10.0-0.0", "time_elapsed": 163383, "key_press": -1, "trial_index": 10}, "uniqueid": "MTK2747:3VD82FOHKRV9DD8BNZUZHXIOGG0OCV", "dateTime": 1519323230349}, {"current_trial": 11, "trialdata": {"rt": -1, "trial_type": "single-stim", "stimulus": "<p id=\"stim\">9</p>", "internal_node_id": "0.0-10.0-1.0", "time_elapsed": 164384, "key_press": -1, "trial_index": 11}, "uniqueid": "MTK2747:3VD82FOHKRV9DD8BNZUZHXIOGG0OCV", "dateTime": 1519323231350}, {"current_trial": 12, "trialdata": {"rt": -1, "trial_type": "single-stim", "stimulus": "<p id=\"stim\">8</p>", "internal_node_id": "0.0-10.0-2.0", "time_elapsed": 165385, "key_press": -1, "trial_index": 12}, "uniqueid": "MTK2747:3VD82FOHKRV9DD8BNZUZHXIOGG0OCV", "dateTime": 1519323232352}, {"current_trial": 13, "trialdata": {"rt": -1, "trial_type": "single-stim", "stimulus": "<p id=\"stim\">7</p>", "internal_node_id": "0.0-10.0-3.0", "time_elapsed": 166387, "key_press": -1, "trial_index": 13}, "uniqueid": "MTK2747:3VD82FOHKRV9DD8BNZUZHXIOGG0OCV", "dateTime": 1519323233353}, {"current_trial": 14, "trialdata": {"rt": -1, "trial_type": "single-stim", "stimulus": "<p id=\"stim\">6</p>", "internal_node_id": "0.0-10.0-4.0", "time_elapsed": 167388, "key_press": -1, "trial_index": 14}, "uniqueid": "MTK2747:3VD82FOHKRV9DD8BNZUZHXIOGG0OCV", "dateTime": 1519323234355}, {"current_trial": 15, "trialdata": {"rt": -1, "trial_type": "single-stim", "stimulus": "<p id=\"stim\">5</p>", "internal_node_id": "0.0-10.0-5.0", "time_elapsed": 168390, "key_press": -1, "trial_index": 15}, "uniqueid": "MTK2747:3VD82FOHKRV9DD8BNZUZHXIOGG0OCV", "dateTime": 1519323235356}, {"current_trial": 16, "trialdata": {"rt": -1, "trial_type": "single-stim", "stimulus": "<p id=\"stim\">4</p>", "internal_node_id": "0.0-10.0-6.0", "time_elapsed": 169392, "key_press": -1, "trial_index": 16}, "uniqueid": "MTK2747:3VD82FOHKRV9DD8BNZUZHXIOGG0OCV", "dateTime": 1519323236358}, {"current_trial": 17, "trialdata": {"rt": -1, "trial_type": "single-stim", "stimulus": "<p id=\"stim\">3</p>", "internal_node_id": "0.0-10.0-7.0", "time_elapsed": 170394, "key_press": -1, "trial_index": 17}, "uniqueid": "MTK2747:3VD82FOHKRV9DD8BNZUZHXIOGG0OCV", "dateTime": 1519323237361}, {"current_trial": 18, "trialdata": {"rt": -1, "trial_type": "single-stim", "stimulus": "<p id=\"stim\">2</p>", "internal_node_id": "0.0-10.0-8.0", "time_elapsed": 171398, "key_press": -1, "trial_index": 18}, "uniqueid": "MTK2747:3VD82FOHKRV9DD8BNZUZHXIOGG0OCV", "dateTime": 1519323238364}, {"current_trial": 19, "trialdata": {"rt": -1, "trial_type": "single-stim", "stimulus": "<p id=\"stim\">1</p>", "internal_node_id": "0.0-10.0-9.0", "time_elapsed": 172399, "key_press": -1, "trial_index": 19}, "uniqueid": "MTK2747:3VD82FOHKRV9DD8BNZUZHXIOGG0OCV", "dateTime": 1519323239365}, {"current_trial": 20, "trialdata": {"rt": -1, "trial_type": "single-stim", "stimulus": "<p id=\"stim\">+</p>", "internal_node_id": "0.0-11.0-0.0", "time_elapsed": 173902, "key_press": -1, "type": "FIXATION", "trial_index": 20}, "uniqueid": "MTK2747:3VD82FOHKRV9DD8BNZUZHXIOGG0OCV", "dateTime": 1519323240868}, {"current_trial": 21, "trialdata": {"rt": -1, "trial_type": "single-stim", "word": "marine", "stimulus": "<p id=\"stim\">MARINE</p>", "conditions": [18, 1200, "v", 18000], "internal_node_id": "0.0-12.0", "trial": 0, "time_elapsed": 175104, "serialpos": 0, "key_press": -1, "wordID": 868, "type": "PRES_VIS", "trial_index": 21}, "uniqueid": "MTK2747:3VD82FOHKRV9DD8BNZUZHXIOGG0OCV", "dateTime": 1519323242071}, {"current_trial": 22, "trialdata": {"rt": -1, "trial_type": "single-stim", "word": "dragon", "stimulus": "<p id=\"stim\">DRAGON</p>", "conditions": [18, 1200, "v", 18000], "internal_node_id": "0.0-13.0", "trial": 0, "time_elapsed": 177472, "serialpos": 1, "key_press": -1, "wordID": 491, "type": "PRES_VIS", "trial_index": 22}, "uniqueid": "MTK2747:3VD82FOHKRV9DD8BNZUZHXIOGG0OCV", "dateTime": 1519323244439}, {"current_trial": 23, "trialdata": {"rt": -1, "trial_type": "single-stim", "word": "sheriff", "stimulus": "<p id=\"stim\">SHERIFF</p>", "conditions": [18, 1200, "v", 18000], "internal_node_id": "0.0-14.0", "trial": 0, "time_elapsed": 179550, "serialpos": 2, "key_press": -1, "wordID": 1283, "type": "PRES_VIS", "trial_index": 23}, "uniqueid": "MTK2747:3VD82FOHKRV9DD8BNZUZHXIOGG0OCV", "dateTime": 1519323246516}, {"current_trial": 24, "trialdata": {"rt": -1, "trial_type": "single-stim", "word": "cousin", "stimulus": "<p id=\"stim\">COUSIN</p>", "conditions": [18, 1200, "v", 18000], "internal_node_id": "0.0-15.0", "trial": 0, "time_elapsed": 181929, "serialpos": 3, "key_press": -1, "wordID": 391, "type": "PRES_VIS", "trial_index": 24}, "uniqueid": "MTK2747:3VD82FOHKRV9DD8BNZUZHXIOGG0OCV", "dateTime": 1519323248895}, {"current_trial": 25, "trialdata": {"rt": -1, "trial_type": "single-stim", "word": "backbone", "stimulus": "<p id=\"stim\">BACKBONE</p>", "conditions": [18, 1200, "v", 18000], "internal_node_id": "0.0-16.0", "trial": 0, "time_elapsed": 184027, "serialpos": 4, "key_press": -1, "wordID": 65, "type": "PRES_VIS", "trial_index": 25}, "uniqueid": "MTK2747:3VD82FOHKRV9DD8BNZUZHXIOGG0OCV", "dateTime": 1519323250993}, {"current_trial": 26, "trialdata": {"rt": -1, "trial_type": "single-stim", "word": "nightgown", "stimulus": "<p id=\"stim\">NIGHTGOWN</p>", "conditions": [18, 1200, "v", 18000], "internal_node_id": "0.0-17.0", "trial": 0, "time_elapsed": 186100, "serialpos": 5, "key_press": -1, "wordID": 952, "type": "PRES_VIS", "trial_index": 26}, "uniqueid": "MTK2747:3VD82FOHKRV9DD8BNZUZHXIOGG0OCV", "dateTime": 1519323253066}, {"current_trial": 27, "trialdata": {"rt": -1, "trial_type": "single-stim", "word": "hawk", "stimulus": "<p id=\"stim\">HAWK</p>", "conditions": [18, 1200, "v", 18000], "internal_node_id": "0.0-18.0", "trial": 0, "time_elapsed": 188166, "serialpos": 6, "key_press": -1, "wordID": 691, "type": "PRES_VIS", "trial_index": 27}, "uniqueid": "MTK2747:3VD82FOHKRV9DD8BNZUZHXIOGG0OCV", "dateTime": 1519323255132}, {"current_trial": 28, "trialdata": {"rt": -1, "trial_type": "single-stim", "word": "lady", "stimulus": "<p id=\"stim\">LADY</p>", "conditions": [18, 1200, "v", 18000], "internal_node_id": "0.0-19.0", "trial": 0, "time_elapsed": 190275, "serialpos": 7, "key_press": -1, "wordID": 793, "type": "PRES_VIS", "trial_index": 28}, "uniqueid": "MTK2747:3VD82FOHKRV9DD8BNZUZHXIOGG0OCV", "dateTime": 1519323257241}, {"current_trial": 29, "trialdata": {"rt": -1, "trial_type": "single-stim", "word": "jello", "stimulus": "<p id=\"stim\">JELLO</p>", "conditions": [18, 1200, "v", 18000], "internal_node_id": "0.0-20.0", "trial": 0, "time_elapsed": 192405, "serialpos": 8, "key_press": -1, "wordID": 753, "type": "PRES_VIS", "trial_index": 29}, "uniqueid": "MTK2747:3VD82FOHKRV9DD8BNZUZHXIOGG0OCV", "dateTime": 1519323259372}, {"current_trial": 30, "trialdata": {"rt": -1, "trial_type": "single-stim", "word": "valve", "stimulus": "<p id=\"stim\">VALVE</p>", "conditions": [18, 1200, "v", 18000], "internal_node_id": "0.0-21.0", "trial": 0, "time_elapsed": 194745, "serialpos": 9, "key_press": -1, "wordID": 1545, "type": "PRES_VIS", "trial_index": 30}, "uniqueid": "MTK2747:3VD82FOHKRV9DD8BNZUZHXIOGG0OCV", "dateTime": 1519323261711}, {"current_trial": 31, "trialdata": {"rt": -1, "trial_type": "single-stim", "word": "lumber", "stimulus": "<p id=\"stim\">LUMBER</p>", "conditions": [18, 1200, "v", 18000], "internal_node_id": "0.0-22.0", "trial": 0, "time_elapsed": 196772, "serialpos": 10, "key_press": -1, "wordID": 847, "type": "PRES_VIS", "trial_index": 31}, "uniqueid": "MTK2747:3VD82FOHKRV9DD8BNZUZHXIOGG0OCV", "dateTime": 1519323263738}, {"current_trial": 32, "trialdata": {"rt": -1, "trial_type": "single-stim", "word": "luggage", "stimulus": "<p id=\"stim\">LUGGAGE</p>", "conditions": [18, 1200, "v", 18000], "internal_node_id": "0.0-23.0", "trial": 0, "time_elapsed": 199102, "serialpos": 11, "key_press": -1, "wordID": 846, "type": "PRES_VIS", "trial_index": 32}, "uniqueid": "MTK2747:3VD82FOHKRV9DD8BNZUZHXIOGG0OCV", "dateTime": 1519323266068}, {"current_trial": 33, "trialdata": {"rt": -1, "trial_type": "single-stim", "word": "fox", "stimulus": "<p id=\"stim\">FOX</p>", "conditions": [18, 1200, "v", 18000], "internal_node_id": "0.0-24.0", "trial": 0, "time_elapsed": 201172, "serialpos": 12, "key_press": -1, "wordID": 597, "type": "PRES_VIS", "trial_index": 33}, "uniqueid": "MTK2747:3VD82FOHKRV9DD8BNZUZHXIOGG0OCV", "dateTime": 1519323268139}, {"current_trial": 34, "trialdata": {"rt": -1, "trial_type": "single-stim", "word": "leader", "stimulus": "<p id=\"stim\">LEADER</p>", "conditions": [18, 1200, "v", 18000], "internal_node_id": "0.0-25.0", "trial": 0, "time_elapsed": 203400, "serialpos": 13, "key_press": -1, "wordID": 806, "type": "PRES_VIS", "trial_index": 34}, "uniqueid": "MTK2747:3VD82FOHKRV9DD8BNZUZHXIOGG0OCV", "dateTime": 1519323270366}, {"current_trial": 35, "trialdata": {"rt": -1, "trial_type": "single-stim", "word": "dresser", "stimulus": "<p id=\"stim\">DRESSER</p>", "conditions": [18, 1200, "v", 18000], "internal_node_id": "0.0-26.0", "trial": 0, "time_elapsed": 205682, "serialpos": 14, "key_press": -1, "wordID": 495, "type": "PRES_VIS", "trial_index": 35}, "uniqueid": "MTK2747:3VD82FOHKRV9DD8BNZUZHXIOGG0OCV", "dateTime": 1519323272648}, {"current_trial": 36, "trialdata": {"rt": -1, "trial_type": "single-stim", "word": "cocktail", "stimulus": "<p id=\"stim\">COCKTAIL</p>", "conditions": [18, 1200, "v", 18000], "internal_node_id": "0.0-27.0", "trial": 0, "time_elapsed": 207978, "serialpos": 15, "key_press": -1, "wordID": 337, "type": "PRES_VIS", "trial_index": 36}, "uniqueid": "MTK2747:3VD82FOHKRV9DD8BNZUZHXIOGG0OCV", "dateTime": 1519323274944}, {"current_trial": 37, "trialdata": {"rt": -1, "trial_type": "single-stim", "word": "gavel", "stimulus": "<p id=\"stim\">GAVEL</p>", "conditions": [18, 1200, "v", 18000], "internal_node_id": "0.0-28.0", "trial": 0, "time_elapsed": 210090, "serialpos": 16, "key_press": -1, "wordID": 626, "type": "PRES_VIS", "trial_index": 37}, "uniqueid": "MTK2747:3VD82FOHKRV9DD8BNZUZHXIOGG0OCV", "dateTime": 1519323277056}, {"current_trial": 38, "trialdata": {"rt": -1, "trial_type": "single-stim", "word": "shoulder", "stimulus": "<p id=\"stim\">SHOULDER</p>", "conditions": [18, 1200, "v", 18000], "internal_node_id": "0.0-29.0", "trial": 0, "time_elapsed": 212149, "serialpos": 17, "key_press": -1, "wordID": 1293, "type": "PRES_VIS", "trial_index": 38}, "uniqueid": "MTK2747:3VD82FOHKRV9DD8BNZUZHXIOGG0OCV", "dateTime": 1519323279115}, {"current_trial": 39, "trialdata": {"rt": -1, "trial_type": "single-stim", "stimulus": "", "internal_node_id": "0.0-30.0-0.0", "time_elapsed": 214363, "key_press": -1, "type": "PRE_RECALL_DELAY", "trial_index": 39}, "uniqueid": "MTK2747:3VD82FOHKRV9DD8BNZUZHXIOGG0OCV", "dateTime": 1519323281330}, {"current_trial": 40, "trialdata": {"rt": -1000, "trial_type": "single-audio", "stimulus": "/static/audio/400Hz.wav", "internal_node_id": "0.0-31.0", "time_elapsed": 214868, "key_press": -1, "type": "PRE_RECALL_ALERT", "trial_index": 40}, "uniqueid": "MTK2747:3VD82FOHKRV9DD8BNZUZHXIOGG0OCV", "dateTime": 1519323281834}, {"current_trial": 41, "trialdata": {"rt": [4246, 5954, 7418, 10803, 16929, 22965, 42903, 47636], "recwords": ["shoulder", "gavel", "lady", "backbone", "hawk", "jello", "cocktail", "marine"], "key_times": [2720, 2838, 2948, 3076, 3353, 3505, 3955, 4049, 4246, 5029, 5169, 5407, 5594, 5708, 5954, 6424, 6572, 6775, 7047, 7418, 7917, 8090, 9065, 9258, 9481, 9594, 9770, 9967, 10803, 14085, 14453, 14817, 15107, 16107, 16598, 16929, 21889, 22016, 22158, 22318, 22508, 22965, 40576, 40692, 40818, 41690, 42119, 42223, 42377, 42586, 42903, 46871, 47003, 47167, 47253, 47379, 47469, 47636], "trial_type": "free-recall", "conditions": [18, 1200, "v", 18000], "internal_node_id": "0.0-32.0-0.0", "key_presses": [83, 72, 79, 85, 76, 68, 69, 82, 13, 71, 65, 86, 69, 76, 13, 76, 65, 68, 89, 13, 66, 65, 67, 75, 66, 79, 78, 69, 13, 72, 65, 87, 76, 8, 75, 13, 74, 69, 76, 76, 79, 13, 67, 79, 67, 75, 84, 65, 73, 76, 13, 77, 65, 82, 73, 78, 69, 13], "trial": 0, "time_elapsed": 274875, "type": "FREE_RECALL", "trial_index": 41}, "uniqueid": "MTK2747:3VD82FOHKRV9DD8BNZUZHXIOGG0OCV", "dateTime": 1519323341849}, {"current_trial": 42, "trialdata": {"rt": 1530, "trial_type": "text", "internal_node_id": "0.0-33.0", "time_elapsed": 278415, "key_press": 32, "type": "INSTRUCTIONS", "trial_index": 42}, "uniqueid": "MTK2747:3VD82FOHKRV9DD8BNZUZHXIOGG0OCV", "dateTime": 1519323345381}, {"current_trial": 43, "trialdata": {"rt": [3099, 5586, 7669, 12537, 15560, 17311], "trial_type": "math-distractor", "key_times": [1726, 2243, 3099, 5127, 5301, 5586, 7012, 7520, 7669, 12136, 12328, 12537, 15094, 15415, 15560, 16755, 16934, 17311], "responses": ["15", "11", "14", "23", "13", "13"], "num2": [6, 5, 9, 9, 8, 8, 7], "num3": [7, 3, 2, 8, 2, 1, 2], "conditions": [18, 1200, "v", 18000], "internal_node_id": "0.0-34.0", "key_presses": [49, 53, 13, 49, 49, 13, 49, 52, 13, 50, 51, 13, 49, 51, 13, 49, 51, 13], "trial": 1, "time_elapsed": 298421, "type": "DISTRACTOR", "trial_index": 43, "num1": [2, 3, 3, 6, 3, 4, 4]}, "uniqueid": "MTK2747:3VD82FOHKRV9DD8BNZUZHXIOGG0OCV", "dateTime": 1519323365388}, {"current_trial": 44, "trialdata": {"rt": -1, "trial_type": "single-stim", "stimulus": "<p id=\"stim\">10</p>", "internal_node_id": "0.0-35.0-0.0", "time_elapsed": 301423, "key_press": -1, "trial_index": 44}, "uniqueid": "MTK2747:3VD82FOHKRV9DD8BNZUZHXIOGG0OCV", "dateTime": 1519323368389}, {"current_trial": 45, "trialdata": {"rt": -1, "trial_type": "single-stim", "stimulus": "<p id=\"stim\">9</p>", "internal_node_id": "0.0-35.0-1.0", "time_elapsed": 302424, "key_press": -1, "trial_index": 45}, "uniqueid": "MTK2747:3VD82FOHKRV9DD8BNZUZHXIOGG0OCV", "dateTime": 1519323369390}, {"current_trial": 46, "trialdata": {"rt": -1, "trial_type": "single-stim", "stimulus": "<p id=\"stim\">8</p>", "internal_node_id": "0.0-35.0-2.0", "time_elapsed": 303426, "key_press": -1, "trial_index": 46}, "uniqueid": "MTK2747:3VD82FOHKRV9DD8BNZUZHXIOGG0OCV", "dateTime": 1519323370392}, {"current_trial": 47, "trialdata": {"rt": -1, "trial_type": "single-stim", "stimulus": "<p id=\"stim\">7</p>", "internal_node_id": "0.0-35.0-3.0", "time_elapsed": 304428, "key_press": -1, "trial_index": 47}, "uniqueid": "MTK2747:3VD82FOHKRV9DD8BNZUZHXIOGG0OCV", "dateTime": 1519323371394}, {"current_trial": 48, "trialdata": {"rt": -1, "trial_type": "single-stim", "stimulus": "<p id=\"stim\">6</p>", "internal_node_id": "0.0-35.0-4.0", "time_elapsed": 305429, "key_press": -1, "trial_index": 48}, "uniqueid": "MTK2747:3VD82FOHKRV9DD8BNZUZHXIOGG0OCV", "dateTime": 1519323372395}, {"current_trial": 49, "trialdata": {"rt": -1, "trial_type": "single-stim", "stimulus": "<p id=\"stim\">5</p>", "internal_node_id": "0.0-35.0-5.0", "time_elapsed": 306431, "key_press": -1, "trial_index": 49}, "uniqueid": "MTK2747:3VD82FOHKRV9DD8BNZUZHXIOGG0OCV", "dateTime": 1519323373397}, {"current_trial": 50, "trialdata": {"rt": -1, "trial_type": "single-stim", "stimulus": "<p id=\"stim\">4</p>", "internal_node_id": "0.0-35.0-6.0", "time_elapsed": 307433, "key_press": -1, "trial_index": 50}, "uniqueid": "MTK2747:3VD82FOHKRV9DD8BNZUZHXIOGG0OCV", "dateTime": 1519323374399}, {"current_trial": 51, "trialdata": {"rt": -1, "trial_type": "single-stim", "stimulus": "<p id=\"stim\">3</p>", "internal_node_id": "0.0-35.0-7.0", "time_elapsed": 308434, "key_press": -1, "trial_index": 51}, "uniqueid": "MTK2747:3VD82FOHKRV9DD8BNZUZHXIOGG0OCV", "dateTime": 1519323375400}, {"current_trial": 52, "trialdata": {"rt": -1, "trial_type": "single-stim", "stimulus": "<p id=\"stim\">2</p>", "internal_node_id": "0.0-35.0-8.0", "time_elapsed": 309435, "key_press": -1, "trial_index": 52}, "uniqueid": "MTK2747:3VD82FOHKRV9DD8BNZUZHXIOGG0OCV", "dateTime": 1519323376401}, {"current_trial": 53, "trialdata": {"rt": -1, "trial_type": "single-stim", "stimulus": "<p id=\"stim\">1</p>", "internal_node_id": "0.0-35.0-9.0", "time_elapsed": 310436, "key_press": -1, "trial_index": 53}, "uniqueid": "MTK2747:3VD82FOHKRV9DD8BNZUZHXIOGG0OCV", "dateTime": 1519323377402}, {"current_trial": 54, "trialdata": {"rt": -1, "trial_type": "single-stim", "stimulus": "<p id=\"stim\">+</p>", "internal_node_id": "0.0-36.0-0.0", "time_elapsed": 311938, "key_press": -1, "type": "FIXATION", "trial_index": 54}, "uniqueid": "MTK2747:3VD82FOHKRV9DD8BNZUZHXIOGG0OCV", "dateTime": 1519323378904}, {"current_trial": 55, "trialdata": {"rt": -1, "trial_type": "single-stim", "word": "cashew", "stimulus": "<p id=\"stim\">CASHEW</p>", "conditions": [18, 1200, "v", 18000], "internal_node_id": "0.0-37.0", "trial": 1, "time_elapsed": 313140, "serialpos": 0, "key_press": -1, "wordID": 252, "type": "PRES_VIS", "trial_index": 55}, "uniqueid": "MTK2747:3VD82FOHKRV9DD8BNZUZHXIOGG0OCV", "dateTime": 1519323380106}, {"current_trial": 56, "trialdata": {"rt": -1, "trial_type": "single-stim", "word": "piston", "stimulus": "<p id=\"stim\">PISTON</p>", "conditions": [18, 1200, "v", 18000], "internal_node_id": "0.0-38.0", "trial": 1, "time_elapsed": 315159, "serialpos": 1, "key_press": -1, "wordID": 1075, "type": "PRES_VIS", "trial_index": 56}, "uniqueid": "MTK2747:3VD82FOHKRV9DD8BNZUZHXIOGG0OCV", "dateTime": 1519323382125}, {"current_trial": 57, "trialdata": {"rt": -1, "trial_type": "single-stim", "word": "curtain", "stimulus": "<p id=\"stim\">CURTAIN</p>", "conditions": [18, 1200, "v", 18000], "internal_node_id": "0.0-39.0", "trial": 1, "time_elapsed": 317474, "serialpos": 2, "key_press": -1, "wordID": 426, "type": "PRES_VIS", "trial_index": 57}, "uniqueid": "MTK2747:3VD82FOHKRV9DD8BNZUZHXIOGG0OCV", "dateTime": 1519323384441}, {"current_trial": 58, "trialdata": {"rt": -1, "trial_type": "single-stim", "word": "turkey", "stimulus": "<p id=\"stim\">TURKEY</p>", "conditions": [18, 1200, "v", 18000], "internal_node_id": "0.0-40.0", "trial": 1, "time_elapsed": 319604, "serialpos": 3, "key_press": -1, "wordID": 1519, "type": "PRES_VIS", "trial_index": 58}, "uniqueid": "MTK2747:3VD82FOHKRV9DD8BNZUZHXIOGG0OCV", "dateTime": 1519323386570}, {"current_trial": 59, "trialdata": {"rt": -1, "trial_type": "single-stim", "word": "space", "stimulus": "<p id=\"stim\">SPACE</p>", "conditions": [18, 1200, "v", 18000], "internal_node_id": "0.0-41.0", "trial": 1, "time_elapsed": 321865, "serialpos": 4, "key_press": -1, "wordID": 1344, "type": "PRES_VIS", "trial_index": 59}, "uniqueid": "MTK2747:3VD82FOHKRV9DD8BNZUZHXIOGG0OCV", "dateTime": 1519323388831}, {"current_trial": 60, "trialdata": {"rt": -1, "trial_type": "single-stim", "word": "kidney", "stimulus": "<p id=\"stim\">KIDNEY</p>", "conditions": [18, 1200, "v", 18000], "internal_node_id": "0.0-42.0", "trial": 1, "time_elapsed": 323939, "serialpos": 5, "key_press": -1, "wordID": 775, "type": "PRES_VIS", "trial_index": 60}, "uniqueid": "MTK2747:3VD82FOHKRV9DD8BNZUZHXIOGG0OCV", "dateTime": 1519323390905}, {"current_trial": 61, "trialdata": {"rt": -1, "trial_type": "single-stim", "word": "guard", "stimulus": "<p id=\"stim\">GUARD</p>", "conditions": [18, 1200, "v", 18000], "internal_node_id": "0.0-43.0", "trial": 1, "time_elapsed": 326260, "serialpos": 6, "key_press": -1, "wordID": 666, "type": "PRES_VIS", "trial_index": 61}, "uniqueid": "MTK2747:3VD82FOHKRV9DD8BNZUZHXIOGG0OCV", "dateTime": 1519323393226}, {"current_trial": 62, "trialdata": {"rt": -1, "trial_type": "single-stim", "word": "sculpture", "stimulus": "<p id=\"stim\">SCULPTURE</p>", "conditions": [18, 1200, "v", 18000], "internal_node_id": "0.0-44.0", "trial": 1, "time_elapsed": 328294, "serialpos": 7, "key_press": -1, "wordID": 1257, "type": "PRES_VIS", "trial_index": 62}, "uniqueid": "MTK2747:3VD82FOHKRV9DD8BNZUZHXIOGG0OCV", "dateTime": 1519323395260}, {"current_trial": 63, "trialdata": {"rt": -1, "trial_type": "single-stim", "word": "wife", "stimulus": "<p id=\"stim\">WIFE</p>", "conditions": [18, 1200, "v", 18000], "internal_node_id": "0.0-45.0", "trial": 1, "time_elapsed": 330554, "serialpos": 8, "key_press": -1, "wordID": 1608, "type": "PRES_VIS", "trial_index": 63}, "uniqueid": "MTK2747:3VD82FOHKRV9DD8BNZUZHXIOGG0OCV", "dateTime": 1519323397520}, {"current_trial": 64, "trialdata": {"rt": -1, "trial_type": "single-stim", "word": "fireman", "stimulus": "<p id=\"stim\">FIREMAN</p>", "conditions": [18, 1200, "v", 18000], "internal_node_id": "0.0-46.0", "trial": 1, "time_elapsed": 332946, "serialpos": 9, "key_press": -1, "wordID": 568, "type": "PRES_VIS", "trial_index": 64}, "uniqueid": "MTK2747:3VD82FOHKRV9DD8BNZUZHXIOGG0OCV", "dateTime": 1519323399912}, {"current_trial": 65, "trialdata": {"rt": -1, "trial_type": "single-stim", "word": "thief", "stimulus": "<p id=\"stim\">THIEF</p>", "conditions": [18, 1200, "v", 18000], "internal_node_id": "0.0-47.0", "trial": 1, "time_elapsed": 335335, "serialpos": 10, "key_press": -1, "wordID": 1455, "type": "PRES_VIS", "trial_index": 65}, "uniqueid": "MTK2747:3VD82FOHKRV9DD8BNZUZHXIOGG0OCV", "dateTime": 1519323402301}, {"current_trial": 66, "trialdata": {"rt": -1, "trial_type": "single-stim", "word": "bacon", "stimulus": "<p id=\"stim\">BACON</p>", "conditions": [18, 1200, "v", 18000], "internal_node_id": "0.0-48.0", "trial": 1, "time_elapsed": 337589, "serialpos": 11, "key_press": -1, "wordID": 66, "type": "PRES_VIS", "trial_index": 66}, "uniqueid": "MTK2747:3VD82FOHKRV9DD8BNZUZHXIOGG0OCV", "dateTime": 1519323404556}, {"current_trial": 67, "trialdata": {"rt": -1, "trial_type": "single-stim", "word": "catcher", "stimulus": "<p id=\"stim\">CATCHER</p>", "conditions": [18, 1200, "v", 18000], "internal_node_id": "0.0-49.0", "trial": 1, "time_elapsed": 339684, "serialpos": 12, "key_press": -1, "wordID": 257, "type": "PRES_VIS", "trial_index": 67}, "uniqueid": "MTK2747:3VD82FOHKRV9DD8BNZUZHXIOGG0OCV", "dateTime": 1519323406650}, {"current_trial": 68, "trialdata": {"rt": -1, "trial_type": "single-stim", "word": "breast", "stimulus": "<p id=\"stim\">BREAST</p>", "conditions": [18, 1200, "v", 18000], "internal_node_id": "0.0-50.0", "trial": 1, "time_elapsed": 342037, "serialpos": 13, "key_press": -1, "wordID": 170, "type": "PRES_VIS", "trial_index": 68}, "uniqueid": "MTK2747:3VD82FOHKRV9DD8BNZUZHXIOGG0OCV", "dateTime": 1519323409003}, {"current_trial": 69, "trialdata": {"rt": -1, "trial_type": "single-stim", "word": "binder", "stimulus": "<p id=\"stim\">BINDER</p>", "conditions": [18, 1200, "v", 18000], "internal_node_id": "0.0-51.0", "trial": 1, "time_elapsed": 344355, "serialpos": 14, "key_press": -1, "wordID": 126, "type": "PRES_VIS", "trial_index": 69}, "uniqueid": "MTK2747:3VD82FOHKRV9DD8BNZUZHXIOGG0OCV", "dateTime": 1519323411321}, {"current_trial": 70, "trialdata": {"rt": -1, "trial_type": "single-stim", "word": "human", "stimulus": "<p id=\"stim\">HUMAN</p>", "conditions": [18, 1200, "v", 18000], "internal_node_id": "0.0-52.0", "trial": 1, "time_elapsed": 346619, "serialpos": 15, "key_press": -1, "wordID": 725, "type": "PRES_VIS", "trial_index": 70}, "uniqueid": "MTK2747:3VD82FOHKRV9DD8BNZUZHXIOGG0OCV", "dateTime": 1519323413585}, {"current_trial": 71, "trialdata": {"rt": -1, "trial_type": "single-stim", "word": "tweezers", "stimulus": "<p id=\"stim\">TWEEZERS</p>", "conditions": [18, 1200, "v", 18000], "internal_node_id": "0.0-53.0", "trial": 1, "time_elapsed": 348759, "serialpos": 16, "key_press": -1, "wordID": 1525, "type": "PRES_VIS", "trial_index": 71}, "uniqueid": "MTK2747:3VD82FOHKRV9DD8BNZUZHXIOGG0OCV", "dateTime": 1519323415726}, {"current_trial": 72, "trialdata": {"rt": -1, "trial_type": "single-stim", "word": "cellar", "stimulus": "<p id=\"stim\">CELLAR</p>", "conditions": [18, 1200, "v", 18000], "internal_node_id": "0.0-54.0", "trial": 1, "time_elapsed": 350783, "serialpos": 17, "key_press": -1, "wordID": 266, "type": "PRES_VIS", "trial_index": 72}, "uniqueid": "MTK2747:3VD82FOHKRV9DD8BNZUZHXIOGG0OCV", "dateTime": 1519323417749}, {"current_trial": 73, "trialdata": {"rt": -1, "trial_type": "single-stim", "stimulus": "", "internal_node_id": "0.0-55.0-0.0", "time_elapsed": 352908, "key_press": -1, "type": "PRE_RECALL_DELAY", "trial_index": 73}, "uniqueid": "MTK2747:3VD82FOHKRV9DD8BNZUZHXIOGG0OCV", "dateTime": 1519323419875}, {"current_trial": 74, "trialdata": {"rt": -1000, "trial_type": "single-audio", "stimulus": "/static/audio/400Hz.wav", "internal_node_id": "0.0-56.0", "time_elapsed": 353410, "key_press": -1, "type": "PRE_RECALL_ALERT", "trial_index": 74}, "uniqueid": "MTK2747:3VD82FOHKRV9DD8BNZUZHXIOGG0OCV", "dateTime": 1519323420376}, {"current_trial": 75, "trialdata": {"rt": [2309, 5799, 12329, 13859, 22071, 51423, 57256, 59120], "recwords": ["cellar", "twister", "bacon", "wife", "cellar", "breast", "cashew", "kidney"], "key_times": [549, 909, 1254, 1417, 1529, 1678, 2309, 2931, 3336, 3645, 3928, 4147, 4390, 4580, 4748, 4825, 5799, 11346, 11499, 11789, 11932, 12104, 12329, 12889, 13041, 13265, 13440, 13859, 21059, 21292, 21455, 21612, 21703, 21840, 22071, 50232, 50465, 50570, 50632, 50899, 51102, 51423, 56230, 56410, 56538, 56789, 56910, 57017, 57256, 57781, 57965, 58083, 58335, 58523, 58709, 59120], "trial_type": "free-recall", "conditions": [18, 1200, "v", 18000], "internal_node_id": "0.0-57.0-0.0", "key_presses": [67, 69, 76, 76, 65, 82, 13, 87, 8, 84, 87, 73, 83, 84, 69, 82, 13, 66, 65, 67, 79, 78, 13, 87, 73, 70, 69, 13, 67, 69, 76, 76, 65, 82, 13, 66, 82, 69, 65, 83, 84, 13, 67, 65, 83, 72, 69, 87, 13, 75, 73, 68, 78, 69, 89, 13], "trial": 1, "time_elapsed": 413415, "type": "FREE_RECALL", "trial_index": 75}, "uniqueid": "MTK2747:3VD82FOHKRV9DD8BNZUZHXIOGG0OCV", "dateTime": 1519323480388}, {"current_trial": 76, "trialdata": {"rt": 2137, "trial_type": "text", "internal_node_id": "0.0-58.0", "time_elapsed": 417560, "key_press": 13, "type": "INSTRUCTIONS", "trial_index": 76}, "uniqueid": "MTK2747:3VD82FOHKRV9DD8BNZUZHXIOGG0OCV", "dateTime": 1519323484527}, {"current_trial": 77, "trialdata": {"rt": [2316, 7172, 9492, 11585, 13487, 15865, 17674, 19478, 22040], "trial_type": "math-distractor", "key_times": [1959, 2316, 5287, 6467, 7172, 8632, 9298, 9492, 10998, 11312, 11585, 13126, 13329, 13487, 14475, 14896, 15405, 15625, 15865, 17065, 17557, 17674, 18938, 19185, 19478, 20774, 21882, 22040], "responses": ["8", "12", "15", "17", "21", "13", "15", "12", "16"], "num2": [2, 2, 2, 8, 7, 4, 9, 3, 8, 9], "num3": [4, 8, 9, 7, 5, 3, 5, 5, 4, 1], "conditions": [12, 1600, "v", 24000], "internal_node_id": "0.0-59.0", "key_presses": [56, 13, 49, 50, 13, 49, 53, 13, 49, 55, 13, 50, 49, 13, 49, 52, 8, 51, 13, 49, 53, 13, 49, 50, 13, 49, 54, 13], "trial": 2, "time_elapsed": 442569, "type": "DISTRACTOR", "trial_index": 77, "num1": [2, 2, 4, 2, 9, 6, 1, 4, 4, 9]}, "uniqueid": "MTK2747:3VD82FOHKRV9DD8BNZUZHXIOGG0OCV", "dateTime": 1519323509536}, {"current_trial": 78, "trialdata": {"rt": -1, "trial_type": "single-stim", "stimulus": "<p id=\"stim\">10</p>", "internal_node_id": "0.0-60.0-0.0", "time_elapsed": 445571, "key_press": -1, "trial_index": 78}, "uniqueid": "MTK2747:3VD82FOHKRV9DD8BNZUZHXIOGG0OCV", "dateTime": 1519323512538}, {"current_trial": 79, "trialdata": {"rt": -1, "trial_type": "single-stim", "stimulus": "<p id=\"stim\">9</p>", "internal_node_id": "0.0-60.0-1.0", "time_elapsed": 446572, "key_press": -1, "trial_index": 79}, "uniqueid": "MTK2747:3VD82FOHKRV9DD8BNZUZHXIOGG0OCV", "dateTime": 1519323513539}, {"current_trial": 80, "trialdata": {"rt": -1, "trial_type": "single-stim", "stimulus": "<p id=\"stim\">8</p>", "internal_node_id": "0.0-60.0-2.0", "time_elapsed": 447573, "key_press": -1, "trial_index": 80}, "uniqueid": "MTK2747:3VD82FOHKRV9DD8BNZUZHXIOGG0OCV", "dateTime": 1519323514539}, {"current_trial": 81, "trialdata": {"rt": -1, "trial_type": "single-stim", "stimulus": "<p id=\"stim\">7</p>", "internal_node_id": "0.0-60.0-3.0", "time_elapsed": 448575, "key_press": -1, "trial_index": 81}, "uniqueid": "MTK2747:3VD82FOHKRV9DD8BNZUZHXIOGG0OCV", "dateTime": 1519323515541}, {"current_trial": 82, "trialdata": {"rt": -1, "trial_type": "single-stim", "stimulus": "<p id=\"stim\">6</p>", "internal_node_id": "0.0-60.0-4.0", "time_elapsed": 449576, "key_press": -1, "trial_index": 82}, "uniqueid": "MTK2747:3VD82FOHKRV9DD8BNZUZHXIOGG0OCV", "dateTime": 1519323516542}, {"current_trial": 83, "trialdata": {"rt": -1, "trial_type": "single-stim", "stimulus": "<p id=\"stim\">5</p>", "internal_node_id": "0.0-60.0-5.0", "time_elapsed": 450577, "key_press": -1, "trial_index": 83}, "uniqueid": "MTK2747:3VD82FOHKRV9DD8BNZUZHXIOGG0OCV", "dateTime": 1519323517543}, {"current_trial": 84, "trialdata": {"rt": -1, "trial_type": "single-stim", "stimulus": "<p id=\"stim\">4</p>", "internal_node_id": "0.0-60.0-6.0", "time_elapsed": 451579, "key_press": -1, "trial_index": 84}, "uniqueid": "MTK2747:3VD82FOHKRV9DD8BNZUZHXIOGG0OCV", "dateTime": 1519323518545}, {"current_trial": 85, "trialdata": {"rt": -1, "trial_type": "single-stim", "stimulus": "<p id=\"stim\">3</p>", "internal_node_id": "0.0-60.0-7.0", "time_elapsed": 452580, "key_press": -1, "trial_index": 85}, "uniqueid": "MTK2747:3VD82FOHKRV9DD8BNZUZHXIOGG0OCV", "dateTime": 1519323519546}, {"current_trial": 86, "trialdata": {"rt": -1, "trial_type": "single-stim", "stimulus": "<p id=\"stim\">2</p>", "internal_node_id": "0.0-60.0-8.0", "time_elapsed": 453583, "key_press": -1, "trial_index": 86}, "uniqueid": "MTK2747:3VD82FOHKRV9DD8BNZUZHXIOGG0OCV", "dateTime": 1519323520549}, {"current_trial": 87, "trialdata": {"rt": -1, "trial_type": "single-stim", "stimulus": "<p id=\"stim\">1</p>", "internal_node_id": "0.0-60.0-9.0", "time_elapsed": 454586, "key_press": -1, "trial_index": 87}, "uniqueid": "MTK2747:3VD82FOHKRV9DD8BNZUZHXIOGG0OCV", "dateTime": 1519323521552}, {"current_trial": 88, "trialdata": {"rt": -1, "trial_type": "single-stim", "stimulus": "<p id=\"stim\">+</p>", "internal_node_id": "0.0-61.0-0.0", "time_elapsed": 456087, "key_press": -1, "type": "FIXATION", "trial_index": 88}, "uniqueid": "MTK2747:3VD82FOHKRV9DD8BNZUZHXIOGG0OCV", "dateTime": 1519323523054}, {"current_trial": 89, "trialdata": {"rt": -1, "trial_type": "single-stim", "word": "college", "stimulus": "<p id=\"stim\">COLLEGE</p>", "conditions": [12, 1600, "v", 24000], "internal_node_id": "0.0-62.0", "trial": 2, "time_elapsed": 457689, "serialpos": 0, "key_press": -1, "wordID": 345, "type": "PRES_VIS", "trial_index": 89}, "uniqueid": "MTK2747:3VD82FOHKRV9DD8BNZUZHXIOGG0OCV", "dateTime": 1519323524655}, {"current_trial": 90, "trialdata": {"rt": -1, "trial_type": "single-stim", "word": "robber", "stimulus": "<p id=\"stim\">ROBBER</p>", "conditions": [12, 1600, "v", 24000], "internal_node_id": "0.0-63.0", "trial": 2, "time_elapsed": 460104, "serialpos": 1, "key_press": -1, "wordID": 1196, "type": "PRES_VIS", "trial_index": 90}, "uniqueid": "MTK2747:3VD82FOHKRV9DD8BNZUZHXIOGG0OCV", "dateTime": 1519323527070}, {"current_trial": 91, "trialdata": {"rt": -1, "trial_type": "single-stim", "word": "marsh", "stimulus": "<p id=\"stim\">MARSH</p>", "conditions": [12, 1600, "v", 24000], "internal_node_id": "0.0-64.0", "trial": 2, "time_elapsed": 462624, "serialpos": 2, "key_press": -1, "wordID": 873, "type": "PRES_VIS", "trial_index": 91}, "uniqueid": "MTK2747:3VD82FOHKRV9DD8BNZUZHXIOGG0OCV", "dateTime": 1519323529590}, {"current_trial": 92, "trialdata": {"rt": -1, "trial_type": "single-stim", "word": "lake", "stimulus": "<p id=\"stim\">LAKE</p>", "conditions": [12, 1600, "v", 24000], "internal_node_id": "0.0-65.0", "trial": 2, "time_elapsed": 465311, "serialpos": 3, "key_press": -1, "wordID": 795, "type": "PRES_VIS", "trial_index": 92}, "uniqueid": "MTK2747:3VD82FOHKRV9DD8BNZUZHXIOGG0OCV", "dateTime": 1519323532277}, {"current_trial": 93, "trialdata": {"rt": -1, "trial_type": "single-stim", "word": "rug", "stimulus": "<p id=\"stim\">RUG</p>", "conditions": [12, 1600, "v", 24000], "internal_node_id": "0.0-66.0", "trial": 2, "time_elapsed": 468036, "serialpos": 4, "key_press": -1, "wordID": 1214, "type": "PRES_VIS", "trial_index": 93}, "uniqueid": "MTK2747:3VD82FOHKRV9DD8BNZUZHXIOGG0OCV", "dateTime": 1519323535003}, {"current_trial": 94, "trialdata": {"rt": -1, "trial_type": "single-stim", "word": "sponge", "stimulus": "<p id=\"stim\">SPONGE</p>", "conditions": [12, 1600, "v", 24000], "internal_node_id": "0.0-67.0", "trial": 2, "time_elapsed": 470564, "serialpos": 5, "key_press": -1, "wordID": 1354, "type": "PRES_VIS", "trial_index": 94}, "uniqueid": "MTK2747:3VD82FOHKRV9DD8BNZUZHXIOGG0OCV", "dateTime": 1519323537530}, {"current_trial": 95, "trialdata": {"rt": -1, "trial_type": "single-stim", "word": "tractor", "stimulus": "<p id=\"stim\">TRACTOR</p>", "conditions": [12, 1600, "v", 24000], "internal_node_id": "0.0-68.0", "trial": 2, "time_elapsed": 473070, "serialpos": 6, "key_press": -1, "wordID": 1492, "type": "PRES_VIS", "trial_index": 95}, "uniqueid": "MTK2747:3VD82FOHKRV9DD8BNZUZHXIOGG0OCV", "dateTime": 1519323540036}, {"current_trial": 96, "trialdata": {"rt": -1, "trial_type": "single-stim", "word": "banquet", "stimulus": "<p id=\"stim\">BANQUET</p>", "conditions": [12, 1600, "v", 24000], "internal_node_id": "0.0-69.0", "trial": 2, "time_elapsed": 475490, "serialpos": 7, "key_press": -1, "wordID": 85, "type": "PRES_VIS", "trial_index": 96}, "uniqueid": "MTK2747:3VD82FOHKRV9DD8BNZUZHXIOGG0OCV", "dateTime": 1519323542456}, {"current_trial": 97, "trialdata": {"rt": -1, "trial_type": "single-stim", "word": "student", "stimulus": "<p id=\"stim\">STUDENT</p>", "conditions": [12, 1600, "v", 24000], "internal_node_id": "0.0-70.0", "trial": 2, "time_elapsed": 478151, "serialpos": 8, "key_press": -1, "wordID": 1394, "type": "PRES_VIS", "trial_index": 97}, "uniqueid": "MTK2747:3VD82FOHKRV9DD8BNZUZHXIOGG0OCV", "dateTime": 1519323545118}, {"current_trial": 98, "trialdata": {"rt": -1, "trial_type": "single-stim", "word": "knife", "stimulus": "<p id=\"stim\">KNIFE</p>", "conditions": [12, 1600, "v", 24000], "internal_node_id": "0.0-71.0", "trial": 2, "time_elapsed": 480825, "serialpos": 9, "key_press": -1, "wordID": 784, "type": "PRES_VIS", "trial_index": 98}, "uniqueid": "MTK2747:3VD82FOHKRV9DD8BNZUZHXIOGG0OCV", "dateTime": 1519323547791}, {"current_trial": 99, "trialdata": {"rt": -1, "trial_type": "single-stim", "word": "suspect", "stimulus": "<p id=\"stim\">SUSPECT</p>", "conditions": [12, 1600, "v", 24000], "internal_node_id": "0.0-72.0", "trial": 2, "time_elapsed": 483586, "serialpos": 10, "key_press": -1, "wordID": 1414, "type": "PRES_VIS", "trial_index": 99}, "uniqueid": "MTK2747:3VD82FOHKRV9DD8BNZUZHXIOGG0OCV", "dateTime": 1519323550552}, {"current_trial": 100, "trialdata": {"rt": -1, "trial_type": "single-stim", "word": "rust", "stimulus": "<p id=\"stim\">RUST</p>", "conditions": [12, 1600, "v", 24000], "internal_node_id": "0.0-73.0", "trial": 2, "time_elapsed": 486188, "serialpos": 11, "key_press": -1, "wordID": 1218, "type": "PRES_VIS", "trial_index": 100}, "uniqueid": "MTK2747:3VD82FOHKRV9DD8BNZUZHXIOGG0OCV", "dateTime": 1519323553154}, {"current_trial": 101, "trialdata": {"rt": -1, "trial_type": "single-stim", "stimulus": "", "internal_node_id": "0.0-74.0-0.0", "time_elapsed": 488604, "key_press": -1, "type": "PRE_RECALL_DELAY", "trial_index": 101}, "uniqueid": "MTK2747:3VD82FOHKRV9DD8BNZUZHXIOGG0OCV", "dateTime": 1519323555570}, {"current_trial": 102, "trialdata": {"rt": -1000, "trial_type": "single-audio", "stimulus": "/static/audio/400Hz.wav", "internal_node_id": "0.0-75.0", "time_elapsed": 489105, "key_press": -1, "type": "PRE_RECALL_ALERT", "trial_index": 102}, "uniqueid": "MTK2747:3VD82FOHKRV9DD8BNZUZHXIOGG0OCV", "dateTime": 1519323556071}, {"current_trial": 103, "trialdata": {"rt": [1933, 3940, 5587, 9018, 10878, 21706], "recwords": ["college", "robber", "marsh", "lake", "knife", "student"], "key_times": [719, 869, 1102, 1260, 1348, 1590, 1809, 1933, 2343, 2465, 2705, 3484, 3723, 3786, 3940, 4480, 4600, 4742, 5175, 5325, 5587, 6370, 6499, 6692, 6863, 9018, 9581, 9743, 9939, 10317, 10480, 10878, 20549, 20809, 20953, 21153, 21328, 21402, 21574, 21706], "trial_type": "free-recall", "conditions": [12, 1600, "v", 24000], "internal_node_id": "0.0-76.0-0.0", "key_presses": [67, 79, 76, 76, 69, 71, 69, 13, 82, 79, 66, 66, 69, 82, 13, 77, 65, 82, 83, 72, 32, 76, 65, 75, 69, 13, 75, 78, 73, 70, 69, 13, 83, 84, 85, 68, 69, 78, 84, 13], "trial": 2, "time_elapsed": 549110, "type": "FREE_RECALL", "trial_index": 103}, "uniqueid": "MTK2747:3VD82FOHKRV9DD8BNZUZHXIOGG0OCV", "dateTime": 1519323616085}, {"current_trial": 104, "trialdata": {"rt": 1845, "trial_type": "text", "internal_node_id": "0.0-77.0", "time_elapsed": 552966, "key_press": 32, "type": "INSTRUCTIONS", "trial_index": 104}, "uniqueid": "MTK2747:3VD82FOHKRV9DD8BNZUZHXIOGG0OCV", "dateTime": 1519323619932}, {"current_trial": 105, "trialdata": {"rt": [2199, 4341, 6110, 8495, 10258, 12389, 15285, 16955, 18558, 20404, 21897, 23531], "trial_type": "math-distractor", "key_times": [1589, 1732, 2199, 3489, 4190, 4341, 5711, 5978, 6110, 7811, 8330, 8495, 9656, 10137, 10258, 12168, 12389, 14072, 15058, 15285, 16501, 16826, 16955, 18398, 18558, 19767, 20219, 20404, 21548, 21697, 21897, 23434, 23531], "responses": ["12", "17", "13", "19", "16", "9", "19", "14", "9", "17", "12", "5"], "num2": [2, 5, 2, 8, 8, 5, 2, 3, 2, 8, 4, 1, 8], "num3": [4, 3, 6, 5, 5, 1, 8, 2, 5, 5, 1, 1, 3], "conditions": [24, 1600, "v", 24000], "internal_node_id": "0.0-78.0", "key_presses": [49, 50, 13, 49, 55, 13, 49, 51, 13, 49, 57, 13, 49, 54, 13, 57, 13, 49, 57, 13, 49, 52, 13, 57, 13, 49, 55, 13, 49, 50, 13, 53, 13], "trial": 3, "time_elapsed": 578973, "type": "DISTRACTOR", "trial_index": 105, "num1": [6, 9, 5, 6, 3, 3, 9, 9, 2, 4, 7, 3, 4]}, "uniqueid": "MTK2747:3VD82FOHKRV9DD8BNZUZHXIOGG0OCV", "dateTime": 1519323645939}, {"current_trial": 106, "trialdata": {"rt": -1, "trial_type": "single-stim", "stimulus": "<p id=\"stim\">10</p>", "internal_node_id": "0.0-79.0-0.0", "time_elapsed": 581975, "key_press": -1, "trial_index": 106}, "uniqueid": "MTK2747:3VD82FOHKRV9DD8BNZUZHXIOGG0OCV", "dateTime": 1519323648941}, {"current_trial": 107, "trialdata": {"rt": -1, "trial_type": "single-stim", "stimulus": "<p id=\"stim\">9</p>", "internal_node_id": "0.0-79.0-1.0", "time_elapsed": 582976, "key_press": -1, "trial_index": 107}, "uniqueid": "MTK2747:3VD82FOHKRV9DD8BNZUZHXIOGG0OCV", "dateTime": 1519323649943}, {"current_trial": 108, "trialdata": {"rt": -1, "trial_type": "single-stim", "stimulus": "<p id=\"stim\">8</p>", "internal_node_id": "0.0-79.0-2.0", "time_elapsed": 583978, "key_press": -1, "trial_index": 108}, "uniqueid": "MTK2747:3VD82FOHKRV9DD8BNZUZHXIOGG0OCV", "dateTime": 1519323650944}, {"current_trial": 109, "trialdata": {"rt": -1, "trial_type": "single-stim", "stimulus": "<p id=\"stim\">7</p>", "internal_node_id": "0.0-79.0-3.0", "time_elapsed": 584979, "key_press": -1, "trial_index": 109}, "uniqueid": "MTK2747:3VD82FOHKRV9DD8BNZUZHXIOGG0OCV", "dateTime": 1519323651946}, {"current_trial": 110, "trialdata": {"rt": -1, "trial_type": "single-stim", "stimulus": "<p id=\"stim\">6</p>", "internal_node_id": "0.0-79.0-4.0", "time_elapsed": 585980, "key_press": -1, "trial_index": 110}, "uniqueid": "MTK2747:3VD82FOHKRV9DD8BNZUZHXIOGG0OCV", "dateTime": 1519323652947}, {"current_trial": 111, "trialdata": {"rt": -1, "trial_type": "single-stim", "stimulus": "<p id=\"stim\">5</p>", "internal_node_id": "0.0-79.0-5.0", "time_elapsed": 586981, "key_press": -1, "trial_index": 111}, "uniqueid": "MTK2747:3VD82FOHKRV9DD8BNZUZHXIOGG0OCV", "dateTime": 1519323653948}, {"current_trial": 112, "trialdata": {"rt": -1, "trial_type": "single-stim", "stimulus": "<p id=\"stim\">4</p>", "internal_node_id": "0.0-79.0-6.0", "time_elapsed": 587983, "key_press": -1, "trial_index": 112}, "uniqueid": "MTK2747:3VD82FOHKRV9DD8BNZUZHXIOGG0OCV", "dateTime": 1519323654949}, {"current_trial": 113, "trialdata": {"rt": -1, "trial_type": "single-stim", "stimulus": "<p id=\"stim\">3</p>", "internal_node_id": "0.0-79.0-7.0", "time_elapsed": 588984, "key_press": -1, "trial_index": 113}, "uniqueid": "MTK2747:3VD82FOHKRV9DD8BNZUZHXIOGG0OCV", "dateTime": 1519323655950}, {"current_trial": 114, "trialdata": {"rt": -1, "trial_type": "single-stim", "stimulus": "<p id=\"stim\">2</p>", "internal_node_id": "0.0-79.0-8.0", "time_elapsed": 589985, "key_press": -1, "trial_index": 114}, "uniqueid": "MTK2747:3VD82FOHKRV9DD8BNZUZHXIOGG0OCV", "dateTime": 1519323656951}, {"current_trial": 115, "trialdata": {"rt": -1, "trial_type": "single-stim", "stimulus": "<p id=\"stim\">1</p>", "internal_node_id": "0.0-79.0-9.0", "time_elapsed": 590987, "key_press": -1, "trial_index": 115}, "uniqueid": "MTK2747:3VD82FOHKRV9DD8BNZUZHXIOGG0OCV", "dateTime": 1519323657953}, {"current_trial": 116, "trialdata": {"rt": -1, "trial_type": "single-stim", "stimulus": "<p id=\"stim\">+</p>", "internal_node_id": "0.0-80.0-0.0", "time_elapsed": 592488, "key_press": -1, "type": "FIXATION", "trial_index": 116}, "uniqueid": "MTK2747:3VD82FOHKRV9DD8BNZUZHXIOGG0OCV", "dateTime": 1519323659454}, {"current_trial": 117, "trialdata": {"rt": -1, "trial_type": "single-stim", "word": "bureau", "stimulus": "<p id=\"stim\">BUREAU</p>", "conditions": [24, 1600, "v", 24000], "internal_node_id": "0.0-81.0", "trial": 3, "time_elapsed": 594089, "serialpos": 0, "key_press": -1, "wordID": 198, "type": "PRES_VIS", "trial_index": 117}, "uniqueid": "MTK2747:3VD82FOHKRV9DD8BNZUZHXIOGG0OCV", "dateTime": 1519323661056}, {"current_trial": 118, "trialdata": {"rt": -1, "trial_type": "single-stim", "word": "valley", "stimulus": "<p id=\"stim\">VALLEY</p>", "conditions": [24, 1600, "v", 24000], "internal_node_id": "0.0-82.0", "trial": 3, "time_elapsed": 596795, "serialpos": 1, "key_press": -1, "wordID": 1544, "type": "PRES_VIS", "trial_index": 118}, "uniqueid": "MTK2747:3VD82FOHKRV9DD8BNZUZHXIOGG0OCV", "dateTime": 1519323663761}, {"current_trial": 119, "trialdata": {"rt": -1, "trial_type": "single-stim", "word": "canyon", "stimulus": "<p id=\"stim\">CANYON</p>", "conditions": [24, 1600, "v", 24000], "internal_node_id": "0.0-83.0", "trial": 3, "time_elapsed": 599424, "serialpos": 2, "key_press": -1, "wordID": 234, "type": "PRES_VIS", "trial_index": 119}, "uniqueid": "MTK2747:3VD82FOHKRV9DD8BNZUZHXIOGG0OCV", "dateTime": 1519323666390}, {"current_trial": 120, "trialdata": {"rt": -1, "trial_type": "single-stim", "word": "country", "stimulus": "<p id=\"stim\">COUNTRY</p>", "conditions": [24, 1600, "v", 24000], "internal_node_id": "0.0-84.0", "trial": 3, "time_elapsed": 601906, "serialpos": 3, "key_press": -1, "wordID": 387, "type": "PRES_VIS", "trial_index": 120}, "uniqueid": "MTK2747:3VD82FOHKRV9DD8BNZUZHXIOGG0OCV", "dateTime": 1519323668873}, {"current_trial": 121, "trialdata": {"rt": -1, "trial_type": "single-stim", "word": "typist", "stimulus": "<p id=\"stim\">TYPIST</p>", "conditions": [24, 1600, "v", 24000], "internal_node_id": "0.0-85.0", "trial": 3, "time_elapsed": 604391, "serialpos": 4, "key_press": -1, "wordID": 1531, "type": "PRES_VIS", "trial_index": 121}, "uniqueid": "MTK2747:3VD82FOHKRV9DD8BNZUZHXIOGG0OCV", "dateTime": 1519323671357}, {"current_trial": 122, "trialdata": {"rt": -1, "trial_type": "single-stim", "word": "plaza", "stimulus": "<p id=\"stim\">PLAZA</p>", "conditions": [24, 1600, "v", 24000], "internal_node_id": "0.0-86.0", "trial": 3, "time_elapsed": 606977, "serialpos": 5, "key_press": -1, "wordID": 1087, "type": "PRES_VIS", "trial_index": 122}, "uniqueid": "MTK2747:3VD82FOHKRV9DD8BNZUZHXIOGG0OCV", "dateTime": 1519323673943}, {"current_trial": 123, "trialdata": {"rt": -1, "trial_type": "single-stim", "word": "lace", "stimulus": "<p id=\"stim\">LACE</p>", "conditions": [24, 1600, "v", 24000], "internal_node_id": "0.0-87.0", "trial": 3, "time_elapsed": 609603, "serialpos": 6, "key_press": -1, "wordID": 791, "type": "PRES_VIS", "trial_index": 123}, "uniqueid": "MTK2747:3VD82FOHKRV9DD8BNZUZHXIOGG0OCV", "dateTime": 1519323676569}, {"current_trial": 124, "trialdata": {"rt": -1, "trial_type": "single-stim", "word": "hook", "stimulus": "<p id=\"stim\">HOOK</p>", "conditions": [24, 1600, "v", 24000], "internal_node_id": "0.0-88.0", "trial": 3, "time_elapsed": 612324, "serialpos": 7, "key_press": -1, "wordID": 714, "type": "PRES_VIS", "trial_index": 124}, "uniqueid": "MTK2747:3VD82FOHKRV9DD8BNZUZHXIOGG0OCV", "dateTime": 1519323679291}, {"current_trial": 125, "trialdata": {"rt": -1, "trial_type": "single-stim", "word": "taxi", "stimulus": "<p id=\"stim\">TAXI</p>", "conditions": [24, 1600, "v", 24000], "internal_node_id": "0.0-89.0", "trial": 3, "time_elapsed": 615108, "serialpos": 8, "key_press": -1, "wordID": 1437, "type": "PRES_VIS", "trial_index": 125}, "uniqueid": "MTK2747:3VD82FOHKRV9DD8BNZUZHXIOGG0OCV", "dateTime": 1519323682074}, {"current_trial": 126, "trialdata": {"rt": -1, "trial_type": "single-stim", "word": "actress", "stimulus": "<p id=\"stim\">ACTRESS</p>", "conditions": [24, 1600, "v", 24000], "internal_node_id": "0.0-90.0", "trial": 3, "time_elapsed": 617640, "serialpos": 9, "key_press": -1, "wordID": 5, "type": "PRES_VIS", "trial_index": 126}, "uniqueid": "MTK2747:3VD82FOHKRV9DD8BNZUZHXIOGG0OCV", "dateTime": 1519323684606}, {"current_trial": 127, "trialdata": {"rt": -1, "trial_type": "single-stim", "word": "police", "stimulus": "<p id=\"stim\">POLICE</p>", "conditions": [24, 1600, "v", 24000], "internal_node_id": "0.0-91.0", "trial": 3, "time_elapsed": 620353, "serialpos": 10, "key_press": -1, "wordID": 1097, "type": "PRES_VIS", "trial_index": 127}, "uniqueid": "MTK2747:3VD82FOHKRV9DD8BNZUZHXIOGG0OCV", "dateTime": 1519323687319}, {"current_trial": 128, "trialdata": {"rt": -1, "trial_type": "single-stim", "word": "world", "stimulus": "<p id=\"stim\">WORLD</p>", "conditions": [24, 1600, "v", 24000], "internal_node_id": "0.0-92.0", "trial": 3, "time_elapsed": 623065, "serialpos": 11, "key_press": -1, "wordID": 1621, "type": "PRES_VIS", "trial_index": 128}, "uniqueid": "MTK2747:3VD82FOHKRV9DD8BNZUZHXIOGG0OCV", "dateTime": 1519323690031}, {"current_trial": 129, "trialdata": {"rt": -1, "trial_type": "single-stim", "word": "rocket", "stimulus": "<p id=\"stim\">ROCKET</p>", "conditions": [24, 1600, "v", 24000], "internal_node_id": "0.0-93.0", "trial": 3, "time_elapsed": 625605, "serialpos": 12, "key_press": -1, "wordID": 1201, "type": "PRES_VIS", "trial_index": 129}, "uniqueid": "MTK2747:3VD82FOHKRV9DD8BNZUZHXIOGG0OCV", "dateTime": 1519323692571}, {"current_trial": 130, "trialdata": {"rt": -1, "trial_type": "single-stim", "word": "missile", "stimulus": "<p id=\"stim\">MISSILE</p>", "conditions": [24, 1600, "v", 24000], "internal_node_id": "0.0-94.0", "trial": 3, "time_elapsed": 628068, "serialpos": 13, "key_press": -1, "wordID": 899, "type": "PRES_VIS", "trial_index": 130}, "uniqueid": "MTK2747:3VD82FOHKRV9DD8BNZUZHXIOGG0OCV", "dateTime": 1519323695035}, {"current_trial": 131, "trialdata": {"rt": -1, "trial_type": "single-stim", "word": "asia", "stimulus": "<p id=\"stim\">ASIA</p>", "conditions": [24, 1600, "v", 24000], "internal_node_id": "0.0-95.0", "trial": 3, "time_elapsed": 630690, "serialpos": 14, "key_press": -1, "wordID": 45, "type": "PRES_VIS", "trial_index": 131}, "uniqueid": "MTK2747:3VD82FOHKRV9DD8BNZUZHXIOGG0OCV", "dateTime": 1519323697656}, {"current_trial": 132, "trialdata": {"rt": -1, "trial_type": "single-stim", "word": "turtle", "stimulus": "<p id=\"stim\">TURTLE</p>", "conditions": [24, 1600, "v", 24000], "internal_node_id": "0.0-96.0", "trial": 3, "time_elapsed": 633095, "serialpos": 15, "key_press": -1, "wordID": 1521, "type": "PRES_VIS", "trial_index": 132}, "uniqueid": "MTK2747:3VD82FOHKRV9DD8BNZUZHXIOGG0OCV", "dateTime": 1519323700061}, {"current_trial": 133, "trialdata": {"rt": -1, "trial_type": "single-stim", "word": "vagrant", "stimulus": "<p id=\"stim\">VAGRANT</p>", "conditions": [24, 1600, "v", 24000], "internal_node_id": "0.0-97.0", "trial": 3, "time_elapsed": 635709, "serialpos": 16, "key_press": -1, "wordID": 1543, "type": "PRES_VIS", "trial_index": 133}, "uniqueid": "MTK2747:3VD82FOHKRV9DD8BNZUZHXIOGG0OCV", "dateTime": 1519323702676}, {"current_trial": 134, "trialdata": {"rt": -1, "trial_type": "single-stim", "word": "crab", "stimulus": "<p id=\"stim\">CRAB</p>", "conditions": [24, 1600, "v", 24000], "internal_node_id": "0.0-98.0", "trial": 3, "time_elapsed": 638216, "serialpos": 17, "key_press": -1, "wordID": 396, "type": "PRES_VIS", "trial_index": 134}, "uniqueid": "MTK2747:3VD82FOHKRV9DD8BNZUZHXIOGG0OCV", "dateTime": 1519323705182}, {"current_trial": 135, "trialdata": {"rt": -1, "trial_type": "single-stim", "word": "church", "stimulus": "<p id=\"stim\">CHURCH</p>", "conditions": [24, 1600, "v", 24000], "internal_node_id": "0.0-99.0", "trial": 3, "time_elapsed": 640653, "serialpos": 18, "key_press": -1, "wordID": 306, "type": "PRES_VIS", "trial_index": 135}, "uniqueid": "MTK2747:3VD82FOHKRV9DD8BNZUZHXIOGG0OCV", "dateTime": 1519323707619}, {"current_trial": 136, "trialdata": {"rt": -1, "trial_type": "single-stim", "word": "pastry", "stimulus": "<p id=\"stim\">PASTRY</p>", "conditions": [24, 1600, "v", 24000], "internal_node_id": "0.0-100.0", "trial": 3, "time_elapsed": 643100, "serialpos": 19, "key_press": -1, "wordID": 1021, "type": "PRES_VIS", "trial_index": 136}, "uniqueid": "MTK2747:3VD82FOHKRV9DD8BNZUZHXIOGG0OCV", "dateTime": 1519323710067}, {"current_trial": 137, "trialdata": {"rt": -1, "trial_type": "single-stim", "word": "hand", "stimulus": "<p id=\"stim\">HAND</p>", "conditions": [24, 1600, "v", 24000], "internal_node_id": "0.0-101.0", "trial": 3, "time_elapsed": 645695, "serialpos": 20, "key_press": -1, "wordID": 682, "type": "PRES_VIS", "trial_index": 137}, "uniqueid": "MTK2747:3VD82FOHKRV9DD8BNZUZHXIOGG0OCV", "dateTime": 1519323712661}, {"current_trial": 138, "trialdata": {"rt": -1, "trial_type": "single-stim", "word": "rifle", "stimulus": "<p id=\"stim\">RIFLE</p>", "conditions": [24, 1600, "v", 24000], "internal_node_id": "0.0-102.0", "trial": 3, "time_elapsed": 648338, "serialpos": 21, "key_press": -1, "wordID": 1191, "type": "PRES_VIS", "trial_index": 138}, "uniqueid": "MTK2747:3VD82FOHKRV9DD8BNZUZHXIOGG0OCV", "dateTime": 1519323715305}, {"current_trial": 139, "trialdata": {"rt": -1, "trial_type": "single-stim", "word": "leopard", "stimulus": "<p id=\"stim\">LEOPARD</p>", "conditions": [24, 1600, "v", 24000], "internal_node_id": "0.0-103.0", "trial": 3, "time_elapsed": 650771, "serialpos": 22, "key_press": -1, "wordID": 811, "type": "PRES_VIS", "trial_index": 139}, "uniqueid": "MTK2747:3VD82FOHKRV9DD8BNZUZHXIOGG0OCV", "dateTime": 1519323717737}, {"current_trial": 140, "trialdata": {"rt": -1, "trial_type": "single-stim", "word": "chapel", "stimulus": "<p id=\"stim\">CHAPEL</p>", "conditions": [24, 1600, "v", 24000], "internal_node_id": "0.0-104.0", "trial": 3, "time_elapsed": 653319, "serialpos": 23, "key_press": -1, "wordID": 279, "type": "PRES_VIS", "trial_index": 140}, "uniqueid": "MTK2747:3VD82FOHKRV9DD8BNZUZHXIOGG0OCV", "dateTime": 1519323720285}, {"current_trial": 141, "trialdata": {"rt": -1, "trial_type": "single-stim", "stimulus": "", "internal_node_id": "0.0-105.0-0.0", "time_elapsed": 655629, "key_press": -1, "type": "PRE_RECALL_DELAY", "trial_index": 141}, "uniqueid": "MTK2747:3VD82FOHKRV9DD8BNZUZHXIOGG0OCV", "dateTime": 1519323722595}, {"current_trial": 142, "trialdata": {"rt": -1000, "trial_type": "single-audio", "stimulus": "/static/audio/400Hz.wav", "internal_node_id": "0.0-106.0", "time_elapsed": 656132, "key_press": -1, "type": "PRE_RECALL_ALERT", "trial_index": 142}, "uniqueid": "MTK2747:3VD82FOHKRV9DD8BNZUZHXIOGG0OCV", "dateTime": 1519323723098}, {"current_trial": 143, "trialdata": {"rt": [2173, 4021, 5371, 7899, 10060, 14561, 25461], "recwords": ["chapel", "police", "world", "rocket", "valley", "canyon", "missile"], "key_times": [1045, 1148, 1264, 1375, 1555, 1940, 2173, 2888, 3097, 3293, 3447, 3596, 3814, 4021, 4456, 4533, 4752, 4991, 5188, 5371, 5954, 6107, 6391, 6550, 6675, 6847, 7899, 8488, 8850, 9013, 9193, 9391, 9546, 9668, 9812, 10060, 10539, 10725, 10874, 11232, 11397, 11649, 14561, 23657, 23911, 24153, 24310, 24456, 25076, 25337, 25461], "trial_type": "free-recall", "conditions": [24, 1600, "v", 24000], "internal_node_id": "0.0-107.0-0.0", "key_presses": [67, 72, 65, 80, 69, 76, 13, 80, 79, 76, 73, 67, 69, 13, 87, 79, 82, 76, 68, 13, 82, 79, 67, 75, 69, 84, 13, 67, 8, 86, 65, 76, 76, 69, 89, 13, 67, 65, 78, 89, 79, 78, 13, 77, 73, 83, 83, 73, 76, 69, 13], "trial": 3, "time_elapsed": 716137, "type": "FREE_RECALL", "trial_index": 143}, "uniqueid": "MTK2747:3VD82FOHKRV9DD8BNZUZHXIOGG0OCV", "dateTime": 1519323783108}, {"current_trial": 144, "trialdata": {"rt": 1736, "trial_type": "text", "internal_node_id": "0.0-108.0", "time_elapsed": 719880, "key_press": 32, "type": "INSTRUCTIONS", "trial_index": 144}, "uniqueid": "MTK2747:3VD82FOHKRV9DD8BNZUZHXIOGG0OCV", "dateTime": 1519323786846}, {"current_trial": 145, "trialdata": {"rt": [1892, 3785, 6814, 8420, 11562, 13227, 19137, 21013, 23358], "trial_type": "math-distractor", "key_times": [1429, 1892, 3186, 3659, 3785, 6469, 6671, 6814, 8316, 8420, 11262, 11453, 11562, 12774, 13095, 13227, 15125, 18884, 19137, 20596, 20833, 21013, 23003, 23190, 23358], "responses": ["8", "15", "21", "5", "22", "13", "15", "10", "20"], "num2": [1, 9, 6, 2, 8, 3, 9, 8, 8, 2], "num3": [6, 3, 9, 1, 8, 4, 2, 1, 7, 8], "conditions": [24, 1600, "v", 24000], "internal_node_id": "0.0-109.0", "key_presses": [56, 13, 49, 53, 13, 50, 49, 13, 53, 13, 50, 50, 13, 49, 51, 13, 49, 53, 13, 49, 48, 13, 50, 48, 13], "trial": 4, "time_elapsed": 745887, "type": "DISTRACTOR", "trial_index": 145, "num1": [1, 3, 6, 2, 6, 6, 4, 1, 5, 6]}, "uniqueid": "MTK2747:3VD82FOHKRV9DD8BNZUZHXIOGG0OCV", "dateTime": 1519323812853}, {"current_trial": 146, "trialdata": {"rt": -1, "trial_type": "single-stim", "stimulus": "<p id=\"stim\">10</p>", "internal_node_id": "0.0-110.0-0.0", "time_elapsed": 748889, "key_press": -1, "trial_index": 146}, "uniqueid": "MTK2747:3VD82FOHKRV9DD8BNZUZHXIOGG0OCV", "dateTime": 1519323815855}, {"current_trial": 147, "trialdata": {"rt": -1, "trial_type": "single-stim", "stimulus": "<p id=\"stim\">9</p>", "internal_node_id": "0.0-110.0-1.0", "time_elapsed": 749892, "key_press": -1, "trial_index": 147}, "uniqueid": "MTK2747:3VD82FOHKRV9DD8BNZUZHXIOGG0OCV", "dateTime": 1519323816859}, {"current_trial": 148, "trialdata": {"rt": -1, "trial_type": "single-stim", "stimulus": "<p id=\"stim\">8</p>", "internal_node_id": "0.0-110.0-2.0", "time_elapsed": 750896, "key_press": -1, "trial_index": 148}, "uniqueid": "MTK2747:3VD82FOHKRV9DD8BNZUZHXIOGG0OCV", "dateTime": 1519323817862}, {"current_trial": 149, "trialdata": {"rt": -1, "trial_type": "single-stim", "stimulus": "<p id=\"stim\">7</p>", "internal_node_id": "0.0-110.0-3.0", "time_elapsed": 751898, "key_press": -1, "trial_index": 149}, "uniqueid": "MTK2747:3VD82FOHKRV9DD8BNZUZHXIOGG0OCV", "dateTime": 1519323818865}, {"current_trial": 150, "trialdata": {"rt": -1, "trial_type": "single-stim", "stimulus": "<p id=\"stim\">6</p>", "internal_node_id": "0.0-110.0-4.0", "time_elapsed": 752899, "key_press": -1, "trial_index": 150}, "uniqueid": "MTK2747:3VD82FOHKRV9DD8BNZUZHXIOGG0OCV", "dateTime": 1519323819866}, {"current_trial": 151, "trialdata": {"rt": -1, "trial_type": "single-stim", "stimulus": "<p id=\"stim\">5</p>", "internal_node_id": "0.0-110.0-5.0", "time_elapsed": 753901, "key_press": -1, "trial_index": 151}, "uniqueid": "MTK2747:3VD82FOHKRV9DD8BNZUZHXIOGG0OCV", "dateTime": 1519323820867}, {"current_trial": 152, "trialdata": {"rt": -1, "trial_type": "single-stim", "stimulus": "<p id=\"stim\">4</p>", "internal_node_id": "0.0-110.0-6.0", "time_elapsed": 754902, "key_press": -1, "trial_index": 152}, "uniqueid": "MTK2747:3VD82FOHKRV9DD8BNZUZHXIOGG0OCV", "dateTime": 1519323821868}, {"current_trial": 153, "trialdata": {"rt": -1, "trial_type": "single-stim", "stimulus": "<p id=\"stim\">3</p>", "internal_node_id": "0.0-110.0-7.0", "time_elapsed": 755903, "key_press": -1, "trial_index": 153}, "uniqueid": "MTK2747:3VD82FOHKRV9DD8BNZUZHXIOGG0OCV", "dateTime": 1519323822869}, {"current_trial": 154, "trialdata": {"rt": -1, "trial_type": "single-stim", "stimulus": "<p id=\"stim\">2</p>", "internal_node_id": "0.0-110.0-8.0", "time_elapsed": 756905, "key_press": -1, "trial_index": 154}, "uniqueid": "MTK2747:3VD82FOHKRV9DD8BNZUZHXIOGG0OCV", "dateTime": 1519323823871}, {"current_trial": 155, "trialdata": {"rt": -1, "trial_type": "single-stim", "stimulus": "<p id=\"stim\">1</p>", "internal_node_id": "0.0-110.0-9.0", "time_elapsed": 757906, "key_press": -1, "trial_index": 155}, "uniqueid": "MTK2747:3VD82FOHKRV9DD8BNZUZHXIOGG0OCV", "dateTime": 1519323824873}, {"current_trial": 156, "trialdata": {"rt": -1, "trial_type": "single-stim", "stimulus": "<p id=\"stim\">+</p>", "internal_node_id": "0.0-111.0-0.0", "time_elapsed": 759408, "key_press": -1, "type": "FIXATION", "trial_index": 156}, "uniqueid": "MTK2747:3VD82FOHKRV9DD8BNZUZHXIOGG0OCV", "dateTime": 1519323826374}, {"current_trial": 157, "trialdata": {"rt": -1, "trial_type": "single-stim", "word": "rooster", "stimulus": "<p id=\"stim\">ROOSTER</p>", "conditions": [24, 1600, "v", 24000], "internal_node_id": "0.0-112.0", "trial": 4, "time_elapsed": 761010, "serialpos": 0, "key_press": -1, "wordID": 1208, "type": "PRES_VIS", "trial_index": 157}, "uniqueid": "MTK2747:3VD82FOHKRV9DD8BNZUZHXIOGG0OCV", "dateTime": 1519323827976}, {"current_trial": 158, "trialdata": {"rt": -1, "trial_type": "single-stim", "word": "bullet", "stimulus": "<p id=\"stim\">BULLET</p>", "conditions": [24, 1600, "v", 24000], "internal_node_id": "0.0-113.0", "trial": 4, "time_elapsed": 763462, "serialpos": 1, "key_press": -1, "wordID": 193, "type": "PRES_VIS", "trial_index": 158}, "uniqueid": "MTK2747:3VD82FOHKRV9DD8BNZUZHXIOGG0OCV", "dateTime": 1519323830428}, {"current_trial": 159, "trialdata": {"rt": -1, "trial_type": "single-stim", "word": "pigment", "stimulus": "<p id=\"stim\">PIGMENT</p>", "conditions": [24, 1600, "v", 24000], "internal_node_id": "0.0-114.0", "trial": 4, "time_elapsed": 766075, "serialpos": 2, "key_press": -1, "wordID": 1065, "type": "PRES_VIS", "trial_index": 159}, "uniqueid": "MTK2747:3VD82FOHKRV9DD8BNZUZHXIOGG0OCV", "dateTime": 1519323833041}, {"current_trial": 160, "trialdata": {"rt": -1, "trial_type": "single-stim", "word": "donor", "stimulus": "<p id=\"stim\">DONOR</p>", "conditions": [24, 1600, "v", 24000], "internal_node_id": "0.0-115.0", "trial": 4, "time_elapsed": 768652, "serialpos": 3, "key_press": -1, "wordID": 484, "type": "PRES_VIS", "trial_index": 160}, "uniqueid": "MTK2747:3VD82FOHKRV9DD8BNZUZHXIOGG0OCV", "dateTime": 1519323835619}, {"current_trial": 161, "trialdata": {"rt": -1, "trial_type": "single-stim", "word": "sibling", "stimulus": "<p id=\"stim\">SIBLING</p>", "conditions": [24, 1600, "v", 24000], "internal_node_id": "0.0-116.0", "trial": 4, "time_elapsed": 771320, "serialpos": 4, "key_press": -1, "wordID": 1300, "type": "PRES_VIS", "trial_index": 161}, "uniqueid": "MTK2747:3VD82FOHKRV9DD8BNZUZHXIOGG0OCV", "dateTime": 1519323838286}, {"current_trial": 162, "trialdata": {"rt": -1, "trial_type": "single-stim", "word": "apron", "stimulus": "<p id=\"stim\">APRON</p>", "conditions": [24, 1600, "v", 24000], "internal_node_id": "0.0-117.0", "trial": 4, "time_elapsed": 773866, "serialpos": 5, "key_press": -1, "wordID": 34, "type": "PRES_VIS", "trial_index": 162}, "uniqueid": "MTK2747:3VD82FOHKRV9DD8BNZUZHXIOGG0OCV", "dateTime": 1519323840832}, {"current_trial": 163, "trialdata": {"rt": -1, "trial_type": "single-stim", "word": "brother", "stimulus": "<p id=\"stim\">BROTHER</p>", "conditions": [24, 1600, "v", 24000], "internal_node_id": "0.0-118.0", "trial": 4, "time_elapsed": 776544, "serialpos": 6, "key_press": -1, "wordID": 178, "type": "PRES_VIS", "trial_index": 163}, "uniqueid": "MTK2747:3VD82FOHKRV9DD8BNZUZHXIOGG0OCV", "dateTime": 1519323843511}, {"current_trial": 164, "trialdata": {"rt": -1, "trial_type": "single-stim", "word": "termite", "stimulus": "<p id=\"stim\">TERMITE</p>", "conditions": [24, 1600, "v", 24000], "internal_node_id": "0.0-119.0", "trial": 4, "time_elapsed": 779269, "serialpos": 7, "key_press": -1, "wordID": 1450, "type": "PRES_VIS", "trial_index": 164}, "uniqueid": "MTK2747:3VD82FOHKRV9DD8BNZUZHXIOGG0OCV", "dateTime": 1519323846235}, {"current_trial": 165, "trialdata": {"rt": -1, "trial_type": "single-stim", "word": "rabbit", "stimulus": "<p id=\"stim\">RABBIT</p>", "conditions": [24, 1600, "v", 24000], "internal_node_id": "0.0-120.0", "trial": 4, "time_elapsed": 781974, "serialpos": 8, "key_press": -1, "wordID": 1151, "type": "PRES_VIS", "trial_index": 165}, "uniqueid": "MTK2747:3VD82FOHKRV9DD8BNZUZHXIOGG0OCV", "dateTime": 1519323848940}, {"current_trial": 166, "trialdata": {"rt": -1, "trial_type": "single-stim", "word": "snake", "stimulus": "<p id=\"stim\">SNAKE</p>", "conditions": [24, 1600, "v", 24000], "internal_node_id": "0.0-121.0", "trial": 4, "time_elapsed": 784512, "serialpos": 9, "key_press": -1, "wordID": 1332, "type": "PRES_VIS", "trial_index": 166}, "uniqueid": "MTK2747:3VD82FOHKRV9DD8BNZUZHXIOGG0OCV", "dateTime": 1519323851478}, {"current_trial": 167, "trialdata": {"rt": -1, "trial_type": "single-stim", "word": "boyfriend", "stimulus": "<p id=\"stim\">BOYFRIEND</p>", "conditions": [24, 1600, "v", 24000], "internal_node_id": "0.0-122.0", "trial": 4, "time_elapsed": 787300, "serialpos": 10, "key_press": -1, "wordID": 161, "type": "PRES_VIS", "trial_index": 167}, "uniqueid": "MTK2747:3VD82FOHKRV9DD8BNZUZHXIOGG0OCV", "dateTime": 1519323854266}, {"current_trial": 168, "trialdata": {"rt": -1, "trial_type": "single-stim", "word": "football", "stimulus": "<p id=\"stim\">FOOTBALL</p>", "conditions": [24, 1600, "v", 24000], "internal_node_id": "0.0-123.0", "trial": 4, "time_elapsed": 789777, "serialpos": 11, "key_press": -1, "wordID": 590, "type": "PRES_VIS", "trial_index": 168}, "uniqueid": "MTK2747:3VD82FOHKRV9DD8BNZUZHXIOGG0OCV", "dateTime": 1519323856743}, {"current_trial": 169, "trialdata": {"rt": -1, "trial_type": "single-stim", "word": "lettuce", "stimulus": "<p id=\"stim\">LETTUCE</p>", "conditions": [24, 1600, "v", 24000], "internal_node_id": "0.0-124.0", "trial": 4, "time_elapsed": 792469, "serialpos": 12, "key_press": -1, "wordID": 813, "type": "PRES_VIS", "trial_index": 169}, "uniqueid": "MTK2747:3VD82FOHKRV9DD8BNZUZHXIOGG0OCV", "dateTime": 1519323859435}, {"current_trial": 170, "trialdata": {"rt": -1, "trial_type": "single-stim", "word": "doughnut", "stimulus": "<p id=\"stim\">DOUGHNUT</p>", "conditions": [24, 1600, "v", 24000], "internal_node_id": "0.0-125.0", "trial": 4, "time_elapsed": 794986, "serialpos": 13, "key_press": -1, "wordID": 489, "type": "PRES_VIS", "trial_index": 170}, "uniqueid": "MTK2747:3VD82FOHKRV9DD8BNZUZHXIOGG0OCV", "dateTime": 1519323861952}, {"current_trial": 171, "trialdata": {"rt": -1, "trial_type": "single-stim", "word": "snack", "stimulus": "<p id=\"stim\">SNACK</p>", "conditions": [24, 1600, "v", 24000], "internal_node_id": "0.0-126.0", "trial": 4, "time_elapsed": 797544, "serialpos": 14, "key_press": -1, "wordID": 1330, "type": "PRES_VIS", "trial_index": 171}, "uniqueid": "MTK2747:3VD82FOHKRV9DD8BNZUZHXIOGG0OCV", "dateTime": 1519323864511}, {"current_trial": 172, "trialdata": {"rt": -1, "trial_type": "single-stim", "word": "spool", "stimulus": "<p id=\"stim\">SPOOL</p>", "conditions": [24, 1600, "v", 24000], "internal_node_id": "0.0-127.0", "trial": 4, "time_elapsed": 799981, "serialpos": 15, "key_press": -1, "wordID": 1355, "type": "PRES_VIS", "trial_index": 172}, "uniqueid": "MTK2747:3VD82FOHKRV9DD8BNZUZHXIOGG0OCV", "dateTime": 1519323866948}, {"current_trial": 173, "trialdata": {"rt": -1, "trial_type": "single-stim", "word": "concert", "stimulus": "<p id=\"stim\">CONCERT</p>", "conditions": [24, 1600, "v", 24000], "internal_node_id": "0.0-128.0", "trial": 4, "time_elapsed": 802601, "serialpos": 16, "key_press": -1, "wordID": 359, "type": "PRES_VIS", "trial_index": 173}, "uniqueid": "MTK2747:3VD82FOHKRV9DD8BNZUZHXIOGG0OCV", "dateTime": 1519323869568}, {"current_trial": 174, "trialdata": {"rt": -1, "trial_type": "single-stim", "word": "summit", "stimulus": "<p id=\"stim\">SUMMIT</p>", "conditions": [24, 1600, "v", 24000], "internal_node_id": "0.0-129.0", "trial": 4, "time_elapsed": 805041, "serialpos": 17, "key_press": -1, "wordID": 1404, "type": "PRES_VIS", "trial_index": 174}, "uniqueid": "MTK2747:3VD82FOHKRV9DD8BNZUZHXIOGG0OCV", "dateTime": 1519323872008}, {"current_trial": 175, "trialdata": {"rt": -1, "trial_type": "single-stim", "word": "fungus", "stimulus": "<p id=\"stim\">FUNGUS</p>", "conditions": [24, 1600, "v", 24000], "internal_node_id": "0.0-130.0", "trial": 4, "time_elapsed": 807479, "serialpos": 18, "key_press": -1, "wordID": 613, "type": "PRES_VIS", "trial_index": 175}, "uniqueid": "MTK2747:3VD82FOHKRV9DD8BNZUZHXIOGG0OCV", "dateTime": 1519323874446}, {"current_trial": 176, "trialdata": {"rt": -1, "trial_type": "single-stim", "word": "radish", "stimulus": "<p id=\"stim\">RADISH</p>", "conditions": [24, 1600, "v", 24000], "internal_node_id": "0.0-131.0", "trial": 4, "time_elapsed": 809974, "serialpos": 19, "key_press": -1, "wordID": 1157, "type": "PRES_VIS", "trial_index": 176}, "uniqueid": "MTK2747:3VD82FOHKRV9DD8BNZUZHXIOGG0OCV", "dateTime": 1519323876940}, {"current_trial": 177, "trialdata": {"rt": -1, "trial_type": "single-stim", "word": "daisy", "stimulus": "<p id=\"stim\">DAISY</p>", "conditions": [24, 1600, "v", 24000], "internal_node_id": "0.0-132.0", "trial": 4, "time_elapsed": 812768, "serialpos": 20, "key_press": -1, "wordID": 434, "type": "PRES_VIS", "trial_index": 177}, "uniqueid": "MTK2747:3VD82FOHKRV9DD8BNZUZHXIOGG0OCV", "dateTime": 1519323879734}, {"current_trial": 178, "trialdata": {"rt": -1, "trial_type": "single-stim", "word": "clamp", "stimulus": "<p id=\"stim\">CLAMP</p>", "conditions": [24, 1600, "v", 24000], "internal_node_id": "0.0-133.0", "trial": 4, "time_elapsed": 815419, "serialpos": 21, "key_press": -1, "wordID": 315, "type": "PRES_VIS", "trial_index": 178}, "uniqueid": "MTK2747:3VD82FOHKRV9DD8BNZUZHXIOGG0OCV", "dateTime": 1519323882385}, {"current_trial": 179, "trialdata": {"rt": -1, "trial_type": "single-stim", "word": "bank", "stimulus": "<p id=\"stim\">BANK</p>", "conditions": [24, 1600, "v", 24000], "internal_node_id": "0.0-134.0", "trial": 4, "time_elapsed": 818080, "serialpos": 22, "key_press": -1, "wordID": 82, "type": "PRES_VIS", "trial_index": 179}, "uniqueid": "MTK2747:3VD82FOHKRV9DD8BNZUZHXIOGG0OCV", "dateTime": 1519323885046}, {"current_trial": 180, "trialdata": {"rt": -1, "trial_type": "single-stim", "word": "sword", "stimulus": "<p id=\"stim\">SWORD</p>", "conditions": [24, 1600, "v", 24000], "internal_node_id": "0.0-135.0", "trial": 4, "time_elapsed": 820528, "serialpos": 23, "key_press": -1, "wordID": 1422, "type": "PRES_VIS", "trial_index": 180}, "uniqueid": "MTK2747:3VD82FOHKRV9DD8BNZUZHXIOGG0OCV", "dateTime": 1519323887494}, {"current_trial": 181, "trialdata": {"rt": -1, "trial_type": "single-stim", "stimulus": "", "internal_node_id": "0.0-136.0-0.0", "time_elapsed": 822680, "key_press": -1, "type": "PRE_RECALL_DELAY", "trial_index": 181}, "uniqueid": "MTK2747:3VD82FOHKRV9DD8BNZUZHXIOGG0OCV", "dateTime": 1519323889646}, {"current_trial": 182, "trialdata": {"rt": -1000, "trial_type": "single-audio", "stimulus": "/static/audio/400Hz.wav", "internal_node_id": "0.0-137.0", "time_elapsed": 823182, "key_press": -1, "type": "PRE_RECALL_ALERT", "trial_index": 182}, "uniqueid": "MTK2747:3VD82FOHKRV9DD8BNZUZHXIOGG0OCV", "dateTime": 1519323890148}, {"current_trial": 183, "trialdata": {"rt": [2063, 3969, 5922, 7960, 10051, 12248, 16928, 19885, 25687, 29550, 37175], "recwords": ["sword", "fungus", "radish", "daisy", "clamp", "raddish", "lettuce", "doughnut", "swor", "sword", "rabbit"], "key_times": [948, 1165, 1326, 1510, 1772, 2063, 2760, 2923, 3157, 3292, 3413, 3576, 3969, 4683, 4797, 5056, 5186, 5356, 5524, 5922, 7023, 7141, 7386, 7549, 7719, 7960, 8696, 8824, 8982, 9159, 9591, 10051, 10431, 10541, 10782, 10923, 11029, 11198, 11330, 12248, 15521, 15678, 15919, 16076, 16199, 16436, 16688, 16928, 18573, 18708, 18798, 19038, 19132, 19359, 19566, 19725, 19885, 24872, 25118, 25265, 25492, 25687, 27119, 27334, 27503, 27682, 27847, 28318, 28514, 28693, 29034, 29139, 29391, 29550, 36130, 36239, 36538, 36740, 36848, 37038, 37175], "trial_type": "free-recall", "conditions": [24, 1600, "v", 24000], "internal_node_id": "0.0-138.0-0.0", "key_presses": [83, 87, 79, 82, 68, 13, 70, 85, 78, 71, 85, 83, 13, 82, 65, 68, 73, 83, 72, 13, 68, 65, 73, 83, 89, 13, 67, 76, 65, 77, 80, 13, 82, 65, 68, 68, 73, 83, 72, 13, 76, 69, 84, 84, 85, 67, 69, 13, 68, 79, 85, 71, 72, 78, 85, 84, 13, 83, 87, 79, 82, 13, 83, 87, 82, 79, 68, 8, 8, 8, 79, 82, 68, 13, 82, 65, 66, 66, 73, 84, 13], "trial": 4, "time_elapsed": 883189, "type": "FREE_RECALL", "trial_index": 183}, "uniqueid": "MTK2747:3VD82FOHKRV9DD8BNZUZHXIOGG0OCV", "dateTime": 1519323950164}, {"current_trial": 184, "trialdata": {"rt": 1097, "trial_type": "text", "internal_node_id": "0.0-139.0", "time_elapsed": 886296, "key_press": 13, "type": "INSTRUCTIONS", "trial_index": 184}, "uniqueid": "MTK2747:3VD82FOHKRV9DD8BNZUZHXIOGG0OCV", "dateTime": 1519323953263}, {"current_trial": 185, "trialdata": {"rt": [2371, 4925, 6680, 8455, 10468, 12000, 14027, 15592, 17775, 19255, 21781, 23910], "trial_type": "math-distractor", "key_times": [1729, 2237, 2371, 4105, 4509, 4925, 6084, 6464, 6680, 8213, 8455, 9944, 10345, 10468, 11710, 11849, 12000, 13087, 13727, 14027, 15165, 15429, 15592, 17280, 17665, 17775, 18942, 19044, 19255, 21522, 21628, 21781, 23750, 23910], "responses": ["15", "29", "19", "9", "25", "12", "13", "12", "25", "12", "29", "7"], "num2": [2, 8, 4, 1, 9, 5, 2, 3, 8, 3, 7, 3, 1], "num3": [7, 8, 1, 7, 7, 6, 4, 4, 8, 4, 7, 3, 2], "conditions": [24, 800, "v", 24000], "internal_node_id": "0.0-140.0", "key_presses": [49, 53, 13, 50, 57, 13, 49, 57, 13, 57, 13, 50, 53, 13, 49, 50, 13, 49, 51, 13, 49, 50, 13, 50, 53, 13, 49, 50, 13, 50, 57, 13, 55, 13], "trial": 5, "time_elapsed": 912300, "type": "DISTRACTOR", "trial_index": 185, "num1": [6, 4, 5, 1, 9, 1, 7, 5, 9, 5, 5, 1, 6]}, "uniqueid": "MTK2747:3VD82FOHKRV9DD8BNZUZHXIOGG0OCV", "dateTime": 1519323979266}, {"current_trial": 186, "trialdata": {"rt": -1, "trial_type": "single-stim", "stimulus": "<p id=\"stim\">10</p>", "internal_node_id": "0.0-141.0-0.0", "time_elapsed": 915301, "key_press": -1, "trial_index": 186}, "uniqueid": "MTK2747:3VD82FOHKRV9DD8BNZUZHXIOGG0OCV", "dateTime": 1519323982268}, {"current_trial": 187, "trialdata": {"rt": -1, "trial_type": "single-stim", "stimulus": "<p id=\"stim\">9</p>", "internal_node_id": "0.0-141.0-1.0", "time_elapsed": 916303, "key_press": -1, "trial_index": 187}, "uniqueid": "MTK2747:3VD82FOHKRV9DD8BNZUZHXIOGG0OCV", "dateTime": 1519323983269}, {"current_trial": 188, "trialdata": {"rt": -1, "trial_type": "single-stim", "stimulus": "<p id=\"stim\">8</p>", "internal_node_id": "0.0-141.0-2.0", "time_elapsed": 917305, "key_press": -1, "trial_index": 188}, "uniqueid": "MTK2747:3VD82FOHKRV9DD8BNZUZHXIOGG0OCV", "dateTime": 1519323984271}, {"current_trial": 189, "trialdata": {"rt": -1, "trial_type": "single-stim", "stimulus": "<p id=\"stim\">7</p>", "internal_node_id": "0.0-141.0-3.0", "time_elapsed": 918307, "key_press": -1, "trial_index": 189}, "uniqueid": "MTK2747:3VD82FOHKRV9DD8BNZUZHXIOGG0OCV", "dateTime": 1519323985273}, {"current_trial": 190, "trialdata": {"rt": -1, "trial_type": "single-stim", "stimulus": "<p id=\"stim\">6</p>", "internal_node_id": "0.0-141.0-4.0", "time_elapsed": 919309, "key_press": -1, "trial_index": 190}, "uniqueid": "MTK2747:3VD82FOHKRV9DD8BNZUZHXIOGG0OCV", "dateTime": 1519323986275}, {"current_trial": 191, "trialdata": {"rt": -1, "trial_type": "single-stim", "stimulus": "<p id=\"stim\">5</p>", "internal_node_id": "0.0-141.0-5.0", "time_elapsed": 920310, "key_press": -1, "trial_index": 191}, "uniqueid": "MTK2747:3VD82FOHKRV9DD8BNZUZHXIOGG0OCV", "dateTime": 1519323987277}, {"current_trial": 192, "trialdata": {"rt": -1, "trial_type": "single-stim", "stimulus": "<p id=\"stim\">4</p>", "internal_node_id": "0.0-141.0-6.0", "time_elapsed": 921312, "key_press": -1, "trial_index": 192}, "uniqueid": "MTK2747:3VD82FOHKRV9DD8BNZUZHXIOGG0OCV", "dateTime": 1519323988278}, {"current_trial": 193, "trialdata": {"rt": -1, "trial_type": "single-stim", "stimulus": "<p id=\"stim\">3</p>", "internal_node_id": "0.0-141.0-7.0", "time_elapsed": 922314, "key_press": -1, "trial_index": 193}, "uniqueid": "MTK2747:3VD82FOHKRV9DD8BNZUZHXIOGG0OCV", "dateTime": 1519323989280}, {"current_trial": 194, "trialdata": {"rt": -1, "trial_type": "single-stim", "stimulus": "<p id=\"stim\">2</p>", "internal_node_id": "0.0-141.0-8.0", "time_elapsed": 923316, "key_press": -1, "trial_index": 194}, "uniqueid": "MTK2747:3VD82FOHKRV9DD8BNZUZHXIOGG0OCV", "dateTime": 1519323990282}, {"current_trial": 195, "trialdata": {"rt": -1, "trial_type": "single-stim", "stimulus": "<p id=\"stim\">1</p>", "internal_node_id": "0.0-141.0-9.0", "time_elapsed": 924318, "key_press": -1, "trial_index": 195}, "uniqueid": "MTK2747:3VD82FOHKRV9DD8BNZUZHXIOGG0OCV", "dateTime": 1519323991284}, {"current_trial": 196, "trialdata": {"rt": -1, "trial_type": "single-stim", "stimulus": "<p id=\"stim\">+</p>", "internal_node_id": "0.0-142.0-0.0", "time_elapsed": 925819, "key_press": -1, "type": "FIXATION", "trial_index": 196}, "uniqueid": "MTK2747:3VD82FOHKRV9DD8BNZUZHXIOGG0OCV", "dateTime": 1519323992786}, {"current_trial": 197, "trialdata": {"rt": -1, "trial_type": "single-stim", "word": "cupboard", "stimulus": "<p id=\"stim\">CUPBOARD</p>", "conditions": [24, 800, "v", 24000], "internal_node_id": "0.0-143.0", "trial": 5, "time_elapsed": 926621, "serialpos": 0, "key_press": -1, "wordID": 424, "type": "PRES_VIS", "trial_index": 197}, "uniqueid": "MTK2747:3VD82FOHKRV9DD8BNZUZHXIOGG0OCV", "dateTime": 1519323993587}, {"current_trial": 198, "trialdata": {"rt": -1, "trial_type": "single-stim", "word": "cabbage", "stimulus": "<p id=\"stim\">CABBAGE</p>", "conditions": [24, 800, "v", 24000], "internal_node_id": "0.0-144.0", "trial": 5, "time_elapsed": 928313, "serialpos": 1, "key_press": -1, "wordID": 209, "type": "PRES_VIS", "trial_index": 198}, "uniqueid": "MTK2747:3VD82FOHKRV9DD8BNZUZHXIOGG0OCV", "dateTime": 1519323995280}, {"current_trial": 199, "trialdata": {"rt": -1, "trial_type": "single-stim", "word": "turnip", "stimulus": "<p id=\"stim\">TURNIP</p>", "conditions": [24, 800, "v", 24000], "internal_node_id": "0.0-145.0", "trial": 5, "time_elapsed": 929980, "serialpos": 2, "key_press": -1, "wordID": 1520, "type": "PRES_VIS", "trial_index": 199}, "uniqueid": "MTK2747:3VD82FOHKRV9DD8BNZUZHXIOGG0OCV", "dateTime": 1519323996946}, {"current_trial": 200, "trialdata": {"rt": -1, "trial_type": "single-stim", "word": "umpire", "stimulus": "<p id=\"stim\">UMPIRE</p>", "conditions": [24, 800, "v", 24000], "internal_node_id": "0.0-146.0", "trial": 5, "time_elapsed": 931678, "serialpos": 3, "key_press": -1, "wordID": 1534, "type": "PRES_VIS", "trial_index": 200}, "uniqueid": "MTK2747:3VD82FOHKRV9DD8BNZUZHXIOGG0OCV", "dateTime": 1519323998645}, {"current_trial": 201, "trialdata": {"rt": -1, "trial_type": "single-stim", "word": "infant", "stimulus": "<p id=\"stim\">INFANT</p>", "conditions": [24, 800, "v", 24000], "internal_node_id": "0.0-147.0", "trial": 5, "time_elapsed": 933532, "serialpos": 4, "key_press": -1, "wordID": 736, "type": "PRES_VIS", "trial_index": 201}, "uniqueid": "MTK2747:3VD82FOHKRV9DD8BNZUZHXIOGG0OCV", "dateTime": 1519324000498}, {"current_trial": 202, "trialdata": {"rt": -1, "trial_type": "single-stim", "word": "twister", "stimulus": "<p id=\"stim\">TWISTER</p>", "conditions": [24, 800, "v", 24000], "internal_node_id": "0.0-148.0", "trial": 5, "time_elapsed": 935158, "serialpos": 5, "key_press": -1, "wordID": 1529, "type": "PRES_VIS", "trial_index": 202}, "uniqueid": "MTK2747:3VD82FOHKRV9DD8BNZUZHXIOGG0OCV", "dateTime": 1519324002125}, {"current_trial": 203, "trialdata": {"rt": -1, "trial_type": "single-stim", "word": "scotch", "stimulus": "<p id=\"stim\">SCOTCH</p>", "conditions": [24, 800, "v", 24000], "internal_node_id": "0.0-149.0", "trial": 5, "time_elapsed": 936906, "serialpos": 6, "key_press": -1, "wordID": 1250, "type": "PRES_VIS", "trial_index": 203}, "uniqueid": "MTK2747:3VD82FOHKRV9DD8BNZUZHXIOGG0OCV", "dateTime": 1519324003873}, {"current_trial": 204, "trialdata": {"rt": -1, "trial_type": "single-stim", "word": "pudding", "stimulus": "<p id=\"stim\">PUDDING</p>", "conditions": [24, 800, "v", 24000], "internal_node_id": "0.0-150.0", "trial": 5, "time_elapsed": 938903, "serialpos": 7, "key_press": -1, "wordID": 1138, "type": "PRES_VIS", "trial_index": 204}, "uniqueid": "MTK2747:3VD82FOHKRV9DD8BNZUZHXIOGG0OCV", "dateTime": 1519324005870}, {"current_trial": 205, "trialdata": {"rt": -1, "trial_type": "single-stim", "word": "lodge", "stimulus": "<p id=\"stim\">LODGE</p>", "conditions": [24, 800, "v", 24000], "internal_node_id": "0.0-151.0", "trial": 5, "time_elapsed": 940706, "serialpos": 8, "key_press": -1, "wordID": 838, "type": "PRES_VIS", "trial_index": 205}, "uniqueid": "MTK2747:3VD82FOHKRV9DD8BNZUZHXIOGG0OCV", "dateTime": 1519324007672}, {"current_trial": 206, "trialdata": {"rt": -1, "trial_type": "single-stim", "word": "brandy", "stimulus": "<p id=\"stim\">BRANDY</p>", "conditions": [24, 800, "v", 24000], "internal_node_id": "0.0-152.0", "trial": 5, "time_elapsed": 942381, "serialpos": 9, "key_press": -1, "wordID": 168, "type": "PRES_VIS", "trial_index": 206}, "uniqueid": "MTK2747:3VD82FOHKRV9DD8BNZUZHXIOGG0OCV", "dateTime": 1519324009347}, {"current_trial": 207, "trialdata": {"rt": -1, "trial_type": "single-stim", "word": "racket", "stimulus": "<p id=\"stim\">RACKET</p>", "conditions": [24, 800, "v", 24000], "internal_node_id": "0.0-153.0", "trial": 5, "time_elapsed": 943995, "serialpos": 10, "key_press": -1, "wordID": 1154, "type": "PRES_VIS", "trial_index": 207}, "uniqueid": "MTK2747:3VD82FOHKRV9DD8BNZUZHXIOGG0OCV", "dateTime": 1519324010961}, {"current_trial": 208, "trialdata": {"rt": -1, "trial_type": "single-stim", "word": "tart", "stimulus": "<p id=\"stim\">TART</p>", "conditions": [24, 800, "v", 24000], "internal_node_id": "0.0-154.0", "trial": 5, "time_elapsed": 945829, "serialpos": 11, "key_press": -1, "wordID": 1435, "type": "PRES_VIS", "trial_index": 208}, "uniqueid": "MTK2747:3VD82FOHKRV9DD8BNZUZHXIOGG0OCV", "dateTime": 1519324012795}, {"current_trial": 209, "trialdata": {"rt": -1, "trial_type": "single-stim", "word": "yacht", "stimulus": "<p id=\"stim\">YACHT</p>", "conditions": [24, 800, "v", 24000], "internal_node_id": "0.0-155.0", "trial": 5, "time_elapsed": 947528, "serialpos": 12, "key_press": -1, "wordID": 1628, "type": "PRES_VIS", "trial_index": 209}, "uniqueid": "MTK2747:3VD82FOHKRV9DD8BNZUZHXIOGG0OCV", "dateTime": 1519324014494}, {"current_trial": 210, "trialdata": {"rt": -1, "trial_type": "single-stim", "word": "captive", "stimulus": "<p id=\"stim\">CAPTIVE</p>", "conditions": [24, 800, "v", 24000], "internal_node_id": "0.0-156.0", "trial": 5, "time_elapsed": 949375, "serialpos": 13, "key_press": -1, "wordID": 239, "type": "PRES_VIS", "trial_index": 210}, "uniqueid": "MTK2747:3VD82FOHKRV9DD8BNZUZHXIOGG0OCV", "dateTime": 1519324016341}, {"current_trial": 211, "trialdata": {"rt": -1, "trial_type": "single-stim", "word": "marrow", "stimulus": "<p id=\"stim\">MARROW</p>", "conditions": [24, 800, "v", 24000], "internal_node_id": "0.0-157.0", "trial": 5, "time_elapsed": 951335, "serialpos": 14, "key_press": -1, "wordID": 871, "type": "PRES_VIS", "trial_index": 211}, "uniqueid": "MTK2747:3VD82FOHKRV9DD8BNZUZHXIOGG0OCV", "dateTime": 1519324018301}, {"current_trial": 212, "trialdata": {"rt": -1, "trial_type": "single-stim", "word": "army", "stimulus": "<p id=\"stim\">ARMY</p>", "conditions": [24, 800, "v", 24000], "internal_node_id": "0.0-158.0", "trial": 5, "time_elapsed": 953200, "serialpos": 15, "key_press": -1, "wordID": 38, "type": "PRES_VIS", "trial_index": 212}, "uniqueid": "MTK2747:3VD82FOHKRV9DD8BNZUZHXIOGG0OCV", "dateTime": 1519324020167}, {"current_trial": 213, "trialdata": {"rt": -1, "trial_type": "single-stim", "word": "pluto", "stimulus": "<p id=\"stim\">PLUTO</p>", "conditions": [24, 800, "v", 24000], "internal_node_id": "0.0-159.0", "trial": 5, "time_elapsed": 954812, "serialpos": 16, "key_press": -1, "wordID": 1091, "type": "PRES_VIS", "trial_index": 213}, "uniqueid": "MTK2747:3VD82FOHKRV9DD8BNZUZHXIOGG0OCV", "dateTime": 1519324021778}, {"current_trial": 214, "trialdata": {"rt": -1, "trial_type": "single-stim", "word": "crater", "stimulus": "<p id=\"stim\">CRATER</p>", "conditions": [24, 800, "v", 24000], "internal_node_id": "0.0-160.0", "trial": 5, "time_elapsed": 956440, "serialpos": 17, "key_press": -1, "wordID": 399, "type": "PRES_VIS", "trial_index": 214}, "uniqueid": "MTK2747:3VD82FOHKRV9DD8BNZUZHXIOGG0OCV", "dateTime": 1519324023406}, {"current_trial": 215, "trialdata": {"rt": -1, "trial_type": "single-stim", "word": "lava", "stimulus": "<p id=\"stim\">LAVA</p>", "conditions": [24, 800, "v", 24000], "internal_node_id": "0.0-161.0", "trial": 5, "time_elapsed": 958100, "serialpos": 18, "key_press": -1, "wordID": 803, "type": "PRES_VIS", "trial_index": 215}, "uniqueid": "MTK2747:3VD82FOHKRV9DD8BNZUZHXIOGG0OCV", "dateTime": 1519324025066}, {"current_trial": 216, "trialdata": {"rt": -1, "trial_type": "single-stim", "word": "bucket", "stimulus": "<p id=\"stim\">BUCKET</p>", "conditions": [24, 800, "v", 24000], "internal_node_id": "0.0-162.0", "trial": 5, "time_elapsed": 960076, "serialpos": 19, "key_press": -1, "wordID": 183, "type": "PRES_VIS", "trial_index": 216}, "uniqueid": "MTK2747:3VD82FOHKRV9DD8BNZUZHXIOGG0OCV", "dateTime": 1519324027042}, {"current_trial": 217, "trialdata": {"rt": -1, "trial_type": "single-stim", "word": "salt", "stimulus": "<p id=\"stim\">SALT</p>", "conditions": [24, 800, "v", 24000], "internal_node_id": "0.0-163.0", "trial": 5, "time_elapsed": 961898, "serialpos": 20, "key_press": -1, "wordID": 1228, "type": "PRES_VIS", "trial_index": 217}, "uniqueid": "MTK2747:3VD82FOHKRV9DD8BNZUZHXIOGG0OCV", "dateTime": 1519324028864}, {"current_trial": 218, "trialdata": {"rt": -1, "trial_type": "single-stim", "word": "garbage", "stimulus": "<p id=\"stim\">GARBAGE</p>", "conditions": [24, 800, "v", 24000], "internal_node_id": "0.0-164.0", "trial": 5, "time_elapsed": 963731, "serialpos": 21, "key_press": -1, "wordID": 621, "type": "PRES_VIS", "trial_index": 218}, "uniqueid": "MTK2747:3VD82FOHKRV9DD8BNZUZHXIOGG0OCV", "dateTime": 1519324030697}, {"current_trial": 219, "trialdata": {"rt": -1, "trial_type": "single-stim", "word": "liver", "stimulus": "<p id=\"stim\">LIVER</p>", "conditions": [24, 800, "v", 24000], "internal_node_id": "0.0-165.0", "trial": 5, "time_elapsed": 965443, "serialpos": 22, "key_press": -1, "wordID": 832, "type": "PRES_VIS", "trial_index": 219}, "uniqueid": "MTK2747:3VD82FOHKRV9DD8BNZUZHXIOGG0OCV", "dateTime": 1519324032409}, {"current_trial": 220, "trialdata": {"rt": -1, "trial_type": "single-stim", "word": "mummy", "stimulus": "<p id=\"stim\">MUMMY</p>", "conditions": [24, 800, "v", 24000], "internal_node_id": "0.0-166.0", "trial": 5, "time_elapsed": 967296, "serialpos": 23, "key_press": -1, "wordID": 931, "type": "PRES_VIS", "trial_index": 220}, "uniqueid": "MTK2747:3VD82FOHKRV9DD8BNZUZHXIOGG0OCV", "dateTime": 1519324034262}, {"current_trial": 221, "trialdata": {"rt": -1, "trial_type": "single-stim", "stimulus": "", "internal_node_id": "0.0-167.0-0.0", "time_elapsed": 969370, "key_press": -1, "type": "PRE_RECALL_DELAY", "trial_index": 221}, "uniqueid": "MTK2747:3VD82FOHKRV9DD8BNZUZHXIOGG0OCV", "dateTime": 1519324036337}, {"current_trial": 222, "trialdata": {"rt": -1000, "trial_type": "single-audio", "stimulus": "/static/audio/400Hz.wav", "internal_node_id": "0.0-168.0", "time_elapsed": 969873, "key_press": -1, "type": "PRE_RECALL_ALERT", "trial_index": 222}, "uniqueid": "MTK2747:3VD82FOHKRV9DD8BNZUZHXIOGG0OCV", "dateTime": 1519324036839}, {"current_trial": 223, "trialdata": {"rt": [2004, 3153, 4886, 6241, 8106, 11554, 15694, 19766], "recwords": ["mummy", "liver", "pluto", "lava", "crater", "spinach", "army", "cabbage"], "key_times": [399, 669, 965, 1102, 1343, 2004, 2324, 2538, 2704, 2902, 2981, 3153, 3635, 3996, 4259, 4500, 4594, 4886, 5288, 5432, 5629, 5774, 6241, 6897, 7146, 7254, 7418, 7616, 7675, 8106, 10222, 10389, 10588, 10770, 10966, 11206, 11268, 11554, 14652, 14863, 14985, 15283, 15694, 18545, 18714, 18951, 19122, 19309, 19419, 19635, 19766], "trial_type": "free-recall", "conditions": [24, 800, "v", 24000], "internal_node_id": "0.0-169.0-0.0", "key_presses": [77, 85, 77, 77, 89, 13, 76, 73, 86, 69, 82, 13, 80, 76, 85, 84, 79, 13, 76, 65, 86, 65, 13, 67, 82, 65, 84, 69, 82, 13, 83, 80, 73, 78, 65, 67, 72, 13, 65, 82, 77, 89, 13, 67, 65, 66, 66, 65, 71, 69, 13], "trial": 5, "time_elapsed": 1029877, "type": "FREE_RECALL", "trial_index": 223}, "uniqueid": "MTK2747:3VD82FOHKRV9DD8BNZUZHXIOGG0OCV", "dateTime": 1519324096853}, {"current_trial": 224, "trialdata": {"rt": 1338, "trial_type": "text", "internal_node_id": "0.0-170.0", "time_elapsed": 1033227, "key_press": 32, "type": "INSTRUCTIONS", "trial_index": 224}, "uniqueid": "MTK2747:3VD82FOHKRV9DD8BNZUZHXIOGG0OCV", "dateTime": 1519324100193}, {"current_trial": 225, "trialdata": {"rt": [1841, 5132, 7200, 10159, 13489, 15068, 16772, 18192, 19864, 21668, 23253], "trial_type": "math-distractor", "key_times": [1587, 1668, 1841, 3860, 4969, 5132, 6761, 7041, 7200, 8344, 9879, 10159, 12673, 13141, 13489, 14675, 14929, 15068, 16704, 16772, 17923, 18105, 18192, 19432, 19724, 19864, 21493, 21668, 23100, 23253], "responses": ["12", "16", "11", "17", "14", "13", "8", "11", "14", "8", "5"], "num2": [4, 8, 1, 4, 6, 3, 5, 1, 5, 2, 3, 8], "num3": [7, 2, 1, 9, 6, 5, 1, 7, 6, 4, 1, 8], "conditions": [12, 1600, "v", 24000], "internal_node_id": "0.0-171.0", "key_presses": [49, 50, 13, 49, 54, 13, 49, 49, 13, 49, 55, 13, 49, 52, 13, 49, 51, 13, 56, 13, 49, 49, 13, 49, 52, 13, 56, 13, 53, 13], "trial": 6, "time_elapsed": 1059233, "type": "DISTRACTOR", "trial_index": 225, "num1": [1, 6, 9, 4, 2, 5, 2, 3, 3, 2, 1, 9]}, "uniqueid": "MTK2747:3VD82FOHKRV9DD8BNZUZHXIOGG0OCV", "dateTime": 1519324126200}, {"current_trial": 226, "trialdata": {"rt": -1, "trial_type": "single-stim", "stimulus": "<p id=\"stim\">10</p>", "internal_node_id": "0.0-172.0-0.0", "time_elapsed": 1062235, "key_press": -1, "trial_index": 226}, "uniqueid": "MTK2747:3VD82FOHKRV9DD8BNZUZHXIOGG0OCV", "dateTime": 1519324129202}, {"current_trial": 227, "trialdata": {"rt": -1, "trial_type": "single-stim", "stimulus": "<p id=\"stim\">9</p>", "internal_node_id": "0.0-172.0-1.0", "time_elapsed": 1063237, "key_press": -1, "trial_index": 227}, "uniqueid": "MTK2747:3VD82FOHKRV9DD8BNZUZHXIOGG0OCV", "dateTime": 1519324130203}, {"current_trial": 228, "trialdata": {"rt": -1, "trial_type": "single-stim", "stimulus": "<p id=\"stim\">8</p>", "internal_node_id": "0.0-172.0-2.0", "time_elapsed": 1064239, "key_press": -1, "trial_index": 228}, "uniqueid": "MTK2747:3VD82FOHKRV9DD8BNZUZHXIOGG0OCV", "dateTime": 1519324131206}, {"current_trial": 229, "trialdata": {"rt": -1, "trial_type": "single-stim", "stimulus": "<p id=\"stim\">7</p>", "internal_node_id": "0.0-172.0-3.0", "time_elapsed": 1065241, "key_press": -1, "trial_index": 229}, "uniqueid": "MTK2747:3VD82FOHKRV9DD8BNZUZHXIOGG0OCV", "dateTime": 1519324132207}, {"current_trial": 230, "trialdata": {"rt": -1, "trial_type": "single-stim", "stimulus": "<p id=\"stim\">6</p>", "internal_node_id": "0.0-172.0-4.0", "time_elapsed": 1066302, "key_press": -1, "trial_index": 230}, "uniqueid": "MTK2747:3VD82FOHKRV9DD8BNZUZHXIOGG0OCV", "dateTime": 1519324133269}, {"current_trial": 231, "trialdata": {"rt": -1, "trial_type": "single-stim", "stimulus": "<p id=\"stim\">5</p>", "internal_node_id": "0.0-172.0-5.0", "time_elapsed": 1067305, "key_press": -1, "trial_index": 231}, "uniqueid": "MTK2747:3VD82FOHKRV9DD8BNZUZHXIOGG0OCV", "dateTime": 1519324134271}, {"current_trial": 232, "trialdata": {"rt": -1, "trial_type": "single-stim", "stimulus": "<p id=\"stim\">4</p>", "internal_node_id": "0.0-172.0-6.0", "time_elapsed": 1068306, "key_press": -1, "trial_index": 232}, "uniqueid": "MTK2747:3VD82FOHKRV9DD8BNZUZHXIOGG0OCV", "dateTime": 1519324135272}, {"current_trial": 233, "trialdata": {"rt": -1, "trial_type": "single-stim", "stimulus": "<p id=\"stim\">3</p>", "internal_node_id": "0.0-172.0-7.0", "time_elapsed": 1069308, "key_press": -1, "trial_index": 233}, "uniqueid": "MTK2747:3VD82FOHKRV9DD8BNZUZHXIOGG0OCV", "dateTime": 1519324136274}, {"current_trial": 234, "trialdata": {"rt": -1, "trial_type": "single-stim", "stimulus": "<p id=\"stim\">2</p>", "internal_node_id": "0.0-172.0-8.0", "time_elapsed": 1070310, "key_press": -1, "trial_index": 234}, "uniqueid": "MTK2747:3VD82FOHKRV9DD8BNZUZHXIOGG0OCV", "dateTime": 1519324137276}, {"current_trial": 235, "trialdata": {"rt": -1, "trial_type": "single-stim", "stimulus": "<p id=\"stim\">1</p>", "internal_node_id": "0.0-172.0-9.0", "time_elapsed": 1071311, "key_press": -1, "trial_index": 235}, "uniqueid": "MTK2747:3VD82FOHKRV9DD8BNZUZHXIOGG0OCV", "dateTime": 1519324138277}, {"current_trial": 236, "trialdata": {"rt": -1, "trial_type": "single-stim", "stimulus": "<p id=\"stim\">+</p>", "internal_node_id": "0.0-173.0-0.0", "time_elapsed": 1072813, "key_press": -1, "type": "FIXATION", "trial_index": 236}, "uniqueid": "MTK2747:3VD82FOHKRV9DD8BNZUZHXIOGG0OCV", "dateTime": 1519324139780}, {"current_trial": 237, "trialdata": {"rt": -1, "trial_type": "single-stim", "word": "ox", "stimulus": "<p id=\"stim\">OX</p>", "conditions": [12, 1600, "v", 24000], "internal_node_id": "0.0-174.0", "trial": 6, "time_elapsed": 1074416, "serialpos": 0, "key_press": -1, "wordID": 993, "type": "PRES_VIS", "trial_index": 237}, "uniqueid": "MTK2747:3VD82FOHKRV9DD8BNZUZHXIOGG0OCV", "dateTime": 1519324141382}, {"current_trial": 238, "trialdata": {"rt": -1, "trial_type": "single-stim", "word": "cowboy", "stimulus": "<p id=\"stim\">COWBOY</p>", "conditions": [12, 1600, "v", 24000], "internal_node_id": "0.0-175.0", "trial": 6, "time_elapsed": 1077214, "serialpos": 1, "key_press": -1, "wordID": 394, "type": "PRES_VIS", "trial_index": 238}, "uniqueid": "MTK2747:3VD82FOHKRV9DD8BNZUZHXIOGG0OCV", "dateTime": 1519324144180}, {"current_trial": 239, "trialdata": {"rt": -1, "trial_type": "single-stim", "word": "seafood", "stimulus": "<p id=\"stim\">SEAFOOD</p>", "conditions": [12, 1600, "v", 24000], "internal_node_id": "0.0-176.0", "trial": 6, "time_elapsed": 1079758, "serialpos": 2, "key_press": -1, "wordID": 1259, "type": "PRES_VIS", "trial_index": 239}, "uniqueid": "MTK2747:3VD82FOHKRV9DD8BNZUZHXIOGG0OCV", "dateTime": 1519324146724}, {"current_trial": 240, "trialdata": {"rt": -1, "trial_type": "single-stim", "word": "hornet", "stimulus": "<p id=\"stim\">HORNET</p>", "conditions": [12, 1600, "v", 24000], "internal_node_id": "0.0-177.0", "trial": 6, "time_elapsed": 1082521, "serialpos": 3, "key_press": -1, "wordID": 717, "type": "PRES_VIS", "trial_index": 240}, "uniqueid": "MTK2747:3VD82FOHKRV9DD8BNZUZHXIOGG0OCV", "dateTime": 1519324149487}, {"current_trial": 241, "trialdata": {"rt": -1, "trial_type": "single-stim", "word": "drill", "stimulus": "<p id=\"stim\">DRILL</p>", "conditions": [12, 1600, "v", 24000], "internal_node_id": "0.0-178.0", "trial": 6, "time_elapsed": 1085096, "serialpos": 4, "key_press": -1, "wordID": 496, "type": "PRES_VIS", "trial_index": 241}, "uniqueid": "MTK2747:3VD82FOHKRV9DD8BNZUZHXIOGG0OCV", "dateTime": 1519324152062}, {"current_trial": 242, "trialdata": {"rt": -1, "trial_type": "single-stim", "word": "lapel", "stimulus": "<p id=\"stim\">LAPEL</p>", "conditions": [12, 1600, "v", 24000], "internal_node_id": "0.0-179.0", "trial": 6, "time_elapsed": 1087868, "serialpos": 5, "key_press": -1, "wordID": 799, "type": "PRES_VIS", "trial_index": 242}, "uniqueid": "MTK2747:3VD82FOHKRV9DD8BNZUZHXIOGG0OCV", "dateTime": 1519324154834}, {"current_trial": 243, "trialdata": {"rt": -1, "trial_type": "single-stim", "word": "couch", "stimulus": "<p id=\"stim\">COUCH</p>", "conditions": [12, 1600, "v", 24000], "internal_node_id": "0.0-180.0", "trial": 6, "time_elapsed": 1090665, "serialpos": 6, "key_press": -1, "wordID": 385, "type": "PRES_VIS", "trial_index": 243}, "uniqueid": "MTK2747:3VD82FOHKRV9DD8BNZUZHXIOGG0OCV", "dateTime": 1519324157631}, {"current_trial": 244, "trialdata": {"rt": -1, "trial_type": "single-stim", "word": "mattress", "stimulus": "<p id=\"stim\">MATTRESS</p>", "conditions": [12, 1600, "v", 24000], "internal_node_id": "0.0-181.0", "trial": 6, "time_elapsed": 1093085, "serialpos": 7, "key_press": -1, "wordID": 878, "type": "PRES_VIS", "trial_index": 244}, "uniqueid": "MTK2747:3VD82FOHKRV9DD8BNZUZHXIOGG0OCV", "dateTime": 1519324160051}, {"current_trial": 245, "trialdata": {"rt": -1, "trial_type": "single-stim", "word": "virus", "stimulus": "<p id=\"stim\">VIRUS</p>", "conditions": [12, 1600, "v", 24000], "internal_node_id": "0.0-182.0", "trial": 6, "time_elapsed": 1095825, "serialpos": 8, "key_press": -1, "wordID": 1571, "type": "PRES_VIS", "trial_index": 245}, "uniqueid": "MTK2747:3VD82FOHKRV9DD8BNZUZHXIOGG0OCV", "dateTime": 1519324162791}, {"current_trial": 246, "trialdata": {"rt": -1, "trial_type": "single-stim", "word": "spoon", "stimulus": "<p id=\"stim\">SPOON</p>", "conditions": [12, 1600, "v", 24000], "internal_node_id": "0.0-183.0", "trial": 6, "time_elapsed": 1098278, "serialpos": 9, "key_press": -1, "wordID": 1356, "type": "PRES_VIS", "trial_index": 246}, "uniqueid": "MTK2747:3VD82FOHKRV9DD8BNZUZHXIOGG0OCV", "dateTime": 1519324165245}, {"current_trial": 247, "trialdata": {"rt": -1, "trial_type": "single-stim", "word": "pork", "stimulus": "<p id=\"stim\">PORK</p>", "conditions": [12, 1600, "v", 24000], "internal_node_id": "0.0-184.0", "trial": 6, "time_elapsed": 1100761, "serialpos": 10, "key_press": -1, "wordID": 1107, "type": "PRES_VIS", "trial_index": 247}, "uniqueid": "MTK2747:3VD82FOHKRV9DD8BNZUZHXIOGG0OCV", "dateTime": 1519324167727}, {"current_trial": 248, "trialdata": {"rt": -1, "trial_type": "single-stim", "word": "girl", "stimulus": "<p id=\"stim\">GIRL</p>", "conditions": [12, 1600, "v", 24000], "internal_node_id": "0.0-185.0", "trial": 6, "time_elapsed": 1103446, "serialpos": 11, "key_press": -1, "wordID": 636, "type": "PRES_VIS", "trial_index": 248}, "uniqueid": "MTK2747:3VD82FOHKRV9DD8BNZUZHXIOGG0OCV", "dateTime": 1519324170413}, {"current_trial": 249, "trialdata": {"rt": -1, "trial_type": "single-stim", "stimulus": "", "internal_node_id": "0.0-186.0-0.0", "time_elapsed": 1105556, "key_press": -1, "type": "PRE_RECALL_DELAY", "trial_index": 249}, "uniqueid": "MTK2747:3VD82FOHKRV9DD8BNZUZHXIOGG0OCV", "dateTime": 1519324172522}, {"current_trial": 250, "trialdata": {"rt": -1000, "trial_type": "single-audio", "stimulus": "/static/audio/400Hz.wav", "internal_node_id": "0.0-187.0", "time_elapsed": 1106058, "key_press": -1, "type": "PRE_RECALL_ALERT", "trial_index": 250}, "uniqueid": "MTK2747:3VD82FOHKRV9DD8BNZUZHXIOGG0OCV", "dateTime": 1519324173024}, {"current_trial": 251, "trialdata": {"rt": [1278, 3334, 9009, 11758, 24484], "recwords": ["girl", "pork", "cowboy", "ox", "girl"], "key_times": [558, 692, 835, 979, 1278, 2334, 2561, 2797, 2989, 3334, 5424, 5556, 5714, 6124, 6249, 6731, 9009, 11350, 11599, 11758, 23792, 23925, 24047, 24196, 24484], "trial_type": "free-recall", "conditions": [12, 1600, "v", 24000], "internal_node_id": "0.0-188.0-0.0", "key_presses": [71, 73, 82, 76, 13, 80, 79, 82, 75, 13, 67, 79, 87, 66, 79, 89, 13, 79, 88, 13, 71, 73, 82, 76, 13], "trial": 6, "time_elapsed": 1166063, "type": "FREE_RECALL", "trial_index": 251}, "uniqueid": "MTK2747:3VD82FOHKRV9DD8BNZUZHXIOGG0OCV", "dateTime": 1519324233035}, {"current_trial": 252, "trialdata": {"rt": 1196, "trial_type": "text", "internal_node_id": "0.0-189.0", "time_elapsed": 1169266, "key_press": 32, "type": "INSTRUCTIONS", "trial_index": 252}, "uniqueid": "MTK2747:3VD82FOHKRV9DD8BNZUZHXIOGG0OCV", "dateTime": 1519324236233}, {"current_trial": 253, "trialdata": {"rt": [2191, 4083, 6220, 9037], "trial_type": "math-distractor", "key_times": [2102, 2191, 3676, 3921, 4083, 5575, 6071, 6220, 8443, 8795, 9037, 11621], "responses": ["