{"assignmentId": "3MHW492WW1KHCJTZ10ARFLH84LLMVR", "workerId": "MTK2225", "questiondata": {"origin": "United States", "strat-rehearsal": "15", "marital": "Single", "education": "Some college", "ethnicity": "Not Hispanic", "color_depth": 24, "distracted": "No", "wrote-notes": "No", "strat-other": "I acted out some of them on myself (necklace, pimple) or made gestures such as forming a peak with my hands for \"summit\".", "screen_width": 1366, "avail_screen_width": 1366, "avail_screen_height": 728, "strat-image": "100", "language": "English", "gender": "Female", "age": "55", "gender_other": "", "race": ["White"], "strat-categorize": "86", "pixel_depth": 24, "strat-spatial": "86", "strat-story": "77", "race_other": "", "screen_height": 768}, "bonus": 0, "hitId": "3XU80RHWHZN0RWNKLY46VH4BMIS44D", "counterbalance": 1023, "useragent": "Mozilla/5.0 (Windows NT 10.0; Win64; x64) AppleWebKit/537.36 (KHTML, like Gecko) Chrome/63.0.3239.132 Safari/537.36", "eventdata": [{"eventtype": "initialized", "interval": 0, "value": null, "timestamp": 1516896747082}, {"eventtype": "window_resize", "interval": 0, "value": [1366, 721], "timestamp": 1516896747082}, {"eventtype": "focus", "interval": 1592519, "value": "off", "timestamp": 1516898339601}, {"eventtype": "focus", "interval": 3965, "value": "on", "timestamp": 1516898343566}], "data": [{"current_trial": 0, "trialdata": {"rt": 1929, "trial_type": "text", "internal_node_id": "0.0-0.0", "time_elapsed": 1934, "key_press": 32, "type": "INSTRUCTIONS", "trial_index": 0}, "uniqueid": "MTK2225:3MHW492WW1KHCJTZ10ARFLH84LLMVR", "dateTime": 1516896749633}, {"current_trial": 1, "trialdata": {"rt": 23044, "trial_type": "text", "internal_node_id": "0.0-1.0", "time_elapsed": 24982, "key_press": 32, "type": "INSTRUCTIONS", "trial_index": 1}, "uniqueid": "MTK2225:3MHW492WW1KHCJTZ10ARFLH84LLMVR", "dateTime": 1516896772680}, {"current_trial": 2, "trialdata": {"rt": [14105], "trial_type": "audio-test", "responses": ["ocean"], "internal_node_id": "0.0-2.0", "time_elapsed": 39157, "type": "AUDIO_TEST", "trial_index": 2}, "uniqueid": "MTK2225:3MHW492WW1KHCJTZ10ARFLH84LLMVR", "dateTime": 1516896786855}, {"current_trial": 3, "trialdata": {"rt": [7562], "trial_type": "audio-test", "responses": ["crystal"], "internal_node_id": "0.0-3.0", "time_elapsed": 46725, "type": "AUDIO_TEST", "trial_index": 3}, "uniqueid": "MTK2225:3MHW492WW1KHCJTZ10ARFLH84LLMVR", "dateTime": 1516896794423}, {"current_trial": 4, "trialdata": {"rt": [6010], "trial_type": "audio-test", "responses": ["spice"], "internal_node_id": "0.0-4.0", "time_elapsed": 52740, "type": "AUDIO_TEST", "trial_index": 4}, "uniqueid": "MTK2225:3MHW492WW1KHCJTZ10ARFLH84LLMVR", "dateTime": 1516896800438}, {"current_trial": 5, "trialdata": {"rt": 51465, "trial_type": "survey-text", "responses": "{\"Q0\":\"10:30\",\"Q1\":\"6:00\",\"Q2\":\"5\"}", "internal_node_id": "0.0-5.0", "time_elapsed": 104958, "type": "SLEEP_SURVEY", "trial_index": 5}, "uniqueid": "MTK2225:3MHW492WW1KHCJTZ10ARFLH84LLMVR", "dateTime": 1516896852656}, {"current_trial": 6, "trialdata": {"rt": 73842, "trial_type": "text", "internal_node_id": "0.0-6.0", "time_elapsed": 179802, "key_press": 32, "type": "INSTRUCTIONS", "trial_index": 6}, "uniqueid": "MTK2225:3MHW492WW1KHCJTZ10ARFLH84LLMVR", "dateTime": 1516896927501}, {"current_trial": 7, "trialdata": {"rt": 39768, "trial_type": "text", "internal_node_id": "0.0-7.0", "time_elapsed": 220074, "key_press": 32, "type": "INSTRUCTIONS", "trial_index": 7}, "uniqueid": "MTK2225:3MHW492WW1KHCJTZ10ARFLH84LLMVR", "dateTime": 1516896967772}, {"current_trial": 8, "trialdata": {"rt": 17899, "trial_type": "text", "internal_node_id": "0.0-8.0", "time_elapsed": 238474, "key_press": 32, "type": "INSTRUCTIONS", "trial_index": 8}, "uniqueid": "MTK2225:3MHW492WW1KHCJTZ10ARFLH84LLMVR", "dateTime": 1516896986172}, {"current_trial": 9, "trialdata": {"rt": [6086, 10830, 13870, 16869], "trial_type": "math-distractor", "key_times": [4926, 5318, 6086, 9703, 9934, 10830, 12961, 13150, 13870, 15829, 15982, 16869], "responses": ["21", "20", "17", "11"], "num2": [5, 7, 5, 4, 9], "num3": [9, 9, 4, 3, 7], "conditions": [18, 1200, "v", 18000], "internal_node_id": "0.0-9.0", "key_presses": [98, 97, 13, 98, 96, 13, 97, 103, 13, 97, 97, 13], "trial": 0, "time_elapsed": 257492, "type": "DISTRACTOR", "trial_index": 9, "num1": [7, 4, 8, 4, 1]}, "uniqueid": "MTK2225:3MHW492WW1KHCJTZ10ARFLH84LLMVR", "dateTime": 1516897005190}, {"current_trial": 10, "trialdata": {"rt": -1, "trial_type": "single-stim", "stimulus": "<p id=\"stim\">10</p>", "internal_node_id": "0.0-10.0-0.0", "time_elapsed": 260495, "key_press": -1, "trial_index": 10}, "uniqueid": "MTK2225:3MHW492WW1KHCJTZ10ARFLH84LLMVR", "dateTime": 1516897008193}, {"current_trial": 11, "trialdata": {"rt": -1, "trial_type": "single-stim", "stimulus": "<p id=\"stim\">9</p>", "internal_node_id": "0.0-10.0-1.0", "time_elapsed": 261496, "key_press": -1, "trial_index": 11}, "uniqueid": "MTK2225:3MHW492WW1KHCJTZ10ARFLH84LLMVR", "dateTime": 1516897009194}, {"current_trial": 12, "trialdata": {"rt": -1, "trial_type": "single-stim", "stimulus": "<p id=\"stim\">8</p>", "internal_node_id": "0.0-10.0-2.0", "time_elapsed": 262497, "key_press": -1, "trial_index": 12}, "uniqueid": "MTK2225:3MHW492WW1KHCJTZ10ARFLH84LLMVR", "dateTime": 1516897010195}, {"current_trial": 13, "trialdata": {"rt": -1, "trial_type": "single-stim", "stimulus": "<p id=\"stim\">7</p>", "internal_node_id": "0.0-10.0-3.0", "time_elapsed": 263497, "key_press": -1, "trial_index": 13}, "uniqueid": "MTK2225:3MHW492WW1KHCJTZ10ARFLH84LLMVR", "dateTime": 1516897011195}, {"current_trial": 14, "trialdata": {"rt": -1, "trial_type": "single-stim", "stimulus": "<p id=\"stim\">6</p>", "internal_node_id": "0.0-10.0-4.0", "time_elapsed": 264499, "key_press": -1, "trial_index": 14}, "uniqueid": "MTK2225:3MHW492WW1KHCJTZ10ARFLH84LLMVR", "dateTime": 1516897012198}, {"current_trial": 15, "trialdata": {"rt": -1, "trial_type": "single-stim", "stimulus": "<p id=\"stim\">5</p>", "internal_node_id": "0.0-10.0-5.0", "time_elapsed": 265500, "key_press": -1, "trial_index": 15}, "uniqueid": "MTK2225:3MHW492WW1KHCJTZ10ARFLH84LLMVR", "dateTime": 1516897013199}, {"current_trial": 16, "trialdata": {"rt": -1, "trial_type": "single-stim", "stimulus": "<p id=\"stim\">4</p>", "internal_node_id": "0.0-10.0-6.0", "time_elapsed": 266503, "key_press": -1, "trial_index": 16}, "uniqueid": "MTK2225:3MHW492WW1KHCJTZ10ARFLH84LLMVR", "dateTime": 1516897014201}, {"current_trial": 17, "trialdata": {"rt": -1, "trial_type": "single-stim", "stimulus": "<p id=\"stim\">3</p>", "internal_node_id": "0.0-10.0-7.0", "time_elapsed": 267505, "key_press": -1, "trial_index": 17}, "uniqueid": "MTK2225:3MHW492WW1KHCJTZ10ARFLH84LLMVR", "dateTime": 1516897015203}, {"current_trial": 18, "trialdata": {"rt": -1, "trial_type": "single-stim", "stimulus": "<p id=\"stim\">2</p>", "internal_node_id": "0.0-10.0-8.0", "time_elapsed": 268507, "key_press": -1, "trial_index": 18}, "uniqueid": "MTK2225:3MHW492WW1KHCJTZ10ARFLH84LLMVR", "dateTime": 1516897016206}, {"current_trial": 19, "trialdata": {"rt": -1, "trial_type": "single-stim", "stimulus": "<p id=\"stim\">1</p>", "internal_node_id": "0.0-10.0-9.0", "time_elapsed": 269508, "key_press": -1, "trial_index": 19}, "uniqueid": "MTK2225:3MHW492WW1KHCJTZ10ARFLH84LLMVR", "dateTime": 1516897017207}, {"current_trial": 20, "trialdata": {"rt": -1, "trial_type": "single-stim", "stimulus": "<p id=\"stim\">+</p>", "internal_node_id": "0.0-11.0-0.0", "time_elapsed": 271010, "key_press": -1, "type": "FIXATION", "trial_index": 20}, "uniqueid": "MTK2225:3MHW492WW1KHCJTZ10ARFLH84LLMVR", "dateTime": 1516897018709}, {"current_trial": 21, "trialdata": {"rt": -1, "trial_type": "single-stim", "word": "poison", "stimulus": "<p id=\"stim\">POISON</p>", "conditions": [18, 1200, "v", 18000], "internal_node_id": "0.0-12.0", "trial": 0, "time_elapsed": 272212, "serialpos": 0, "key_press": -1, "wordID": 1095, "type": "PRES_VIS", "trial_index": 21}, "uniqueid": "MTK2225:3MHW492WW1KHCJTZ10ARFLH84LLMVR", "dateTime": 1516897019911}, {"current_trial": 22, "trialdata": {"rt": -1, "trial_type": "single-stim", "word": "razor", "stimulus": "<p id=\"stim\">RAZOR</p>", "conditions": [18, 1200, "v", 18000], "internal_node_id": "0.0-13.0", "trial": 0, "time_elapsed": 274576, "serialpos": 1, "key_press": -1, "wordID": 1170, "type": "PRES_VIS", "trial_index": 22}, "uniqueid": "MTK2225:3MHW492WW1KHCJTZ10ARFLH84LLMVR", "dateTime": 1516897022274}, {"current_trial": 23, "trialdata": {"rt": -1, "trial_type": "single-stim", "word": "garlic", "stimulus": "<p id=\"stim\">GARLIC</p>", "conditions": [18, 1200, "v", 18000], "internal_node_id": "0.0-14.0", "trial": 0, "time_elapsed": 276931, "serialpos": 2, "key_press": -1, "wordID": 623, "type": "PRES_VIS", "trial_index": 23}, "uniqueid": "MTK2225:3MHW492WW1KHCJTZ10ARFLH84LLMVR", "dateTime": 1516897024630}, {"current_trial": 24, "trialdata": {"rt": -1, "trial_type": "single-stim", "word": "female", "stimulus": "<p id=\"stim\">FEMALE</p>", "conditions": [18, 1200, "v", 18000], "internal_node_id": "0.0-15.0", "trial": 0, "time_elapsed": 279099, "serialpos": 3, "key_press": -1, "wordID": 558, "type": "PRES_VIS", "trial_index": 24}, "uniqueid": "MTK2225:3MHW492WW1KHCJTZ10ARFLH84LLMVR", "dateTime": 1516897026797}, {"current_trial": 25, "trialdata": {"rt": -1, "trial_type": "single-stim", "word": "lace", "stimulus": "<p id=\"stim\">LACE</p>", "conditions": [18, 1200, "v", 18000], "internal_node_id": "0.0-16.0", "trial": 0, "time_elapsed": 281398, "serialpos": 4, "key_press": -1, "wordID": 791, "type": "PRES_VIS", "trial_index": 25}, "uniqueid": "MTK2225:3MHW492WW1KHCJTZ10ARFLH84LLMVR", "dateTime": 1516897029097}, {"current_trial": 26, "trialdata": {"rt": -1, "trial_type": "single-stim", "word": "college", "stimulus": "<p id=\"stim\">COLLEGE</p>", "conditions": [18, 1200, "v", 18000], "internal_node_id": "0.0-17.0", "trial": 0, "time_elapsed": 283720, "serialpos": 5, "key_press": -1, "wordID": 345, "type": "PRES_VIS", "trial_index": 26}, "uniqueid": "MTK2225:3MHW492WW1KHCJTZ10ARFLH84LLMVR", "dateTime": 1516897031419}, {"current_trial": 27, "trialdata": {"rt": -1, "trial_type": "single-stim", "word": "twister", "stimulus": "<p id=\"stim\">TWISTER</p>", "conditions": [18, 1200, "v", 18000], "internal_node_id": "0.0-18.0", "trial": 0, "time_elapsed": 286079, "serialpos": 6, "key_press": -1, "wordID": 1529, "type": "PRES_VIS", "trial_index": 27}, "uniqueid": "MTK2225:3MHW492WW1KHCJTZ10ARFLH84LLMVR", "dateTime": 1516897033778}, {"current_trial": 28, "trialdata": {"rt": -1, "trial_type": "single-stim", "word": "plaster", "stimulus": "<p id=\"stim\">PLASTER</p>", "conditions": [18, 1200, "v", 18000], "internal_node_id": "0.0-19.0", "trial": 0, "time_elapsed": 288182, "serialpos": 7, "key_press": -1, "wordID": 1084, "type": "PRES_VIS", "trial_index": 28}, "uniqueid": "MTK2225:3MHW492WW1KHCJTZ10ARFLH84LLMVR", "dateTime": 1516897035880}, {"current_trial": 29, "trialdata": {"rt": -1, "trial_type": "single-stim", "word": "beast", "stimulus": "<p id=\"stim\">BEAST</p>", "conditions": [18, 1200, "v", 18000], "internal_node_id": "0.0-20.0", "trial": 0, "time_elapsed": 290291, "serialpos": 8, "key_press": -1, "wordID": 107, "type": "PRES_VIS", "trial_index": 29}, "uniqueid": "MTK2225:3MHW492WW1KHCJTZ10ARFLH84LLMVR", "dateTime": 1516897037989}, {"current_trial": 30, "trialdata": {"rt": -1, "trial_type": "single-stim", "word": "flag", "stimulus": "<p id=\"stim\">FLAG</p>", "conditions": [18, 1200, "v", 18000], "internal_node_id": "0.0-21.0", "trial": 0, "time_elapsed": 292585, "serialpos": 9, "key_press": -1, "wordID": 572, "type": "PRES_VIS", "trial_index": 30}, "uniqueid": "MTK2225:3MHW492WW1KHCJTZ10ARFLH84LLMVR", "dateTime": 1516897040284}, {"current_trial": 31, "trialdata": {"rt": -1, "trial_type": "single-stim", "word": "tart", "stimulus": "<p id=\"stim\">TART</p>", "conditions": [18, 1200, "v", 18000], "internal_node_id": "0.0-22.0", "trial": 0, "time_elapsed": 294776, "serialpos": 10, "key_press": -1, "wordID": 1435, "type": "PRES_VIS", "trial_index": 31}, "uniqueid": "MTK2225:3MHW492WW1KHCJTZ10ARFLH84LLMVR", "dateTime": 1516897042474}, {"current_trial": 32, "trialdata": {"rt": -1, "trial_type": "single-stim", "word": "ghetto", "stimulus": "<p id=\"stim\">GHETTO</p>", "conditions": [18, 1200, "v", 18000], "internal_node_id": "0.0-23.0", "trial": 0, "time_elapsed": 296836, "serialpos": 11, "key_press": -1, "wordID": 632, "type": "PRES_VIS", "trial_index": 32}, "uniqueid": "MTK2225:3MHW492WW1KHCJTZ10ARFLH84LLMVR", "dateTime": 1516897044535}, {"current_trial": 33, "trialdata": {"rt": -1, "trial_type": "single-stim", "word": "sister", "stimulus": "<p id=\"stim\">SISTER</p>", "conditions": [18, 1200, "v", 18000], "internal_node_id": "0.0-24.0", "trial": 0, "time_elapsed": 299204, "serialpos": 12, "key_press": -1, "wordID": 1311, "type": "PRES_VIS", "trial_index": 33}, "uniqueid": "MTK2225:3MHW492WW1KHCJTZ10ARFLH84LLMVR", "dateTime": 1516897046903}, {"current_trial": 34, "trialdata": {"rt": -1, "trial_type": "single-stim", "word": "staple", "stimulus": "<p id=\"stim\">STAPLE</p>", "conditions": [18, 1200, "v", 18000], "internal_node_id": "0.0-25.0", "trial": 0, "time_elapsed": 301233, "serialpos": 13, "key_press": -1, "wordID": 1370, "type": "PRES_VIS", "trial_index": 34}, "uniqueid": "MTK2225:3MHW492WW1KHCJTZ10ARFLH84LLMVR", "dateTime": 1516897048932}, {"current_trial": 35, "trialdata": {"rt": -1, "trial_type": "single-stim", "word": "salad", "stimulus": "<p id=\"stim\">SALAD</p>", "conditions": [18, 1200, "v", 18000], "internal_node_id": "0.0-26.0", "trial": 0, "time_elapsed": 303345, "serialpos": 14, "key_press": -1, "wordID": 1223, "type": "PRES_VIS", "trial_index": 35}, "uniqueid": "MTK2225:3MHW492WW1KHCJTZ10ARFLH84LLMVR", "dateTime": 1516897051044}, {"current_trial": 36, "trialdata": {"rt": -1, "trial_type": "single-stim", "word": "termite", "stimulus": "<p id=\"stim\">TERMITE</p>", "conditions": [18, 1200, "v", 18000], "internal_node_id": "0.0-27.0", "trial": 0, "time_elapsed": 305655, "serialpos": 15, "key_press": -1, "wordID": 1450, "type": "PRES_VIS", "trial_index": 36}, "uniqueid": "MTK2225:3MHW492WW1KHCJTZ10ARFLH84LLMVR", "dateTime": 1516897053354}, {"current_trial": 37, "trialdata": {"rt": -1, "trial_type": "single-stim", "word": "carrot", "stimulus": "<p id=\"stim\">CARROT</p>", "conditions": [18, 1200, "v", 18000], "internal_node_id": "0.0-28.0", "trial": 0, "time_elapsed": 307759, "serialpos": 16, "key_press": -1, "wordID": 248, "type": "PRES_VIS", "trial_index": 37}, "uniqueid": "MTK2225:3MHW492WW1KHCJTZ10ARFLH84LLMVR", "dateTime": 1516897055457}, {"current_trial": 38, "trialdata": {"rt": -1, "trial_type": "single-stim", "word": "bacon", "stimulus": "<p id=\"stim\">BACON</p>", "conditions": [18, 1200, "v", 18000], "internal_node_id": "0.0-29.0", "trial": 0, "time_elapsed": 310051, "serialpos": 17, "key_press": -1, "wordID": 66, "type": "PRES_VIS", "trial_index": 38}, "uniqueid": "MTK2225:3MHW492WW1KHCJTZ10ARFLH84LLMVR", "dateTime": 1516897057750}, {"current_trial": 39, "trialdata": {"rt": -1, "trial_type": "single-stim", "stimulus": "", "internal_node_id": "0.0-30.0-0.0", "time_elapsed": 312378, "key_press": -1, "type": "PRE_RECALL_DELAY", "trial_index": 39}, "uniqueid": "MTK2225:3MHW492WW1KHCJTZ10ARFLH84LLMVR", "dateTime": 1516897060077}, {"current_trial": 40, "trialdata": {"rt": -1000, "trial_type": "single-audio", "stimulus": "/static/audio/400Hz.wav", "internal_node_id": "0.0-31.0", "time_elapsed": 312881, "key_press": -1, "type": "PRE_RECALL_ALERT", "trial_index": 40}, "uniqueid": "MTK2225:3MHW492WW1KHCJTZ10ARFLH84LLMVR", "dateTime": 1516897060579}, {"current_trial": 41, "trialdata": {"rt": [3534, 6750, 8542, 10430, 14078, 16902, 22198, 31430, 42326, 56102], "recwords": ["bacon", "twister", "carrot", "sister", "razor", "ghetto", "lace", "poison", "termite", "college"], "key_times": [1807, 2070, 2318, 2446, 2694, 3534, 4870, 5062, 5278, 5422, 5902, 6086, 6149, 6750, 7094, 7174, 7374, 7510, 7662, 7766, 8542, 9286, 9461, 9565, 9790, 9894, 9976, 10430, 12366, 12469, 13046, 13333, 13637, 14078, 14861, 15014, 15174, 15470, 16029, 16254, 16902, 21158, 21238, 21533, 21742, 22198, 29718, 29910, 30086, 30309, 30462, 30646, 31430, 40597, 40725, 40790, 41149, 41206, 41374, 41453, 42326, 54358, 54600, 54838, 54974, 55094, 55245, 55349, 56102], "trial_type": "free-recall", "conditions": [18, 1200, "v", 18000], "internal_node_id": "0.0-32.0-0.0", "key_presses": [66, 65, 67, 79, 78, 13, 84, 87, 73, 83, 84, 69, 82, 13, 67, 65, 82, 82, 79, 84, 13, 83, 73, 83, 84, 69, 82, 13, 82, 65, 90, 79, 82, 13, 71, 72, 69, 84, 84, 79, 13, 76, 65, 67, 69, 13, 80, 79, 73, 83, 79, 78, 13, 84, 69, 82, 77, 73, 84, 69, 13, 67, 79, 76, 76, 69, 71, 69, 13], "trial": 0, "time_elapsed": 372886, "type": "FREE_RECALL", "trial_index": 41}, "uniqueid": "MTK2225:3MHW492WW1KHCJTZ10ARFLH84LLMVR", "dateTime": 1516897120587}, {"current_trial": 42, "trialdata": {"rt": 2325, "trial_type": "text", "internal_node_id": "0.0-33.0", "time_elapsed": 377217, "key_press": 32, "type": "INSTRUCTIONS", "trial_index": 42}, "uniqueid": "MTK2225:3MHW492WW1KHCJTZ10ARFLH84LLMVR", "dateTime": 1516897124915}, {"current_trial": 43, "trialdata": {"rt": [3893, 9245, 12517, 15165, 17829], "trial_type": "math-distractor", "key_times": [2606, 2822, 3893, 5742, 6677, 8509, 9245, 11221, 11470, 12517, 14374, 14725, 15165, 16573, 16718, 17829], "responses": ["16", "9", "16", "19", "11"], "num2": [1, 1, 3, 8, 4, 7], "num3": [8, 6, 5, 8, 1, 3], "conditions": [18, 1200, "v", 18000], "internal_node_id": "0.0-34.0", "key_presses": [97, 102, 13, 105, 107, 8, 13, 97, 102, 13, 97, 105, 13, 97, 97, 13], "trial": 1, "time_elapsed": 397219, "type": "DISTRACTOR", "trial_index": 43, "num1": [7, 2, 8, 3, 6, 9]}, "uniqueid": "MTK2225:3MHW492WW1KHCJTZ10ARFLH84LLMVR", "dateTime": 1516897144918}, {"current_trial": 44, "trialdata": {"rt": -1, "trial_type": "single-stim", "stimulus": "<p id=\"stim\">10</p>", "internal_node_id": "0.0-35.0-0.0", "time_elapsed": 400221, "key_press": -1, "trial_index": 44}, "uniqueid": "MTK2225:3MHW492WW1KHCJTZ10ARFLH84LLMVR", "dateTime": 1516897147920}, {"current_trial": 45, "trialdata": {"rt": -1, "trial_type": "single-stim", "stimulus": "<p id=\"stim\">9</p>", "internal_node_id": "0.0-35.0-1.0", "time_elapsed": 401222, "key_press": -1, "trial_index": 45}, "uniqueid": "MTK2225:3MHW492WW1KHCJTZ10ARFLH84LLMVR", "dateTime": 1516897148920}, {"current_trial": 46, "trialdata": {"rt": -1, "trial_type": "single-stim", "stimulus": "<p id=\"stim\">8</p>", "internal_node_id": "0.0-35.0-2.0", "time_elapsed": 402223, "key_press": -1, "trial_index": 46}, "uniqueid": "MTK2225:3MHW492WW1KHCJTZ10ARFLH84LLMVR", "dateTime": 1516897149921}, {"current_trial": 47, "trialdata": {"rt": -1, "trial_type": "single-stim", "stimulus": "<p id=\"stim\">7</p>", "internal_node_id": "0.0-35.0-3.0", "time_elapsed": 403226, "key_press": -1, "trial_index": 47}, "uniqueid": "MTK2225:3MHW492WW1KHCJTZ10ARFLH84LLMVR", "dateTime": 1516897150924}, {"current_trial": 48, "trialdata": {"rt": -1, "trial_type": "single-stim", "stimulus": "<p id=\"stim\">6</p>", "internal_node_id": "0.0-35.0-4.0", "time_elapsed": 404226, "key_press": -1, "trial_index": 48}, "uniqueid": "MTK2225:3MHW492WW1KHCJTZ10ARFLH84LLMVR", "dateTime": 1516897151924}, {"current_trial": 49, "trialdata": {"rt": -1, "trial_type": "single-stim", "stimulus": "<p id=\"stim\">5</p>", "internal_node_id": "0.0-35.0-5.0", "time_elapsed": 405227, "key_press": -1, "trial_index": 49}, "uniqueid": "MTK2225:3MHW492WW1KHCJTZ10ARFLH84LLMVR", "dateTime": 1516897152925}, {"current_trial": 50, "trialdata": {"rt": -1, "trial_type": "single-stim", "stimulus": "<p id=\"stim\">4</p>", "internal_node_id": "0.0-35.0-6.0", "time_elapsed": 406228, "key_press": -1, "trial_index": 50}, "uniqueid": "MTK2225:3MHW492WW1KHCJTZ10ARFLH84LLMVR", "dateTime": 1516897153927}, {"current_trial": 51, "trialdata": {"rt": -1, "trial_type": "single-stim", "stimulus": "<p id=\"stim\">3</p>", "internal_node_id": "0.0-35.0-7.0", "time_elapsed": 407229, "key_press": -1, "trial_index": 51}, "uniqueid": "MTK2225:3MHW492WW1KHCJTZ10ARFLH84LLMVR", "dateTime": 1516897154927}, {"current_trial": 52, "trialdata": {"rt": -1, "trial_type": "single-stim", "stimulus": "<p id=\"stim\">2</p>", "internal_node_id": "0.0-35.0-8.0", "time_elapsed": 408231, "key_press": -1, "trial_index": 52}, "uniqueid": "MTK2225:3MHW492WW1KHCJTZ10ARFLH84LLMVR", "dateTime": 1516897155929}, {"current_trial": 53, "trialdata": {"rt": -1, "trial_type": "single-stim", "stimulus": "<p id=\"stim\">1</p>", "internal_node_id": "0.0-35.0-9.0", "time_elapsed": 409233, "key_press": -1, "trial_index": 53}, "uniqueid": "MTK2225:3MHW492WW1KHCJTZ10ARFLH84LLMVR", "dateTime": 1516897156932}, {"current_trial": 54, "trialdata": {"rt": -1, "trial_type": "single-stim", "stimulus": "<p id=\"stim\">+</p>", "internal_node_id": "0.0-36.0-0.0", "time_elapsed": 410734, "key_press": -1, "type": "FIXATION", "trial_index": 54}, "uniqueid": "MTK2225:3MHW492WW1KHCJTZ10ARFLH84LLMVR", "dateTime": 1516897158432}, {"current_trial": 55, "trialdata": {"rt": -1, "trial_type": "single-stim", "word": "bison", "stimulus": "<p id=\"stim\">BISON</p>", "conditions": [18, 1200, "v", 18000], "internal_node_id": "0.0-37.0", "trial": 1, "time_elapsed": 411936, "serialpos": 0, "key_press": -1, "wordID": 130, "type": "PRES_VIS", "trial_index": 55}, "uniqueid": "MTK2225:3MHW492WW1KHCJTZ10ARFLH84LLMVR", "dateTime": 1516897159634}, {"current_trial": 56, "trialdata": {"rt": -1, "trial_type": "single-stim", "word": "onion", "stimulus": "<p id=\"stim\">ONION</p>", "conditions": [18, 1200, "v", 18000], "internal_node_id": "0.0-38.0", "trial": 1, "time_elapsed": 414300, "serialpos": 1, "key_press": -1, "wordID": 976, "type": "PRES_VIS", "trial_index": 56}, "uniqueid": "MTK2225:3MHW492WW1KHCJTZ10ARFLH84LLMVR", "dateTime": 1516897161998}, {"current_trial": 57, "trialdata": {"rt": -1, "trial_type": "single-stim", "word": "marrow", "stimulus": "<p id=\"stim\">MARROW</p>", "conditions": [18, 1200, "v", 18000], "internal_node_id": "0.0-39.0", "trial": 1, "time_elapsed": 416395, "serialpos": 2, "key_press": -1, "wordID": 871, "type": "PRES_VIS", "trial_index": 57}, "uniqueid": "MTK2225:3MHW492WW1KHCJTZ10ARFLH84LLMVR", "dateTime": 1516897164093}, {"current_trial": 58, "trialdata": {"rt": -1, "trial_type": "single-stim", "word": "eyelash", "stimulus": "<p id=\"stim\">EYELASH</p>", "conditions": [18, 1200, "v", 18000], "internal_node_id": "0.0-40.0", "trial": 1, "time_elapsed": 418488, "serialpos": 3, "key_press": -1, "wordID": 545, "type": "PRES_VIS", "trial_index": 58}, "uniqueid": "MTK2225:3MHW492WW1KHCJTZ10ARFLH84LLMVR", "dateTime": 1516897166187}, {"current_trial": 59, "trialdata": {"rt": -1, "trial_type": "single-stim", "word": "rebel", "stimulus": "<p id=\"stim\">REBEL</p>", "conditions": [18, 1200, "v", 18000], "internal_node_id": "0.0-41.0", "trial": 1, "time_elapsed": 420855, "serialpos": 4, "key_press": -1, "wordID": 1171, "type": "PRES_VIS", "trial_index": 59}, "uniqueid": "MTK2225:3MHW492WW1KHCJTZ10ARFLH84LLMVR", "dateTime": 1516897168554}, {"current_trial": 60, "trialdata": {"rt": -1, "trial_type": "single-stim", "word": "shrub", "stimulus": "<p id=\"stim\">SHRUB</p>", "conditions": [18, 1200, "v", 18000], "internal_node_id": "0.0-42.0", "trial": 1, "time_elapsed": 423188, "serialpos": 5, "key_press": -1, "wordID": 1298, "type": "PRES_VIS", "trial_index": 60}, "uniqueid": "MTK2225:3MHW492WW1KHCJTZ10ARFLH84LLMVR", "dateTime": 1516897170887}, {"current_trial": 61, "trialdata": {"rt": -1, "trial_type": "single-stim", "word": "gazelle", "stimulus": "<p id=\"stim\">GAZELLE</p>", "conditions": [18, 1200, "v", 18000], "internal_node_id": "0.0-43.0", "trial": 1, "time_elapsed": 425304, "serialpos": 6, "key_press": -1, "wordID": 627, "type": "PRES_VIS", "trial_index": 61}, "uniqueid": "MTK2225:3MHW492WW1KHCJTZ10ARFLH84LLMVR", "dateTime": 1516897173003}, {"current_trial": 62, "trialdata": {"rt": -1, "trial_type": "single-stim", "word": "space", "stimulus": "<p id=\"stim\">SPACE</p>", "conditions": [18, 1200, "v", 18000], "internal_node_id": "0.0-44.0", "trial": 1, "time_elapsed": 427705, "serialpos": 7, "key_press": -1, "wordID": 1344, "type": "PRES_VIS", "trial_index": 62}, "uniqueid": "MTK2225:3MHW492WW1KHCJTZ10ARFLH84LLMVR", "dateTime": 1516897175404}, {"current_trial": 63, "trialdata": {"rt": -1, "trial_type": "single-stim", "word": "blackboard", "stimulus": "<p id=\"stim\">BLACKBOARD</p>", "conditions": [18, 1200, "v", 18000], "internal_node_id": "0.0-45.0", "trial": 1, "time_elapsed": 430074, "serialpos": 8, "key_press": -1, "wordID": 132, "type": "PRES_VIS", "trial_index": 63}, "uniqueid": "MTK2225:3MHW492WW1KHCJTZ10ARFLH84LLMVR", "dateTime": 1516897177772}, {"current_trial": 64, "trialdata": {"rt": -1, "trial_type": "single-stim", "word": "preacher", "stimulus": "<p id=\"stim\">PREACHER</p>", "conditions": [18, 1200, "v", 18000], "internal_node_id": "0.0-46.0", "trial": 1, "time_elapsed": 432344, "serialpos": 9, "key_press": -1, "wordID": 1118, "type": "PRES_VIS", "trial_index": 64}, "uniqueid": "MTK2225:3MHW492WW1KHCJTZ10ARFLH84LLMVR", "dateTime": 1516897180043}, {"current_trial": 65, "trialdata": {"rt": -1, "trial_type": "single-stim", "word": "padding", "stimulus": "<p id=\"stim\">PADDING</p>", "conditions": [18, 1200, "v", 18000], "internal_node_id": "0.0-47.0", "trial": 1, "time_elapsed": 434519, "serialpos": 10, "key_press": -1, "wordID": 998, "type": "PRES_VIS", "trial_index": 65}, "uniqueid": "MTK2225:3MHW492WW1KHCJTZ10ARFLH84LLMVR", "dateTime": 1516897182217}, {"current_trial": 66, "trialdata": {"rt": -1, "trial_type": "single-stim", "word": "transplant", "stimulus": "<p id=\"stim\">TRANSPLANT</p>", "conditions": [18, 1200, "v", 18000], "internal_node_id": "0.0-48.0", "trial": 1, "time_elapsed": 436572, "serialpos": 11, "key_press": -1, "wordID": 1495, "type": "PRES_VIS", "trial_index": 66}, "uniqueid": "MTK2225:3MHW492WW1KHCJTZ10ARFLH84LLMVR", "dateTime": 1516897184270}, {"current_trial": 67, "trialdata": {"rt": -1, "trial_type": "single-stim", "word": "lagoon", "stimulus": "<p id=\"stim\">LAGOON</p>", "conditions": [18, 1200, "v", 18000], "internal_node_id": "0.0-49.0", "trial": 1, "time_elapsed": 438717, "serialpos": 12, "key_press": -1, "wordID": 794, "type": "PRES_VIS", "trial_index": 67}, "uniqueid": "MTK2225:3MHW492WW1KHCJTZ10ARFLH84LLMVR", "dateTime": 1516897186416}, {"current_trial": 68, "trialdata": {"rt": -1, "trial_type": "single-stim", "word": "plate", "stimulus": "<p id=\"stim\">PLATE</p>", "conditions": [18, 1200, "v", 18000], "internal_node_id": "0.0-50.0", "trial": 1, "time_elapsed": 440798, "serialpos": 13, "key_press": -1, "wordID": 1085, "type": "PRES_VIS", "trial_index": 68}, "uniqueid": "MTK2225:3MHW492WW1KHCJTZ10ARFLH84LLMVR", "dateTime": 1516897188500}, {"current_trial": 69, "trialdata": {"rt": -1, "trial_type": "single-stim", "word": "foot", "stimulus": "<p id=\"stim\">FOOT</p>", "conditions": [18, 1200, "v", 18000], "internal_node_id": "0.0-51.0", "trial": 1, "time_elapsed": 443050, "serialpos": 14, "key_press": -1, "wordID": 589, "type": "PRES_VIS", "trial_index": 69}, "uniqueid": "MTK2225:3MHW492WW1KHCJTZ10ARFLH84LLMVR", "dateTime": 1516897190748}, {"current_trial": 70, "trialdata": {"rt": -1, "trial_type": "single-stim", "word": "lapel", "stimulus": "<p id=\"stim\">LAPEL</p>", "conditions": [18, 1200, "v", 18000], "internal_node_id": "0.0-52.0", "trial": 1, "time_elapsed": 445264, "serialpos": 15, "key_press": -1, "wordID": 799, "type": "PRES_VIS", "trial_index": 70}, "uniqueid": "MTK2225:3MHW492WW1KHCJTZ10ARFLH84LLMVR", "dateTime": 1516897192962}, {"current_trial": 71, "trialdata": {"rt": -1, "trial_type": "single-stim", "word": "playground", "stimulus": "<p id=\"stim\">PLAYGROUND</p>", "conditions": [18, 1200, "v", 18000], "internal_node_id": "0.0-53.0", "trial": 1, "time_elapsed": 447352, "serialpos": 16, "key_press": -1, "wordID": 1086, "type": "PRES_VIS", "trial_index": 71}, "uniqueid": "MTK2225:3MHW492WW1KHCJTZ10ARFLH84LLMVR", "dateTime": 1516897195050}, {"current_trial": 72, "trialdata": {"rt": -1, "trial_type": "single-stim", "word": "grill", "stimulus": "<p id=\"stim\">GRILL</p>", "conditions": [18, 1200, "v", 18000], "internal_node_id": "0.0-54.0", "trial": 1, "time_elapsed": 449516, "serialpos": 17, "key_press": -1, "wordID": 660, "type": "PRES_VIS", "trial_index": 72}, "uniqueid": "MTK2225:3MHW492WW1KHCJTZ10ARFLH84LLMVR", "dateTime": 1516897197214}, {"current_trial": 73, "trialdata": {"rt": -1, "trial_type": "single-stim", "stimulus": "", "internal_node_id": "0.0-55.0-0.0", "time_elapsed": 451983, "key_press": -1, "type": "PRE_RECALL_DELAY", "trial_index": 73}, "uniqueid": "MTK2225:3MHW492WW1KHCJTZ10ARFLH84LLMVR", "dateTime": 1516897199681}, {"current_trial": 74, "trialdata": {"rt": -1000, "trial_type": "single-audio", "stimulus": "/static/audio/400Hz.wav", "internal_node_id": "0.0-56.0", "time_elapsed": 452485, "key_press": -1, "type": "PRE_RECALL_ALERT", "trial_index": 74}, "uniqueid": "MTK2225:3MHW492WW1KHCJTZ10ARFLH84LLMVR", "dateTime": 1516897200183}, {"current_trial": 75, "trialdata": {"rt": [6696, 8344, 12200, 14688, 17216, 20832, 30296, 39592, 50040], "recwords": ["playground", "grill", "transplant", "blackboard", "gazelle", "bison", "lapel", "preacher", "onion"], "key_times": [1457, 1680, 2968, 3985, 4481, 4808, 5152, 5192, 5312, 5416, 5592, 5688, 6696, 7216, 7233, 7400, 7688, 7816, 8344, 8760, 8785, 8968, 9152, 9272, 10617, 10696, 10944, 11112, 11320, 12200, 12552, 12672, 12792, 12984, 13112, 13672, 13808, 13872, 14048, 14216, 14688, 15536, 15664, 15920, 16128, 16440, 16584, 16752, 17216, 19608, 19864, 19984, 20104, 20240, 20832, 28529, 28696, 28776, 28928, 29426, 30296, 37792, 37912, 37936, 38080, 38328, 38480, 38584, 38640, 39592, 48602, 48863, 49112, 49192, 49384, 50040], "trial_type": "free-recall", "conditions": [18, 1200, "v", 18000], "internal_node_id": "0.0-57.0-0.0", "key_presses": [80, 65, 8, 76, 65, 89, 71, 82, 79, 85, 78, 68, 13, 71, 82, 73, 76, 76, 13, 84, 82, 65, 78, 83, 80, 76, 65, 78, 84, 13, 66, 76, 65, 67, 75, 66, 79, 65, 82, 68, 13, 71, 65, 90, 69, 76, 76, 69, 13, 66, 73, 83, 79, 78, 13, 76, 65, 80, 69, 76, 13, 80, 82, 69, 65, 67, 72, 69, 82, 13, 79, 78, 73, 79, 78, 13], "trial": 1, "time_elapsed": 512489, "type": "FREE_RECALL", "trial_index": 75}, "uniqueid": "MTK2225:3MHW492WW1KHCJTZ10ARFLH84LLMVR", "dateTime": 1516897260191}, {"current_trial": 76, "trialdata": {"rt": 3675, "trial_type": "text", "internal_node_id": "0.0-58.0", "time_elapsed": 518169, "key_press": 32, "type": "INSTRUCTIONS", "trial_index": 76}, "uniqueid": "MTK2225:3MHW492WW1KHCJTZ10ARFLH84LLMVR", "dateTime": 1516897265868}, {"current_trial": 77, "trialdata": {"rt": [4122, 9747, 13122, 15651, 17875, 20923], "trial_type": "math-distractor", "key_times": [3499, 3683, 4122, 8355, 8658, 9747, 11979, 12186, 13122, 14842, 14994, 15651, 17274, 17467, 17875, 20075, 20474, 20923, 23514, 23723], "responses": ["23", "13", "17", "11", "12", "19"], "num2": [5, 3, 6, 4, 8, 4, 9], "num3": [9, 9, 3, 6, 1, 7, 4], "conditions": [24, 800, "v", 24000], "internal_node_id": "0.0-59.0", "key_presses": [98, 99, 13, 97, 99, 13, 97, 103, 13, 97, 97, 13, 97, 98, 13, 97, 105, 13, 98, 96], "trial": 2, "time_elapsed": 543175, "type": "DISTRACTOR", "trial_index": 77, "num1": [9, 1, 8, 1, 3, 8, 7]}, "uniqueid": "MTK2225:3MHW492WW1KHCJTZ10ARFLH84LLMVR", "dateTime": 1516897290873}, {"current_trial": 78, "trialdata": {"rt": -1, "trial_type": "single-stim", "stimulus": "<p id=\"stim\">10</p>", "internal_node_id": "0.0-60.0-0.0", "time_elapsed": 546175, "key_press": -1, "trial_index": 78}, "uniqueid": "MTK2225:3MHW492WW1KHCJTZ10ARFLH84LLMVR", "dateTime": 1516897293874}, {"current_trial": 79, "trialdata": {"rt": -1, "trial_type": "single-stim", "stimulus": "<p id=\"stim\">9</p>", "internal_node_id": "0.0-60.0-1.0", "time_elapsed": 547177, "key_press": -1, "trial_index": 79}, "uniqueid": "MTK2225:3MHW492WW1KHCJTZ10ARFLH84LLMVR", "dateTime": 1516897294875}, {"current_trial": 80, "trialdata": {"rt": -1, "trial_type": "single-stim", "stimulus": "<p id=\"stim\">8</p>", "internal_node_id": "0.0-60.0-2.0", "time_elapsed": 548178, "key_press": -1, "trial_index": 80}, "uniqueid": "MTK2225:3MHW492WW1KHCJTZ10ARFLH84LLMVR", "dateTime": 1516897295876}, {"current_trial": 81, "trialdata": {"rt": -1, "trial_type": "single-stim", "stimulus": "<p id=\"stim\">7</p>", "internal_node_id": "0.0-60.0-3.0", "time_elapsed": 549179, "key_press": -1, "trial_index": 81}, "uniqueid": "MTK2225:3MHW492WW1KHCJTZ10ARFLH84LLMVR", "dateTime": 1516897296877}, {"current_trial": 82, "trialdata": {"rt": -1, "trial_type": "single-stim", "stimulus": "<p id=\"stim\">6</p>", "internal_node_id": "0.0-60.0-4.0", "time_elapsed": 550180, "key_press": -1, "trial_index": 82}, "uniqueid": "MTK2225:3MHW492WW1KHCJTZ10ARFLH84LLMVR", "dateTime": 1516897297878}, {"current_trial": 83, "trialdata": {"rt": -1, "trial_type": "single-stim", "stimulus": "<p id=\"stim\">5</p>", "internal_node_id": "0.0-60.0-5.0", "time_elapsed": 551182, "key_press": -1, "trial_index": 83}, "uniqueid": "MTK2225:3MHW492WW1KHCJTZ10ARFLH84LLMVR", "dateTime": 1516897298880}, {"current_trial": 84, "trialdata": {"rt": -1, "trial_type": "single-stim", "stimulus": "<p id=\"stim\">4</p>", "internal_node_id": "0.0-60.0-6.0", "time_elapsed": 552182, "key_press": -1, "trial_index": 84}, "uniqueid": "MTK2225:3MHW492WW1KHCJTZ10ARFLH84LLMVR", "dateTime": 1516897299880}, {"current_trial": 85, "trialdata": {"rt": -1, "trial_type": "single-stim", "stimulus": "<p id=\"stim\">3</p>", "internal_node_id": "0.0-60.0-7.0", "time_elapsed": 553185, "key_press": -1, "trial_index": 85}, "uniqueid": "MTK2225:3MHW492WW1KHCJTZ10ARFLH84LLMVR", "dateTime": 1516897300883}, {"current_trial": 86, "trialdata": {"rt": -1, "trial_type": "single-stim", "stimulus": "<p id=\"stim\">2</p>", "internal_node_id": "0.0-60.0-8.0", "time_elapsed": 554185, "key_press": -1, "trial_index": 86}, "uniqueid": "MTK2225:3MHW492WW1KHCJTZ10ARFLH84LLMVR", "dateTime": 1516897301883}, {"current_trial": 87, "trialdata": {"rt": -1, "trial_type": "single-stim", "stimulus": "<p id=\"stim\">1</p>", "internal_node_id": "0.0-60.0-9.0", "time_elapsed": 555187, "key_press": -1, "trial_index": 87}, "uniqueid": "MTK2225:3MHW492WW1KHCJTZ10ARFLH84LLMVR", "dateTime": 1516897302885}, {"current_trial": 88, "trialdata": {"rt": -1, "trial_type": "single-stim", "stimulus": "<p id=\"stim\">+</p>", "internal_node_id": "0.0-61.0-0.0", "time_elapsed": 556688, "key_press": -1, "type": "FIXATION", "trial_index": 88}, "uniqueid": "MTK2225:3MHW492WW1KHCJTZ10ARFLH84LLMVR", "dateTime": 1516897304386}, {"current_trial": 89, "trialdata": {"rt": -1, "trial_type": "single-stim", "word": "fox", "stimulus": "<p id=\"stim\">FOX</p>", "conditions": [24, 800, "v", 24000], "internal_node_id": "0.0-62.0", "trial": 2, "time_elapsed": 557489, "serialpos": 0, "key_press": -1, "wordID": 597, "type": "PRES_VIS", "trial_index": 89}, "uniqueid": "MTK2225:3MHW492WW1KHCJTZ10ARFLH84LLMVR", "dateTime": 1516897305188}, {"current_trial": 90, "trialdata": {"rt": -1, "trial_type": "single-stim", "word": "rattle", "stimulus": "<p id=\"stim\">RATTLE</p>", "conditions": [24, 800, "v", 24000], "internal_node_id": "0.0-63.0", "trial": 2, "time_elapsed": 559383, "serialpos": 1, "key_press": -1, "wordID": 1169, "type": "PRES_VIS", "trial_index": 90}, "uniqueid": "MTK2225:3MHW492WW1KHCJTZ10ARFLH84LLMVR", "dateTime": 1516897307082}, {"current_trial": 91, "trialdata": {"rt": -1, "trial_type": "single-stim", "word": "doughnut", "stimulus": "<p id=\"stim\">DOUGHNUT</p>", "conditions": [24, 800, "v", 24000], "internal_node_id": "0.0-64.0", "trial": 2, "time_elapsed": 561132, "serialpos": 2, "key_press": -1, "wordID": 489, "type": "PRES_VIS", "trial_index": 91}, "uniqueid": "MTK2225:3MHW492WW1KHCJTZ10ARFLH84LLMVR", "dateTime": 1516897308831}, {"current_trial": 92, "trialdata": {"rt": -1, "trial_type": "single-stim", "word": "pizza", "stimulus": "<p id=\"stim\">PIZZA</p>", "conditions": [24, 800, "v", 24000], "internal_node_id": "0.0-65.0", "trial": 2, "time_elapsed": 563096, "serialpos": 3, "key_press": -1, "wordID": 1078, "type": "PRES_VIS", "trial_index": 92}, "uniqueid": "MTK2225:3MHW492WW1KHCJTZ10ARFLH84LLMVR", "dateTime": 1516897310795}, {"current_trial": 93, "trialdata": {"rt": -1, "trial_type": "single-stim", "word": "guard", "stimulus": "<p id=\"stim\">GUARD</p>", "conditions": [24, 800, "v", 24000], "internal_node_id": "0.0-66.0", "trial": 2, "time_elapsed": 564791, "serialpos": 4, "key_press": -1, "wordID": 666, "type": "PRES_VIS", "trial_index": 93}, "uniqueid": "MTK2225:3MHW492WW1KHCJTZ10ARFLH84LLMVR", "dateTime": 1516897312490}, {"current_trial": 94, "trialdata": {"rt": -1, "trial_type": "single-stim", "word": "tile", "stimulus": "<p id=\"stim\">TILE</p>", "conditions": [24, 800, "v", 24000], "internal_node_id": "0.0-67.0", "trial": 2, "time_elapsed": 566654, "serialpos": 5, "key_press": -1, "wordID": 1467, "type": "PRES_VIS", "trial_index": 94}, "uniqueid": "MTK2225:3MHW492WW1KHCJTZ10ARFLH84LLMVR", "dateTime": 1516897314353}, {"current_trial": 95, "trialdata": {"rt": -1, "trial_type": "single-stim", "word": "infant", "stimulus": "<p id=\"stim\">INFANT</p>", "conditions": [24, 800, "v", 24000], "internal_node_id": "0.0-68.0", "trial": 2, "time_elapsed": 568521, "serialpos": 6, "key_press": -1, "wordID": 736, "type": "PRES_VIS", "trial_index": 95}, "uniqueid": "MTK2225:3MHW492WW1KHCJTZ10ARFLH84LLMVR", "dateTime": 1516897316220}, {"current_trial": 96, "trialdata": {"rt": -1, "trial_type": "single-stim", "word": "ozone", "stimulus": "<p id=\"stim\">OZONE</p>", "conditions": [24, 800, "v", 24000], "internal_node_id": "0.0-69.0", "trial": 2, "time_elapsed": 570401, "serialpos": 7, "key_press": -1, "wordID": 995, "type": "PRES_VIS", "trial_index": 96}, "uniqueid": "MTK2225:3MHW492WW1KHCJTZ10ARFLH84LLMVR", "dateTime": 1516897318099}, {"current_trial": 97, "trialdata": {"rt": -1, "trial_type": "single-stim", "word": "tourist", "stimulus": "<p id=\"stim\">TOURIST</p>", "conditions": [24, 800, "v", 24000], "internal_node_id": "0.0-70.0", "trial": 2, "time_elapsed": 572195, "serialpos": 8, "key_press": -1, "wordID": 1487, "type": "PRES_VIS", "trial_index": 97}, "uniqueid": "MTK2225:3MHW492WW1KHCJTZ10ARFLH84LLMVR", "dateTime": 1516897319893}, {"current_trial": 98, "trialdata": {"rt": -1, "trial_type": "single-stim", "word": "robin", "stimulus": "<p id=\"stim\">ROBIN</p>", "conditions": [24, 800, "v", 24000], "internal_node_id": "0.0-71.0", "trial": 2, "time_elapsed": 573850, "serialpos": 9, "key_press": -1, "wordID": 1198, "type": "PRES_VIS", "trial_index": 98}, "uniqueid": "MTK2225:3MHW492WW1KHCJTZ10ARFLH84LLMVR", "dateTime": 1516897321548}, {"current_trial": 99, "trialdata": {"rt": -1, "trial_type": "single-stim", "word": "pasta", "stimulus": "<p id=\"stim\">PASTA</p>", "conditions": [24, 800, "v", 24000], "internal_node_id": "0.0-72.0", "trial": 2, "time_elapsed": 575726, "serialpos": 10, "key_press": -1, "wordID": 1020, "type": "PRES_VIS", "trial_index": 99}, "uniqueid": "MTK2225:3MHW492WW1KHCJTZ10ARFLH84LLMVR", "dateTime": 1516897323425}, {"current_trial": 100, "trialdata": {"rt": -1, "trial_type": "single-stim", "word": "powder", "stimulus": "<p id=\"stim\">POWDER</p>", "conditions": [24, 800, "v", 24000], "internal_node_id": "0.0-73.0", "trial": 2, "time_elapsed": 577451, "serialpos": 11, "key_press": -1, "wordID": 1116, "type": "PRES_VIS", "trial_index": 100}, "uniqueid": "MTK2225:3MHW492WW1KHCJTZ10ARFLH84LLMVR", "dateTime": 1516897325149}, {"current_trial": 101, "trialdata": {"rt": -1, "trial_type": "single-stim", "word": "banker", "stimulus": "<p id=\"stim\">BANKER</p>", "conditions": [24, 800, "v", 24000], "internal_node_id": "0.0-74.0", "trial": 2, "time_elapsed": 579378, "serialpos": 12, "key_press": -1, "wordID": 83, "type": "PRES_VIS", "trial_index": 101}, "uniqueid": "MTK2225:3MHW492WW1KHCJTZ10ARFLH84LLMVR", "dateTime": 1516897327077}, {"current_trial": 102, "trialdata": {"rt": -1, "trial_type": "single-stim", "word": "beaver", "stimulus": "<p id=\"stim\">BEAVER</p>", "conditions": [24, 800, "v", 24000], "internal_node_id": "0.0-75.0", "trial": 2, "time_elapsed": 581098, "serialpos": 13, "key_press": -1, "wordID": 108, "type": "PRES_VIS", "trial_index": 102}, "uniqueid": "MTK2225:3MHW492WW1KHCJTZ10ARFLH84LLMVR", "dateTime": 1516897328796}, {"current_trial": 103, "trialdata": {"rt": -1, "trial_type": "single-stim", "word": "rabbit", "stimulus": "<p id=\"stim\">RABBIT</p>", "conditions": [24, 800, "v", 24000], "internal_node_id": "0.0-76.0", "trial": 2, "time_elapsed": 582972, "serialpos": 14, "key_press": -1, "wordID": 1151, "type": "PRES_VIS", "trial_index": 103}, "uniqueid": "MTK2225:3MHW492WW1KHCJTZ10ARFLH84LLMVR", "dateTime": 1516897330670}, {"current_trial": 104, "trialdata": {"rt": -1, "trial_type": "single-stim", "word": "globe", "stimulus": "<p id=\"stim\">GLOBE</p>", "conditions": [24, 800, "v", 24000], "internal_node_id": "0.0-77.0", "trial": 2, "time_elapsed": 584751, "serialpos": 15, "key_press": -1, "wordID": 640, "type": "PRES_VIS", "trial_index": 104}, "uniqueid": "MTK2225:3MHW492WW1KHCJTZ10ARFLH84LLMVR", "dateTime": 1516897332450}, {"current_trial": 105, "trialdata": {"rt": -1, "trial_type": "single-stim", "word": "bank", "stimulus": "<p id=\"stim\">BANK</p>", "conditions": [24, 800, "v", 24000], "internal_node_id": "0.0-78.0", "trial": 2, "time_elapsed": 586624, "serialpos": 16, "key_press": -1, "wordID": 82, "type": "PRES_VIS", "trial_index": 105}, "uniqueid": "MTK2225:3MHW492WW1KHCJTZ10ARFLH84LLMVR", "dateTime": 1516897334322}, {"current_trial": 106, "trialdata": {"rt": -1, "trial_type": "single-stim", "word": "critic", "stimulus": "<p id=\"stim\">CRITIC</p>", "conditions": [24, 800, "v", 24000], "internal_node_id": "0.0-79.0", "trial": 2, "time_elapsed": 588433, "serialpos": 17, "key_press": -1, "wordID": 409, "type": "PRES_VIS", "trial_index": 106}, "uniqueid": "MTK2225:3MHW492WW1KHCJTZ10ARFLH84LLMVR", "dateTime": 1516897336131}, {"current_trial": 107, "trialdata": {"rt": -1, "trial_type": "single-stim", "word": "scallop", "stimulus": "<p id=\"stim\">SCALLOP</p>", "conditions": [24, 800, "v", 24000], "internal_node_id": "0.0-80.0", "trial": 2, "time_elapsed": 590115, "serialpos": 18, "key_press": -1, "wordID": 1241, "type": "PRES_VIS", "trial_index": 107}, "uniqueid": "MTK2225:3MHW492WW1KHCJTZ10ARFLH84LLMVR", "dateTime": 1516897337813}, {"current_trial": 108, "trialdata": {"rt": -1, "trial_type": "single-stim", "word": "human", "stimulus": "<p id=\"stim\">HUMAN</p>", "conditions": [24, 800, "v", 24000], "internal_node_id": "0.0-81.0", "trial": 2, "time_elapsed": 591905, "serialpos": 19, "key_press": -1, "wordID": 725, "type": "PRES_VIS", "trial_index": 108}, "uniqueid": "MTK2225:3MHW492WW1KHCJTZ10ARFLH84LLMVR", "dateTime": 1516897339603}, {"current_trial": 109, "trialdata": {"rt": -1, "trial_type": "single-stim", "word": "yacht", "stimulus": "<p id=\"stim\">YACHT</p>", "conditions": [24, 800, "v", 24000], "internal_node_id": "0.0-82.0", "trial": 2, "time_elapsed": 593759, "serialpos": 20, "key_press": -1, "wordID": 1628, "type": "PRES_VIS", "trial_index": 109}, "uniqueid": "MTK2225:3MHW492WW1KHCJTZ10ARFLH84LLMVR", "dateTime": 1516897341458}, {"current_trial": 110, "trialdata": {"rt": -1, "trial_type": "single-stim", "word": "outdoors", "stimulus": "<p id=\"stim\">OUTDOORS</p>", "conditions": [24, 800, "v", 24000], "internal_node_id": "0.0-83.0", "trial": 2, "time_elapsed": 595557, "serialpos": 21, "key_press": -1, "wordID": 986, "type": "PRES_VIS", "trial_index": 110}, "uniqueid": "MTK2225:3MHW492WW1KHCJTZ10ARFLH84LLMVR", "dateTime": 1516897343255}, {"current_trial": 111, "trialdata": {"rt": -1, "trial_type": "single-stim", "word": "garden", "stimulus": "<p id=\"stim\">GARDEN</p>", "conditions": [24, 800, "v", 24000], "internal_node_id": "0.0-84.0", "trial": 2, "time_elapsed": 597250, "serialpos": 22, "key_press": -1, "wordID": 622, "type": "PRES_VIS", "trial_index": 111}, "uniqueid": "MTK2225:3MHW492WW1KHCJTZ10ARFLH84LLMVR", "dateTime": 1516897344949}, {"current_trial": 112, "trialdata": {"rt": -1, "trial_type": "single-stim", "word": "cookbook", "stimulus": "<p id=\"stim\">COOKBOOK</p>", "conditions": [24, 800, "v", 24000], "internal_node_id": "0.0-85.0", "trial": 2, "time_elapsed": 598920, "serialpos": 23, "key_press": -1, "wordID": 372, "type": "PRES_VIS", "trial_index": 112}, "uniqueid": "MTK2225:3MHW492WW1KHCJTZ10ARFLH84LLMVR", "dateTime": 1516897346619}, {"current_trial": 113, "trialdata": {"rt": -1, "trial_type": "single-stim", "stimulus": "", "internal_node_id": "0.0-86.0-0.0", "time_elapsed": 601432, "key_press": -1, "type": "PRE_RECALL_DELAY", "trial_index": 113}, "uniqueid": "MTK2225:3MHW492WW1KHCJTZ10ARFLH84LLMVR", "dateTime": 1516897349130}, {"current_trial": 114, "trialdata": {"rt": -1000, "trial_type": "single-audio", "stimulus": "/static/audio/400Hz.wav", "internal_node_id": "0.0-87.0", "time_elapsed": 601934, "key_press": -1, "type": "PRE_RECALL_ALERT", "trial_index": 114}, "uniqueid": "MTK2225:3MHW492WW1KHCJTZ10ARFLH84LLMVR", "dateTime": 1516897349632}, {"current_trial": 115, "trialdata": {"rt": [3335, 5199, 9087, 10800, 16055, 19760, 22511, 26399, 28288, 47591, 50327], "recwords": ["cookbook", "pizza", "doughnut", "garlic", "scallop", "garden", "outdoors", "bank", "banker", "beaver", "rabbit"], "key_times": [840, 1127, 1263, 1472, 1904, 2096, 2240, 2424, 3335, 3743, 3984, 4392, 4552, 4744, 5199, 7024, 7191, 7272, 7464, 7552, 7912, 8096, 8232, 9087, 9568, 9704, 9808, 10008, 10200, 10384, 10800, 14352, 14472, 14624, 14888, 15023, 15231, 15328, 16055, 18143, 18248, 18632, 18880, 18960, 19216, 19760, 20184, 20448, 20616, 21096, 21303, 21440, 21560, 21792, 22511, 25416, 25576, 25768, 25824, 26399, 26856, 26984, 27164, 27200, 27448, 27512, 28288, 45040, 45231, 45439, 45791, 46327, 46776, 46879, 46959, 47591, 48624, 48727, 49039, 49167, 49304, 49431, 50327], "trial_type": "free-recall", "conditions": [24, 800, "v", 24000], "internal_node_id": "0.0-88.0-0.0", "key_presses": [67, 79, 79, 75, 66, 79, 79, 75, 13, 80, 73, 90, 90, 65, 13, 68, 79, 85, 71, 72, 78, 85, 84, 13, 71, 65, 82, 76, 73, 67, 13, 83, 67, 65, 76, 76, 79, 80, 13, 71, 65, 82, 68, 69, 78, 13, 79, 85, 84, 68, 79, 79, 82, 83, 13, 66, 65, 78, 75, 13, 66, 65, 78, 75, 69, 82, 13, 66, 69, 65, 69, 8, 86, 69, 82, 13, 82, 65, 66, 66, 73, 84, 13], "trial": 2, "time_elapsed": 661938, "type": "FREE_RECALL", "trial_index": 115}, "uniqueid": "MTK2225:3MHW492WW1KHCJTZ10ARFLH84LLMVR", "dateTime": 1516897409640}, {"current_trial": 116, "trialdata": {"rt": 3329, "trial_type": "text", "internal_node_id": "0.0-89.0", "time_elapsed": 667272, "key_press": 32, "type": "INSTRUCTIONS", "trial_index": 116}, "uniqueid": "MTK2225:3MHW492WW1KHCJTZ10ARFLH84LLMVR", "dateTime": 1516897414970}, {"current_trial": 117, "trialdata": {"rt": [3302, 5686, 9495, 12593, 14975, 17527, 22184], "trial_type": "math-distractor", "key_times": [2390, 2614, 3302, 5174, 5326, 5686, 7766, 7967, 9495, 12102, 12302, 12593, 14615, 14751, 14975, 17008, 17199, 17527, 18999, 19207, 22184], "responses": ["16", "11", "17", "24", "14", "10", "10"], "num2": [5, 3, 3, 9, 4, 2, 5, 1], "num3": [3, 3, 6, 8, 5, 3, 4, 7], "conditions": [12, 800, "v", 24000], "internal_node_id": "0.0-90.0", "key_presses": [97, 102, 13, 97, 97, 13, 97, 103, 13, 98, 100, 13, 97, 100, 13, 97, 96, 13, 97, 96, 13], "trial": 3, "time_elapsed": 693276, "type": "DISTRACTOR", "trial_index": 117, "num1": [8, 5, 8, 7, 5, 5, 1, 3]}, "uniqueid": "MTK2225:3MHW492WW1KHCJTZ10ARFLH84LLMVR", "dateTime": 1516897440974}, {"current_trial": 118, "trialdata": {"rt": -1, "trial_type": "single-stim", "stimulus": "<p id=\"stim\">10</p>", "internal_node_id": "0.0-91.0-0.0", "time_elapsed": 696279, "key_press": -1, "trial_index": 118}, "uniqueid": "MTK2225:3MHW492WW1KHCJTZ10ARFLH84LLMVR", "dateTime": 1516897443977}, {"current_trial": 119, "trialdata": {"rt": -1, "trial_type": "single-stim", "stimulus": "<p id=\"stim\">9</p>", "internal_node_id": "0.0-91.0-1.0", "time_elapsed": 697280, "key_press": -1, "trial_index": 119}, "uniqueid": "MTK2225:3MHW492WW1KHCJTZ10ARFLH84LLMVR", "dateTime": 1516897444979}, {"current_trial": 120, "trialdata": {"rt": -1, "trial_type": "single-stim", "stimulus": "<p id=\"stim\">8</p>", "internal_node_id": "0.0-91.0-2.0", "time_elapsed": 698281, "key_press": -1, "trial_index": 120}, "uniqueid": "MTK2225:3MHW492WW1KHCJTZ10ARFLH84LLMVR", "dateTime": 1516897445980}, {"current_trial": 121, "trialdata": {"rt": -1, "trial_type": "single-stim", "stimulus": "<p id=\"stim\">7</p>", "internal_node_id": "0.0-91.0-3.0", "time_elapsed": 699283, "key_press": -1, "trial_index": 121}, "uniqueid": "MTK2225:3MHW492WW1KHCJTZ10ARFLH84LLMVR", "dateTime": 1516897446982}, {"current_trial": 122, "trialdata": {"rt": -1, "trial_type": "single-stim", "stimulus": "<p id=\"stim\">6</p>", "internal_node_id": "0.0-91.0-4.0", "time_elapsed": 700285, "key_press": -1, "trial_index": 122}, "uniqueid": "MTK2225:3MHW492WW1KHCJTZ10ARFLH84LLMVR", "dateTime": 1516897447984}, {"current_trial": 123, "trialdata": {"rt": -1, "trial_type": "single-stim", "stimulus": "<p id=\"stim\">5</p>", "internal_node_id": "0.0-91.0-5.0", "time_elapsed": 701287, "key_press": -1, "trial_index": 123}, "uniqueid": "MTK2225:3MHW492WW1KHCJTZ10ARFLH84LLMVR", "dateTime": 1516897448986}, {"current_trial": 124, "trialdata": {"rt": -1, "trial_type": "single-stim", "stimulus": "<p id=\"stim\">4</p>", "internal_node_id": "0.0-91.0-6.0", "time_elapsed": 702289, "key_press": -1, "trial_index": 124}, "uniqueid": "MTK2225:3MHW492WW1KHCJTZ10ARFLH84LLMVR", "dateTime": 1516897449988}, {"current_trial": 125, "trialdata": {"rt": -1, "trial_type": "single-stim", "stimulus": "<p id=\"stim\">3</p>", "internal_node_id": "0.0-91.0-7.0", "time_elapsed": 703291, "key_press": -1, "trial_index": 125}, "uniqueid": "MTK2225:3MHW492WW1KHCJTZ10ARFLH84LLMVR", "dateTime": 1516897450989}, {"current_trial": 126, "trialdata": {"rt": -1, "trial_type": "single-stim", "stimulus": "<p id=\"stim\">2</p>", "internal_node_id": "0.0-91.0-8.0", "time_elapsed": 704293, "key_press": -1, "trial_index": 126}, "uniqueid": "MTK2225:3MHW492WW1KHCJTZ10ARFLH84LLMVR", "dateTime": 1516897451991}, {"current_trial": 127, "trialdata": {"rt": -1, "trial_type": "single-stim", "stimulus": "<p id=\"stim\">1</p>", "internal_node_id": "0.0-91.0-9.0", "time_elapsed": 705294, "key_press": -1, "trial_index": 127}, "uniqueid": "MTK2225:3MHW492WW1KHCJTZ10ARFLH84LLMVR", "dateTime": 1516897452992}, {"current_trial": 128, "trialdata": {"rt": -1, "trial_type": "single-stim", "stimulus": "<p id=\"stim\">+</p>", "internal_node_id": "0.0-92.0-0.0", "time_elapsed": 706795, "key_press": -1, "type": "FIXATION", "trial_index": 128}, "uniqueid": "MTK2225:3MHW492WW1KHCJTZ10ARFLH84LLMVR", "dateTime": 1516897454493}, {"current_trial": 129, "trialdata": {"rt": -1, "trial_type": "single-stim", "word": "cross", "stimulus": "<p id=\"stim\">CROSS</p>", "conditions": [12, 800, "v", 24000], "internal_node_id": "0.0-93.0", "trial": 3, "time_elapsed": 707597, "serialpos": 0, "key_press": -1, "wordID": 412, "type": "PRES_VIS", "trial_index": 129}, "uniqueid": "MTK2225:3MHW492WW1KHCJTZ10ARFLH84LLMVR", "dateTime": 1516897455296}, {"current_trial": 130, "trialdata": {"rt": -1, "trial_type": "single-stim", "word": "guitar", "stimulus": "<p id=\"stim\">GUITAR</p>", "conditions": [12, 800, "v", 24000], "internal_node_id": "0.0-94.0", "trial": 3, "time_elapsed": 709550, "serialpos": 1, "key_press": -1, "wordID": 669, "type": "PRES_VIS", "trial_index": 130}, "uniqueid": "MTK2225:3MHW492WW1KHCJTZ10ARFLH84LLMVR", "dateTime": 1516897457249}, {"current_trial": 131, "trialdata": {"rt": -1, "trial_type": "single-stim", "word": "flask", "stimulus": "<p id=\"stim\">FLASK</p>", "conditions": [12, 800, "v", 24000], "internal_node_id": "0.0-95.0", "trial": 3, "time_elapsed": 711303, "serialpos": 2, "key_press": -1, "wordID": 575, "type": "PRES_VIS", "trial_index": 131}, "uniqueid": "MTK2225:3MHW492WW1KHCJTZ10ARFLH84LLMVR", "dateTime": 1516897459001}, {"current_trial": 132, "trialdata": {"rt": -1, "trial_type": "single-stim", "word": "brandy", "stimulus": "<p id=\"stim\">BRANDY</p>", "conditions": [12, 800, "v", 24000], "internal_node_id": "0.0-96.0", "trial": 3, "time_elapsed": 712917, "serialpos": 3, "key_press": -1, "wordID": 168, "type": "PRES_VIS", "trial_index": 132}, "uniqueid": "MTK2225:3MHW492WW1KHCJTZ10ARFLH84LLMVR", "dateTime": 1516897460616}, {"current_trial": 133, "trialdata": {"rt": -1, "trial_type": "single-stim", "word": "cupboard", "stimulus": "<p id=\"stim\">CUPBOARD</p>", "conditions": [12, 800, "v", 24000], "internal_node_id": "0.0-97.0", "trial": 3, "time_elapsed": 714694, "serialpos": 4, "key_press": -1, "wordID": 424, "type": "PRES_VIS", "trial_index": 133}, "uniqueid": "MTK2225:3MHW492WW1KHCJTZ10ARFLH84LLMVR", "dateTime": 1516897462392}, {"current_trial": 134, "trialdata": {"rt": -1, "trial_type": "single-stim", "word": "liver", "stimulus": "<p id=\"stim\">LIVER</p>", "conditions": [12, 800, "v", 24000], "internal_node_id": "0.0-98.0", "trial": 3, "time_elapsed": 716396, "serialpos": 5, "key_press": -1, "wordID": 832, "type": "PRES_VIS", "trial_index": 134}, "uniqueid": "MTK2225:3MHW492WW1KHCJTZ10ARFLH84LLMVR", "dateTime": 1516897464095}, {"current_trial": 135, "trialdata": {"rt": -1, "trial_type": "single-stim", "word": "typist", "stimulus": "<p id=\"stim\">TYPIST</p>", "conditions": [12, 800, "v", 24000], "internal_node_id": "0.0-99.0", "trial": 3, "time_elapsed": 718184, "serialpos": 6, "key_press": -1, "wordID": 1531, "type": "PRES_VIS", "trial_index": 135}, "uniqueid": "MTK2225:3MHW492WW1KHCJTZ10ARFLH84LLMVR", "dateTime": 1516897465883}, {"current_trial": 136, "trialdata": {"rt": -1, "trial_type": "single-stim", "word": "jury", "stimulus": "<p id=\"stim\">JURY</p>", "conditions": [12, 800, "v", 24000], "internal_node_id": "0.0-100.0", "trial": 3, "time_elapsed": 720152, "serialpos": 7, "key_press": -1, "wordID": 765, "type": "PRES_VIS", "trial_index": 136}, "uniqueid": "MTK2225:3MHW492WW1KHCJTZ10ARFLH84LLMVR", "dateTime": 1516897467851}, {"current_trial": 137, "trialdata": {"rt": -1, "trial_type": "single-stim", "word": "pork", "stimulus": "<p id=\"stim\">PORK</p>", "conditions": [12, 800, "v", 24000], "internal_node_id": "0.0-101.0", "trial": 3, "time_elapsed": 721904, "serialpos": 8, "key_press": -1, "wordID": 1107, "type": "PRES_VIS", "trial_index": 137}, "uniqueid": "MTK2225:3MHW492WW1KHCJTZ10ARFLH84LLMVR", "dateTime": 1516897469603}, {"current_trial": 138, "trialdata": {"rt": -1, "trial_type": "single-stim", "word": "turkey", "stimulus": "<p id=\"stim\">TURKEY</p>", "conditions": [12, 800, "v", 24000], "internal_node_id": "0.0-102.0", "trial": 3, "time_elapsed": 723706, "serialpos": 9, "key_press": -1, "wordID": 1519, "type": "PRES_VIS", "trial_index": 138}, "uniqueid": "MTK2225:3MHW492WW1KHCJTZ10ARFLH84LLMVR", "dateTime": 1516897471404}, {"current_trial": 139, "trialdata": {"rt": -1, "trial_type": "single-stim", "word": "cod", "stimulus": "<p id=\"stim\">COD</p>", "conditions": [12, 800, "v", 24000], "internal_node_id": "0.0-103.0", "trial": 3, "time_elapsed": 725679, "serialpos": 10, "key_press": -1, "wordID": 339, "type": "PRES_VIS", "trial_index": 139}, "uniqueid": "MTK2225:3MHW492WW1KHCJTZ10ARFLH84LLMVR", "dateTime": 1516897473378}, {"current_trial": 140, "trialdata": {"rt": -1, "trial_type": "single-stim", "word": "harp", "stimulus": "<p id=\"stim\">HARP</p>", "conditions": [12, 800, "v", 24000], "internal_node_id": "0.0-104.0", "trial": 3, "time_elapsed": 727459, "serialpos": 11, "key_press": -1, "wordID": 688, "type": "PRES_VIS", "trial_index": 140}, "uniqueid": "MTK2225:3MHW492WW1KHCJTZ10ARFLH84LLMVR", "dateTime": 1516897475157}, {"current_trial": 141, "trialdata": {"rt": -1, "trial_type": "single-stim", "stimulus": "", "internal_node_id": "0.0-105.0-0.0", "time_elapsed": 729776, "key_press": -1, "type": "PRE_RECALL_DELAY", "trial_index": 141}, "uniqueid": "MTK2225:3MHW492WW1KHCJTZ10ARFLH84LLMVR", "dateTime": 1516897477475}, {"current_trial": 142, "trialdata": {"rt": -1000, "trial_type": "single-audio", "stimulus": "/static/audio/400Hz.wav", "internal_node_id": "0.0-106.0", "time_elapsed": 730278, "key_press": -1, "type": "PRE_RECALL_ALERT", "trial_index": 142}, "uniqueid": "MTK2225:3MHW492WW1KHCJTZ10ARFLH84LLMVR", "dateTime": 1516897477976}, {"current_trial": 143, "trialdata": {"rt": [2632, 4832, 7200, 8928, 14735, 17375], "recwords": ["harp", "pork", "turkey", "cod", "jury", "typist"], "key_times": [953, 1072, 1352, 1640, 2632, 3288, 3560, 3904, 4360, 4832, 5272, 5520, 5696, 5856, 6016, 6344, 7200, 7888, 8168, 8400, 8928, 13288, 13479, 13695, 13895, 14735, 15311, 15479, 15719, 15935, 16039, 16423, 17375], "trial_type": "free-recall", "conditions": [12, 800, "v", 24000], "internal_node_id": "0.0-107.0-0.0", "key_presses": [72, 65, 82, 80, 13, 80, 79, 82, 75, 13, 84, 85, 82, 75, 69, 89, 13, 67, 79, 68, 13, 74, 85, 82, 89, 13, 84, 89, 80, 73, 83, 84, 13], "trial": 3, "time_elapsed": 790281, "type": "FREE_RECALL", "trial_index": 143}, "uniqueid": "MTK2225:3MHW492WW1KHCJTZ10ARFLH84LLMVR", "dateTime": 1516897537983}, {"current_trial": 144, "trialdata": {"rt": 2042, "trial_type": "text", "internal_node_id": "0.0-108.0", "time_elapsed": 794328, "key_press": 32, "type": "INSTRUCTIONS", "trial_index": 144}, "uniqueid": "MTK2225:3MHW492WW1KHCJTZ10ARFLH84LLMVR", "dateTime": 1516897542026}, {"current_trial": 145, "trialdata": {"rt": [2828, 5331, 7821, 10580], "trial_type": "math-distractor", "key_times": [1900, 2500, 2828, 4756, 4972, 5331, 7245, 7421, 7821, 10053, 10221, 10580], "responses": ["18", "18", "14", "14"], "num2": [2, 8, 7, 3, 7], "num3": [8, 5, 2, 7, 7], "conditions": [12, 1600, "v", 12000], "internal_node_id": "0.0-109.0", "key_presses": [97, 104, 13, 97, 104, 13, 97, 100, 13, 97, 100, 13], "trial": 4, "time_elapsed": 808333, "type": "DISTRACTOR", "trial_index": 145, "num1": [8, 5, 5, 4, 6]}, "uniqueid": "MTK2225:3MHW492WW1KHCJTZ10ARFLH84LLMVR", "dateTime": 1516897556031}, {"current_trial": 146, "trialdata": {"rt": -1, "trial_type": "single-stim", "stimulus": "<p id=\"stim\">10</p>", "internal_node_id": "0.0-110.0-0.0", "time_elapsed": 811335, "key_press": -1, "trial_index": 146}, "uniqueid": "MTK2225:3MHW492WW1KHCJTZ10ARFLH84LLMVR", "dateTime": 1516897559034}, {"current_trial": 147, "trialdata": {"rt": -1, "trial_type": "single-stim", "stimulus": "<p id=\"stim\">9</p>", "internal_node_id": "0.0-110.0-1.0", "time_elapsed": 812337, "key_press": -1, "trial_index": 147}, "uniqueid": "MTK2225:3MHW492WW1KHCJTZ10ARFLH84LLMVR", "dateTime": 1516897560035}, {"current_trial": 148, "trialdata": {"rt": -1, "trial_type": "single-stim", "stimulus": "<p id=\"stim\">8</p>", "internal_node_id": "0.0-110.0-2.0", "time_elapsed": 813338, "key_press": -1, "trial_index": 148}, "uniqueid": "MTK2225:3MHW492WW1KHCJTZ10ARFLH84LLMVR", "dateTime": 1516897561036}, {"current_trial": 149, "trialdata": {"rt": -1, "trial_type": "single-stim", "stimulus": "<p id=\"stim\">7</p>", "internal_node_id": "0.0-110.0-3.0", "time_elapsed": 814340, "key_press": -1, "trial_index": 149}, "uniqueid": "MTK2225:3MHW492WW1KHCJTZ10ARFLH84LLMVR", "dateTime": 1516897562039}, {"current_trial": 150, "trialdata": {"rt": -1, "trial_type": "single-stim", "stimulus": "<p id=\"stim\">6</p>", "internal_node_id": "0.0-110.0-4.0", "time_elapsed": 815341, "key_press": -1, "trial_index": 150}, "uniqueid": "MTK2225:3MHW492WW1KHCJTZ10ARFLH84LLMVR", "dateTime": 1516897563040}, {"current_trial": 151, "trialdata": {"rt": -1, "trial_type": "single-stim", "stimulus": "<p id=\"stim\">5</p>", "internal_node_id": "0.0-110.0-5.0", "time_elapsed": 816343, "key_press": -1, "trial_index": 151}, "uniqueid": "MTK2225:3MHW492WW1KHCJTZ10ARFLH84LLMVR", "dateTime": 1516897564041}, {"current_trial": 152, "trialdata": {"rt": -1, "trial_type": "single-stim", "stimulus": "<p id=\"stim\">4</p>", "internal_node_id": "0.0-110.0-6.0", "time_elapsed": 817343, "key_press": -1, "trial_index": 152}, "uniqueid": "MTK2225:3MHW492WW1KHCJTZ10ARFLH84LLMVR", "dateTime": 1516897565041}, {"current_trial": 153, "trialdata": {"rt": -1, "trial_type": "single-stim", "stimulus": "<p id=\"stim\">3</p>", "internal_node_id": "0.0-110.0-7.0", "time_elapsed": 818345, "key_press": -1, "trial_index": 153}, "uniqueid": "MTK2225:3MHW492WW1KHCJTZ10ARFLH84LLMVR", "dateTime": 1516897566044}, {"current_trial": 154, "trialdata": {"rt": -1, "trial_type": "single-stim", "stimulus": "<p id=\"stim\">2</p>", "internal_node_id": "0.0-110.0-8.0", "time_elapsed": 819346, "key_press": -1, "trial_index": 154}, "uniqueid": "MTK2225:3MHW492WW1KHCJTZ10ARFLH84LLMVR", "dateTime": 1516897567045}, {"current_trial": 155, "trialdata": {"rt": -1, "trial_type": "single-stim", "stimulus": "<p id=\"stim\">1</p>", "internal_node_id": "0.0-110.0-9.0", "time_elapsed": 820347, "key_press": -1, "trial_index": 155}, "uniqueid": "MTK2225:3MHW492WW1KHCJTZ10ARFLH84LLMVR", "dateTime": 1516897568046}, {"current_trial": 156, "trialdata": {"rt": -1, "trial_type": "single-stim", "stimulus": "<p id=\"stim\">+</p>", "internal_node_id": "0.0-111.0-0.0", "time_elapsed": 821848, "key_press": -1, "type": "FIXATION", "trial_index": 156}, "uniqueid": "MTK2225:3MHW492WW1KHCJTZ10ARFLH84LLMVR", "dateTime": 1516897569546}, {"current_trial": 157, "trialdata": {"rt": -1, "trial_type": "single-stim", "word": "hawk", "stimulus": "<p id=\"stim\">HAWK</p>", "conditions": [12, 1600, "v", 12000], "internal_node_id": "0.0-112.0", "trial": 4, "time_elapsed": 823450, "serialpos": 0, "key_press": -1, "wordID": 691, "type": "PRES_VIS", "trial_index": 157}, "uniqueid": "MTK2225:3MHW492WW1KHCJTZ10ARFLH84LLMVR", "dateTime": 1516897571148}, {"current_trial": 158, "trialdata": {"rt": -1, "trial_type": "single-stim", "word": "xerox", "stimulus": "<p id=\"stim\">XEROX</p>", "conditions": [12, 1600, "v", 12000], "internal_node_id": "0.0-113.0", "trial": 4, "time_elapsed": 826170, "serialpos": 1, "key_press": -1, "wordID": 1627, "type": "PRES_VIS", "trial_index": 158}, "uniqueid": "MTK2225:3MHW492WW1KHCJTZ10ARFLH84LLMVR", "dateTime": 1516897573869}, {"current_trial": 159, "trialdata": {"rt": -1, "trial_type": "single-stim", "word": "palace", "stimulus": "<p id=\"stim\">PALACE</p>", "conditions": [12, 1600, "v", 12000], "internal_node_id": "0.0-114.0", "trial": 4, "time_elapsed": 828613, "serialpos": 2, "key_press": -1, "wordID": 1005, "type": "PRES_VIS", "trial_index": 159}, "uniqueid": "MTK2225:3MHW492WW1KHCJTZ10ARFLH84LLMVR", "dateTime": 1516897576311}, {"current_trial": 160, "trialdata": {"rt": -1, "trial_type": "single-stim", "word": "label", "stimulus": "<p id=\"stim\">LABEL</p>", "conditions": [12, 1600, "v", 12000], "internal_node_id": "0.0-115.0", "trial": 4, "time_elapsed": 831024, "serialpos": 3, "key_press": -1, "wordID": 789, "type": "PRES_VIS", "trial_index": 160}, "uniqueid": "MTK2225:3MHW492WW1KHCJTZ10ARFLH84LLMVR", "dateTime": 1516897578722}, {"current_trial": 161, "trialdata": {"rt": -1, "trial_type": "single-stim", "word": "sheriff", "stimulus": "<p id=\"stim\">SHERIFF</p>", "conditions": [12, 1600, "v", 12000], "internal_node_id": "0.0-116.0", "trial": 4, "time_elapsed": 833491, "serialpos": 4, "key_press": -1, "wordID": 1283, "type": "PRES_VIS", "trial_index": 161}, "uniqueid": "MTK2225:3MHW492WW1KHCJTZ10ARFLH84LLMVR", "dateTime": 1516897581190}, {"current_trial": 162, "trialdata": {"rt": -1, "trial_type": "single-stim", "word": "drug", "stimulus": "<p id=\"stim\">DRUG</p>", "conditions": [12, 1600, "v", 12000], "internal_node_id": "0.0-117.0", "trial": 4, "time_elapsed": 836167, "serialpos": 5, "key_press": -1, "wordID": 500, "type": "PRES_VIS", "trial_index": 162}, "uniqueid": "MTK2225:3MHW492WW1KHCJTZ10ARFLH84LLMVR", "dateTime": 1516897583865}, {"current_trial": 163, "trialdata": {"rt": -1, "trial_type": "single-stim", "word": "mailman", "stimulus": "<p id=\"stim\">MAILMAN</p>", "conditions": [12, 1600, "v", 12000], "internal_node_id": "0.0-118.0", "trial": 4, "time_elapsed": 838660, "serialpos": 6, "key_press": -1, "wordID": 857, "type": "PRES_VIS", "trial_index": 163}, "uniqueid": "MTK2225:3MHW492WW1KHCJTZ10ARFLH84LLMVR", "dateTime": 1516897586359}, {"current_trial": 164, "trialdata": {"rt": -1, "trial_type": "single-stim", "word": "wife", "stimulus": "<p id=\"stim\">WIFE</p>", "conditions": [12, 1600, "v", 12000], "internal_node_id": "0.0-119.0", "trial": 4, "time_elapsed": 841411, "serialpos": 7, "key_press": -1, "wordID": 1608, "type": "PRES_VIS", "trial_index": 164}, "uniqueid": "MTK2225:3MHW492WW1KHCJTZ10ARFLH84LLMVR", "dateTime": 1516897589109}, {"current_trial": 165, "trialdata": {"rt": -1, "trial_type": "single-stim", "word": "brother", "stimulus": "<p id=\"stim\">BROTHER</p>", "conditions": [12, 1600, "v", 12000], "internal_node_id": "0.0-120.0", "trial": 4, "time_elapsed": 843940, "serialpos": 8, "key_press": -1, "wordID": 178, "type": "PRES_VIS", "trial_index": 165}, "uniqueid": "MTK2225:3MHW492WW1KHCJTZ10ARFLH84LLMVR", "dateTime": 1516897591639}, {"current_trial": 166, "trialdata": {"rt": -1, "trial_type": "single-stim", "word": "mailbox", "stimulus": "<p id=\"stim\">MAILBOX</p>", "conditions": [12, 1600, "v", 12000], "internal_node_id": "0.0-121.0", "trial": 4, "time_elapsed": 846684, "serialpos": 9, "key_press": -1, "wordID": 856, "type": "PRES_VIS", "trial_index": 166}, "uniqueid": "MTK2225:3MHW492WW1KHCJTZ10ARFLH84LLMVR", "dateTime": 1516897594383}, {"current_trial": 167, "trialdata": {"rt": -1, "trial_type": "single-stim", "word": "cowboy", "stimulus": "<p id=\"stim\">COWBOY</p>", "conditions": [12, 1600, "v", 12000], "internal_node_id": "0.0-122.0", "trial": 4, "time_elapsed": 849184, "serialpos": 10, "key_press": -1, "wordID": 394, "type": "PRES_VIS", "trial_index": 167}, "uniqueid": "MTK2225:3MHW492WW1KHCJTZ10ARFLH84LLMVR", "dateTime": 1516897596882}, {"current_trial": 168, "trialdata": {"rt": -1, "trial_type": "single-stim", "word": "apple", "stimulus": "<p id=\"stim\">APPLE</p>", "conditions": [12, 1600, "v", 12000], "internal_node_id": "0.0-123.0", "trial": 4, "time_elapsed": 851662, "serialpos": 11, "key_press": -1, "wordID": 32, "type": "PRES_VIS", "trial_index": 168}, "uniqueid": "MTK2225:3MHW492WW1KHCJTZ10ARFLH84LLMVR", "dateTime": 1516897599361}, {"current_trial": 169, "trialdata": {"rt": -1, "trial_type": "single-stim", "stimulus": "", "internal_node_id": "0.0-124.0-0.0", "time_elapsed": 853918, "key_press": -1, "type": "PRE_RECALL_DELAY", "trial_index": 169}, "uniqueid": "MTK2225:3MHW492WW1KHCJTZ10ARFLH84LLMVR", "dateTime": 1516897601616}, {"current_trial": 170, "trialdata": {"rt": -1000, "trial_type": "single-audio", "stimulus": "/static/audio/400Hz.wav", "internal_node_id": "0.0-125.0", "time_elapsed": 854420, "key_press": -1, "type": "PRE_RECALL_ALERT", "trial_index": 170}, "uniqueid": "MTK2225:3MHW492WW1KHCJTZ10ARFLH84LLMVR", "dateTime": 1516897602118}, {"current_trial": 171, "trialdata": {"rt": [3793, 6466, 8825, 11009, 14801, 17034, 19962, 27249, 39674, 45785], "recwords": ["cowboy", "mailbox", "apple", "label", "brother", "wife", "sheriff", "hawk", "mailbox", "mailman"], "key_times": [1330, 1570, 1834, 2410, 2546, 2674, 3793, 4402, 4529, 4673, 4865, 5602, 5714, 6089, 6466, 7106, 7521, 7673, 7874, 8010, 8825, 9570, 9690, 10137, 10193, 10426, 11009, 13258, 13313, 13498, 13642, 13682, 13890, 13930, 14801, 15282, 15678, 16058, 16114, 17034, 18074, 18337, 18506, 18666, 19146, 19450, 19594, 19962, 25571, 25753, 26066, 26329, 27249, 36530, 37633, 37809, 38050, 38778, 38921, 39385, 39674, 44361, 44521, 44674, 44833, 45057, 45209, 45313, 45785], "trial_type": "free-recall", "conditions": [12, 1600, "v", 12000], "internal_node_id": "0.0-126.0-0.0", "key_presses": [67, 79, 87, 66, 79, 89, 13, 77, 65, 73, 76, 66, 79, 88, 13, 65, 80, 80, 76, 69, 13, 76, 65, 66, 69, 76, 13, 66, 82, 79, 84, 72, 69, 82, 13, 87, 73, 70, 69, 13, 83, 72, 69, 82, 73, 70, 70, 13, 72, 65, 87, 75, 13, 77, 65, 73, 76, 66, 79, 88, 13, 77, 65, 73, 76, 77, 65, 78, 13], "trial": 4, "time_elapsed": 914424, "type": "FREE_RECALL", "trial_index": 171}, "uniqueid": "MTK2225:3MHW492WW1KHCJTZ10ARFLH84LLMVR", "dateTime": 1516897662127}, {"current_trial": 172, "trialdata": {"rt": 1715, "trial_type": "text", "internal_node_id": "0.0-127.0", "time_elapsed": 918144, "key_press": 32, "type": "INSTRUCTIONS", "trial_index": 172}, "uniqueid": "MTK2225:3MHW492WW1KHCJTZ10ARFLH84LLMVR", "dateTime": 1516897665843}, {"current_trial": 173, "trialdata": {"rt": [2748, 4988, 7980, 10356, 12988, 15243, 17772, 21628], "trial_type": "math-distractor", "key_times": [1660, 1893, 2748, 4460, 4676, 4988, 6700, 7980, 9917, 10084, 10356, 12500, 12676, 12988, 14797, 14972, 15243, 16893, 17324, 17772, 19644, 19883, 21628, 23540, 23708], "responses": ["13", "16", "7", "15", "23", "12", "16", "13"], "num2": [7, 6, 3, 2, 8, 9, 5, 4, 2], "num3": [3, 3, 2, 4, 7, 2, 6, 2, 5], "conditions": [12, 1600, "v", 24000], "internal_node_id": "0.0-128.0", "key_presses": [97, 99, 13, 97, 102, 13, 103, 13, 97, 101, 13, 98, 99, 13, 97, 98, 13, 97, 102, 13, 97, 99, 13, 97, 101], "trial": 5, "time_elapsed": 944148, "type": "DISTRACTOR", "trial_index": 173, "num1": [3, 7, 2, 9, 8, 1, 5, 7, 8]}, "uniqueid": "MTK2225:3MHW492WW1KHCJTZ10ARFLH84LLMVR", "dateTime": 1516897691846}, {"current_trial": 174, "trialdata": {"rt": -1, "trial_type": "single-stim", "stimulus": "<p id=\"stim\">10</p>", "internal_node_id": "0.0-129.0-0.0", "time_elapsed": 947148, "key_press": -1, "trial_index": 174}, "uniqueid": "MTK2225:3MHW492WW1KHCJTZ10ARFLH84LLMVR", "dateTime": 1516897694847}, {"current_trial": 175, "trialdata": {"rt": -1, "trial_type": "single-stim", "stimulus": "<p id=\"stim\">9</p>", "internal_node_id": "0.0-129.0-1.0", "time_elapsed": 948149, "key_press": -1, "trial_index": 175}, "uniqueid": "MTK2225:3MHW492WW1KHCJTZ10ARFLH84LLMVR", "dateTime": 1516897695848}, {"current_trial": 176, "trialdata": {"rt": -1, "trial_type": "single-stim", "stimulus": "<p id=\"stim\">8</p>", "internal_node_id": "0.0-129.0-2.0", "time_elapsed": 949150, "key_press": -1, "trial_index": 176}, "uniqueid": "MTK2225:3MHW492WW1KHCJTZ10ARFLH84LLMVR", "dateTime": 1516897696849}, {"current_trial": 177, "trialdata": {"rt": -1, "trial_type": "single-stim", "stimulus": "<p id=\"stim\">7</p>", "internal_node_id": "0.0-129.0-3.0", "time_elapsed": 950152, "key_press": -1, "trial_index": 177}, "uniqueid": "MTK2225:3MHW492WW1KHCJTZ10ARFLH84LLMVR", "dateTime": 1516897697850}, {"current_trial": 178, "trialdata": {"rt": -1, "trial_type": "single-stim", "stimulus": "<p id=\"stim\">6</p>", "internal_node_id": "0.0-129.0-4.0", "time_elapsed": 951154, "key_press": -1, "trial_index": 178}, "uniqueid": "MTK2225:3MHW492WW1KHCJTZ10ARFLH84LLMVR", "dateTime": 1516897698853}, {"current_trial": 179, "trialdata": {"rt": -1, "trial_type": "single-stim", "stimulus": "<p id=\"stim\">5</p>", "internal_node_id": "0.0-129.0-5.0", "time_elapsed": 952155, "key_press": -1, "trial_index": 179}, "uniqueid": "MTK2225:3MHW492WW1KHCJTZ10ARFLH84LLMVR", "dateTime": 1516897699854}, {"current_trial": 180, "trialdata": {"rt": -1, "trial_type": "single-stim", "stimulus": "<p id=\"stim\">4</p>", "internal_node_id": "0.0-129.0-6.0", "time_elapsed": 953156, "key_press": -1, "trial_index": 180}, "uniqueid": "MTK2225:3MHW492WW1KHCJTZ10ARFLH84LLMVR", "dateTime": 1516897700854}, {"current_trial": 181, "trialdata": {"rt": -1, "trial_type": "single-stim", "stimulus": "<p id=\"stim\">3</p>", "internal_node_id": "0.0-129.0-7.0", "time_elapsed": 954158, "key_press": -1, "trial_index": 181}, "uniqueid": "MTK2225:3MHW492WW1KHCJTZ10ARFLH84LLMVR", "dateTime": 1516897701857}, {"current_trial": 182, "trialdata": {"rt": -1, "trial_type": "single-stim", "stimulus": "<p id=\"stim\">2</p>", "internal_node_id": "0.0-129.0-8.0", "time_elapsed": 955159, "key_press": -1, "trial_index": 182}, "uniqueid": "MTK2225:3MHW492WW1KHCJTZ10ARFLH84LLMVR", "dateTime": 1516897702858}, {"current_trial": 183, "trialdata": {"rt": -1, "trial_type": "single-stim", "stimulus": "<p id=\"stim\">1</p>", "internal_node_id": "0.0-129.0-9.0", "time_elapsed": 956160, "key_press": -1, "trial_index": 183}, "uniqueid": "MTK2225:3MHW492WW1KHCJTZ10ARFLH84LLMVR", "dateTime": 1516897703858}, {"current_trial": 184, "trialdata": {"rt": -1, "trial_type": "single-stim", "stimulus": "<p id=\"stim\">+</p>", "internal_node_id": "0.0-130.0-0.0", "time_elapsed": 957662, "key_press": -1, "type": "FIXATION", "trial_index": 184}, "uniqueid": "MTK2225:3MHW492WW1KHCJTZ10ARFLH84LLMVR", "dateTime": 1516897705361}, {"current_trial": 185, "trialdata": {"rt": -1, "trial_type": "single-stim", "word": "portrait", "stimulus": "<p id=\"stim\">PORTRAIT</p>", "conditions": [12, 1600, "v", 24000], "internal_node_id": "0.0-131.0", "trial": 5, "time_elapsed": 959264, "serialpos": 0, "key_press": -1, "wordID": 1110, "type": "PRES_VIS", "trial_index": 185}, "uniqueid": "MTK2225:3MHW492WW1KHCJTZ10ARFLH84LLMVR", "dateTime": 1516897706963}, {"current_trial": 186, "trialdata": {"rt": -1, "trial_type": "single-stim", "word": "girl", "stimulus": "<p id=\"stim\">GIRL</p>", "conditions": [12, 1600, "v", 24000], "internal_node_id": "0.0-132.0", "trial": 5, "time_elapsed": 961953, "serialpos": 1, "key_press": -1, "wordID": 636, "type": "PRES_VIS", "trial_index": 186}, "uniqueid": "MTK2225:3MHW492WW1KHCJTZ10ARFLH84LLMVR", "dateTime": 1516897709652}, {"current_trial": 187, "trialdata": {"rt": -1, "trial_type": "single-stim", "word": "custard", "stimulus": "<p id=\"stim\">CUSTARD</p>", "conditions": [12, 1600, "v", 24000], "internal_node_id": "0.0-133.0", "trial": 5, "time_elapsed": 964537, "serialpos": 2, "key_press": -1, "wordID": 428, "type": "PRES_VIS", "trial_index": 187}, "uniqueid": "MTK2225:3MHW492WW1KHCJTZ10ARFLH84LLMVR", "dateTime": 1516897712236}, {"current_trial": 188, "trialdata": {"rt": -1, "trial_type": "single-stim", "word": "sausage", "stimulus": "<p id=\"stim\">SAUSAGE</p>", "conditions": [12, 1600, "v", 24000], "internal_node_id": "0.0-134.0", "trial": 5, "time_elapsed": 967225, "serialpos": 3, "key_press": -1, "wordID": 1237, "type": "PRES_VIS", "trial_index": 188}, "uniqueid": "MTK2225:3MHW492WW1KHCJTZ10ARFLH84LLMVR", "dateTime": 1516897714923}, {"current_trial": 189, "trialdata": {"rt": -1, "trial_type": "single-stim", "word": "tortoise", "stimulus": "<p id=\"stim\">TORTOISE</p>", "conditions": [12, 1600, "v", 24000], "internal_node_id": "0.0-135.0", "trial": 5, "time_elapsed": 969974, "serialpos": 4, "key_press": -1, "wordID": 1485, "type": "PRES_VIS", "trial_index": 189}, "uniqueid": "MTK2225:3MHW492WW1KHCJTZ10ARFLH84LLMVR", "dateTime": 1516897717673}, {"current_trial": 190, "trialdata": {"rt": -1, "trial_type": "single-stim", "word": "stamp", "stimulus": "<p id=\"stim\">STAMP</p>", "conditions": [12, 1600, "v", 24000], "internal_node_id": "0.0-136.0", "trial": 5, "time_elapsed": 972427, "serialpos": 5, "key_press": -1, "wordID": 1369, "type": "PRES_VIS", "trial_index": 190}, "uniqueid": "MTK2225:3MHW492WW1KHCJTZ10ARFLH84LLMVR", "dateTime": 1516897720125}, {"current_trial": 191, "trialdata": {"rt": -1, "trial_type": "single-stim", "word": "motel", "stimulus": "<p id=\"stim\">MOTEL</p>", "conditions": [12, 1600, "v", 24000], "internal_node_id": "0.0-137.0", "trial": 5, "time_elapsed": 975055, "serialpos": 6, "key_press": -1, "wordID": 918, "type": "PRES_VIS", "trial_index": 191}, "uniqueid": "MTK2225:3MHW492WW1KHCJTZ10ARFLH84LLMVR", "dateTime": 1516897722753}, {"current_trial": 192, "trialdata": {"rt": -1, "trial_type": "single-stim", "word": "lodge", "stimulus": "<p id=\"stim\">LODGE</p>", "conditions": [12, 1600, "v", 24000], "internal_node_id": "0.0-138.0", "trial": 5, "time_elapsed": 977468, "serialpos": 7, "key_press": -1, "wordID": 838, "type": "PRES_VIS", "trial_index": 192}, "uniqueid": "MTK2225:3MHW492WW1KHCJTZ10ARFLH84LLMVR", "dateTime": 1516897725166}, {"current_trial": 193, "trialdata": {"rt": -1, "trial_type": "single-stim", "word": "banquet", "stimulus": "<p id=\"stim\">BANQUET</p>", "conditions": [12, 1600, "v", 24000], "internal_node_id": "0.0-139.0", "trial": 5, "time_elapsed": 979892, "serialpos": 8, "key_press": -1, "wordID": 85, "type": "PRES_VIS", "trial_index": 193}, "uniqueid": "MTK2225:3MHW492WW1KHCJTZ10ARFLH84LLMVR", "dateTime": 1516897727591}, {"current_trial": 194, "trialdata": {"rt": -1, "trial_type": "single-stim", "word": "boyfriend", "stimulus": "<p id=\"stim\">BOYFRIEND</p>", "conditions": [12, 1600, "v", 24000], "internal_node_id": "0.0-140.0", "trial": 5, "time_elapsed": 982448, "serialpos": 9, "key_press": -1, "wordID": 161, "type": "PRES_VIS", "trial_index": 194}, "uniqueid": "MTK2225:3MHW492WW1KHCJTZ10ARFLH84LLMVR", "dateTime": 1516897730146}, {"current_trial": 195, "trialdata": {"rt": -1, "trial_type": "single-stim", "word": "panther", "stimulus": "<p id=\"stim\">PANTHER</p>", "conditions": [12, 1600, "v", 24000], "internal_node_id": "0.0-141.0", "trial": 5, "time_elapsed": 985174, "serialpos": 10, "key_press": -1, "wordID": 1008, "type": "PRES_VIS", "trial_index": 195}, "uniqueid": "MTK2225:3MHW492WW1KHCJTZ10ARFLH84LLMVR", "dateTime": 1516897732873}, {"current_trial": 196, "trialdata": {"rt": -1, "trial_type": "single-stim", "word": "shelter", "stimulus": "<p id=\"stim\">SHELTER</p>", "conditions": [12, 1600, "v", 24000], "internal_node_id": "0.0-142.0", "trial": 5, "time_elapsed": 987916, "serialpos": 11, "key_press": -1, "wordID": 1281, "type": "PRES_VIS", "trial_index": 196}, "uniqueid": "MTK2225:3MHW492WW1KHCJTZ10ARFLH84LLMVR", "dateTime": 1516897735615}, {"current_trial": 197, "trialdata": {"rt": -1, "trial_type": "single-stim", "stimulus": "", "internal_node_id": "0.0-143.0-0.0", "time_elapsed": 990153, "key_press": -1, "type": "PRE_RECALL_DELAY", "trial_index": 197}, "uniqueid": "MTK2225:3MHW492WW1KHCJTZ10ARFLH84LLMVR", "dateTime": 1516897737852}, {"current_trial": 198, "trialdata": {"rt": -1000, "trial_type": "single-audio", "stimulus": "/static/audio/400Hz.wav", "internal_node_id": "0.0-144.0", "time_elapsed": 990654, "key_press": -1, "type": "PRE_RECALL_ALERT", "trial_index": 198}, "uniqueid": "MTK2225:3MHW492WW1KHCJTZ10ARFLH84LLMVR", "dateTime": 1516897738353}, {"current_trial": 199, "trialdata": {"rt": [4925, 6789, 9085, 11925, 14053], "recwords": ["panther", "shelter", "lodge", "boyfriend", "motel"], "key_times": [934, 1077, 1365, 1541, 1813, 2485, 3133, 3261, 4165, 4925, 5149, 5397, 5597, 5781, 5965, 6117, 6173, 6789, 7741, 7925, 8317, 8533, 8613, 9085, 9805, 9957, 10133, 10541, 10581, 10701, 10821, 10942, 11045, 11925, 12405, 12885, 13125, 13189, 13469, 14053], "trial_type": "free-recall", "conditions": [12, 1600, "v", 24000], "internal_node_id": "0.0-145.0-0.0", "key_presses": [80, 65, 78, 84, 69, 8, 72, 69, 82, 13, 83, 72, 69, 76, 84, 69, 82, 13, 76, 79, 68, 71, 69, 13, 66, 79, 89, 70, 82, 73, 69, 78, 68, 13, 77, 79, 84, 69, 76, 13], "trial": 5, "time_elapsed": 1050659, "type": "FREE_RECALL", "trial_index": 199}, "uniqueid": "MTK2225:3MHW492WW1KHCJTZ10ARFLH84LLMVR", "dateTime": 1516897798364}, {"current_trial": 200, "trialdata": {"rt": 2443, "trial_type": "text", "internal_node_id": "0.0-146.0", "time_elapsed": 1055111, "key_press": 32, "type": "INSTRUCTIONS", "trial_index": 200}, "uniqueid": "MTK2225:3MHW492WW1KHCJTZ10ARFLH84LLMVR", "dateTime": 1516897802809}, {"current_trial": 201, "trialdata": {"rt": [4060, 7780, 12485, 16924, 20292, 23740], "trial_type": "math-distractor", "key_times": [1941, 2133, 4060, 7341, 7516, 7780, 11924, 12108, 12485, 16212, 16517, 16924, 19853, 20028, 20292, 22605, 22760, 23740], "responses": ["12", "15", "14", "16", "15", "11"], "num2": [4, 5, 4, 3, 4, 2, 4], "num3": [1, 1, 1, 9, 9, 3, 4], "conditions": [24, 800, "v", 24000], "internal_node_id": "0.0-147.0", "key_presses": [97, 98, 13, 97, 101, 13, 97, 100, 13, 97, 102, 13, 97, 101, 13, 97, 97, 13], "trial": 6, "time_elapsed": 1081114, "type": "DISTRACTOR", "trial_index": 201, "num1": [7, 9, 9, 4, 2, 6, 1]}, "uniqueid": "MTK2225:3MHW492WW1KHCJTZ10ARFLH84LLMVR", "dateTime": 1516897828812}, {"current_trial": 202, "trialdata": {"rt": -1, "trial_type": "single-stim", "stimulus": "<p id=\"stim\">10</p>", "internal_node_id": "0.0-148.0-0.0", "time_elapsed": 1084116, "key_press": -1, "trial_index": 202}, "uniqueid": "MTK2225:3MHW492WW1KHCJTZ10ARFLH84LLMVR", "dateTime": 1516897831814}, {"current_trial": 203, "trialdata": {"rt": -1, "trial_type": "single-stim", "stimulus": "<p id=\"stim\">9</p>", "internal_node_id": "0.0-148.0-1.0", "time_elapsed": 1085118, "key_press": -1, "trial_index": 203}, "uniqueid": "MTK2225:3MHW492WW1KHCJTZ10ARFLH84LLMVR", "dateTime": 1516897832816}, {"current_trial": 204, "trialdata": {"rt": -1, "trial_type": "single-stim", "stimulus": "<p id=\"stim\">8</p>", "internal_node_id": "0.0-148.0-2.0", "time_elapsed": 1086119, "key_press": -1, "trial_index": 204}, "uniqueid": "MTK2225:3MHW492WW1KHCJTZ10ARFLH84LLMVR", "dateTime": 1516897833818}, {"current_trial": 205, "trialdata": {"rt": -1, "trial_type": "single-stim", "stimulus": "<p id=\"stim\">7</p>", "internal_node_id": "0.0-148.0-3.0", "time_elapsed": 1087121, "key_press": -1, "trial_index": 205}, "uniqueid": "MTK2225:3MHW492WW1KHCJTZ10ARFLH84LLMVR", "dateTime": 1516897834820}, {"current_trial": 206, "trialdata": {"rt": -1, "trial_type": "single-stim", "stimulus": "<p id=\"stim\">6</p>", "internal_node_id": "0.0-148.0-4.0", "time_elapsed": 1088122, "key_press": -1, "trial_index": 206}, "uniqueid": "MTK2225:3MHW492WW1KHCJTZ10ARFLH84LLMVR", "dateTime": 1516897835820}, {"current_trial": 207, "trialdata": {"rt": -1, "trial_type": "single-stim", "stimulus": "<p id=\"stim\">5</p>", "internal_node_id": "0.0-148.0-5.0", "time_elapsed": 1089123, "key_press": -1, "trial_index": 207}, "uniqueid": "MTK2225:3MHW492WW1KHCJTZ10ARFLH84LLMVR", "dateTime": 1516897836822}, {"current_trial": 208, "trialdata": {"rt": -1, "trial_type": "single-stim", "stimulus": "<p id=\"stim\">4</p>", "internal_node_id": "0.0-148.0-6.0", "time_elapsed": 1090124, "key_press": -1, "trial_index": 208}, "uniqueid": "MTK2225:3MHW492WW1KHCJTZ10ARFLH84LLMVR", "dateTime": 1516897837822}, {"current_trial": 209, "trialdata": {"rt": -1, "trial_type": "single-stim", "stimulus": "<p id=\"stim\">3</p>", "internal_node_id": "0.0-148.0-7.0", "time_elapsed": 1091126, "key_press": -1, "trial_index": 209}, "uniqueid": "MTK2225:3MHW492WW1KHCJTZ10ARFLH84LLMVR", "dateTime": 1516897838825}, {"current_trial": 210, "trialdata": {"rt": -1, "trial_type": "single-stim", "stimulus": "<p id=\"stim\">2</p>", "internal_node_id": "0.0-148.0-8.0", "time_elapsed": 1092127, "key_press": -1, "trial_index": 210}, "uniqueid": "MTK2225:3MHW492WW1KHCJTZ10ARFLH84LLMVR", "dateTime": 1516897839826}, {"current_trial": 211, "trialdata": {"rt": -1, "trial_type": "single-stim", "stimulus": "<p id=\"stim\">1</p>", "internal_node_id": "0.0-148.0-9.0", "time_elapsed": 1093129, "key_press": -1, "trial_index": 211}, "uniqueid": "MTK2225:3MHW492WW1KHCJTZ10ARFLH84LLMVR", "dateTime": 1516897840828}, {"current_trial": 212, "trialdata": {"rt": -1, "trial_type": "single-stim", "stimulus": "<p id=\"stim\">+</p>", "internal_node_id": "0.0-149.0-0.0", "time_elapsed": 1094631, "key_press": -1, "type": "FIXATION", "trial_index": 212}, "uniqueid": "MTK2225:3MHW492WW1KHCJTZ10ARFLH84LLMVR", "dateTime": 1516897842330}, {"current_trial": 213, "trialdata": {"rt": -1, "trial_type": "single-stim", "word": "crater", "stimulus": "<p id=\"stim\">CRATER</p>", "conditions": [24, 800, "v", 24000], "internal_node_id": "0.0-150.0", "trial": 6, "time_elapsed": 1095434, "serialpos": 0, "key_press": -1, "wordID": 399, "type": "PRES_VIS", "trial_index": 213}, "uniqueid": "MTK2225:3MHW492WW1KHCJTZ10ARFLH84LLMVR", "dateTime": 1516897843132}, {"current_trial": 214, "trialdata": {"rt": -1, "trial_type": "single-stim", "word": "tunnel", "stimulus": "<p id=\"stim\">TUNNEL</p>", "conditions": [24, 800, "v", 24000], "internal_node_id": "0.0-151.0", "trial": 6, "time_elapsed": 1097110, "serialpos": 1, "key_press": -1, "wordID": 1518, "type": "PRES_VIS", "trial_index": 214}, "uniqueid": "MTK2225:3MHW492WW1KHCJTZ10ARFLH84LLMVR", "dateTime": 1516897844808}, {"current_trial": 215, "trialdata": {"rt": -1, "trial_type": "single-stim", "word": "stream", "stimulus": "<p id=\"stim\">STREAM</p>", "conditions": [24, 800, "v", 24000], "internal_node_id": "0.0-152.0", "trial": 6, "time_elapsed": 1098902, "serialpos": 2, "key_press": -1, "wordID": 1391, "type": "PRES_VIS", "trial_index": 215}, "uniqueid": "MTK2225:3MHW492WW1KHCJTZ10ARFLH84LLMVR", "dateTime": 1516897846600}, {"current_trial": 216, "trialdata": {"rt": -1, "trial_type": "single-stim", "word": "lava", "stimulus": "<p id=\"stim\">LAVA</p>", "conditions": [24, 800, "v", 24000], "internal_node_id": "0.0-153.0", "trial": 6, "time_elapsed": 1100742, "serialpos": 3, "key_press": -1, "wordID": 803, "type": "PRES_VIS", "trial_index": 216}, "uniqueid": "MTK2225:3MHW492WW1KHCJTZ10ARFLH84LLMVR", "dateTime": 1516897848440}, {"current_trial": 217, "trialdata": {"rt": -1, "trial_type": "single-stim", "word": "sketch", "stimulus": "<p id=\"stim\">SKETCH</p>", "conditions": [24, 800, "v", 24000], "internal_node_id": "0.0-154.0", "trial": 6, "time_elapsed": 1102363, "serialpos": 4, "key_press": -1, "wordID": 1314, "type": "PRES_VIS", "trial_index": 217}, "uniqueid": "MTK2225:3MHW492WW1KHCJTZ10ARFLH84LLMVR", "dateTime": 1516897850062}, {"current_trial": 218, "trialdata": {"rt": -1, "trial_type": "single-stim", "word": "sword", "stimulus": "<p id=\"stim\">SWORD</p>", "conditions": [24, 800, "v", 24000], "internal_node_id": "0.0-155.0", "trial": 6, "time_elapsed": 1104086, "serialpos": 5, "key_press": -1, "wordID": 1422, "type": "PRES_VIS", "trial_index": 218}, "uniqueid": "MTK2225:3MHW492WW1KHCJTZ10ARFLH84LLMVR", "dateTime": 1516897851784}, {"current_trial": 219, "trialdata": {"rt": -1, "trial_type": "single-stim", "word": "jelly", "stimulus": "<p id=\"stim\">JELLY</p>", "conditions": [24, 800, "v", 24000], "internal_node_id": "0.0-156.0", "trial": 6, "time_elapsed": 1105708, "serialpos": 6, "key_press": -1, "wordID": 754, "type": "PRES_VIS", "trial_index": 219}, "uniqueid": "MTK2225:3MHW492WW1KHCJTZ10ARFLH84LLMVR", "dateTime": 1516897853407}, {"current_trial": 220, "trialdata": {"rt": -1, "trial_type": "single-stim", "word": "dancer", "stimulus": "<p id=\"stim\">DANCER</p>", "conditions": [24, 800, "v", 24000], "internal_node_id": "0.0-157.0", "trial": 6, "time_elapsed": 1107539, "serialpos": 7, "key_press": -1, "wordID": 436, "type": "PRES_VIS", "trial_index": 220}, "uniqueid": "MTK2225:3MHW492WW1KHCJTZ10ARFLH84LLMVR", "dateTime": 1516897855237}, {"current_trial": 221, "trialdata": {"rt": -1, "trial_type": "single-stim", "word": "oyster", "stimulus": "<p id=\"stim\">OYSTER</p>", "conditions": [24, 800, "v", 24000], "internal_node_id": "0.0-158.0", "trial": 6, "time_elapsed": 1109242, "serialpos": 8, "key_press": -1, "wordID": 994, "type": "PRES_VIS", "trial_index": 221}, "uniqueid": "MTK2225:3MHW492WW1KHCJTZ10ARFLH84LLMVR", "dateTime": 1516897856941}, {"current_trial": 222, "trialdata": {"rt": -1, "trial_type": "single-stim", "word": "clam", "stimulus": "<p id=\"stim\">CLAM</p>", "conditions": [24, 800, "v", 24000], "internal_node_id": "0.0-159.0", "trial": 6, "time_elapsed": 1110990, "serialpos": 9, "key_press": -1, "wordID": 314, "type": "PRES_VIS", "trial_index": 222}, "uniqueid": "MTK2225:3MHW492WW1KHCJTZ10ARFLH84LLMVR", "dateTime": 1516897858688}, {"current_trial": 223, "trialdata": {"rt": -1, "trial_type": "single-stim", "word": "shoulder", "stimulus": "<p id=\"stim\">SHOULDER</p>", "conditions": [24, 800, "v", 24000], "internal_node_id": "0.0-160.0", "trial": 6, "time_elapsed": 1112691, "serialpos": 10, "key_press": -1, "wordID": 1293, "type": "PRES_VIS", "trial_index": 223}, "uniqueid": "MTK2225:3MHW492WW1KHCJTZ10ARFLH84LLMVR", "dateTime": 1516897860389}, {"current_trial": 224, "trialdata": {"rt": -1, "trial_type": "single-stim", "word": "stomach", "stimulus": "<p id=\"stim\">STOMACH</p>", "conditions": [24, 800, "v", 24000], "internal_node_id": "0.0-161.0", "trial": 6, "time_elapsed": 1114444, "serialpos": 11, "key_press": -1, "wordID": 1383, "type": "PRES_VIS", "trial_index": 224}, "uniqueid": "MTK2225:3MHW492WW1KHCJTZ10ARFLH84LLMVR", "dateTime": 1516897862142}, {"current_trial": 225, "trialdata": {"rt": -1, "trial_type": "single-stim", "word": "scarecrow", "stimulus": "<p id=\"stim\">SCARECROW</p>", "conditions": [24, 800, "v", 24000], "internal_node_id": "0.0-162.0", "trial": 6, "time_elapsed": 1116127, "serialpos": 12, "key_press": -1, "wordID": 1244, "type": "PRES_VIS", "trial_index": 225}, "uniqueid": "MTK2225:3MHW492WW1KHCJTZ10ARFLH84LLMVR", "dateTime": 1516897863826}, {"current_trial": 226, "trialdata": {"rt": -1, "trial_type": "single-stim", "word": "climber", "stimulus": "<p id=\"stim\">CLIMBER</p>", "conditions": [24, 800, "v", 24000], "internal_node_id": "0.0-163.0", "trial": 6, "time_elapsed": 1117772, "serialpos": 13, "key_press": -1, "wordID": 322, "type": "PRES_VIS", "trial_index": 226}, "uniqueid": "MTK2225:3MHW492WW1KHCJTZ10ARFLH84LLMVR", "dateTime": 1516897865471}, {"current_trial": 227, "trialdata": {"rt": -1, "trial_type": "single-stim", "word": "hiker", "stimulus": "<p id=\"stim\">HIKER</p>", "conditions": [24, 800, "v", 24000], "internal_node_id": "0.0-164.0", "trial": 6, "time_elapsed": 1119687, "serialpos": 14, "key_press": -1, "wordID": 707, "type": "PRES_VIS", "trial_index": 227}, "uniqueid": "MTK2225:3MHW492WW1KHCJTZ10ARFLH84LLMVR", "dateTime": 1516897867386}, {"current_trial": 228, "trialdata": {"rt": -1, "trial_type": "single-stim", "word": "viking", "stimulus": "<p id=\"stim\">VIKING</p>", "conditions": [24, 800, "v", 24000], "internal_node_id": "0.0-165.0", "trial": 6, "time_elapsed": 1121490, "serialpos": 15, "key_press": -1, "wordID": 1564, "type": "PRES_VIS", "trial_index": 228}, "uniqueid": "MTK2225:3MHW492WW1KHCJTZ10ARFLH84LLMVR", "dateTime": 1516897869189}, {"current_trial": 229, "trialdata": {"rt": -1, "trial_type": "single-stim", "word": "orchid", "stimulus": "<p id=\"stim\">ORCHID</p>", "conditions": [24, 800, "v", 24000], "internal_node_id": "0.0-166.0", "trial": 6, "time_elapsed": 1123206, "serialpos": 16, "key_press": -1, "wordID": 981, "type": "PRES_VIS", "trial_index": 229}, "uniqueid": "MTK2225:3MHW492WW1KHCJTZ10ARFLH84LLMVR", "dateTime": 1516897870905}, {"current_trial": 230, "trialdata": {"rt": -1, "trial_type": "single-stim", "word": "river", "stimulus": "<p id=\"stim\">RIVER</p>", "conditions": [24, 800, "v", 24000], "internal_node_id": "0.0-167.0", "trial": 6, "time_elapsed": 1124940, "serialpos": 17, "key_press": -1, "wordID": 1193, "type": "PRES_VIS", "trial_index": 230}, "uniqueid": "MTK2225:3MHW492WW1KHCJTZ10ARFLH84LLMVR", "dateTime": 1516897872638}, {"current_trial": 231, "trialdata": {"rt": -1, "trial_type": "single-stim", "word": "pliers", "stimulus": "<p id=\"stim\">PLIERS</p>", "conditions": [24, 800, "v", 24000], "internal_node_id": "0.0-168.0", "trial": 6, "time_elapsed": 1126862, "serialpos": 18, "key_press": -1, "wordID": 1088, "type": "PRES_VIS", "trial_index": 231}, "uniqueid": "MTK2225:3MHW492WW1KHCJTZ10ARFLH84LLMVR", "dateTime": 1516897874561}, {"current_trial": 232, "trialdata": {"rt": -1, "trial_type": "single-stim", "word": "ulcer", "stimulus": "<p id=\"stim\">ULCER</p>", "conditions": [24, 800, "v", 24000], "internal_node_id": "0.0-169.0", "trial": 6, "time_elapsed": 1128852, "serialpos": 19, "key_press": -1, "wordID": 1532, "type": "PRES_VIS", "trial_index": 232}, "uniqueid": "MTK2225:3MHW492WW1KHCJTZ10ARFLH84LLMVR", "dateTime": 1516897876551}, {"current_trial": 233, "trialdata": {"rt": -1, "trial_type": "single-stim", "word": "permit", "stimulus": "<p id=\"stim\">PERMIT</p>", "conditions": [24, 800, "v", 24000], "internal_node_id": "0.0-170.0", "trial": 6, "time_elapsed": 1130474, "serialpos": 20, "key_press": -1, "wordID": 1050, "type": "PRES_VIS", "trial_index": 233}, "uniqueid": "MTK2225:3MHW492WW1KHCJTZ10ARFLH84LLMVR", "dateTime": 1516897878172}, {"current_trial": 234, "trialdata": {"rt": -1, "trial_type": "single-stim", "word": "marsh", "stimulus": "<p id=\"stim\">MARSH</p>", "conditions": [24, 800, "v", 24000], "internal_node_id": "0.0-171.0", "trial": 6, "time_elapsed": 1132218, "serialpos": 21, "key_press": -1, "wordID": 873, "type": "PRES_VIS", "trial_index": 234}, "uniqueid": "MTK2225:3MHW492WW1KHCJTZ10ARFLH84LLMVR", "dateTime": 1516897879916}, {"current_trial": 235, "trialdata": {"rt": -1, "trial_type": "single-stim", "word": "bug", "stimulus": "<p id=\"stim\">BUG</p>", "conditions": [24, 800, "v", 24000], "internal_node_id": "0.0-172.0", "trial": 6, "time_elapsed": 1133839, "serialpos": 22, "key_press": -1, "wordID": 186, "type": "PRES_VIS", "trial_index": 235}, "uniqueid": "MTK2225:3MHW492WW1KHCJTZ10ARFLH84LLMVR", "dateTime": 1516897881537}, {"current_trial": 236, "trialdata": {"rt": -1, "trial_type": "single-stim", "word": "toaster", "stimulus": "<p id=\"stim\">TOASTER</p>", "conditions": [24, 800, "v", 24000], "internal_node_id": "0.0-173.0", "trial": 6, "time_elapsed": 1135558, "serialpos": 23, "key_press": -1, "wordID": 1471, "type": "PRES_VIS", "trial_index": 236}, "uniqueid": "MTK2225:3MHW492WW1KHCJTZ10ARFLH84LLMVR", "dateTime": 1516897883256}, {"current_trial": 237, "trialdata": {"rt": -1, "trial_type": "single-stim", "stimulus": "", "internal_node_id": "0.0-174.0-0.0", "time_elapsed": 1137660, "key_press": -1, "type": "PRE_RECALL_DELAY", "trial_index": 237}, "uniqueid": "MTK2225:3MHW492WW1KHCJTZ10ARFLH84LLMVR", "dateTime": 1516897885359}, {"current_trial": 238, "trialdata": {"rt": -1000, "trial_type": "single-audio", "stimulus": "/static/audio/400Hz.wav", "internal_node_id": "0.0-175.0", "time_elapsed": 1138161, "key_press": -1, "type": "PRE_RECALL_ALERT", "trial_index": 238}, "uniqueid": "MTK2225:3MHW492WW1KHCJTZ10ARFLH84LLMVR", "dateTime": 1516897885860}, {"current_trial": 239, "trialdata": {"rt": [2771, 4763, 6507, 8923, 11859, 17500], "recwords": ["toaster", "pliers", "bug", "oyster", "clam", "river"], "key_times": [878, 1220, 1363, 1596, 1811, 1892, 1996, 2771, 3291, 3539, 3739, 4003, 4171, 4379, 4763, 5355, 5547, 6060, 6507, 6972, 7372, 7659, 7883, 8027, 8083, 8923, 10699, 10867, 11012, 11147, 11859, 16428, 16635, 16899, 17003, 17083, 17500], "trial_type": "free-recall", "conditions": [24, 800, "v", 24000], "internal_node_id": "0.0-176.0-0.0", "key_presses": [84, 79, 65, 83, 84, 69, 82, 13, 80, 76, 73, 69, 82, 83, 13, 66, 85, 71, 13, 79, 89, 83, 84, 69, 82, 13, 67, 76, 65, 77, 13, 82, 73, 86, 69, 82, 13], "trial": 6, "time_elapsed": 1198164, "type": "FREE_RECALL", "trial_index": 239}, "uniqueid": "MTK2225:3MHW492WW1KHCJTZ10ARFLH84LLMVR", "dateTime": 1516897945870}, {"current_trial": 240, "trialdata": {"rt": 1344, "trial_type": "text", "internal_node_id": "0.0-177.0", "time_elapsed": 1201518, "key_press": 32, "type": "INSTRUCTIONS", "trial_index": 240}, "uniqueid": "MTK2225:3MHW492WW1KHCJTZ10ARFLH84LLMVR", "dateTime": 1516897949216}, {"current_trial": 241, "trialdata": {"rt": [2245, 5789, 8277, 11157], "trial_type": "math-distractor", "key_times": [1749, 1957, 2245, 4925, 5133, 5789, 7685, 7884, 8277, 10605, 10813, 11157], "responses": ["18", "20", "17", "18"], "num2": [6, 8, 2, 7, 4], "num3": [7, 9, 6, 8, 5], "conditions": [24, 800, "v", 12000], "internal_node_id": "0.0-178.0", "key_presses": [97, 104, 13, 98, 96, 13, 97, 103, 13, 97, 104, 13], "trial": 7, "time_elapsed": 1215522, "type": "DISTRACTOR", "trial_index": 241, "num1": [5, 3, 9, 3, 5]}, "uniqueid": "MTK2225:3MHW492WW1KHCJTZ10ARFLH84LLMVR", "dateTime": 1516897963220}, {"current_trial": 242, "trialdata": {"rt": -1, "trial_type": "single-stim", "stimulus": "<p id=\"stim\">10</p>", "internal_node_id": "0.0-179.0-0.0", "time_elapsed": 1218522, "key_press": -1, "trial_index": 242}, "uniqueid": "MTK2225:3MHW492WW1KHCJTZ10ARFLH84LLMVR", "dateTime": 1516897966220}, {"current_trial": 243, "trialdata": {"rt": -1, "trial_type": "single-stim", "stimulus": "<p id=\"stim\">9</p>", "internal_node_id": "0.0-179.0-1.0", "time_elapsed": 1219522, "key_press": -1, "trial_index": 243}, "uniqueid": "MTK2225:3MHW492WW1KHCJTZ10ARFLH84LLMVR", "dateTime": 1516897967221}, {"current_trial": 244, "trialdata": {"rt": -1, "trial_type": "single-stim", "stimulus": "<p id=\"stim\">8</p>", "internal_node_id": "0.0-179.0-2.0", "time_elapsed": 1220523, "key_press": -1, "trial_index": 244}, "uniqueid": "MTK2225:3MHW492WW1KHCJTZ10ARFLH84LLMVR", "dateTime": 1516897968222}, {"current_trial": 245, "trialdata": {"rt": -1, "trial_type": "single-stim", "stimulus": "<p id=\"stim\">7</p>", "internal_node_id": "0.0-179.0-3.0", "time_elapsed": 1221526, "key_press": -1, "trial_index": 245}, "uniqueid": "MTK2225:3MHW492WW1KHCJTZ10ARFLH84LLMVR", "dateTime": 1516897969224}, {"current_trial": 246, "trialdata": {"rt": -1, "trial_type": "single-stim", "stimulus": "<p id=\"stim\">6</p>", "internal_node_id": "0.0-179.0-4.0", "time_elapsed": 1222526, "key_press": -1, "trial_index": 246}, "uniqueid": "MTK2225:3MHW492WW1KHCJTZ10ARFLH84LLMVR", "dateTime": 1516897970225}, {"current_trial": 247, "trialdata": {"rt": -1, "trial_type": "single-stim", "stimulus": "<p id=\"stim\">5</p>", "internal_node_id": "0.0-179.0-5.0", "time_elapsed": 1223529, "key_press": -1, "trial_index": 247}, "uniqueid": "MTK2225:3MHW492WW1KHCJTZ10ARFLH84LLMVR", "dateTime": 1516897971227}, {"current_trial": 248, "trialdata": {"rt": -1, "trial_type": "single-stim", "stimulus": "<p id=\"stim\">4</p>", "internal_node_id": "0.0-179.0-6.0", "time_elapsed": 1224530, "key_press": -1, "trial_index": 248}, "uniqueid": "MTK2225:3MHW492WW1KHCJTZ10ARFLH84LLMVR", "dateTime": 1516897972228}, {"current_trial": 249, "trialdata": {"rt": -1, "trial_type": "single-stim", "stimulus": "<p id=\"stim\">3</p>", "internal_node_id": "0.0-179.0-7.0", "time_elapsed": 1225530, "key_press": -1, "trial_index": 249}, "uniqueid": "MTK2225:3MHW492WW1KHCJTZ10ARFLH84LLMVR", "dateTime": 1516897973229}, {"current_trial": 250, "trialdata": {"rt": -1, "trial_type": "single-stim", "stimulus": "<p id=\"stim\">2</p>", "internal_node_id": "0.0-179.0-8.0", "time_elapsed": 1226531, "key_press": -1, "trial_index": 250}, "uniqueid": "MTK2225:3MHW492WW1KHCJTZ10ARFLH84LLMVR", "dateTime": 1516897974229}, {"current_trial": 251, "trialdata": {"rt": -1, "trial_type": "single-stim", "stimulus": "<p id=\"stim\">1</p>", "internal_node_id": "0.0-179.0-9.0", "time_elapsed": 1227532, "key_press": -1, "trial_index": 251}, "uniqueid": "MTK2225:3MHW492WW1KHCJTZ10ARFLH84LLMVR", "dateTime": 1516897975231}, {"current_trial": 252, "trialdata": {"rt": -1, "trial_type": "single-stim", "stimulus": "<p id=\"stim\">+</p>", "internal_node_id": "0.0-180.0-0.0", "time_elapsed": 1229034, "key_press": -1, "type": "FIXATION", "trial_index": 252}, "uniqueid": "MTK2225:3MHW492WW1KHCJTZ10ARFLH84LLMVR", "dateTime": 1516897976733}, {"current_trial": 253, "trialdata": {"rt": -1, "trial_type": "single-stim", "word": "proton", "stimulus": "<p id=\"stim\">PROTON</p>", "conditions": [24, 800, "v", 12000], "internal_node_id": "0.0-181.0", "trial": 7, "time_elapsed": 1229835, "serialpos": 0, "key_press": -1, "wordID": 1131, "type": "PRES_VIS", "trial_index": 253}, "uniqueid": "MTK2225:3MHW492WW1KHCJTZ10ARFLH84LLMVR", "dateTime": 1516897977534}, {"current_trial": 254, "trialdata": {"rt": -1, "trial_type": "single-stim", "word": "rooster", "stimulus": "<p id=\"stim\">ROOSTER</p>", "conditions": [24, 800, "v", 12000], "internal_node_id": "0.0-182.0", "trial": 7, "time_elapsed": 1231726, "serialpos": 1, "key_press": -1, "wordID": 1208, "type": "PRES_VIS", "trial_index": 254}, "uniqueid": "MTK2225:3MHW492WW1KHCJTZ10ARFLH84LLMVR", "dateTime": 1516897979425}, {"current_trial": 255, "trialdata": {"rt": -1, "trial_type": "single-stim", "word": "carriage", "stimulus": "<p id=\"stim\">CARRIAGE</p>", "conditions": [24, 800, "v", 12000], "internal_node_id": "0.0-183.0", "trial": 7, "time_elapsed": 1233606, "serialpos": 2, "key_press": -1, "wordID": 247, "type": "PRES_VIS", "trial_index": 255}, "uniqueid": "MTK2225:3MHW492WW1KHCJTZ10ARFLH84LLMVR", "dateTime": 1516897981305}, {"current_trial": 256, "trialdata": {"rt": -1, "trial_type": "single-stim"