{"assignmentId": "3DBQWDE4Y756W7ZK7A7EO2C9XJE5NH", "workerId": "MTK2599", "questiondata": {"origin": "United States", "strat-rehearsal": "96", "marital": "Married/Domestic Partnership", "education": "Some college", "ethnicity": "Not Hispanic", "color_depth": 24, "distracted": "No", "wrote-notes": "Yes", "strat-other": "making a song with the words", "screen_width": 1920, "avail_screen_width": 1920, "avail_screen_height": 1080, "strat-image": "0", "language": "English", "gender": "Female", "age": "30", "gender_other": "", "race": ["Black"], "strat-categorize": "88", "pixel_depth": 24, "strat-spatial": "0", "strat-story": "30", "race_other": "", "screen_height": 1080}, "bonus": 0, "hitId": "3R4QIDVOJPJ0B0H6ZASWDPSTCFZEEK", "counterbalance": 1120, "useragent": "Mozilla/5.0 (Windows NT 10.0; Win64; x64) AppleWebKit/537.36 (KHTML, like Gecko) Chrome/64.0.3282.167 Safari/537.36", "eventdata": [{"eventtype": "initialized", "interval": 0, "value": null, "timestamp": 1519149590706}, {"eventtype": "window_resize", "interval": 0, "value": [1920, 1033], "timestamp": 1519149590706}, {"eventtype": "focus", "interval": 280878, "value": "off", "timestamp": 1519149871584}, {"eventtype": "focus", "interval": 1984, "value": "on", "timestamp": 1519149873568}, {"eventtype": "focus", "interval": 1353513, "value": "off", "timestamp": 1519151227081}, {"eventtype": "focus", "interval": 5191, "value": "on", "timestamp": 1519151232272}, {"eventtype": "focus", "interval": 1, "value": "on", "timestamp": 1519151232273}], "data": [{"current_trial": 0, "trialdata": {"rt": 2383, "trial_type": "text", "internal_node_id": "0.0-0.0", "time_elapsed": 2385, "key_press": 8, "type": "INSTRUCTIONS", "trial_index": 0}, "uniqueid": "MTK2599:3DBQWDE4Y756W7ZK7A7EO2C9XJE5NH", "dateTime": 1519149597851}, {"current_trial": 1, "trialdata": {"rt": 11, "trial_type": "text", "internal_node_id": "0.0-1.0", "time_elapsed": 2400, "key_press": 187, "type": "INSTRUCTIONS", "trial_index": 1}, "uniqueid": "MTK2599:3DBQWDE4Y756W7ZK7A7EO2C9XJE5NH", "dateTime": 1519149597866}, {"current_trial": 2, "trialdata": {"rt": [11059], "trial_type": "audio-test", "responses": ["ocean"], "internal_node_id": "0.0-2.0", "time_elapsed": 13470, "type": "AUDIO_TEST", "trial_index": 2}, "uniqueid": "MTK2599:3DBQWDE4Y756W7ZK7A7EO2C9XJE5NH", "dateTime": 1519149608935}, {"current_trial": 3, "trialdata": {"rt": [7882], "trial_type": "audio-test", "responses": ["crystal"], "internal_node_id": "0.0-3.0", "time_elapsed": 21359, "type": "AUDIO_TEST", "trial_index": 3}, "uniqueid": "MTK2599:3DBQWDE4Y756W7ZK7A7EO2C9XJE5NH", "dateTime": 1519149616824}, {"current_trial": 4, "trialdata": {"rt": [5387], "trial_type": "audio-test", "responses": ["spice"], "internal_node_id": "0.0-4.0", "time_elapsed": 26751, "type": "AUDIO_TEST", "trial_index": 4}, "uniqueid": "MTK2599:3DBQWDE4Y756W7ZK7A7EO2C9XJE5NH", "dateTime": 1519149622216}, {"current_trial": 5, "trialdata": {"rt": 22880, "trial_type": "survey-text", "responses": "{\"Q0\":\"9:30 pm\",\"Q1\":\"6:00 am\",\"Q2\":\"4\"}", "internal_node_id": "0.0-5.0", "time_elapsed": 50384, "type": "SLEEP_SURVEY", "trial_index": 5}, "uniqueid": "MTK2599:3DBQWDE4Y756W7ZK7A7EO2C9XJE5NH", "dateTime": 1519149645849}, {"current_trial": 6, "trialdata": {"rt": 166173, "trial_type": "text", "internal_node_id": "0.0-6.0", "time_elapsed": 217560, "key_press": 32, "type": "INSTRUCTIONS", "trial_index": 6}, "uniqueid": "MTK2599:3DBQWDE4Y756W7ZK7A7EO2C9XJE5NH", "dateTime": 1519149813025}, {"current_trial": 7, "trialdata": {"rt": 2273, "trial_type": "text", "internal_node_id": "0.0-7.0", "time_elapsed": 220335, "key_press": 174, "type": "INSTRUCTIONS", "trial_index": 7}, "uniqueid": "MTK2599:3DBQWDE4Y756W7ZK7A7EO2C9XJE5NH", "dateTime": 1519149815800}, {"current_trial": 8, "trialdata": {"rt": 175, "trial_type": "text", "internal_node_id": "0.0-8.0", "time_elapsed": 221011, "key_press": 174, "type": "INSTRUCTIONS", "trial_index": 8}, "uniqueid": "MTK2599:3DBQWDE4Y756W7ZK7A7EO2C9XJE5NH", "dateTime": 1519149816476}, {"current_trial": 9, "trialdata": {"rt": [8372, 12707, 16396], "trial_type": "math-distractor", "key_times": [6868, 7220, 7236, 8003, 8356, 8372, 12092, 12276, 12707, 15826, 15996, 16396], "responses": ["18", "17", "14"], "num2": [6, 9, 1, 9], "num3": [5, 3, 6, 7], "conditions": [18, 1200, "a", 18000], "internal_node_id": "0.0-9.0", "key_presses": [97, 104, 105, 8, 16, 13, 97, 103, 13, 97, 100, 13], "trial": 0, "time_elapsed": 240020, "type": "DISTRACTOR", "trial_index": 9, "num1": [7, 5, 7, 8]}, "uniqueid": "MTK2599:3DBQWDE4Y756W7ZK7A7EO2C9XJE5NH", "dateTime": 1519149835485}, {"current_trial": 10, "trialdata": {"rt": -1, "trial_type": "single-stim", "stimulus": "<p id=\"stim\">10</p>", "internal_node_id": "0.0-10.0-0.0", "time_elapsed": 243023, "key_press": -1, "trial_index": 10}, "uniqueid": "MTK2599:3DBQWDE4Y756W7ZK7A7EO2C9XJE5NH", "dateTime": 1519149838488}, {"current_trial": 11, "trialdata": {"rt": -1, "trial_type": "single-stim", "stimulus": "<p id=\"stim\">9</p>", "internal_node_id": "0.0-10.0-1.0", "time_elapsed": 244023, "key_press": -1, "trial_index": 11}, "uniqueid": "MTK2599:3DBQWDE4Y756W7ZK7A7EO2C9XJE5NH", "dateTime": 1519149839490}, {"current_trial": 12, "trialdata": {"rt": -1, "trial_type": "single-stim", "stimulus": "<p id=\"stim\">8</p>", "internal_node_id": "0.0-10.0-2.0", "time_elapsed": 245024, "key_press": -1, "trial_index": 12}, "uniqueid": "MTK2599:3DBQWDE4Y756W7ZK7A7EO2C9XJE5NH", "dateTime": 1519149840489}, {"current_trial": 13, "trialdata": {"rt": -1, "trial_type": "single-stim", "stimulus": "<p id=\"stim\">7</p>", "internal_node_id": "0.0-10.0-3.0", "time_elapsed": 246026, "key_press": -1, "trial_index": 13}, "uniqueid": "MTK2599:3DBQWDE4Y756W7ZK7A7EO2C9XJE5NH", "dateTime": 1519149841492}, {"current_trial": 14, "trialdata": {"rt": -1, "trial_type": "single-stim", "stimulus": "<p id=\"stim\">6</p>", "internal_node_id": "0.0-10.0-4.0", "time_elapsed": 247027, "key_press": -1, "trial_index": 14}, "uniqueid": "MTK2599:3DBQWDE4Y756W7ZK7A7EO2C9XJE5NH", "dateTime": 1519149842492}, {"current_trial": 15, "trialdata": {"rt": -1, "trial_type": "single-stim", "stimulus": "<p id=\"stim\">5</p>", "internal_node_id": "0.0-10.0-5.0", "time_elapsed": 248028, "key_press": -1, "trial_index": 15}, "uniqueid": "MTK2599:3DBQWDE4Y756W7ZK7A7EO2C9XJE5NH", "dateTime": 1519149843494}, {"current_trial": 16, "trialdata": {"rt": -1, "trial_type": "single-stim", "stimulus": "<p id=\"stim\">4</p>", "internal_node_id": "0.0-10.0-6.0", "time_elapsed": 249029, "key_press": -1, "trial_index": 16}, "uniqueid": "MTK2599:3DBQWDE4Y756W7ZK7A7EO2C9XJE5NH", "dateTime": 1519149844495}, {"current_trial": 17, "trialdata": {"rt": -1, "trial_type": "single-stim", "stimulus": "<p id=\"stim\">3</p>", "internal_node_id": "0.0-10.0-7.0", "time_elapsed": 250032, "key_press": -1, "trial_index": 17}, "uniqueid": "MTK2599:3DBQWDE4Y756W7ZK7A7EO2C9XJE5NH", "dateTime": 1519149845497}, {"current_trial": 18, "trialdata": {"rt": -1, "trial_type": "single-stim", "stimulus": "<p id=\"stim\">2</p>", "internal_node_id": "0.0-10.0-8.0", "time_elapsed": 251033, "key_press": -1, "trial_index": 18}, "uniqueid": "MTK2599:3DBQWDE4Y756W7ZK7A7EO2C9XJE5NH", "dateTime": 1519149846498}, {"current_trial": 19, "trialdata": {"rt": -1, "trial_type": "single-stim", "stimulus": "<p id=\"stim\">1</p>", "internal_node_id": "0.0-10.0-9.0", "time_elapsed": 252041, "key_press": -1, "trial_index": 19}, "uniqueid": "MTK2599:3DBQWDE4Y756W7ZK7A7EO2C9XJE5NH", "dateTime": 1519149847506}, {"current_trial": 20, "trialdata": {"rt": -1, "trial_type": "single-stim", "stimulus": "<p id=\"stim\">+</p>", "internal_node_id": "0.0-11.0-0.0", "time_elapsed": 253543, "key_press": -1, "type": "FIXATION", "trial_index": 20}, "uniqueid": "MTK2599:3DBQWDE4Y756W7ZK7A7EO2C9XJE5NH", "dateTime": 1519149849009}, {"current_trial": 21, "trialdata": {"rt": -1000, "trial_type": "single-audio", "word": "mummy", "stimulus": "/static/audio/wordpool/MUMMY.wav", "conditions": [18, 1200, "a", 18000], "internal_node_id": "0.0-12.0", "trial": 0, "time_elapsed": 255682, "serialpos": 0, "key_press": -1, "wordID": 931, "type": "PRES_AUD", "trial_index": 21}, "uniqueid": "MTK2599:3DBQWDE4Y756W7ZK7A7EO2C9XJE5NH", "dateTime": 1519149851147}, {"current_trial": 22, "trialdata": {"rt": -1000, "trial_type": "single-audio", "word": "lava", "stimulus": "/static/audio/wordpool/LAVA.wav", "conditions": [18, 1200, "a", 18000], "internal_node_id": "0.0-13.0", "trial": 0, "time_elapsed": 257749, "serialpos": 1, "key_press": -1, "wordID": 803, "type": "PRES_AUD", "trial_index": 22}, "uniqueid": "MTK2599:3DBQWDE4Y756W7ZK7A7EO2C9XJE5NH", "dateTime": 1519149853214}, {"current_trial": 23, "trialdata": {"rt": 2067.9999999999836, "trial_type": "single-audio", "word": "table", "stimulus": "/static/audio/wordpool/TABLE.wav", "conditions": [18, 1200, "a", 18000], "internal_node_id": "0.0-14.0", "trial": 0, "time_elapsed": 259951, "serialpos": 2, "key_press": 175, "wordID": 1425, "type": "PRES_AUD", "trial_index": 23}, "uniqueid": "MTK2599:3DBQWDE4Y756W7ZK7A7EO2C9XJE5NH", "dateTime": 1519149855416}, {"current_trial": 24, "trialdata": {"rt": 358.66666666663605, "trial_type": "single-audio", "word": "crutch", "stimulus": "/static/audio/wordpool/CRUTCH.wav", "conditions": [18, 1200, "a", 18000], "internal_node_id": "0.0-15.0", "trial": 0, "time_elapsed": 262008, "serialpos": 3, "key_press": 175, "wordID": 416, "type": "PRES_AUD", "trial_index": 24}, "uniqueid": "MTK2599:3DBQWDE4Y756W7ZK7A7EO2C9XJE5NH", "dateTime": 1519149857474}, {"current_trial": 25, "trialdata": {"rt": -1000, "trial_type": "single-audio", "word": "infant", "stimulus": "/static/audio/wordpool/INFANT.wav", "conditions": [18, 1200, "a", 18000], "internal_node_id": "0.0-16.0", "trial": 0, "time_elapsed": 264235, "serialpos": 4, "key_press": -1, "wordID": 736, "type": "PRES_AUD", "trial_index": 25}, "uniqueid": "MTK2599:3DBQWDE4Y756W7ZK7A7EO2C9XJE5NH", "dateTime": 1519149859700}, {"current_trial": 26, "trialdata": {"rt": -1000, "trial_type": "single-audio", "word": "badge", "stimulus": "/static/audio/wordpool/BADGE.wav", "conditions": [18, 1200, "a", 18000], "internal_node_id": "0.0-17.0", "trial": 0, "time_elapsed": 266460, "serialpos": 5, "key_press": -1, "wordID": 67, "type": "PRES_AUD", "trial_index": 26}, "uniqueid": "MTK2599:3DBQWDE4Y756W7ZK7A7EO2C9XJE5NH", "dateTime": 1519149861925}, {"current_trial": 27, "trialdata": {"rt": -1000, "trial_type": "single-audio", "word": "curtain", "stimulus": "/static/audio/wordpool/CURTAIN.wav", "conditions": [18, 1200, "a", 18000], "internal_node_id": "0.0-18.0", "trial": 0, "time_elapsed": 268765, "serialpos": 6, "key_press": -1, "wordID": 426, "type": "PRES_AUD", "trial_index": 27}, "uniqueid": "MTK2599:3DBQWDE4Y756W7ZK7A7EO2C9XJE5NH", "dateTime": 1519149864231}, {"current_trial": 28, "trialdata": {"rt": -1000, "trial_type": "single-audio", "word": "shortcake", "stimulus": "/static/audio/wordpool/SHORTCAKE.wav", "conditions": [18, 1200, "a", 18000], "internal_node_id": "0.0-19.0", "trial": 0, "time_elapsed": 270937, "serialpos": 7, "key_press": -1, "wordID": 1291, "type": "PRES_AUD", "trial_index": 28}, "uniqueid": "MTK2599:3DBQWDE4Y756W7ZK7A7EO2C9XJE5NH", "dateTime": 1519149866403}, {"current_trial": 29, "trialdata": {"rt": -1000, "trial_type": "single-audio", "word": "flag", "stimulus": "/static/audio/wordpool/FLAG.wav", "conditions": [18, 1200, "a", 18000], "internal_node_id": "0.0-20.0", "trial": 0, "time_elapsed": 273276, "serialpos": 8, "key_press": -1, "wordID": 572, "type": "PRES_AUD", "trial_index": 29}, "uniqueid": "MTK2599:3DBQWDE4Y756W7ZK7A7EO2C9XJE5NH", "dateTime": 1519149868741}, {"current_trial": 30, "trialdata": {"rt": -1000, "trial_type": "single-audio", "word": "county", "stimulus": "/static/audio/wordpool/COUNTY.wav", "conditions": [18, 1200, "a", 18000], "internal_node_id": "0.0-21.0", "trial": 0, "time_elapsed": 275277, "serialpos": 9, "key_press": -1, "wordID": 388, "type": "PRES_AUD", "trial_index": 30}, "uniqueid": "MTK2599:3DBQWDE4Y756W7ZK7A7EO2C9XJE5NH", "dateTime": 1519149870742}, {"current_trial": 31, "trialdata": {"rt": -1000, "trial_type": "single-audio", "word": "sphinx", "stimulus": "/static/audio/wordpool/SPHINX.wav", "conditions": [18, 1200, "a", 18000], "internal_node_id": "0.0-22.0", "trial": 0, "time_elapsed": 277599, "serialpos": 10, "key_press": -1, "wordID": 1348, "type": "PRES_AUD", "trial_index": 31}, "uniqueid": "MTK2599:3DBQWDE4Y756W7ZK7A7EO2C9XJE5NH", "dateTime": 1519149873064}, {"current_trial": 32, "trialdata": {"rt": -1000, "trial_type": "single-audio", "word": "eagle", "stimulus": "/static/audio/wordpool/EAGLE.wav", "conditions": [18, 1200, "a", 18000], "internal_node_id": "0.0-23.0", "trial": 0, "time_elapsed": 279978, "serialpos": 11, "key_press": -1, "wordID": 511, "type": "PRES_AUD", "trial_index": 32}, "uniqueid": "MTK2599:3DBQWDE4Y756W7ZK7A7EO2C9XJE5NH", "dateTime": 1519149875443}, {"current_trial": 33, "trialdata": {"rt": -1000, "trial_type": "single-audio", "word": "costume", "stimulus": "/static/audio/wordpool/COSTUME.wav", "conditions": [18, 1200, "a", 18000], "internal_node_id": "0.0-24.0", "trial": 0, "time_elapsed": 282008, "serialpos": 12, "key_press": -1, "wordID": 382, "type": "PRES_AUD", "trial_index": 33}, "uniqueid": "MTK2599:3DBQWDE4Y756W7ZK7A7EO2C9XJE5NH", "dateTime": 1519149877473}, {"current_trial": 34, "trialdata": {"rt": -1000, "trial_type": "single-audio", "word": "chauffeur", "stimulus": "/static/audio/wordpool/CHAUFFEUR.wav", "conditions": [18, 1200, "a", 18000], "internal_node_id": "0.0-25.0", "trial": 0, "time_elapsed": 284099, "serialpos": 13, "key_press": -1, "wordID": 282, "type": "PRES_AUD", "trial_index": 34}, "uniqueid": "MTK2599:3DBQWDE4Y756W7ZK7A7EO2C9XJE5NH", "dateTime": 1519149879564}, {"current_trial": 35, "trialdata": {"rt": -1000, "trial_type": "single-audio", "word": "statue", "stimulus": "/static/audio/wordpool/STATUE.wav", "conditions": [18, 1200, "a", 18000], "internal_node_id": "0.0-26.0", "trial": 0, "time_elapsed": 286500, "serialpos": 14, "key_press": -1, "wordID": 1373, "type": "PRES_AUD", "trial_index": 35}, "uniqueid": "MTK2599:3DBQWDE4Y756W7ZK7A7EO2C9XJE5NH", "dateTime": 1519149881967}, {"current_trial": 36, "trialdata": {"rt": -1000, "trial_type": "single-audio", "word": "crib", "stimulus": "/static/audio/wordpool/CRIB.wav", "conditions": [18, 1200, "a", 18000], "internal_node_id": "0.0-27.0", "trial": 0, "time_elapsed": 288505, "serialpos": 15, "key_press": -1, "wordID": 406, "type": "PRES_AUD", "trial_index": 36}, "uniqueid": "MTK2599:3DBQWDE4Y756W7ZK7A7EO2C9XJE5NH", "dateTime": 1519149883970}, {"current_trial": 37, "trialdata": {"rt": -1000, "trial_type": "single-audio", "word": "blockade", "stimulus": "/static/audio/wordpool/BLOCKADE.wav", "conditions": [18, 1200, "a", 18000], "internal_node_id": "0.0-28.0", "trial": 0, "time_elapsed": 290716, "serialpos": 16, "key_press": -1, "wordID": 136, "type": "PRES_AUD", "trial_index": 37}, "uniqueid": "MTK2599:3DBQWDE4Y756W7ZK7A7EO2C9XJE5NH", "dateTime": 1519149886181}, {"current_trial": 38, "trialdata": {"rt": -1000, "trial_type": "single-audio", "word": "guitar", "stimulus": "/static/audio/wordpool/GUITAR.wav", "conditions": [18, 1200, "a", 18000], "internal_node_id": "0.0-29.0", "trial": 0, "time_elapsed": 292853, "serialpos": 17, "key_press": -1, "wordID": 669, "type": "PRES_AUD", "trial_index": 38}, "uniqueid": "MTK2599:3DBQWDE4Y756W7ZK7A7EO2C9XJE5NH", "dateTime": 1519149888318}, {"current_trial": 39, "trialdata": {"rt": -1, "trial_type": "single-stim", "stimulus": "", "internal_node_id": "0.0-30.0-0.0", "time_elapsed": 294207, "key_press": -1, "type": "PRE_RECALL_DELAY", "trial_index": 39}, "uniqueid": "MTK2599:3DBQWDE4Y756W7ZK7A7EO2C9XJE5NH", "dateTime": 1519149889673}, {"current_trial": 40, "trialdata": {"rt": -1000, "trial_type": "single-audio", "stimulus": "/static/audio/400Hz.wav", "internal_node_id": "0.0-31.0", "time_elapsed": 294709, "key_press": -1, "type": "PRE_RECALL_ALERT", "trial_index": 40}, "uniqueid": "MTK2599:3DBQWDE4Y756W7ZK7A7EO2C9XJE5NH", "dateTime": 1519149890174}, {"current_trial": 41, "trialdata": {"rt": [4519, 8423, 11279, 12622, 14071, 24054, 51567, 53118], "recwords": ["guitar", "blockade", "costume", "infant", "flag", "badge", "", ""], "key_times": [3432, 3639, 3855, 4023, 4135, 4344, 4519, 5631, 6479, 6736, 7328, 7463, 7664, 7911, 8160, 8423, 8719, 8911, 9223, 9408, 9567, 9862, 10119, 10887, 11047, 11279, 11623, 11814, 11960, 12063, 12207, 12423, 12622, 13175, 13360, 13496, 13775, 14071, 22999, 23161, 23319, 23743, 23904, 24054, 51567, 53118], "trial_type": "free-recall", "conditions": [18, 1200, "a", 18000], "internal_node_id": "0.0-32.0-0.0", "key_presses": [71, 85, 73, 84, 65, 82, 13, 66, 76, 79, 67, 75, 65, 68, 69, 13, 67, 79, 83, 84, 85, 77, 82, 8, 69, 13, 73, 78, 70, 65, 78, 84, 13, 70, 76, 65, 71, 13, 66, 65, 68, 71, 69, 13, 13, 32], "trial": 0, "time_elapsed": 354714, "type": "FREE_RECALL", "trial_index": 41}, "uniqueid": "MTK2599:3DBQWDE4Y756W7ZK7A7EO2C9XJE5NH", "dateTime": 1519149950181}, {"current_trial": 42, "trialdata": {"rt": 3016, "trial_type": "text", "internal_node_id": "0.0-33.0", "time_elapsed": 359733, "key_press": 32, "type": "INSTRUCTIONS", "trial_index": 42}, "uniqueid": "MTK2599:3DBQWDE4Y756W7ZK7A7EO2C9XJE5NH", "dateTime": 1519149955198}, {"current_trial": 43, "trialdata": {"rt": [8198, 11133, 14039, 17510], "trial_type": "math-distractor", "key_times": [7470, 7719, 8198, 10591, 10855, 11133, 13311, 13711, 14039, 16959, 17222, 17510], "responses": ["18", "12", "13", "19"], "num2": [9, 1, 4, 8, 7], "num3": [7, 7, 7, 4, 9], "conditions": [18, 1200, "a", 18000], "internal_node_id": "0.0-34.0", "key_presses": [97, 104, 13, 97, 98, 13, 97, 99, 13, 97, 105, 13], "trial": 1, "time_elapsed": 379736, "type": "DISTRACTOR", "trial_index": 43, "num1": [2, 4, 2, 7, 4]}, "uniqueid": "MTK2599:3DBQWDE4Y756W7ZK7A7EO2C9XJE5NH", "dateTime": 1519149975201}, {"current_trial": 44, "trialdata": {"rt": -1, "trial_type": "single-stim", "stimulus": "<p id=\"stim\">10</p>", "internal_node_id": "0.0-35.0-0.0", "time_elapsed": 382738, "key_press": -1, "trial_index": 44}, "uniqueid": "MTK2599:3DBQWDE4Y756W7ZK7A7EO2C9XJE5NH", "dateTime": 1519149978204}, {"current_trial": 45, "trialdata": {"rt": -1, "trial_type": "single-stim", "stimulus": "<p id=\"stim\">9</p>", "internal_node_id": "0.0-35.0-1.0", "time_elapsed": 383739, "key_press": -1, "trial_index": 45}, "uniqueid": "MTK2599:3DBQWDE4Y756W7ZK7A7EO2C9XJE5NH", "dateTime": 1519149979204}, {"current_trial": 46, "trialdata": {"rt": -1, "trial_type": "single-stim", "stimulus": "<p id=\"stim\">8</p>", "internal_node_id": "0.0-35.0-2.0", "time_elapsed": 384740, "key_press": -1, "trial_index": 46}, "uniqueid": "MTK2599:3DBQWDE4Y756W7ZK7A7EO2C9XJE5NH", "dateTime": 1519149980206}, {"current_trial": 47, "trialdata": {"rt": -1, "trial_type": "single-stim", "stimulus": "<p id=\"stim\">7</p>", "internal_node_id": "0.0-35.0-3.0", "time_elapsed": 385742, "key_press": -1, "trial_index": 47}, "uniqueid": "MTK2599:3DBQWDE4Y756W7ZK7A7EO2C9XJE5NH", "dateTime": 1519149981207}, {"current_trial": 48, "trialdata": {"rt": -1, "trial_type": "single-stim", "stimulus": "<p id=\"stim\">6</p>", "internal_node_id": "0.0-35.0-4.0", "time_elapsed": 386743, "key_press": -1, "trial_index": 48}, "uniqueid": "MTK2599:3DBQWDE4Y756W7ZK7A7EO2C9XJE5NH", "dateTime": 1519149982210}, {"current_trial": 49, "trialdata": {"rt": -1, "trial_type": "single-stim", "stimulus": "<p id=\"stim\">5</p>", "internal_node_id": "0.0-35.0-5.0", "time_elapsed": 387744, "key_press": -1, "trial_index": 49}, "uniqueid": "MTK2599:3DBQWDE4Y756W7ZK7A7EO2C9XJE5NH", "dateTime": 1519149983210}, {"current_trial": 50, "trialdata": {"rt": -1, "trial_type": "single-stim", "stimulus": "<p id=\"stim\">4</p>", "internal_node_id": "0.0-35.0-6.0", "time_elapsed": 388746, "key_press": -1, "trial_index": 50}, "uniqueid": "MTK2599:3DBQWDE4Y756W7ZK7A7EO2C9XJE5NH", "dateTime": 1519149984211}, {"current_trial": 51, "trialdata": {"rt": -1, "trial_type": "single-stim", "stimulus": "<p id=\"stim\">3</p>", "internal_node_id": "0.0-35.0-7.0", "time_elapsed": 389748, "key_press": -1, "trial_index": 51}, "uniqueid": "MTK2599:3DBQWDE4Y756W7ZK7A7EO2C9XJE5NH", "dateTime": 1519149985213}, {"current_trial": 52, "trialdata": {"rt": -1, "trial_type": "single-stim", "stimulus": "<p id=\"stim\">2</p>", "internal_node_id": "0.0-35.0-8.0", "time_elapsed": 390748, "key_press": -1, "trial_index": 52}, "uniqueid": "MTK2599:3DBQWDE4Y756W7ZK7A7EO2C9XJE5NH", "dateTime": 1519149986213}, {"current_trial": 53, "trialdata": {"rt": -1, "trial_type": "single-stim", "stimulus": "<p id=\"stim\">1</p>", "internal_node_id": "0.0-35.0-9.0", "time_elapsed": 391749, "key_press": -1, "trial_index": 53}, "uniqueid": "MTK2599:3DBQWDE4Y756W7ZK7A7EO2C9XJE5NH", "dateTime": 1519149987215}, {"current_trial": 54, "trialdata": {"rt": -1, "trial_type": "single-stim", "stimulus": "<p id=\"stim\">+</p>", "internal_node_id": "0.0-36.0-0.0", "time_elapsed": 393251, "key_press": -1, "type": "FIXATION", "trial_index": 54}, "uniqueid": "MTK2599:3DBQWDE4Y756W7ZK7A7EO2C9XJE5NH", "dateTime": 1519149988716}, {"current_trial": 55, "trialdata": {"rt": -1000, "trial_type": "single-audio", "word": "icing", "stimulus": "/static/audio/wordpool/ICING.wav", "conditions": [18, 1200, "a", 18000], "internal_node_id": "0.0-37.0", "trial": 1, "time_elapsed": 395559, "serialpos": 0, "key_press": -1, "wordID": 731, "type": "PRES_AUD", "trial_index": 55}, "uniqueid": "MTK2599:3DBQWDE4Y756W7ZK7A7EO2C9XJE5NH", "dateTime": 1519149991025}, {"current_trial": 56, "trialdata": {"rt": -1000, "trial_type": "single-audio", "word": "mildew", "stimulus": "/static/audio/wordpool/MILDEW.wav", "conditions": [18, 1200, "a", 18000], "internal_node_id": "0.0-38.0", "trial": 1, "time_elapsed": 397898, "serialpos": 1, "key_press": -1, "wordID": 892, "type": "PRES_AUD", "trial_index": 56}, "uniqueid": "MTK2599:3DBQWDE4Y756W7ZK7A7EO2C9XJE5NH", "dateTime": 1519149993363}, {"current_trial": 57, "trialdata": {"rt": -1000, "trial_type": "single-audio", "word": "clock", "stimulus": "/static/audio/wordpool/CLOCK.wav", "conditions": [18, 1200, "a", 18000], "internal_node_id": "0.0-39.0", "trial": 1, "time_elapsed": 400013, "serialpos": 2, "key_press": -1, "wordID": 324, "type": "PRES_AUD", "trial_index": 57}, "uniqueid": "MTK2599:3DBQWDE4Y756W7ZK7A7EO2C9XJE5NH", "dateTime": 1519149995478}, {"current_trial": 58, "trialdata": {"rt": -1000, "trial_type": "single-audio", "word": "onion", "stimulus": "/static/audio/wordpool/ONION.wav", "conditions": [18, 1200, "a", 18000], "internal_node_id": "0.0-40.0", "trial": 1, "time_elapsed": 402281, "serialpos": 3, "key_press": -1, "wordID": 976, "type": "PRES_AUD", "trial_index": 58}, "uniqueid": "MTK2599:3DBQWDE4Y756W7ZK7A7EO2C9XJE5NH", "dateTime": 1519149997748}, {"current_trial": 59, "trialdata": {"rt": -1000, "trial_type": "single-audio", "word": "bison", "stimulus": "/static/audio/wordpool/BISON.wav", "conditions": [18, 1200, "a", 18000], "internal_node_id": "0.0-41.0", "trial": 1, "time_elapsed": 404600, "serialpos": 4, "key_press": -1, "wordID": 130, "type": "PRES_AUD", "trial_index": 59}, "uniqueid": "MTK2599:3DBQWDE4Y756W7ZK7A7EO2C9XJE5NH", "dateTime": 1519150000065}, {"current_trial": 60, "trialdata": {"rt": -1000, "trial_type": "single-audio", "word": "cousin", "stimulus": "/static/audio/wordpool/COUSIN.wav", "conditions": [18, 1200, "a", 18000], "internal_node_id": "0.0-42.0", "trial": 1, "time_elapsed": 406684, "serialpos": 5, "key_press": -1, "wordID": 391, "type": "PRES_AUD", "trial_index": 60}, "uniqueid": "MTK2599:3DBQWDE4Y756W7ZK7A7EO2C9XJE5NH", "dateTime": 1519150002149}, {"current_trial": 61, "trialdata": {"rt": -1000, "trial_type": "single-audio", "word": "cottage", "stimulus": "/static/audio/wordpool/COTTAGE.wav", "conditions": [18, 1200, "a", 18000], "internal_node_id": "0.0-43.0", "trial": 1, "time_elapsed": 408813, "serialpos": 6, "key_press": -1, "wordID": 383, "type": "PRES_AUD", "trial_index": 61}, "uniqueid": "MTK2599:3DBQWDE4Y756W7ZK7A7EO2C9XJE5NH", "dateTime": 1519150004278}, {"current_trial": 62, "trialdata": {"rt": -1000, "trial_type": "single-audio", "word": "tombstone", "stimulus": "/static/audio/wordpool/TOMBSTONE.wav", "conditions": [18, 1200, "a", 18000], "internal_node_id": "0.0-44.0", "trial": 1, "time_elapsed": 411115, "serialpos": 7, "key_press": -1, "wordID": 1477, "type": "PRES_AUD", "trial_index": 62}, "uniqueid": "MTK2599:3DBQWDE4Y756W7ZK7A7EO2C9XJE5NH", "dateTime": 1519150006580}, {"current_trial": 63, "trialdata": {"rt": -1000, "trial_type": "single-audio", "word": "partner", "stimulus": "/static/audio/wordpool/PARTNER.wav", "conditions": [18, 1200, "a", 18000], "internal_node_id": "0.0-45.0", "trial": 1, "time_elapsed": 413385, "serialpos": 8, "key_press": -1, "wordID": 1016, "type": "PRES_AUD", "trial_index": 63}, "uniqueid": "MTK2599:3DBQWDE4Y756W7ZK7A7EO2C9XJE5NH", "dateTime": 1519150008850}, {"current_trial": 64, "trialdata": {"rt": -1000, "trial_type": "single-audio", "word": "lettuce", "stimulus": "/static/audio/wordpool/LETTUCE.wav", "conditions": [18, 1200, "a", 18000], "internal_node_id": "0.0-46.0", "trial": 1, "time_elapsed": 415513, "serialpos": 9, "key_press": -1, "wordID": 813, "type": "PRES_AUD", "trial_index": 64}, "uniqueid": "MTK2599:3DBQWDE4Y756W7ZK7A7EO2C9XJE5NH", "dateTime": 1519150010978}, {"current_trial": 65, "trialdata": {"rt": -1000, "trial_type": "single-audio", "word": "scarecrow", "stimulus": "/static/audio/wordpool/SCARECROW.wav", "conditions": [18, 1200, "a", 18000], "internal_node_id": "0.0-47.0", "trial": 1, "time_elapsed": 417667, "serialpos": 10, "key_press": -1, "wordID": 1244, "type": "PRES_AUD", "trial_index": 65}, "uniqueid": "MTK2599:3DBQWDE4Y756W7ZK7A7EO2C9XJE5NH", "dateTime": 1519150013132}, {"current_trial": 66, "trialdata": {"rt": -1000, "trial_type": "single-audio", "word": "drawing", "stimulus": "/static/audio/wordpool/DRAWING.wav", "conditions": [18, 1200, "a", 18000], "internal_node_id": "0.0-48.0", "trial": 1, "time_elapsed": 419887, "serialpos": 11, "key_press": -1, "wordID": 493, "type": "PRES_AUD", "trial_index": 66}, "uniqueid": "MTK2599:3DBQWDE4Y756W7ZK7A7EO2C9XJE5NH", "dateTime": 1519150015353}, {"current_trial": 67, "trialdata": {"rt": -1000, "trial_type": "single-audio", "word": "smog", "stimulus": "/static/audio/wordpool/SMOG.wav", "conditions": [18, 1200, "a", 18000], "internal_node_id": "0.0-49.0", "trial": 1, "time_elapsed": 422242, "serialpos": 12, "key_press": -1, "wordID": 1329, "type": "PRES_AUD", "trial_index": 67}, "uniqueid": "MTK2599:3DBQWDE4Y756W7ZK7A7EO2C9XJE5NH", "dateTime": 1519150017707}, {"current_trial": 68, "trialdata": {"rt": -1000, "trial_type": "single-audio", "word": "ghetto", "stimulus": "/static/audio/wordpool/GHETTO.wav", "conditions": [18, 1200, "a", 18000], "internal_node_id": "0.0-50.0", "trial": 1, "time_elapsed": 424365, "serialpos": 13, "key_press": -1, "wordID": 632, "type": "PRES_AUD", "trial_index": 68}, "uniqueid": "MTK2599:3DBQWDE4Y756W7ZK7A7EO2C9XJE5NH", "dateTime": 1519150019838}, {"current_trial": 69, "trialdata": {"rt": -1000, "trial_type": "single-audio", "word": "shoulder", "stimulus": "/static/audio/wordpool/SHOULDER.wav", "conditions": [18, 1200, "a", 18000], "internal_node_id": "0.0-51.0", "trial": 1, "time_elapsed": 426657, "serialpos": 14, "key_press": -1, "wordID": 1293, "type": "PRES_AUD", "trial_index": 69}, "uniqueid": "MTK2599:3DBQWDE4Y756W7ZK7A7EO2C9XJE5NH", "dateTime": 1519150022122}, {"current_trial": 70, "trialdata": {"rt": -1000, "trial_type": "single-audio", "word": "chemist", "stimulus": "/static/audio/wordpool/CHEMIST.wav", "conditions": [18, 1200, "a", 18000], "internal_node_id": "0.0-52.0", "trial": 1, "time_elapsed": 429010, "serialpos": 15, "key_press": -1, "wordID": 291, "type": "PRES_AUD", "trial_index": 70}, "uniqueid": "MTK2599:3DBQWDE4Y756W7ZK7A7EO2C9XJE5NH", "dateTime": 1519150024475}, {"current_trial": 71, "trialdata": {"rt": -1000, "trial_type": "single-audio", "word": "hook", "stimulus": "/static/audio/wordpool/HOOK.wav", "conditions": [18, 1200, "a", 18000], "internal_node_id": "0.0-53.0", "trial": 1, "time_elapsed": 431115, "serialpos": 16, "key_press": -1, "wordID": 714, "type": "PRES_AUD", "trial_index": 71}, "uniqueid": "MTK2599:3DBQWDE4Y756W7ZK7A7EO2C9XJE5NH", "dateTime": 1519150026580}, {"current_trial": 72, "trialdata": {"rt": -1000, "trial_type": "single-audio", "word": "victim", "stimulus": "/static/audio/wordpool/VICTIM.wav", "conditions": [18, 1200, "a", 18000], "internal_node_id": "0.0-54.0", "trial": 1, "time_elapsed": 433464, "serialpos": 17, "key_press": -1, "wordID": 1561, "type": "PRES_AUD", "trial_index": 72}, "uniqueid": "MTK2599:3DBQWDE4Y756W7ZK7A7EO2C9XJE5NH", "dateTime": 1519150028929}, {"current_trial": 73, "trialdata": {"rt": -1, "trial_type": "single-stim", "stimulus": "", "internal_node_id": "0.0-55.0-0.0", "time_elapsed": 434758, "key_press": -1, "type": "PRE_RECALL_DELAY", "trial_index": 73}, "uniqueid": "MTK2599:3DBQWDE4Y756W7ZK7A7EO2C9XJE5NH", "dateTime": 1519150030223}, {"current_trial": 74, "trialdata": {"rt": -1000, "trial_type": "single-audio", "stimulus": "/static/audio/400Hz.wav", "internal_node_id": "0.0-56.0", "time_elapsed": 435260, "key_press": -1, "type": "PRE_RECALL_ALERT", "trial_index": 74}, "uniqueid": "MTK2599:3DBQWDE4Y756W7ZK7A7EO2C9XJE5NH", "dateTime": 1519150030725}, {"current_trial": 75, "trialdata": {"rt": [4551, 7799, 10343, 11967, 13678, 17382, 19215, 20822, 23606, 25463], "recwords": ["partner", "tombstone", "lettuce", "icing", "ghetto", "shoulder", "chemist", "cousin", "hook", "victim"], "key_times": [3023, 3247, 3407, 3679, 4007, 4216, 4351, 4551, 6199, 6335, 6503, 6855, 7063, 7263, 7352, 7431, 7567, 7799, 8865, 8991, 9192, 9367, 9551, 9847, 10144, 10343, 11119, 11295, 11423, 11495, 11656, 11967, 12376, 12679, 12839, 13088, 13263, 13375, 13678, 13887, 14080, 14456, 15087, 15447, 15631, 15903, 16056, 16262, 16375, 17382, 18071, 18247, 18447, 18607, 18799, 18927, 19071, 19215, 19527, 19639, 19863, 20056, 20143, 20263, 20822, 21391, 21902, 22110, 22286, 23007, 23279, 23606, 24247, 24384, 24574, 24887, 24975, 25087, 25463], "trial_type": "free-recall", "conditions": [18, 1200, "a", 18000], "internal_node_id": "0.0-57.0-0.0", "key_presses": [80, 65, 82, 84, 78, 69, 82, 13, 84, 79, 77, 66, 83, 84, 79, 78, 69, 13, 76, 69, 84, 84, 85, 67, 69, 13, 73, 67, 73, 78, 71, 13, 71, 72, 69, 84, 84, 79, 13, 83, 72, 85, 8, 79, 85, 76, 68, 69, 82, 13, 67, 72, 69, 77, 73, 83, 84, 13, 67, 79, 85, 83, 73, 78, 13, 72, 79, 79, 79, 8, 75, 13, 86, 73, 67, 84, 73, 77, 13], "trial": 1, "time_elapsed": 495266, "type": "FREE_RECALL", "trial_index": 75}, "uniqueid": "MTK2599:3DBQWDE4Y756W7ZK7A7EO2C9XJE5NH", "dateTime": 1519150090734}, {"current_trial": 76, "trialdata": {"rt": 5200, "trial_type": "text", "internal_node_id": "0.0-58.0", "time_elapsed": 502472, "key_press": 32, "type": "INSTRUCTIONS", "trial_index": 76}, "uniqueid": "MTK2599:3DBQWDE4Y756W7ZK7A7EO2C9XJE5NH", "dateTime": 1519150097937}, {"current_trial": 77, "trialdata": {"rt": [6964, 10132], "trial_type": "math-distractor", "key_times": [5900, 6172, 6964, 9470, 9788, 10132], "responses": ["15", "19"], "num2": [4, 9, 3], "num3": [7, 2, 8], "conditions": [12, 1600, "a", 12000], "internal_node_id": "0.0-59.0", "key_presses": [97, 101, 13, 97, 105, 13], "trial": 2, "time_elapsed": 515475, "type": "DISTRACTOR", "trial_index": 77, "num1": [4, 8, 5]}, "uniqueid": "MTK2599:3DBQWDE4Y756W7ZK7A7EO2C9XJE5NH", "dateTime": 1519150110940}, {"current_trial": 78, "trialdata": {"rt": -1, "trial_type": "single-stim", "stimulus": "<p id=\"stim\">10</p>", "internal_node_id": "0.0-60.0-0.0", "time_elapsed": 518478, "key_press": -1, "trial_index": 78}, "uniqueid": "MTK2599:3DBQWDE4Y756W7ZK7A7EO2C9XJE5NH", "dateTime": 1519150113943}, {"current_trial": 79, "trialdata": {"rt": -1, "trial_type": "single-stim", "stimulus": "<p id=\"stim\">9</p>", "internal_node_id": "0.0-60.0-1.0", "time_elapsed": 519479, "key_press": -1, "trial_index": 79}, "uniqueid": "MTK2599:3DBQWDE4Y756W7ZK7A7EO2C9XJE5NH", "dateTime": 1519150114944}, {"current_trial": 80, "trialdata": {"rt": -1, "trial_type": "single-stim", "stimulus": "<p id=\"stim\">8</p>", "internal_node_id": "0.0-60.0-2.0", "time_elapsed": 520480, "key_press": -1, "trial_index": 80}, "uniqueid": "MTK2599:3DBQWDE4Y756W7ZK7A7EO2C9XJE5NH", "dateTime": 1519150115945}, {"current_trial": 81, "trialdata": {"rt": -1, "trial_type": "single-stim", "stimulus": "<p id=\"stim\">7</p>", "internal_node_id": "0.0-60.0-3.0", "time_elapsed": 521481, "key_press": -1, "trial_index": 81}, "uniqueid": "MTK2599:3DBQWDE4Y756W7ZK7A7EO2C9XJE5NH", "dateTime": 1519150116946}, {"current_trial": 82, "trialdata": {"rt": -1, "trial_type": "single-stim", "stimulus": "<p id=\"stim\">6</p>", "internal_node_id": "0.0-60.0-4.0", "time_elapsed": 522482, "key_press": -1, "trial_index": 82}, "uniqueid": "MTK2599:3DBQWDE4Y756W7ZK7A7EO2C9XJE5NH", "dateTime": 1519150117947}, {"current_trial": 83, "trialdata": {"rt": -1, "trial_type": "single-stim", "stimulus": "<p id=\"stim\">5</p>", "internal_node_id": "0.0-60.0-5.0", "time_elapsed": 523483, "key_press": -1, "trial_index": 83}, "uniqueid": "MTK2599:3DBQWDE4Y756W7ZK7A7EO2C9XJE5NH", "dateTime": 1519150118948}, {"current_trial": 84, "trialdata": {"rt": -1, "trial_type": "single-stim", "stimulus": "<p id=\"stim\">4</p>", "internal_node_id": "0.0-60.0-6.0", "time_elapsed": 524484, "key_press": -1, "trial_index": 84}, "uniqueid": "MTK2599:3DBQWDE4Y756W7ZK7A7EO2C9XJE5NH", "dateTime": 1519150119949}, {"current_trial": 85, "trialdata": {"rt": -1, "trial_type": "single-stim", "stimulus": "<p id=\"stim\">3</p>", "internal_node_id": "0.0-60.0-7.0", "time_elapsed": 525485, "key_press": -1, "trial_index": 85}, "uniqueid": "MTK2599:3DBQWDE4Y756W7ZK7A7EO2C9XJE5NH", "dateTime": 1519150120950}, {"current_trial": 86, "trialdata": {"rt": -1, "trial_type": "single-stim", "stimulus": "<p id=\"stim\">2</p>", "internal_node_id": "0.0-60.0-8.0", "time_elapsed": 526486, "key_press": -1, "trial_index": 86}, "uniqueid": "MTK2599:3DBQWDE4Y756W7ZK7A7EO2C9XJE5NH", "dateTime": 1519150121951}, {"current_trial": 87, "trialdata": {"rt": -1, "trial_type": "single-stim", "stimulus": "<p id=\"stim\">1</p>", "internal_node_id": "0.0-60.0-9.0", "time_elapsed": 527487, "key_press": -1, "trial_index": 87}, "uniqueid": "MTK2599:3DBQWDE4Y756W7ZK7A7EO2C9XJE5NH", "dateTime": 1519150122952}, {"current_trial": 88, "trialdata": {"rt": -1, "trial_type": "single-stim", "stimulus": "<p id=\"stim\">+</p>", "internal_node_id": "0.0-61.0-0.0", "time_elapsed": 528988, "key_press": -1, "type": "FIXATION", "trial_index": 88}, "uniqueid": "MTK2599:3DBQWDE4Y756W7ZK7A7EO2C9XJE5NH", "dateTime": 1519150124454}, {"current_trial": 89, "trialdata": {"rt": -1000, "trial_type": "single-audio", "word": "wasp", "stimulus": "/static/audio/wordpool/WASP.wav", "conditions": [12, 1600, "a", 12000], "internal_node_id": "0.0-62.0", "trial": 2, "time_elapsed": 531730, "serialpos": 0, "key_press": -1, "wordID": 1592, "type": "PRES_AUD", "trial_index": 89}, "uniqueid": "MTK2599:3DBQWDE4Y756W7ZK7A7EO2C9XJE5NH", "dateTime": 1519150127195}, {"current_trial": 90, "trialdata": {"rt": -1000, "trial_type": "single-audio", "word": "robin", "stimulus": "/static/audio/wordpool/ROBIN.wav", "conditions": [12, 1600, "a", 12000], "internal_node_id": "0.0-63.0", "trial": 2, "time_elapsed": 534302, "serialpos": 1, "key_press": -1, "wordID": 1198, "type": "PRES_AUD", "trial_index": 90}, "uniqueid": "MTK2599:3DBQWDE4Y756W7ZK7A7EO2C9XJE5NH", "dateTime": 1519150129768}, {"current_trial": 91, "trialdata": {"rt": -1000, "trial_type": "single-audio", "word": "cobra", "stimulus": "/static/audio/wordpool/COBRA.wav", "conditions": [12, 1600, "a", 12000], "internal_node_id": "0.0-64.0", "trial": 2, "time_elapsed": 536729, "serialpos": 2, "key_press": -1, "wordID": 335, "type": "PRES_AUD", "trial_index": 91}, "uniqueid": "MTK2599:3DBQWDE4Y756W7ZK7A7EO2C9XJE5NH", "dateTime": 1519150132196}, {"current_trial": 92, "trialdata": {"rt": -1000, "trial_type": "single-audio", "word": "garlic", "stimulus": "/static/audio/wordpool/GARLIC.wav", "conditions": [12, 1600, "a", 12000], "internal_node_id": "0.0-65.0", "trial": 2, "time_elapsed": 539354, "serialpos": 3, "key_press": -1, "wordID": 623, "type": "PRES_AUD", "trial_index": 92}, "uniqueid": "MTK2599:3DBQWDE4Y756W7ZK7A7EO2C9XJE5NH", "dateTime": 1519150134819}, {"current_trial": 93, "trialdata": {"rt": -1000, "trial_type": "single-audio", "word": "label", "stimulus": "/static/audio/wordpool/LABEL.wav", "conditions": [12, 1600, "a", 12000], "internal_node_id": "0.0-66.0", "trial": 2, "time_elapsed": 542127, "serialpos": 4, "key_press": -1, "wordID": 789, "type": "PRES_AUD", "trial_index": 93}, "uniqueid": "MTK2599:3DBQWDE4Y756W7ZK7A7EO2C9XJE5NH", "dateTime": 1519150137592}, {"current_trial": 94, "trialdata": {"rt": -1000, "trial_type": "single-audio", "word": "widow", "stimulus": "/static/audio/wordpool/WIDOW.wav", "conditions": [12, 1600, "a", 12000], "internal_node_id": "0.0-67.0", "trial": 2, "time_elapsed": 544562, "serialpos": 5, "key_press": -1, "wordID": 1607, "type": "PRES_AUD", "trial_index": 94}, "uniqueid": "MTK2599:3DBQWDE4Y756W7ZK7A7EO2C9XJE5NH", "dateTime": 1519150140027}, {"current_trial": 95, "trialdata": {"rt": -1000, "trial_type": "single-audio", "word": "lady", "stimulus": "/static/audio/wordpool/LADY.wav", "conditions": [12, 1600, "a", 12000], "internal_node_id": "0.0-68.0", "trial": 2, "time_elapsed": 547041, "serialpos": 6, "key_press": -1, "wordID": 793, "type": "PRES_AUD", "trial_index": 95}, "uniqueid": "MTK2599:3DBQWDE4Y756W7ZK7A7EO2C9XJE5NH", "dateTime": 1519150142506}, {"current_trial": 96, "trialdata": {"rt": -1000, "trial_type": "single-audio", "word": "treat", "stimulus": "/static/audio/wordpool/TREAT.wav", "conditions": [12, 1600, "a", 12000], "internal_node_id": "0.0-69.0", "trial": 2, "time_elapsed": 549728, "serialpos": 7, "key_press": -1, "wordID": 1500, "type": "PRES_AUD", "trial_index": 96}, "uniqueid": "MTK2599:3DBQWDE4Y756W7ZK7A7EO2C9XJE5NH", "dateTime": 1519150145193}, {"current_trial": 97, "trialdata": {"rt": -1000, "trial_type": "single-audio", "word": "valley", "stimulus": "/static/audio/wordpool/VALLEY.wav", "conditions": [12, 1600, "a", 12000], "internal_node_id": "0.0-70.0", "trial": 2, "time_elapsed": 552376, "serialpos": 8, "key_press": -1, "wordID": 1544, "type": "PRES_AUD", "trial_index": 97}, "uniqueid": "MTK2599:3DBQWDE4Y756W7ZK7A7EO2C9XJE5NH", "dateTime": 1519150147841}, {"current_trial": 98, "trialdata": {"rt": -1000, "trial_type": "single-audio", "word": "flashlight", "stimulus": "/static/audio/wordpool/FLASHLIGHT.wav", "conditions": [12, 1600, "a", 12000], "internal_node_id": "0.0-71.0", "trial": 2, "time_elapsed": 555050, "serialpos": 9, "key_press": -1, "wordID": 574, "type": "PRES_AUD", "trial_index": 98}, "uniqueid": "MTK2599:3DBQWDE4Y756W7ZK7A7EO2C9XJE5NH", "dateTime": 1519150150515}, {"current_trial": 99, "trialdata": {"rt": -1000, "trial_type": "single-audio", "word": "lizard", "stimulus": "/static/audio/wordpool/LIZARD.wav", "conditions": [12, 1600, "a", 12000], "internal_node_id": "0.0-72.0", "trial": 2, "time_elapsed": 557487, "serialpos": 10, "key_press": -1, "wordID": 833, "type": "PRES_AUD", "trial_index": 99}, "uniqueid": "MTK2599:3DBQWDE4Y756W7ZK7A7EO2C9XJE5NH", "dateTime": 1519150152952}, {"current_trial": 100, "trialdata": {"rt": -1000, "trial_type": "single-audio", "word": "handbag", "stimulus": "/static/audio/wordpool/HANDBAG.wav", "conditions": [12, 1600, "a", 12000], "internal_node_id": "0.0-73.0", "trial": 2, "time_elapsed": 559915, "serialpos": 11, "key_press": -1, "wordID": 683, "type": "PRES_AUD", "trial_index": 100}, "uniqueid": "MTK2599:3DBQWDE4Y756W7ZK7A7EO2C9XJE5NH", "dateTime": 1519150155380}, {"current_trial": 101, "trialdata": {"rt": -1, "trial_type": "single-stim", "stimulus": "", "internal_node_id": "0.0-74.0-0.0", "time_elapsed": 561193, "key_press": -1, "type": "PRE_RECALL_DELAY", "trial_index": 101}, "uniqueid": "MTK2599:3DBQWDE4Y756W7ZK7A7EO2C9XJE5NH", "dateTime": 1519150156658}, {"current_trial": 102, "trialdata": {"rt": -1000, "trial_type": "single-audio", "stimulus": "/static/audio/400Hz.wav", "internal_node_id": "0.0-75.0", "time_elapsed": 561693, "key_press": -1, "type": "PRE_RECALL_ALERT", "trial_index": 102}, "uniqueid": "MTK2599:3DBQWDE4Y756W7ZK7A7EO2C9XJE5NH", "dateTime": 1519150157160}, {"current_trial": 103, "trialdata": {"rt": [3434, 6349, 8981, 13190, 16246, 19508, 24356], "recwords": ["handbag", "wasp", "robin", "garlic", "widow", "valley", "flashlight"], "key_times": [2117, 2310, 2478, 2646, 2822, 2950, 3165, 3434, 4765, 4998, 5277, 5446, 6349, 7717, 7989, 8310, 8431, 8581, 8981, 12149, 12294, 12453, 12606, 12806, 12966, 13190, 15206, 15340, 15574, 15710, 15957, 16246, 17509, 17661, 18021, 18270, 18686, 19110, 19508, 21438, 21645, 21830, 22662, 22909, 23230, 23501, 23790, 23909, 24110, 24356], "trial_type": "free-recall", "conditions": [12, 1600, "a", 12000], "internal_node_id": "0.0-76.0-0.0", "key_presses": [72, 65, 78, 68, 66, 65, 71, 13, 87, 65, 83, 80, 13, 82, 79, 66, 73, 78, 13, 71, 65, 82, 76, 73, 67, 13, 87, 73, 68, 79, 87, 13, 86, 65, 76, 76, 69, 89, 13, 70, 76, 65, 83, 72, 76, 73, 71, 72, 84, 13], "trial": 2, "time_elapsed": 621698, "type": "FREE_RECALL", "trial_index": 103}, "uniqueid": "MTK2599:3DBQWDE4Y756W7ZK7A7EO2C9XJE5NH", "dateTime": 1519150217168}, {"current_trial": 104, "trialdata": {"rt": 2975, "trial_type": "text", "internal_node_id": "0.0-77.0", "time_elapsed": 626678, "key_press": 32, "type": "INSTRUCTIONS", "trial_index": 104}, "uniqueid": "MTK2599:3DBQWDE4Y756W7ZK7A7EO2C9XJE5NH", "dateTime": 1519150222144}, {"current_trial": 105, "trialdata": {"rt": [7324, 12956, 15613, 20436], "trial_type": "math-distractor", "key_times": [6438, 6766, 7324, 10726, 10981, 11005, 11796, 11982, 12605, 12956, 15245, 15613, 19845, 20157, 20436], "responses": ["15", "18", "8", "13"], "num2": [1, 2, 3, 5, 8], "num3": [5, 7, 1, 2, 9], "conditions": [12, 800, "a", 24000], "internal_node_id": "0.0-78.0", "key_presses": [97, 101, 13, 97, 101, 104, 8, 8, 104, 13, 104, 13, 97, 99, 13], "trial": 3, "time_elapsed": 652681, "type": "DISTRACTOR", "trial_index": 105, "num1": [9, 9, 4, 6, 5]}, "uniqueid": "MTK2599:3DBQWDE4Y756W7ZK7A7EO2C9XJE5NH", "dateTime": 1519150248146}, {"current_trial": 106, "trialdata": {"rt": -1, "trial_type": "single-stim", "stimulus": "<p id=\"stim\">10</p>", "internal_node_id": "0.0-79.0-0.0", "time_elapsed": 655682, "key_press": -1, "trial_index": 106}, "uniqueid": "MTK2599:3DBQWDE4Y756W7ZK7A7EO2C9XJE5NH", "dateTime": 1519150251147}, {"current_trial": 107, "trialdata": {"rt": -1, "trial_type": "single-stim", "stimulus": "<p id=\"stim\">9</p>", "internal_node_id": "0.0-79.0-1.0", "time_elapsed": 656684, "key_press": -1, "trial_index": 107}, "uniqueid": "MTK2599:3DBQWDE4Y756W7ZK7A7EO2C9XJE5NH", "dateTime": 1519150252149}, {"current_trial": 108, "trialdata": {"rt": -1, "trial_type": "single-stim", "stimulus": "<p id=\"stim\">8</p>", "internal_node_id": "0.0-79.0-2.0", "time_elapsed": 657685, "key_press": -1, "trial_index": 108}, "uniqueid": "MTK2599:3DBQWDE4Y756W7ZK7A7EO2C9XJE5NH", "dateTime": 1519150253150}, {"current_trial": 109, "trialdata": {"rt": -1, "trial_type": "single-stim", "stimulus": "<p id=\"stim\">7</p>", "internal_node_id": "0.0-79.0-3.0", "time_elapsed": 658686, "key_press": -1, "trial_index": 109}, "uniqueid": "MTK2599:3DBQWDE4Y756W7ZK7A7EO2C9XJE5NH", "dateTime": 1519150254151}, {"current_trial": 110, "trialdata": {"rt": -1, "trial_type": "single-stim", "stimulus": "<p id=\"stim\">6</p>", "internal_node_id": "0.0-79.0-4.0", "time_elapsed": 659688, "key_press": -1, "trial_index": 110}, "uniqueid": "MTK2599:3DBQWDE4Y756W7ZK7A7EO2C9XJE5NH", "dateTime": 1519150255153}, {"current_trial": 111, "trialdata": {"rt": -1, "trial_type": "single-stim", "stimulus": "<p id=\"stim\">5</p>", "internal_node_id": "0.0-79.0-5.0", "time_elapsed": 660690, "key_press": -1, "trial_index": 111}, "uniqueid": "MTK2599:3DBQWDE4Y756W7ZK7A7EO2C9XJE5NH", "dateTime": 1519150256155}, {"current_trial": 112, "trialdata": {"rt": -1, "trial_type": "single-stim", "stimulus": "<p id=\"stim\">4</p>", "internal_node_id": "0.0-79.0-6.0", "time_elapsed": 661691, "key_press": -1, "trial_index": 112}, "uniqueid": "MTK2599:3DBQWDE4Y756W7ZK7A7EO2C9XJE5NH", "dateTime": 1519150257156}, {"current_trial": 113, "trialdata": {"rt": -1, "trial_type": "single-stim", "stimulus": "<p id=\"stim\">3</p>", "internal_node_id": "0.0-79.0-7.0", "time_elapsed": 662692, "key_press": -1, "trial_index": 113}, "uniqueid": "MTK2599:3DBQWDE4Y756W7ZK7A7EO2C9XJE5NH", "dateTime": 1519150258157}, {"current_trial": 114, "trialdata": {"rt": -1, "trial_type": "single-stim", "stimulus": "<p id=\"stim\">2</p>", "internal_node_id": "0.0-79.0-8.0", "time_elapsed": 663692, "key_press": -1, "trial_index": 114}, "uniqueid": "MTK2599:3DBQWDE4Y756W7ZK7A7EO2C9XJE5NH", "dateTime": 1519150259157}, {"current_trial": 115, "trialdata": {"rt": -1, "trial_type": "single-stim", "stimulus": "<p id=\"stim\">1</p>", "internal_node_id": "0.0-79.0-9.0", "time_elapsed": 664693, "key_press": -1, "trial_index": 115}, "uniqueid": "MTK2599:3DBQWDE4Y756W7ZK7A7EO2C9XJE5NH", "dateTime": 1519150260158}, {"current_trial": 116, "trialdata": {"rt": -1, "trial_type": "single-stim", "stimulus": "<p id=\"stim\">+</p>", "internal_node_id": "0.0-80.0-0.0", "time_elapsed": 666194, "key_press": -1, "type": "FIXATION", "trial_index": 116}, "uniqueid": "MTK2599:3DBQWDE4Y756W7ZK7A7EO2C9XJE5NH", "dateTime": 1519150261659}, {"current_trial": 117, "trialdata": {"rt": -1000, "trial_type": "single-audio", "word": "package", "stimulus": "/static/audio/wordpool/PACKAGE.wav", "conditions": [12, 800, "a", 24000], "internal_node_id": "0.0-81.0", "trial": 3, "time_elapsed": 667976, "serialpos": 0, "key_press": -1, "wordID": 996, "type": "PRES_AUD", "trial_index": 117}, "uniqueid": "MTK2599:3DBQWDE4Y756W7ZK7A7EO2C9XJE5NH", "dateTime": 1519150263441}, {"current_trial": 118, "trialdata": {"rt": -1000, "trial_type": "single-audio", "word": "france", "stimulus": "/static/audio/wordpool/FRANCE.wav", "conditions": [12, 800, "a", 24000], "internal_node_id": "0.0-82.0", "trial": 3, "time_elapsed": 669819, "serialpos": 1, "key_press": -1, "wordID": 600, "type": "PRES_AUD", "trial_index": 118}, "uniqueid": "MTK2599:3DBQWDE4Y756W7ZK7A7EO2C9XJE5NH", "dateTime": 1519150265285}, {"current_trial": 119, "trialdata": {"rt": -1000, "trial_type": "single-audio", "word": "europe", "stimulus": "/static/audio/wordpool/EUROPE.wav", "conditions": [12, 800, "a", 24000], "internal_node_id": "0.0-83.0", "trial": 3, "time_elapsed": 671494, "serialpos": 2, "key_press": -1, "wordID": 540, "type": "PRES_AUD", "trial_index": 119}, "uniqueid": "MTK2599:3DBQWDE4Y756W7ZK7A7EO2C9XJE5NH", "dateTime": 1519150266959}, {"current_trial": 120, "trialdata": {"rt": -1000, "trial_type": "single-audio", "word": "peach", "stimulus": "/static/audio/wordpool/PEACH.wav", "conditions": [12, 800, "a", 24000], "internal_node_id": "0.0-84.0", "trial": 3, "time_elapsed": 673266, "serialpos": 3, "key_press": -1, "wordID": 1030, "type": "PRES_AUD", "trial_index": 120}, "uniqueid": "MTK2599:3DBQWDE4Y756W7ZK7A7EO2C9XJE5NH", "dateTime": 1519150268731}, {"current_trial": 121, "trialdata": {"rt": -1000, "trial_type": "single-audio", "word": "banquet", "stimulus": "/static/audio/wordpool/BANQUET.wav", "conditions": [12, 800, "a", 24000], "internal_node_id": "0.0-85.0", "trial": 3, "time_elapsed": 674987, "serialpos": 4, "key_press": -1, "wordID": 85, "type": "PRES_AUD", "trial_index": 121}, "uniqueid": "MTK2599:3DBQWDE4Y756W7ZK7A7EO2C9XJE5NH", "dateTime": 1519150270452}, {"current_trial": 122, "trialdata": {"rt": -1000, "trial_type": "single-audio", "word": "goblin", "stimulus": "/static/audio/wordpool/GOBLIN.wav", "conditions": [12, 800, "a", 24000], "internal_node_id": "0.0-86.0", "trial": 3, "time_elapsed": 676605, "serialpos": 5, "key_press": -1, "wordID": 644, "type": "PRES_AUD", "trial_index": 122}, "uniqueid": "MTK2599:3DBQWDE4Y756W7ZK7A7EO2C9XJE5NH", "dateTime": 1519150272070}, {"current_trial": 123, "trialdata": {"rt": -1000, "trial_type": "single-audio", "word": "freezer", "stimulus": "/static/audio/wordpool/FREEZER.wav", "conditions": [12, 800, "a", 24000], "internal_node_id": "0.0-87.0", "trial": 3, "time_elapsed": 678557, "serialpos": 6, "key_press": -1, "wordID": 603, "type": "PRES_AUD", "trial_index": 123}, "uniqueid": "MTK2599:3DBQWDE4Y756W7ZK7A7EO2C9XJE5NH", "dateTime": 1519150274022}, {"current_trial": 124, "trialdata": {"rt": -1000, "trial_type": "single-audio", "word": "bouquet", "stimulus": "/static/audio/wordpool/BOUQUET.wav", "conditions": [12, 800, "a", 24000], "internal_node_id": "0.0-88.0", "trial": 3, "time_elapsed": 680544, "serialpos": 7, "key_press": -1, "wordID": 156, "type": "PRES_AUD", "trial_index": 124}, "uniqueid": "MTK2599:3DBQWDE4Y756W7ZK7A7EO2C9XJE5NH", "dateTime": 1519150276009}, {"current_trial": 125, "trialdata": {"rt": -1000, "trial_type": "single-audio", "word": "chipmunk", "stimulus": "/static/audio/wordpool/CHIPMUNK.wav", "conditions": [12, 800, "a", 24000], "internal_node_id": "0.0-89.0", "trial": 3, "time_elapsed": 682495, "serialpos": 8, "key_press": -1, "wordID": 303, "type": "PRES_AUD", "trial_index": 125}, "uniqueid": "MTK2599:3DBQWDE4Y756W7ZK7A7EO2C9XJE5NH", "dateTime": 1519150277960}, {"current_trial": 126, "trialdata": {"rt": -1000, "trial_type": "single-audio", "word": "machine", "stimulus": "/static/audio/wordpool/MACHINE.wav", "conditions": [12, 800, "a", 24000], "internal_node_id": "0.0-90.0", "trial": 3, "time_elapsed": 684349, "serialpos": 9, "key_press": -1, "wordID": 851, "type": "PRES_AUD", "trial_index": 126}, "uniqueid": "MTK2599:3DBQWDE4Y756W7ZK7A7EO2C9XJE5NH", "dateTime": 1519150279814}, {"current_trial": 127, "trialdata": {"rt": -1000, "trial_type": "single-audio", "word": "custard", "stimulus": "/static/audio/wordpool/CUSTARD.wav", "conditions": [12, 800, "a", 24000], "internal_node_id": "0.0-91.0", "trial": 3, "time_elapsed": 686175, "serialpos": 10, "key_press": -1, "wordID": 428, "type": "PRES_AUD", "trial_index": 127}, "uniqueid": "MTK2599:3DBQWDE4Y756W7ZK7A7EO2C9XJE5NH", "dateTime": 1519150281641}, {"current_trial": 128, "trialdata": {"rt": -1000, "trial_type": "single-audio", "word": "bunny", "stimulus": "/static/audio/wordpool/BUNNY.wav", "conditions": [12, 800, "a", 24000], "internal_node_id": "0.0-92.0", "trial": 3, "time_elapsed": 688079, "serialpos": 11, "key_press": -1, "wordID": 197, "type": "PRES_AUD", "trial_index": 128}, "uniqueid": "MTK2599:3DBQWDE4Y756W7ZK7A7EO2C9XJE5NH", "dateTime": 1519150283544}, {"current_trial": 129, "trialdata": {"rt": -1, "trial_type": "single-stim", "stimulus": "", "internal_node_id": "0.0-93.0-0.0", "time_elapsed": 689335, "key_press": -1, "type": "PRE_RECALL_DELAY", "trial_index": 129}, "uniqueid": "MTK2599:3DBQWDE4Y756W7ZK7A7EO2C9XJE5NH", "dateTime": 1519150284800}, {"current_trial": 130, "trialdata": {"rt": -1000, "trial_type": "single-audio", "stimulus": "/static/audio/400Hz.wav", "internal_node_id": "0.0-94.0", "time_elapsed": 689835, "key_press": -1, "type": "PRE_RECALL_ALERT", "trial_index": 130}, "uniqueid": "MTK2599:3DBQWDE4Y756W7ZK7A7EO2C9XJE5NH", "dateTime": 1519150285300}, {"current_trial": 131, "trialdata": {"rt": [2447, 5038, 7631, 9015, 10464, 11814], "recwords": ["package", "bunny", "custard", "machine", "france", "europe"], "key_times": [1104, 1320, 1488, 1688, 1839, 2031, 2175, 2447, 3392, 3639, 3880, 4008, 4927, 5038, 5423, 5824, 5999, 6840, 6991, 7182, 7456, 7631, 7888, 8015, 8192, 8360, 8536, 8671, 8808, 9015, 9503, 9767, 9919, 10024, 10216, 10344, 10464, 10632, 10839, 11111, 11232, 11360, 11640, 11814], "trial_type": "free-recall", "conditions": [12, 800, "a", 24000], "internal_node_id": "0.0-95.0-0.0", "key_presses": [80, 65, 67, 75, 65, 71, 69, 13, 66, 85, 78, 78, 89, 13, 67, 85, 83, 84, 65, 82, 68, 13, 77, 65, 67, 72, 73, 78, 69, 13, 70, 82, 65, 78, 67, 69, 13, 69, 85, 82, 79, 80, 69, 13], "trial": 3, "time_elapsed": 749840, "type": "FREE_RECALL", "trial_index": 131}, "uniqueid": "MTK2599:3DBQWDE4Y756W7ZK7A7EO2C9XJE5NH", "dateTime": 1519150345307}, {"current_trial": 132, "trialdata": {"rt": 1994, "trial_type": "text", "internal_node_id": "0.0-96.0", "time_elapsed": 753838, "key_press": 32, "type": "INSTRUCTIONS", "trial_index": 132}, "uniqueid": "MTK2599:3DBQWDE4Y756W7ZK7A7EO2C9XJE5NH", "dateTime": 1519150349303}, {"current_trial": 133, "trialdata": {"rt": [3759, 6535, 9072, 11391], "trial_type": "math-distractor", "key_times": [3055, 3254, 3759, 6024, 6166, 6535, 8608, 8783, 9072, 10960, 11112, 11391], "responses": ["17", "10", "15", "15"], "num2": [8, 1, 5, 2, 7], "num3": [7, 3, 3, 8, 7], "conditions": [12, 800, "a", 12000], "internal_node_id": "0.0-97.0", "key_presses": [97, 103, 13, 97, 96, 13, 97, 101, 13, 97, 101, 13], "trial": 4, "time_elapsed": 767840, "type": "DISTRACTOR", "trial_index": 133, "num1": [2, 6, 7, 5, 9]}, "uniqueid": "MTK2599:3DBQWDE4Y756W7ZK7A7EO2C9XJE5NH", "dateTime": 1519150363305}, {"current_trial": 134, "trialdata": {"rt": -1, "trial_type": "single-stim", "stimulus": "<p id=\"stim\">10</p>", "internal_node_id": "0.0-98.0-0.0", "time_elapsed": 770842, "key_press": -1, "trial_index": 134}, "uniqueid": "MTK2599:3DBQWDE4Y756W7ZK7A7EO2C9XJE5NH", "dateTime": 1519150366307}, {"current_trial": 135, "trialdata": {"rt": -1, "trial_type": "single-stim", "stimulus": "<p id=\"stim\">9</p>", "internal_node_id": "0.0-98.0-1.0", "time_elapsed": 771843, "key_press": -1, "trial_index": 135}, "uniqueid": "MTK2599:3DBQWDE4Y756W7ZK7A7EO2C9XJE5NH", "dateTime": 1519150367308}, {"current_trial": 136, "trialdata": {"rt": -1, "trial_type": "single-stim", "stimulus": "<p id=\"stim\">8</p>", "internal_node_id": "0.0-98.0-2.0", "time_elapsed": 772844, "key_press": -1, "trial_index": 136}, "uniqueid": "MTK2599:3DBQWDE4Y756W7ZK7A7EO2C9XJE5NH", "dateTime": 1519150368309}, {"current_trial": 137, "trialdata": {"rt": -1, "trial_type": "single-stim", "stimulus": "<p id=\"stim\">7</p>", "internal_node_id": "0.0-98.0-3.0", "time_elapsed": 773844, "key_press": -1, "trial_index": 137}, "uniqueid": "MTK2599:3DBQWDE4Y756W7ZK7A7EO2C9XJE5NH", "dateTime": 1519150369309}, {"current_trial": 138, "trialdata": {"rt": -1, "trial_type": "single-stim", "stimulus": "<p id=\"stim\">6</p>", "internal_node_id": "0.0-98.0-4.0", "time_elapsed": 774846, "key_press": -1, "trial_index": 138}, "uniqueid": "MTK2599:3DBQWDE4Y756W7ZK7A7EO2C9XJE5NH", "dateTime": 1519150370311}, {"current_trial": 139, "trialdata": {"rt": -1, "trial_type": "single-stim", "stimulus": "<p id=\"stim\">5</p>", "internal_node_id": "0.0-98.0-5.0", "time_elapsed": 775847, "key_press": -1, "trial_index": 139}, "uniqueid": "MTK2599:3DBQWDE4Y756W7ZK7A7EO2C9XJE5NH", "dateTime": 1519150371312}, {"current_trial": 140, "trialdata": {"rt": -1, "trial_type": "single-stim", "stimulus": "<p id=\"stim\">4</p>", "internal_node_id": "0.0-98.0-6.0", "time_elapsed": 776848, "key_press": -1, "trial_index": 140}, "uniqueid": "MTK2599:3DBQWDE4Y756W7ZK7A7EO2C9XJE5NH", "dateTime": 1519150372313}, {"current_trial": 141, "trialdata": {"rt": -1, "trial_type": "single-stim", "stimulus": "<p id=\"stim\">3</p>", "internal_node_id": "0.0-98.0-7.0", "time_elapsed": 777848, "key_press": -1, "trial_index": 141}, "uniqueid": "MTK2599:3DBQWDE4Y756W7ZK7A7EO2C9XJE5NH", "dateTime": 1519150373313}, {"current_trial": 142, "trialdata": {"rt": -1, "trial_type": "single-stim", "stimulus": "<p id=\"stim\">2</p>", "internal_node_id": "0.0-98.0-8.0", "time_elapsed": 778850, "key_press": -1, "trial_index": 142}, "uniqueid": "MTK2599:3DBQWDE4Y756W7ZK7A7EO2C9XJE5NH", "dateTime": 1519150374315}, {"current_trial": 143, "trialdata": {"rt": -1, "trial_type": "single-stim", "stimulus": "<p id=\"stim\">1</p>", "internal_node_id": "0.0-98.0-9.0", "time_elapsed": 779851, "key_press": -1, "trial_index": 143}, "uniqueid": "MTK2599:3DBQWDE4Y756W7ZK7A7EO2C9XJE5NH", "dateTime": 1519150375316}, {"current_trial": 144, "trialdata": {"rt": -1, "trial_type": "single-stim", "stimulus": "<p id=\"stim\">+</p>", "internal_node_id": "0.0-99.0-0.0", "time_elapsed": 781352, "key_press": -1, "type": "FIXATION", "trial_index": 144}, "uniqueid": "MTK2599:3DBQWDE4Y756W7ZK7A7EO2C9XJE5NH", "dateTime": 1519150376817}, {"current_trial": 145, "trialdata": {"rt": -1000, "trial_type": "single-audio", "word": "kitchen", "stimulus": "/static/audio/wordpool/KITCHEN.wav", "conditions": [12, 800, "a", 12000], "internal_node_id": "0.0-100.0", "trial": 4, "time_elapsed": 783201, "serialpos": 0, "key_press": -1, "wordID": 777, "type": "PRES_AUD", "trial_index": 145}, "uniqueid": "MTK2599:3DBQWDE4Y756W7ZK7A7EO2C9XJE5NH", "dateTime": 1519150378667}, {"current_trial": 146, "trialdata": {"rt": -1000, "trial_type": "single-audio", "word": "judge", "stimulus": "/static/audio/wordpool/JUDGE.wav", "conditions": [12, 800, "a", 12000], "internal_node_id": "0.0-101.0", "trial": 4, "time_elapsed": 785037, "serialpos": 1, "key_press": -1, "wordID": 760, "type": "PRES_AUD", "trial_index": 146}, "uniqueid": "MTK2599:3DBQWDE4Y756W7ZK7A7EO2C9XJE5NH", "dateTime": 1519150380502}, {"current_trial": 147, "trialdata": {"rt": -1000, "trial_type": "single-audio", "word": "padding", "stimulus": "/static/audio/wordpool/PADDING.wav", "conditions": [12, 800, "a", 12000], "internal_node_id": "0.0-102.0", "trial": 4, "time_elapsed": 786820, "serialpos": 2, "key_press": -1, "wordID": 998, "type": "PRES_AUD", "trial_index": 147}, "uniqueid": "MTK2599:3DBQWDE4Y756W7ZK7A7EO2C9XJE5NH", "dateTime": 1519150382285}, {"current_trial": 148, "trialdata": {"rt": -1000, "trial_type": "single-audio", "word": "popcorn", "stimulus": "/static/audio/wordpool/POPCORN.wav", "conditions": [12, 800, "a", 12000], "internal_node_id": "0.0-103.0", "trial": 4, "time_elapsed": 788608, "serialpos": 3, "key_press": -1, "wordID": 1103, "type": "PRES_AUD", "trial_index": 148}, "uniqueid": "MTK2599:3DBQWDE4Y756W7ZK7A7EO2C9XJE5NH", "dateTime": 1519150384073}, {"current_trial": 149, "trialdata": {"rt": -1000, "trial_type": "single-audio", "word": "pecan", "stimulus": "/static/audio/wordpool/PECAN.wav", "conditions": [12, 800, "a", 12000], "internal_node_id": "0.0-104.0", "trial": 4, "time_elapsed": 790296, "serialpos": 4, "key_press": -1, "wordID": 1035, "type": "PRES_AUD", "trial_index": 149}, "uniqueid": "MTK2599:3DBQWDE4Y756W7ZK7A7EO2C9XJE5NH", "dateTime": 1519150385761}, {"current_trial": 150, "trialdata": {"rt": -1000, "trial_type": "single-audio", "word": "fragrance", "stimulus": "/static/audio/wordpool/FRAGRANCE.wav", "conditions": [12, 800, "a", 12000], "internal_node_id": "0.0-105.0", "trial": 4, "time_elapsed": 792151, "serialpos": 5, "key_press": -1, "wordID": 598, "type": "PRES_AUD", "trial_index": 150}, "uniqueid": "MTK2599:3DBQWDE4Y756W7ZK7A7EO2C9XJE5NH", "dateTime": 1519150387616}, {"current_trial": 151, "trialdata": {"rt": -1000, "trial_type": "single-audio", "word": "cod", "stimulus": "/static/audio/wordpool/COD.wav", "conditions": [12, 800, "a", 12000], "internal_node_id": "0.0-106.0", "trial": 4, "time_elapsed": 794141, "serialpos": 6, "key_press": -1, "wordID": 339, "type": "PRES_AUD", "trial_index": 151}, "uniqueid": "MTK2599:3DBQWDE4Y756W7ZK7A7EO2C9XJE5NH", "dateTime": 1519150389606}, {"current_trial": 152, "trialdata": {"rt": -1000, "trial_type": "single-audio", "word": "soda", "stimulus": "/static/audio/wordpool/SODA.wav", "conditions": [12, 800, "a", 12000], "internal_node_id": "0.0-107.0", "trial": 4, "time_elapsed": 795814, "serialpos": 7, "key_press": -1, "wordID": 1340, "type": "PRES_AUD", "trial_index": 152}, "uniqueid": "MTK2599:3DBQWDE4Y756W7ZK7A7EO2C9XJE5NH", "dateTime": 1519150391280}, {"current_trial": 153, "trialdata": {"rt": -1000, "trial_type": "single-audio", "word": "drink", "stimulus": "/static/audio/wordpool/DRINK.wav", "conditions": [12, 800, "a", 12000], "internal_node_id": "0.0-108.0", "trial": 4, "time_elapsed": 797570, "serialpos": 8, "key_press": -1, "wordID": 497, "type": "PRES_AUD", "trial_index": 153}, "uniqueid": "MTK2599:3DBQWDE4Y756W7ZK7A7EO2C9XJE5NH", "dateTime": 1519150393035}, {"current_trial": 154, "trialdata": {"rt": -1000, "trial_type": "single-audio", "word": "crab", "stimulus": "/static/audio/wordpool/CRAB.wav", "conditions": [12, 800, "a", 12000], "internal_node_id": "0.0-109.0", "trial": 4, "time_elapsed": 799423, "serialpos": 9, "key_press": -1, "wordID": 396, "type": "PRES_AUD", "trial_index": 154}, "uniqueid": "MTK2599:3DBQWDE4Y756W7ZK7A7EO2C9XJE5NH", "dateTime": 1519150394888}, {"current_trial": 155, "trialdata": {"rt": -1000, "trial_type": "single-audio", "word": "shrub", "stimulus": "/static/audio/wordpool/SHRUB.wav", "conditions": [12, 800, "a", 12000], "internal_node_id": "0.0-110.0", "trial": 4, "time_elapsed": 801418, "serialpos": 10, "key_press": -1, "wordID": 1298, "type": "PRES_AUD", "trial_index": 155}, "uniqueid": "MTK2599:3DBQWDE4Y756W7ZK7A7EO2C9XJE5NH", "dateTime": 1519150396883}, {"current_trial": 156, "trialdata": {"rt": -1000, "trial_type": "single-audio", "word": "crayon", "stimulus": "/static/audio/wordpool/CRAYON.wav", "conditions": [12, 800, "a", 12000], "internal_node_id": "0.0-111.0", "trial": 4, "time_elapsed": 803409, "serialpos": 11, "key_press": -1, "wordID": 400, "type": "PRES_AUD", "trial_index": 156}, "uniqueid": "MTK2599:3DBQWDE4Y756W7ZK7A7EO2C9XJE5NH", "dateTime": 1519150398874}, {"current_trial": 157, "trialdata": {"rt": -1, "trial_type": "single-stim", "stimulus": "", "internal_node_id": "0.0-112.0-0.0", "time_elapsed": 804662, "key_press": -1, "type": "PRE_RECALL_DELAY", "trial_index": 157}, "uniqueid": "MTK2599:3DBQWDE4Y756W7ZK7A7EO2C9XJE5NH", "dateTime": 1519150400127}, {"current_trial": 158, "trialdata": {"rt": -1000, "trial_type": "single-audio", "stimulus": "/static/audio/400Hz.wav", "internal_node_id": "0.0-113.0", "time_elapsed": 805163, "key_press": -1, "type": "PRE_RECALL_ALERT", "trial_index": 158}, "uniqueid": "MTK2599:3DBQWDE4Y756W7ZK7A7EO2C9XJE5NH", "dateTime": 1519150400628}, {"current_trial": 159, "trialdata": {"rt": [4840, 6960, 12783, 15248, 20872, 25520], "recwords": ["pigeon", "judge", "popcorn", "soda", "drink", "crayon"], "key_times": [2833, 3592, 3848, 4040, 4216, 4560, 4840, 5536, 5792, 5928, 6296, 6440, 6960, 7248, 7448, 7608, 8160, 8344, 8528, 9199, 9408, 9592, 9839, 10000, 10208, 10952, 11736, 12064, 12783, 14312, 14455, 14640, 14920, 15248, 15536, 15823, 17096, 17424, 17616, 18392, 18568, 18792, 19736, 20120, 20328, 20872, 22920, 23176, 23344, 23631, 25009, 25232, 25520], "trial_type": "free-recall", "conditions": [12, 800, "a", 12000], "internal_node_id": "0.0-114.0-0.0", "key_presses": [80, 73, 71, 69, 79, 78, 32, 74, 85, 68, 71, 69, 13, 219, 80, 219, 8, 8, 8, 80, 79, 80, 67, 79, 82, 77, 8, 78, 13, 83, 79, 68, 65, 13, 68, 82, 79, 77, 76, 8, 8, 8, 73, 78, 75, 13, 67, 82, 65, 89, 79, 78, 13], "trial": 4, "time_elapsed": 865167, "type": "FREE_RECALL", "trial_index": 159}, "uniqueid": "MTK2599:3DBQWDE4Y756W7ZK7A7EO2C9XJE5NH", "dateTime": 1519150460633}, {"current_trial": 160, "trialdata": {"rt": 2102, "trial_type": "text", "internal_node_id": "0.0-115.0", "time_elapsed": 869270, "key_press": 32, "type": "INSTRUCTIONS", "trial_index": 160}, "uniqueid": "MTK2599:3DBQWDE4Y756W7ZK7A7EO2C9XJE5NH", "dateTime": 1519150464735}, {"current_trial": 161, "trialdata": {"rt": [4693, 7173, 10341, 15052, 19037, 21750], "trial_type": "math-distractor", "key_times": [4069, 4300, 4693, 6101, 6429, 7173, 9636, 9884, 10341, 14453, 14692, 15052, 18365, 18675, 19037, 21140, 21397, 21750], "responses": ["17", "17", "24", "14", "16", "10"], "num2": [3, 5, 8, 7, 9, 2, 6], "num3": [6, 7, 7, 6, 3, 7, 7], "conditions": [24, 1600, "a", 24000], "internal_node_id": "0.0-116.0", "key_presses": [97, 103, 13, 97, 103, 13, 98, 100, 13, 97, 100, 13, 97, 102, 13, 97, 96, 13], "trial": 5, "time_elapsed": 895275, "type": "DISTRACTOR", "trial_index": 161, "num1": [8, 5, 8, 1, 4, 1, 1]}, "uniqueid": "MTK2599:3DBQWDE4Y756W7ZK7A7EO2C9XJE5NH", "dateTime": 1519150490740}, {"current_trial": 162, "trialdata": {"rt": -1, "trial_type": "single-stim", "stimulus": "<p id=\"stim\">10</p>", "internal_node_id": "0.0-117.0-0.0", "time_elapsed": 898275, "key_press": -1, "trial_index": 162}, "uniqueid": "MTK2599:3DBQWDE4Y756W7ZK7A7EO2C9XJE5NH", "dateTime": 1519150493740}, {"current_trial": 163, "trialdata": {"rt": -1, "trial_type": "single-stim", "stimulus": "<p id=\"stim\">9</p>", "internal_node_id": "0.0-117.0-1.0", "time_elapsed": 899277, "key_press": -1, "trial_index": 163}, "uniqueid": "MTK2599:3DBQWDE4Y756W7ZK7A7EO2C9XJE5NH", "dateTime": 1519150494742}, {"current_trial": 164, "trialdata": {"rt": -1, "trial_type": "single-stim", "stimulus": "<p id=\"stim\">8</p>", "internal_node_id": "0.0-117.0-2.0", "time_elapsed": 900279, "key_press": -1, "trial_index": 164}, "uniqueid": "MTK2599:3DBQWDE4Y756W7ZK7A7EO2C9XJE5NH", "dateTime": 1519150495744}, {"current_trial": 165, "trialdata": {"rt": -1, "trial_type": "single-stim", "stimulus": "<p id=\"stim\">7</p>", "internal_node_id": "0.0-117.0-3.0", "time_elapsed": 901280, "key_press": -1, "trial_index": 165}, "uniqueid": "MTK2599:3DBQWDE4Y756W7ZK7A7EO2C9XJE5NH", "dateTime": 1519150496745}, {"current_trial": 166, "trialdata": {"rt": -1, "trial_type": "single-stim", "stimulus": "<p id=\"stim\">6</p>", "internal_node_id": "0.0-117.0-4.0", "time_elapsed": 902282, "key_press": -1, "trial_index": 166}, "uniqueid": "MTK2599:3DBQWDE4Y756W7ZK7A7EO2C9XJE5NH", "dateTime": 1519150497747}, {"current_trial": 167, "trialdata": {"rt": -1, "trial_type": "single-stim", "stimulus": "<p id=\"stim\">5</p>", "internal_node_id": "0.0-117.0-5.0", "time_elapsed": 903283, "key_press": -1, "trial_index": 167}, "uniqueid": "MTK2599:3DBQWDE4Y756W7ZK7A7EO2C9XJE5NH", "dateTime": 1519150498748}, {"current_trial": 168, "trialdata": {"rt": -1, "trial_type": "single-stim", "stimulus": "<p id=\"stim\">4</p>", "internal_node_id": "0.0-117.0-6.0", "time_elapsed": 904284, "key_press": -1, "trial_index": 168}, "uniqueid": "MTK2599:3DBQWDE4Y756W7ZK7A7EO2C9XJE5NH", "dateTime": 1519150499749}, {"current_trial": 169, "trialdata": {"rt": -1, "trial_type": "single-stim", "stimulus": "<p id=\"stim\">3</p>", "internal_node_id": "0.0-117.0-7.0", "time_elapsed": 905284, "key_press": -1, "trial_index": 169}, "uniqueid": "MTK2599:3DBQWDE4Y756W7ZK7A7EO2C9XJE5NH", "dateTime": 1519150500749}, {"current_trial": 170, "trialdata": {"rt": -1, "trial_type": "single-stim", "stimulus": "<p id=\"stim\">2</p>", "internal_node_id": "0.0-117.0-8.0", "time_elapsed": 906285, "key_press": -1, "trial_index": 170}, "uniqueid": "MTK2599:3DBQWDE4Y756W7ZK7A7EO2C9XJE5NH", "dateTime": 1519150501750}, {"current_trial": 171, "trialdata": {"rt": -1, "trial_type": "single-stim", "stimulus": "<p id=\"stim\">1</p>", "internal_node_id": "0.0-117.0-9.0", "time_elapsed": 907287, "key_press": -1, "trial_index": 171}, "uniqueid": "MTK2599:3DBQWDE4Y756W7ZK7A7EO2C9XJE5NH", "dateTime": 1519150502752}, {"current_trial": 172, "trialdata": {"rt": -1, "trial_type": "single-stim", "stimulus": "<p id=\"stim\">+</p>", "internal_node_id": "0.0-118.0-0.0", "time_elapsed": 908788, "key_press": -1, "type": "FIXATION", "trial_index": 172}, "uniqueid": "MTK2599:3DBQWDE4Y756W7ZK7A7EO2C9XJE5NH", "dateTime": 1519150504253}, {"current_trial": 173, "trialdata": {"rt": -1000, "trial_type": "single-audio", "word": "wife", "stimulus": "/static/audio/wordpool/WIFE.wav", "conditions": [24, 1600, "a", 24000], "internal_node_id": "0.0-119.0", "trial": 5, "time_elapsed": 911284, "serialpos": 0, "key_press": -1, "wordID": 1608, "type": "PRES_AUD", "trial_index": 173}, "uniqueid": "MTK2599:3DBQWDE4Y756W7ZK7A7EO2C9XJE5NH", "dateTime": 1519150506749}, {"current_trial": 174, "trialdata": {"rt": -1000, "trial_type": "single-audio", "word": "omelet", "stimulus": "/static/audio/wordpool/OMELET.wav", "conditions": [24, 1600, "a", 24000], "internal_node_id": "0.0-120.0", "trial": 5, "time_elapsed": 914034, "serialpos": 1, "key_press": -1, "wordID": 975, "type": "PRES_AUD", "trial_index": 174}, "uniqueid": "MTK2599:3DBQWDE4Y756W7ZK7A7EO2C9XJE5NH", "dateTime": 1519150509499}, {"current_trial": 175, "trialdata": {"rt": -1000, "trial_type": "single-audio", "word": "salad", "stimulus": "/static/audio/wordpool/SALAD.wav", "conditions": [24, 1600, "a", 24000], "internal_node_id": "0.0-121.0", "trial": 5, "time_elapsed": 916707, "serialpos": 2, "key_press": -1, "wordID": 1223, "type": "PRES_AUD", "trial_index": 175}, "uniqueid": "MTK2599:3DBQWDE4Y756W7ZK7A7EO2C9XJE5NH", "dateTime": 1519150512172}, {"current_trial": 176, "trialdata": {"rt": -1000, "trial_type": "single-audio", "word": "brother", "stimulus": "/static/audio/wordpool/BROTHER.wav", "conditions": [24, 1600, "a", 24000], "internal_node_id": "0.0-122.0", "trial": 5, "time_elapsed": 919224, "serialpos": 3, "key_press": -1, "wordID": 178, "type": "PRES_AUD", "trial_index": 176}, "uniqueid": "MTK2599:3DBQWDE4Y756W7ZK7A7EO2C9XJE5NH", "dateTime": 1519150514689}, {"current_trial": 177, "trialdata": {"rt": -1000, "trial_type": "single-audio", "word": "spouse", "stimulus": "/static/audio/wordpool/SPOUSE.wav", "conditions": [24, 1600, "a", 24000], "internal_node_id": "0.0-123.0", "trial": 5, "time_elapsed": 921816, "serialpos": 4, "key_press": -1, "wordID": 1357, "type": "PRES_AUD", "trial_index": 177}, "uniqueid": "MTK2599:3DBQWDE4Y756W7ZK7A7EO2C9XJE5NH", "dateTime": 1519150517281}, {"current_trial": 178, "trialdata": {"rt": -1000, "trial_type": "single-audio", "word": "daughter", "stimulus": "/static/audio/wordpool/DAUGHTER.wav", "conditions": [24, 1600, "a", 24000], "internal_node_id": "0.0-124.0", "trial": 5, "time_elapsed": 924591, "serialpos": 5, "key_press": -1, "wordID": 441, "type": "PRES_AUD", "trial_index": 178}, "uniqueid": "MTK2599:3DBQWDE4Y756W7ZK7A7EO2C9XJE5NH", "dateTime": 1519150520056}, {"current_trial": 179, "trialdata": {"rt": -1000, "trial_type": "single-audio", "word": "waiter", "stimulus": "/static/audio/wordpool/WAITER.wav", "conditions": [24, 1600, "a", 24000], "internal_node_id": "0.0-125.0", "trial": 5, "time_elapsed": 927012, "serialpos": 6, "key_press": -1, "wordID": 1579, "type": "PRES_AUD", "trial_index": 179}, "uniqueid": "MTK2599:3DBQWDE4Y756W7ZK7A7EO2C9XJE5NH", "dateTime": 1519150522478}, {"current_trial": 180, "trialdata": {"rt": -1000, "trial_type": "single-audio", "word": "tribe", "stimulus": "/static/audio/wordpool/TRIBE.wav", "conditions": [24, 1600, "a", 24000], "internal_node_id": "0.0-126.0", "trial": 5, "time_elapsed": 929772, "serialpos": 7, "key_press": -1, "wordID": 1504, "type": "PRES_AUD", "trial_index": 180}, "uniqueid": "MTK2599:3DBQWDE4Y756W7ZK7A7EO2C9XJE5NH", "dateTime": 1519150525237}, {"current_trial": 181, "trialdata": {"rt": -1000, "trial_type": "single-audio", "word": "cowboy", "stimulus": "/static/audio/wordpool/COWBOY.wav", "conditions": [24, 1600, "a", 24000], "internal_node_id": "0.0-127.0", "trial": 5, "time_elapsed": 932423, "serialpos": 8, "key_press": -1, "wordID": 394, "type": "PRES_AUD", "trial_index": 181}, "uniqueid": "MTK2599:3DBQWDE4Y756W7ZK7A7EO2C9XJE5NH", "dateTime": 1519150527888}, {"current_trial": 182, "trialdata": {"rt": -1000, "trial_type": "single-audio", "word": "cigar", "stimulus": "/static/audio/wordpool/CIGAR.wav", "conditions": [24, 1600, "a", 24000], "internal_node_id": "0.0-128.0", "trial": 5, "time_elapsed": 935171, "serialpos": 9, "key_press": -1, "wordID": 307, "type": "PRES_AUD", "trial_index": 182}, "uniqueid": "MTK2599:3DBQWDE4Y756W7ZK7A7EO2C9XJE5NH", "dateTime": 1519150530636}, {"current_trial": 183, "trialdata": {"rt": -1000, "trial_type": "single-audio", "word": "nomad", "stimulus": "/static/audio/wordpool/NOMAD.wav", "conditions": [24, 1600, "a", 24000], "internal_node_id": "0.0-129.0", "trial": 5, "time_elapsed": 937790, "serialpos": 10, "key_press": -1, "wordID": 954, "type": "PRES_AUD", "trial_index": 183}, "uniqueid": "MTK2599:3DBQWDE4Y756W7ZK7A7EO2C9XJE5NH", "dateTime": 1519150533255}, {"current_trial": 184, "trialdata": {"rt": -1000, "trial_type": "single-audio", "word": "dorm", "stimulus": "/static/audio/wordpool/DORM.wav", "conditions": [24, 1600, "a", 24000], "internal_node_id": "0.0-130.0", "trial": 5, "time_elapsed": 940513, "serialpos": 11, "key_press": -1, "wordID": 487, "type": "PRES_AUD", "trial_index": 184}, "uniqueid": "MTK2599:3DBQWDE4Y756W7ZK7A7EO2C9XJE5NH", "dateTime": 1519150535978}, {"current_trial": 185, "trialdata": {"rt": -1000, "trial_type": "single-audio", "word": "sunset", "stimulus": "/static/audio/wordpool/SUNSET.wav", "conditions": [24, 1600, "a", 24000], "internal_node_id": "0.0-131.0", "trial": 5, "time_elapsed": 943285, "serialpos": 12, "key_press": -1, "wordID": 1407, "type": "PRES_AUD", "trial_index": 185}, "uniqueid": "MTK2599:3DBQWDE4Y756W7ZK7A7EO2C9XJE5NH", "dateTime": 1519150538750}, {"current_trial": 186, "trialdata": {"rt": -1000, "trial_type": "single-audio", "word": "sunrise", "stimulus": "/static/audio/wordpool/SUNRISE.wav", "conditions": [24, 1600, "a", 24000], "internal_node_id": "0.0-132.0", "trial": 5, "time_elapsed": 945721, "serialpos": 13, "key_press": -1, "wordID": 1406, "type": "PRES_AUD", "trial_index": 186}, "uniqueid": "MTK2599:3DBQWDE4Y756W7ZK7A7EO2C9XJE5NH", "dateTime": 1519150541186}, {"current_trial": 187, "trialdata": {"rt": -1000, "trial_type": "single-audio", "word": "foot", "stimulus": "/static/audio/wordpool/FOOT.wav", "conditions": [24, 1600, "a", 24000], "internal_node_id": "0.0-133.0", "trial": 5, "time_elapsed": 948158, "serialpos": 14, "key_press": -1, "wordID": 589, "type": "PRES_AUD", "trial_index": 187}, "uniqueid": "MTK2599:3DBQWDE4Y756W7ZK7A7EO2C9XJE5NH", "dateTime": 1519150543624}, {"current_trial": 188, "trialdata": {"rt": -1000, "trial_type": "single-audio", "word": "rattle", "stimulus": "/static/audio/wordpool/RATTLE.wav", "conditions": [24, 1600, "a", 24000], "internal_node_id": "0.0-134.0", "trial": 5, "time_elapsed": 950935, "serialpos": 15, "key_press": -1, "wordID": 1169, "type": "PRES_AUD", "trial_index": 188}, "uniqueid": "MTK2599:3DBQWDE4Y756W7ZK7A7EO2C9XJE5NH", "dateTime": 1519150546400}, {"current_trial": 189, "trialdata": {"rt": -1000, "trial_type": "single-audio", "word": "marker", "stimulus": "/static/audio/wordpool/MARKER.wav", "conditions": [24, 1600, "a", 24000], "internal_node_id": "0.0-135.0", "trial": 5, "time_elapsed": 953368, "serialpos": 16, "key_press": -1, "wordID": 869, "type": "PRES_AUD", "trial_index": 189}, "uniqueid": "MTK2599:3DBQWDE4Y756W7ZK7A7EO2C9XJE5NH", "dateTime": 1519150548834}, {"current_trial": 190, "trialdata": {"rt": -1000, "trial_type": "single-audio", "word": "server", "stimulus": "/static/audio/wordpool/SERVER.wav", "conditions": [24, 1600, "a", 24000], "internal_node_id": "0.0-136.0", "trial": 5, "time_elapsed": 955814, "serialpos": 17, "key_press": -1, "wordID": 1271, "type": "PRES_AUD", "trial_index": 190}, "uniqueid": "MTK2599:3DBQWDE4Y756W7ZK7A7EO2C9XJE5NH", "dateTime": 1519150551279}, {"current_trial": 191, "trialdata": {"rt": -1000, "trial_type": "single-audio", "word": "possum", "stimulus": "/static/audio/wordpool/POSSUM.wav", "conditions": [24, 1600, "a", 24000], "internal_node_id": "0.0-137.0", "trial": 5, "time_elapsed": 958510, "serialpos": 18, "key_press": -1, "wordID": 1111, "type": "PRES_AUD", "trial_index": 191}, "uniqueid": "MTK2599:3DBQWDE4Y756W7ZK7A7EO2C9XJE5NH", "dateTime": 1519150553976}, {"current_trial": 192, "trialdata": {"rt": -1000, "trial_type": "single-audio", "word": "breast", "stimulus": "/static/audio/wordpool/BREAST.wav", "conditions": [24, 1600, "a", 24000], "internal_node_id": "0.0-138.0", "trial": 5, "time_elapsed": 961002, "serialpos": 19, "key_press": -1, "wordID": 170, "type": "PRES_AUD", "trial_index": 192}, "uniqueid": "MTK2599:3DBQWDE4Y756W7ZK7A7EO2C9XJE5NH", "dateTime": 1519150556467}, {"current_trial": 193, "trialdata": {"rt": -1000, "trial_type": "single-audio", "word": "mammal", "stimulus": "/static/audio/wordpool/MAMMAL.wav", "conditions": [24, 1600, "a", 24000], "internal_node_id": "0.0-139.0", "trial": 5, "time_elapsed": 963534, "serialpos": 20, "key_press": -1, "wordID": 860, "type": "PRES_AUD", "trial_index": 193}, "uniqueid": "MTK2599:3DBQWDE4Y756W7ZK7A7EO2C9XJE5NH", "dateTime": 1519150558999}, {"current_trial": 194, "trialdata": {"rt": -1000, "trial_type": "single-audio", "word": "summit", "stimulus": "/static/audio/wordpool/SUMMIT.wav", "conditions": [24, 1600, "a", 24000], "internal_node_id": "0.0-140.0", "trial": 5, "time_elapsed": 966289, "serialpos": 21, "key_press": -1, "wordID": 1404, "type": "PRES_AUD", "trial_index": 194}, "uniqueid": "MTK2599:3DBQWDE4Y756W7ZK7A7EO2C9XJE5NH", "dateTime": 1519150561754}, {"current_trial": 195, "trialdata": {"rt": -1000, "trial_type": "single-audio", "word": "climber", "stimulus": "/static/audio/wordpool/CLIMBER.wav", "conditions": [24, 1600, "a", 24000], "internal_node_id": "0.0-141.0", "trial": 5, "time_elapsed": 968872, "serialpos": 22, "key_press": -1, "wordID": 322, "type": "PRES_AUD", "trial_index": 195}, "uniqueid": "MTK2599:3DBQWDE4Y756W7ZK7A7EO2C9XJE5NH", "dateTime": 1519150564337}, {"current_trial": 196, "trialdata": {"rt": -1000, "trial_type": "single-audio", "word": "primate", "stimulus": "/static/audio/wordpool/PRIMATE.wav", "conditions": [24, 1600, "a", 24000], "internal_node_id": "0.0-142.0", "trial": 5, "time_elapsed": 971490, "serialpos": 23, "key_press": -1, "wordID": 1122, "type": "PRES_AUD", "trial_index": 196}, "uniqueid": "MTK2599:3DBQWDE4Y756W7ZK7A7EO2C9XJE5NH", "dateTime": 1519150566955}, {"current_trial": 197, "trialdata": {"rt": -1, "trial_type": "single-stim", "stimulus": "", "internal_node_id": "0.0-143.0-0.0", "time_elapsed": 972837, "key_press": -1, "type": "PRE_RECALL_DELAY", "trial_index": 197}, "uniqueid": "MTK2599:3DBQWDE4Y756W7ZK7A7EO2C9XJE5NH", "dateTime": 1519150568302}, {"current_trial": 198, "trialdata": {"rt": -1000, "trial_type": "single-audio", "stimulus": "/static/audio/400Hz.wav", "internal_node_id": "0.0-144.0", "time_elapsed": 973340, "key_press": -1, "type": "PRE_RECALL_ALERT", "trial_index": 198}, "uniqueid": "MTK2599:3DBQWDE4Y756W7ZK7A7EO2C9XJE5NH", "dateTime": 1519150568805}, {"current_trial": 199, "trialdata": {"rt": [2457, 4138, 5874, 11001, 14265, 19537, 20969, 25049], "recwords": ["wife", "omelet", "salad", "sunset", "sunrise", "snowman", "mammal", "breast"], "key_times": [1338, 1552, 1705, 1865, 2457, 2881, 3217, 3409, 3586, 3786, 3938, 4138, 4514, 4698, 4809, 5025, 5209, 5874, 8586, 8913, 10074, 10257, 10465, 10825, 11001, 11697, 13177, 13457, 13696, 13825, 13969, 14105, 14265, 18281, 18442, 18617, 18881, 19041, 19146, 19281, 19537, 19826, 19978, 20185, 20401, 20577, 20705, 20969, 23146, 23314, 23401, 23522, 23762, 24481, 24673, 24792, 25049], "trial_type": "free-recall", "conditions": [24, 1600, "a", 24000], "internal_node_id": "0.0-145.0-0.0", "key_presses": [87, 73, 70, 69, 13, 79, 77, 69, 76, 69, 84, 13, 83, 65, 76, 65, 68, 13, 83, 85, 78, 83, 69, 84, 13, 83, 85, 78, 82, 73, 83, 69, 13, 83, 78, 79, 87, 77, 65, 78, 13, 77, 65, 77, 77, 65, 76, 13, 66, 82, 69, 65, 84, 8, 83, 84, 13], "trial": 5, "time_elapsed": 1033342, "type": "FREE_RECALL", "trial_index": 199}, "uniqueid": "MTK2599:3DBQWDE4Y756W7ZK7A7EO2C9XJE5NH", "dateTime": 1519150628813}, {"current_trial": 200, "trialdata": {"rt": 3259, "trial_type": "text", "internal_node_id": "0.0-146.0", "time_elapsed": 1038607, "key_press": 32, "type": "INSTRUCTIONS", "trial_index": 200}, "uniqueid": "MTK2599:3DBQWDE4Y756W7ZK7A7EO2C9XJE5NH", "dateTime": 1519150634073}, {"current_trial": 201, "trialdata": {"rt": [4227, 10324, 14396, 19933], "trial_type": "math-distractor", "key_times": [3469, 3740, 4227, 9341, 9653, 10324, 13629, 13941, 14396, 19277, 19518, 19933], "responses": ["23", "17", "13", "10"], "num2": [7, 5, 1, 7, 4], "num3": [9, 4, 5, 2, 4], "conditions": [24, 800, "a", 24000], "internal_node_id": "0.0-147.0", "key_presses": [98, 99, 13, 97, 103, 13, 97, 99, 13, 97, 96, 13], "trial": 6, "time_elapsed": 1064610, "type": "DISTRACTOR", "trial_index": 201, "num1": [7, 8, 7, 1, 9]}, "uniqueid": "MTK2599:3DBQWDE4Y756W7ZK7A7EO2C9XJE5NH", "dateTime": 1519150660075}, {"current_trial": 202, "trialdata": {"rt": -1, "trial_type": "single-stim", "stimulus": "<p id=\"stim\">10</p>", "internal_node_id": "0.0-148.0-0.0", "time_elapsed": 1067612, "key_press": -1, "trial_index": 202}, "uniqueid": "MTK2599:3DBQWDE4Y756W7ZK7A7EO2C9XJE5NH", "dateTime": 1519150663077}, {"current_trial": 203, "trialdata": {"rt": -1, "trial_type": "single-stim", "stimulus": "<p id=\"stim\">9</p>", "internal_node_id": "0.0-148.0-1.0", "time_elapsed": 1068614, "key_press": -1, "trial_index": 203}, "uniqueid": "MTK2599:3DBQWDE4Y756W7ZK7A7EO2C9XJE5NH", "dateTime": 1519150664080}, {"current_trial": 204, "trialdata": {"rt": -1, "trial_type": "single-stim", "stimulus": "<p id=\"stim\">8</p>", "internal_node_id": "0.0-148.0-2.0", "time_elapsed": 1069616, "key_press": -1, "trial_index": 204}, "uniqueid": "MTK2599:3DBQWDE4Y756W7ZK7A7EO2C9XJE5NH", "dateTime": 1519150665082}, {"current_trial": 205, "trialdata": {"rt": -1, "trial_type": "single-stim", "stimulus": "<p id=\"stim\">7</p>", "internal_node_id": "0.0-148.0-3.0", "time_elapsed": 1070618, "key_press": -1, "trial_index": 205}, "uniqueid": "MTK2599:3DBQWDE4Y756W7ZK7A7EO2C9XJE5NH", "dateTime": 1519150666083}, {"current_trial": 206, "trialdata": {"rt": -1, "trial_type": "single-stim", "stimulus": "<p id=\"stim\">6</p>", "internal_node_id": "0.0-148.0-4.0", "time_elapsed": 1071620, "key_press": -1, "trial_index": 206}, "uniqueid": "MTK2599:3DBQWDE4Y756W7ZK7A7EO2C9XJE5NH", "dateTime": 1519150667085}, {"current_trial": 207, "trialdata": {"rt": -1, "trial_type": "single-stim", "stimulus": "<p id=\"stim\">5</p>", "internal_node_id": "0.0-148.0-5.0", "time_elapsed": 1072622, "key_press": -1, "trial_index": 207}, "uniqueid": "MTK2599:3DBQWDE4Y756W7ZK7A7EO2C9XJE5NH", "dateTime": 1519150668087}, {"current_trial": 208, "trialdata": {"rt": -1, "trial_type": "single-stim", "stimulus": "<p id=\"stim\">4</p>", "internal_node_id": "0.0-148.0-6.0", "time_elapsed": 1073623, "key_press": -1, "trial_index": 208}, "uniqueid": "MTK2599:3DBQWDE4Y756W7ZK7A7EO2C9XJE5NH", "dateTime": 1519150669090}, {"current_trial": 209, "trialdata": {"rt": -1, "trial_type": "single-stim", "stimulus": "<p id=\"stim\">3</p>", "internal_node_id": "0.0-148.0-7.0", "time_elapsed": 1074625, "key_press": -1, "trial_index": 209}, "uniqueid": "MTK2599:3DBQWDE4Y756W7ZK7A7EO2C9XJE5NH", "dateTime": 1519150670090}, {"current_trial": 210, "trialdata": {"rt": -1, "trial_type": "single-stim", "stimulus": "<p id=\"stim\">2</p>", "internal_node_id": "0.0-148.0-8.0", "time_elapsed": 1075625, "key_press": -1, "trial_index": 210}, "uniqueid": "MTK2599:3DBQWDE4Y756W7ZK7A7EO2C9XJE5NH", "dateTime": 1519150671090}, {"current_trial": 211, "trialdata": {"rt": -1, "trial_type": "single-stim", "stimulus": "<p id=\"stim\">1</p>", "internal_node_id": "0.0-148.0-9.0", "time_elapsed": 1076628, "key_press": -1, "trial_index": 211}, "uniqueid": "MTK2599:3DBQWDE4Y756W7ZK7A7EO2C9XJE5NH", "dateTime": 1519150672093}, {"current_trial": 212, "trialdata": {"rt": -1, "trial_type": "single-stim", "stimulus": "<p id=\"stim\">+</p>", "internal_node_id": "0.0-149.0-0.0", "time_elapsed": 1078128, "key_press": -1, "type": "FIXATION", "trial_index": 212}, "uniqueid": "MTK2599:3DBQWDE4Y756W7ZK7A7EO2C9XJE5NH", "dateTime": 1519150673594}, {"current_trial": 213, "trialdata": {"rt": -1000, "trial_type": "single-audio", "word": "tuba", "stimulus": "/static/audio/wordpool/TUBA.wav", "conditions": [24, 800, "a", 24000], "internal_node_id": "0.0-150.0", "trial": 6, "time_elapsed": 1079932, "serialpos": 0, "key_press": -1, "wordID": 1514, "type": "PRES_AUD", "trial_index": 213}, "uniqueid": "MTK2599:3DBQWDE4Y756W7ZK7A7EO2C9XJE5NH", "dateTime": 1519150675398}, {"current_trial": 214, "trialdata": {"rt": -1000, "trial_type": "single-audio", "word": "child", "stimulus": "/static/audio/wordpool/CHILD.wav", "conditions": [24, 800, "a", 24000], "internal_node_id": "0.0-151.0", "trial": 6, "time_elapsed": 1081897, "serialpos": 1, "key_press": -1, "wordID": 298, "type": "PRES_AUD", "trial_index": 214}, "uniqueid": "MTK2599:3DBQWDE4Y756W7ZK7A7EO2C9XJE5NH", "dateTime": 1519150677363}, {"current_trial": 215, "trialdata": {"rt": -1000, "trial_type": "single-audio", "word": "girl", "stimulus": "/static/audio/wordpool/GIRL.wav", "conditions": [24, 800, "a", 24000], "internal_node_id": "0.0-152.0", "trial": 6, "time_elapsed": 1083773, "serialpos": 2, "key_press": -1, "wordID": 636, "type": "PRES_AUD", "trial_index": 215}, "uniqueid": "MTK2599:3DBQWDE4Y756W7ZK7A7EO2C9XJE5NH", "dateTime": 1519150679238}, {"current_trial": 216, "trialdata": {"rt": -1000, "trial_type": "single-audio", "word": "snack", "stimulus": "/static/audio/wordpool/SNACK.wav", "conditions": [24, 800, "a", 24000], "internal_node_id": "0.0-153.0", "trial": 6, "time_elapsed": 1085454, "serialpos": 3, "key_press": -1, "wordID": 1330, "type": "PRES_AUD", "trial_index": 216}, "uniqueid": "MTK2599:3DBQWDE4Y756W7ZK7A7EO2C9XJE5NH", "dateTime": 1519150680919}, {"current_trial": 217, "trialdata": {"rt": -1000, "trial_type": "single-audio", "word": "frame", "stimulus": "/static/audio/wordpool/FRAME.wav", "conditions": [24, 800, "a", 24000], "internal_node_id": "0.0-154.0", "trial": 6, "time_elapsed": 1087170, "serialpos": 4, "key_press": -1, "wordID": 599, "type": "PRES_AUD", "trial_index": 217}, "uniqueid": "MTK2599:3DBQWDE4Y756W7ZK7A7EO2C9XJE5NH", "dateTime": 1519150682636}, {"current_trial": 218, "trialdata": {"rt": -1000, "trial_type": "single-audio", "word": "denim", "stimulus": "/static/audio/wordpool/DENIM.wav", "conditions": [24, 800, "a", 24000], "internal_node_id": "0.0-155.0", "trial": 6, "time_elapsed": 1089039, "serialpos": 5, "key_press": -1, "wordID": 445, "type": "PRES_AUD", "trial_index": 218}, "uniqueid": "MTK2599:3DBQWDE4Y756W7ZK7A7EO2C9XJE5NH", "dateTime": 1519150684504}, {"current_trial": 219, "trialdata": {"rt": -1000, "trial_type": "single-audio", "word": "playground", "stimulus": "/static/audio/wordpool/PLAYGROUND.wav", "conditions": [24, 800, "a", 24000], "internal_node_id": "0.0-156.0", "trial": 6, "time_elapsed": 1090901, "serialpos": 6, "key_press": -1, "wordID": 1086, "type": "PRES_AUD", "trial_index": 219}, "uniqueid": "MTK2599:3DBQWDE4Y756W7ZK7A7EO2C9XJE5NH", "dateTime": 1519150686366}, {"current_trial": 220, "trialdata": {"rt": -1000, "trial_type": "single-audio", "word": "quarter", "stimulus": "/static/audio/wordpool/QUARTER.wav", "conditions": [24, 800, "a", 24000], "internal_node_id": "0.0-157.0", "trial": 6, "time_elapsed": 1092596, "serialpos": 7, "key_press": -1, "wordID": 1147, "type": "PRES_AUD", "trial_index": 220}, "uniqueid": "MTK2599:3DBQWDE4Y756W7ZK7A7EO2C9XJE5NH", "dateTime": 1519150688061}, {"current_trial": 221, "trialdata": {"rt": -1000, "trial_type": "single-audio", "word": "record", "stimulus": "/static/audio/wordpool/RECORD.wav", "conditions": [24, 800, "a", 24000], "internal_node_id": "0.0-158.0", "trial": 6, "time_elapsed": 1094460, "serialpos": 8, "key_press": -1, "wordID": 1175, "type": "PRES_AUD", "trial_index": 221}, "uniqueid": "MTK2599:3DBQWDE4Y756W7ZK7A7EO2C9XJE5NH", "dateTime": 1519150689925}, {"current_trial": 222, "trialdata": {"rt": -1000, "trial_type": "single-audio", "word": "spoon", "stimulus": "/static/audio/wordpool/SPOON.wav", "conditions": [24, 800, "a", 24000], "internal_node_id": "0.0-159.0", "trial": 6, "time_elapsed": 1096190, "serialpos": 9, "key_press": -1, "wordID": 1356, "type": "PRES_AUD", "trial_index": 222}, "uniqueid": "MTK2599:3DBQWDE4Y756W7ZK7A7EO2C9XJE5NH", "dateTime": 1519150691655}, {"current_trial": 223, "trialdata": {"rt": -1000, "trial_type": "single-audio", "word": "candy", "stimulus": "/static/audio/wordpool/CANDY.wav", "conditions": [24, 800, "a", 24000], "internal_node_id": "0.0-160.0", "trial": 6, "time_elapsed": 1098061, "serialpos": 10, "key_press": -1, "wordID": 229, "type": "PRES_AUD", "trial_index": 223}, "uniqueid": "MTK2599:3DBQWDE4Y756W7ZK7A7EO2C9XJE5NH", "dateTime": 1519150693526}, {"current_trial": 224, "trialdata": {"rt": -1000, "trial_type": "single-audio", "word": "football", "stimulus": "/static/audio/wordpool/FOOTBALL.wav", "conditions": [24, 800, "a", 24000], "internal_node_id": "0.0-161.0", "trial": 6, "time_elapsed": 1099751, "serialpos": 11, "key_press": -1, "wordID": 590, "type": "PRES_AUD", "trial_index": 224}, "uniqueid": "MTK2599:3DBQWDE4Y756W7ZK7A7EO2C9XJE5NH", "dateTime": 1519150695216}, {"current_trial": 225, "trialdata": {"rt": -1000, "trial_type": "single-audio", "word": "country", "stimulus": "/static/audio/wordpool/COUNTRY.wav", "conditions": [24, 800, "a", 24000], "internal_node_id": "0.0-162.0", "trial": 6, "time_elapsed": 1101604, "serialpos": 12, "key_press": -1, "wordID": 387, "type": "PRES_AUD", "trial_index": 225}, "uniqueid": "MTK2599:3DBQWDE4Y756W7ZK7A7EO2C9XJE5NH", "dateTime": 1519150697071}, {"current_trial": 226, "trialdata": {"rt": -1000, "trial_type": "single-audio", "word": "robber", "stimulus": "/static/audio/wordpool/ROBBER.wav", "conditions": [24, 800, "a", 24000], "internal_node_id": "0.0-163.0", "trial": 6, "time_elapsed": 1103212, "serialpos": 13, "key_press": -1, "wordID": 1196, "type": "PRES_AUD", "trial_index": 226}, "uniqueid": "MTK2599:3DBQWDE4Y756W7ZK7A7EO2C9XJE5NH", "dateTime": 1519150698677}, {"current_trial": 227, "trialdata": {"rt": -1000, "trial_type": "single-audio", "word": "lunch", "stimulus": "/static/audio/wordpool/LUNCH.wav", "conditions": [24, 800, "a", 24000], "internal_node_id": "0.0-164.0", "trial": 6, "time_elapsed": 1105110, "serialpos": 14, "key_press": -1, "wordID": 848, "type": "PRES_AUD", "trial_index": 227}, "uniqueid": "MTK2599:3DBQWDE4Y756W7ZK7A7EO2C9XJE5NH", "dateTime": 1519150700577}, {"current_trial": 228, "trialdata": {"rt": -1000, "trial_type": "single-audio", "word": "supper", "stimulus": "/static/audio/wordpool/SUPPER.wav", "conditions": [24, 800, "a", 24000], "internal_node_id": "0.0-165.0", "trial": 6, "time_elapsed": 1106713, "serialpos": 15, "key_press": -1, "wordID": 1410, "type": "PRES_AUD", "trial_index": 228}, "uniqueid": "MTK2599:3DBQWDE4Y756W7ZK7A7EO2C9XJE5NH", "dateTime": 1519150702179}, {"current_trial": 229, "trialdata": {"rt": -1000, "trial_type": "single-audio", "word": "suspect", "stimulus": "/static/audio/wordpool/SUSPECT.wav", "conditions": [24, 800, "a", 24000], "internal_node_id": "0.0-166.0", "trial": 6, "time_elapsed": 1108623, "serialpos": 16, "key_press": -1, "wordID": 1414, "type": "PRES_AUD", "trial_index": 229}, "uniqueid": "MTK2599:3DBQWDE4Y756W7ZK7A7EO2C9XJE5NH", "dateTime": 1519150704089}, {"current_trial": 230, "trialdata": {"rt": -1000, "trial_type": "single-audio", "word": "match", "stimulus": "/static/audio/wordpool/MATCH.wav", "conditions": [24, 800, "a", 24000], "internal_node_id": "0.0-167.0", "trial": 6, "time_elapsed": 1110402, "serialpos": 17, "key_press": -1, "wordID": 877, "type": "PRES_AUD", "trial_index": 230}, "uniqueid": "MTK2599:3DBQWDE4Y756W7ZK7A7EO2C9XJE5NH", "dateTime": 1519150705867}, {"current_trial": 231, "trialdata": {"rt": -1000, "trial_type": "single-audio", "word": "world", "stimulus": "/static/audio/wordpool/WORLD.wav", "conditions": [24, 800, "a", 24000], "internal_node_id": "0.0-168.0", "trial": 6, "time_elapsed": 1112136, "serialpos": 18, "key_press": -1, "wordID": 1621, "type": "PRES_AUD", "trial_index": 231}, "uniqueid": "MTK2599:3DBQWDE4Y756W7ZK7A7EO2C9XJE5NH", "dateTime": 1519150707601}, {"current_trial": 232, "trialdata": {"rt": -1000, "trial_type": "single-audio", "word": "market", "stimulus": "/static/audio/wordpool/MARKET.wav", "conditions": [24, 800, "a", 24000], "internal_node_id": "0.0-169.0", "trial": 6, "time_elapsed": 1114013, "serialpos": 19, "key_press": -1, "wordID": 870, "type": "PRES_AUD", "trial_index": 232}, "uniqueid": "MTK2599:3DBQWDE4Y756W7ZK7A7EO2C9XJE5NH", "dateTime": 1519150709478}, {"current_trial": 233, "trialdata": {"rt": -1000, "trial_type": "single-audio", "word": "softball", "stimulus": "/static/audio/wordpool/SOFTBALL.wav", "conditions": [24, 800, "a", 24000], "internal_node_id": "0.0-170.0", "trial": 6, "time_elapsed": 1115683, "serialpos": 20, "key_press": -1, "wordID": 1342, "type": "PRES_AUD", "trial_index": 233}, "uniqueid": "MTK2599:3DBQWDE4Y756W7ZK7A7EO2C9XJE5NH", "dateTime": 1519150711148}, {"current_trial": 234, "trialdata": {"rt": -1000, "trial_type": "single-audio", "word": "grape", "stimulus": "/static/audio/wordpool/GRAPE.wav", "conditions": [24, 800, "a", 24000], "internal_node_id": "0.0-171.0", "trial": 6, "time_elapsed": 1117547, "serialpos": 21, "key_press": -1, "wordID": 653, "type": "PRES_AUD", "trial_index": 234}, "uniqueid": "MTK2599:3DBQWDE4Y756W7ZK7A7EO2C9XJE5NH", "dateTime": 1519150713012}, {"current_trial": 235, "trialdata": {"rt": -1000, "trial_type": "single-audio", "word": "puppy", "stimulus": "/static/audio/wordpool/PUPPY.wav", "conditions": [24, 800, "a", 24000], "internal_node_id": "0.0-172.0", "trial": 6, "time_elapsed": 1119438, "serialpos": 22, "key_press": -1, "wordID": 1143, "type": "PRES_AUD", "trial_index": 235}, "uniqueid": "MTK2599:3DBQWDE4Y756W7ZK7A7EO2C9XJE5NH", "dateTime": 1519150714903}, {"current_trial": 236, "trialdata": {"rt": -1000, "trial_type": "single-audio", "word": "gavel", "stimulus": "/static/audio/wordpool/GAVEL.wav", "conditions": [24, 800, "a", 24000], "internal_node_id": "0.0-173.0", "trial": 6, "time_elapsed": 1121365, "serialpos": 23, "key_press": -1, "wordID": 626, "type": "PRES_AUD", "trial_index": 236}, "uniqueid": "MTK2599:3DBQWDE4Y756W7ZK7A7EO2C9XJE5NH", "dateTime": 1519150716830}, {"current_trial": 237, "trialdata": {"rt": -1, "trial_type": "single-stim", "stimulus": "", "internal_node_id": "0.0-174.0-0.0", "time_elapsed": 1122619, "key_press": -1, "type": "PRE_RECALL_DELAY", "trial_index": 237}, "uniqueid": "MTK2599:3DBQWDE4Y756W7ZK7A7EO2C9XJE5NH", "dateTime": 1519150718084}, {"current_trial": 238, "trialdata": {"rt": -1000, "trial_type": "single-audio", "stimulus": "/static/audio/400Hz.wav", "internal_node_id": "0.0-175.0", "time_elapsed": 1123119, "key_press": -1, "type": "PRE_RECALL_ALERT", "trial_index": 238}, "uniqueid": "MTK2599:3DBQWDE4Y756W7ZK7A7EO2C9XJE5NH", "dateTime": 1519150718586}, {"current_trial": 239, "trialdata": {"rt": [4212, 8660, 9820, 14100, 15267, 26348], "recwords": ["tuba", "puppy", "girl", "playground", "candy", "football"], "key_times": [1780, 2059, 2628, 2787, 3660, 4028, 4212, 7635, 8003, 8156, 8308, 8508, 8660, 9019, 9157, 9403, 9532, 9820, 10076, 10276, 10436, 10708, 11276, 11452, 11532, 12068, 12236, 12451, 13196, 13355, 13468, 13564, 13772, 13900, 14100, 14260, 14452, 14595, 14739, 14948, 15267, 17092, 17652, 19388, 19764, 19931, 20099, 20276, 20428, 21251, 21428, 21988, 22237, 23184, 23435, 25587, 25788, 26348], "trial_type": "free-recall", "conditions": [24, 800, "a", 24000], "internal_node_id": "0.0-176.0-0.0", "key_presses": [84, 85, 66, 83, 8, 65, 13, 80, 85, 80, 80, 89, 13, 71, 73, 82, 76, 13, 80, 76, 65, 89, 70, 82, 79, 8, 8, 8, 71, 82, 79, 85, 78, 68, 13, 67, 65, 78, 68, 89, 32, 80, 8, 83, 8, 70, 79, 79, 84, 66, 65, 75, 75, 8, 8, 76, 76, 13], "trial": 6, "time_elapsed": 1183124, "type": "FREE_RECALL", "trial_index": 239}, "uniqueid": "MTK2599:3DBQWDE4Y756W7ZK7A7EO2C9XJE5NH", "dateTime": 1519150778595}, {"current_trial": 240, "trialdata": {"rt": 47157, "trial_type": "text", "internal_node_id": "0.0-177.0", "time_elapsed": 1232287, "key_press": 98, "type": "INSTRUCTIONS", "trial_index": 240}, "uniqueid": "MTK2599:3DBQWDE4Y756W7ZK7A7EO2C9XJE5NH", "dateTime": 1519150827752}, {"current_trial": 241, "trialdata": {"rt": [6942, 10117], "trial_type": "math-distractor", "key_times": [5637, 5942, 6942, 9405, 9710, 10117], "responses": ["19", "10"], "num2": [8, 2, 4], "num3": [4, 1, 1], "conditions": [12, 800, "a", 12000], "internal_node_id": "0.0-178.0", "key_presses": [97, 105, 13, 97, 96, 13], "trial": 7, "time_elapsed": 1246290, "type": "DISTRACTOR", "trial_index": 241, "num1": [7, 7, 5]}, "uniqueid": "MTK2599:3DBQWDE4Y756W7ZK7A7EO2C9XJE5NH", "dateTime": 1519150841755}, {"current_trial": 242, "trialdata": {"rt": -1, "trial_type": "single-stim", "stimulus": "<p id=\"stim\">10</p>", "internal_node_id": "0.0-179.0-0.0", "time_elapsed": 1249292, "key_press": -1, "trial_index": 242}, "uniqueid": "MTK2599:3DBQWDE4Y756W7ZK7A7EO2C9XJE5NH", "dateTime": 1519150844757}, {"current_trial": 243, "trialdata": {"rt": -1, "trial_type": "single-stim", "stimulus": "<p id=\"stim\">9</p>", "internal_node_id": "0.0-179.0-1.0", "time_elapsed": 1250294, "key_press": -1, "trial_index": 243}, "uniqueid": "MTK2599:3DBQWDE4Y756W7ZK7A7EO2C9XJE5NH", "dateTime": 1519150845759}, {"current_trial": 244, "trialdata": {"rt": -1, "trial_type": "single-stim", "stimulus": "<p id=\"stim\">8</p>", "internal_node_id": "0.0-179.0-2.0", "time_elapsed": 1251295, "key_press": -1, "trial_index": 244}, "uniqueid": "MTK2599:3DBQWDE4Y756W7ZK7A7EO2C9XJE5NH", "dateTime": 1519150846760}, {"current_trial": 245, "trialdata": {"rt": -1, "trial_type": "single-stim", "stimulus": "<p id=\"stim\">7</p>", "internal_node_id": "0.0-179.0-3.0", "time_elapsed": 1252295, "key_press": -1, "trial_index": 245}, "uniqueid": "MTK2599:3DBQWDE4Y756W7ZK7A7EO2C9XJE5NH", "dateTime": 1519150847762}, {"current_trial": 246, "trialdata": {"rt": -1, "trial_type": "single-stim", "stimulus": "<p id=\"stim\">6</p>", "internal_node_id": "0.0-179.0-4.0", "time_elapsed": 1253298, "key_press": -1, "trial_index": 246}, "uniqueid": "MTK2599:3DBQWDE4Y756W7ZK7A7EO2C9XJE5NH", "dateTime": 1519150848763}, {"current_trial": 247, "trialdata": {"rt": -1, "trial_type": "single-stim", "stimulus": "<p id=\"stim\">5</p>", "internal_node_id": "0.0-179.0-5.0", "time_elapsed": 1254300, "key_press": -1, "trial_index": 247}, "uniqueid": "MTK2599:3DBQWDE4Y756W7ZK7A7EO2C9XJE5NH", "dateTime": 1519150849765}, {"current_trial": 248, "trialdata": {"rt": -1, "trial_type": "single-stim", "stimulus": "<p id=\"stim\">4</p>", "internal_node_id": "0.0-179.0-6.0", "time_elapsed": 1255301, "key_press": -1, "trial_index": 248}, "uniqueid": "MTK2599:3DBQWDE4Y756W7ZK7A7EO2C9XJE5NH", "dateTime": 1519150850767}, {"current_trial": 249, "trialdata": {"rt": -1, "trial_type": "single-stim", "stimulus": "<p id=\"stim\">3</p>", "internal_node_id": "0.0-179.0-7.0", "time_elapsed": 1256302, "key_press": -1, "trial_index": 249}, "uniqueid": "MTK2599:3DBQWDE4Y756W7ZK7A7EO2C9XJE5NH", "dateTime": 1519150851767}, {"current_trial": 250, "trialdata": {"rt": -1, "trial_type": "single-stim", "stimulus": "<p id=\"stim\">2</p>", "internal_node_id": "0.0-179.0-8.0", "time_elapsed": 1257303, "key_press": -1, "trial_index": 250}, "uniqueid": "MTK2599:3DBQWDE4Y756W7ZK7A7EO2C9XJE5NH", "dateTime": 1519150852769}, {"current_trial": 251, "trialdata": {"rt": -1, "trial_type": "single-stim", "stimulus": "<p id=\"stim\">1</p>", "internal_node_id": "0.0-179.0-9.0", "time_elapsed": 1258304, "key_press": -1, "trial_index": 251}, "uniqueid": "MTK2599:3DBQWDE4Y756W7ZK7A7EO2C9XJE5NH", "dateTime": 1519150853769}, {"current_trial": 252, "trialdata": {"rt": -1, "trial_type": "single-stim", "stimulus": "<p id=\"stim\">+</p>", "internal_node_id": "0.0-180.0-0.0", "time_elapsed": 1259805, "key_press": -1, "type": "FIXATION", "trial_index": 252}, "uniqueid": "MTK2599:3DBQWDE4Y756W7ZK7A7EO2C9XJE5NH", "dateTime": 1519150855271}, {"current_trial": 253, "trialdata": {"rt": -1000, "trial_type": "single-audio", "word": "switch", "stimulus": "/static/audio/wordpool/SWITCH.wav", "conditions": [12, 800, "a", 12000], "internal_node_id": "0.0-181.0", "trial": 7, "time_elapsed": 1261585, "serialpos": 0, "key_press": -1, "wordID": 1421, "type": "PRES_AUD", "trial_index": 253}, "uniqueid": "MTK2599:3DBQWDE4Y756W7ZK7A7EO2C9XJE5NH", "dateTime": 1519150857050}, {"current_trial": 254, "trialdata": {"rt": -1000, "trial_type": "single-audio", "word": "eyelash", "stimulus": "/static/audio/wordpool/EYELASH.wav", "conditions": [12, 800, "a", 12000], "internal_node_id": "0.0-182.0", "trial": 7, "time_elapsed": 1263315, "serialpos": 1, "key_press": -1, "wordID": 545, "type": "PRES_AUD", "trial