{"assignmentId": "3V5Q80FXIYY7T6NN78L1HHBR9YB32Q", "workerId": "MTK2742", "questiondata": {"origin": "United States", "strat-rehearsal": "40", "marital": "Married/Domestic Partnership", "education": "Bachelor's degree", "ethnicity": "Hispanic", "color_depth": 24, "distracted": "No", "wrote-notes": "No", "strat-other": "", "screen_width": 1366, "avail_screen_width": 1366, "avail_screen_height": 728, "strat-image": "59", "language": "English", "gender": "Male", "age": "26", "gender_other": "", "race": [], "strat-categorize": "55", "pixel_depth": 24, "strat-spatial": "60", "strat-story": "55", "race_other": "", "screen_height": 768}, "bonus": 0, "hitId": "3LN3BXKGC02SCEZOQ5CQZYK5W00GW2", "counterbalance": 2219, "useragent": "Mozilla/5.0 (Windows NT 10.0; Win64; x64) AppleWebKit/537.36 (KHTML, like Gecko) Chrome/64.0.3282.167 Safari/537.36", "eventdata": [{"eventtype": "initialized", "interval": 0, "value": null, "timestamp": 1519320546577}, {"eventtype": "window_resize", "interval": 0, "value": [1362, 713], "timestamp": 1519320546577}, {"eventtype": "window_resize", "interval": 10012, "value": [1366, 677], "timestamp": 1519320556589}, {"eventtype": "focus", "interval": 43769, "value": "off", "timestamp": 1519320600358}, {"eventtype": "focus", "interval": 6082, "value": "on", "timestamp": 1519320606440}, {"eventtype": "focus", "interval": 145, "value": "off", "timestamp": 1519320606585}, {"eventtype": "focus", "interval": 10891, "value": "on", "timestamp": 1519320617476}, {"eventtype": "focus", "interval": 2664721, "value": "off", "timestamp": 1519323282197}, {"eventtype": "focus", "interval": 75379, "value": "on", "timestamp": 1519323357576}], "data": [{"current_trial": 0, "trialdata": {"rt": 3188, "trial_type": "text", "internal_node_id": "0.0-0.0", "time_elapsed": 3198, "key_press": 32, "type": "INSTRUCTIONS", "trial_index": 0}, "uniqueid": "MTK2742:3V5Q80FXIYY7T6NN78L1HHBR9YB32Q", "dateTime": 1519320560274}, {"current_trial": 1, "trialdata": {"rt": 29633, "trial_type": "text", "internal_node_id": "0.0-1.0", "time_elapsed": 32838, "key_press": 32, "type": "INSTRUCTIONS", "trial_index": 1}, "uniqueid": "MTK2742:3V5Q80FXIYY7T6NN78L1HHBR9YB32Q", "dateTime": 1519320589907}, {"current_trial": 2, "trialdata": {"rt": [40874], "trial_type": "audio-test", "responses": ["ocean"], "internal_node_id": "0.0-2.0", "time_elapsed": 73760, "type": "AUDIO_TEST", "trial_index": 2}, "uniqueid": "MTK2742:3V5Q80FXIYY7T6NN78L1HHBR9YB32Q", "dateTime": 1519320630829}, {"current_trial": 3, "trialdata": {"rt": [21612], "trial_type": "audio-test", "responses": ["crystal"], "internal_node_id": "0.0-3.0", "time_elapsed": 95389, "type": "AUDIO_TEST", "trial_index": 3}, "uniqueid": "MTK2742:3V5Q80FXIYY7T6NN78L1HHBR9YB32Q", "dateTime": 1519320652460}, {"current_trial": 4, "trialdata": {"rt": [12299], "trial_type": "audio-test", "responses": ["spice"], "internal_node_id": "0.0-4.0", "time_elapsed": 107709, "type": "AUDIO_TEST", "trial_index": 4}, "uniqueid": "MTK2742:3V5Q80FXIYY7T6NN78L1HHBR9YB32Q", "dateTime": 1519320664778}, {"current_trial": 5, "trialdata": {"rt": 30621, "trial_type": "survey-text", "responses": "{\"Q0\":\"11\",\"Q1\":\"6\",\"Q2\":\"5\"}", "internal_node_id": "0.0-5.0", "time_elapsed": 139084, "type": "SLEEP_SURVEY", "trial_index": 5}, "uniqueid": "MTK2742:3V5Q80FXIYY7T6NN78L1HHBR9YB32Q", "dateTime": 1519320696157}, {"current_trial": 6, "trialdata": {"rt": 15854, "trial_type": "text", "internal_node_id": "0.0-6.0", "time_elapsed": 155942, "key_press": 32, "type": "INSTRUCTIONS", "trial_index": 6}, "uniqueid": "MTK2742:3V5Q80FXIYY7T6NN78L1HHBR9YB32Q", "dateTime": 1519320713011}, {"current_trial": 7, "trialdata": {"rt": 10739, "trial_type": "text", "internal_node_id": "0.0-7.0", "time_elapsed": 167183, "key_press": 32, "type": "INSTRUCTIONS", "trial_index": 7}, "uniqueid": "MTK2742:3V5Q80FXIYY7T6NN78L1HHBR9YB32Q", "dateTime": 1519320724252}, {"current_trial": 8, "trialdata": {"rt": 3916, "trial_type": "text", "internal_node_id": "0.0-8.0", "time_elapsed": 171600, "key_press": 32, "type": "INSTRUCTIONS", "trial_index": 8}, "uniqueid": "MTK2742:3V5Q80FXIYY7T6NN78L1HHBR9YB32Q", "dateTime": 1519320728669}, {"current_trial": 9, "trialdata": {"rt": [5221, 8571, 12473, 17900], "trial_type": "math-distractor", "key_times": [3465, 3970, 5221, 7689, 8571, 10994, 11731, 12473, 16945, 17113, 17900], "responses": ["10", "8", "18", "22"], "num2": [1, 5, 8, 7, 4], "num3": [6, 2, 1, 9, 7], "conditions": [18, 1200, "a", 18000], "internal_node_id": "0.0-9.0", "key_presses": [49, 48, 13, 56, 13, 49, 56, 13, 50, 50, 13], "trial": 0, "time_elapsed": 190609, "type": "DISTRACTOR", "trial_index": 9, "num1": [3, 1, 9, 6, 9]}, "uniqueid": "MTK2742:3V5Q80FXIYY7T6NN78L1HHBR9YB32Q", "dateTime": 1519320747680}, {"current_trial": 10, "trialdata": {"rt": -1, "trial_type": "single-stim", "stimulus": "<p id=\"stim\">10</p>", "internal_node_id": "0.0-10.0-0.0", "time_elapsed": 193614, "key_press": -1, "trial_index": 10}, "uniqueid": "MTK2742:3V5Q80FXIYY7T6NN78L1HHBR9YB32Q", "dateTime": 1519320750683}, {"current_trial": 11, "trialdata": {"rt": -1, "trial_type": "single-stim", "stimulus": "<p id=\"stim\">9</p>", "internal_node_id": "0.0-10.0-1.0", "time_elapsed": 194615, "key_press": -1, "trial_index": 11}, "uniqueid": "MTK2742:3V5Q80FXIYY7T6NN78L1HHBR9YB32Q", "dateTime": 1519320751684}, {"current_trial": 12, "trialdata": {"rt": -1, "trial_type": "single-stim", "stimulus": "<p id=\"stim\">8</p>", "internal_node_id": "0.0-10.0-2.0", "time_elapsed": 195618, "key_press": -1, "trial_index": 12}, "uniqueid": "MTK2742:3V5Q80FXIYY7T6NN78L1HHBR9YB32Q", "dateTime": 1519320752687}, {"current_trial": 13, "trialdata": {"rt": -1, "trial_type": "single-stim", "stimulus": "<p id=\"stim\">7</p>", "internal_node_id": "0.0-10.0-3.0", "time_elapsed": 196621, "key_press": -1, "trial_index": 13}, "uniqueid": "MTK2742:3V5Q80FXIYY7T6NN78L1HHBR9YB32Q", "dateTime": 1519320753690}, {"current_trial": 14, "trialdata": {"rt": -1, "trial_type": "single-stim", "stimulus": "<p id=\"stim\">6</p>", "internal_node_id": "0.0-10.0-4.0", "time_elapsed": 197620, "key_press": -1, "trial_index": 14}, "uniqueid": "MTK2742:3V5Q80FXIYY7T6NN78L1HHBR9YB32Q", "dateTime": 1519320754689}, {"current_trial": 15, "trialdata": {"rt": -1, "trial_type": "single-stim", "stimulus": "<p id=\"stim\">5</p>", "internal_node_id": "0.0-10.0-5.0", "time_elapsed": 198635, "key_press": -1, "trial_index": 15}, "uniqueid": "MTK2742:3V5Q80FXIYY7T6NN78L1HHBR9YB32Q", "dateTime": 1519320755704}, {"current_trial": 16, "trialdata": {"rt": -1, "trial_type": "single-stim", "stimulus": "<p id=\"stim\">4</p>", "internal_node_id": "0.0-10.0-6.0", "time_elapsed": 199636, "key_press": -1, "trial_index": 16}, "uniqueid": "MTK2742:3V5Q80FXIYY7T6NN78L1HHBR9YB32Q", "dateTime": 1519320756705}, {"current_trial": 17, "trialdata": {"rt": -1, "trial_type": "single-stim", "stimulus": "<p id=\"stim\">3</p>", "internal_node_id": "0.0-10.0-7.0", "time_elapsed": 200636, "key_press": -1, "trial_index": 17}, "uniqueid": "MTK2742:3V5Q80FXIYY7T6NN78L1HHBR9YB32Q", "dateTime": 1519320757705}, {"current_trial": 18, "trialdata": {"rt": -1, "trial_type": "single-stim", "stimulus": "<p id=\"stim\">2</p>", "internal_node_id": "0.0-10.0-8.0", "time_elapsed": 201639, "key_press": -1, "trial_index": 18}, "uniqueid": "MTK2742:3V5Q80FXIYY7T6NN78L1HHBR9YB32Q", "dateTime": 1519320758710}, {"current_trial": 19, "trialdata": {"rt": -1, "trial_type": "single-stim", "stimulus": "<p id=\"stim\">1</p>", "internal_node_id": "0.0-10.0-9.0", "time_elapsed": 202642, "key_press": -1, "trial_index": 19}, "uniqueid": "MTK2742:3V5Q80FXIYY7T6NN78L1HHBR9YB32Q", "dateTime": 1519320759711}, {"current_trial": 20, "trialdata": {"rt": -1, "trial_type": "single-stim", "stimulus": "<p id=\"stim\">+</p>", "internal_node_id": "0.0-11.0-0.0", "time_elapsed": 204144, "key_press": -1, "type": "FIXATION", "trial_index": 20}, "uniqueid": "MTK2742:3V5Q80FXIYY7T6NN78L1HHBR9YB32Q", "dateTime": 1519320761213}, {"current_trial": 21, "trialdata": {"rt": -1000, "trial_type": "single-audio", "word": "dolphin", "stimulus": "/static/audio/wordpool/DOLPHIN.wav", "conditions": [18, 1200, "a", 18000], "internal_node_id": "0.0-12.0", "trial": 0, "time_elapsed": 206240, "serialpos": 0, "key_press": -1, "wordID": 482, "type": "PRES_AUD", "trial_index": 21}, "uniqueid": "MTK2742:3V5Q80FXIYY7T6NN78L1HHBR9YB32Q", "dateTime": 1519320763309}, {"current_trial": 22, "trialdata": {"rt": -1000, "trial_type": "single-audio", "word": "body", "stimulus": "/static/audio/wordpool/BODY.wav", "conditions": [18, 1200, "a", 18000], "internal_node_id": "0.0-13.0", "trial": 0, "time_elapsed": 208424, "serialpos": 1, "key_press": -1, "wordID": 144, "type": "PRES_AUD", "trial_index": 22}, "uniqueid": "MTK2742:3V5Q80FXIYY7T6NN78L1HHBR9YB32Q", "dateTime": 1519320765493}, {"current_trial": 23, "trialdata": {"rt": -1000, "trial_type": "single-audio", "word": "arm", "stimulus": "/static/audio/wordpool/ARM.wav", "conditions": [18, 1200, "a", 18000], "internal_node_id": "0.0-14.0", "trial": 0, "time_elapsed": 210595, "serialpos": 2, "key_press": -1, "wordID": 37, "type": "PRES_AUD", "trial_index": 23}, "uniqueid": "MTK2742:3V5Q80FXIYY7T6NN78L1HHBR9YB32Q", "dateTime": 1519320767664}, {"current_trial": 24, "trialdata": {"rt": -1000, "trial_type": "single-audio", "word": "lunch", "stimulus": "/static/audio/wordpool/LUNCH.wav", "conditions": [18, 1200, "a", 18000], "internal_node_id": "0.0-15.0", "trial": 0, "time_elapsed": 212641, "serialpos": 3, "key_press": -1, "wordID": 848, "type": "PRES_AUD", "trial_index": 24}, "uniqueid": "MTK2742:3V5Q80FXIYY7T6NN78L1HHBR9YB32Q", "dateTime": 1519320769710}, {"current_trial": 25, "trialdata": {"rt": -1000, "trial_type": "single-audio", "word": "loft", "stimulus": "/static/audio/wordpool/LOFT.wav", "conditions": [18, 1200, "a", 18000], "internal_node_id": "0.0-16.0", "trial": 0, "time_elapsed": 215009, "serialpos": 4, "key_press": -1, "wordID": 839, "type": "PRES_AUD", "trial_index": 25}, "uniqueid": "MTK2742:3V5Q80FXIYY7T6NN78L1HHBR9YB32Q", "dateTime": 1519320772078}, {"current_trial": 26, "trialdata": {"rt": 59.63718820862596, "trial_type": "single-audio", "word": "robin", "stimulus": "/static/audio/wordpool/ROBIN.wav", "conditions": [18, 1200, "a", 18000], "internal_node_id": "0.0-17.0", "trial": 0, "time_elapsed": 217146, "serialpos": 5, "key_press": 76, "wordID": 1198, "type": "PRES_AUD", "trial_index": 26}, "uniqueid": "MTK2742:3V5Q80FXIYY7T6NN78L1HHBR9YB32Q", "dateTime": 1519320774215}, {"current_trial": 27, "trialdata": {"rt": -1000, "trial_type": "single-audio", "word": "cowboy", "stimulus": "/static/audio/wordpool/COWBOY.wav", "conditions": [18, 1200, "a", 18000], "internal_node_id": "0.0-18.0", "trial": 0, "time_elapsed": 219338, "serialpos": 6, "key_press": -1, "wordID": 394, "type": "PRES_AUD", "trial_index": 27}, "uniqueid": "MTK2742:3V5Q80FXIYY7T6NN78L1HHBR9YB32Q", "dateTime": 1519320776407}, {"current_trial": 28, "trialdata": {"rt": -1000, "trial_type": "single-audio", "word": "cabin", "stimulus": "/static/audio/wordpool/CABIN.wav", "conditions": [18, 1200, "a", 18000], "internal_node_id": "0.0-19.0", "trial": 0, "time_elapsed": 221604, "serialpos": 7, "key_press": -1, "wordID": 210, "type": "PRES_AUD", "trial_index": 28}, "uniqueid": "MTK2742:3V5Q80FXIYY7T6NN78L1HHBR9YB32Q", "dateTime": 1519320778673}, {"current_trial": 29, "trialdata": {"rt": -1000, "trial_type": "single-audio", "word": "tuba", "stimulus": "/static/audio/wordpool/TUBA.wav", "conditions": [18, 1200, "a", 18000], "internal_node_id": "0.0-20.0", "trial": 0, "time_elapsed": 223982, "serialpos": 8, "key_press": -1, "wordID": 1514, "type": "PRES_AUD", "trial_index": 29}, "uniqueid": "MTK2742:3V5Q80FXIYY7T6NN78L1HHBR9YB32Q", "dateTime": 1519320781053}, {"current_trial": 30, "trialdata": {"rt": -1000, "trial_type": "single-audio", "word": "chauffeur", "stimulus": "/static/audio/wordpool/CHAUFFEUR.wav", "conditions": [18, 1200, "a", 18000], "internal_node_id": "0.0-21.0", "trial": 0, "time_elapsed": 226311, "serialpos": 9, "key_press": -1, "wordID": 282, "type": "PRES_AUD", "trial_index": 30}, "uniqueid": "MTK2742:3V5Q80FXIYY7T6NN78L1HHBR9YB32Q", "dateTime": 1519320783380}, {"current_trial": 31, "trialdata": {"rt": -1000, "trial_type": "single-audio", "word": "teacher", "stimulus": "/static/audio/wordpool/TEACHER.wav", "conditions": [18, 1200, "a", 18000], "internal_node_id": "0.0-22.0", "trial": 0, "time_elapsed": 228455, "serialpos": 10, "key_press": -1, "wordID": 1439, "type": "PRES_AUD", "trial_index": 31}, "uniqueid": "MTK2742:3V5Q80FXIYY7T6NN78L1HHBR9YB32Q", "dateTime": 1519320785524}, {"current_trial": 32, "trialdata": {"rt": -1000, "trial_type": "single-audio", "word": "cobra", "stimulus": "/static/audio/wordpool/COBRA.wav", "conditions": [18, 1200, "a", 18000], "internal_node_id": "0.0-23.0", "trial": 0, "time_elapsed": 230554, "serialpos": 11, "key_press": -1, "wordID": 335, "type": "PRES_AUD", "trial_index": 32}, "uniqueid": "MTK2742:3V5Q80FXIYY7T6NN78L1HHBR9YB32Q", "dateTime": 1519320787623}, {"current_trial": 33, "trialdata": {"rt": -1000, "trial_type": "single-audio", "word": "concert", "stimulus": "/static/audio/wordpool/CONCERT.wav", "conditions": [18, 1200, "a", 18000], "internal_node_id": "0.0-24.0", "trial": 0, "time_elapsed": 232871, "serialpos": 12, "key_press": -1, "wordID": 359, "type": "PRES_AUD", "trial_index": 33}, "uniqueid": "MTK2742:3V5Q80FXIYY7T6NN78L1HHBR9YB32Q", "dateTime": 1519320789940}, {"current_trial": 34, "trialdata": {"rt": -1000, "trial_type": "single-audio", "word": "sticker", "stimulus": "/static/audio/wordpool/STICKER.wav", "conditions": [18, 1200, "a", 18000], "internal_node_id": "0.0-25.0", "trial": 0, "time_elapsed": 235057, "serialpos": 13, "key_press": -1, "wordID": 1381, "type": "PRES_AUD", "trial_index": 34}, "uniqueid": "MTK2742:3V5Q80FXIYY7T6NN78L1HHBR9YB32Q", "dateTime": 1519320792126}, {"current_trial": 35, "trialdata": {"rt": -1000, "trial_type": "single-audio", "word": "dime", "stimulus": "/static/audio/wordpool/DIME.wav", "conditions": [18, 1200, "a", 18000], "internal_node_id": "0.0-26.0", "trial": 0, "time_elapsed": 237163, "serialpos": 14, "key_press": -1, "wordID": 465, "type": "PRES_AUD", "trial_index": 35}, "uniqueid": "MTK2742:3V5Q80FXIYY7T6NN78L1HHBR9YB32Q", "dateTime": 1519320794232}, {"current_trial": 36, "trialdata": {"rt": -1000, "trial_type": "single-audio", "word": "spouse", "stimulus": "/static/audio/wordpool/SPOUSE.wav", "conditions": [18, 1200, "a", 18000], "internal_node_id": "0.0-27.0", "trial": 0, "time_elapsed": 239556, "serialpos": 15, "key_press": -1, "wordID": 1357, "type": "PRES_AUD", "trial_index": 36}, "uniqueid": "MTK2742:3V5Q80FXIYY7T6NN78L1HHBR9YB32Q", "dateTime": 1519320796625}, {"current_trial": 37, "trialdata": {"rt": -1000, "trial_type": "single-audio", "word": "crevice", "stimulus": "/static/audio/wordpool/CREVICE.wav", "conditions": [18, 1200, "a", 18000], "internal_node_id": "0.0-28.0", "trial": 0, "time_elapsed": 241699, "serialpos": 16, "key_press": -1, "wordID": 404, "type": "PRES_AUD", "trial_index": 37}, "uniqueid": "MTK2742:3V5Q80FXIYY7T6NN78L1HHBR9YB32Q", "dateTime": 1519320798768}, {"current_trial": 38, "trialdata": {"rt": -1000, "trial_type": "single-audio", "word": "fleet", "stimulus": "/static/audio/wordpool/FLEET.wav", "conditions": [18, 1200, "a", 18000], "internal_node_id": "0.0-29.0", "trial": 0, "time_elapsed": 243878, "serialpos": 17, "key_press": -1, "wordID": 577, "type": "PRES_AUD", "trial_index": 38}, "uniqueid": "MTK2742:3V5Q80FXIYY7T6NN78L1HHBR9YB32Q", "dateTime": 1519320800947}, {"current_trial": 39, "trialdata": {"rt": -1, "trial_type": "single-stim", "stimulus": "", "internal_node_id": "0.0-30.0-0.0", "time_elapsed": 245187, "key_press": -1, "type": "PRE_RECALL_DELAY", "trial_index": 39}, "uniqueid": "MTK2742:3V5Q80FXIYY7T6NN78L1HHBR9YB32Q", "dateTime": 1519320802256}, {"current_trial": 40, "trialdata": {"rt": -1000, "trial_type": "single-audio", "stimulus": "/static/audio/400Hz.wav", "internal_node_id": "0.0-31.0", "time_elapsed": 245692, "key_press": -1, "type": "PRE_RECALL_ALERT", "trial_index": 40}, "uniqueid": "MTK2742:3V5Q80FXIYY7T6NN78L1HHBR9YB32Q", "dateTime": 1519320802762}, {"current_trial": 41, "trialdata": {"rt": [5518, 9807, 15844, 19748], "recwords": ["cobra", "sugar", "fleet", "kitchen"], "key_times": [2566, 2977, 3316, 3645, 3868, 5518, 7043, 7427, 7747, 7924, 8122, 9807, 12330, 12648, 12960, 13118, 13496, 15844, 17019, 17230, 17628, 17908, 18310, 18614, 18745, 19748], "trial_type": "free-recall", "conditions": [18, 1200, "a", 18000], "internal_node_id": "0.0-32.0-0.0", "key_presses": [67, 79, 66, 82, 65, 13, 83, 85, 71, 65, 82, 13, 70, 76, 69, 69, 84, 13, 75, 73, 84, 67, 72, 69, 78, 13], "trial": 0, "time_elapsed": 305693, "type": "FREE_RECALL", "trial_index": 41}, "uniqueid": "MTK2742:3V5Q80FXIYY7T6NN78L1HHBR9YB32Q", "dateTime": 1519320862770}, {"current_trial": 42, "trialdata": {"rt": 5964, "trial_type": "text", "internal_node_id": "0.0-33.0", "time_elapsed": 313669, "key_press": 32, "type": "INSTRUCTIONS", "trial_index": 42}, "uniqueid": "MTK2742:3V5Q80FXIYY7T6NN78L1HHBR9YB32Q", "dateTime": 1519320870738}, {"current_trial": 43, "trialdata": {"rt": [6517, 10451, 16594], "trial_type": "math-distractor", "key_times": [5041, 5288, 6517, 8840, 9157, 10451, 14477, 14989, 16594], "responses": ["19", "10", "16"], "num2": [4, 4, 5, 8], "num3": [8, 3, 4, 8], "conditions": [18, 1200, "a", 18000], "internal_node_id": "0.0-34.0", "key_presses": [49, 57, 13, 49, 48, 13, 49, 54, 13], "trial": 1, "time_elapsed": 333676, "type": "DISTRACTOR", "trial_index": 43, "num1": [7, 3, 7, 1]}, "uniqueid": "MTK2742:3V5Q80FXIYY7T6NN78L1HHBR9YB32Q", "dateTime": 1519320890745}, {"current_trial": 44, "trialdata": {"rt": -1, "trial_type": "single-stim", "stimulus": "<p id=\"stim\">10</p>", "internal_node_id": "0.0-35.0-0.0", "time_elapsed": 336679, "key_press": -1, "trial_index": 44}, "uniqueid": "MTK2742:3V5Q80FXIYY7T6NN78L1HHBR9YB32Q", "dateTime": 1519320893748}, {"current_trial": 45, "trialdata": {"rt": -1, "trial_type": "single-stim", "stimulus": "<p id=\"stim\">9</p>", "internal_node_id": "0.0-35.0-1.0", "time_elapsed": 337681, "key_press": -1, "trial_index": 45}, "uniqueid": "MTK2742:3V5Q80FXIYY7T6NN78L1HHBR9YB32Q", "dateTime": 1519320894750}, {"current_trial": 46, "trialdata": {"rt": -1, "trial_type": "single-stim", "stimulus": "<p id=\"stim\">8</p>", "internal_node_id": "0.0-35.0-2.0", "time_elapsed": 338682, "key_press": -1, "trial_index": 46}, "uniqueid": "MTK2742:3V5Q80FXIYY7T6NN78L1HHBR9YB32Q", "dateTime": 1519320895751}, {"current_trial": 47, "trialdata": {"rt": -1, "trial_type": "single-stim", "stimulus": "<p id=\"stim\">7</p>", "internal_node_id": "0.0-35.0-3.0", "time_elapsed": 339687, "key_press": -1, "trial_index": 47}, "uniqueid": "MTK2742:3V5Q80FXIYY7T6NN78L1HHBR9YB32Q", "dateTime": 1519320896756}, {"current_trial": 48, "trialdata": {"rt": -1, "trial_type": "single-stim", "stimulus": "<p id=\"stim\">6</p>", "internal_node_id": "0.0-35.0-4.0", "time_elapsed": 340692, "key_press": -1, "trial_index": 48}, "uniqueid": "MTK2742:3V5Q80FXIYY7T6NN78L1HHBR9YB32Q", "dateTime": 1519320897761}, {"current_trial": 49, "trialdata": {"rt": -1, "trial_type": "single-stim", "stimulus": "<p id=\"stim\">5</p>", "internal_node_id": "0.0-35.0-5.0", "time_elapsed": 341692, "key_press": -1, "trial_index": 49}, "uniqueid": "MTK2742:3V5Q80FXIYY7T6NN78L1HHBR9YB32Q", "dateTime": 1519320898761}, {"current_trial": 50, "trialdata": {"rt": -1, "trial_type": "single-stim", "stimulus": "<p id=\"stim\">4</p>", "internal_node_id": "0.0-35.0-6.0", "time_elapsed": 342693, "key_press": -1, "trial_index": 50}, "uniqueid": "MTK2742:3V5Q80FXIYY7T6NN78L1HHBR9YB32Q", "dateTime": 1519320899762}, {"current_trial": 51, "trialdata": {"rt": -1, "trial_type": "single-stim", "stimulus": "<p id=\"stim\">3</p>", "internal_node_id": "0.0-35.0-7.0", "time_elapsed": 343696, "key_press": -1, "trial_index": 51}, "uniqueid": "MTK2742:3V5Q80FXIYY7T6NN78L1HHBR9YB32Q", "dateTime": 1519320900765}, {"current_trial": 52, "trialdata": {"rt": -1, "trial_type": "single-stim", "stimulus": "<p id=\"stim\">2</p>", "internal_node_id": "0.0-35.0-8.0", "time_elapsed": 344701, "key_press": -1, "trial_index": 52}, "uniqueid": "MTK2742:3V5Q80FXIYY7T6NN78L1HHBR9YB32Q", "dateTime": 1519320901770}, {"current_trial": 53, "trialdata": {"rt": -1, "trial_type": "single-stim", "stimulus": "<p id=\"stim\">1</p>", "internal_node_id": "0.0-35.0-9.0", "time_elapsed": 345703, "key_press": -1, "trial_index": 53}, "uniqueid": "MTK2742:3V5Q80FXIYY7T6NN78L1HHBR9YB32Q", "dateTime": 1519320902772}, {"current_trial": 54, "trialdata": {"rt": -1, "trial_type": "single-stim", "stimulus": "<p id=\"stim\">+</p>", "internal_node_id": "0.0-36.0-0.0", "time_elapsed": 347207, "key_press": -1, "type": "FIXATION", "trial_index": 54}, "uniqueid": "MTK2742:3V5Q80FXIYY7T6NN78L1HHBR9YB32Q", "dateTime": 1519320904276}, {"current_trial": 55, "trialdata": {"rt": -1000, "trial_type": "single-audio", "word": "maple", "stimulus": "/static/audio/wordpool/MAPLE.wav", "conditions": [18, 1200, "a", 18000], "internal_node_id": "0.0-37.0", "trial": 1, "time_elapsed": 349335, "serialpos": 0, "key_press": -1, "wordID": 865, "type": "PRES_AUD", "trial_index": 55}, "uniqueid": "MTK2742:3V5Q80FXIYY7T6NN78L1HHBR9YB32Q", "dateTime": 1519320906404}, {"current_trial": 56, "trialdata": {"rt": -1000, "trial_type": "single-audio", "word": "machine", "stimulus": "/static/audio/wordpool/MACHINE.wav", "conditions": [18, 1200, "a", 18000], "internal_node_id": "0.0-38.0", "trial": 1, "time_elapsed": 351676, "serialpos": 1, "key_press": -1, "wordID": 851, "type": "PRES_AUD", "trial_index": 56}, "uniqueid": "MTK2742:3V5Q80FXIYY7T6NN78L1HHBR9YB32Q", "dateTime": 1519320908745}, {"current_trial": 57, "trialdata": {"rt": -1000, "trial_type": "single-audio", "word": "chest", "stimulus": "/static/audio/wordpool/CHEST.wav", "conditions": [18, 1200, "a", 18000], "internal_node_id": "0.0-39.0", "trial": 1, "time_elapsed": 353704, "serialpos": 2, "key_press": -1, "wordID": 294, "type": "PRES_AUD", "trial_index": 57}, "uniqueid": "MTK2742:3V5Q80FXIYY7T6NN78L1HHBR9YB32Q", "dateTime": 1519320910773}, {"current_trial": 58, "trialdata": {"rt": -1000, "trial_type": "single-audio", "word": "fungus", "stimulus": "/static/audio/wordpool/FUNGUS.wav", "conditions": [18, 1200, "a", 18000], "internal_node_id": "0.0-40.0", "trial": 1, "time_elapsed": 355830, "serialpos": 3, "key_press": -1, "wordID": 613, "type": "PRES_AUD", "trial_index": 58}, "uniqueid": "MTK2742:3V5Q80FXIYY7T6NN78L1HHBR9YB32Q", "dateTime": 1519320912899}, {"current_trial": 59, "trialdata": {"rt": -1000, "trial_type": "single-audio", "word": "cross", "stimulus": "/static/audio/wordpool/CROSS.wav", "conditions": [18, 1200, "a", 18000], "internal_node_id": "0.0-41.0", "trial": 1, "time_elapsed": 358093, "serialpos": 4, "key_press": -1, "wordID": 412, "type": "PRES_AUD", "trial_index": 59}, "uniqueid": "MTK2742:3V5Q80FXIYY7T6NN78L1HHBR9YB32Q", "dateTime": 1519320915162}, {"current_trial": 60, "trialdata": {"rt": -1000, "trial_type": "single-audio", "word": "coin", "stimulus": "/static/audio/wordpool/COIN.wav", "conditions": [18, 1200, "a", 18000], "internal_node_id": "0.0-42.0", "trial": 1, "time_elapsed": 360326, "serialpos": 5, "key_press": -1, "wordID": 342, "type": "PRES_AUD", "trial_index": 60}, "uniqueid": "MTK2742:3V5Q80FXIYY7T6NN78L1HHBR9YB32Q", "dateTime": 1519320917397}, {"current_trial": 61, "trialdata": {"rt": -1000, "trial_type": "single-audio", "word": "wife", "stimulus": "/static/audio/wordpool/WIFE.wav", "conditions": [18, 1200, "a", 18000], "internal_node_id": "0.0-43.0", "trial": 1, "time_elapsed": 362359, "serialpos": 6, "key_press": -1, "wordID": 1608, "type": "PRES_AUD", "trial_index": 61}, "uniqueid": "MTK2742:3V5Q80FXIYY7T6NN78L1HHBR9YB32Q", "dateTime": 1519320919428}, {"current_trial": 62, "trialdata": {"rt": -1000, "trial_type": "single-audio", "word": "fiddle", "stimulus": "/static/audio/wordpool/FIDDLE.wav", "conditions": [18, 1200, "a", 18000], "internal_node_id": "0.0-44.0", "trial": 1, "time_elapsed": 364523, "serialpos": 7, "key_press": -1, "wordID": 560, "type": "PRES_AUD", "trial_index": 62}, "uniqueid": "MTK2742:3V5Q80FXIYY7T6NN78L1HHBR9YB32Q", "dateTime": 1519320921592}, {"current_trial": 63, "trialdata": {"rt": -1000, "trial_type": "single-audio", "word": "driver", "stimulus": "/static/audio/wordpool/DRIVER.wav", "conditions": [18, 1200, "a", 18000], "internal_node_id": "0.0-45.0", "trial": 1, "time_elapsed": 366672, "serialpos": 8, "key_press": -1, "wordID": 498, "type": "PRES_AUD", "trial_index": 63}, "uniqueid": "MTK2742:3V5Q80FXIYY7T6NN78L1HHBR9YB32Q", "dateTime": 1519320923741}, {"current_trial": 64, "trialdata": {"rt": -1000, "trial_type": "single-audio", "word": "patient", "stimulus": "/static/audio/wordpool/PATIENT.wav", "conditions": [18, 1200, "a", 18000], "internal_node_id": "0.0-46.0", "trial": 1, "time_elapsed": 368711, "serialpos": 9, "key_press": -1, "wordID": 1023, "type": "PRES_AUD", "trial_index": 64}, "uniqueid": "MTK2742:3V5Q80FXIYY7T6NN78L1HHBR9YB32Q", "dateTime": 1519320925780}, {"current_trial": 65, "trialdata": {"rt": -1000, "trial_type": "single-audio", "word": "hamper", "stimulus": "/static/audio/wordpool/HAMPER.wav", "conditions": [18, 1200, "a", 18000], "internal_node_id": "0.0-47.0", "trial": 1, "time_elapsed": 370924, "serialpos": 10, "key_press": -1, "wordID": 681, "type": "PRES_AUD", "trial_index": 65}, "uniqueid": "MTK2742:3V5Q80FXIYY7T6NN78L1HHBR9YB32Q", "dateTime": 1519320927993}, {"current_trial": 66, "trialdata": {"rt": -1000, "trial_type": "single-audio", "word": "raft", "stimulus": "/static/audio/wordpool/RAFT.wav", "conditions": [18, 1200, "a", 18000], "internal_node_id": "0.0-48.0", "trial": 1, "time_elapsed": 373226, "serialpos": 11, "key_press": -1, "wordID": 1158, "type": "PRES_AUD", "trial_index": 66}, "uniqueid": "MTK2742:3V5Q80FXIYY7T6NN78L1HHBR9YB32Q", "dateTime": 1519320930298}, {"current_trial": 67, "trialdata": {"rt": -1000, "trial_type": "single-audio", "word": "waiter", "stimulus": "/static/audio/wordpool/WAITER.wav", "conditions": [18, 1200, "a", 18000], "internal_node_id": "0.0-49.0", "trial": 1, "time_elapsed": 375295, "serialpos": 12, "key_press": -1, "wordID": 1579, "type": "PRES_AUD", "trial_index": 67}, "uniqueid": "MTK2742:3V5Q80FXIYY7T6NN78L1HHBR9YB32Q", "dateTime": 1519320932364}, {"current_trial": 68, "trialdata": {"rt": -1000, "trial_type": "single-audio", "word": "hound", "stimulus": "/static/audio/wordpool/HOUND.wav", "conditions": [18, 1200, "a", 18000], "internal_node_id": "0.0-50.0", "trial": 1, "time_elapsed": 377323, "serialpos": 13, "key_press": -1, "wordID": 723, "type": "PRES_AUD", "trial_index": 68}, "uniqueid": "MTK2742:3V5Q80FXIYY7T6NN78L1HHBR9YB32Q", "dateTime": 1519320934398}, {"current_trial": 69, "trialdata": {"rt": -1000, "trial_type": "single-audio", "word": "college", "stimulus": "/static/audio/wordpool/COLLEGE.wav", "conditions": [18, 1200, "a", 18000], "internal_node_id": "0.0-51.0", "trial": 1, "time_elapsed": 379725, "serialpos": 14, "key_press": -1, "wordID": 345, "type": "PRES_AUD", "trial_index": 69}, "uniqueid": "MTK2742:3V5Q80FXIYY7T6NN78L1HHBR9YB32Q", "dateTime": 1519320936794}, {"current_trial": 70, "trialdata": {"rt": -1000, "trial_type": "single-audio", "word": "pluto", "stimulus": "/static/audio/wordpool/PLUTO.wav", "conditions": [18, 1200, "a", 18000], "internal_node_id": "0.0-52.0", "trial": 1, "time_elapsed": 381791, "serialpos": 15, "key_press": -1, "wordID": 1091, "type": "PRES_AUD", "trial_index": 70}, "uniqueid": "MTK2742:3V5Q80FXIYY7T6NN78L1HHBR9YB32Q", "dateTime": 1519320938860}, {"current_trial": 71, "trialdata": {"rt": -1000, "trial_type": "single-audio", "word": "office", "stimulus": "/static/audio/wordpool/OFFICE.wav", "conditions": [18, 1200, "a", 18000], "internal_node_id": "0.0-53.0", "trial": 1, "time_elapsed": 384170, "serialpos": 16, "key_press": -1, "wordID": 971, "type": "PRES_AUD", "trial_index": 71}, "uniqueid": "MTK2742:3V5Q80FXIYY7T6NN78L1HHBR9YB32Q", "dateTime": 1519320941239}, {"current_trial": 72, "trialdata": {"rt": -1000, "trial_type": "single-audio", "word": "playground", "stimulus": "/static/audio/wordpool/PLAYGROUND.wav", "conditions": [18, 1200, "a", 18000], "internal_node_id": "0.0-54.0", "trial": 1, "time_elapsed": 386221, "serialpos": 17, "key_press": -1, "wordID": 1086, "type": "PRES_AUD", "trial_index": 72}, "uniqueid": "MTK2742:3V5Q80FXIYY7T6NN78L1HHBR9YB32Q", "dateTime": 1519320943290}, {"current_trial": 73, "trialdata": {"rt": -1, "trial_type": "single-stim", "stimulus": "", "internal_node_id": "0.0-55.0-0.0", "time_elapsed": 387524, "key_press": -1, "type": "PRE_RECALL_DELAY", "trial_index": 73}, "uniqueid": "MTK2742:3V5Q80FXIYY7T6NN78L1HHBR9YB32Q", "dateTime": 1519320944593}, {"current_trial": 74, "trialdata": {"rt": -1000, "trial_type": "single-audio", "stimulus": "/static/audio/400Hz.wav", "internal_node_id": "0.0-56.0", "time_elapsed": 388026, "key_press": -1, "type": "PRE_RECALL_ALERT", "trial_index": 74}, "uniqueid": "MTK2742:3V5Q80FXIYY7T6NN78L1HHBR9YB32Q", "dateTime": 1519320945095}, {"current_trial": 75, "trialdata": {"rt": [6357, 10014, 12393, 16162, 20335, 24132, 28484, 31771, 36613, 43221], "recwords": ["machine", "truck", "car", "wife", "driver", "patient", "temple", "college", "office", "playground"], "key_times": [3223, 3576, 4087, 4565, 4812, 5055, 5376, 6357, 7932, 8216, 8438, 8931, 9275, 10014, 11410, 11574, 11801, 12393, 13628, 13908, 14278, 14519, 16162, 17357, 17597, 17812, 18359, 18638, 18853, 20335, 21116, 21394, 21799, 22244, 22492, 22723, 23132, 24132, 25973, 26242, 26636, 26935, 27172, 27449, 28484, 29157, 29487, 29693, 29844, 30044, 30358, 30613, 31771, 33011, 33434, 33569, 34208, 34683, 34934, 36613, 37165, 37405, 37683, 37930, 38196, 38488, 39132, 39436, 39728, 40600, 41123, 42561, 43221], "trial_type": "free-recall", "conditions": [18, 1200, "a", 18000], "internal_node_id": "0.0-57.0-0.0", "key_presses": [77, 65, 67, 72, 73, 78, 69, 13, 84, 82, 85, 67, 75, 13, 67, 65, 82, 13, 87, 73, 70, 69, 13, 68, 82, 73, 86, 69, 82, 13, 80, 65, 84, 73, 69, 78, 84, 13, 84, 69, 77, 80, 76, 69, 13, 67, 79, 76, 76, 69, 71, 69, 13, 79, 70, 70, 73, 67, 69, 13, 80, 76, 65, 89, 71, 82, 79, 85, 66, 8, 78, 68, 13], "trial": 1, "time_elapsed": 448028, "type": "FREE_RECALL", "trial_index": 75}, "uniqueid": "MTK2742:3V5Q80FXIYY7T6NN78L1HHBR9YB32Q", "dateTime": 1519321005097}, {"current_trial": 76, "trialdata": {"rt": 8060, "trial_type": "text", "internal_node_id": "0.0-58.0", "time_elapsed": 458090, "key_press": 32, "type": "INSTRUCTIONS", "trial_index": 76}, "uniqueid": "MTK2742:3V5Q80FXIYY7T6NN78L1HHBR9YB32Q", "dateTime": 1519321015159}, {"current_trial": 77, "trialdata": {"rt": [5203, 10243, 14042, 18181, 20844, 23872], "trial_type": "math-distractor", "key_times": [3196, 3462, 5203, 9332, 9543, 10243, 12823, 13523, 14042, 16751, 17430, 18181, 20080, 20324, 20844, 22892, 23481, 23872], "responses": ["12", "21", "18", "16", "13", "18"], "num2": [2, 7, 7, 8, 3, 3, 1], "num3": [4, 9, 5, 4, 7, 8, 3], "conditions": [12, 800, "a", 24000], "internal_node_id": "0.0-59.0", "key_presses": [49, 50, 13, 50, 49, 13, 49, 56, 13, 49, 54, 13, 49, 51, 13, 49, 56, 13], "trial": 2, "time_elapsed": 483097, "type": "DISTRACTOR", "trial_index": 77, "num1": [6, 5, 6, 4, 3, 7, 4]}, "uniqueid": "MTK2742:3V5Q80FXIYY7T6NN78L1HHBR9YB32Q", "dateTime": 1519321040166}, {"current_trial": 78, "trialdata": {"rt": -1, "trial_type": "single-stim", "stimulus": "<p id=\"stim\">10</p>", "internal_node_id": "0.0-60.0-0.0", "time_elapsed": 486098, "key_press": -1, "trial_index": 78}, "uniqueid": "MTK2742:3V5Q80FXIYY7T6NN78L1HHBR9YB32Q", "dateTime": 1519321043167}, {"current_trial": 79, "trialdata": {"rt": -1, "trial_type": "single-stim", "stimulus": "<p id=\"stim\">9</p>", "internal_node_id": "0.0-60.0-1.0", "time_elapsed": 487098, "key_press": -1, "trial_index": 79}, "uniqueid": "MTK2742:3V5Q80FXIYY7T6NN78L1HHBR9YB32Q", "dateTime": 1519321044167}, {"current_trial": 80, "trialdata": {"rt": -1, "trial_type": "single-stim", "stimulus": "<p id=\"stim\">8</p>", "internal_node_id": "0.0-60.0-2.0", "time_elapsed": 488111, "key_press": -1, "trial_index": 80}, "uniqueid": "MTK2742:3V5Q80FXIYY7T6NN78L1HHBR9YB32Q", "dateTime": 1519321045180}, {"current_trial": 81, "trialdata": {"rt": -1, "trial_type": "single-stim", "stimulus": "<p id=\"stim\">7</p>", "internal_node_id": "0.0-60.0-3.0", "time_elapsed": 489111, "key_press": -1, "trial_index": 81}, "uniqueid": "MTK2742:3V5Q80FXIYY7T6NN78L1HHBR9YB32Q", "dateTime": 1519321046180}, {"current_trial": 82, "trialdata": {"rt": -1, "trial_type": "single-stim", "stimulus": "<p id=\"stim\">6</p>", "internal_node_id": "0.0-60.0-4.0", "time_elapsed": 490113, "key_press": -1, "trial_index": 82}, "uniqueid": "MTK2742:3V5Q80FXIYY7T6NN78L1HHBR9YB32Q", "dateTime": 1519321047183}, {"current_trial": 83, "trialdata": {"rt": -1, "trial_type": "single-stim", "stimulus": "<p id=\"stim\">5</p>", "internal_node_id": "0.0-60.0-5.0", "time_elapsed": 491117, "key_press": -1, "trial_index": 83}, "uniqueid": "MTK2742:3V5Q80FXIYY7T6NN78L1HHBR9YB32Q", "dateTime": 1519321048186}, {"current_trial": 84, "trialdata": {"rt": -1, "trial_type": "single-stim", "stimulus": "<p id=\"stim\">4</p>", "internal_node_id": "0.0-60.0-6.0", "time_elapsed": 492117, "key_press": -1, "trial_index": 84}, "uniqueid": "MTK2742:3V5Q80FXIYY7T6NN78L1HHBR9YB32Q", "dateTime": 1519321049186}, {"current_trial": 85, "trialdata": {"rt": -1, "trial_type": "single-stim", "stimulus": "<p id=\"stim\">3</p>", "internal_node_id": "0.0-60.0-7.0", "time_elapsed": 493117, "key_press": -1, "trial_index": 85}, "uniqueid": "MTK2742:3V5Q80FXIYY7T6NN78L1HHBR9YB32Q", "dateTime": 1519321050186}, {"current_trial": 86, "trialdata": {"rt": -1, "trial_type": "single-stim", "stimulus": "<p id=\"stim\">2</p>", "internal_node_id": "0.0-60.0-8.0", "time_elapsed": 494116, "key_press": -1, "trial_index": 86}, "uniqueid": "MTK2742:3V5Q80FXIYY7T6NN78L1HHBR9YB32Q", "dateTime": 1519321051185}, {"current_trial": 87, "trialdata": {"rt": -1, "trial_type": "single-stim", "stimulus": "<p id=\"stim\">1</p>", "internal_node_id": "0.0-60.0-9.0", "time_elapsed": 495118, "key_press": -1, "trial_index": 87}, "uniqueid": "MTK2742:3V5Q80FXIYY7T6NN78L1HHBR9YB32Q", "dateTime": 1519321052187}, {"current_trial": 88, "trialdata": {"rt": -1, "trial_type": "single-stim", "stimulus": "<p id=\"stim\">+</p>", "internal_node_id": "0.0-61.0-0.0", "time_elapsed": 496618, "key_press": -1, "type": "FIXATION", "trial_index": 88}, "uniqueid": "MTK2742:3V5Q80FXIYY7T6NN78L1HHBR9YB32Q", "dateTime": 1519321053689}, {"current_trial": 89, "trialdata": {"rt": -1000, "trial_type": "single-audio", "word": "pecan", "stimulus": "/static/audio/wordpool/PECAN.wav", "conditions": [12, 800, "a", 24000], "internal_node_id": "0.0-62.0", "trial": 2, "time_elapsed": 498330, "serialpos": 0, "key_press": -1, "wordID": 1035, "type": "PRES_AUD", "trial_index": 89}, "uniqueid": "MTK2742:3V5Q80FXIYY7T6NN78L1HHBR9YB32Q", "dateTime": 1519321055399}, {"current_trial": 90, "trialdata": {"rt": -1000, "trial_type": "single-audio", "word": "clam", "stimulus": "/static/audio/wordpool/CLAM.wav", "conditions": [12, 800, "a", 24000], "internal_node_id": "0.0-63.0", "trial": 2, "time_elapsed": 499969, "serialpos": 1, "key_press": -1, "wordID": 314, "type": "PRES_AUD", "trial_index": 90}, "uniqueid": "MTK2742:3V5Q80FXIYY7T6NN78L1HHBR9YB32Q", "dateTime": 1519321057038}, {"current_trial": 91, "trialdata": {"rt": -1000, "trial_type": "single-audio", "word": "necklace", "stimulus": "/static/audio/wordpool/NECKLACE.wav", "conditions": [12, 800, "a", 24000], "internal_node_id": "0.0-64.0", "trial": 2, "time_elapsed": 501895, "serialpos": 2, "key_press": -1, "wordID": 939, "type": "PRES_AUD", "trial_index": 91}, "uniqueid": "MTK2742:3V5Q80FXIYY7T6NN78L1HHBR9YB32Q", "dateTime": 1519321058964}, {"current_trial": 92, "trialdata": {"rt": -1000, "trial_type": "single-audio", "word": "tablet", "stimulus": "/static/audio/wordpool/TABLET.wav", "conditions": [12, 800, "a", 24000], "internal_node_id": "0.0-65.0", "trial": 2, "time_elapsed": 503620, "serialpos": 3, "key_press": -1, "wordID": 1426, "type": "PRES_AUD", "trial_index": 92}, "uniqueid": "MTK2742:3V5Q80FXIYY7T6NN78L1HHBR9YB32Q", "dateTime": 1519321060689}, {"current_trial": 93, "trialdata": {"rt": -1000, "trial_type": "single-audio", "word": "cookbook", "stimulus": "/static/audio/wordpool/COOKBOOK.wav", "conditions": [12, 800, "a", 24000], "internal_node_id": "0.0-66.0", "trial": 2, "time_elapsed": 505596, "serialpos": 4, "key_press": -1, "wordID": 372, "type": "PRES_AUD", "trial_index": 93}, "uniqueid": "MTK2742:3V5Q80FXIYY7T6NN78L1HHBR9YB32Q", "dateTime": 1519321062665}, {"current_trial": 94, "trialdata": {"rt": -1000, "trial_type": "single-audio", "word": "pasta", "stimulus": "/static/audio/wordpool/PASTA.wav", "conditions": [12, 800, "a", 24000], "internal_node_id": "0.0-67.0", "trial": 2, "time_elapsed": 507380, "serialpos": 5, "key_press": -1, "wordID": 1020, "type": "PRES_AUD", "trial_index": 94}, "uniqueid": "MTK2742:3V5Q80FXIYY7T6NN78L1HHBR9YB32Q", "dateTime": 1519321064449}, {"current_trial": 95, "trialdata": {"rt": -1000, "trial_type": "single-audio", "word": "branch", "stimulus": "/static/audio/wordpool/BRANCH.wav", "conditions": [12, 800, "a", 24000], "internal_node_id": "0.0-68.0", "trial": 2, "time_elapsed": 509126, "serialpos": 6, "key_press": -1, "wordID": 167, "type": "PRES_AUD", "trial_index": 95}, "uniqueid": "MTK2742:3V5Q80FXIYY7T6NN78L1HHBR9YB32Q", "dateTime": 1519321066195}, {"current_trial": 96, "trialdata": {"rt": -1000, "trial_type": "single-audio", "word": "brandy", "stimulus": "/static/audio/wordpool/BRANDY.wav", "conditions": [12, 800, "a", 24000], "internal_node_id": "0.0-69.0", "trial": 2, "time_elapsed": 511034, "serialpos": 7, "key_press": -1, "wordID": 168, "type": "PRES_AUD", "trial_index": 96}, "uniqueid": "MTK2742:3V5Q80FXIYY7T6NN78L1HHBR9YB32Q", "dateTime": 1519321068103}, {"current_trial": 97, "trialdata": {"rt": -1000, "trial_type": "single-audio", "word": "scotch", "stimulus": "/static/audio/wordpool/SCOTCH.wav", "conditions": [12, 800, "a", 24000], "internal_node_id": "0.0-70.0", "trial": 2, "time_elapsed": 513025, "serialpos": 8, "key_press": -1, "wordID": 1250, "type": "PRES_AUD", "trial_index": 97}, "uniqueid": "MTK2742:3V5Q80FXIYY7T6NN78L1HHBR9YB32Q", "dateTime": 1519321070094}, {"current_trial": 98, "trialdata": {"rt": -1000, "trial_type": "single-audio", "word": "bank", "stimulus": "/static/audio/wordpool/BANK.wav", "conditions": [12, 800, "a", 24000], "internal_node_id": "0.0-71.0", "trial": 2, "time_elapsed": 514727, "serialpos": 9, "key_press": -1, "wordID": 82, "type": "PRES_AUD", "trial_index": 98}, "uniqueid": "MTK2742:3V5Q80FXIYY7T6NN78L1HHBR9YB32Q", "dateTime": 1519321071796}, {"current_trial": 99, "trialdata": {"rt": -1000, "trial_type": "single-audio", "word": "poet", "stimulus": "/static/audio/wordpool/POET.wav", "conditions": [12, 800, "a", 24000], "internal_node_id": "0.0-72.0", "trial": 2, "time_elapsed": 516717, "serialpos": 10, "key_press": -1, "wordID": 1094, "type": "PRES_AUD", "trial_index": 99}, "uniqueid": "MTK2742:3V5Q80FXIYY7T6NN78L1HHBR9YB32Q", "dateTime": 1519321073786}, {"current_trial": 100, "trialdata": {"rt": -1000, "trial_type": "single-audio", "word": "pocket", "stimulus": "/static/audio/wordpool/POCKET.wav", "conditions": [12, 800, "a", 24000], "internal_node_id": "0.0-73.0", "trial": 2, "time_elapsed": 518719, "serialpos": 11, "key_press": -1, "wordID": 1092, "type": "PRES_AUD", "trial_index": 100}, "uniqueid": "MTK2742:3V5Q80FXIYY7T6NN78L1HHBR9YB32Q", "dateTime": 1519321075788}, {"current_trial": 101, "trialdata": {"rt": -1, "trial_type": "single-stim", "stimulus": "", "internal_node_id": "0.0-74.0-0.0", "time_elapsed": 520014, "key_press": -1, "type": "PRE_RECALL_DELAY", "trial_index": 101}, "uniqueid": "MTK2742:3V5Q80FXIYY7T6NN78L1HHBR9YB32Q", "dateTime": 1519321077083}, {"current_trial": 102, "trialdata": {"rt": -1000, "trial_type": "single-audio", "stimulus": "/static/audio/400Hz.wav", "internal_node_id": "0.0-75.0", "time_elapsed": 520518, "key_press": -1, "type": "PRE_RECALL_ALERT", "trial_index": 102}, "uniqueid": "MTK2742:3V5Q80FXIYY7T6NN78L1HHBR9YB32Q", "dateTime": 1519321077587}, {"current_trial": 103, "trialdata": {"rt": [4624, 9513, 14754, 17952, 21837, 26059, 29821], "recwords": ["corn", "tablet", "cookbook", "pasta", "brandy", "scotch", "pocket"], "key_times": [2560, 2704, 3132, 3484, 4624, 5827, 6063, 6300, 6982, 7297, 7575, 9513, 10623, 10984, 11151, 11431, 12542, 13041, 13175, 13356, 14754, 15683, 16055, 16313, 16513, 16654, 17952, 18779, 19146, 19352, 19824, 20348, 20853, 21837, 23023, 23280, 23708, 24143, 24453, 24823, 26059, 26760, 27003, 27573, 27591, 28001, 28122, 29821], "trial_type": "free-recall", "conditions": [12, 800, "a", 24000], "internal_node_id": "0.0-76.0-0.0", "key_presses": [67, 79, 82, 78, 13, 84, 65, 66, 76, 69, 84, 13, 67, 79, 79, 75, 66, 79, 79, 75, 13, 80, 65, 83, 84, 65, 13, 66, 82, 65, 78, 68, 89, 13, 83, 67, 79, 84, 67, 72, 13, 80, 79, 67, 75, 69, 84, 13], "trial": 2, "time_elapsed": 580524, "type": "FREE_RECALL", "trial_index": 103}, "uniqueid": "MTK2742:3V5Q80FXIYY7T6NN78L1HHBR9YB32Q", "dateTime": 1519321137596}, {"current_trial": 104, "trialdata": {"rt": 3081, "trial_type": "text", "internal_node_id": "0.0-77.0", "time_elapsed": 585608, "key_press": 32, "type": "INSTRUCTIONS", "trial_index": 104}, "uniqueid": "MTK2742:3V5Q80FXIYY7T6NN78L1HHBR9YB32Q", "dateTime": 1519321142677}, {"current_trial": 105, "trialdata": {"rt": [5483, 9633], "trial_type": "math-distractor", "key_times": [4043, 4275, 5483, 7692, 8964, 9633, 11541, 11734], "responses": ["17", "18"], "num2": [2, 8, 3], "num3": [7, 2, 1], "conditions": [12, 800, "a", 12000], "internal_node_id": "0.0-78.0", "key_presses": [49, 55, 13, 49, 56, 13, 49, 49], "trial": 3, "time_elapsed": 599612, "type": "DISTRACTOR", "trial_index": 105, "num1": [8, 8, 7]}, "uniqueid": "MTK2742:3V5Q80FXIYY7T6NN78L1HHBR9YB32Q", "dateTime": 1519321156681}, {"current_trial": 106, "trialdata": {"rt": -1, "trial_type": "single-stim", "stimulus": "<p id=\"stim\">10</p>", "internal_node_id": "0.0-79.0-0.0", "time_elapsed": 602616, "key_press": -1, "trial_index": 106}, "uniqueid": "MTK2742:3V5Q80FXIYY7T6NN78L1HHBR9YB32Q", "dateTime": 1519321159685}, {"current_trial": 107, "trialdata": {"rt": -1, "trial_type": "single-stim", "stimulus": "<p id=\"stim\">9</p>", "internal_node_id": "0.0-79.0-1.0", "time_elapsed": 603617, "key_press": -1, "trial_index": 107}, "uniqueid": "MTK2742:3V5Q80FXIYY7T6NN78L1HHBR9YB32Q", "dateTime": 1519321160686}, {"current_trial": 108, "trialdata": {"rt": -1, "trial_type": "single-stim", "stimulus": "<p id=\"stim\">8</p>", "internal_node_id": "0.0-79.0-2.0", "time_elapsed": 604628, "key_press": -1, "trial_index": 108}, "uniqueid": "MTK2742:3V5Q80FXIYY7T6NN78L1HHBR9YB32Q", "dateTime": 1519321161697}, {"current_trial": 109, "trialdata": {"rt": -1, "trial_type": "single-stim", "stimulus": "<p id=\"stim\">7</p>", "internal_node_id": "0.0-79.0-3.0", "time_elapsed": 605630, "key_press": -1, "trial_index": 109}, "uniqueid": "MTK2742:3V5Q80FXIYY7T6NN78L1HHBR9YB32Q", "dateTime": 1519321162699}, {"current_trial": 110, "trialdata": {"rt": -1, "trial_type": "single-stim", "stimulus": "<p id=\"stim\">6</p>", "internal_node_id": "0.0-79.0-4.0", "time_elapsed": 606637, "key_press": -1, "trial_index": 110}, "uniqueid": "MTK2742:3V5Q80FXIYY7T6NN78L1HHBR9YB32Q", "dateTime": 1519321163706}, {"current_trial": 111, "trialdata": {"rt": -1, "trial_type": "single-stim", "stimulus": "<p id=\"stim\">5</p>", "internal_node_id": "0.0-79.0-5.0", "time_elapsed": 607648, "key_press": -1, "trial_index": 111}, "uniqueid": "MTK2742:3V5Q80FXIYY7T6NN78L1HHBR9YB32Q", "dateTime": 1519321164717}, {"current_trial": 112, "trialdata": {"rt": -1, "trial_type": "single-stim", "stimulus": "<p id=\"stim\">4</p>", "internal_node_id": "0.0-79.0-6.0", "time_elapsed": 608648, "key_press": -1, "trial_index": 112}, "uniqueid": "MTK2742:3V5Q80FXIYY7T6NN78L1HHBR9YB32Q", "dateTime": 1519321165717}, {"current_trial": 113, "trialdata": {"rt": -1, "trial_type": "single-stim", "stimulus": "<p id=\"stim\">3</p>", "internal_node_id": "0.0-79.0-7.0", "time_elapsed": 609649, "key_press": -1, "trial_index": 113}, "uniqueid": "MTK2742:3V5Q80FXIYY7T6NN78L1HHBR9YB32Q", "dateTime": 1519321166718}, {"current_trial": 114, "trialdata": {"rt": -1, "trial_type": "single-stim", "stimulus": "<p id=\"stim\">2</p>", "internal_node_id": "0.0-79.0-8.0", "time_elapsed": 610651, "key_press": -1, "trial_index": 114}, "uniqueid": "MTK2742:3V5Q80FXIYY7T6NN78L1HHBR9YB32Q", "dateTime": 1519321167720}, {"current_trial": 115, "trialdata": {"rt": -1, "trial_type": "single-stim", "stimulus": "<p id=\"stim\">1</p>", "internal_node_id": "0.0-79.0-9.0", "time_elapsed": 611653, "key_press": -1, "trial_index": 115}, "uniqueid": "MTK2742:3V5Q80FXIYY7T6NN78L1HHBR9YB32Q", "dateTime": 1519321168722}, {"current_trial": 116, "trialdata": {"rt": -1, "trial_type": "single-stim", "stimulus": "<p id=\"stim\">+</p>", "internal_node_id": "0.0-80.0-0.0", "time_elapsed": 613153, "key_press": -1, "type": "FIXATION", "trial_index": 116}, "uniqueid": "MTK2742:3V5Q80FXIYY7T6NN78L1HHBR9YB32Q", "dateTime": 1519321170222}, {"current_trial": 117, "trialdata": {"rt": -1000, "trial_type": "single-audio", "word": "lake", "stimulus": "/static/audio/wordpool/LAKE.wav", "conditions": [12, 800, "a", 12000], "internal_node_id": "0.0-81.0", "trial": 3, "time_elapsed": 614859, "serialpos": 0, "key_press": -1, "wordID": 795, "type": "PRES_AUD", "trial_index": 117}, "uniqueid": "MTK2742:3V5Q80FXIYY7T6NN78L1HHBR9YB32Q", "dateTime": 1519321171929}, {"current_trial": 118, "trialdata": {"rt": -1000, "trial_type": "single-audio", "word": "piano", "stimulus": "/static/audio/wordpool/PIANO.wav", "conditions": [12, 800, "a", 12000], "internal_node_id": "0.0-82.0", "trial": 3, "time_elapsed": 616659, "serialpos": 1, "key_press": -1, "wordID": 1056, "type": "PRES_AUD", "trial_index": 118}, "uniqueid": "MTK2742:3V5Q80FXIYY7T6NN78L1HHBR9YB32Q", "dateTime": 1519321173731}, {"current_trial": 119, "trialdata": {"rt": -1000, "trial_type": "single-audio", "word": "wagon", "stimulus": "/static/audio/wordpool/WAGON.wav", "conditions": [12, 800, "a", 12000], "internal_node_id": "0.0-83.0", "trial": 3, "time_elapsed": 618521, "serialpos": 2, "key_press": -1, "wordID": 1577, "type": "PRES_AUD", "trial_index": 119}, "uniqueid": "MTK2742:3V5Q80FXIYY7T6NN78L1HHBR9YB32Q", "dateTime": 1519321175590}, {"current_trial": 120, "trialdata": {"rt": -1000, "trial_type": "single-audio", "word": "spool", "stimulus": "/static/audio/wordpool/SPOOL.wav", "conditions": [12, 800, "a", 12000], "internal_node_id": "0.0-84.0", "trial": 3, "time_elapsed": 620232, "serialpos": 3, "key_press": -1, "wordID": 1355, "type": "PRES_AUD", "trial_index": 120}, "uniqueid": "MTK2742:3V5Q80FXIYY7T6NN78L1HHBR9YB32Q", "dateTime": 1519321177301}, {"current_trial": 121, "trialdata": {"rt": -1000, "trial_type": "single-audio", "word": "rod", "stimulus": "/static/audio/wordpool/ROD.wav", "conditions": [12, 800, "a", 12000], "internal_node_id": "0.0-85.0", "trial": 3, "time_elapsed": 621838, "serialpos": 4, "key_press": -1, "wordID": 1202, "type": "PRES_AUD", "trial_index": 121}, "uniqueid": "MTK2742:3V5Q80FXIYY7T6NN78L1HHBR9YB32Q", "dateTime": 1519321178907}, {"current_trial": 122, "trialdata": {"rt": -1000, "trial_type": "single-audio", "word": "crab", "stimulus": "/static/audio/wordpool/CRAB.wav", "conditions": [12, 800, "a", 12000], "internal_node_id": "0.0-86.0", "trial": 3, "time_elapsed": 623739, "serialpos": 5, "key_press": -1, "wordID": 396, "type": "PRES_AUD", "trial_index": 122}, "uniqueid": "MTK2742:3V5Q80FXIYY7T6NN78L1HHBR9YB32Q", "dateTime": 1519321180808}, {"current_trial": 123, "trialdata": {"rt": -1000, "trial_type": "single-audio", "word": "foot", "stimulus": "/static/audio/wordpool/FOOT.wav", "conditions": [12, 800, "a", 12000], "internal_node_id": "0.0-87.0", "trial": 3, "time_elapsed": 625668, "serialpos": 6, "key_press": -1, "wordID": 589, "type": "PRES_AUD", "trial_index": 123}, "uniqueid": "MTK2742:3V5Q80FXIYY7T6NN78L1HHBR9YB32Q", "dateTime": 1519321182737}, {"current_trial": 124, "trialdata": {"rt": -1000, "trial_type": "single-audio", "word": "flute", "stimulus": "/static/audio/wordpool/FLUTE.wav", "conditions": [12, 800, "a", 12000], "internal_node_id": "0.0-88.0", "trial": 3, "time_elapsed": 627485, "serialpos": 7, "key_press": -1, "wordID": 584, "type": "PRES_AUD", "trial_index": 124}, "uniqueid": "MTK2742:3V5Q80FXIYY7T6NN78L1HHBR9YB32Q", "dateTime": 1519321184554}, {"current_trial": 125, "trialdata": {"rt": -1000, "trial_type": "single-audio", "word": "slime", "stimulus": "/static/audio/wordpool/SLIME.wav", "conditions": [12, 800, "a", 12000], "internal_node_id": "0.0-89.0", "trial": 3, "time_elapsed": 629372, "serialpos": 8, "key_press": -1, "wordID": 1326, "type": "PRES_AUD", "trial_index": 125}, "uniqueid": "MTK2742:3V5Q80FXIYY7T6NN78L1HHBR9YB32Q", "dateTime": 1519321186441}, {"current_trial": 126, "trialdata": {"rt": -1000, "trial_type": "single-audio", "word": "yarn", "stimulus": "/static/audio/wordpool/YARN.wav", "conditions": [12, 800, "a", 12000], "internal_node_id": "0.0-90.0", "trial": 3, "time_elapsed": 631280, "serialpos": 9, "key_press": -1, "wordID": 1630, "type": "PRES_AUD", "trial_index": 126}, "uniqueid": "MTK2742:3V5Q80FXIYY7T6NN78L1HHBR9YB32Q", "dateTime": 1519321188349}, {"current_trial": 127, "trialdata": {"rt": -1000, "trial_type": "single-audio", "word": "salmon", "stimulus": "/static/audio/wordpool/SALMON.wav", "conditions": [12, 800, "a", 12000], "internal_node_id": "0.0-91.0", "trial": 3, "time_elapsed": 633113, "serialpos": 10, "key_press": -1, "wordID": 1226, "type": "PRES_AUD", "trial_index": 127}, "uniqueid": "MTK2742:3V5Q80FXIYY7T6NN78L1HHBR9YB32Q", "dateTime": 1519321190182}, {"current_trial": 128, "trialdata": {"rt": -1000, "trial_type": "single-audio", "word": "turtle", "stimulus": "/static/audio/wordpool/TURTLE.wav", "conditions": [12, 800, "a", 12000], "internal_node_id": "0.0-92.0", "trial": 3, "time_elapsed": 634804, "serialpos": 11, "key_press": -1, "wordID": 1521, "type": "PRES_AUD", "trial_index": 128}, "uniqueid": "MTK2742:3V5Q80FXIYY7T6NN78L1HHBR9YB32Q", "dateTime": 1519321191873}, {"current_trial": 129, "trialdata": {"rt": -1, "trial_type": "single-stim", "stimulus": "", "internal_node_id": "0.0-93.0-0.0", "time_elapsed": 636174, "key_press": -1, "type": "PRE_RECALL_DELAY", "trial_index": 129}, "uniqueid": "MTK2742:3V5Q80FXIYY7T6NN78L1HHBR9YB32Q", "dateTime": 1519321193243}, {"current_trial": 130, "trialdata": {"rt": -1000, "trial_type": "single-audio", "stimulus": "/static/audio/400Hz.wav", "internal_node_id": "0.0-94.0", "time_elapsed": 636675, "key_press": -1, "type": "PRE_RECALL_ALERT", "trial_index": 130}, "uniqueid": "MTK2742:3V5Q80FXIYY7T6NN78L1HHBR9YB32Q", "dateTime": 1519321193745}, {"current_trial": 131, "trialdata": {"rt": [5104, 12433, 15773, 18913, 22669, 26059], "recwords": ["piano", "wagon", "crab", "food", "flute", "plane"], "key_times": [2202, 2503, 2772, 3031, 3558, 5104, 6132, 6529, 10728, 10901, 11181, 12433, 13235, 13466, 13671, 14191, 15773, 16303, 16833, 17003, 17242, 18913, 19818, 20170, 20541, 21087, 21291, 22669, 23791, 24132, 24321, 24641, 24911, 26059], "trial_type": "free-recall", "conditions": [12, 800, "a", 12000], "internal_node_id": "0.0-95.0-0.0", "key_presses": [80, 73, 65, 78, 79, 13, 87, 65, 71, 79, 78, 13, 67, 82, 65, 66, 13, 70, 79, 79, 68, 13, 70, 76, 85, 84, 69, 13, 80, 76, 65, 78, 69, 13], "trial": 3, "time_elapsed": 696683, "type": "FREE_RECALL", "trial_index": 131}, "uniqueid": "MTK2742:3V5Q80FXIYY7T6NN78L1HHBR9YB32Q", "dateTime": 1519321253758}, {"current_trial": 132, "trialdata": {"rt": 2187, "trial_type": "text", "internal_node_id": "0.0-96.0", "time_elapsed": 700877, "key_press": 32, "type": "INSTRUCTIONS", "trial_index": 132}, "uniqueid": "MTK2742:3V5Q80FXIYY7T6NN78L1HHBR9YB32Q", "dateTime": 1519321257946}, {"current_trial": 133, "trialdata": {"rt": [4096, 11435], "trial_type": "math-distractor", "key_times": [2513, 3063, 4096, 6374, 7354, 8596, 8787, 10193, 10367, 11435], "responses": ["26", "18"], "num2": [9, 7, 5], "num3": [8, 6, 8], "conditions": [12, 1600, "a", 12000], "internal_node_id": "0.0-97.0", "key_presses": [50, 54, 13, 50, 56, 8, 8, 49, 56, 13], "trial": 4, "time_elapsed": 714881, "type": "DISTRACTOR", "trial_index": 133, "num1": [9, 5, 9]}, "uniqueid": "MTK2742:3V5Q80FXIYY7T6NN78L1HHBR9YB32Q", "dateTime": 1519321271950}, {"current_trial": 134, "trialdata": {"rt": -1, "trial_type": "single-stim", "stimulus": "<p id=\"stim\">10</p>", "internal_node_id": "0.0-98.0-0.0", "time_elapsed": 717888, "key_press": -1, "trial_index": 134}, "uniqueid": "MTK2742:3V5Q80FXIYY7T6NN78L1HHBR9YB32Q", "dateTime": 1519321274957}, {"current_trial": 135, "trialdata": {"rt": -1, "trial_type": "single-stim", "stimulus": "<p id=\"stim\">9</p>", "internal_node_id": "0.0-98.0-1.0", "time_elapsed": 718889, "key_press": -1, "trial_index": 135}, "uniqueid": "MTK2742:3V5Q80FXIYY7T6NN78L1HHBR9YB32Q", "dateTime": 1519321275958}, {"current_trial": 136, "trialdata": {"rt": -1, "trial_type": "single-stim", "stimulus": "<p id=\"stim\">8</p>", "internal_node_id": "0.0-98.0-2.0", "time_elapsed": 719889, "key_press": -1, "trial_index": 136}, "uniqueid": "MTK2742:3V5Q80FXIYY7T6NN78L1HHBR9YB32Q", "dateTime": 1519321276960}, {"current_trial": 137, "trialdata": {"rt": -1, "trial_type": "single-stim", "stimulus": "<p id=\"stim\">7</p>", "internal_node_id": "0.0-98.0-3.0", "time_elapsed": 720891, "key_press": -1, "trial_index": 137}, "uniqueid": "MTK2742:3V5Q80FXIYY7T6NN78L1HHBR9YB32Q", "dateTime": 1519321277960}, {"current_trial": 138, "trialdata": {"rt": -1, "trial_type": "single-stim", "stimulus": "<p id=\"stim\">6</p>", "internal_node_id": "0.0-98.0-4.0", "time_elapsed": 721894, "key_press": -1, "trial_index": 138}, "uniqueid": "MTK2742:3V5Q80FXIYY7T6NN78L1HHBR9YB32Q", "dateTime": 1519321278963}, {"current_trial": 139, "trialdata": {"rt": -1, "trial_type": "single-stim", "stimulus": "<p id=\"stim\">5</p>", "internal_node_id": "0.0-98.0-5.0", "time_elapsed": 722894, "key_press": -1, "trial_index": 139}, "uniqueid": "MTK2742:3V5Q80FXIYY7T6NN78L1HHBR9YB32Q", "dateTime": 1519321279963}, {"current_trial": 140, "trialdata": {"rt": -1, "trial_type": "single-stim", "stimulus": "<p id=\"stim\">4</p>", "internal_node_id": "0.0-98.0-6.0", "time_elapsed": 723896, "key_press": -1, "trial_index": 140}, "uniqueid": "MTK2742:3V5Q80FXIYY7T6NN78L1HHBR9YB32Q", "dateTime": 1519321280965}, {"current_trial": 141, "trialdata": {"rt": -1, "trial_type": "single-stim", "stimulus": "<p id=\"stim\">3</p>", "internal_node_id": "0.0-98.0-7.0", "time_elapsed": 724898, "key_press": -1, "trial_index": 141}, "uniqueid": "MTK2742:3V5Q80FXIYY7T6NN78L1HHBR9YB32Q", "dateTime": 1519321281967}, {"current_trial": 142, "trialdata": {"rt": -1, "trial_type": "single-stim", "stimulus": "<p id=\"stim\">2</p>", "internal_node_id": "0.0-98.0-8.0", "time_elapsed": 725900, "key_press": -1, "trial_index": 142}, "uniqueid": "MTK2742:3V5Q80FXIYY7T6NN78L1HHBR9YB32Q", "dateTime": 1519321282970}, {"current_trial": 143, "trialdata": {"rt": -1, "trial_type": "single-stim", "stimulus": "<p id=\"stim\">1</p>", "internal_node_id": "0.0-98.0-9.0", "time_elapsed": 726902, "key_press": -1, "trial_index": 143}, "uniqueid": "MTK2742:3V5Q80FXIYY7T6NN78L1HHBR9YB32Q", "dateTime": 1519321283971}, {"current_trial": 144, "trialdata": {"rt": -1, "trial_type": "single-stim", "stimulus": "<p id=\"stim\">+</p>", "internal_node_id": "0.0-99.0-0.0", "time_elapsed": 728402, "key_press": -1, "type": "FIXATION", "trial_index": 144}, "uniqueid": "MTK2742:3V5Q80FXIYY7T6NN78L1HHBR9YB32Q", "dateTime": 1519321285471}, {"current_trial": 145, "trialdata": {"rt": -1000, "trial_type": "single-audio", "word": "cook", "stimulus": "/static/audio/wordpool/COOK.wav", "conditions": [12, 1600, "a", 12000], "internal_node_id": "0.0-100.0", "trial": 4, "time_elapsed": 730819, "serialpos": 0, "key_press": -1, "wordID": 371, "type": "PRES_AUD", "trial_index": 145}, "uniqueid": "MTK2742:3V5Q80FXIYY7T6NN78L1HHBR9YB32Q", "dateTime": 1519321287888}, {"current_trial": 146, "trialdata": {"rt": -1000, "trial_type": "single-audio", "word": "glass", "stimulus": "/static/audio/wordpool/GLASS.wav", "conditions": [12, 1600, "a", 12000], "internal_node_id": "0.0-101.0", "trial": 4, "time_elapsed": 733415, "serialpos": 1, "key_press": -1, "wordID": 638, "type": "PRES_AUD", "trial_index": 146}, "uniqueid": "MTK2742:3V5Q80FXIYY7T6NN78L1HHBR9YB32Q", "dateTime": 1519321290484}, {"current_trial": 147, "trialdata": {"rt": -1000, "trial_type": "single-audio", "word": "daughter", "stimulus": "/static/audio/wordpool/DAUGHTER.wav", "conditions": [12, 1600, "a", 12000], "internal_node_id": "0.0-102.0", "trial": 4, "time_elapsed": 735938, "serialpos": 2, "key_press": -1, "wordID": 441, "type": "PRES_AUD", "trial_index": 147}, "uniqueid": "MTK2742:3V5Q80FXIYY7T6NN78L1HHBR9YB32Q", "dateTime": 1519321293007}, {"current_trial": 148, "trialdata": {"rt": -1000, "trial_type": "single-audio", "word": "grill", "stimulus": "/static/audio/wordpool/GRILL.wav", "conditions": [12, 1600, "a", 12000], "internal_node_id": "0.0-103.0", "trial": 4, "time_elapsed": 738564, "serialpos": 3, "key_press": -1, "wordID": 660, "type": "PRES_AUD", "trial_index": 148}, "uniqueid": "MTK2742:3V5Q80FXIYY7T6NN78L1HHBR9YB32Q", "dateTime": 1519321295633}, {"current_trial": 149, "trialdata": {"rt": -1000, "trial_type": "single-audio", "word": "cafe", "stimulus": "/static/audio/wordpool/CAFE.wav", "conditions": [12, 1600, "a", 12000], "internal_node_id": "0.0-104.0", "trial": 4, "time_elapsed": 741358, "serialpos": 4, "key_press": -1, "wordID": 215, "type": "PRES_AUD", "trial_index": 149}, "uniqueid": "MTK2742:3V5Q80FXIYY7T6NN78L1HHBR9YB32Q", "dateTime": 1519321298427}, {"current_trial": 150, "trialdata": {"rt": -1000, "trial_type": "single-audio", "word": "diner", "stimulus": "/static/audio/wordpool/DINER.wav", "conditions": [12, 1600, "a", 12000], "internal_node_id": "0.0-105.0", "trial": 4, "time_elapsed": 744119, "serialpos": 5, "key_press": -1, "wordID": 466, "type": "PRES_AUD", "trial_index": 150}, "uniqueid": "MTK2742:3V5Q80FXIYY7T6NN78L1HHBR9YB32Q", "dateTime": 1519321301188}, {"current_trial": 151, "trialdata": {"rt": -1000, "trial_type": "single-audio", "word": "viking", "stimulus": "/static/audio/wordpool/VIKING.wav", "conditions": [12, 1600, "a", 12000], "internal_node_id": "0.0-106.0", "trial": 4, "time_elapsed": 746799, "serialpos": 6, "key_press": -1, "wordID": 1564, "type": "PRES_AUD", "trial_index": 151}, "uniqueid": "MTK2742:3V5Q80FXIYY7T6NN78L1HHBR9YB32Q", "dateTime": 1519321303868}, {"current_trial": 152, "trialdata": {"rt": -1000, "trial_type": "single-audio", "word": "scallop", "stimulus": "/static/audio/wordpool/SCALLOP.wav", "conditions": [12, 1600, "a", 12000], "internal_node_id": "0.0-107.0", "trial": 4, "time_elapsed": 749341, "serialpos": 7, "key_press": -1, "wordID": 1241, "type": "PRES_AUD", "trial_index": 152}, "uniqueid": "MTK2742:3V5Q80FXIYY7T6NN78L1HHBR9YB32Q", "dateTime": 1519321306412}, {"current_trial": 153, "trialdata": {"rt": -1000, "trial_type": "single-audio", "word": "grape", "stimulus": "/static/audio/wordpool/GRAPE.wav", "conditions": [12, 1600, "a", 12000], "internal_node_id": "0.0-108.0", "trial": 4, "time_elapsed": 751789, "serialpos": 8, "key_press": -1, "wordID": 653, "type": "PRES_AUD", "trial_index": 153}, "uniqueid": "MTK2742:3V5Q80FXIYY7T6NN78L1HHBR9YB32Q", "dateTime": 1519321308858}, {"current_trial": 154, "trialdata": {"rt": -1000, "trial_type": "single-audio", "word": "shortcake", "stimulus": "/static/audio/wordpool/SHORTCAKE.wav", "conditions": [12, 1600, "a", 12000], "internal_node_id": "0.0-109.0", "trial": 4, "time_elapsed": 754421, "serialpos": 9, "key_press": -1, "wordID": 1291, "type": "PRES_AUD", "trial_index": 154}, "uniqueid": "MTK2742:3V5Q80FXIYY7T6NN78L1HHBR9YB32Q", "dateTime": 1519321311490}, {"current_trial": 155, "trialdata": {"rt": -1000, "trial_type": "single-audio", "word": "shelf", "stimulus": "/static/audio/wordpool/SHELF.wav", "conditions": [12, 1600, "a", 12000], "internal_node_id": "0.0-110.0", "trial": 4, "time_elapsed": 756916, "serialpos": 10, "key_press": -1, "wordID": 1279, "type": "PRES_AUD", "trial_index": 155}, "uniqueid": "MTK2742:3V5Q80FXIYY7T6NN78L1HHBR9YB32Q", "dateTime": 1519321313985}, {"current_trial": 156, "trialdata": {"rt": -1000, "trial_type": "single-audio", "word": "beast", "stimulus": "/static/audio/wordpool/BEAST.wav", "conditions": [12, 1600, "a", 12000], "internal_node_id": "0.0-111.0", "trial": 4, "time_elapsed": 759656, "serialpos": 11, "key_press": -1, "wordID": 107, "type": "PRES_AUD", "trial_index": 156}, "uniqueid": "MTK2742:3V5Q80FXIYY7T6NN78L1HHBR9YB32Q", "dateTime": 1519321316725}, {"current_trial": 157, "trialdata": {"rt": -1, "trial_type": "single-stim", "stimulus": "", "internal_node_id": "0.0-112.0-0.0", "time_elapsed": 760983, "key_press": -1, "type": "PRE_RECALL_DELAY", "trial_index": 157}, "uniqueid": "MTK2742:3V5Q80FXIYY7T6NN78L1HHBR9YB32Q", "dateTime": 1519321318052}, {"current_trial": 158, "trialdata": {"rt": -1000, "trial_type": "single-audio", "stimulus": "/static/audio/400Hz.wav", "internal_node_id": "0.0-113.0", "time_elapsed": 761483, "key_press": -1, "type": "PRE_RECALL_ALERT", "trial_index": 158}, "uniqueid": "MTK2742:3V5Q80FXIYY7T6NN78L1HHBR9YB32Q", "dateTime": 1519321318552}, {"current_trial": 159, "trialdata": {"rt": [4646, 8401, 14008, 21251, 24269], "recwords": ["grow", "cafe", "viking", "grip", "beef"], "key_times": [3268, 3527, 3932, 4220, 4646, 7201, 7332, 7554, 7834, 8401, 11196, 11462, 11648, 11829, 12070, 12560, 14008, 15554, 15819, 16102, 16298, 17667, 18099, 18125, 18154, 18169, 18202, 18237, 18255, 18275, 18298, 18319, 18352, 18365, 18400, 18422, 18456, 18463, 18502, 18522, 18548, 18556, 18871, 19100, 19949, 21251, 22319, 22573, 22784, 23043, 24269], "trial_type": "free-recall", "conditions": [12, 1600, "a", 12000], "internal_node_id": "0.0-114.0-0.0", "key_presses": [71, 82, 79, 87, 13, 67, 65, 70, 69, 13, 86, 73, 75, 73, 78, 71, 13, 67, 82, 73, 80, 8, 8, 8, 8, 8, 8, 8, 8, 8, 8, 8, 8, 8, 8, 8, 8, 8, 8, 8, 8, 71, 82, 73, 80, 13, 66, 69, 69, 70, 13], "trial": 4, "time_elapsed": 821484, "type": "FREE_RECALL", "trial_index": 159}, "uniqueid": "MTK2742:3V5Q80FXIYY7T6NN78L1HHBR9YB32Q", "dateTime": 1519321378569}, {"current_trial": 160, "trialdata": {"rt": 1787, "trial_type": "text", "internal_node_id": "0.0-115.0", "time_elapsed": 825289, "key_press": 32, "type": "INSTRUCTIONS", "trial_index": 160}, "uniqueid": "MTK2742:3V5Q80FXIYY7T6NN78L1HHBR9YB32Q", "dateTime": 1519321382358}, {"current_trial": 161, "trialdata": {"rt": [5261, 8007], "trial_type": "math-distractor", "key_times": [4139, 4310, 5261, 7239, 7379, 8007], "responses": ["22", "12"], "num2": [7, 2, 8], "num3": [7, 9, 4], "conditions": [24, 800, "a", 12000], "internal_node_id": "0.0-116.0", "key_presses": [50, 50, 13, 49, 50, 13], "trial": 5, "time_elapsed": 839294, "type": "DISTRACTOR", "trial_index": 161, "num1": [8, 1, 9]}, "uniqueid": "MTK2742:3V5Q80FXIYY7T6NN78L1HHBR9YB32Q", "dateTime": 1519321396363}, {"current_trial": 162, "trialdata": {"rt": -1, "trial_type": "single-stim", "stimulus": "<p id=\"stim\">10</p>", "internal_node_id": "0.0-117.0-0.0", "time_elapsed": 842303, "key_press": -1, "trial_index": 162}, "uniqueid": "MTK2742:3V5Q80FXIYY7T6NN78L1HHBR9YB32Q", "dateTime": 1519321399372}, {"current_trial": 163, "trialdata": {"rt": -1, "trial_type": "single-stim", "stimulus": "<p id=\"stim\">9</p>", "internal_node_id": "0.0-117.0-1.0", "time_elapsed": 843309, "key_press": -1, "trial_index": 163}, "uniqueid": "MTK2742:3V5Q80FXIYY7T6NN78L1HHBR9YB32Q", "dateTime": 1519321400378}, {"current_trial": 164, "trialdata": {"rt": -1, "trial_type": "single-stim", "stimulus": "<p id=\"stim\">8</p>", "internal_node_id": "0.0-117.0-2.0", "time_elapsed": 844313, "key_press": -1, "trial_index": 164}, "uniqueid": "MTK2742:3V5Q80FXIYY7T6NN78L1HHBR9YB32Q", "dateTime": 1519321401382}, {"current_trial": 165, "trialdata": {"rt": -1, "trial_type": "single-stim", "stimulus": "<p id=\"stim\">7</p>", "internal_node_id": "0.0-117.0-3.0", "time_elapsed": 845328, "key_press": -1, "trial_index": 165}, "uniqueid": "MTK2742:3V5Q80FXIYY7T6NN78L1HHBR9YB32Q", "dateTime": 1519321402397}, {"current_trial": 166, "trialdata": {"rt": -1, "trial_type": "single-stim", "stimulus": "<p id=\"stim\">6</p>", "internal_node_id": "0.0-117.0-4.0", "time_elapsed": 846329, "key_press": -1, "trial_index": 166}, "uniqueid": "MTK2742:3V5Q80FXIYY7T6NN78L1HHBR9YB32Q", "dateTime": 1519321403398}, {"current_trial": 167, "trialdata": {"rt": -1, "trial_type": "single-stim", "stimulus": "<p id=\"stim\">5</p>", "internal_node_id": "0.0-117.0-5.0", "time_elapsed": 847331, "key_press": -1, "trial_index": 167}, "uniqueid": "MTK2742:3V5Q80FXIYY7T6NN78L1HHBR9YB32Q", "dateTime": 1519321404400}, {"current_trial": 168, "trialdata": {"rt": -1, "trial_type": "single-stim", "stimulus": "<p id=\"stim\">4</p>", "internal_node_id": "0.0-117.0-6.0", "time_elapsed": 848331, "key_press": -1, "trial_index": 168}, "uniqueid": "MTK2742:3V5Q80FXIYY7T6NN78L1HHBR9YB32Q", "dateTime": 1519321405400}, {"current_trial": 169, "trialdata": {"rt": -1, "trial_type": "single-stim", "stimulus": "<p id=\"stim\">3</p>", "internal_node_id": "0.0-117.0-7.0", "time_elapsed": 849330, "key_press": -1, "trial_index": 169}, "uniqueid": "MTK2742:3V5Q80FXIYY7T6NN78L1HHBR9YB32Q", "dateTime": 1519321406399}, {"current_trial": 170, "trialdata": {"rt": -1, "trial_type": "single-stim", "stimulus": "<p id=\"stim\">2</p>", "internal_node_id": "0.0-117.0-8.0", "time_elapsed": 850340, "key_press": -1, "trial_index": 170}, "uniqueid": "MTK2742:3V5Q80FXIYY7T6NN78L1HHBR9YB32Q", "dateTime": 1519321407409}, {"current_trial": 171, "trialdata": {"rt": -1, "trial_type": "single-stim", "stimulus": "<p id=\"stim\">1</p>", "internal_node_id": "0.0-117.0-9.0", "time_elapsed": 851342, "key_press": -1, "trial_index": 171}, "uniqueid": "MTK2742:3V5Q80FXIYY7T6NN78L1HHBR9YB32Q", "dateTime": 1519321408411}, {"current_trial": 172, "trialdata": {"rt": -1, "trial_type": "single-stim", "stimulus": "<p id=\"stim\">+</p>", "internal_node_id": "0.0-118.0-0.0", "time_elapsed": 852843, "key_press": -1, "type": "FIXATION", "trial_index": 172}, "uniqueid": "MTK2742:3V5Q80FXIYY7T6NN78L1HHBR9YB32Q", "dateTime": 1519321409912}, {"current_trial": 173, "trialdata": {"rt": -1000, "trial_type": "single-audio", "word": "ankle", "stimulus": "/static/audio/wordpool/ANKLE.wav", "conditions": [24, 800, "a", 12000], "internal_node_id": "0.0-119.0", "trial": 5, "time_elapsed": 854468, "serialpos": 0, "key_press": -1, "wordID": 23, "type": "PRES_AUD", "trial_index": 173}, "uniqueid": "MTK2742:3V5Q80FXIYY7T6NN78L1HHBR9YB32Q", "dateTime": 1519321411537}, {"current_trial": 174, "trialdata": {"rt": -1000, "trial_type": "single-audio", "word": "sphinx", "stimulus": "/static/audio/wordpool/SPHINX.wav", "conditions": [24, 800, "a", 12000], "internal_node_id": "0.0-120.0", "trial": 5, "time_elapsed": 856293, "serialpos": 1, "key_press": -1, "wordID": 1348, "type": "PRES_AUD", "trial_index": 174}, "uniqueid": "MTK2742:3V5Q80FXIYY7T6NN78L1HHBR9YB32Q", "dateTime": 1519321413362}, {"current_trial": 175, "trialdata": {"rt": -1000, "trial_type": "single-audio", "word": "zebra", "stimulus": "/static/audio/wordpool/ZEBRA.wav", "conditions": [24, 800, "a", 12000], "internal_node_id": "0.0-121.0", "trial": 5, "time_elapsed": 858110, "serialpos": 2, "key_press": -1, "wordID": 1634, "type": "PRES_AUD", "trial_index": 175}, "uniqueid": "MTK2742:3V5Q80FXIYY7T6NN78L1HHBR9YB32Q", "dateTime": 1519321415179}, {"current_trial": 176, "trialdata": {"rt": -1000, "trial_type": "single-audio", "word": "casket", "stimulus": "/static/audio/wordpool/CASKET.wav", "conditions": [24, 800, "a", 12000], "internal_node_id": "0.0-122.0", "trial": 5, "time_elapsed": 860064, "serialpos": 3, "key_press": -1, "wordID": 254, "type": "PRES_AUD", "trial_index": 176}, "uniqueid": "MTK2742:3V5Q80FXIYY7T6NN78L1HHBR9YB32Q", "dateTime": 1519321417133}, {"current_trial": 177, "trialdata": {"rt": -1000, "trial_type": "single-audio", "word": "blueprint", "stimulus": "/static/audio/wordpool/BLUEPRINT.wav", "conditions": [24, 800, "a", 12000], "internal_node_id": "0.0-123.0", "trial": 5, "time_elapsed": 861824, "serialpos": 4, "key_press": -1, "wordID": 141, "type": "PRES_AUD", "trial_index": 177}, "uniqueid": "MTK2742:3V5Q80FXIYY7T6NN78L1HHBR9YB32Q", "dateTime": 1519321418893}, {"current_trial": 178, "trialdata": {"rt": -1000, "trial_type": "single-audio", "word": "carrot", "stimulus": "/static/audio/wordpool/CARROT.wav", "conditions": [24, 800, "a", 12000], "internal_node_id": "0.0-124.0", "trial": 5, "time_elapsed": 863722, "serialpos": 5, "key_press": -1, "wordID": 248, "type": "PRES_AUD", "trial_index": 178}, "uniqueid": "MTK2742:3V5Q80FXIYY7T6NN78L1HHBR9YB32Q", "dateTime": 1519321420791}, {"current_trial": 179, "trialdata": {"rt": -1000, "trial_type": "single-audio", "word": "snail", "stimulus": "/static/audio/wordpool/SNAIL.wav", "conditions": [24, 800, "a", 12000], "internal_node_id": "0.0-125.0", "trial": 5, "time_elapsed": 865488, "serialpos": 6, "key_press": -1, "wordID": 1331, "type": "PRES_AUD", "trial_index": 179}, "uniqueid": "MTK2742:3V5Q80FXIYY7T6NN78L1HHBR9YB32Q", "dateTime": 1519321422557}, {"current_trial": 180, "trialdata": {"rt": -1000, "trial_type": "single-audio", "word": "powder", "stimulus": "/static/audio/wordpool/POWDER.wav", "conditions": [24, 800, "a", 12000], "internal_node_id": "0.0-126.0", "trial": 5, "time_elapsed": 867402, "serialpos": 7, "key_press": -1, "wordID": 1116, "type": "PRES_AUD", "trial_index": 180}, "uniqueid": "MTK2742:3V5Q80FXIYY7T6NN78L1HHBR9YB32Q", "dateTime": 1519321424471}, {"current_trial": 181, "trialdata": {"rt": -1000, "trial_type": "single-audio", "word": "parsley", "stimulus": "/static/audio/wordpool/PARSLEY.wav", "conditions": [24, 800, "a", 12000], "internal_node_id": "0.0-127.0", "trial": 5, "time_elapsed": 869014, "serialpos": 8, "key_press": -1, "wordID": 1015, "type": "PRES_AUD", "trial_index": 181}, "uniqueid": "MTK2742:3V5Q80FXIYY7T6NN78L1HHBR9YB32Q", "dateTime": 1519321426083}, {"current_trial": 182, "trialdata": {"rt": -1000, "trial_type": "single-audio", "word": "cabbage", "stimulus": "/static/audio/wordpool/CABBAGE.wav", "conditions": [24, 800, "a", 12000], "internal_node_id": "0.0-128.0", "trial": 5, "time_elapsed": 870650, "serialpos": 9, "key_press": -1, "wordID": 209, "type": "PRES_AUD", "trial_index": 182}, "uniqueid": "MTK2742:3V5Q80FXIYY7T6NN78L1HHBR9YB32Q", "dateTime": 1519321427719}, {"current_trial": 183, "trialdata": {"rt": -1000, "trial_type": "single-audio", "word": "lizard", "stimulus": "/static/audio/wordpool/LIZARD.wav", "conditions": [24, 800, "a", 12000], "internal_node_id": "0.0-129.0", "trial": 5, "time_elapsed": 872407, "serialpos": 10, "key_press": -1, "wordID": 833, "type": "PRES_AUD", "trial_index": 183}, "uniqueid": "MTK2742:3V5Q80FXIYY7T6NN78L1HHBR9YB32Q", "dateTime": 1519321429476}, {"current_trial": 184, "trialdata": {"rt": -1000, "trial_type": "single-audio", "word": "zipper", "stimulus": "/static/audio/wordpool/ZIPPER.wav", "conditions": [24, 800, "a", 12000], "internal_node_id": "0.0-130.0", "trial": 5, "time_elapsed": 874332, "serialpos": 11, "key_press": -1, "wordID": 1635, "type": "PRES_AUD", "trial_index": 184}, "uniqueid": "MTK2742:3V5Q80FXIYY7T6NN78L1HHBR9YB32Q", "dateTime": 1519321431401}, {"current_trial": 185, "trialdata": {"rt": -1000, "trial_type": "single-audio", "word": "belly", "stimulus": "/static/audio/wordpool/BELLY.wav", "conditions": [24, 800, "a", 12000], "internal_node_id": "0.0-131.0", "trial": 5, "time_elapsed": 876221, "serialpos": 12, "key_press": -1, "wordID": 118, "type": "PRES_AUD", "trial_index": 185}, "uniqueid": "MTK2742:3V5Q80FXIYY7T6NN78L1HHBR9YB32Q", "dateTime": 1519321433290}, {"current_trial": 186, "trialdata": {"rt": -1000, "trial_type": "single-audio", "word": "saddle", "stimulus": "/static/audio/wordpool/SADDLE.wav", "conditions": [24, 800, "a", 12000], "internal_node_id": "0.0-132.0", "trial": 5, "time_elapsed": 878196, "serialpos": 13, "key_press": -1, "wordID": 1220, "type": "PRES_AUD", "trial_index": 186}, "uniqueid": "MTK2742:3V5Q80FXIYY7T6NN78L1HHBR9YB32Q", "dateTime": 1519321435265}, {"current_trial": 187, "trialdata": {"rt": -1000, "trial_type": "single-audio", "word": "twig", "stimulus": "/static/audio/wordpool/TWIG.wav", "conditions": [24, 800, "a", 12000], "internal_node_id": "0.0-133.0", "trial": 5, "time_elapsed": 880010, "serialpos": 14, "key_press": -1, "wordID": 1526, "type": "PRES_AUD", "trial_index": 187}, "uniqueid": "MTK2742:3V5Q80FXIYY7T6NN78L1HHBR9YB32Q", "dateTime": 1519321437079}, {"current_trial": 188, "trialdata": {"rt": -1000, "trial_type": "single-audio", "word": "handbag", "stimulus": "/static/audio/wordpool/HANDBAG.wav", "conditions": [24, 800, "a", 12000], "internal_node_id": "0.0-134.0", "trial": 5, "time_elapsed": 881998, "serialpos": 15, "key_press": -1, "wordID": 683, "type": "PRES_AUD", "trial_index": 188}, "uniqueid": "MTK2742:3V5Q80FXIYY7T6NN78L1HHBR9YB32Q", "dateTime": 1519321439067}, {"current_trial": 189, "trialdata": {"rt": -1000, "trial_type": "single-audio", "word": "vagrant", "stimulus": "/static/audio/wordpool/VAGRANT.wav", "conditions": [24, 800, "a", 12000], "internal_node_id": "0.0-135.0", "trial": 5, "time_elapsed": 883638, "serialpos": 16, "key_press": -1, "wordID": 1543, "type": "PRES_AUD", "trial_index": 189}, "uniqueid": "MTK2742:3V5Q80FXIYY7T6NN78L1HHBR9YB32Q", "dateTime": 1519321440707}, {"current_trial": 190, "trialdata": {"rt": -1000, "trial_type": "single-audio", "word": "hiker", "stimulus": "/static/audio/wordpool/HIKER.wav", "conditions": [24, 800, "a", 12000], "internal_node_id": "0.0-136.0", "trial": 5, "time_elapsed": 885300, "serialpos": 17, "key_press": -1, "wordID": 707, "type": "PRES_AUD", "trial_index": 190}, "uniqueid": "MTK2742:3V5Q80FXIYY7T6NN78L1HHBR9YB32Q", "dateTime": 1519321442369}, {"current_trial": 191, "trialdata": {"rt": -1000, "trial_type": "single-audio", "word": "suitcase", "stimulus": "/static/audio/wordpool/SUITCASE.wav", "conditions": [24, 800, "a", 12000], "internal_node_id": "0.0-137.0", "trial": 5, "time_elapsed": 887046, "serialpos": 18, "key_press": -1, "wordID": 1402, "type": "PRES_AUD", "trial_index": 191}, "uniqueid": "MTK2742:3V5Q80FXIYY7T6NN78L1HHBR9YB32Q", "dateTime": 1519321444115}, {"current_trial": 192, "trialdata": {"rt": -1000, "trial_type": "single-audio", "word": "banquet", "stimulus": "/static/audio/wordpool/BANQUET.wav", "conditions": [24, 800, "a", 12000], "internal_node_id": "0.0-138.0", "trial": 5, "time_elapsed": 888950, "serialpos": 19, "key_press": -1, "wordID": 85, "type": "PRES_AUD", "trial_index": 192}, "uniqueid": "MTK2742:3V5Q80FXIYY7T6NN78L1HHBR9YB32Q", "dateTime": 1519321446019}, {"current_trial": 193, "trialdata": {"rt": -1000, "trial_type": "single-audio", "word": "child", "stimulus": "/static/audio/wordpool/CHILD.wav", "conditions": [24, 800, "a", 12000], "internal_node_id": "0.0-139.0", "trial": 5, "time_elapsed": 890683, "serialpos": 20, "key_press": -1, "wordID": 298, "type": "PRES_AUD", "trial_index": 193}, "uniqueid": "MTK2742:3V5Q80FXIYY7T6NN78L1HHBR9YB32Q", "dateTime": 1519321447752}, {"current_trial": 194, "trialdata": {"rt": -1000, "trial_type": "single-audio", "word": "infant", "stimulus": "/static/audio/wordpool/INFANT.wav", "conditions": [24, 800, "a", 12000], "internal_node_id": "0.0-140.0", "trial": 5, "time_elapsed": 892372, "serialpos": 21, "key_press": -1, "wordID": 736, "type": "PRES_AUD", "trial_index": 194}, "uniqueid": "MTK2742:3V5Q80FXIYY7T6NN78L1HHBR9YB32Q", "dateTime": 1519321449441}, {"current_trial": 195, "trialdata": {"rt": -1000, "trial_type": "single-audio", "word": "forehead", "stimulus": "/static/audio/wordpool/FOREHEAD.wav", "conditions": [24, 800, "a", 12000], "internal_node_id": "0.0-141.0", "trial": 5, "time_elapsed": 894136, "serialpos": 22, "key_press": -1, "wordID": 591, "type": "PRES_AUD", "trial_index": 195}, "uniqueid": "MTK2742:3V5Q80FXIYY7T6NN78L1HHBR9YB32Q", "dateTime": 1519321451205}, {"current_trial": 196, "trialdata": {"rt": -1000, "trial_type": "single-audio", "word": "igloo", "stimulus": "/static/audio/wordpool/IGLOO.wav", "conditions": [24, 800, "a", 12000], "internal_node_id": "0.0-142.0", "trial": 5, "time_elapsed": 896097, "serialpos": 23, "key_press": -1, "wordID": 733, "type": "PRES_AUD", "trial_index": 196}, "uniqueid": "MTK2742:3V5Q80FXIYY7T6NN78L1HHBR9YB32Q", "dateTime": 1519321453166}, {"current_trial": 197, "trialdata": {"rt": -1, "trial_type": "single-stim", "stimulus": "", "internal_node_id": "0.0-143.0-0.0", "time_elapsed": 897361, "key_press": -1, "type": "PRE_RECALL_DELAY", "trial_index": 197}, "uniqueid": "MTK2742:3V5Q80FXIYY7T6NN78L1HHBR9YB32Q", "dateTime": 1519321454430}, {"current_trial": 198, "trialdata": {"rt": -1000, "trial_type": "single-audio", "stimulus": "/static/audio/400Hz.wav", "internal_node_id": "0.0-144.0", "time_elapsed": 897868, "key_press": -1, "type": "PRE_RECALL_ALERT", "trial_index": 198}, "uniqueid": "MTK2742:3V5Q80FXIYY7T6NN78L1HHBR9YB32Q", "dateTime": 1519321454937}, {"current_trial": 199, "trialdata": {"rt": [6846, 20586, 24590, 31028, 35156, 41517, 46258, 52239, 58623], "recwords": ["zebre", "bluepen", "powder", "perfume", "cabbage", "lizard", "shadow", "handbag", "forehead"], "key_times": [4326, 4545, 5317, 5638, 5831, 6846, 15301, 15856, 16595, 16967, 17319, 17792, 18279, 18791, 19299, 20586, 21895, 22041, 22589, 22833, 23016, 23195, 24590, 26266, 26798, 26960, 27168, 27767, 28135, 28559, 31028, 31765, 32087, 32774, 32936, 33357, 34046, 34398, 35156, 36842, 37098, 37810, 38343, 38926, 39118, 41517, 42607, 43265, 43738, 43961, 44648, 45163, 46258, 48130, 48497, 49178, 49580, 50170, 50623, 51344, 52239, 54285, 54927, 55332, 55557, 56217, 56577, 56797, 57057, 58623, 59567, 59950], "trial_type": "free-recall", "conditions": [24, 800, "a", 12000], "internal_node_id": "0.0-145.0-0.0", "key_presses": [90, 69, 66, 82, 69, 13, 66, 75, 8, 76, 85, 69, 80, 69, 78, 13, 80, 79, 87, 68, 69, 82, 13, 80, 69, 82, 70, 85, 77, 69, 13, 67, 65, 66, 66, 65, 71, 69, 13, 76, 73, 90, 65, 82, 68, 13, 83, 72, 65, 68, 79, 87, 13, 72, 65, 78, 68, 66, 65, 71, 13, 70, 79, 82, 69, 72, 69, 65, 68, 13, 73, 71], "trial": 5, "time_elapsed": 957875, "type": "FREE_RECALL", "trial_index": 199}, "uniqueid": "MTK2742:3V5Q80FXIYY7T6NN78L1HHBR9YB32Q", "dateTime": 1519321514944}, {"current_trial": 200, "trialdata": {"rt": 2061, "trial_type": "text", "internal_node_id": "0.0-146.0", "time_elapsed": 961937, "key_press": 32, "type": "INSTRUCTIONS", "trial_index": 200}, "uniqueid": "MTK2742:3V5Q80FXIYY7T6NN78L1HHBR9YB32Q", "dateTime": 1519321519006}, {"current_trial": 201, "trialdata": {"rt": [5681, 8309, 11728, 16460, 19535, 23429], "trial_type": "math-distractor", "key_times": [3457, 3731, 4537, 5088, 5681, 7499, 7768, 8309, 11185, 11728, 15532, 15947, 16460, 18711, 19000, 19535, 21707, 22195, 23429], "responses": ["18", "10", "8", "17", "12", "18"], "num2": [5, 1, 5, 5, 4, 9, 4], "num3": [9, 1, 1, 5, 4, 6, 9], "conditions": [24, 1600, "a", 24000], "internal_node_id": "0.0-147.0", "key_presses": [49, 54, 8, 56, 13, 49, 48, 13, 56, 13, 49, 55, 13, 49, 50, 13, 49, 56, 13], "trial": 6, "time_elapsed": 987940, "type": "DISTRACTOR", "trial_index": 201, "num1": [4, 8, 2, 7, 4, 3, 2]}, "uniqueid": "MTK2742:3V5Q80FXIYY7T6NN78L1HHBR9YB32Q", "dateTime": 1519321545009}, {"current_trial": 202, "trialdata": {"rt": -1, "trial_type": "single-stim", "stimulus": "<p id=\"stim\">10</p>", "internal_node_id": "0.0-148.0-0.0", "time_elapsed": 990944, "key_press": -1, "trial_index": 202}, "uniqueid": "MTK2742:3V5Q80FXIYY7T6NN78L1HHBR9YB32Q", "dateTime": 1519321548015}, {"current_trial": 203, "trialdata": {"rt": -1, "trial_type": "single-stim", "stimulus": "<p id=\"stim\">9</p>", "internal_node_id": "0.0-148.0-1.0", "time_elapsed": 991948, "key_press": -1, "trial_index": 203}, "uniqueid": "MTK2742:3V5Q80FXIYY7T6NN78L1HHBR9YB32Q", "dateTime": 1519321549017}, {"current_trial": 204, "trialdata": {"rt": -1, "trial_type": "single-stim", "stimulus": "<p id=\"stim\">8</p>", "internal_node_id": "0.0-148.0-2.0", "time_elapsed": 992949, "key_press": -1, "trial_index": 204}, "uniqueid": "MTK2742:3V5Q80FXIYY7T6NN78L1HHBR9YB32Q", "dateTime": 1519321550018}, {"current_trial": 205, "trialdata": {"rt": -1, "trial_type": "single-stim", "stimulus": "<p id=\"stim\">7</p>", "internal_node_id": "0.0-148.0-3.0", "time_elapsed": 993948, "key_press": -1, "trial_index": 205}, "uniqueid": "MTK2742:3V5Q80FXIYY7T6NN78L1HHBR9YB32Q", "dateTime": 1519321551017}, {"current_trial": 206, "trialdata": {"rt": -1, "trial_type": "single-stim", "stimulus": "<p id=\"stim\">6</p>", "internal_node_id": "0.0-148.0-4.0", "time_elapsed": 994949, "key_press": -1, "trial_index": 206}, "uniqueid": "MTK2742:3V5Q80FXIYY7T6NN78L1HHBR9YB32Q", "dateTime": 1519321552018}, {"current_trial": 207, "trialdata": {"rt": -1, "trial_type": "single-stim", "stimulus": "<p id=\"stim\">5</p>", "internal_node_id": "0.0-148.0-5.0", "time_elapsed": 995954, "key_press": -1, "trial_index": 207}, "uniqueid": "MTK2742:3V5Q80FXIYY7T6NN78L1HHBR9YB32Q", "dateTime": 1519321553023}, {"current_trial": 208, "trialdata": {"rt": -1, "trial_type": "single-stim", "stimulus": "<p id=\"stim\">4</p>", "internal_node_id": "0.0-148.0-6.0", "time_elapsed": 996960, "key_press": -1, "trial_index": 208}, "uniqueid": "MTK2742:3V5Q80FXIYY7T6NN78L1HHBR9YB32Q", "dateTime": 1519321554029}, {"current_trial": 209, "trialdata": {"rt": -1, "trial_type": "single-stim", "stimulus": "<p id=\"stim\">3</p>", "internal_node_id": "0.0-148.0-7.0", "time_elapsed": 997961, "key_press": -1, "trial_index": 209}, "uniqueid": "MTK2742:3V5Q80FXIYY7T6NN78L1HHBR9YB32Q", "dateTime": 1519321555030}, {"current_trial": 210, "trialdata": {"rt": -1, "trial_type": "single-stim", "stimulus": "<p id=\"stim\">2</p>", "internal_node_id": "0.0-148.0-8.0", "time_elapsed": 998961, "key_press": -1, "trial_index": 210}, "uniqueid": "MTK2742:3V5Q80FXIYY7T6NN78L1HHBR9YB32Q", "dateTime": 1519321556030}, {"current_trial": 211, "trialdata": {"rt": -1, "trial_type": "single-stim", "stimulus": "<p id=\"stim\">1</p>", "internal_node_id": "0.0-148.0-9.0", "time_elapsed": 999961, "key_press": -1, "trial_index": 211}, "uniqueid": "MTK2742:3V5Q80FXIYY7T6NN78L1HHBR9YB32Q", "dateTime": 1519321557030}, {"current_trial": 212, "trialdata": {"rt": -1, "trial_type": "single-stim", "stimulus": "<p id=\"stim\">+</p>", "internal_node_id": "0.0-149.0-0.0", "time_elapsed": 1001466, "key_press": -1, "type": "FIXATION", "trial_index": 212}, "uniqueid": "MTK2742:3V5Q80FXIYY7T6NN78L1HHBR9YB32Q", "dateTime": 1519321558535}, {"current_trial": 213, "trialdata": {"rt": -1000, "trial_type": "single-audio", "word": "hand", "stimulus": "/static/audio/wordpool/HAND.wav", "conditions": [24, 1600, "a", 24000], "internal_node_id": "0.0-150.0", "trial": 6, "time_elapsed": 1004188, "serialpos": 0, "key_press": -1, "wordID": 682, "type": "PRES_AUD", "trial_index": 213}, "uniqueid": "MTK2742:3V5Q80FXIYY7T6NN78L1HHBR9YB32Q", "dateTime": 1519321561257}, {"current_trial": 214, "trialdata": {"rt": -1000, "trial_type": "single-audio", "word": "sister", "stimulus": "/static/audio/wordpool/SISTER.wav", "conditions": [24, 1600, "a", 24000], "internal_node_id": "0.0-151.0", "trial": 6, "time_elapsed": 1006808, "serialpos": 1, "key_press": -1, "wordID": 1311, "type": "PRES_AUD", "trial_index": 214}, "uniqueid": "MTK2742:3V5Q80FXIYY7T6NN78L1HHBR9YB32Q", "dateTime": 1519321563877}, {"current_trial": 215, "trialdata": {"rt": -1000, "trial_type": "single-audio", "word": "chemist", "stimulus": "/static/audio/wordpool/CHEMIST.wav", "conditions": [24, 1600, "a", 24000], "internal_node_id": "0.0-152.0", "trial": 6, "time_elapsed": 1009360, "serialpos": 2, "key_press": -1, "wordID": 291, "type": "PRES_AUD", "trial_index": 215}, "uniqueid": "MTK2742:3V5Q80FXIYY7T6NN78L1HHBR9YB32Q", "dateTime": 1519321566429}, {"current_trial": 216, "trialdata": {"rt": -1000, "trial_type": "single-audio", "word": "drink", "stimulus": "/static/audio/wordpool/DRINK.wav", "conditions": [24, 1600, "a", 24000], "internal_node_id": "0.0-153.0", "trial": 6, "time_elapsed": 1011837, "serialpos": 3, "key_press": -1, "wordID": 497, "type": "PRES_AUD", "trial_index": 216}, "uniqueid": "MTK2742:3V5Q80FXIYY7T6NN78L1HHBR9YB32Q", "dateTime": 1519321568906}, {"current_trial": 217, "trialdata": {"rt": -1000, "trial_type": "single-audio", "word": "postage", "stimulus": "/static/audio/wordpool/POSTAGE.wav", "conditions": [24, 1600, "a", 24000], "internal_node_id": "0.0-154.0", "trial": 6, "time_elapsed": 1014510, "serialpos": 4, "key_press": -1, "wordID": 1112, "type": "PRES_AUD", "trial_index": 217}, "uniqueid": "MTK2742:3V5Q80FXIYY7T6NN78L1HHBR9YB32Q", "dateTime": 1519321571579}, {"current_trial": 218, "trialdata": {"rt": -1000, "trial_type": "single-audio", "word": "skirt", "stimulus": "/static/audio/wordpool/SKIRT.wav", "conditions": [24, 1600, "a", 24000], "internal_node_id": "0.0-155.0", "trial": 6, "time_elapsed": 1017018, "serialpos": 5, "key_press": -1, "wordID": 1318, "type": "PRES_AUD", "trial_index": 218}, "uniqueid": "MTK2742:3V5Q80FXIYY7T6NN78L1HHBR9YB32Q", "dateTime": 1519321574087}, {"current_trial": 219, "trialdata": {"rt": -1000, "trial_type": "single-audio", "word": "dress", "stimulus": "/static/audio/wordpool/DRESS.wav", "conditions": [24, 1600, "a", 24000], "internal_node_id": "0.0-156.0", "trial": 6, "time_elapsed": 1019479, "serialpos": 6, "key_press": -1, "wordID": 494, "type": "PRES_AUD", "trial_index": 219}, "uniqueid": "MTK2742:3V5Q80FXIYY7T6NN78L1HHBR9YB32Q", "dateTime": 1519321576548}, {"current_trial": 220, "trialdata": {"rt": -1000, "trial_type": "single-audio", "word": "puddle", "stimulus": "/static/audio/wordpool/PUDDLE.wav", "conditions": [24, 1600, "a", 24000], "internal_node_id": "0.0-157.0", "trial": 6, "time_elapsed": 1022037, "serialpos": 7, "key_press": -1, "wordID": 1139, "type": "PRES_AUD", "trial_index": 220}, "uniqueid": "MTK2742:3V5Q80FXIYY7T6NN78L1HHBR9YB32Q", "dateTime": 1519321579106}, {"current_trial": 221, "trialdata": {"rt": -1000, "trial_type": "single-audio", "word": "mister", "stimulus": "/static/audio/wordpool/MISTER.wav", "conditions": [24, 1600, "a", 24000], "internal_node_id": "0.0-158.0", "trial": 6, "time_elapsed": 1024511, "serialpos": 8, "key_press": -1, "wordID": 900, "type": "PRES_AUD", "trial_index": 221}, "uniqueid": "MTK2742:3V5Q80FXIYY7T6NN78L1HHBR9YB32Q", "dateTime": 1519321581580}, {"current_trial": 222, "trialdata": {"rt": -1000, "trial_type": "single-audio", "word": "donor", "stimulus": "/static/audio/wordpool/DONOR.wav", "conditions": [24, 1600, "a", 24000], "internal_node_id": "0.0-159.0", "trial": 6, "time_elapsed": 1027244, "serialpos": 9, "key_press": -1, "wordID": 484, "type": "PRES_AUD", "trial_index": 222}, "uniqueid": "MTK2742:3V5Q80FXIYY7T6NN78L1HHBR9YB32Q", "dateTime": 1519321584313}, {"current_trial": 223, "trialdata": {"rt": -1000, "trial_type": "single-audio", "word": "custard", "stimulus": "/static/audio/wordpool/CUSTARD.wav", "conditions": [24, 1600, "a", 24000], "internal_node_id": "0.0-160.0", "trial": 6, "time_elapsed": 1029666, "serialpos": 10, "key_press": -1, "wordID": 428, "type": "PRES_AUD", "trial_index": 223}, "uniqueid": "MTK2742:3V5Q80FXIYY7T6NN78L1HHBR9YB32Q", "dateTime": 1519321586735}, {"current_trial": 224, "trialdata": {"rt": -1000, "trial_type": "single-audio", "word": "sibling", "stimulus": "/static/audio/wordpool/SIBLING.wav", "conditions": [24, 1600, "a", 24000], "internal_node_id": "0.0-161.0", "trial": 6, "time_elapsed": 1032112, "serialpos": 11, "key_press": -1, "wordID": 1300, "type": "PRES_AUD", "trial_index": 224}, "uniqueid": "MTK2742:3V5Q80FXIYY7T6NN78L1HHBR9YB32Q", "dateTime": 1519321589181}, {"current_trial": 225, "trialdata": {"rt": -1000, "trial_type": "single-audio", "word": "guitar", "stimulus": "/static/audio/wordpool/GUITAR.wav", "conditions": [24, 1600, "a", 24000], "internal_node_id": "0.0-162.0", "trial": 6, "time_elapsed": 1034565, "serialpos": 12, "key_press": -1, "wordID": 669, "type": "PRES_AUD", "trial_index": 225}, "uniqueid": "MTK2742:3V5Q80FXIYY7T6NN78L1HHBR9YB32Q", "dateTime": 1519321591634}, {"current_trial": 226, "trialdata": {"rt": -1000, "trial_type": "single-audio", "word": "eagle", "stimulus": "/static/audio/wordpool/EAGLE.wav", "conditions": [24, 1600, "a", 24000], "internal_node_id": "0.0-163.0", "trial": 6, "time_elapsed": 1037087, "serialpos": 13, "key_press": -1, "wordID": 511, "type": "PRES_AUD", "trial_index": 226}, "uniqueid": "MTK2742:3V5Q80FXIYY7T6NN78L1HHBR9YB32Q", "dateTime": 1519321594157}, {"current_trial": 227, "trialdata": {"rt": -1000, "trial_type": "single-audio", "word": "denim", "stimulus": "/static/audio/wordpool/DENIM.wav", "conditions": [24, 1600, "a", 24000], "internal_node_id": "0.0-164.0", "trial": 6, "time_elapsed": 1039737, "serialpos": 14, "key_press": -1, "wordID": 445, "type": "PRES_AUD", "trial_index": 227}, "uniqueid": "MTK2742:3V5Q80FXIYY7T6NN78L1HHBR9YB32Q", "dateTime": 1519321596806}, {"current_trial": 228, "trialdata": {"rt": -1000, "trial_type": "single-audio", "word": "plaid", "stimulus": "/static/audio/wordpool/PLAID.wav", "conditions": [24, 1600, "a", 24000], "internal_node_id": "0.0-165.0", "trial": 6, "time_elapsed": 1042506, "serialpos": 15, "key_press": -1, "wordID": 1079, "type": "PRES_AUD", "trial_index": 228}, "uniqueid": "MTK2742:3V5Q80FXIYY7T6NN78L1HHBR9YB32Q", "dateTime": 1519321599575}, {"current_trial": 229, "trialdata": {"rt": -1000, "trial_type": "single-audio", "word": "ketchup", "stimulus": "/static/audio/wordpool/KETCHUP.wav", "conditions": [24, 1600, "a", 24000], "internal_node_id": "0.0-166.0", "trial": 6, "time_elapsed": 1045249, "serialpos": 16, "key_press": -1, "wordID": 770, "type": "PRES_AUD", "trial_index": 229}, "uniqueid": "MTK2742:3V5Q80FXIYY7T6NN78L1HHBR9YB32Q", "dateTime": 1519321602321}, {"current_trial": 230, "trialdata": {"rt": -1000, "trial_type": "single-audio", "word": "mummy", "stimulus": "/static/audio/wordpool/MUMMY.wav", "conditions": [24, 1600, "a", 24000], "internal_node_id": "0.0-167.0", "trial": 6, "time_elapsed": 1047685, "serialpos": 17, "key_press": -1, "wordID": 931, "type": "PRES_AUD", "trial_index": 230}, "uniqueid": "MTK2742:3V5Q80FXIYY7T6NN78L1HHBR9YB32Q", "dateTime": 1519321604754}, {"current_trial": 231, "trialdata": {"rt": -1000, "trial_type": "single-audio", "word": "dandruff", "stimulus": "/static/audio/wordpool/DANDRUFF.wav", "conditions": [24, 1600, "a", 24000], "internal_node_id": "0.0-168.0", "trial": 6, "time_elapsed": 1050162, "serialpos": 18, "key_press": -1, "wordID": 438, "type": "PRES_AUD", "trial_index": 231}, "uniqueid": "MTK2742:3V5Q80FXIYY7T6NN78L1HHBR9YB32Q", "dateTime": 1519321607231}, {"current_trial": 232, "trialdata": {"rt": -1000, "trial_type": "single-audio", "word": "banjo", "stimulus": "/static/audio/wordpool/BANJO.wav", "conditions": [24, 1600, "a", 24000], "internal_node_id": "0.0-169.0", "trial": 6, "time_elapsed": 1052618, "serialpos": 19, "key_press": -1, "wordID": 81, "type": "PRES_AUD", "trial_index": 232}, "uniqueid": "MTK2742:3V5Q80FXIYY7T6NN78L1HHBR9YB32Q", "dateTime": 1519321609687}, {"current_trial": 233, "trialdata": {"rt": -1000, "trial_type": "single-audio", "word": "london", "stimulus": "/static/audio/wordpool/LONDON.wav", "conditions": [24, 1600, "a", 24000], "internal_node_id": "0.0-170.0", "trial": 6, "time_elapsed": 1055202, "serialpos": 20, "key_press": -1, "wordID": 842, "type": "PRES_AUD", "trial_index": 233}, "uniqueid": "MTK2742:3V5Q80FXIYY7T6NN78L1HHBR9YB32Q", "dateTime": 1519321612271}, {"current_trial": 234, "trialdata": {"rt": -1000, "trial_type": "single-audio", "word": "headband", "stimulus": "/static/audio/wordpool/HEADBAND.wav", "conditions": [24, 1600, "a", 24000], "internal_node_id": "0.0-171.0", "trial": 6, "time_elapsed": 1057736, "serialpos": 21, "key_press": -1, "wordID": 695, "type": "PRES_AUD", "trial_index": 234}, "uniqueid": "MTK2742:3V5Q80FXIYY7T6NN78L1HHBR9YB32Q", "dateTime": 1519321614805}, {"current_trial": 235, "trialdata": {"rt": -1000, "trial_type": "single-audio", "word": "female", "stimulus": "/static/audio/wordpool/FEMALE.wav", "conditions": [24, 1600, "a", 24000], "internal_node_id": "0.0-172.0", "trial": 6, "time_elapsed": 1060425, "serialpos": 22, "key_press": -1, "wordID": 558, "type": "PRES_AUD", "trial_index": 235}, "uniqueid": "MTK2742:3V5Q80FXIYY7T6NN78L1HHBR9YB32Q", "dateTime": 1519321617494}, {"current_trial": 236, "trialdata": {"rt": -1000, "trial_type": "single-audio", "word": "label", "stimulus": "/static/audio/wordpool/LABEL.wav", "conditions": [24, 1600, "a", 24000], "internal_node_id": "0.0-173.0", "trial": 6, "time_elapsed": 1063217, "serialpos": 23, "key_press": -1, "wordID": 789, "type": "PRES_AUD", "trial_index": 236}, "uniqueid": "MTK2742:3V5Q80FXIYY7T6NN78L1HHBR9YB32Q", "dateTime": 1519321620286}, {"current_trial": 237, "trialdata": {"rt": -1, "trial_type": "single-stim", "stimulus": "", "internal_node_id": "0.0-174.0-0.0", "time_elapsed": 1064615, "key_press": -1, "type": "PRE_RECALL_DELAY", "trial_index": 237}, "uniqueid": "MTK2742:3V5Q80FXIYY7T6NN78L1HHBR9YB32Q", "dateTime": 1519321621684}, {"current_trial": 238, "trialdata": {"rt": -1000, "trial_type": "single-audio", "stimulus": "/static/audio/400Hz.wav", "internal_node_id": "0.0-175.0", "time_elapsed": 1065116, "key_press": -1, "type": "PRE_RECALL_ALERT", "trial_index": 238}, "uniqueid": "MTK2742:3V5Q80FXIYY7T6NN78L1HHBR9YB32Q", "dateTime": 1519321622185}, {"current_trial": 239, "trialdata": {"rt": [5832, 9591, 14301, 20761, 27187, 31514, 42443, 46650, 51436, 56342], "recwords": ["sister", "drink", "donor", "siblings", "guitar", "ego", "ketchup", "mummy", "london", "female"], "key_times": [3040, 3600, 3999, 4262, 4492, 4682, 5832, 7451, 7650, 8284, 8580, 8864, 9591, 11811, 12393, 12679, 13049, 13661, 14301, 17400, 17995, 18496, 18946, 19200, 19531, 19833, 20202, 20761, 24778, 25300, 25472, 25827, 26264, 26533, 27187, 29612, 30090, 30612, 31514, 32863, 33403, 33654, 34625, 34839, 35241, 36826, 36987, 37118, 38731, 39045, 39575, 39857, 42443, 43582, 43819, 44073, 44210, 44530, 46650, 48253, 48444, 48890, 49322, 50002, 50323, 51436, 52594, 52831, 54042, 54471, 55028, 55531, 56342, 58599, 59132, 59892], "trial_type": "free-recall", "conditions": [24, 1600, "a", 24000], "internal_node_id": "0.0-176.0-0.0", "key_presses": [83, 73, 83, 84, 69, 82, 13, 68, 82, 73, 78, 75, 13, 68, 79, 78, 79, 82, 13, 83, 73, 66, 76, 73, 78, 71, 83, 13, 71, 85, 73, 84, 65, 82, 13, 69, 71, 79, 13, 75, 69, 84, 72, 85, 80, 8, 8, 8, 67, 72, 85, 80, 13, 77, 85, 77, 77, 89, 13, 76, 79, 78, 68, 79, 78, 13, 70, 69, 77, 65, 76, 69, 13, 76, 65, 66], "trial": 6, "time_elapsed": 1125120, "type": "FREE_RECALL", "trial_index": 239}, "uniqueid": "MTK2742:3V5Q80FXIYY7T6NN78L1HHBR9YB32Q", "dateTime": 1519321682194}, {"current_trial": 240, "trialdata": {"rt": 3323, "trial_type": "text", "internal_node_id": "0.0-177.0", "time_elapsed": 1130452, "key_press": 32, "type": "INSTRUCTIONS", "trial_index": 240}, "uniqueid": "MTK2742:3V5Q80FXIYY7T6NN78L1HHBR9YB32Q", "dateTime": 1519321687521}, {"current_trial": 241, "trialdata": {"rt": [], "trial_type": "math-distractor", "key_times": [5593], "responses": [], "num2": [9], "num3": [7], "conditions": [24, 1600, "a", 12000], "internal_node_id": "0.0-178.0", "key_presses": [50], "trial": 7, "time_elapsed": 1144460, "type": "DISTRACTOR", "trial_index": 241, "num1": [4]}, "uniqueid": "MTK2742:3V5Q80FXIYY7T6NN78L1HHBR9YB32Q", "dateTime": 1519321701529}, {"current_trial": 242, "trialdata": {"rt": -1, "trial_type": "single-stim", "stimulus": "<p id=\"stim\">10</p>", "internal_node_id": "0.0-179.0-0.0", "time_elapsed": 1147459, "key_press": -1, "trial_index": 242}, "uniqueid": "MTK2742:3V5Q80FXIYY7T6NN78L1HHBR9YB32Q", "dateTime": 1519321704528}, {"current_trial": 243, "trialdata": {"rt": -1, "trial_type": "single-stim", "stimulus": "<p id=\"stim\">9</p>", "internal_node_id": "0.0-179.0-1.0", "time_elapsed": 1148459, "key_press": -1, "trial_index": 243}, "uniqueid": "MTK2742:3V5Q80FXIYY7T6NN78L1HHBR9YB32Q", "dateTime": 1519321705529}, {"current_trial": 244, "trialdata": {"rt": -1, "trial_type": "single-stim", "stimulus": "<p id=\"stim\">8</p>", "internal_node_id": "0.0-179.0-2.0", "time_elapsed": 1149460, "key_press": -1, "trial_index": 244}, "uniqueid": "MTK2742:3V5Q80FXIYY7T6NN78L1HHBR9YB32Q", "dateTime": 1519321706529}, {"current_trial": 245, "trialdata": {"rt": -1, "trial_type": "single-stim", "stimulus": "<p id=\"stim\">7</p>", "internal_node_id": "0.0-179.0-3.0", "time_elapsed": 1150462, "key_press": -1, "trial_index": 245}, "uniqueid": "MTK2742:3V5Q80FXIYY7T6NN78L1HHBR9YB32Q", "dateTime": 1519321707531}, {"current_trial": 246, "trialdata": {"rt": -1, "trial_type": "single-stim", "stimulus": "<p id=\"stim\">6</p>", "internal_node_id": "0.0-179.0-4.0", "time_elapsed": 1151462, "key_press": -1, "trial_index": 246}, "uniqueid": "MTK2742:3V5Q80FXIYY7T6NN78L1HHBR9YB32Q", "dateTime": 1519321708531}, {"current_trial": 247, "trialdata": {"rt": -1, "trial_type": "single-stim", "stimulus": "<p id=\"stim\">5</p>", "internal_node_id": "0.0-179.0-5.0", "time_elapsed": 1152466, "key_press": -1, "trial_index": 247}, "uniqueid": "MTK2742:3V5Q80FXIYY7T6NN78L1HHBR9YB32Q", "dateTime": 1519321709535}, {"current_trial": 248, "trialdata": {"rt": -1, "trial_type": "single-stim", "stimulus": "<p id=\"stim\">4</p>", "internal_node_id": "0.0-179.0-6.0", "time_elapsed": 1153467, "key_press": -1, "trial_index": 248}, "uniqueid": "MTK2742:3V5Q80FXIYY7T6NN78L1HHBR9YB32Q", "dateTime": 1519321710536}, {"current_trial": 249, "trialdata": {"rt": -1, "trial_type": "single-stim", "stimulus": "<p id=\"stim\">3</p>", "internal_node_id": "0.0-179.0-7.0", "time_elapsed": 1154471, "key_press": -1, "trial_index": 249}, "uniqueid": "MTK2742:3V5Q80FXIYY7T6NN78L1HHBR9YB32Q", "dateTime": 1519321711540}, {"current_trial": 250, "trialdata": {"rt": -1, "trial_type": "single-stim", "stimulus": "<p id=\"stim\">2</p>", "internal_node_id": "0.0-179.0-8.0", "time_elapsed": 1155474, "key_press": -1, "trial_index": 250}, "uniqueid": "MTK2742:3V5Q80FXIYY7T6NN78L1HHBR9YB32Q", "dateTime": 1519321712543}, {"current_trial": 251, "trialdata": {"rt": -1, "trial_type": "single-stim", "stimulus": "<p id=\"stim\">1</p>", "internal_node_id": "0.0-179.0-9.0", "time_elapsed": 1156479, "key_press": -1, "trial_index": 251}, "uniqueid": "MTK2742:3V5Q80FXIYY7T6NN78L1HHBR9YB32Q", "dateTime": 1519321713549}, {"current_trial": 252, "trialdata": {"rt": -1, "trial_type": "single-stim", "stimulus": "<p id=\"stim\">+</p>", "internal_node_id": "0.0-180.0-0.0", "time_elapsed": 1157988, "key_press": -1, "type": "FIXATION", "trial_index": 252}, "uniqueid": "MTK2742:3V5Q80FXIYY7T6NN78L1HHBR9YB32Q", "dateTime": 1519321715057}, {"current_trial": 253, "trialdata": {"rt": -1000, "trial_type": "single-audio", "word": "onion", "stimulus": "/static/audio/wordpool/ONION.wav", "conditions": [24, 1600, "a", 12000], "internal_node_id": "0.0-181.0", "trial": 7, "time_elapsed": 1160723, "serialpos": 0, "key_press": -1, "wordID": 976, "type": "PRES_AUD", "trial_index": 253}, "uniqueid": "MTK2742:3V5Q80FXIYY7T6NN78L1HHBR9YB32Q", "dateTime": 1519321717792}, {"current_trial": 254, "trialdata": {"rt": -1000, "trial_type": "single-audio", "word": "lava", "stimulus": "/static/audio/wordpool/LAVA.wav", "conditions": [24, 1600, "a", 12000], "internal_node_id": "0.0-182.0", "trial": 7, "time_elapsed": 1163474, "serialpos": 1, "key_press": -1, "wordID": 803, "type": "PRES_AUD", "trial_index": 254}, "uniqueid": "MTK2742:3V5Q80FXIYY7T6NN78L1HHBR9YB32Q", "dateTime": 1519321720543}, {"current_trial": 255, "trialdata": {"rt": -1000, "trial_type": "single-audio",