{"assignmentId": "3VNXK88KKDP25ZA5CR6MAZBO6ODV96", "workerId": "MTK2741", "questiondata": {"origin": "United States", "strat-rehearsal": "25", "marital": "Single", "education": "Master's degree", "ethnicity": "Not Hispanic", "color_depth": 24, "distracted": "No", "wrote-notes": "Yes", "strat-other": "", "screen_width": 1440, "avail_screen_width": 1440, "avail_screen_height": 877, "strat-image": "100", "language": "english", "gender": "Female", "age": "28", "gender_other": "", "race": ["Not Reported"], "strat-categorize": "29", "pixel_depth": 24, "strat-spatial": "31", "strat-story": "0", "race_other": "", "screen_height": 900}, "bonus": 0, "hitId": "3LN3BXKGC02SCEZOQ5CQZYK5W00GW2", "counterbalance": 2069, "useragent": "Mozilla/5.0 (Macintosh; Intel Mac OS X 10_13_3) AppleWebKit/537.36 (KHTML, like Gecko) Chrome/64.0.3282.167 Safari/537.36", "eventdata": [{"eventtype": "initialized", "interval": 0, "value": null, "timestamp": 1519318911827}, {"eventtype": "window_resize", "interval": 0, "value": [1440, 746], "timestamp": 1519318911827}, {"eventtype": "focus", "interval": 19980, "value": "off", "timestamp": 1519318931807}, {"eventtype": "focus", "interval": 4569, "value": "on", "timestamp": 1519318936376}, {"eventtype": "window_resize", "interval": 27463, "value": [1440, 713], "timestamp": 1519318963839}, {"eventtype": "focus", "interval": 1740901, "value": "off", "timestamp": 1519320704740}, {"eventtype": "focus", "interval": 4349, "value": "on", "timestamp": 1519320709089}, {"eventtype": "focus", "interval": 1728, "value": "off", "timestamp": 1519320710817}, {"eventtype": "focus", "interval": 8193, "value": "on", "timestamp": 1519320719010}, {"eventtype": "focus", "interval": 14781, "value": "off", "timestamp": 1519320733791}, {"eventtype": "focus", "interval": 60863, "value": "on", "timestamp": 1519320794654}, {"eventtype": "focus", "interval": 508472, "value": "off", "timestamp": 1519321303126}, {"eventtype": "focus", "interval": 2873, "value": "on", "timestamp": 1519321305999}, {"eventtype": "focus", "interval": 219439, "value": "off", "timestamp": 1519321525438}, {"eventtype": "focus", "interval": 31757, "value": "on", "timestamp": 1519321557195}, {"eventtype": "focus", "interval": 1835, "value": "off", "timestamp": 1519321559030}, {"eventtype": "focus", "interval": 12913, "value": "on", "timestamp": 1519321571943}], "data": [{"current_trial": 0, "trialdata": {"rt": 3474, "trial_type": "text", "internal_node_id": "0.0-0.0", "time_elapsed": 3474, "key_press": 32, "type": "INSTRUCTIONS", "trial_index": 0}, "uniqueid": "MTK2741:3VNXK88KKDP25ZA5CR6MAZBO6ODV96", "dateTime": 1519318938323}, {"current_trial": 1, "trialdata": {"rt": 11066, "trial_type": "text", "internal_node_id": "0.0-1.0", "time_elapsed": 14542, "key_press": 32, "type": "INSTRUCTIONS", "trial_index": 1}, "uniqueid": "MTK2741:3VNXK88KKDP25ZA5CR6MAZBO6ODV96", "dateTime": 1519318949391}, {"current_trial": 2, "trialdata": {"rt": [17703], "trial_type": "audio-test", "responses": ["ocean"], "internal_node_id": "0.0-2.0", "time_elapsed": 32262, "type": "AUDIO_TEST", "trial_index": 2}, "uniqueid": "MTK2741:3VNXK88KKDP25ZA5CR6MAZBO6ODV96", "dateTime": 1519318967111}, {"current_trial": 3, "trialdata": {"rt": [6434], "trial_type": "audio-test", "responses": ["crystal"], "internal_node_id": "0.0-3.0", "time_elapsed": 38704, "type": "AUDIO_TEST", "trial_index": 3}, "uniqueid": "MTK2741:3VNXK88KKDP25ZA5CR6MAZBO6ODV96", "dateTime": 1519318973552}, {"current_trial": 4, "trialdata": {"rt": [5489], "trial_type": "audio-test", "responses": ["spice"], "internal_node_id": "0.0-4.0", "time_elapsed": 44198, "type": "AUDIO_TEST", "trial_index": 4}, "uniqueid": "MTK2741:3VNXK88KKDP25ZA5CR6MAZBO6ODV96", "dateTime": 1519318979046}, {"current_trial": 5, "trialdata": {"rt": 21398, "trial_type": "survey-text", "responses": "{\"Q0\":\"12:30\",\"Q1\":\"8:30\",\"Q2\":\"4\"}", "internal_node_id": "0.0-5.0", "time_elapsed": 66349, "type": "SLEEP_SURVEY", "trial_index": 5}, "uniqueid": "MTK2741:3VNXK88KKDP25ZA5CR6MAZBO6ODV96", "dateTime": 1519319001197}, {"current_trial": 6, "trialdata": {"rt": 23385, "trial_type": "text", "internal_node_id": "0.0-6.0", "time_elapsed": 90737, "key_press": 13, "type": "INSTRUCTIONS", "trial_index": 6}, "uniqueid": "MTK2741:3VNXK88KKDP25ZA5CR6MAZBO6ODV96", "dateTime": 1519319025585}, {"current_trial": 7, "trialdata": {"rt": 11039, "trial_type": "text", "internal_node_id": "0.0-7.0", "time_elapsed": 102281, "key_press": 32, "type": "INSTRUCTIONS", "trial_index": 7}, "uniqueid": "MTK2741:3VNXK88KKDP25ZA5CR6MAZBO6ODV96", "dateTime": 1519319037129}, {"current_trial": 8, "trialdata": {"rt": 4844, "trial_type": "text", "internal_node_id": "0.0-8.0", "time_elapsed": 107630, "key_press": 32, "type": "INSTRUCTIONS", "trial_index": 8}, "uniqueid": "MTK2741:3VNXK88KKDP25ZA5CR6MAZBO6ODV96", "dateTime": 1519319042478}, {"current_trial": 9, "trialdata": {"rt": [6939, 9199, 17730], "trial_type": "math-distractor", "key_times": [6568, 6656, 6939, 8855, 8955, 9199, 17110, 17213, 17730], "responses": ["17", "20", "19"], "num2": [2, 2, 8, 5], "num3": [9, 9, 4, 6], "conditions": [18, 1200, "a", 18000], "internal_node_id": "0.0-9.0", "key_presses": [49, 55, 13, 50, 48, 13, 49, 57, 13], "trial": 0, "time_elapsed": 126641, "type": "DISTRACTOR", "trial_index": 9, "num1": [6, 9, 7, 8]}, "uniqueid": "MTK2741:3VNXK88KKDP25ZA5CR6MAZBO6ODV96", "dateTime": 1519319061489}, {"current_trial": 10, "trialdata": {"rt": -1, "trial_type": "single-stim", "stimulus": "<p id=\"stim\">10</p>", "internal_node_id": "0.0-10.0-0.0", "time_elapsed": 129647, "key_press": -1, "trial_index": 10}, "uniqueid": "MTK2741:3VNXK88KKDP25ZA5CR6MAZBO6ODV96", "dateTime": 1519319064495}, {"current_trial": 11, "trialdata": {"rt": -1, "trial_type": "single-stim", "stimulus": "<p id=\"stim\">9</p>", "internal_node_id": "0.0-10.0-1.0", "time_elapsed": 130651, "key_press": -1, "trial_index": 11}, "uniqueid": "MTK2741:3VNXK88KKDP25ZA5CR6MAZBO6ODV96", "dateTime": 1519319065499}, {"current_trial": 12, "trialdata": {"rt": -1, "trial_type": "single-stim", "stimulus": "<p id=\"stim\">8</p>", "internal_node_id": "0.0-10.0-2.0", "time_elapsed": 131655, "key_press": -1, "trial_index": 12}, "uniqueid": "MTK2741:3VNXK88KKDP25ZA5CR6MAZBO6ODV96", "dateTime": 1519319066503}, {"current_trial": 13, "trialdata": {"rt": -1, "trial_type": "single-stim", "stimulus": "<p id=\"stim\">7</p>", "internal_node_id": "0.0-10.0-3.0", "time_elapsed": 132659, "key_press": -1, "trial_index": 13}, "uniqueid": "MTK2741:3VNXK88KKDP25ZA5CR6MAZBO6ODV96", "dateTime": 1519319067507}, {"current_trial": 14, "trialdata": {"rt": -1, "trial_type": "single-stim", "stimulus": "<p id=\"stim\">6</p>", "internal_node_id": "0.0-10.0-4.0", "time_elapsed": 133664, "key_press": -1, "trial_index": 14}, "uniqueid": "MTK2741:3VNXK88KKDP25ZA5CR6MAZBO6ODV96", "dateTime": 1519319068512}, {"current_trial": 15, "trialdata": {"rt": -1, "trial_type": "single-stim", "stimulus": "<p id=\"stim\">5</p>", "internal_node_id": "0.0-10.0-5.0", "time_elapsed": 134668, "key_press": -1, "trial_index": 15}, "uniqueid": "MTK2741:3VNXK88KKDP25ZA5CR6MAZBO6ODV96", "dateTime": 1519319069516}, {"current_trial": 16, "trialdata": {"rt": -1, "trial_type": "single-stim", "stimulus": "<p id=\"stim\">4</p>", "internal_node_id": "0.0-10.0-6.0", "time_elapsed": 135671, "key_press": -1, "trial_index": 16}, "uniqueid": "MTK2741:3VNXK88KKDP25ZA5CR6MAZBO6ODV96", "dateTime": 1519319070519}, {"current_trial": 17, "trialdata": {"rt": -1, "trial_type": "single-stim", "stimulus": "<p id=\"stim\">3</p>", "internal_node_id": "0.0-10.0-7.0", "time_elapsed": 136675, "key_press": -1, "trial_index": 17}, "uniqueid": "MTK2741:3VNXK88KKDP25ZA5CR6MAZBO6ODV96", "dateTime": 1519319071523}, {"current_trial": 18, "trialdata": {"rt": -1, "trial_type": "single-stim", "stimulus": "<p id=\"stim\">2</p>", "internal_node_id": "0.0-10.0-8.0", "time_elapsed": 137680, "key_press": -1, "trial_index": 18}, "uniqueid": "MTK2741:3VNXK88KKDP25ZA5CR6MAZBO6ODV96", "dateTime": 1519319072528}, {"current_trial": 19, "trialdata": {"rt": -1, "trial_type": "single-stim", "stimulus": "<p id=\"stim\">1</p>", "internal_node_id": "0.0-10.0-9.0", "time_elapsed": 138684, "key_press": -1, "trial_index": 19}, "uniqueid": "MTK2741:3VNXK88KKDP25ZA5CR6MAZBO6ODV96", "dateTime": 1519319073532}, {"current_trial": 20, "trialdata": {"rt": -1, "trial_type": "single-stim", "stimulus": "<p id=\"stim\">+</p>", "internal_node_id": "0.0-11.0-0.0", "time_elapsed": 140186, "key_press": -1, "type": "FIXATION", "trial_index": 20}, "uniqueid": "MTK2741:3VNXK88KKDP25ZA5CR6MAZBO6ODV96", "dateTime": 1519319075035}, {"current_trial": 21, "trialdata": {"rt": -1000, "trial_type": "single-audio", "word": "parrot", "stimulus": "/static/audio/wordpool/PARROT.wav", "conditions": [18, 1200, "a", 18000], "internal_node_id": "0.0-12.0", "trial": 0, "time_elapsed": 142195, "serialpos": 0, "key_press": -1, "wordID": 1014, "type": "PRES_AUD", "trial_index": 21}, "uniqueid": "MTK2741:3VNXK88KKDP25ZA5CR6MAZBO6ODV96", "dateTime": 1519319077043}, {"current_trial": 22, "trialdata": {"rt": -1000, "trial_type": "single-audio", "word": "salt", "stimulus": "/static/audio/wordpool/SALT.wav", "conditions": [18, 1200, "a", 18000], "internal_node_id": "0.0-13.0", "trial": 0, "time_elapsed": 144395, "serialpos": 1, "key_press": -1, "wordID": 1228, "type": "PRES_AUD", "trial_index": 22}, "uniqueid": "MTK2741:3VNXK88KKDP25ZA5CR6MAZBO6ODV96", "dateTime": 1519319079243}, {"current_trial": 23, "trialdata": {"rt": -1000, "trial_type": "single-audio", "word": "waiter", "stimulus": "/static/audio/wordpool/WAITER.wav", "conditions": [18, 1200, "a", 18000], "internal_node_id": "0.0-14.0", "trial": 0, "time_elapsed": 146577, "serialpos": 2, "key_press": -1, "wordID": 1579, "type": "PRES_AUD", "trial_index": 23}, "uniqueid": "MTK2741:3VNXK88KKDP25ZA5CR6MAZBO6ODV96", "dateTime": 1519319081425}, {"current_trial": 24, "trialdata": {"rt": -1000, "trial_type": "single-audio", "word": "chauffeur", "stimulus": "/static/audio/wordpool/CHAUFFEUR.wav", "conditions": [18, 1200, "a", 18000], "internal_node_id": "0.0-15.0", "trial": 0, "time_elapsed": 148801, "serialpos": 3, "key_press": -1, "wordID": 282, "type": "PRES_AUD", "trial_index": 24}, "uniqueid": "MTK2741:3VNXK88KKDP25ZA5CR6MAZBO6ODV96", "dateTime": 1519319083649}, {"current_trial": 25, "trialdata": {"rt": -1000, "trial_type": "single-audio", "word": "flesh", "stimulus": "/static/audio/wordpool/FLESH.wav", "conditions": [18, 1200, "a", 18000], "internal_node_id": "0.0-16.0", "trial": 0, "time_elapsed": 150942, "serialpos": 4, "key_press": -1, "wordID": 578, "type": "PRES_AUD", "trial_index": 25}, "uniqueid": "MTK2741:3VNXK88KKDP25ZA5CR6MAZBO6ODV96", "dateTime": 1519319085790}, {"current_trial": 26, "trialdata": {"rt": -1000, "trial_type": "single-audio", "word": "treat", "stimulus": "/static/audio/wordpool/TREAT.wav", "conditions": [18, 1200, "a", 18000], "internal_node_id": "0.0-17.0", "trial": 0, "time_elapsed": 153219, "serialpos": 5, "key_press": -1, "wordID": 1500, "type": "PRES_AUD", "trial_index": 26}, "uniqueid": "MTK2741:3VNXK88KKDP25ZA5CR6MAZBO6ODV96", "dateTime": 1519319088067}, {"current_trial": 27, "trialdata": {"rt": -1000, "trial_type": "single-audio", "word": "cottage", "stimulus": "/static/audio/wordpool/COTTAGE.wav", "conditions": [18, 1200, "a", 18000], "internal_node_id": "0.0-18.0", "trial": 0, "time_elapsed": 155488, "serialpos": 6, "key_press": -1, "wordID": 383, "type": "PRES_AUD", "trial_index": 27}, "uniqueid": "MTK2741:3VNXK88KKDP25ZA5CR6MAZBO6ODV96", "dateTime": 1519319090336}, {"current_trial": 28, "trialdata": {"rt": -1000, "trial_type": "single-audio", "word": "paddle", "stimulus": "/static/audio/wordpool/PADDLE.wav", "conditions": [18, 1200, "a", 18000], "internal_node_id": "0.0-19.0", "trial": 0, "time_elapsed": 157497, "serialpos": 7, "key_press": -1, "wordID": 999, "type": "PRES_AUD", "trial_index": 28}, "uniqueid": "MTK2741:3VNXK88KKDP25ZA5CR6MAZBO6ODV96", "dateTime": 1519319092345}, {"current_trial": 29, "trialdata": {"rt": -1000, "trial_type": "single-audio", "word": "barrel", "stimulus": "/static/audio/wordpool/BARREL.wav", "conditions": [18, 1200, "a", 18000], "internal_node_id": "0.0-20.0", "trial": 0, "time_elapsed": 159870, "serialpos": 8, "key_press": -1, "wordID": 90, "type": "PRES_AUD", "trial_index": 29}, "uniqueid": "MTK2741:3VNXK88KKDP25ZA5CR6MAZBO6ODV96", "dateTime": 1519319094719}, {"current_trial": 30, "trialdata": {"rt": -1000, "trial_type": "single-audio", "word": "softball", "stimulus": "/static/audio/wordpool/SOFTBALL.wav", "conditions": [18, 1200, "a", 18000], "internal_node_id": "0.0-21.0", "trial": 0, "time_elapsed": 161996, "serialpos": 9, "key_press": -1, "wordID": 1342, "type": "PRES_AUD", "trial_index": 30}, "uniqueid": "MTK2741:3VNXK88KKDP25ZA5CR6MAZBO6ODV96", "dateTime": 1519319096845}, {"current_trial": 31, "trialdata": {"rt": -1000, "trial_type": "single-audio", "word": "coin", "stimulus": "/static/audio/wordpool/COIN.wav", "conditions": [18, 1200, "a", 18000], "internal_node_id": "0.0-22.0", "trial": 0, "time_elapsed": 164357, "serialpos": 10, "key_press": -1, "wordID": 342, "type": "PRES_AUD", "trial_index": 31}, "uniqueid": "MTK2741:3VNXK88KKDP25ZA5CR6MAZBO6ODV96", "dateTime": 1519319099205}, {"current_trial": 32, "trialdata": {"rt": -1000, "trial_type": "single-audio", "word": "lunch", "stimulus": "/static/audio/wordpool/LUNCH.wav", "conditions": [18, 1200, "a", 18000], "internal_node_id": "0.0-23.0", "trial": 0, "time_elapsed": 166529, "serialpos": 11, "key_press": -1, "wordID": 848, "type": "PRES_AUD", "trial_index": 32}, "uniqueid": "MTK2741:3VNXK88KKDP25ZA5CR6MAZBO6ODV96", "dateTime": 1519319101377}, {"current_trial": 33, "trialdata": {"rt": -1000, "trial_type": "single-audio", "word": "brick", "stimulus": "/static/audio/wordpool/BRICK.wav", "conditions": [18, 1200, "a", 18000], "internal_node_id": "0.0-24.0", "trial": 0, "time_elapsed": 168688, "serialpos": 12, "key_press": -1, "wordID": 171, "type": "PRES_AUD", "trial_index": 33}, "uniqueid": "MTK2741:3VNXK88KKDP25ZA5CR6MAZBO6ODV96", "dateTime": 1519319103537}, {"current_trial": 34, "trialdata": {"rt": -1000, "trial_type": "single-audio", "word": "skillet", "stimulus": "/static/audio/wordpool/SKILLET.wav", "conditions": [18, 1200, "a", 18000], "internal_node_id": "0.0-25.0", "trial": 0, "time_elapsed": 170923, "serialpos": 13, "key_press": -1, "wordID": 1316, "type": "PRES_AUD", "trial_index": 34}, "uniqueid": "MTK2741:3VNXK88KKDP25ZA5CR6MAZBO6ODV96", "dateTime": 1519319105772}, {"current_trial": 35, "trialdata": {"rt": -1000, "trial_type": "single-audio", "word": "jungle", "stimulus": "/static/audio/wordpool/JUNGLE.wav", "conditions": [18, 1200, "a", 18000], "internal_node_id": "0.0-26.0", "trial": 0, "time_elapsed": 173118, "serialpos": 14, "key_press": -1, "wordID": 763, "type": "PRES_AUD", "trial_index": 35}, "uniqueid": "MTK2741:3VNXK88KKDP25ZA5CR6MAZBO6ODV96", "dateTime": 1519319107966}, {"current_trial": 36, "trialdata": {"rt": -1000, "trial_type": "single-audio", "word": "scalpel", "stimulus": "/static/audio/wordpool/SCALPEL.wav", "conditions": [18, 1200, "a", 18000], "internal_node_id": "0.0-27.0", "trial": 0, "time_elapsed": 175440, "serialpos": 15, "key_press": -1, "wordID": 1242, "type": "PRES_AUD", "trial_index": 36}, "uniqueid": "MTK2741:3VNXK88KKDP25ZA5CR6MAZBO6ODV96", "dateTime": 1519319110288}, {"current_trial": 37, "trialdata": {"rt": -1000, "trial_type": "single-audio", "word": "plate", "stimulus": "/static/audio/wordpool/PLATE.wav", "conditions": [18, 1200, "a", 18000], "internal_node_id": "0.0-28.0", "trial": 0, "time_elapsed": 177547, "serialpos": 16, "key_press": -1, "wordID": 1085, "type": "PRES_AUD", "trial_index": 37}, "uniqueid": "MTK2741:3VNXK88KKDP25ZA5CR6MAZBO6ODV96", "dateTime": 1519319112395}, {"current_trial": 38, "trialdata": {"rt": -1000, "trial_type": "single-audio", "word": "agent", "stimulus": "/static/audio/wordpool/AGENT.wav", "conditions": [18, 1200, "a", 18000], "internal_node_id": "0.0-29.0", "trial": 0, "time_elapsed": 179834, "serialpos": 17, "key_press": -1, "wordID": 9, "type": "PRES_AUD", "trial_index": 38}, "uniqueid": "MTK2741:3VNXK88KKDP25ZA5CR6MAZBO6ODV96", "dateTime": 1519319114682}, {"current_trial": 39, "trialdata": {"rt": -1, "trial_type": "single-stim", "stimulus": "", "internal_node_id": "0.0-30.0-0.0", "time_elapsed": 181157, "key_press": -1, "type": "PRE_RECALL_DELAY", "trial_index": 39}, "uniqueid": "MTK2741:3VNXK88KKDP25ZA5CR6MAZBO6ODV96", "dateTime": 1519319116005}, {"current_trial": 40, "trialdata": {"rt": -1000, "trial_type": "single-audio", "stimulus": "/static/audio/400Hz.wav", "internal_node_id": "0.0-31.0", "time_elapsed": 181659, "key_press": -1, "type": "PRE_RECALL_ALERT", "trial_index": 40}, "uniqueid": "MTK2741:3VNXK88KKDP25ZA5CR6MAZBO6ODV96", "dateTime": 1519319116507}, {"current_trial": 41, "trialdata": {"rt": [3404, 3504, 6799, 9007, 10514, 18068, 28158, 31761, 45957, 58152], "recwords": ["agent", "", "softball", "scalpel", "agent", "soft", "carrot", "waiter", "ocean", ""], "key_times": [2744, 2946, 3041, 3131, 3253, 3404, 3504, 3573, 4295, 4374, 4524, 4671, 4764, 5570, 5681, 6799, 7238, 7360, 8081, 8170, 8411, 8506, 8619, 9007, 9878, 10011, 10081, 10166, 10267, 10514, 17373, 17493, 17623, 17761, 18068, 27010, 27167, 27295, 27446, 27537, 27627, 28158, 29509, 29604, 29725, 29940, 30037, 30569, 30727, 30864, 30935, 31514, 31761, 44938, 45106, 45205, 45301, 45369, 45957, 58152], "trial_type": "free-recall", "conditions": [18, 1200, "a", 18000], "internal_node_id": "0.0-32.0-0.0", "key_presses": [65, 71, 69, 78, 84, 188, 32, 83, 79, 70, 84, 66, 65, 76, 76, 13, 83, 67, 65, 76, 80, 69, 76, 13, 65, 71, 69, 78, 84, 13, 83, 79, 70, 84, 13, 67, 65, 82, 82, 79, 84, 13, 87, 65, 73, 69, 82, 8, 8, 84, 69, 82, 13, 79, 67, 69, 65, 78, 13, 13], "trial": 0, "time_elapsed": 241667, "type": "FREE_RECALL", "trial_index": 41}, "uniqueid": "MTK2741:3VNXK88KKDP25ZA5CR6MAZBO6ODV96", "dateTime": 1519319176518}, {"current_trial": 42, "trialdata": {"rt": 1679, "trial_type": "text", "internal_node_id": "0.0-33.0", "time_elapsed": 245353, "key_press": 78, "type": "INSTRUCTIONS", "trial_index": 42}, "uniqueid": "MTK2741:3VNXK88KKDP25ZA5CR6MAZBO6ODV96", "dateTime": 1519319180201}, {"current_trial": 43, "trialdata": {"rt": [10704, 13867, 17113], "trial_type": "math-distractor", "key_times": [5788, 6130, 10704, 13523, 13867, 16843, 16951, 17113], "responses": ["16", "7", "21"], "num2": [9, 2, 8, 6], "num3": [1, 3, 8, 2], "conditions": [18, 1200, "a", 18000], "internal_node_id": "0.0-34.0", "key_presses": [49, 54, 13, 55, 13, 50, 49, 13], "trial": 1, "time_elapsed": 265363, "type": "DISTRACTOR", "trial_index": 43, "num1": [6, 2, 5, 6]}, "uniqueid": "MTK2741:3VNXK88KKDP25ZA5CR6MAZBO6ODV96", "dateTime": 1519319200212}, {"current_trial": 44, "trialdata": {"rt": -1, "trial_type": "single-stim", "stimulus": "<p id=\"stim\">10</p>", "internal_node_id": "0.0-35.0-0.0", "time_elapsed": 268370, "key_press": -1, "trial_index": 44}, "uniqueid": "MTK2741:3VNXK88KKDP25ZA5CR6MAZBO6ODV96", "dateTime": 1519319203219}, {"current_trial": 45, "trialdata": {"rt": -1, "trial_type": "single-stim", "stimulus": "<p id=\"stim\">9</p>", "internal_node_id": "0.0-35.0-1.0", "time_elapsed": 269374, "key_press": -1, "trial_index": 45}, "uniqueid": "MTK2741:3VNXK88KKDP25ZA5CR6MAZBO6ODV96", "dateTime": 1519319204222}, {"current_trial": 46, "trialdata": {"rt": -1, "trial_type": "single-stim", "stimulus": "<p id=\"stim\">8</p>", "internal_node_id": "0.0-35.0-2.0", "time_elapsed": 270378, "key_press": -1, "trial_index": 46}, "uniqueid": "MTK2741:3VNXK88KKDP25ZA5CR6MAZBO6ODV96", "dateTime": 1519319205226}, {"current_trial": 47, "trialdata": {"rt": -1, "trial_type": "single-stim", "stimulus": "<p id=\"stim\">7</p>", "internal_node_id": "0.0-35.0-3.0", "time_elapsed": 271383, "key_press": -1, "trial_index": 47}, "uniqueid": "MTK2741:3VNXK88KKDP25ZA5CR6MAZBO6ODV96", "dateTime": 1519319206231}, {"current_trial": 48, "trialdata": {"rt": -1, "trial_type": "single-stim", "stimulus": "<p id=\"stim\">6</p>", "internal_node_id": "0.0-35.0-4.0", "time_elapsed": 272387, "key_press": -1, "trial_index": 48}, "uniqueid": "MTK2741:3VNXK88KKDP25ZA5CR6MAZBO6ODV96", "dateTime": 1519319207235}, {"current_trial": 49, "trialdata": {"rt": -1, "trial_type": "single-stim", "stimulus": "<p id=\"stim\">5</p>", "internal_node_id": "0.0-35.0-5.0", "time_elapsed": 273391, "key_press": -1, "trial_index": 49}, "uniqueid": "MTK2741:3VNXK88KKDP25ZA5CR6MAZBO6ODV96", "dateTime": 1519319208239}, {"current_trial": 50, "trialdata": {"rt": -1, "trial_type": "single-stim", "stimulus": "<p id=\"stim\">4</p>", "internal_node_id": "0.0-35.0-6.0", "time_elapsed": 274395, "key_press": -1, "trial_index": 50}, "uniqueid": "MTK2741:3VNXK88KKDP25ZA5CR6MAZBO6ODV96", "dateTime": 1519319209243}, {"current_trial": 51, "trialdata": {"rt": -1, "trial_type": "single-stim", "stimulus": "<p id=\"stim\">3</p>", "internal_node_id": "0.0-35.0-7.0", "time_elapsed": 275398, "key_press": -1, "trial_index": 51}, "uniqueid": "MTK2741:3VNXK88KKDP25ZA5CR6MAZBO6ODV96", "dateTime": 1519319210246}, {"current_trial": 52, "trialdata": {"rt": -1, "trial_type": "single-stim", "stimulus": "<p id=\"stim\">2</p>", "internal_node_id": "0.0-35.0-8.0", "time_elapsed": 276403, "key_press": -1, "trial_index": 52}, "uniqueid": "MTK2741:3VNXK88KKDP25ZA5CR6MAZBO6ODV96", "dateTime": 1519319211251}, {"current_trial": 53, "trialdata": {"rt": -1, "trial_type": "single-stim", "stimulus": "<p id=\"stim\">1</p>", "internal_node_id": "0.0-35.0-9.0", "time_elapsed": 277407, "key_press": -1, "trial_index": 53}, "uniqueid": "MTK2741:3VNXK88KKDP25ZA5CR6MAZBO6ODV96", "dateTime": 1519319212255}, {"current_trial": 54, "trialdata": {"rt": -1, "trial_type": "single-stim", "stimulus": "<p id=\"stim\">+</p>", "internal_node_id": "0.0-36.0-0.0", "time_elapsed": 278910, "key_press": -1, "type": "FIXATION", "trial_index": 54}, "uniqueid": "MTK2741:3VNXK88KKDP25ZA5CR6MAZBO6ODV96", "dateTime": 1519319213758}, {"current_trial": 55, "trialdata": {"rt": -1000, "trial_type": "single-audio", "word": "robin", "stimulus": "/static/audio/wordpool/ROBIN.wav", "conditions": [18, 1200, "a", 18000], "internal_node_id": "0.0-37.0", "trial": 1, "time_elapsed": 281057, "serialpos": 0, "key_press": -1, "wordID": 1198, "type": "PRES_AUD", "trial_index": 55}, "uniqueid": "MTK2741:3VNXK88KKDP25ZA5CR6MAZBO6ODV96", "dateTime": 1519319215905}, {"current_trial": 56, "trialdata": {"rt": -1000, "trial_type": "single-audio", "word": "bacon", "stimulus": "/static/audio/wordpool/BACON.wav", "conditions": [18, 1200, "a", 18000], "internal_node_id": "0.0-38.0", "trial": 1, "time_elapsed": 283141, "serialpos": 1, "key_press": -1, "wordID": 66, "type": "PRES_AUD", "trial_index": 56}, "uniqueid": "MTK2741:3VNXK88KKDP25ZA5CR6MAZBO6ODV96", "dateTime": 1519319217989}, {"current_trial": 57, "trialdata": {"rt": -1000, "trial_type": "single-audio", "word": "lily", "stimulus": "/static/audio/wordpool/LILY.wav", "conditions": [18, 1200, "a", 18000], "internal_node_id": "0.0-39.0", "trial": 1, "time_elapsed": 285195, "serialpos": 2, "key_press": -1, "wordID": 820, "type": "PRES_AUD", "trial_index": 57}, "uniqueid": "MTK2741:3VNXK88KKDP25ZA5CR6MAZBO6ODV96", "dateTime": 1519319220044}, {"current_trial": 58, "trialdata": {"rt": -1000, "trial_type": "single-audio", "word": "swimmer", "stimulus": "/static/audio/wordpool/SWIMMER.wav", "conditions": [18, 1200, "a", 18000], "internal_node_id": "0.0-40.0", "trial": 1, "time_elapsed": 287518, "serialpos": 3, "key_press": -1, "wordID": 1419, "type": "PRES_AUD", "trial_index": 58}, "uniqueid": "MTK2741:3VNXK88KKDP25ZA5CR6MAZBO6ODV96", "dateTime": 1519319222366}, {"current_trial": 59, "trialdata": {"rt": -1000, "trial_type": "single-audio", "word": "cookbook", "stimulus": "/static/audio/wordpool/COOKBOOK.wav", "conditions": [18, 1200, "a", 18000], "internal_node_id": "0.0-41.0", "trial": 1, "time_elapsed": 289689, "serialpos": 4, "key_press": -1, "wordID": 372, "type": "PRES_AUD", "trial_index": 59}, "uniqueid": "MTK2741:3VNXK88KKDP25ZA5CR6MAZBO6ODV96", "dateTime": 1519319224537}, {"current_trial": 60, "trialdata": {"rt": -1000, "trial_type": "single-audio", "word": "sheriff", "stimulus": "/static/audio/wordpool/SHERIFF.wav", "conditions": [18, 1200, "a", 18000], "internal_node_id": "0.0-42.0", "trial": 1, "time_elapsed": 291906, "serialpos": 5, "key_press": -1, "wordID": 1283, "type": "PRES_AUD", "trial_index": 60}, "uniqueid": "MTK2741:3VNXK88KKDP25ZA5CR6MAZBO6ODV96", "dateTime": 1519319226754}, {"current_trial": 61, "trialdata": {"rt": -1000, "trial_type": "single-audio", "word": "blender", "stimulus": "/static/audio/wordpool/BLENDER.wav", "conditions": [18, 1200, "a", 18000], "internal_node_id": "0.0-43.0", "trial": 1, "time_elapsed": 293967, "serialpos": 6, "key_press": -1, "wordID": 135, "type": "PRES_AUD", "trial_index": 61}, "uniqueid": "MTK2741:3VNXK88KKDP25ZA5CR6MAZBO6ODV96", "dateTime": 1519319228815}, {"current_trial": 62, "trialdata": {"rt": -1000, "trial_type": "single-audio", "word": "mammal", "stimulus": "/static/audio/wordpool/MAMMAL.wav", "conditions": [18, 1200, "a", 18000], "internal_node_id": "0.0-44.0", "trial": 1, "time_elapsed": 296324, "serialpos": 7, "key_press": -1, "wordID": 860, "type": "PRES_AUD", "trial_index": 62}, "uniqueid": "MTK2741:3VNXK88KKDP25ZA5CR6MAZBO6ODV96", "dateTime": 1519319231172}, {"current_trial": 63, "trialdata": {"rt": -1000, "trial_type": "single-audio", "word": "tweezers", "stimulus": "/static/audio/wordpool/TWEEZERS.wav", "conditions": [18, 1200, "a", 18000], "internal_node_id": "0.0-45.0", "trial": 1, "time_elapsed": 298674, "serialpos": 8, "key_press": -1, "wordID": 1525, "type": "PRES_AUD", "trial_index": 63}, "uniqueid": "MTK2741:3VNXK88KKDP25ZA5CR6MAZBO6ODV96", "dateTime": 1519319233523}, {"current_trial": 64, "trialdata": {"rt": -1000, "trial_type": "single-audio", "word": "crib", "stimulus": "/static/audio/wordpool/CRIB.wav", "conditions": [18, 1200, "a", 18000], "internal_node_id": "0.0-46.0", "trial": 1, "time_elapsed": 300974, "serialpos": 9, "key_press": -1, "wordID": 406, "type": "PRES_AUD", "trial_index": 64}, "uniqueid": "MTK2741:3VNXK88KKDP25ZA5CR6MAZBO6ODV96", "dateTime": 1519319235822}, {"current_trial": 65, "trialdata": {"rt": -1000, "trial_type": "single-audio", "word": "backbone", "stimulus": "/static/audio/wordpool/BACKBONE.wav", "conditions": [18, 1200, "a", 18000], "internal_node_id": "0.0-47.0", "trial": 1, "time_elapsed": 303272, "serialpos": 10, "key_press": -1, "wordID": 65, "type": "PRES_AUD", "trial_index": 65}, "uniqueid": "MTK2741:3VNXK88KKDP25ZA5CR6MAZBO6ODV96", "dateTime": 1519319238120}, {"current_trial": 66, "trialdata": {"rt": -1000, "trial_type": "single-audio", "word": "binder", "stimulus": "/static/audio/wordpool/BINDER.wav", "conditions": [18, 1200, "a", 18000], "internal_node_id": "0.0-48.0", "trial": 1, "time_elapsed": 305589, "serialpos": 11, "key_press": -1, "wordID": 126, "type": "PRES_AUD", "trial_index": 66}, "uniqueid": "MTK2741:3VNXK88KKDP25ZA5CR6MAZBO6ODV96", "dateTime": 1519319240437}, {"current_trial": 67, "trialdata": {"rt": -1000, "trial_type": "single-audio", "word": "tablet", "stimulus": "/static/audio/wordpool/TABLET.wav", "conditions": [18, 1200, "a", 18000], "internal_node_id": "0.0-49.0", "trial": 1, "time_elapsed": 307876, "serialpos": 12, "key_press": -1, "wordID": 1426, "type": "PRES_AUD", "trial_index": 67}, "uniqueid": "MTK2741:3VNXK88KKDP25ZA5CR6MAZBO6ODV96", "dateTime": 1519319242724}, {"current_trial": 68, "trialdata": {"rt": -1000, "trial_type": "single-audio", "word": "dresser", "stimulus": "/static/audio/wordpool/DRESSER.wav", "conditions": [18, 1200, "a", 18000], "internal_node_id": "0.0-50.0", "trial": 1, "time_elapsed": 310267, "serialpos": 13, "key_press": -1, "wordID": 495, "type": "PRES_AUD", "trial_index": 68}, "uniqueid": "MTK2741:3VNXK88KKDP25ZA5CR6MAZBO6ODV96", "dateTime": 1519319245116}, {"current_trial": 69, "trialdata": {"rt": -1000, "trial_type": "single-audio", "word": "bunny", "stimulus": "/static/audio/wordpool/BUNNY.wav", "conditions": [18, 1200, "a", 18000], "internal_node_id": "0.0-51.0", "trial": 1, "time_elapsed": 312532, "serialpos": 14, "key_press": -1, "wordID": 197, "type": "PRES_AUD", "trial_index": 69}, "uniqueid": "MTK2741:3VNXK88KKDP25ZA5CR6MAZBO6ODV96", "dateTime": 1519319247380}, {"current_trial": 70, "trialdata": {"rt": -1000, "trial_type": "single-audio", "word": "convict", "stimulus": "/static/audio/wordpool/CONVICT.wav", "conditions": [18, 1200, "a", 18000], "internal_node_id": "0.0-52.0", "trial": 1, "time_elapsed": 314660, "serialpos": 15, "key_press": -1, "wordID": 370, "type": "PRES_AUD", "trial_index": 70}, "uniqueid": "MTK2741:3VNXK88KKDP25ZA5CR6MAZBO6ODV96", "dateTime": 1519319249508}, {"current_trial": 71, "trialdata": {"rt": -1000, "trial_type": "single-audio", "word": "peanut", "stimulus": "/static/audio/wordpool/PEANUT.wav", "conditions": [18, 1200, "a", 18000], "internal_node_id": "0.0-53.0", "trial": 1, "time_elapsed": 316879, "serialpos": 16, "key_press": -1, "wordID": 1031, "type": "PRES_AUD", "trial_index": 71}, "uniqueid": "MTK2741:3VNXK88KKDP25ZA5CR6MAZBO6ODV96", "dateTime": 1519319251727}, {"current_trial": 72, "trialdata": {"rt": -1000, "trial_type": "single-audio", "word": "luggage", "stimulus": "/static/audio/wordpool/LUGGAGE.wav", "conditions": [18, 1200, "a", 18000], "internal_node_id": "0.0-54.0", "trial": 1, "time_elapsed": 319254, "serialpos": 17, "key_press": -1, "wordID": 846, "type": "PRES_AUD", "trial_index": 72}, "uniqueid": "MTK2741:3VNXK88KKDP25ZA5CR6MAZBO6ODV96", "dateTime": 1519319254102}, {"current_trial": 73, "trialdata": {"rt": -1, "trial_type": "single-stim", "stimulus": "", "internal_node_id": "0.0-55.0-0.0", "time_elapsed": 320531, "key_press": -1, "type": "PRE_RECALL_DELAY", "trial_index": 73}, "uniqueid": "MTK2741:3VNXK88KKDP25ZA5CR6MAZBO6ODV96", "dateTime": 1519319255379}, {"current_trial": 74, "trialdata": {"rt": -1000, "trial_type": "single-audio", "stimulus": "/static/audio/400Hz.wav", "internal_node_id": "0.0-56.0", "time_elapsed": 321033, "key_press": -1, "type": "PRE_RECALL_ALERT", "trial_index": 74}, "uniqueid": "MTK2741:3VNXK88KKDP25ZA5CR6MAZBO6ODV96", "dateTime": 1519319255881}, {"current_trial": 75, "trialdata": {"rt": [3928, 6506, 7799, 9083, 10722, 12627, 36057, 46143], "recwords": ["binder", "convict", "peanut", "bunny", "rabit", "notebook", "", "notebook"], "key_times": [1102, 1944, 2134, 2206, 2672, 2708, 3359, 3501, 3578, 3634, 3928, 4541, 4648, 4809, 5054, 5141, 5315, 5847, 6506, 6788, 6895, 6959, 7084, 7326, 7526, 7799, 8237, 8435, 8623, 8762, 8859, 9083, 9353, 9497, 9669, 9906, 9980, 10722, 11424, 11598, 11665, 11706, 11958, 12054, 12178, 12327, 12627, 36057, 43779, 43979, 44075, 44104, 44500, 44871, 45128, 45259, 45387, 45645, 46143], "trial_type": "free-recall", "conditions": [18, 1200, "a", 18000], "internal_node_id": "0.0-57.0-0.0", "key_presses": [66, 73, 78, 68, 82, 69, 8, 8, 69, 82, 13, 67, 79, 78, 86, 73, 67, 84, 13, 80, 69, 65, 78, 85, 84, 13, 66, 85, 78, 78, 89, 13, 82, 65, 66, 73, 84, 13, 78, 79, 84, 69, 66, 79, 79, 75, 13, 13, 78, 79, 84, 69, 79, 8, 66, 79, 79, 75, 13], "trial": 1, "time_elapsed": 381038, "type": "FREE_RECALL", "trial_index": 75}, "uniqueid": "MTK2741:3VNXK88KKDP25ZA5CR6MAZBO6ODV96", "dateTime": 1519319315889}, {"current_trial": 76, "trialdata": {"rt": 2490, "trial_type": "text", "internal_node_id": "0.0-58.0", "time_elapsed": 385537, "key_press": 32, "type": "INSTRUCTIONS", "trial_index": 76}, "uniqueid": "MTK2741:3VNXK88KKDP25ZA5CR6MAZBO6ODV96", "dateTime": 1519319320385}, {"current_trial": 77, "trialdata": {"rt": [2408, 4041, 10757], "trial_type": "math-distractor", "key_times": [2061, 2145, 2408, 3579, 3703, 4041, 7637, 8048, 10757], "responses": ["10", "17", "15"], "num2": [2, 8, 1, 7], "num3": [7, 8, 8, 6], "conditions": [24, 800, "a", 12000], "internal_node_id": "0.0-59.0", "key_presses": [49, 48, 13, 49, 55, 13, 49, 53, 13], "trial": 2, "time_elapsed": 398545, "type": "DISTRACTOR", "trial_index": 77, "num1": [1, 1, 6, 6]}, "uniqueid": "MTK2741:3VNXK88KKDP25ZA5CR6MAZBO6ODV96", "dateTime": 1519319333393}, {"current_trial": 78, "trialdata": {"rt": -1, "trial_type": "single-stim", "stimulus": "<p id=\"stim\">10</p>", "internal_node_id": "0.0-60.0-0.0", "time_elapsed": 401547, "key_press": -1, "trial_index": 78}, "uniqueid": "MTK2741:3VNXK88KKDP25ZA5CR6MAZBO6ODV96", "dateTime": 1519319336398}, {"current_trial": 79, "trialdata": {"rt": -1, "trial_type": "single-stim", "stimulus": "<p id=\"stim\">9</p>", "internal_node_id": "0.0-60.0-1.0", "time_elapsed": 402554, "key_press": -1, "trial_index": 79}, "uniqueid": "MTK2741:3VNXK88KKDP25ZA5CR6MAZBO6ODV96", "dateTime": 1519319337403}, {"current_trial": 80, "trialdata": {"rt": -1, "trial_type": "single-stim", "stimulus": "<p id=\"stim\">8</p>", "internal_node_id": "0.0-60.0-2.0", "time_elapsed": 403559, "key_press": -1, "trial_index": 80}, "uniqueid": "MTK2741:3VNXK88KKDP25ZA5CR6MAZBO6ODV96", "dateTime": 1519319338407}, {"current_trial": 81, "trialdata": {"rt": -1, "trial_type": "single-stim", "stimulus": "<p id=\"stim\">7</p>", "internal_node_id": "0.0-60.0-3.0", "time_elapsed": 404562, "key_press": -1, "trial_index": 81}, "uniqueid": "MTK2741:3VNXK88KKDP25ZA5CR6MAZBO6ODV96", "dateTime": 1519319339410}, {"current_trial": 82, "trialdata": {"rt": -1, "trial_type": "single-stim", "stimulus": "<p id=\"stim\">6</p>", "internal_node_id": "0.0-60.0-4.0", "time_elapsed": 405567, "key_press": -1, "trial_index": 82}, "uniqueid": "MTK2741:3VNXK88KKDP25ZA5CR6MAZBO6ODV96", "dateTime": 1519319340415}, {"current_trial": 83, "trialdata": {"rt": -1, "trial_type": "single-stim", "stimulus": "<p id=\"stim\">5</p>", "internal_node_id": "0.0-60.0-5.0", "time_elapsed": 406571, "key_press": -1, "trial_index": 83}, "uniqueid": "MTK2741:3VNXK88KKDP25ZA5CR6MAZBO6ODV96", "dateTime": 1519319341419}, {"current_trial": 84, "trialdata": {"rt": -1, "trial_type": "single-stim", "stimulus": "<p id=\"stim\">4</p>", "internal_node_id": "0.0-60.0-6.0", "time_elapsed": 407575, "key_press": -1, "trial_index": 84}, "uniqueid": "MTK2741:3VNXK88KKDP25ZA5CR6MAZBO6ODV96", "dateTime": 1519319342423}, {"current_trial": 85, "trialdata": {"rt": -1, "trial_type": "single-stim", "stimulus": "<p id=\"stim\">3</p>", "internal_node_id": "0.0-60.0-7.0", "time_elapsed": 408580, "key_press": -1, "trial_index": 85}, "uniqueid": "MTK2741:3VNXK88KKDP25ZA5CR6MAZBO6ODV96", "dateTime": 1519319343428}, {"current_trial": 86, "trialdata": {"rt": -1, "trial_type": "single-stim", "stimulus": "<p id=\"stim\">2</p>", "internal_node_id": "0.0-60.0-8.0", "time_elapsed": 409583, "key_press": -1, "trial_index": 86}, "uniqueid": "MTK2741:3VNXK88KKDP25ZA5CR6MAZBO6ODV96", "dateTime": 1519319344431}, {"current_trial": 87, "trialdata": {"rt": -1, "trial_type": "single-stim", "stimulus": "<p id=\"stim\">1</p>", "internal_node_id": "0.0-60.0-9.0", "time_elapsed": 410588, "key_press": -1, "trial_index": 87}, "uniqueid": "MTK2741:3VNXK88KKDP25ZA5CR6MAZBO6ODV96", "dateTime": 1519319345436}, {"current_trial": 88, "trialdata": {"rt": -1, "trial_type": "single-stim", "stimulus": "<p id=\"stim\">+</p>", "internal_node_id": "0.0-61.0-0.0", "time_elapsed": 412090, "key_press": -1, "type": "FIXATION", "trial_index": 88}, "uniqueid": "MTK2741:3VNXK88KKDP25ZA5CR6MAZBO6ODV96", "dateTime": 1519319346938}, {"current_trial": 89, "trialdata": {"rt": -1000, "trial_type": "single-audio", "word": "marker", "stimulus": "/static/audio/wordpool/MARKER.wav", "conditions": [24, 800, "a", 12000], "internal_node_id": "0.0-62.0", "trial": 2, "time_elapsed": 414034, "serialpos": 0, "key_press": -1, "wordID": 869, "type": "PRES_AUD", "trial_index": 89}, "uniqueid": "MTK2741:3VNXK88KKDP25ZA5CR6MAZBO6ODV96", "dateTime": 1519319348882}, {"current_trial": 90, "trialdata": {"rt": -1000, "trial_type": "single-audio", "word": "shoulder", "stimulus": "/static/audio/wordpool/SHOULDER.wav", "conditions": [24, 800, "a", 12000], "internal_node_id": "0.0-63.0", "trial": 2, "time_elapsed": 415965, "serialpos": 1, "key_press": -1, "wordID": 1293, "type": "PRES_AUD", "trial_index": 90}, "uniqueid": "MTK2741:3VNXK88KKDP25ZA5CR6MAZBO6ODV96", "dateTime": 1519319350813}, {"current_trial": 91, "trialdata": {"rt": -1000, "trial_type": "single-audio", "word": "barley", "stimulus": "/static/audio/wordpool/BARLEY.wav", "conditions": [24, 800, "a", 12000], "internal_node_id": "0.0-64.0", "trial": 2, "time_elapsed": 417747, "serialpos": 2, "key_press": -1, "wordID": 87, "type": "PRES_AUD", "trial_index": 91}, "uniqueid": "MTK2741:3VNXK88KKDP25ZA5CR6MAZBO6ODV96", "dateTime": 1519319352595}, {"current_trial": 92, "trialdata": {"rt": -1000, "trial_type": "single-audio", "word": "grape", "stimulus": "/static/audio/wordpool/GRAPE.wav", "conditions": [24, 800, "a", 12000], "internal_node_id": "0.0-65.0", "trial": 2, "time_elapsed": 419430, "serialpos": 3, "key_press": -1, "wordID": 653, "type": "PRES_AUD", "trial_index": 92}, "uniqueid": "MTK2741:3VNXK88KKDP25ZA5CR6MAZBO6ODV96", "dateTime": 1519319354278}, {"current_trial": 93, "trialdata": {"rt": -1000, "trial_type": "single-audio", "word": "trench", "stimulus": "/static/audio/wordpool/TRENCH.wav", "conditions": [24, 800, "a", 12000], "internal_node_id": "0.0-66.0", "trial": 2, "time_elapsed": 421155, "serialpos": 4, "key_press": -1, "wordID": 1502, "type": "PRES_AUD", "trial_index": 93}, "uniqueid": "MTK2741:3VNXK88KKDP25ZA5CR6MAZBO6ODV96", "dateTime": 1519319356003}, {"current_trial": 94, "trialdata": {"rt": -1000, "trial_type": "single-audio", "word": "bathtub", "stimulus": "/static/audio/wordpool/BATHTUB.wav", "conditions": [24, 800, "a", 12000], "internal_node_id": "0.0-67.0", "trial": 2, "time_elapsed": 423099, "serialpos": 5, "key_press": -1, "wordID": 99, "type": "PRES_AUD", "trial_index": 94}, "uniqueid": "MTK2741:3VNXK88KKDP25ZA5CR6MAZBO6ODV96", "dateTime": 1519319357947}, {"current_trial": 95, "trialdata": {"rt": -1000, "trial_type": "single-audio", "word": "stone", "stimulus": "/static/audio/wordpool/STONE.wav", "conditions": [24, 800, "a", 12000], "internal_node_id": "0.0-68.0", "trial": 2, "time_elapsed": 424963, "serialpos": 6, "key_press": -1, "wordID": 1384, "type": "PRES_AUD", "trial_index": 95}, "uniqueid": "MTK2741:3VNXK88KKDP25ZA5CR6MAZBO6ODV96", "dateTime": 1519319359811}, {"current_trial": 96, "trialdata": {"rt": -1000, "trial_type": "single-audio", "word": "sketch", "stimulus": "/static/audio/wordpool/SKETCH.wav", "conditions": [24, 800, "a", 12000], "internal_node_id": "0.0-69.0", "trial": 2, "time_elapsed": 426640, "serialpos": 7, "key_press": -1, "wordID": 1314, "type": "PRES_AUD", "trial_index": 96}, "uniqueid": "MTK2741:3VNXK88KKDP25ZA5CR6MAZBO6ODV96", "dateTime": 1519319361488}, {"current_trial": 97, "trialdata": {"rt": -1000, "trial_type": "single-audio", "word": "elbow", "stimulus": "/static/audio/wordpool/ELBOW.wav", "conditions": [24, 800, "a", 12000], "internal_node_id": "0.0-70.0", "trial": 2, "time_elapsed": 428376, "serialpos": 8, "key_press": -1, "wordID": 519, "type": "PRES_AUD", "trial_index": 97}, "uniqueid": "MTK2741:3VNXK88KKDP25ZA5CR6MAZBO6ODV96", "dateTime": 1519319363224}, {"current_trial": 98, "trialdata": {"rt": -1000, "trial_type": "single-audio", "word": "camel", "stimulus": "/static/audio/wordpool/CAMEL.wav", "conditions": [24, 800, "a", 12000], "internal_node_id": "0.0-71.0", "trial": 2, "time_elapsed": 430344, "serialpos": 9, "key_press": -1, "wordID": 222, "type": "PRES_AUD", "trial_index": 98}, "uniqueid": "MTK2741:3VNXK88KKDP25ZA5CR6MAZBO6ODV96", "dateTime": 1519319365192}, {"current_trial": 99, "trialdata": {"rt": -1000, "trial_type": "single-audio", "word": "island", "stimulus": "/static/audio/wordpool/ISLAND.wav", "conditions": [24, 800, "a", 12000], "internal_node_id": "0.0-72.0", "trial": 2, "time_elapsed": 432237, "serialpos": 10, "key_press": -1, "wordID": 744, "type": "PRES_AUD", "trial_index": 99}, "uniqueid": "MTK2741:3VNXK88KKDP25ZA5CR6MAZBO6ODV96", "dateTime": 1519319367085}, {"current_trial": 100, "trialdata": {"rt": -1000, "trial_type": "single-audio", "word": "pastry", "stimulus": "/static/audio/wordpool/PASTRY.wav", "conditions": [24, 800, "a", 12000], "internal_node_id": "0.0-73.0", "trial": 2, "time_elapsed": 433949, "serialpos": 11, "key_press": -1, "wordID": 1021, "type": "PRES_AUD", "trial_index": 100}, "uniqueid": "MTK2741:3VNXK88KKDP25ZA5CR6MAZBO6ODV96", "dateTime": 1519319368797}, {"current_trial": 101, "trialdata": {"rt": -1000, "trial_type": "single-audio", "word": "rug", "stimulus": "/static/audio/wordpool/RUG.wav", "conditions": [24, 800, "a", 12000], "internal_node_id": "0.0-74.0", "trial": 2, "time_elapsed": 435795, "serialpos": 12, "key_press": -1, "wordID": 1214, "type": "PRES_AUD", "trial_index": 101}, "uniqueid": "MTK2741:3VNXK88KKDP25ZA5CR6MAZBO6ODV96", "dateTime": 1519319370643}, {"current_trial": 102, "trialdata": {"rt": -1000, "trial_type": "single-audio", "word": "europe", "stimulus": "/static/audio/wordpool/EUROPE.wav", "conditions": [24, 800, "a", 12000], "internal_node_id": "0.0-75.0", "trial": 2, "time_elapsed": 437605, "serialpos": 13, "key_press": -1, "wordID": 540, "type": "PRES_AUD", "trial_index": 102}, "uniqueid": "MTK2741:3VNXK88KKDP25ZA5CR6MAZBO6ODV96", "dateTime": 1519319372454}, {"current_trial": 103, "trialdata": {"rt": -1000, "trial_type": "single-audio", "word": "pocket", "stimulus": "/static/audio/wordpool/POCKET.wav", "conditions": [24, 800, "a", 12000], "internal_node_id": "0.0-76.0", "trial": 2, "time_elapsed": 439326, "serialpos": 14, "key_press": -1, "wordID": 1092, "type": "PRES_AUD", "trial_index": 103}, "uniqueid": "MTK2741:3VNXK88KKDP25ZA5CR6MAZBO6ODV96", "dateTime": 1519319374174}, {"current_trial": 104, "trialdata": {"rt": -1000, "trial_type": "single-audio", "word": "thread", "stimulus": "/static/audio/wordpool/THREAD.wav", "conditions": [24, 800, "a", 12000], "internal_node_id": "0.0-77.0", "trial": 2, "time_elapsed": 441010, "serialpos": 15, "key_press": -1, "wordID": 1459, "type": "PRES_AUD", "trial_index": 104}, "uniqueid": "MTK2741:3VNXK88KKDP25ZA5CR6MAZBO6ODV96", "dateTime": 1519319375858}, {"current_trial": 105, "trialdata": {"rt": -1000, "trial_type": "single-audio", "word": "bison", "stimulus": "/static/audio/wordpool/BISON.wav", "conditions": [24, 800, "a", 12000], "internal_node_id": "0.0-78.0", "trial": 2, "time_elapsed": 442906, "serialpos": 16, "key_press": -1, "wordID": 130, "type": "PRES_AUD", "trial_index": 105}, "uniqueid": "MTK2741:3VNXK88KKDP25ZA5CR6MAZBO6ODV96", "dateTime": 1519319377754}, {"current_trial": 106, "trialdata": {"rt": -1000, "trial_type": "single-audio", "word": "cattle", "stimulus": "/static/audio/wordpool/CATTLE.wav", "conditions": [24, 800, "a", 12000], "internal_node_id": "0.0-79.0", "trial": 2, "time_elapsed": 444862, "serialpos": 17, "key_press": -1, "wordID": 260, "type": "PRES_AUD", "trial_index": 106}, "uniqueid": "MTK2741:3VNXK88KKDP25ZA5CR6MAZBO6ODV96", "dateTime": 1519319379710}, {"current_trial": 107, "trialdata": {"rt": -1000, "trial_type": "single-audio", "word": "driver", "stimulus": "/static/audio/wordpool/DRIVER.wav", "conditions": [24, 800, "a", 12000], "internal_node_id": "0.0-80.0", "trial": 2, "time_elapsed": 446796, "serialpos": 18, "key_press": -1, "wordID": 498, "type": "PRES_AUD", "trial_index": 107}, "uniqueid": "MTK2741:3VNXK88KKDP25ZA5CR6MAZBO6ODV96", "dateTime": 1519319381644}, {"current_trial": 108, "trialdata": {"rt": -1000, "trial_type": "single-audio", "word": "drawing", "stimulus": "/static/audio/wordpool/DRAWING.wav", "conditions": [24, 800, "a", 12000], "internal_node_id": "0.0-81.0", "trial": 2, "time_elapsed": 448723, "serialpos": 19, "key_press": -1, "wordID": 493, "type": "PRES_AUD", "trial_index": 108}, "uniqueid": "MTK2741:3VNXK88KKDP25ZA5CR6MAZBO6ODV96", "dateTime": 1519319383571}, {"current_trial": 109, "trialdata": {"rt": -1000, "trial_type": "single-audio", "word": "asia", "stimulus": "/static/audio/wordpool/ASIA.wav", "conditions": [24, 800, "a", 12000], "internal_node_id": "0.0-82.0", "trial": 2, "time_elapsed": 450534, "serialpos": 20, "key_press": -1, "wordID": 45, "type": "PRES_AUD", "trial_index": 109}, "uniqueid": "MTK2741:3VNXK88KKDP25ZA5CR6MAZBO6ODV96", "dateTime": 1519319385382}, {"current_trial": 110, "trialdata": {"rt": -1000, "trial_type": "single-audio", "word": "nurse", "stimulus": "/static/audio/wordpool/NURSE.wav", "conditions": [24, 800, "a", 12000], "internal_node_id": "0.0-83.0", "trial": 2, "time_elapsed": 452537, "serialpos": 21, "key_press": -1, "wordID": 962, "type": "PRES_AUD", "trial_index": 110}, "uniqueid": "MTK2741:3VNXK88KKDP25ZA5CR6MAZBO6ODV96", "dateTime": 1519319387385}, {"current_trial": 111, "trialdata": {"rt": -1000, "trial_type": "single-audio", "word": "tart", "stimulus": "/static/audio/wordpool/TART.wav", "conditions": [24, 800, "a", 12000], "internal_node_id": "0.0-84.0", "trial": 2, "time_elapsed": 454259, "serialpos": 22, "key_press": -1, "wordID": 1435, "type": "PRES_AUD", "trial_index": 111}, "uniqueid": "MTK2741:3VNXK88KKDP25ZA5CR6MAZBO6ODV96", "dateTime": 1519319389107}, {"current_trial": 112, "trialdata": {"rt": -1000, "trial_type": "single-audio", "word": "sandwich", "stimulus": "/static/audio/wordpool/SANDWICH.wav", "conditions": [24, 800, "a", 12000], "internal_node_id": "0.0-85.0", "trial": 2, "time_elapsed": 456134, "serialpos": 23, "key_press": -1, "wordID": 1231, "type": "PRES_AUD", "trial_index": 112}, "uniqueid": "MTK2741:3VNXK88KKDP25ZA5CR6MAZBO6ODV96", "dateTime": 1519319390982}, {"current_trial": 113, "trialdata": {"rt": -1, "trial_type": "single-stim", "stimulus": "", "internal_node_id": "0.0-86.0-0.0", "time_elapsed": 457402, "key_press": -1, "type": "PRE_RECALL_DELAY", "trial_index": 113}, "uniqueid": "MTK2741:3VNXK88KKDP25ZA5CR6MAZBO6ODV96", "dateTime": 1519319392250}, {"current_trial": 114, "trialdata": {"rt": -1000, "trial_type": "single-audio", "stimulus": "/static/audio/400Hz.wav", "internal_node_id": "0.0-87.0", "time_elapsed": 457903, "key_press": -1, "type": "PRE_RECALL_ALERT", "trial_index": 114}, "uniqueid": "MTK2741:3VNXK88KKDP25ZA5CR6MAZBO6ODV96", "dateTime": 1519319392751}, {"current_trial": 115, "trialdata": {"rt": [4318, 6140, 7427, 10117, 11281], "recwords": ["tarte", "pastry", "asia", "sandwich", "europe"], "key_times": [1213, 1338, 1654, 1763, 2311, 4318, 4902, 4993, 5050, 5260, 5464, 5607, 6140, 6457, 6518, 6675, 6777, 7427, 8401, 8505, 8641, 8775, 8965, 9069, 9220, 9300, 10117, 10377, 10540, 10636, 10795, 10915, 11051, 11281], "trial_type": "free-recall", "conditions": [24, 800, "a", 12000], "internal_node_id": "0.0-88.0-0.0", "key_presses": [84, 65, 82, 84, 69, 13, 80, 65, 83, 84, 82, 89, 13, 65, 83, 73, 65, 13, 83, 65, 78, 68, 87, 73, 67, 72, 13, 69, 85, 82, 79, 80, 69, 13], "trial": 2, "time_elapsed": 517910, "type": "FREE_RECALL", "trial_index": 115}, "uniqueid": "MTK2741:3VNXK88KKDP25ZA5CR6MAZBO6ODV96", "dateTime": 1519319452760}, {"current_trial": 116, "trialdata": {"rt": 3999, "trial_type": "text", "internal_node_id": "0.0-89.0", "time_elapsed": 523917, "key_press": 32, "type": "INSTRUCTIONS", "trial_index": 116}, "uniqueid": "MTK2741:3VNXK88KKDP25ZA5CR6MAZBO6ODV96", "dateTime": 1519319458765}, {"current_trial": 117, "trialdata": {"rt": [7305, 12797, 16577, 18519, 22698], "trial_type": "math-distractor", "key_times": [5992, 6176, 7305, 12391, 12480, 12797, 16307, 16429, 16577, 18177, 18389, 18519, 21925, 21993, 22698], "responses": ["13", "19", "22", "16", "12"], "num2": [6, 7, 5, 8, 3, 9], "num3": [1, 4, 8, 1, 4, 6], "conditions": [24, 1600, "a", 24000], "internal_node_id": "0.0-90.0", "key_presses": [49, 51, 13, 49, 57, 13, 50, 50, 13, 49, 54, 13, 49, 50, 13], "trial": 3, "time_elapsed": 549925, "type": "DISTRACTOR", "trial_index": 117, "num1": [6, 8, 9, 7, 5, 9]}, "uniqueid": "MTK2741:3VNXK88KKDP25ZA5CR6MAZBO6ODV96", "dateTime": 1519319484773}, {"current_trial": 118, "trialdata": {"rt": -1, "trial_type": "single-stim", "stimulus": "<p id=\"stim\">10</p>", "internal_node_id": "0.0-91.0-0.0", "time_elapsed": 552931, "key_press": -1, "trial_index": 118}, "uniqueid": "MTK2741:3VNXK88KKDP25ZA5CR6MAZBO6ODV96", "dateTime": 1519319487779}, {"current_trial": 119, "trialdata": {"rt": -1, "trial_type": "single-stim", "stimulus": "<p id=\"stim\">9</p>", "internal_node_id": "0.0-91.0-1.0", "time_elapsed": 553935, "key_press": -1, "trial_index": 119}, "uniqueid": "MTK2741:3VNXK88KKDP25ZA5CR6MAZBO6ODV96", "dateTime": 1519319488783}, {"current_trial": 120, "trialdata": {"rt": -1, "trial_type": "single-stim", "stimulus": "<p id=\"stim\">8</p>", "internal_node_id": "0.0-91.0-2.0", "time_elapsed": 554939, "key_press": -1, "trial_index": 120}, "uniqueid": "MTK2741:3VNXK88KKDP25ZA5CR6MAZBO6ODV96", "dateTime": 1519319489788}, {"current_trial": 121, "trialdata": {"rt": -1, "trial_type": "single-stim", "stimulus": "<p id=\"stim\">7</p>", "internal_node_id": "0.0-91.0-3.0", "time_elapsed": 555943, "key_press": -1, "trial_index": 121}, "uniqueid": "MTK2741:3VNXK88KKDP25ZA5CR6MAZBO6ODV96", "dateTime": 1519319490792}, {"current_trial": 122, "trialdata": {"rt": -1, "trial_type": "single-stim", "stimulus": "<p id=\"stim\">6</p>", "internal_node_id": "0.0-91.0-4.0", "time_elapsed": 556948, "key_press": -1, "trial_index": 122}, "uniqueid": "MTK2741:3VNXK88KKDP25ZA5CR6MAZBO6ODV96", "dateTime": 1519319491796}, {"current_trial": 123, "trialdata": {"rt": -1, "trial_type": "single-stim", "stimulus": "<p id=\"stim\">5</p>", "internal_node_id": "0.0-91.0-5.0", "time_elapsed": 557951, "key_press": -1, "trial_index": 123}, "uniqueid": "MTK2741:3VNXK88KKDP25ZA5CR6MAZBO6ODV96", "dateTime": 1519319492799}, {"current_trial": 124, "trialdata": {"rt": -1, "trial_type": "single-stim", "stimulus": "<p id=\"stim\">4</p>", "internal_node_id": "0.0-91.0-6.0", "time_elapsed": 558955, "key_press": -1, "trial_index": 124}, "uniqueid": "MTK2741:3VNXK88KKDP25ZA5CR6MAZBO6ODV96", "dateTime": 1519319493803}, {"current_trial": 125, "trialdata": {"rt": -1, "trial_type": "single-stim", "stimulus": "<p id=\"stim\">3</p>", "internal_node_id": "0.0-91.0-7.0", "time_elapsed": 559959, "key_press": -1, "trial_index": 125}, "uniqueid": "MTK2741:3VNXK88KKDP25ZA5CR6MAZBO6ODV96", "dateTime": 1519319494807}, {"current_trial": 126, "trialdata": {"rt": -1, "trial_type": "single-stim", "stimulus": "<p id=\"stim\">2</p>", "internal_node_id": "0.0-91.0-8.0", "time_elapsed": 560964, "key_press": -1, "trial_index": 126}, "uniqueid": "MTK2741:3VNXK88KKDP25ZA5CR6MAZBO6ODV96", "dateTime": 1519319495812}, {"current_trial": 127, "trialdata": {"rt": -1, "trial_type": "single-stim", "stimulus": "<p id=\"stim\">1</p>", "internal_node_id": "0.0-91.0-9.0", "time_elapsed": 561968, "key_press": -1, "trial_index": 127}, "uniqueid": "MTK2741:3VNXK88KKDP25ZA5CR6MAZBO6ODV96", "dateTime": 1519319496816}, {"current_trial": 128, "trialdata": {"rt": -1, "trial_type": "single-stim", "stimulus": "<p id=\"stim\">+</p>", "internal_node_id": "0.0-92.0-0.0", "time_elapsed": 563471, "key_press": -1, "type": "FIXATION", "trial_index": 128}, "uniqueid": "MTK2741:3VNXK88KKDP25ZA5CR6MAZBO6ODV96", "dateTime": 1519319498319}, {"current_trial": 129, "trialdata": {"rt": -1000, "trial_type": "single-audio", "word": "child", "stimulus": "/static/audio/wordpool/CHILD.wav", "conditions": [24, 1600, "a", 24000], "internal_node_id": "0.0-93.0", "trial": 3, "time_elapsed": 566083, "serialpos": 0, "key_press": -1, "wordID": 298, "type": "PRES_AUD", "trial_index": 129}, "uniqueid": "MTK2741:3VNXK88KKDP25ZA5CR6MAZBO6ODV96", "dateTime": 1519319500931}, {"current_trial": 130, "trialdata": {"rt": -1000, "trial_type": "single-audio", "word": "peach", "stimulus": "/static/audio/wordpool/PEACH.wav", "conditions": [24, 1600, "a", 24000], "internal_node_id": "0.0-94.0", "trial": 3, "time_elapsed": 568875, "serialpos": 1, "key_press": -1, "wordID": 1030, "type": "PRES_AUD", "trial_index": 130}, "uniqueid": "MTK2741:3VNXK88KKDP25ZA5CR6MAZBO6ODV96", "dateTime": 1519319503723}, {"current_trial": 131, "trialdata": {"rt": -1000, "trial_type": "single-audio", "word": "badge", "stimulus": "/static/audio/wordpool/BADGE.wav", "conditions": [24, 1600, "a", 24000], "internal_node_id": "0.0-95.0", "trial": 3, "time_elapsed": 571366, "serialpos": 2, "key_press": -1, "wordID": 67, "type": "PRES_AUD", "trial_index": 131}, "uniqueid": "MTK2741:3VNXK88KKDP25ZA5CR6MAZBO6ODV96", "dateTime": 1519319506214}, {"current_trial": 132, "trialdata": {"rt": -1000, "trial_type": "single-audio", "word": "sticker", "stimulus": "/static/audio/wordpool/STICKER.wav", "conditions": [24, 1600, "a", 24000], "internal_node_id": "0.0-96.0", "trial": 3, "time_elapsed": 573949, "serialpos": 3, "key_press": -1, "wordID": 1381, "type": "PRES_AUD", "trial_index": 132}, "uniqueid": "MTK2741:3VNXK88KKDP25ZA5CR6MAZBO6ODV96", "dateTime": 1519319508797}, {"current_trial": 133, "trialdata": {"rt": -1000, "trial_type": "single-audio", "word": "flag", "stimulus": "/static/audio/wordpool/FLAG.wav", "conditions": [24, 1600, "a", 24000], "internal_node_id": "0.0-97.0", "trial": 3, "time_elapsed": 576457, "serialpos": 4, "key_press": -1, "wordID": 572, "type": "PRES_AUD", "trial_index": 133}, "uniqueid": "MTK2741:3VNXK88KKDP25ZA5CR6MAZBO6ODV96", "dateTime": 1519319511305}, {"current_trial": 134, "trialdata": {"rt": -1000, "trial_type": "single-audio", "word": "mask", "stimulus": "/static/audio/wordpool/MASK.wav", "conditions": [24, 1600, "a", 24000], "internal_node_id": "0.0-98.0", "trial": 3, "time_elapsed": 579006, "serialpos": 5, "key_press": -1, "wordID": 875, "type": "PRES_AUD", "trial_index": 134}, "uniqueid": "MTK2741:3VNXK88KKDP25ZA5CR6MAZBO6ODV96", "dateTime": 1519319513854}, {"current_trial": 135, "trialdata": {"rt": -1000, "trial_type": "single-audio", "word": "ox", "stimulus": "/static/audio/wordpool/OX.wav", "conditions": [24, 1600, "a", 24000], "internal_node_id": "0.0-99.0", "trial": 3, "time_elapsed": 581559, "serialpos": 6, "key_press": -1, "wordID": 993, "type": "PRES_AUD", "trial_index": 135}, "uniqueid": "MTK2741:3VNXK88KKDP25ZA5CR6MAZBO6ODV96", "dateTime": 1519319516407}, {"current_trial": 136, "trialdata": {"rt": -1000, "trial_type": "single-audio", "word": "girl", "stimulus": "/static/audio/wordpool/GIRL.wav", "conditions": [24, 1600, "a", 24000], "internal_node_id": "0.0-100.0", "trial": 3, "time_elapsed": 584142, "serialpos": 7, "key_press": -1, "wordID": 636, "type": "PRES_AUD", "trial_index": 136}, "uniqueid": "MTK2741:3VNXK88KKDP25ZA5CR6MAZBO6ODV96", "dateTime": 1519319518991}, {"current_trial": 137, "trialdata": {"rt": -1000, "trial_type": "single-audio", "word": "garbage", "stimulus": "/static/audio/wordpool/GARBAGE.wav", "conditions": [24, 1600, "a", 24000], "internal_node_id": "0.0-101.0", "trial": 3, "time_elapsed": 586783, "serialpos": 8, "key_press": -1, "wordID": 621, "type": "PRES_AUD", "trial_index": 137}, "uniqueid": "MTK2741:3VNXK88KKDP25ZA5CR6MAZBO6ODV96", "dateTime": 1519319521631}, {"current_trial": 138, "trialdata": {"rt": -1000, "trial_type": "single-audio", "word": "yarn", "stimulus": "/static/audio/wordpool/YARN.wav", "conditions": [24, 1600, "a", 24000], "internal_node_id": "0.0-102.0", "trial": 3, "time_elapsed": 589285, "serialpos": 9, "key_press": -1, "wordID": 1630, "type": "PRES_AUD", "trial_index": 138}, "uniqueid": "MTK2741:3VNXK88KKDP25ZA5CR6MAZBO6ODV96", "dateTime": 1519319524133}, {"current_trial": 139, "trialdata": {"rt": -1000, "trial_type": "single-audio", "word": "climber", "stimulus": "/static/audio/wordpool/CLIMBER.wav", "conditions": [24, 1600, "a", 24000], "internal_node_id": "0.0-103.0", "trial": 3, "time_elapsed": 591788, "serialpos": 10, "key_press": -1, "wordID": 322, "type": "PRES_AUD", "trial_index": 139}, "uniqueid": "MTK2741:3VNXK88KKDP25ZA5CR6MAZBO6ODV96", "dateTime": 1519319526636}, {"current_trial": 140, "trialdata": {"rt": -1000, "trial_type": "single-audio", "word": "pork", "stimulus": "/static/audio/wordpool/PORK.wav", "conditions": [24, 1600, "a", 24000], "internal_node_id": "0.0-104.0", "trial": 3, "time_elapsed": 594400, "serialpos": 11, "key_press": -1, "wordID": 1107, "type": "PRES_AUD", "trial_index": 140}, "uniqueid": "MTK2741:3VNXK88KKDP25ZA5CR6MAZBO6ODV96", "dateTime": 1519319529248}, {"current_trial": 141, "trialdata": {"rt": -1000, "trial_type": "single-audio", "word": "brandy", "stimulus": "/static/audio/wordpool/BRANDY.wav", "conditions": [24, 1600, "a", 24000], "internal_node_id": "0.0-105.0", "trial": 3, "time_elapsed": 597128, "serialpos": 12, "key_press": -1, "wordID": 168, "type": "PRES_AUD", "trial_index": 141}, "uniqueid": "MTK2741:3VNXK88KKDP25ZA5CR6MAZBO6ODV96", "dateTime": 1519319531976}, {"current_trial": 142, "trialdata": {"rt": -1000, "trial_type": "single-audio", "word": "shirt", "stimulus": "/static/audio/wordpool/SHIRT.wav", "conditions": [24, 1600, "a", 24000], "internal_node_id": "0.0-106.0", "trial": 3, "time_elapsed": 599636, "serialpos": 13, "key_press": -1, "wordID": 1286, "type": "PRES_AUD", "trial_index": 142}, "uniqueid": "MTK2741:3VNXK88KKDP25ZA5CR6MAZBO6ODV96", "dateTime": 1519319534484}, {"current_trial": 143, "trialdata": {"rt": -1000, "trial_type": "single-audio", "word": "passage", "stimulus": "/static/audio/wordpool/PASSAGE.wav", "conditions": [24, 1600, "a", 24000], "internal_node_id": "0.0-107.0", "trial": 3, "time_elapsed": 602190, "serialpos": 14, "key_press": -1, "wordID": 1018, "type": "PRES_AUD", "trial_index": 143}, "uniqueid": "MTK2741:3VNXK88KKDP25ZA5CR6MAZBO6ODV96", "dateTime": 1519319537038}, {"current_trial": 144, "trialdata": {"rt": -1000, "trial_type": "single-audio", "word": "diner", "stimulus": "/static/audio/wordpool/DINER.wav", "conditions": [24, 1600, "a", 24000], "internal_node_id": "0.0-108.0", "trial": 3, "time_elapsed": 604605, "serialpos": 15, "key_press": -1, "wordID": 466, "type": "PRES_AUD", "trial_index": 144}, "uniqueid": "MTK2741:3VNXK88KKDP25ZA5CR6MAZBO6ODV96", "dateTime": 1519319539453}, {"current_trial": 145, "trialdata": {"rt": -1000, "trial_type": "single-audio", "word": "waitress", "stimulus": "/static/audio/wordpool/WAITRESS.wav", "conditions": [24, 1600, "a", 24000], "internal_node_id": "0.0-109.0", "trial": 3, "time_elapsed": 607136, "serialpos": 16, "key_press": -1, "wordID": 1580, "type": "PRES_AUD", "trial_index": 145}, "uniqueid": "MTK2741:3VNXK88KKDP25ZA5CR6MAZBO6ODV96", "dateTime": 1519319541984}, {"current_trial": 146, "trialdata": {"rt": -1000, "trial_type": "single-audio", "word": "sidewalk", "stimulus": "/static/audio/wordpool/SIDEWALK.wav", "conditions": [24, 1600, "a", 24000], "internal_node_id": "0.0-110.0", "trial": 3, "time_elapsed": 609916, "serialpos": 17, "key_press": -1, "wordID": 1302, "type": "PRES_AUD", "trial_index": 146}, "uniqueid": "MTK2741:3VNXK88KKDP25ZA5CR6MAZBO6ODV96", "dateTime": 1519319544765}, {"current_trial": 147, "trialdata": {"rt": -1000, "trial_type": "single-audio", "word": "fiddle", "stimulus": "/static/audio/wordpool/FIDDLE.wav", "conditions": [24, 1600, "a", 24000], "internal_node_id": "0.0-111.0", "trial": 3, "time_elapsed": 612610, "serialpos": 18, "key_press": -1, "wordID": 560, "type": "PRES_AUD", "trial_index": 147}, "uniqueid": "MTK2741:3VNXK88KKDP25ZA5CR6MAZBO6ODV96", "dateTime": 1519319547458}, {"current_trial": 148, "trialdata": {"rt": -1000, "trial_type": "single-audio", "word": "gravel", "stimulus": "/static/audio/wordpool/GRAVEL.wav", "conditions": [24, 1600, "a", 24000], "internal_node_id": "0.0-112.0", "trial": 3, "time_elapsed": 615356, "serialpos": 19, "key_press": -1, "wordID": 658, "type": "PRES_AUD", "trial_index": 148}, "uniqueid": "MTK2741:3VNXK88KKDP25ZA5CR6MAZBO6ODV96", "dateTime": 1519319550204}, {"current_trial": 149, "trialdata": {"rt": -1000, "trial_type": "single-audio", "word": "headband", "stimulus": "/static/audio/wordpool/HEADBAND.wav", "conditions": [24, 1600, "a", 24000], "internal_node_id": "0.0-113.0", "trial": 3, "time_elapsed": 617892, "serialpos": 20, "key_press": -1, "wordID": 695, "type": "PRES_AUD", "trial_index": 149}, "uniqueid": "MTK2741:3VNXK88KKDP25ZA5CR6MAZBO6ODV96", "dateTime": 1519319552741}, {"current_trial": 150, "trialdata": {"rt": -1000, "trial_type": "single-audio", "word": "blouse", "stimulus": "/static/audio/wordpool/BLOUSE.wav", "conditions": [24, 1600, "a", 24000], "internal_node_id": "0.0-114.0", "trial": 3, "time_elapsed": 620409, "serialpos": 21, "key_press": -1, "wordID": 138, "type": "PRES_AUD", "trial_index": 150}, "uniqueid": "MTK2741:3VNXK88KKDP25ZA5CR6MAZBO6ODV96", "dateTime": 1519319555257}, {"current_trial": 151, "trialdata": {"rt": -1000, "trial_type": "single-audio", "word": "pluto", "stimulus": "/static/audio/wordpool/PLUTO.wav", "conditions": [24, 1600, "a", 24000], "internal_node_id": "0.0-115.0", "trial": 3, "time_elapsed": 623080, "serialpos": 22, "key_press": -1, "wordID": 1091, "type": "PRES_AUD", "trial_index": 151}, "uniqueid": "MTK2741:3VNXK88KKDP25ZA5CR6MAZBO6ODV96", "dateTime": 1519319557928}, {"current_trial": 152, "trialdata": {"rt": -1000, "trial_type": "single-audio", "word": "atom", "stimulus": "/static/audio/wordpool/ATOM.wav", "conditions": [24, 1600, "a", 24000], "internal_node_id": "0.0-116.0", "trial": 3, "time_elapsed": 625757, "serialpos": 23, "key_press": -1, "wordID": 54, "type": "PRES_AUD", "trial_index": 152}, "uniqueid": "MTK2741:3VNXK88KKDP25ZA5CR6MAZBO6ODV96", "dateTime": 1519319560605}, {"current_trial": 153, "trialdata": {"rt": -1, "trial_type": "single-stim", "stimulus": "", "internal_node_id": "0.0-117.0-0.0", "time_elapsed": 627129, "key_press": -1, "type": "PRE_RECALL_DELAY", "trial_index": 153}, "uniqueid": "MTK2741:3VNXK88KKDP25ZA5CR6MAZBO6ODV96", "dateTime": 1519319561977}, {"current_trial": 154, "trialdata": {"rt": -1000, "trial_type": "single-audio", "stimulus": "/static/audio/400Hz.wav", "internal_node_id": "0.0-118.0", "time_elapsed": 627630, "key_press": -1, "type": "PRE_RECALL_ALERT", "trial_index": 154}, "uniqueid": "MTK2741:3VNXK88KKDP25ZA5CR6MAZBO6ODV96", "dateTime": 1519319562478}, {"current_trial": 155, "trialdata": {"rt": [2668, 3725, 4874, 6926, 8337, 9426, 12713, 14761, 15822, 16673, 25200], "recwords": ["pluto", "atom", "fiddle", "mouse", "girl", "child", "brandy", "headband", "sticker", "ox", "passage"], "key_times": [784, 953, 1182, 1336, 2170, 2668, 3064, 3189, 3278, 3420, 3725, 3944, 4054, 4268, 4389, 4537, 4634, 4874, 5631, 5793, 5947, 6024, 6079, 6926, 7308, 7396, 7499, 7603, 8337, 8621, 8765, 8925, 9123, 9242, 9426, 10238, 10360, 10423, 10538, 10700, 11369, 11441, 11588, 12713, 13091, 13147, 13223, 13328, 13480, 13588, 13693, 13851, 14761, 14987, 15120, 15216, 15365, 15436, 15548, 15637, 15822, 16322, 16414, 16673, 23596, 23805, 23857, 24026, 24099, 24342, 24438, 25200], "trial_type": "free-recall", "conditions": [24, 1600, "a", 24000], "internal_node_id": "0.0-119.0-0.0", "key_presses": [80, 76, 85, 84, 79, 13, 65, 84, 79, 77, 13, 70, 73, 68, 68, 76, 69, 13, 77, 79, 85, 83, 69, 13, 71, 73, 82, 76, 13, 67, 72, 73, 76, 68, 13, 66, 82, 65, 78, 89, 8, 68, 89, 13, 72, 69, 65, 68, 66, 65, 78, 68, 13, 83, 84, 73, 67, 75, 69, 82, 13, 79, 88, 13, 80, 65, 83, 83, 65, 71, 69, 13], "trial": 3, "time_elapsed": 687637, "type": "FREE_RECALL", "trial_index": 155}, "uniqueid": "MTK2741:3VNXK88KKDP25ZA5CR6MAZBO6ODV96", "dateTime": 1519319622487}, {"current_trial": 156, "trialdata": {"rt": 1784, "trial_type": "text", "internal_node_id": "0.0-120.0", "time_elapsed": 691429, "key_press": 32, "type": "INSTRUCTIONS", "trial_index": 156}, "uniqueid": "MTK2741:3VNXK88KKDP25ZA5CR6MAZBO6ODV96", "dateTime": 1519319626278}, {"current_trial": 157, "trialdata": {"rt": [4496, 11800, 16682, 21716], "trial_type": "math-distractor", "key_times": [3767, 3821, 4496, 10288, 10665, 11800, 15878, 16325, 16682, 21064, 21320, 21716], "responses": ["13", "17", "19", "15"], "num2": [9, 2, 3, 3, 4], "num3": [3, 7, 9, 7, 8], "conditions": [12, 1600, "a", 24000], "internal_node_id": "0.0-121.0", "key_presses": [49, 51, 13, 49, 55, 13, 49, 57, 13, 49, 53, 13], "trial": 4, "time_elapsed": 717441, "type": "DISTRACTOR", "trial_index": 157, "num1": [2, 8, 7, 5, 7]}, "uniqueid": "MTK2741:3VNXK88KKDP25ZA5CR6MAZBO6ODV96", "dateTime": 1519319652289}, {"current_trial": 158, "trialdata": {"rt": -1, "trial_type": "single-stim", "stimulus": "<p id=\"stim\">10</p>", "internal_node_id": "0.0-122.0-0.0", "time_elapsed": 720447, "key_press": -1, "trial_index": 158}, "uniqueid": "MTK2741:3VNXK88KKDP25ZA5CR6MAZBO6ODV96", "dateTime": 1519319655295}, {"current_trial": 159, "trialdata": {"rt": -1, "trial_type": "single-stim", "stimulus": "<p id=\"stim\">9</p>", "internal_node_id": "0.0-122.0-1.0", "time_elapsed": 721450, "key_press": -1, "trial_index": 159}, "uniqueid": "MTK2741:3VNXK88KKDP25ZA5CR6MAZBO6ODV96", "dateTime": 1519319656299}, {"current_trial": 160, "trialdata": {"rt": -1, "trial_type": "single-stim", "stimulus": "<p id=\"stim\">8</p>", "internal_node_id": "0.0-122.0-2.0", "time_elapsed": 722455, "key_press": -1, "trial_index": 160}, "uniqueid": "MTK2741:3VNXK88KKDP25ZA5CR6MAZBO6ODV96", "dateTime": 1519319657303}, {"current_trial": 161, "trialdata": {"rt": -1, "trial_type": "single-stim", "stimulus": "<p id=\"stim\">7</p>", "internal_node_id": "0.0-122.0-3.0", "time_elapsed": 723459, "key_press": -1, "trial_index": 161}, "uniqueid": "MTK2741:3VNXK88KKDP25ZA5CR6MAZBO6ODV96", "dateTime": 1519319658307}, {"current_trial": 162, "trialdata": {"rt": -1, "trial_type": "single-stim", "stimulus": "<p id=\"stim\">6</p>", "internal_node_id": "0.0-122.0-4.0", "time_elapsed": 724463, "key_press": -1, "trial_index": 162}, "uniqueid": "MTK2741:3VNXK88KKDP25ZA5CR6MAZBO6ODV96", "dateTime": 1519319659312}, {"current_trial": 163, "trialdata": {"rt": -1, "trial_type": "single-stim", "stimulus": "<p id=\"stim\">5</p>", "internal_node_id": "0.0-122.0-5.0", "time_elapsed": 725468, "key_press": -1, "trial_index": 163}, "uniqueid": "MTK2741:3VNXK88KKDP25ZA5CR6MAZBO6ODV96", "dateTime": 1519319660316}, {"current_trial": 164, "trialdata": {"rt": -1, "trial_type": "single-stim", "stimulus": "<p id=\"stim\">4</p>", "internal_node_id": "0.0-122.0-6.0", "time_elapsed": 726471, "key_press": -1, "trial_index": 164}, "uniqueid": "MTK2741:3VNXK88KKDP25ZA5CR6MAZBO6ODV96", "dateTime": 1519319661320}, {"current_trial": 165, "trialdata": {"rt": -1, "trial_type": "single-stim", "stimulus": "<p id=\"stim\">3</p>", "internal_node_id": "0.0-122.0-7.0", "time_elapsed": 727475, "key_press": -1, "trial_index": 165}, "uniqueid": "MTK2741:3VNXK88KKDP25ZA5CR6MAZBO6ODV96", "dateTime": 1519319662323}, {"current_trial": 166, "trialdata": {"rt": -1, "trial_type": "single-stim", "stimulus": "<p id=\"stim\">2</p>", "internal_node_id": "0.0-122.0-8.0", "time_elapsed": 728479, "key_press": -1, "trial_index": 166}, "uniqueid": "MTK2741:3VNXK88KKDP25ZA5CR6MAZBO6ODV96", "dateTime": 1519319663328}, {"current_trial": 167, "trialdata": {"rt": -1, "trial_type": "single-stim", "stimulus": "<p id=\"stim\">1</p>", "internal_node_id": "0.0-122.0-9.0", "time_elapsed": 729483, "key_press": -1, "trial_index": 167}, "uniqueid": "MTK2741:3VNXK88KKDP25ZA5CR6MAZBO6ODV96", "dateTime": 1519319664332}, {"current_trial": 168, "trialdata": {"rt": -1, "trial_type": "single-stim", "stimulus": "<p id=\"stim\">+</p>", "internal_node_id": "0.0-123.0-0.0", "time_elapsed": 730987, "key_press": -1, "type": "FIXATION", "trial_index": 168}, "uniqueid": "MTK2741:3VNXK88KKDP25ZA5CR6MAZBO6ODV96", "dateTime": 1519319665835}, {"current_trial": 169, "trialdata": {"rt": -1000, "trial_type": "single-audio", "word": "citrus", "stimulus": "/static/audio/wordpool/CITRUS.wav", "conditions": [12, 1600, "a", 24000], "internal_node_id": "0.0-124.0", "trial": 4, "time_elapsed": 733759, "serialpos": 0, "key_press": -1, "wordID": 312, "type": "PRES_AUD", "trial_index": 169}, "uniqueid": "MTK2741:3VNXK88KKDP25ZA5CR6MAZBO6ODV96", "dateTime": 1519319668607}, {"current_trial": 170, "trialdata": {"rt": -1000, "trial_type": "single-audio", "word": "dashboard", "stimulus": "/static/audio/wordpool/DASHBOARD.wav", "conditions": [12, 1600, "a", 24000], "internal_node_id": "0.0-125.0", "trial": 4, "time_elapsed": 736435, "serialpos": 1, "key_press": -1, "wordID": 440, "type": "PRES_AUD", "trial_index": 170}, "uniqueid": "MTK2741:3VNXK88KKDP25ZA5CR6MAZBO6ODV96", "dateTime": 1519319671284}, {"current_trial": 171, "trialdata": {"rt": -1000, "trial_type": "single-audio", "word": "sunset", "stimulus": "/static/audio/wordpool/SUNSET.wav", "conditions": [12, 1600, "a", 24000], "internal_node_id": "0.0-126.0", "trial": 4, "time_elapsed": 739135, "serialpos": 2, "key_press": -1, "wordID": 1407, "type": "PRES_AUD", "trial_index": 171}, "uniqueid": "MTK2741:3VNXK88KKDP25ZA5CR6MAZBO6ODV96", "dateTime": 1519319673983}, {"current_trial": 172, "trialdata": {"rt": -1000, "trial_type": "single-audio", "word": "picnic", "stimulus": "/static/audio/wordpool/PICNIC.wav", "conditions": [12, 1600, "a", 24000], "internal_node_id": "0.0-127.0", "trial": 4, "time_elapsed": 741759, "serialpos": 3, "key_press": -1, "wordID": 1059, "type": "PRES_AUD", "trial_index": 172}, "uniqueid": "MTK2741:3VNXK88KKDP25ZA5CR6MAZBO6ODV96", "dateTime": 1519319676607}, {"current_trial": 173, "trialdata": {"rt": -1000, "trial_type": "single-audio", "word": "infant", "stimulus": "/static/audio/wordpool/INFANT.wav", "conditions": [12, 1600, "a", 24000], "internal_node_id": "0.0-128.0", "trial": 4, "time_elapsed": 744295, "serialpos": 4, "key_press": -1, "wordID": 736, "type": "PRES_AUD", "trial_index": 173}, "uniqueid": "MTK2741:3VNXK88KKDP25ZA5CR6MAZBO6ODV96", "dateTime": 1519319679143}, {"current_trial": 174, "trialdata": {"rt": -1000, "trial_type": "single-audio", "word": "cupboard", "stimulus": "/static/audio/wordpool/CUPBOARD.wav", "conditions": [12, 1600, "a", 24000], "internal_node_id": "0.0-129.0", "trial": 4, "time_elapsed": 746790, "serialpos": 5, "key_press": -1, "wordID": 424, "type": "PRES_AUD", "trial_index": 174}, "uniqueid": "MTK2741:3VNXK88KKDP25ZA5CR6MAZBO6ODV96", "dateTime": 1519319681638}, {"current_trial": 175, "trialdata": {"rt": -1000, "trial_type": "single-audio", "word": "gangster", "stimulus": "/static/audio/wordpool/GANGSTER.wav", "conditions": [12, 1600, "a", 24000], "internal_node_id": "0.0-130.0", "trial": 4, "time_elapsed": 749572, "serialpos": 6, "key_press": -1, "wordID": 619, "type": "PRES_AUD", "trial_index": 175}, "uniqueid": "MTK2741:3VNXK88KKDP25ZA5CR6MAZBO6ODV96", "dateTime": 1519319684421}, {"current_trial": 176, "trialdata": {"rt": -1000, "trial_type": "single-audio", "word": "pecan", "stimulus": "/static/audio/wordpool/PECAN.wav", "conditions": [12, 1600, "a", 24000], "internal_node_id": "0.0-131.0", "trial": 4, "time_elapsed": 752132, "serialpos": 7, "key_press": -1, "wordID": 1035, "type": "PRES_AUD", "trial_index": 176}, "uniqueid": "MTK2741:3VNXK88KKDP25ZA5CR6MAZBO6ODV96", "dateTime": 1519319686980}, {"current_trial": 177, "trialdata": {"rt": -1000, "trial_type": "single-audio", "word": "frame", "stimulus": "/static/audio/wordpool/FRAME.wav", "conditions": [12, 1600, "a", 24000], "internal_node_id": "0.0-132.0", "trial": 4, "time_elapsed": 754704, "serialpos": 8, "key_press": -1, "wordID": 599, "type": "PRES_AUD", "trial_index": 177}, "uniqueid": "MTK2741:3VNXK88KKDP25ZA5CR6MAZBO6ODV96", "dateTime": 1519319689552}, {"current_trial": 178, "trialdata": {"rt": -1000, "trial_type": "single-audio", "word": "guitar", "stimulus": "/static/audio/wordpool/GUITAR.wav", "conditions": [12, 1600, "a", 24000], "internal_node_id": "0.0-133.0", "trial": 4, "time_elapsed": 757420, "serialpos": 9, "key_press": -1, "wordID": 669, "type": "PRES_AUD", "trial_index": 178}, "uniqueid": "MTK2741:3VNXK88KKDP25ZA5CR6MAZBO6ODV96", "dateTime": 1519319692268}, {"current_trial": 179, "trialdata": {"rt": -1000, "trial_type": "single-audio", "word": "banjo", "stimulus": "/static/audio/wordpool/BANJO.wav", "conditions": [12, 1600, "a", 24000], "internal_node_id": "0.0-134.0", "trial": 4, "time_elapsed": 759876, "serialpos": 10, "key_press": -1, "wordID": 81, "type": "PRES_AUD", "trial_index": 179}, "uniqueid": "MTK2741:3VNXK88KKDP25ZA5CR6MAZBO6ODV96", "dateTime": 1519319694724}, {"current_trial": 180, "trialdata": {"rt": -1000, "trial_type": "single-audio", "word": "shelf", "stimulus": "/static/audio/wordpool/SHELF.wav", "conditions": [12, 1600, "a", 24000], "internal_node_id": "0.0-135.0", "trial": 4, "time_elapsed": 762645, "serialpos": 11, "key_press": -1, "wordID": 1279, "type": "PRES_AUD", "trial_index": 180}, "uniqueid": "MTK2741:3VNXK88KKDP25ZA5CR6MAZBO6ODV96", "dateTime": 1519319697494}, {"current_trial": 181, "trialdata": {"rt": -1, "trial_type": "single-stim", "stimulus": "", "internal_node_id": "0.0-136.0-0.0", "time_elapsed": 763891, "key_press": -1, "type": "PRE_RECALL_DELAY", "trial_index": 181}, "uniqueid": "MTK2741:3VNXK88KKDP25ZA5CR6MAZBO6ODV96", "dateTime": 1519319698739}, {"current_trial": 182, "trialdata": {"rt": -1000, "trial_type": "single-audio", "stimulus": "/static/audio/400Hz.wav", "internal_node_id": "0.0-137.0", "time_elapsed": 764393, "key_press": -1, "type": "PRE_RECALL_ALERT", "trial_index": 182}, "uniqueid": "MTK2741:3VNXK88KKDP25ZA5CR6MAZBO6ODV96", "dateTime": 1519319699241}, {"current_trial": 183, "trialdata": {"rt": [3413, 6419, 9066, 12692, 16846, 21101, 29111], "recwords": ["shelf", "citrus", "guitar", "banjo", "shelf", "cupboard", "gangster"], "key_times": [1117, 1577, 1895, 2419, 2876, 3413, 3961, 4586, 5138, 5262, 5636, 5903, 6419, 6866, 7123, 7263, 7623, 7897, 8146, 9066, 9508, 9825, 10359, 10607, 10763, 11520, 11825, 12692, 14114, 14422, 14707, 15127, 15432, 16846, 17658, 18047, 18332, 18683, 18898, 19296, 19510, 20125, 21101, 26731, 27001, 27529, 27795, 28059, 28347, 28584, 28695, 29111], "trial_type": "free-recall", "conditions": [12, 1600, "a", 24000], "internal_node_id": "0.0-138.0-0.0", "key_presses": [83, 72, 69, 76, 70, 13, 67, 73, 84, 82, 85, 83, 13, 71, 85, 73, 84, 65, 82, 13, 66, 65, 78, 74, 73, 8, 79, 13, 83, 72, 69, 76, 70, 13, 67, 85, 80, 66, 79, 65, 82, 68, 13, 71, 65, 78, 71, 83, 84, 69, 82, 13], "trial": 4, "time_elapsed": 824396, "type": "FREE_RECALL", "trial_index": 183}, "uniqueid": "MTK2741:3VNXK88KKDP25ZA5CR6MAZBO6ODV96", "dateTime": 1519319759248}, {"current_trial": 184, "trialdata": {"rt": 1622, "trial_type": "text", "internal_node_id": "0.0-139.0", "time_elapsed": 828027, "key_press": 32, "type": "INSTRUCTIONS", "trial_index": 184}, "uniqueid": "MTK2741:3VNXK88KKDP25ZA5CR6MAZBO6ODV96", "dateTime": 1519319762875}, {"current_trial": 185, "trialdata": {"rt": [3273, 5802, 10919, 14180, 18084, 21471], "trial_type": "math-distractor", "key_times": [2415, 2563, 3273, 4617, 5363, 5802, 10505, 10624, 10919, 13783, 13915, 14180, 17796, 17868, 18084, 21183, 21291, 21471], "responses": ["11", "15", "13", "17", "20", "13"], "num2": [9, 7, 4, 5, 7, 6, 4], "num3": [1, 7, 6, 6, 5, 3, 6], "conditions": [24, 1600, "a", 24000], "internal_node_id": "0.0-140.0", "key_presses": [49, 49, 13, 49, 53, 13, 49, 51, 13, 49, 55, 13, 50, 48, 13, 49, 51, 13], "trial": 5, "time_elapsed": 854031, "type": "DISTRACTOR", "trial_index": 185, "num1": [3, 1, 3, 6, 8, 4, 5]}, "uniqueid": "MTK2741:3VNXK88KKDP25ZA5CR6MAZBO6ODV96", "dateTime": 1519319788880}, {"current_trial": 186, "trialdata": {"rt": -1, "trial_type": "single-stim", "stimulus": "<p id=\"stim\">10</p>", "internal_node_id": "0.0-141.0-0.0", "time_elapsed": 857035, "key_press": -1, "trial_index": 186}, "uniqueid": "MTK2741:3VNXK88KKDP25ZA5CR6MAZBO6ODV96", "dateTime": 1519319791883}, {"current_trial": 187, "trialdata": {"rt": -1, "trial_type": "single-stim", "stimulus": "<p id=\"stim\">9</p>", "internal_node_id": "0.0-141.0-1.0", "time_elapsed": 858036, "key_press": -1, "trial_index": 187}, "uniqueid": "MTK2741:3VNXK88KKDP25ZA5CR6MAZBO6ODV96", "dateTime": 1519319792884}, {"current_trial": 188, "trialdata": {"rt": -1, "trial_type": "single-stim", "stimulus": "<p id=\"stim\">8</p>", "internal_node_id": "0.0-141.0-2.0", "time_elapsed": 859038, "key_press": -1, "trial_index": 188}, "uniqueid": "MTK2741:3VNXK88KKDP25ZA5CR6MAZBO6ODV96", "dateTime": 1519319793886}, {"current_trial": 189, "trialdata": {"rt": -1, "trial_type": "single-stim", "stimulus": "<p id=\"stim\">7</p>", "internal_node_id": "0.0-141.0-3.0", "time_elapsed": 860041, "key_press": -1, "trial_index": 189}, "uniqueid": "MTK2741:3VNXK88KKDP25ZA5CR6MAZBO6ODV96", "dateTime": 1519319794889}, {"current_trial": 190, "trialdata": {"rt": -1, "trial_type": "single-stim", "stimulus": "<p id=\"stim\">6</p>", "internal_node_id": "0.0-141.0-4.0", "time_elapsed": 861044, "key_press": -1, "trial_index": 190}, "uniqueid": "MTK2741:3VNXK88KKDP25ZA5CR6MAZBO6ODV96", "dateTime": 1519319795893}, {"current_trial": 191, "trialdata": {"rt": -1, "trial_type": "single-stim", "stimulus": "<p id=\"stim\">5</p>", "internal_node_id": "0.0-141.0-5.0", "time_elapsed": 862046, "key_press": -1, "trial_index": 191}, "uniqueid": "MTK2741:3VNXK88KKDP25ZA5CR6MAZBO6ODV96", "dateTime": 1519319796894}, {"current_trial": 192, "trialdata": {"rt": -1, "trial_type": "single-stim", "stimulus": "<p id=\"stim\">4</p>", "internal_node_id": "0.0-141.0-6.0", "time_elapsed": 863049, "key_press": -1, "trial_index": 192}, "uniqueid": "MTK2741:3VNXK88KKDP25ZA5CR6MAZBO6ODV96", "dateTime": 1519319797897}, {"current_trial": 193, "trialdata": {"rt": -1, "trial_type": "single-stim", "stimulus": "<p id=\"stim\">3</p>", "internal_node_id": "0.0-141.0-7.0", "time_elapsed": 864052, "key_press": -1, "trial_index": 193}, "uniqueid": "MTK2741:3VNXK88KKDP25ZA5CR6MAZBO6ODV96", "dateTime": 1519319798900}, {"current_trial": 194, "trialdata": {"rt": -1, "trial_type": "single-stim", "stimulus": "<p id=\"stim\">2</p>", "internal_node_id": "0.0-141.0-8.0", "time_elapsed": 865055, "key_press": -1, "trial_index": 194}, "uniqueid": "MTK2741:3VNXK88KKDP25ZA5CR6MAZBO6ODV96", "dateTime": 1519319799903}, {"current_trial": 195, "trialdata": {"rt": -1, "trial_type": "single-stim", "stimulus": "<p id=\"stim\">1</p>", "internal_node_id": "0.0-141.0-9.0", "time_elapsed": 866057, "key_press": -1, "trial_index": 195}, "uniqueid": "MTK2741:3VNXK88KKDP25ZA5CR6MAZBO6ODV96", "dateTime": 1519319800906}, {"current_trial": 196, "trialdata": {"rt": -1, "trial_type": "single-stim", "stimulus": "<p id=\"stim\">+</p>", "internal_node_id": "0.0-142.0-0.0", "time_elapsed": 867561, "key_press": -1, "type": "FIXATION", "trial_index": 196}, "uniqueid": "MTK2741:3VNXK88KKDP25ZA5CR6MAZBO6ODV96", "dateTime": 1519319802409}, {"current_trial": 197, "trialdata": {"rt": -1000, "trial_type": "single-audio", "word": "mustard", "stimulus": "/static/audio/wordpool/MUSTARD.wav", "conditions": [24, 1600, "a", 24000], "internal_node_id": "0.0-143.0", "trial": 5, "time_elapsed": 870114, "serialpos": 0, "key_press": -1, "wordID": 934, "type": "PRES_AUD", "trial_index": 197}, "uniqueid": "MTK2741:3VNXK88KKDP25ZA5CR6MAZBO6ODV96", "dateTime": 1519319804962}, {"current_trial": 198, "trialdata": {"rt": -1000, "trial_type": "single-audio", "word": "fruit", "stimulus": "/static/audio/wordpool/FRUIT.wav", "conditions": [24, 1600, "a", 24000], "internal_node_id": "0.0-144.0", "trial": 5, "time_elapsed": 872621, "serialpos": 1, "key_press": -1, "wordID": 609, "type": "PRES_AUD", "trial_index": 198}, "uniqueid": "MTK2741:3VNXK88KKDP25ZA5CR6MAZBO6ODV96", "dateTime": 1519319807470}, {"current_trial": 199, "trialdata": {"rt": -1000, "trial_type": "single-audio", "word": "mattress", "stimulus": "/static/audio/wordpool/MATTRESS.wav", "conditions": [24, 1600, "a", 24000], "internal_node_id": "0.0-145.0", "trial": 5, "time_elapsed": 875193, "serialpos": 2, "key_press": -1, "wordID": 878, "type": "PRES_AUD", "trial_index": 199}, "uniqueid": "MTK2741:3VNXK88KKDP25ZA5CR6MAZBO6ODV96", "dateTime": 1519319810041}, {"current_trial": 200, "trialdata": {"rt": -1000, "trial_type": "single-audio", "word": "couch", "stimulus": "/static/audio/wordpool/COUCH.wav", "conditions": [24, 1600, "a", 24000], "internal_node_id": "0.0-146.0", "trial": 5, "time_elapsed": 877886, "serialpos": 3, "key_press": -1, "wordID": 385, "type": "PRES_AUD", "trial_index": 200}, "uniqueid": "MTK2741:3VNXK88KKDP25ZA5CR6MAZBO6ODV96", "dateTime": 1519319812734}, {"current_trial": 201, "trialdata": {"rt": -1000, "trial_type": "single-audio", "word": "toaster", "stimulus": "/static/audio/wordpool/TOASTER.wav", "conditions": [24, 1600, "a", 24000], "internal_node_id": "0.0-147.0", "trial": 5, "time_elapsed": 880301, "serialpos": 4, "key_press": -1, "wordID": 1471, "type": "PRES_AUD", "trial_index": 201}, "uniqueid": "MTK2741:3VNXK88KKDP25ZA5CR6MAZBO6ODV96", "dateTime": 1519319815150}, {"current_trial": 202, "trialdata": {"rt": -1000, "trial_type": "single-audio", "word": "uncle", "stimulus": "/static/audio/wordpool/UNCLE.wav", "conditions": [24, 1600, "a", 24000], "internal_node_id": "0.0-148.0", "trial": 5, "time_elapsed": 883061, "serialpos": 5, "key_press": -1, "wordID": 1535, "type": "PRES_AUD", "trial_index": 202}, "uniqueid": "MTK2741:3VNXK88KKDP25ZA5CR6MAZBO6ODV96", "dateTime": 1519319817909}, {"current_trial": 203, "trialdata": {"rt": -1000, "trial_type": "single-audio", "word": "denim", "stimulus": "/static/audio/wordpool/DENIM.wav", "conditions": [24, 1600, "a", 24000], "internal_node_id": "0.0-149.0", "trial": 5, "time_elapsed": 885601, "serialpos": 6, "key_press": -1, "wordID": 445, "type": "PRES_AUD", "trial_index": 203}, "uniqueid": "MTK2741:3VNXK88KKDP25ZA5CR6MAZBO6ODV96", "dateTime": 1519319820449}, {"current_trial": 204, "trialdata": {"rt": -1000, "trial_type": "single-audio", "word": "cashier", "stimulus": "/static/audio/wordpool/CASHIER.wav", "conditions": [24, 1600, "a", 24000], "internal_node_id": "0.0-150.0", "trial": 5, "time_elapsed": 888400, "serialpos": 7, "key_press": -1, "wordID": 253, "type": "PRES_AUD", "trial_index": 204}, "uniqueid": "MTK2741:3VNXK88KKDP25ZA5CR6MAZBO6ODV96", "dateTime": 1519319823248}, {"current_trial": 205, "trialdata": {"rt": -1000, "trial_type": "single-audio", "word": "scissors", "stimulus": "/static/audio/wordpool/SCISSORS.wav", "conditions": [24, 1600, "a", 24000], "internal_node_id": "0.0-151.0", "trial": 5, "time_elapsed": 891058, "serialpos": 8, "key_press": -1, "wordID": 1249, "type": "PRES_AUD", "trial_index": 205}, "uniqueid": "MTK2741:3VNXK88KKDP25ZA5CR6MAZBO6ODV96", "dateTime": 1519319825906}, {"current_trial": 206, "trialdata": {"rt": -1000, "trial_type": "single-audio", "word": "plaid", "stimulus": "/static/audio/wordpool/PLAID.wav", "conditions": [24, 1600, "a", 24000], "internal_node_id": "0.0-152.0", "trial": 5, "time_elapsed": 893630, "serialpos": 9, "key_press": -1, "wordID": 1079, "type": "PRES_AUD", "trial_index": 206}, "uniqueid": "MTK2741:3VNXK88KKDP25ZA5CR6MAZBO6ODV96", "dateTime": 1519319828478}, {"current_trial": 207, "trialdata": {"rt": -1000, "trial_type": "single-audio", "word": "church", "stimulus": "/static/audio/wordpool/CHURCH.wav", "conditions": [24, 1600, "a", 24000], "internal_node_id": "0.0-153.0", "trial": 5, "time_elapsed": 896154, "serialpos": 10, "key_press": -1, "wordID": 306, "type": "PRES_AUD", "trial_index": 207}, "uniqueid": "MTK2741:3VNXK88KKDP25ZA5CR6MAZBO6ODV96", "dateTime": 1519319831003}, {"current_trial": 208, "trialdata": {"rt": -1000, "trial_type": "single-audio", "word": "viking", "stimulus": "/static/audio/wordpool/VIKING.wav", "conditions": [24, 1600, "a", 24000], "internal_node_id": "0.0-154.0", "trial": 5, "time_elapsed": 898663, "serialpos": 11, "key_press": -1, "wordID": 1564, "type": "PRES_AUD", "trial_index": 208}, "uniqueid": "MTK2741:3VNXK88KKDP25ZA5CR6MAZBO6ODV96", "dateTime": 1519319833511}, {"current_trial": 209, "trialdata": {"rt": -1000, "trial_type": "single-audio", "word": "powder", "stimulus": "/static/audio/wordpool/POWDER.wav", "conditions": [24, 1600, "a", 24000], "internal_node_id": "0.0-155.0", "trial": 5, "time_elapsed": 901124, "serialpos": 12, "key_press": -1, "wordID": 1116, "type": "PRES_AUD", "trial_index": 209}, "uniqueid": "MTK2741:3VNXK88KKDP25ZA5CR6MAZBO6ODV96", "dateTime": 1519319835972}, {"current_trial": 210, "trialdata": {"rt": -1000, "trial_type": "single-audio", "word": "bullet", "stimulus": "/static/audio/wordpool/BULLET.wav", "conditions": [24, 1600, "a", 24000], "internal_node_id": "0.0-156.0", "trial": 5, "time_elapsed": 903574, "serialpos": 13, "key_press": -1, "wordID": 193, "type": "PRES_AUD", "trial_index": 210}, "uniqueid": "MTK2741:3VNXK88KKDP25ZA5CR6MAZBO6ODV96", "dateTime": 1519319838422}, {"current_trial": 211, "trialdata": {"rt": -1000, "trial_type": "single-audio", "word": "woman", "stimulus": "/static/audio/wordpool/WOMAN.wav", "conditions": [24, 1600, "a", 24000], "internal_node_id": "0.0-157.0", "trial": 5, "time_elapsed": 906153, "serialpos": 14, "key_press": -1, "wordID": 1619, "type": "PRES_AUD", "trial_index": 211}, "uniqueid": "MTK2741:3VNXK88KKDP25ZA5CR6MAZBO6ODV96", "dateTime": 1519319841001}, {"current_trial": 212, "trialdata": {"rt": -1000, "trial_type": "single-audio", "word": "juggler", "stimulus": "/static/audio/wordpool/JUGGLER.wav", "conditions": [24, 1600, "a", 24000], "internal_node_id": "0.0-158.0", "trial": 5, "time_elapsed": 908741, "serialpos": 15, "key_press": -1, "wordID": 762, "type": "PRES_AUD", "trial_index": 212}, "uniqueid": "MTK2741:3VNXK88KKDP25ZA5CR6MAZBO6ODV96", "dateTime": 1519319843589}, {"current_trial": 213, "trialdata": {"rt": -1000, "trial_type": "single-audio", "word": "daisy", "stimulus": "/static/audio/wordpool/DAISY.wav", "conditions": [24, 1600, "a", 24000], "internal_node_id": "0.0-159.0", "trial": 5, "time_elapsed": 911382, "serialpos": 16, "key_press": -1, "wordID": 434, "type": "PRES_AUD", "trial_index": 213}, "uniqueid": "MTK2741:3VNXK88KKDP25ZA5CR6MAZBO6ODV96", "dateTime": 1519319846230}, {"current_trial": 214, "trialdata": {"rt": -1000, "trial_type": "single-audio", "word": "handbag", "stimulus": "/static/audio/wordpool/HANDBAG.wav", "conditions": [24, 1600, "a", 24000], "internal_node_id": "0.0-160.0", "trial": 5, "time_elapsed": 913855, "serialpos": 17, "key_press": -1, "wordID": 683, "type": "PRES_AUD", "trial_index": 214}, "uniqueid": "MTK2741:3VNXK88KKDP25ZA5CR6MAZBO6ODV96", "dateTime": 1519319848703}, {"current_trial": 215, "trialdata": {"rt": -1000, "trial_type": "single-audio", "word": "clothes", "stimulus": "/static/audio/wordpool/CLOTHES.wav", "conditions": [24, 1600, "a", 24000], "internal_node_id": "0.0-161.0", "trial": 5, "time_elapsed": 916392, "serialpos": 18, "key_press": -1, "wordID": 326, "type": "PRES_AUD", "trial_index": 215}, "uniqueid": "MTK2741:3VNXK88KKDP25ZA5CR6MAZBO6ODV96", "dateTime": 1519319851240}, {"current_trial": 216, "trialdata": {"rt": -1000, "trial_type": "single-audio", "word": "tile", "stimulus": "/static/audio/wordpool/TILE.wav", "conditions": [24, 1600, "a", 24000], "internal_node_id": "0.0-162.0", "trial": 5, "time_elapsed": 919184, "serialpos": 19, "key_press": -1, "wordID": 1467, "type": "PRES_AUD", "trial_index": 216}, "uniqueid": "MTK2741:3VNXK88KKDP25ZA5CR6MAZBO6ODV96", "dateTime": 1519319854032}, {"current_trial": 217, "trialdata": {"rt": -1000, "trial_type": "single-audio", "word": "apple", "stimulus": "/static/audio/wordpool/APPLE.wav", "conditions": [24, 1600, "a", 24000], "internal_node_id": "0.0-163.0", "trial": 5, "time_elapsed": 921964, "serialpos": 20, "key_press": -1, "wordID": 32, "type": "PRES_AUD", "trial_index": 217}, "uniqueid": "MTK2741:3VNXK88KKDP25ZA5CR6MAZBO6ODV96", "dateTime": 1519319856812}, {"current_trial": 218, "trialdata": {"rt": -1000, "trial_type": "single-audio", "word": "necklace", "stimulus": "/static/audio/wordpool/NECKLACE.wav", "conditions": [24, 1600, "a", 24000], "internal_node_id": "0.0-164.0", "trial": 5, "time_elapsed": 924617, "serialpos": 21, "key_press": -1, "wordID": 939, "type": "PRES_AUD", "trial_index": 218}, "uniqueid": "MTK2741:3VNXK88KKDP25ZA5CR6MAZBO6ODV96", "dateTime": 1519319859465}, {"current_trial": 219, "trialdata": {"rt": -1000, "trial_type": "single-audio", "word": "tortoise", "stimulus": "/static/audio/wordpool/TORTOISE.wav", "conditions": [24, 1600, "a", 24000], "internal_node_id": "0.0-165.0", "trial": 5, "time_elapsed": 927096, "serialpos": 22, "key_press": -1, "wordID": 1485, "type": "PRES_AUD", "trial_index": 219}, "uniqueid": "MTK2741:3VNXK88KKDP25ZA5CR6MAZBO6ODV96", "dateTime": 1519319861944}, {"current_trial": 220, "trialdata": {"rt": -1000, "trial_type": "single-audio", "word": "snake", "stimulus": "/static/audio/wordpool/SNAKE.wav", "conditions": [24, 1600, "a", 24000], "internal_node_id": "0.0-166.0", "trial": 5, "time_elapsed": 929656, "serialpos": 23, "key_press": -1, "wordID": 1332, "type": "PRES_AUD", "trial_index": 220}, "uniqueid": "MTK2741:3VNXK88KKDP25ZA5CR6MAZBO6ODV96", "dateTime": 1519319864504}, {"current_trial": 221, "trialdata": {"rt": -1, "trial_type": "single-stim", "stimulus": "", "internal_node_id": "0.0-167.0-0.0", "time_elapsed": 930940, "key_press": -1, "type": "PRE_RECALL_DELAY", "trial_index": 221}, "uniqueid": "MTK2741:3VNXK88KKDP25ZA5CR6MAZBO6ODV96", "dateTime": 1519319865788}, {"current_trial": 222, "trialdata": {"rt": -1000, "trial_type": "single-audio", "stimulus": "/static/audio/400Hz.wav", "internal_node_id": "0.0-168.0", "time_elapsed": 931441, "key_press": -1, "type": "PRE_RECALL_ALERT", "trial_index": 222}, "uniqueid": "MTK2741:3VNXK88KKDP25ZA5CR6MAZBO6ODV96", "dateTime": 1519319866289}, {"current_trial": 223, "trialdata": {"rt": [2445, 3677, 6809, 14398, 16448, 20497, 28142, 47468, 56371], "recwords": ["snake", "apple", "tortoise", "viking", "church", "handbag", "peach", "daisy", "clothes"], "key_times": [1186, 1312, 1807, 1994, 2126, 2445, 2840, 2992, 3125, 3286, 3420, 3677, 4014, 4170, 4343, 4442, 4542, 4966, 5116, 5244, 5343, 5439, 5882, 6127, 6230, 6311, 6809, 12468, 12589, 12791, 13028, 13311, 13450, 14398, 14775, 14922, 15149, 15275, 15534, 15701, 16448, 19241, 19350, 19450, 19567, 19810, 19989, 20082, 20497, 27229, 27292, 27419, 27582, 27675, 28142, 46502, 46579, 46719, 46865, 47083, 47468, 54860, 55140, 55430, 55657, 55804, 55897, 56009, 56089, 56165, 56371], "trial_type": "free-recall", "conditions": [24, 1600, "a", 24000], "internal_node_id": "0.0-169.0-0.0", "key_presses": [83, 78, 65, 75, 69, 13, 65, 80, 80, 76, 69, 13, 84, 79, 73, 82, 84, 8, 8, 8, 82, 84, 79, 73, 83, 69, 13, 86, 73, 75, 73, 78, 71, 13, 67, 72, 85, 82, 67, 72, 13, 72, 65, 78, 68, 66, 65, 71, 13, 80, 69, 65, 67, 72, 13, 68, 65, 73, 83, 89, 13, 67, 79, 8, 76, 79, 84, 72, 69, 83, 13], "trial": 5, "time_elapsed": 991448, "type": "FREE_RECALL", "trial_index": 223}, "uniqueid": "MTK2741:3VNXK88KKDP25ZA5CR6MAZBO6ODV96", "dateTime": 1519319926300}, {"current_trial": 224, "trialdata": {"rt": 1021, "trial_type": "text", "internal_node_id": "0.0-170.0", "time_elapsed": 994477, "key_press": 32, "type": "INSTRUCTIONS", "trial_index": 224}, "uniqueid": "MTK2741:3VNXK88KKDP25ZA5CR6MAZBO6ODV96", "dateTime": 1519319929326}, {"current_trial": 225, "trialdata": {"rt": [3410, 9363, 12270, 14964, 16954, 20954, 23395], "trial_type": "math-distractor", "key_times": [3053, 3112, 3410, 8318, 8561, 9005, 9160, 9363, 11851, 11986, 12270, 14615, 14695, 14964, 16485, 16824, 16954, 20594, 20697, 20954, 22934, 23098, 23395], "responses": ["18", "25", "16", "13", "16", "19", "10"], "num2": [8, 9, 6, 3, 6, 4, 4, 2], "num3": [7, 8, 8, 1, 9, 6, 1, 2], "conditions": [24, 800, "a", 24000], "internal_node_id": "0.0-171.0", "key_presses": [49, 56, 13, 50, 54, 8, 53, 13, 49, 54, 13, 49, 51, 13, 49, 54, 13, 49, 57, 13, 49, 48, 13], "trial": 6, "time_elapsed": 1020485, "type": "DISTRACTOR", "trial_index": 225, "num1": [3, 7, 2, 9, 1, 9, 5, 1]}, "uniqueid": "MTK2741:3VNXK88KKDP25ZA5CR6MAZBO6ODV96", "dateTime": 1519319955333}, {"current_trial": 226, "trialdata": {"rt": -1, "trial_type": "single-stim", "stimulus": "<p id=\"stim\">10</p>", "internal_node_id": "0.0-172.0-0.0", "time_elapsed": 1023492, "key_press": -1, "trial_index": 226}, "uniqueid": "MTK2741:3VNXK88KKDP25ZA5CR6MAZBO6ODV96", "dateTime": 1519319958340}, {"current_trial": 227, "trialdata": {"rt": -1, "trial_type": "single-stim", "stimulus": "<p id=\"stim\">9</p>", "internal_node_id": "0.0-172.0-1.0", "time_elapsed": 1024496, "key_press": -1, "trial_index": 227}, "uniqueid": "MTK2741:3VNXK88KKDP25ZA5CR6MAZBO6ODV96", "dateTime": 1519319959344}, {"current_trial": 228, "trialdata": {"rt": -1, "trial_type": "single-stim", "stimulus": "<p id=\"stim\">8</p>", "internal_node_id": "0.0-172.0-2.0", "time_elapsed": 1025500, "key_press": -1, "trial_index": 228}, "uniqueid": "MTK2741:3VNXK88KKDP25ZA5CR6MAZBO6ODV96", "dateTime": 1519319960348}, {"current_trial": 229, "trialdata": {"rt": -1, "trial_type": "single-stim", "stimulus": "<p id=\"stim\">7</p>", "internal_node_id": "0.0-172.0-3.0", "time_elapsed": 1026504, "key_press": -1, "trial_index": 229}, "uniqueid": "MTK2741:3VNXK88KKDP25ZA5CR6MAZBO6ODV96", "dateTime": 1519319961352}, {"current_trial": 230, "trialdata": {"rt": -1, "trial_type": "single-stim", "stimulus": "<p id=\"stim\">6</p>", "internal_node_id": "0.0-172.0-4.0", "time_elapsed": 1027508, "key_press": -1, "trial_index": 230}, "uniqueid": "MTK2741:3VNXK88KKDP25ZA5CR6MAZBO6ODV96", "dateTime": 1519319962356}, {"current_trial": 231, "trialdata": {"rt": -1, "trial_type": "single-stim", "stimulus": "<p id=\"stim\">5</p>", "internal_node_id": "0.0-172.0-5.0", "time_elapsed": 1028512, "key_press": -1, "trial_index": 231}, "uniqueid": "MTK2741:3VNXK88KKDP25ZA5CR6MAZBO6ODV96", "dateTime": 1519319963360}, {"current_trial": 232, "trialdata": {"rt": -1, "trial_type": "single-stim", "stimulus": "<p id=\"stim\">4</p>", "internal_node_id": "0.0-172.0-6.0", "time_elapsed": 1029516, "key_press": -1, "trial_index": 232}, "uniqueid": "MTK2741:3VNXK88KKDP25ZA5CR6MAZBO6ODV96", "dateTime": 1519319964364}, {"current_trial": 233, "trialdata": {"rt": -1, "trial_type": "single-stim", "stimulus": "<p id=\"stim\">3</p>", "internal_node_id": "0.0-172.0-7.0", "time_elapsed": 1030521, "key_press": -1, "trial_index": 233}, "uniqueid": "MTK2741:3VNXK88KKDP25ZA5CR6MAZBO6ODV96", "dateTime": 1519319965369}, {"current_trial": 234, "trialdata": {"rt": -1, "trial_type": "single-stim", "stimulus": "<p id=\"stim\">2</p>", "internal_node_id": "0.0-172.0-8.0", "time_elapsed": 1031524, "key_press": -1, "trial_index": 234}, "uniqueid": "MTK2741:3VNXK88KKDP25ZA5CR6MAZBO6ODV96", "dateTime": 1519319966372}, {"current_trial": 235, "trialdata": {"rt": -1, "trial_type": "single-stim", "stimulus": "<p id=\"stim\">1</p>", "internal_node_id": "0.0-172.0-9.0", "time_elapsed": 1032528, "key_press": -1, "trial_index": 235}, "uniqueid": "MTK2741:3VNXK88KKDP25ZA5CR6MAZBO6ODV96", "dateTime": 1519319967376}, {"current_trial": 236, "trialdata": {"rt": -1, "trial_type": "single-stim", "stimulus": "<p id=\"stim\">+</p>", "internal_node_id": "0.0-173.0-0.0", "time_elapsed": 1034031, "key_press": -1, "type": "FIXATION", "trial_index": 236}, "uniqueid": "MTK2741:3VNXK88KKDP25ZA5CR6MAZBO6ODV96", "dateTime": 1519319968879}, {"current_trial": 237, "trialdata": {"rt": -1000, "trial_type": "single-audio", "word": "item", "stimulus": "/static/audio/wordpool/ITEM.wav", "conditions": [24, 800, "a", 24000], "internal_node_id": "0.0-174.0", "trial": 6, "time_elapsed": 1036032, "serialpos": 0, "key_press": -1, "wordID": 745, "type": "PRES_AUD", "trial_index": 237}, "uniqueid": "MTK2741:3VNXK88KKDP25ZA5CR6MAZBO6ODV96", "dateTime": 1519319970880}, {"current_trial": 238, "trialdata": {"rt": -1000, "trial_type": "single-audio", "word": "cod", "stimulus": "/static/audio/wordpool/COD.wav", "conditions": [24, 800, "a", 24000], "internal_node_id": "0.0-175.0", "trial": 6, "time_elapsed": 1038033, "serialpos": 1, "key_press": -1, "wordID": 339, "type": "PRES_AUD", "trial_index": 238}, "uniqueid": "MTK2741:3VNXK88KKDP25ZA5CR6MAZBO6ODV96", "dateTime": 1519319972881}, {"current_trial": 239, "trialdata": {"rt": -1000, "trial_type": "single-audio", "word": "radish", "stimulus": "/static/audio/wordpool/RADISH.wav", "conditions": [24, 800, "a", 24000], "internal_node_id": "0.0-176.0", "trial": 6, "time_elapsed": 1039691, "serialpos": 2, "key_press": -1, "wordID": 1157, "type": "PRES_AUD", "trial_index": 239}, "uniqueid": "MTK2741:3VNXK88KKDP25ZA5CR6MAZBO6ODV96", "dateTime": 1519319974539}, {"current_trial": 240, "trialdata": {"rt": -1000, "trial_type": "single-audio", "word": "actor", "stimulus": "/static/audio/wordpool/ACTOR.wav", "conditions": [24, 800, "a", 24000], "internal_node_id": "0.0-177.0", "trial": 6, "time_elapsed": 1041691, "serialpos": 3, "key_press": -1, "wordID": 4, "type": "PRES_AUD", "trial_index": 240}, "uniqueid": "MTK2741:3VNXK88KKDP25ZA5CR6MAZBO6ODV96", "dateTime": 1519319976540}, {"current_trial": 241, "trialdata": {"rt": -1000, "trial_type": "single-audio", "word": "sword", "stimulus": "/static/audio/wordpool/SWORD.wav", "conditions": [24, 800, "a", 24000], "internal_node_id": "0.0-178.0", "trial": 6, "time_elapsed": 1043683, "serialpos": 4, "key_press": -1, "wordID": 1422, "type": "PRES_AUD", "trial_index": 241}, "uniqueid": "MTK2741:3VNXK88KKDP25ZA5CR6MAZBO6ODV96", "dateTime": 1519319978531}, {"current_trial": 242, "trialdata": {"rt": -1000, "trial_type": "single-audio", "word": "heart", "stimulus": "/static/audio/wordpool/HEART.wav", "conditions": [24, 800, "a", 24000], "internal_node_id": "0.0-179.0", "trial": 6, "time_elapsed": 1045290, "serialpos": 5, "key_press": -1, "wordID": 696, "type": "PRES_AUD", "trial_index": 242}, "uniqueid": "MTK2741:3VNXK88KKDP25ZA5CR6MAZBO6ODV96", "dateTime": 1519319980138}, {"current_trial": 243, "trialdata": {"rt": -1000, "trial_type": "single-audio", "word": "omelet", "stimulus": "/static/audio/wordpool/OMELET.wav", "conditions": [24, 800, "a", 24000], "internal_node_id": "0.0-180.0", "trial": 6, "time_elapsed": 1047113, "serialpos": 6, "key_press": -1, "wordID": 975, "type": "PRES_AUD", "trial_index": 243}, "uniqueid": "MTK2741:3VNXK88KKDP25ZA5CR6MAZBO6ODV96", "dateTime": 1519319981961}, {"current_trial": 244, "trialdata": {"rt": -1000, "trial_type": "single-audio", "word": "flask", "stimulus": "/static/audio/wordpool/FLASK.wav", "conditions": [24, 800, "a", 24000], "internal_node_id": "0.0-181.0", "trial": 6, "time_elapsed": 1049099, "serialpos": 7, "key_press": -1, "wordID": 575, "type": "PRES_AUD", "trial_index": 244}, "uniqueid": "MTK2741:3VNXK88KKDP25ZA5CR6MAZBO6ODV96", "dateTime": 1519319983947}, {"current_trial": 245, "trialdata": {"rt": -1000, "trial_type": "single-audio", "word": "beaker", "stimulus": "/static/audio/wordpool/BEAKER.wav", "conditions": [24, 800, "a", 24000], "internal_node_id": "0.0-182.0", "trial": 6, "time_elapsed": 1051011, "serialpos": 8, "key_press": -1, "wordID": 103, "type": "PRES_AUD", "trial_index": 245}, "uniqueid": "MTK2741:3VNXK88KKDP25ZA5CR6MAZBO6ODV96", "dateTime": 1519319985859}, {"current_trial": 246, "trialdata": {"rt": -1000, "trial_type": "single-audio", "word": "eyelash", "stimulus": "/static/audio/wordpool/EYELASH.wav", "conditions": [24, 800, "a", 24000], "internal_node_id": "0.0-183.0", "trial": 6, "time_elapsed": 1052761, "serialpos": 9, "key_press": -1, "wordID": 545, "type": "PRES_AUD", "trial_index": 246}, "uniqueid": "MTK2741:3VNXK88KKDP25ZA5CR6MAZBO6ODV96", "dateTime": 1519319987609}, {"current_trial": 247, "trialdata": {"rt": -1000, "trial_type": "single-audio", "word": "transplant", "stimulus": "/static/audio/wordpool/TRANSPLANT.wav", "conditions": [24, 800, "a", 24000], "internal_node_id": "0.0-184.0", "trial": 6, "time_elapsed": 1054494, "serialpos": 10, "key_press": -1, "wordID": 1495, "type": "PRES_AUD", "trial_index": 247}, "uniqueid": "MTK2741:3VNXK88KKDP25ZA5CR6MAZBO6ODV96", "dateTime": 1519319989342}, {"current_trial": 248, "trialdata": {"rt": -1000, "trial_type": "single-audio", "word": "shortcake", "stimulus": "/static/audio/wordpool/SHORTCAKE.wav", "conditions": [24, 800, "a", 24000], "internal_node_id": "0.0-185.0", "trial": 6, "time_elapsed": 1056494, "serialpos": 11, "key_press": -1, "wordID": 1291, "type": "PRES_AUD", "trial_index": 248}, "uniqueid": "MTK2741:3VNXK88KKDP25ZA5CR6MAZBO6ODV96", "dateTime": 1519319991342}, {"current_trial": 249, "trialdata": {"rt": -1000, "trial_type": "single-audio", "word": "knapsack", "stimulus": "/static/audio/wordpool/KNAPSACK.wav", "conditions": [24, 800