{"assignmentId": "386CSBG1O0TNI8CQSL90K2LEZ1I6QG", "workerId": "MTK2897", "questiondata": {"origin": "United States", "strat-rehearsal": "65", "marital": "Married/Domestic Partnership", "education": "Bachelor's degree", "ethnicity": "Not Hispanic", "color_depth": 24, "distracted": "No", "wrote-notes": "No", "strat-other": "no", "screen_width": 1536, "avail_screen_width": 1536, "avail_screen_height": 824, "strat-image": "1", "language": "english", "gender": "Male", "age": "31", "gender_other": "", "race": ["White"], "strat-categorize": "64", "pixel_depth": 24, "strat-spatial": "10", "strat-story": "1", "race_other": "", "screen_height": 864}, "bonus": 0, "hitId": "3RHLQY6EDTBDRS6DE95ZYLYHZJF4DW", "counterbalance": 598, "useragent": "Mozilla/5.0 (Windows NT 10.0; Win64; x64) AppleWebKit/537.36 (KHTML, like Gecko) Chrome/64.0.3282.167 Safari/537.36", "eventdata": [{"eventtype": "initialized", "interval": 0, "value": null, "timestamp": 1519583982929}, {"eventtype": "window_resize", "interval": 0, "value": [1540, 816], "timestamp": 1519583982929}, {"eventtype": "window_resize", "interval": 2045, "value": [1536, 774], "timestamp": 1519583984974}, {"eventtype": "window_resize", "interval": 29984, "value": [1540, 816], "timestamp": 1519584014958}, {"eventtype": "window_resize", "interval": 5307, "value": [1536, 774], "timestamp": 1519584020265}, {"eventtype": "focus", "interval": 1785293, "value": "off", "timestamp": 1519585805558}, {"eventtype": "focus", "interval": 14854, "value": "on", "timestamp": 1519585820412}, {"eventtype": "window_resize", "interval": 18871, "value": [1536, 724], "timestamp": 1519585839283}, {"eventtype": "focus", "interval": 6465, "value": "off", "timestamp": 1519585845748}, {"eventtype": "focus", "interval": 342, "value": "on", "timestamp": 1519585846090}, {"eventtype": "focus", "interval": 199, "value": "off", "timestamp": 1519585846289}, {"eventtype": "window_resize", "interval": 1947, "value": [1536, 774], "timestamp": 1519585848236}, {"eventtype": "focus", "interval": 13941, "value": "on", "timestamp": 1519585862177}, {"eventtype": "focus", "interval": 924132, "value": "off", "timestamp": 1519586786309}, {"eventtype": "focus", "interval": 18507, "value": "on", "timestamp": 1519586804816}, {"eventtype": "focus", "interval": 498924, "value": "off", "timestamp": 1519587303740}, {"eventtype": "focus", "interval": 3747, "value": "on", "timestamp": 1519587307487}], "data": [{"current_trial": 0, "trialdata": {"rt": 1715499, "trial_type": "text", "internal_node_id": "0.0-0.0", "time_elapsed": 1715501, "key_press": 32, "type": "INSTRUCTIONS", "trial_index": 0}, "uniqueid": "MTK2897:386CSBG1O0TNI8CQSL90K2LEZ1I6QG", "dateTime": 1519585740001}, {"current_trial": 1, "trialdata": {"rt": 82453, "trial_type": "text", "internal_node_id": "0.0-1.0", "time_elapsed": 1797954, "key_press": 32, "type": "INSTRUCTIONS", "trial_index": 1}, "uniqueid": "MTK2897:386CSBG1O0TNI8CQSL90K2LEZ1I6QG", "dateTime": 1519585822455}, {"current_trial": 2, "trialdata": {"rt": [50900], "trial_type": "audio-test", "responses": ["ocean"], "internal_node_id": "0.0-2.0", "time_elapsed": 1848903, "type": "AUDIO_TEST", "trial_index": 2}, "uniqueid": "MTK2897:386CSBG1O0TNI8CQSL90K2LEZ1I6QG", "dateTime": 1519585873403}, {"current_trial": 3, "trialdata": {"rt": [10119], "trial_type": "audio-test", "responses": ["crystal"], "internal_node_id": "0.0-3.0", "time_elapsed": 1859024, "type": "AUDIO_TEST", "trial_index": 3}, "uniqueid": "MTK2897:386CSBG1O0TNI8CQSL90K2LEZ1I6QG", "dateTime": 1519585883524}, {"current_trial": 4, "trialdata": {"rt": [5511], "trial_type": "audio-test", "responses": ["spice"], "internal_node_id": "0.0-4.0", "time_elapsed": 1864538, "type": "AUDIO_TEST", "trial_index": 4}, "uniqueid": "MTK2897:386CSBG1O0TNI8CQSL90K2LEZ1I6QG", "dateTime": 1519585889039}, {"current_trial": 5, "trialdata": {"rt": 28566, "trial_type": "survey-text", "responses": "{\"Q0\":\"10:30\",\"Q1\":\"6:30\",\"Q2\":\"5\"}", "internal_node_id": "0.0-5.0", "time_elapsed": 1893856, "type": "SLEEP_SURVEY", "trial_index": 5}, "uniqueid": "MTK2897:386CSBG1O0TNI8CQSL90K2LEZ1I6QG", "dateTime": 1519585918356}, {"current_trial": 6, "trialdata": {"rt": 41584, "trial_type": "text", "internal_node_id": "0.0-6.0", "time_elapsed": 1936442, "key_press": 13, "type": "INSTRUCTIONS", "trial_index": 6}, "uniqueid": "MTK2897:386CSBG1O0TNI8CQSL90K2LEZ1I6QG", "dateTime": 1519585960942}, {"current_trial": 7, "trialdata": {"rt": 23449, "trial_type": "text", "internal_node_id": "0.0-7.0", "time_elapsed": 1960392, "key_press": 13, "type": "INSTRUCTIONS", "trial_index": 7}, "uniqueid": "MTK2897:386CSBG1O0TNI8CQSL90K2LEZ1I6QG", "dateTime": 1519585984892}, {"current_trial": 8, "trialdata": {"rt": 11240, "trial_type": "text", "internal_node_id": "0.0-8.0", "time_elapsed": 1972132, "key_press": 13, "type": "INSTRUCTIONS", "trial_index": 8}, "uniqueid": "MTK2897:386CSBG1O0TNI8CQSL90K2LEZ1I6QG", "dateTime": 1519585996632}, {"current_trial": 9, "trialdata": {"rt": [2602, 4395, 6053, 7319, 8728, 10572, 12157, 14466, 17011], "trial_type": "math-distractor", "key_times": [2056, 2156, 2602, 4079, 4262, 4395, 5810, 5936, 6053, 7131, 7319, 8388, 8579, 8728, 10348, 10457, 10572, 11795, 11960, 12157, 13954, 14078, 14466, 16691, 16818, 17011], "responses": ["12", "14", "11", "9", "17", "22", "19", "19", "21"], "num2": [1, 3, 2, 7, 1, 7, 8, 8, 8, 7], "num3": [7, 4, 4, 1, 8, 6, 7, 7, 4, 2], "conditions": [18, 1200, "a", 18000], "internal_node_id": "0.0-9.0", "key_presses": [97, 98, 13, 97, 100, 13, 97, 97, 13, 105, 13, 97, 103, 13, 98, 98, 13, 97, 105, 13, 97, 105, 13, 98, 97, 13], "trial": 0, "time_elapsed": 1991135, "type": "DISTRACTOR", "trial_index": 9, "num1": [4, 7, 5, 1, 8, 9, 4, 4, 9, 1]}, "uniqueid": "MTK2897:386CSBG1O0TNI8CQSL90K2LEZ1I6QG", "dateTime": 1519586015636}, {"current_trial": 10, "trialdata": {"rt": -1, "trial_type": "single-stim", "stimulus": "<p id=\"stim\">10</p>", "internal_node_id": "0.0-10.0-0.0", "time_elapsed": 1994140, "key_press": -1, "trial_index": 10}, "uniqueid": "MTK2897:386CSBG1O0TNI8CQSL90K2LEZ1I6QG", "dateTime": 1519586018640}, {"current_trial": 11, "trialdata": {"rt": -1, "trial_type": "single-stim", "stimulus": "<p id=\"stim\">9</p>", "internal_node_id": "0.0-10.0-1.0", "time_elapsed": 1995141, "key_press": -1, "trial_index": 11}, "uniqueid": "MTK2897:386CSBG1O0TNI8CQSL90K2LEZ1I6QG", "dateTime": 1519586019641}, {"current_trial": 12, "trialdata": {"rt": -1, "trial_type": "single-stim", "stimulus": "<p id=\"stim\">8</p>", "internal_node_id": "0.0-10.0-2.0", "time_elapsed": 1996143, "key_press": -1, "trial_index": 12}, "uniqueid": "MTK2897:386CSBG1O0TNI8CQSL90K2LEZ1I6QG", "dateTime": 1519586020643}, {"current_trial": 13, "trialdata": {"rt": -1, "trial_type": "single-stim", "stimulus": "<p id=\"stim\">7</p>", "internal_node_id": "0.0-10.0-3.0", "time_elapsed": 1997143, "key_press": -1, "trial_index": 13}, "uniqueid": "MTK2897:386CSBG1O0TNI8CQSL90K2LEZ1I6QG", "dateTime": 1519586021643}, {"current_trial": 14, "trialdata": {"rt": -1, "trial_type": "single-stim", "stimulus": "<p id=\"stim\">6</p>", "internal_node_id": "0.0-10.0-4.0", "time_elapsed": 1998147, "key_press": -1, "trial_index": 14}, "uniqueid": "MTK2897:386CSBG1O0TNI8CQSL90K2LEZ1I6QG", "dateTime": 1519586022647}, {"current_trial": 15, "trialdata": {"rt": -1, "trial_type": "single-stim", "stimulus": "<p id=\"stim\">5</p>", "internal_node_id": "0.0-10.0-5.0", "time_elapsed": 1999148, "key_press": -1, "trial_index": 15}, "uniqueid": "MTK2897:386CSBG1O0TNI8CQSL90K2LEZ1I6QG", "dateTime": 1519586023648}, {"current_trial": 16, "trialdata": {"rt": -1, "trial_type": "single-stim", "stimulus": "<p id=\"stim\">4</p>", "internal_node_id": "0.0-10.0-6.0", "time_elapsed": 2000149, "key_press": -1, "trial_index": 16}, "uniqueid": "MTK2897:386CSBG1O0TNI8CQSL90K2LEZ1I6QG", "dateTime": 1519586024649}, {"current_trial": 17, "trialdata": {"rt": -1, "trial_type": "single-stim", "stimulus": "<p id=\"stim\">3</p>", "internal_node_id": "0.0-10.0-7.0", "time_elapsed": 2001150, "key_press": -1, "trial_index": 17}, "uniqueid": "MTK2897:386CSBG1O0TNI8CQSL90K2LEZ1I6QG", "dateTime": 1519586025650}, {"current_trial": 18, "trialdata": {"rt": -1, "trial_type": "single-stim", "stimulus": "<p id=\"stim\">2</p>", "internal_node_id": "0.0-10.0-8.0", "time_elapsed": 2002152, "key_press": -1, "trial_index": 18}, "uniqueid": "MTK2897:386CSBG1O0TNI8CQSL90K2LEZ1I6QG", "dateTime": 1519586026652}, {"current_trial": 19, "trialdata": {"rt": -1, "trial_type": "single-stim", "stimulus": "<p id=\"stim\">1</p>", "internal_node_id": "0.0-10.0-9.0", "time_elapsed": 2003154, "key_press": -1, "trial_index": 19}, "uniqueid": "MTK2897:386CSBG1O0TNI8CQSL90K2LEZ1I6QG", "dateTime": 1519586027654}, {"current_trial": 20, "trialdata": {"rt": -1, "trial_type": "single-stim", "stimulus": "<p id=\"stim\">+</p>", "internal_node_id": "0.0-11.0-0.0", "time_elapsed": 2004656, "key_press": -1, "type": "FIXATION", "trial_index": 20}, "uniqueid": "MTK2897:386CSBG1O0TNI8CQSL90K2LEZ1I6QG", "dateTime": 1519586029156}, {"current_trial": 21, "trialdata": {"rt": -1000, "trial_type": "single-audio", "word": "frame", "stimulus": "/static/audio/wordpool/FRAME.wav", "conditions": [18, 1200, "a", 18000], "internal_node_id": "0.0-12.0", "trial": 0, "time_elapsed": 2007052, "serialpos": 0, "key_press": -1, "wordID": 599, "type": "PRES_AUD", "trial_index": 21}, "uniqueid": "MTK2897:386CSBG1O0TNI8CQSL90K2LEZ1I6QG", "dateTime": 1519586031552}, {"current_trial": 22, "trialdata": {"rt": -1000, "trial_type": "single-audio", "word": "kitchen", "stimulus": "/static/audio/wordpool/KITCHEN.wav", "conditions": [18, 1200, "a", 18000], "internal_node_id": "0.0-13.0", "trial": 0, "time_elapsed": 2009343, "serialpos": 1, "key_press": -1, "wordID": 777, "type": "PRES_AUD", "trial_index": 22}, "uniqueid": "MTK2897:386CSBG1O0TNI8CQSL90K2LEZ1I6QG", "dateTime": 1519586033844}, {"current_trial": 23, "trialdata": {"rt": -1000, "trial_type": "single-audio", "word": "stomach", "stimulus": "/static/audio/wordpool/STOMACH.wav", "conditions": [18, 1200, "a", 18000], "internal_node_id": "0.0-14.0", "trial": 0, "time_elapsed": 2011483, "serialpos": 2, "key_press": -1, "wordID": 1383, "type": "PRES_AUD", "trial_index": 23}, "uniqueid": "MTK2897:386CSBG1O0TNI8CQSL90K2LEZ1I6QG", "dateTime": 1519586035983}, {"current_trial": 24, "trialdata": {"rt": -1000, "trial_type": "single-audio", "word": "spouse", "stimulus": "/static/audio/wordpool/SPOUSE.wav", "conditions": [18, 1200, "a", 18000], "internal_node_id": "0.0-15.0", "trial": 0, "time_elapsed": 2013615, "serialpos": 3, "key_press": -1, "wordID": 1357, "type": "PRES_AUD", "trial_index": 24}, "uniqueid": "MTK2897:386CSBG1O0TNI8CQSL90K2LEZ1I6QG", "dateTime": 1519586038115}, {"current_trial": 25, "trialdata": {"rt": -1000, "trial_type": "single-audio", "word": "infant", "stimulus": "/static/audio/wordpool/INFANT.wav", "conditions": [18, 1200, "a", 18000], "internal_node_id": "0.0-16.0", "trial": 0, "time_elapsed": 2015647, "serialpos": 4, "key_press": -1, "wordID": 736, "type": "PRES_AUD", "trial_index": 25}, "uniqueid": "MTK2897:386CSBG1O0TNI8CQSL90K2LEZ1I6QG", "dateTime": 1519586040147}, {"current_trial": 26, "trialdata": {"rt": -1000, "trial_type": "single-audio", "word": "country", "stimulus": "/static/audio/wordpool/COUNTRY.wav", "conditions": [18, 1200, "a", 18000], "internal_node_id": "0.0-17.0", "trial": 0, "time_elapsed": 2017679, "serialpos": 5, "key_press": -1, "wordID": 387, "type": "PRES_AUD", "trial_index": 26}, "uniqueid": "MTK2897:386CSBG1O0TNI8CQSL90K2LEZ1I6QG", "dateTime": 1519586042179}, {"current_trial": 27, "trialdata": {"rt": -1000, "trial_type": "single-audio", "word": "saddle", "stimulus": "/static/audio/wordpool/SADDLE.wav", "conditions": [18, 1200, "a", 18000], "internal_node_id": "0.0-18.0", "trial": 0, "time_elapsed": 2019801, "serialpos": 6, "key_press": -1, "wordID": 1220, "type": "PRES_AUD", "trial_index": 27}, "uniqueid": "MTK2897:386CSBG1O0TNI8CQSL90K2LEZ1I6QG", "dateTime": 1519586044301}, {"current_trial": 28, "trialdata": {"rt": -1000, "trial_type": "single-audio", "word": "balloon", "stimulus": "/static/audio/wordpool/BALLOON.wav", "conditions": [18, 1200, "a", 18000], "internal_node_id": "0.0-19.0", "trial": 0, "time_elapsed": 2021956, "serialpos": 7, "key_press": -1, "wordID": 74, "type": "PRES_AUD", "trial_index": 28}, "uniqueid": "MTK2897:386CSBG1O0TNI8CQSL90K2LEZ1I6QG", "dateTime": 1519586046456}, {"current_trial": 29, "trialdata": {"rt": -1000, "trial_type": "single-audio", "word": "badge", "stimulus": "/static/audio/wordpool/BADGE.wav", "conditions": [18, 1200, "a", 18000], "internal_node_id": "0.0-20.0", "trial": 0, "time_elapsed": 2024309, "serialpos": 8, "key_press": -1, "wordID": 67, "type": "PRES_AUD", "trial_index": 29}, "uniqueid": "MTK2897:386CSBG1O0TNI8CQSL90K2LEZ1I6QG", "dateTime": 1519586048809}, {"current_trial": 30, "trialdata": {"rt": -1000, "trial_type": "single-audio", "word": "outlaw", "stimulus": "/static/audio/wordpool/OUTLAW.wav", "conditions": [18, 1200, "a", 18000], "internal_node_id": "0.0-21.0", "trial": 0, "time_elapsed": 2026509, "serialpos": 9, "key_press": -1, "wordID": 988, "type": "PRES_AUD", "trial_index": 30}, "uniqueid": "MTK2897:386CSBG1O0TNI8CQSL90K2LEZ1I6QG", "dateTime": 1519586051009}, {"current_trial": 31, "trialdata": {"rt": -1000, "trial_type": "single-audio", "word": "antler", "stimulus": "/static/audio/wordpool/ANTLER.wav", "conditions": [18, 1200, "a", 18000], "internal_node_id": "0.0-22.0", "trial": 0, "time_elapsed": 2028634, "serialpos": 10, "key_press": -1, "wordID": 28, "type": "PRES_AUD", "trial_index": 31}, "uniqueid": "MTK2897:386CSBG1O0TNI8CQSL90K2LEZ1I6QG", "dateTime": 1519586053134}, {"current_trial": 32, "trialdata": {"rt": -1000, "trial_type": "single-audio", "word": "pocket", "stimulus": "/static/audio/wordpool/POCKET.wav", "conditions": [18, 1200, "a", 18000], "internal_node_id": "0.0-23.0", "trial": 0, "time_elapsed": 2030805, "serialpos": 11, "key_press": -1, "wordID": 1092, "type": "PRES_AUD", "trial_index": 32}, "uniqueid": "MTK2897:386CSBG1O0TNI8CQSL90K2LEZ1I6QG", "dateTime": 1519586055306}, {"current_trial": 33, "trialdata": {"rt": -1000, "trial_type": "single-audio", "word": "citrus", "stimulus": "/static/audio/wordpool/CITRUS.wav", "conditions": [18, 1200, "a", 18000], "internal_node_id": "0.0-24.0", "trial": 0, "time_elapsed": 2032892, "serialpos": 12, "key_press": -1, "wordID": 312, "type": "PRES_AUD", "trial_index": 33}, "uniqueid": "MTK2897:386CSBG1O0TNI8CQSL90K2LEZ1I6QG", "dateTime": 1519586057392}, {"current_trial": 34, "trialdata": {"rt": -1000, "trial_type": "single-audio", "word": "london", "stimulus": "/static/audio/wordpool/LONDON.wav", "conditions": [18, 1200, "a", 18000], "internal_node_id": "0.0-25.0", "trial": 0, "time_elapsed": 2035264, "serialpos": 13, "key_press": -1, "wordID": 842, "type": "PRES_AUD", "trial_index": 34}, "uniqueid": "MTK2897:386CSBG1O0TNI8CQSL90K2LEZ1I6QG", "dateTime": 1519586059764}, {"current_trial": 35, "trialdata": {"rt": -1000, "trial_type": "single-audio", "word": "passage", "stimulus": "/static/audio/wordpool/PASSAGE.wav", "conditions": [18, 1200, "a", 18000], "internal_node_id": "0.0-26.0", "trial": 0, "time_elapsed": 2037558, "serialpos": 14, "key_press": -1, "wordID": 1018, "type": "PRES_AUD", "trial_index": 35}, "uniqueid": "MTK2897:386CSBG1O0TNI8CQSL90K2LEZ1I6QG", "dateTime": 1519586062058}, {"current_trial": 36, "trialdata": {"rt": -1000, "trial_type": "single-audio", "word": "tombstone", "stimulus": "/static/audio/wordpool/TOMBSTONE.wav", "conditions": [18, 1200, "a", 18000], "internal_node_id": "0.0-27.0", "trial": 0, "time_elapsed": 2039849, "serialpos": 15, "key_press": -1, "wordID": 1477, "type": "PRES_AUD", "trial_index": 36}, "uniqueid": "MTK2897:386CSBG1O0TNI8CQSL90K2LEZ1I6QG", "dateTime": 1519586064349}, {"current_trial": 37, "trialdata": {"rt": -1000, "trial_type": "single-audio", "word": "bank", "stimulus": "/static/audio/wordpool/BANK.wav", "conditions": [18, 1200, "a", 18000], "internal_node_id": "0.0-28.0", "trial": 0, "time_elapsed": 2041946, "serialpos": 16, "key_press": -1, "wordID": 82, "type": "PRES_AUD", "trial_index": 37}, "uniqueid": "MTK2897:386CSBG1O0TNI8CQSL90K2LEZ1I6QG", "dateTime": 1519586066446}, {"current_trial": 38, "trialdata": {"rt": -1000, "trial_type": "single-audio", "word": "gift", "stimulus": "/static/audio/wordpool/GIFT.wav", "conditions": [18, 1200, "a", 18000], "internal_node_id": "0.0-29.0", "trial": 0, "time_elapsed": 2044085, "serialpos": 17, "key_press": -1, "wordID": 634, "type": "PRES_AUD", "trial_index": 38}, "uniqueid": "MTK2897:386CSBG1O0TNI8CQSL90K2LEZ1I6QG", "dateTime": 1519586068585}, {"current_trial": 39, "trialdata": {"rt": -1, "trial_type": "single-stim", "stimulus": "", "internal_node_id": "0.0-30.0-0.0", "time_elapsed": 2045494, "key_press": -1, "type": "PRE_RECALL_DELAY", "trial_index": 39}, "uniqueid": "MTK2897:386CSBG1O0TNI8CQSL90K2LEZ1I6QG", "dateTime": 1519586069994}, {"current_trial": 40, "trialdata": {"rt": -1000, "trial_type": "single-audio", "stimulus": "/static/audio/400Hz.wav", "internal_node_id": "0.0-31.0", "time_elapsed": 2045995, "key_press": -1, "type": "PRE_RECALL_ALERT", "trial_index": 40}, "uniqueid": "MTK2897:386CSBG1O0TNI8CQSL90K2LEZ1I6QG", "dateTime": 1519586070495}, {"current_trial": 41, "trialdata": {"rt": [2726, 4077, 5504, 9299, 11125, 12517, 14682, 18137, 30310], "recwords": ["kitchen", "frame", "outlaw", "passage", "london", "gift", "frame", "badge", "spouse"], "key_times": [1563, 1717, 1841, 2103, 2205, 2363, 2486, 2726, 3114, 3272, 3383, 3498, 3687, 4077, 4665, 4820, 4905, 5051, 5139, 5299, 5504, 8042, 8114, 8308, 8469, 8599, 8699, 8821, 9299, 9849, 10126, 10354, 10528, 10659, 10748, 10878, 11125, 11591, 11721, 11823, 12102, 12517, 14058, 14206, 14301, 14411, 14552, 14682, 17366, 17469, 17699, 17858, 17965, 18137, 28119, 28242, 28677, 28879, 29298, 29436, 29661, 29836, 29963, 30084, 30310], "trial_type": "free-recall", "conditions": [18, 1200, "a", 18000], "internal_node_id": "0.0-32.0-0.0", "key_presses": [75, 73, 84, 67, 72, 69, 78, 13, 70, 82, 65, 77, 69, 13, 79, 85, 84, 76, 65, 87, 13, 80, 65, 83, 83, 65, 71, 69, 13, 16, 76, 79, 78, 68, 79, 78, 13, 71, 73, 70, 84, 13, 70, 82, 65, 77, 69, 13, 66, 65, 68, 71, 69, 13, 83, 80, 85, 83, 8, 8, 79, 85, 83, 69, 13], "trial": 0, "time_elapsed": 2105998, "type": "FREE_RECALL", "trial_index": 41}, "uniqueid": "MTK2897:386CSBG1O0TNI8CQSL90K2LEZ1I6QG", "dateTime": 1519586130499}, {"current_trial": 42, "trialdata": {"rt": 54945, "trial_type": "text", "internal_node_id": "0.0-33.0", "time_elapsed": 2162945, "key_press": 13, "type": "INSTRUCTIONS", "trial_index": 42}, "uniqueid": "MTK2897:386CSBG1O0TNI8CQSL90K2LEZ1I6QG", "dateTime": 1519586187445}, {"current_trial": 43, "trialdata": {"rt": [1807, 3155, 4845, 6274, 7882, 9882, 11358, 13438, 14804, 16846], "trial_type": "math-distractor", "key_times": [1525, 1618, 1807, 2892, 2965, 3155, 4559, 4658, 4845, 5961, 6108, 6274, 7524, 7683, 7882, 9516, 9718, 9882, 10911, 10968, 11358, 13002, 13231, 13438, 14584, 14804, 16642, 16846], "responses": ["19", "15", "13", "11", "16", "17", "15", "10", "8", "8"], "num2": [5, 7, 3, 1, 9, 3, 1, 6, 3, 4, 6], "num3": [5, 7, 2, 8, 3, 5, 8, 1, 3, 2, 4], "conditions": [18, 1200, "a", 18000], "internal_node_id": "0.0-34.0", "key_presses": [97, 105, 13, 97, 101, 13, 97, 99, 13, 97, 97, 13, 97, 102, 13, 97, 103, 13, 97, 101, 13, 97, 96, 13, 104, 13, 104, 13], "trial": 1, "time_elapsed": 2182949, "type": "DISTRACTOR", "trial_index": 43, "num1": [9, 1, 8, 2, 4, 9, 6, 3, 2, 2, 7]}, "uniqueid": "MTK2897:386CSBG1O0TNI8CQSL90K2LEZ1I6QG", "dateTime": 1519586207449}, {"current_trial": 44, "trialdata": {"rt": -1, "trial_type": "single-stim", "stimulus": "<p id=\"stim\">10</p>", "internal_node_id": "0.0-35.0-0.0", "time_elapsed": 2185950, "key_press": -1, "trial_index": 44}, "uniqueid": "MTK2897:386CSBG1O0TNI8CQSL90K2LEZ1I6QG", "dateTime": 1519586210450}, {"current_trial": 45, "trialdata": {"rt": -1, "trial_type": "single-stim", "stimulus": "<p id=\"stim\">9</p>", "internal_node_id": "0.0-35.0-1.0", "time_elapsed": 2186951, "key_press": -1, "trial_index": 45}, "uniqueid": "MTK2897:386CSBG1O0TNI8CQSL90K2LEZ1I6QG", "dateTime": 1519586211451}, {"current_trial": 46, "trialdata": {"rt": -1, "trial_type": "single-stim", "stimulus": "<p id=\"stim\">8</p>", "internal_node_id": "0.0-35.0-2.0", "time_elapsed": 2187951, "key_press": -1, "trial_index": 46}, "uniqueid": "MTK2897:386CSBG1O0TNI8CQSL90K2LEZ1I6QG", "dateTime": 1519586212451}, {"current_trial": 47, "trialdata": {"rt": -1, "trial_type": "single-stim", "stimulus": "<p id=\"stim\">7</p>", "internal_node_id": "0.0-35.0-3.0", "time_elapsed": 2188952, "key_press": -1, "trial_index": 47}, "uniqueid": "MTK2897:386CSBG1O0TNI8CQSL90K2LEZ1I6QG", "dateTime": 1519586213452}, {"current_trial": 48, "trialdata": {"rt": -1, "trial_type": "single-stim", "stimulus": "<p id=\"stim\">6</p>", "internal_node_id": "0.0-35.0-4.0", "time_elapsed": 2189953, "key_press": -1, "trial_index": 48}, "uniqueid": "MTK2897:386CSBG1O0TNI8CQSL90K2LEZ1I6QG", "dateTime": 1519586214453}, {"current_trial": 49, "trialdata": {"rt": -1, "trial_type": "single-stim", "stimulus": "<p id=\"stim\">5</p>", "internal_node_id": "0.0-35.0-5.0", "time_elapsed": 2190954, "key_press": -1, "trial_index": 49}, "uniqueid": "MTK2897:386CSBG1O0TNI8CQSL90K2LEZ1I6QG", "dateTime": 1519586215454}, {"current_trial": 50, "trialdata": {"rt": -1, "trial_type": "single-stim", "stimulus": "<p id=\"stim\">4</p>", "internal_node_id": "0.0-35.0-6.0", "time_elapsed": 2191955, "key_press": -1, "trial_index": 50}, "uniqueid": "MTK2897:386CSBG1O0TNI8CQSL90K2LEZ1I6QG", "dateTime": 1519586216455}, {"current_trial": 51, "trialdata": {"rt": -1, "trial_type": "single-stim", "stimulus": "<p id=\"stim\">3</p>", "internal_node_id": "0.0-35.0-7.0", "time_elapsed": 2192956, "key_press": -1, "trial_index": 51}, "uniqueid": "MTK2897:386CSBG1O0TNI8CQSL90K2LEZ1I6QG", "dateTime": 1519586217456}, {"current_trial": 52, "trialdata": {"rt": -1, "trial_type": "single-stim", "stimulus": "<p id=\"stim\">2</p>", "internal_node_id": "0.0-35.0-8.0", "time_elapsed": 2193957, "key_press": -1, "trial_index": 52}, "uniqueid": "MTK2897:386CSBG1O0TNI8CQSL90K2LEZ1I6QG", "dateTime": 1519586218457}, {"current_trial": 53, "trialdata": {"rt": -1, "trial_type": "single-stim", "stimulus": "<p id=\"stim\">1</p>", "internal_node_id": "0.0-35.0-9.0", "time_elapsed": 2194958, "key_press": -1, "trial_index": 53}, "uniqueid": "MTK2897:386CSBG1O0TNI8CQSL90K2LEZ1I6QG", "dateTime": 1519586219459}, {"current_trial": 54, "trialdata": {"rt": -1, "trial_type": "single-stim", "stimulus": "<p id=\"stim\">+</p>", "internal_node_id": "0.0-36.0-0.0", "time_elapsed": 2196459, "key_press": -1, "type": "FIXATION", "trial_index": 54}, "uniqueid": "MTK2897:386CSBG1O0TNI8CQSL90K2LEZ1I6QG", "dateTime": 1519586220959}, {"current_trial": 55, "trialdata": {"rt": -1000, "trial_type": "single-audio", "word": "leg", "stimulus": "/static/audio/wordpool/LEG.wav", "conditions": [18, 1200, "a", 18000], "internal_node_id": "0.0-37.0", "trial": 1, "time_elapsed": 2198803, "serialpos": 0, "key_press": -1, "wordID": 808, "type": "PRES_AUD", "trial_index": 55}, "uniqueid": "MTK2897:386CSBG1O0TNI8CQSL90K2LEZ1I6QG", "dateTime": 1519586223303}, {"current_trial": 56, "trialdata": {"rt": -1000, "trial_type": "single-audio", "word": "backbone", "stimulus": "/static/audio/wordpool/BACKBONE.wav", "conditions": [18, 1200, "a", 18000], "internal_node_id": "0.0-38.0", "trial": 1, "time_elapsed": 2201032, "serialpos": 1, "key_press": -1, "wordID": 65, "type": "PRES_AUD", "trial_index": 56}, "uniqueid": "MTK2897:386CSBG1O0TNI8CQSL90K2LEZ1I6QG", "dateTime": 1519586225532}, {"current_trial": 57, "trialdata": {"rt": -1000, "trial_type": "single-audio", "word": "spider", "stimulus": "/static/audio/wordpool/SPIDER.wav", "conditions": [18, 1200, "a", 18000], "internal_node_id": "0.0-39.0", "trial": 1, "time_elapsed": 2203065, "serialpos": 2, "key_press": -1, "wordID": 1350, "type": "PRES_AUD", "trial_index": 57}, "uniqueid": "MTK2897:386CSBG1O0TNI8CQSL90K2LEZ1I6QG", "dateTime": 1519586227565}, {"current_trial": 58, "trialdata": {"rt": -1000, "trial_type": "single-audio", "word": "tractor", "stimulus": "/static/audio/wordpool/TRACTOR.wav", "conditions": [18, 1200, "a", 18000], "internal_node_id": "0.0-40.0", "trial": 1, "time_elapsed": 2205096, "serialpos": 3, "key_press": -1, "wordID": 1492, "type": "PRES_AUD", "trial_index": 58}, "uniqueid": "MTK2897:386CSBG1O0TNI8CQSL90K2LEZ1I6QG", "dateTime": 1519586229596}, {"current_trial": 59, "trialdata": {"rt": -1000, "trial_type": "single-audio", "word": "cabbage", "stimulus": "/static/audio/wordpool/CABBAGE.wav", "conditions": [18, 1200, "a", 18000], "internal_node_id": "0.0-41.0", "trial": 1, "time_elapsed": 2207402, "serialpos": 4, "key_press": -1, "wordID": 209, "type": "PRES_AUD", "trial_index": 59}, "uniqueid": "MTK2897:386CSBG1O0TNI8CQSL90K2LEZ1I6QG", "dateTime": 1519586231902}, {"current_trial": 60, "trialdata": {"rt": -1000, "trial_type": "single-audio", "word": "stove", "stimulus": "/static/audio/wordpool/STOVE.wav", "conditions": [18, 1200, "a", 18000], "internal_node_id": "0.0-42.0", "trial": 1, "time_elapsed": 2209417, "serialpos": 5, "key_press": -1, "wordID": 1387, "type": "PRES_AUD", "trial_index": 60}, "uniqueid": "MTK2897:386CSBG1O0TNI8CQSL90K2LEZ1I6QG", "dateTime": 1519586233918}, {"current_trial": 61, "trialdata": {"rt": -1000, "trial_type": "single-audio", "word": "cabin", "stimulus": "/static/audio/wordpool/CABIN.wav", "conditions": [18, 1200, "a", 18000], "internal_node_id": "0.0-43.0", "trial": 1, "time_elapsed": 2211507, "serialpos": 6, "key_press": -1, "wordID": 210, "type": "PRES_AUD", "trial_index": 61}, "uniqueid": "MTK2897:386CSBG1O0TNI8CQSL90K2LEZ1I6QG", "dateTime": 1519586236007}, {"current_trial": 62, "trialdata": {"rt": -1000, "trial_type": "single-audio", "word": "suspect", "stimulus": "/static/audio/wordpool/SUSPECT.wav", "conditions": [18, 1200, "a", 18000], "internal_node_id": "0.0-44.0", "trial": 1, "time_elapsed": 2213524, "serialpos": 7, "key_press": -1, "wordID": 1414, "type": "PRES_AUD", "trial_index": 62}, "uniqueid": "MTK2897:386CSBG1O0TNI8CQSL90K2LEZ1I6QG", "dateTime": 1519586238024}, {"current_trial": 63, "trialdata": {"rt": -1000, "trial_type": "single-audio", "word": "pigment", "stimulus": "/static/audio/wordpool/PIGMENT.wav", "conditions": [18, 1200, "a", 18000], "internal_node_id": "0.0-45.0", "trial": 1, "time_elapsed": 2215599, "serialpos": 8, "key_press": -1, "wordID": 1065, "type": "PRES_AUD", "trial_index": 63}, "uniqueid": "MTK2897:386CSBG1O0TNI8CQSL90K2LEZ1I6QG", "dateTime": 1519586240100}, {"current_trial": 64, "trialdata": {"rt": -1000, "trial_type": "single-audio", "word": "wasp", "stimulus": "/static/audio/wordpool/WASP.wav", "conditions": [18, 1200, "a", 18000], "internal_node_id": "0.0-46.0", "trial": 1, "time_elapsed": 2217678, "serialpos": 9, "key_press": -1, "wordID": 1592, "type": "PRES_AUD", "trial_index": 64}, "uniqueid": "MTK2897:386CSBG1O0TNI8CQSL90K2LEZ1I6QG", "dateTime": 1519586242179}, {"current_trial": 65, "trialdata": {"rt": -1000, "trial_type": "single-audio", "word": "lunch", "stimulus": "/static/audio/wordpool/LUNCH.wav", "conditions": [18, 1200, "a", 18000], "internal_node_id": "0.0-47.0", "trial": 1, "time_elapsed": 2219985, "serialpos": 10, "key_press": -1, "wordID": 848, "type": "PRES_AUD", "trial_index": 65}, "uniqueid": "MTK2897:386CSBG1O0TNI8CQSL90K2LEZ1I6QG", "dateTime": 1519586244485}, {"current_trial": 66, "trialdata": {"rt": -1000, "trial_type": "single-audio", "word": "luggage", "stimulus": "/static/audio/wordpool/LUGGAGE.wav", "conditions": [18, 1200, "a", 18000], "internal_node_id": "0.0-48.0", "trial": 1, "time_elapsed": 2222260, "serialpos": 11, "key_press": -1, "wordID": 846, "type": "PRES_AUD", "trial_index": 66}, "uniqueid": "MTK2897:386CSBG1O0TNI8CQSL90K2LEZ1I6QG", "dateTime": 1519586246760}, {"current_trial": 67, "trialdata": {"rt": -1000, "trial_type": "single-audio", "word": "donkey", "stimulus": "/static/audio/wordpool/DONKEY.wav", "conditions": [18, 1200, "a", 18000], "internal_node_id": "0.0-49.0", "trial": 1, "time_elapsed": 2224396, "serialpos": 12, "key_press": -1, "wordID": 483, "type": "PRES_AUD", "trial_index": 67}, "uniqueid": "MTK2897:386CSBG1O0TNI8CQSL90K2LEZ1I6QG", "dateTime": 1519586248896}, {"current_trial": 68, "trialdata": {"rt": -1000, "trial_type": "single-audio", "word": "supper", "stimulus": "/static/audio/wordpool/SUPPER.wav", "conditions": [18, 1200, "a", 18000], "internal_node_id": "0.0-50.0", "trial": 1, "time_elapsed": 2226710, "serialpos": 13, "key_press": -1, "wordID": 1410, "type": "PRES_AUD", "trial_index": 68}, "uniqueid": "MTK2897:386CSBG1O0TNI8CQSL90K2LEZ1I6QG", "dateTime": 1519586251210}, {"current_trial": 69, "trialdata": {"rt": -1000, "trial_type": "single-audio", "word": "partner", "stimulus": "/static/audio/wordpool/PARTNER.wav", "conditions": [18, 1200, "a", 18000], "internal_node_id": "0.0-51.0", "trial": 1, "time_elapsed": 2228922, "serialpos": 14, "key_press": -1, "wordID": 1016, "type": "PRES_AUD", "trial_index": 69}, "uniqueid": "MTK2897:386CSBG1O0TNI8CQSL90K2LEZ1I6QG", "dateTime": 1519586253422}, {"current_trial": 70, "trialdata": {"rt": -1000, "trial_type": "single-audio", "word": "lava", "stimulus": "/static/audio/wordpool/LAVA.wav", "conditions": [18, 1200, "a", 18000], "internal_node_id": "0.0-52.0", "trial": 1, "time_elapsed": 2231229, "serialpos": 15, "key_press": -1, "wordID": 803, "type": "PRES_AUD", "trial_index": 70}, "uniqueid": "MTK2897:386CSBG1O0TNI8CQSL90K2LEZ1I6QG", "dateTime": 1519586255729}, {"current_trial": 71, "trialdata": {"rt": -1000, "trial_type": "single-audio", "word": "hood", "stimulus": "/static/audio/wordpool/HOOD.wav", "conditions": [18, 1200, "a", 18000], "internal_node_id": "0.0-53.0", "trial": 1, "time_elapsed": 2233524, "serialpos": 16, "key_press": -1, "wordID": 713, "type": "PRES_AUD", "trial_index": 71}, "uniqueid": "MTK2897:386CSBG1O0TNI8CQSL90K2LEZ1I6QG", "dateTime": 1519586258024}, {"current_trial": 72, "trialdata": {"rt": -1000, "trial_type": "single-audio", "word": "robber", "stimulus": "/static/audio/wordpool/ROBBER.wav", "conditions": [18, 1200, "a", 18000], "internal_node_id": "0.0-54.0", "trial": 1, "time_elapsed": 2235905, "serialpos": 17, "key_press": -1, "wordID": 1196, "type": "PRES_AUD", "trial_index": 72}, "uniqueid": "MTK2897:386CSBG1O0TNI8CQSL90K2LEZ1I6QG", "dateTime": 1519586260405}, {"current_trial": 73, "trialdata": {"rt": -1, "trial_type": "single-stim", "stimulus": "", "internal_node_id": "0.0-55.0-0.0", "time_elapsed": 2237167, "key_press": -1, "type": "PRE_RECALL_DELAY", "trial_index": 73}, "uniqueid": "MTK2897:386CSBG1O0TNI8CQSL90K2LEZ1I6QG", "dateTime": 1519586261667}, {"current_trial": 74, "trialdata": {"rt": -1000, "trial_type": "single-audio", "stimulus": "/static/audio/400Hz.wav", "internal_node_id": "0.0-56.0", "time_elapsed": 2237668, "key_press": -1, "type": "PRE_RECALL_ALERT", "trial_index": 74}, "uniqueid": "MTK2897:386CSBG1O0TNI8CQSL90K2LEZ1I6QG", "dateTime": 1519586262168}, {"current_trial": 75, "trialdata": {"rt": [1636, 3252, 4788, 6033, 11937, 14229, 15000, 39835], "recwords": ["hood", "robber", "suspect", "cabin", "cottage", "leg", "bone", "spider"], "key_times": [989, 1216, 1380, 1489, 1636, 2165, 2299, 2469, 2630, 2822, 2939, 3252, 3612, 3764, 3865, 4019, 4233, 4448, 4646, 4788, 5205, 5292, 5454, 5650, 5800, 6033, 8598, 8842, 8977, 9129, 9207, 9341, 9459, 9879, 10435, 10470, 10505, 10539, 10575, 10610, 10645, 10678, 10814, 10966, 11147, 11282, 11397, 11658, 11746, 11937, 13873, 13984, 14092, 14229, 14480, 14591, 14744, 14848, 15000, 38952, 39063, 39257, 39375, 39540, 39672, 39835], "trial_type": "free-recall", "conditions": [18, 1200, "a", 18000], "internal_node_id": "0.0-57.0-0.0", "key_presses": [72, 79, 79, 68, 13, 82, 79, 66, 66, 69, 82, 13, 83, 85, 83, 80, 69, 67, 84, 13, 67, 65, 66, 73, 78, 13, 83, 79, 84, 84, 65, 71, 69, 8, 8, 8, 8, 8, 8, 8, 8, 8, 67, 79, 84, 84, 65, 71, 69, 13, 76, 69, 71, 13, 66, 79, 78, 69, 13, 83, 80, 73, 68, 69, 82, 13], "trial": 1, "time_elapsed": 2297669, "type": "FREE_RECALL", "trial_index": 75}, "uniqueid": "MTK2897:386CSBG1O0TNI8CQSL90K2LEZ1I6QG", "dateTime": 1519586322171}, {"current_trial": 76, "trialdata": {"rt": 160096, "trial_type": "text", "internal_node_id": "0.0-58.0", "time_elapsed": 2459766, "key_press": 13, "type": "INSTRUCTIONS", "trial_index": 76}, "uniqueid": "MTK2897:386CSBG1O0TNI8CQSL90K2LEZ1I6QG", "dateTime": 1519586484266}, {"current_trial": 77, "trialdata": {"rt": [1427, 3131, 4869, 6367, 10767], "trial_type": "math-distractor", "key_times": [1136, 1243, 1427, 2846, 2971, 3131, 4535, 4664, 4869, 6055, 6187, 6367, 10518, 10657, 10767], "responses": ["16", "11", "18", "11", "22"], "num2": [1, 5, 6, 2, 5, 2], "num3": [7, 3, 5, 7, 9, 7], "conditions": [24, 1600, "a", 12000], "internal_node_id": "0.0-59.0", "key_presses": [97, 102, 13, 97, 97, 13, 97, 104, 13, 97, 97, 13, 98, 98, 13], "trial": 2, "time_elapsed": 2472768, "type": "DISTRACTOR", "trial_index": 77, "num1": [8, 3, 7, 2, 8, 2]}, "uniqueid": "MTK2897:386CSBG1O0TNI8CQSL90K2LEZ1I6QG", "dateTime": 1519586497268}, {"current_trial": 78, "trialdata": {"rt": -1, "trial_type": "single-stim", "stimulus": "<p id=\"stim\">10</p>", "internal_node_id": "0.0-60.0-0.0", "time_elapsed": 2475769, "key_press": -1, "trial_index": 78}, "uniqueid": "MTK2897:386CSBG1O0TNI8CQSL90K2LEZ1I6QG", "dateTime": 1519586500269}, {"current_trial": 79, "trialdata": {"rt": -1, "trial_type": "single-stim", "stimulus": "<p id=\"stim\">9</p>", "internal_node_id": "0.0-60.0-1.0", "time_elapsed": 2476770, "key_press": -1, "trial_index": 79}, "uniqueid": "MTK2897:386CSBG1O0TNI8CQSL90K2LEZ1I6QG", "dateTime": 1519586501270}, {"current_trial": 80, "trialdata": {"rt": -1, "trial_type": "single-stim", "stimulus": "<p id=\"stim\">8</p>", "internal_node_id": "0.0-60.0-2.0", "time_elapsed": 2477770, "key_press": -1, "trial_index": 80}, "uniqueid": "MTK2897:386CSBG1O0TNI8CQSL90K2LEZ1I6QG", "dateTime": 1519586502270}, {"current_trial": 81, "trialdata": {"rt": -1, "trial_type": "single-stim", "stimulus": "<p id=\"stim\">7</p>", "internal_node_id": "0.0-60.0-3.0", "time_elapsed": 2478771, "key_press": -1, "trial_index": 81}, "uniqueid": "MTK2897:386CSBG1O0TNI8CQSL90K2LEZ1I6QG", "dateTime": 1519586503271}, {"current_trial": 82, "trialdata": {"rt": -1, "trial_type": "single-stim", "stimulus": "<p id=\"stim\">6</p>", "internal_node_id": "0.0-60.0-4.0", "time_elapsed": 2479773, "key_press": -1, "trial_index": 82}, "uniqueid": "MTK2897:386CSBG1O0TNI8CQSL90K2LEZ1I6QG", "dateTime": 1519586504273}, {"current_trial": 83, "trialdata": {"rt": -1, "trial_type": "single-stim", "stimulus": "<p id=\"stim\">5</p>", "internal_node_id": "0.0-60.0-5.0", "time_elapsed": 2480774, "key_press": -1, "trial_index": 83}, "uniqueid": "MTK2897:386CSBG1O0TNI8CQSL90K2LEZ1I6QG", "dateTime": 1519586505274}, {"current_trial": 84, "trialdata": {"rt": -1, "trial_type": "single-stim", "stimulus": "<p id=\"stim\">4</p>", "internal_node_id": "0.0-60.0-6.0", "time_elapsed": 2481775, "key_press": -1, "trial_index": 84}, "uniqueid": "MTK2897:386CSBG1O0TNI8CQSL90K2LEZ1I6QG", "dateTime": 1519586506275}, {"current_trial": 85, "trialdata": {"rt": -1, "trial_type": "single-stim", "stimulus": "<p id=\"stim\">3</p>", "internal_node_id": "0.0-60.0-7.0", "time_elapsed": 2482776, "key_press": -1, "trial_index": 85}, "uniqueid": "MTK2897:386CSBG1O0TNI8CQSL90K2LEZ1I6QG", "dateTime": 1519586507276}, {"current_trial": 86, "trialdata": {"rt": -1, "trial_type": "single-stim", "stimulus": "<p id=\"stim\">2</p>", "internal_node_id": "0.0-60.0-8.0", "time_elapsed": 2483776, "key_press": -1, "trial_index": 86}, "uniqueid": "MTK2897:386CSBG1O0TNI8CQSL90K2LEZ1I6QG", "dateTime": 1519586508276}, {"current_trial": 87, "trialdata": {"rt": -1, "trial_type": "single-stim", "stimulus": "<p id=\"stim\">1</p>", "internal_node_id": "0.0-60.0-9.0", "time_elapsed": 2484777, "key_press": -1, "trial_index": 87}, "uniqueid": "MTK2897:386CSBG1O0TNI8CQSL90K2LEZ1I6QG", "dateTime": 1519586509277}, {"current_trial": 88, "trialdata": {"rt": -1, "trial_type": "single-stim", "stimulus": "<p id=\"stim\">+</p>", "internal_node_id": "0.0-61.0-0.0", "time_elapsed": 2486278, "key_press": -1, "type": "FIXATION", "trial_index": 88}, "uniqueid": "MTK2897:386CSBG1O0TNI8CQSL90K2LEZ1I6QG", "dateTime": 1519586510778}, {"current_trial": 89, "trialdata": {"rt": -1000, "trial_type": "single-audio", "word": "sponge", "stimulus": "/static/audio/wordpool/SPONGE.wav", "conditions": [24, 1600, "a", 12000], "internal_node_id": "0.0-62.0", "trial": 2, "time_elapsed": 2489047, "serialpos": 0, "key_press": -1, "wordID": 1354, "type": "PRES_AUD", "trial_index": 89}, "uniqueid": "MTK2897:386CSBG1O0TNI8CQSL90K2LEZ1I6QG", "dateTime": 1519586513547}, {"current_trial": 90, "trialdata": {"rt": -1000, "trial_type": "single-audio", "word": "crib", "stimulus": "/static/audio/wordpool/CRIB.wav", "conditions": [24, 1600, "a", 12000], "internal_node_id": "0.0-63.0", "trial": 2, "time_elapsed": 2491462, "serialpos": 1, "key_press": -1, "wordID": 406, "type": "PRES_AUD", "trial_index": 90}, "uniqueid": "MTK2897:386CSBG1O0TNI8CQSL90K2LEZ1I6QG", "dateTime": 1519586515962}, {"current_trial": 91, "trialdata": {"rt": -1000, "trial_type": "single-audio", "word": "forest", "stimulus": "/static/audio/wordpool/FOREST.wav", "conditions": [24, 1600, "a", 12000], "internal_node_id": "0.0-64.0", "trial": 2, "time_elapsed": 2494237, "serialpos": 2, "key_press": -1, "wordID": 592, "type": "PRES_AUD", "trial_index": 91}, "uniqueid": "MTK2897:386CSBG1O0TNI8CQSL90K2LEZ1I6QG", "dateTime": 1519586518737}, {"current_trial": 92, "trialdata": {"rt": -1000, "trial_type": "single-audio", "word": "critic", "stimulus": "/static/audio/wordpool/CRITIC.wav", "conditions": [24, 1600, "a", 12000], "internal_node_id": "0.0-65.0", "trial": 2, "time_elapsed": 2497047, "serialpos": 3, "key_press": -1, "wordID": 409, "type": "PRES_AUD", "trial_index": 92}, "uniqueid": "MTK2897:386CSBG1O0TNI8CQSL90K2LEZ1I6QG", "dateTime": 1519586521547}, {"current_trial": 93, "trialdata": {"rt": -1000, "trial_type": "single-audio", "word": "mattress", "stimulus": "/static/audio/wordpool/MATTRESS.wav", "conditions": [24, 1600, "a", 12000], "internal_node_id": "0.0-66.0", "trial": 2, "time_elapsed": 2499537, "serialpos": 4, "key_press": -1, "wordID": 878, "type": "PRES_AUD", "trial_index": 93}, "uniqueid": "MTK2897:386CSBG1O0TNI8CQSL90K2LEZ1I6QG", "dateTime": 1519586524037}, {"current_trial": 94, "trialdata": {"rt": -1000, "trial_type": "single-audio", "word": "farmer", "stimulus": "/static/audio/wordpool/FARMER.wav", "conditions": [24, 1600, "a", 12000], "internal_node_id": "0.0-67.0", "trial": 2, "time_elapsed": 2502075, "serialpos": 5, "key_press": -1, "wordID": 552, "type": "PRES_AUD", "trial_index": 94}, "uniqueid": "MTK2897:386CSBG1O0TNI8CQSL90K2LEZ1I6QG", "dateTime": 1519586526575}, {"current_trial": 95, "trialdata": {"rt": -1000, "trial_type": "single-audio", "word": "gavel", "stimulus": "/static/audio/wordpool/GAVEL.wav", "conditions": [24, 1600, "a", 12000], "internal_node_id": "0.0-68.0", "trial": 2, "time_elapsed": 2504704, "serialpos": 6, "key_press": -1, "wordID": 626, "type": "PRES_AUD", "trial_index": 95}, "uniqueid": "MTK2897:386CSBG1O0TNI8CQSL90K2LEZ1I6QG", "dateTime": 1519586529205}, {"current_trial": 96, "trialdata": {"rt": -1000, "trial_type": "single-audio", "word": "briefcase", "stimulus": "/static/audio/wordpool/BRIEFCASE.wav", "conditions": [24, 1600, "a", 12000], "internal_node_id": "0.0-69.0", "trial": 2, "time_elapsed": 2507411, "serialpos": 7, "key_press": -1, "wordID": 174, "type": "PRES_AUD", "trial_index": 96}, "uniqueid": "MTK2897:386CSBG1O0TNI8CQSL90K2LEZ1I6QG", "dateTime": 1519586531911}, {"current_trial": 97, "trialdata": {"rt": -1000, "trial_type": "single-audio", "word": "slug", "stimulus": "/static/audio/wordpool/SLUG.wav", "conditions": [24, 1600, "a", 12000], "internal_node_id": "0.0-70.0", "trial": 2, "time_elapsed": 2510010, "serialpos": 8, "key_press": -1, "wordID": 1328, "type": "PRES_AUD", "trial_index": 97}, "uniqueid": "MTK2897:386CSBG1O0TNI8CQSL90K2LEZ1I6QG", "dateTime": 1519586534510}, {"current_trial": 98, "trialdata": {"rt": -1000, "trial_type": "single-audio", "word": "egypt", "stimulus": "/static/audio/wordpool/EGYPT.wav", "conditions": [24, 1600, "a", 12000], "internal_node_id": "0.0-71.0", "trial": 2, "time_elapsed": 2512797, "serialpos": 9, "key_press": -1, "wordID": 518, "type": "PRES_AUD", "trial_index": 98}, "uniqueid": "MTK2897:386CSBG1O0TNI8CQSL90K2LEZ1I6QG", "dateTime": 1519586537297}, {"current_trial": 99, "trialdata": {"rt": -1000, "trial_type": "single-audio", "word": "fiddle", "stimulus": "/static/audio/wordpool/FIDDLE.wav", "conditions": [24, 1600, "a", 12000], "internal_node_id": "0.0-72.0", "trial": 2, "time_elapsed": 2515594, "serialpos": 10, "key_press": -1, "wordID": 560, "type": "PRES_AUD", "trial_index": 99}, "uniqueid": "MTK2897:386CSBG1O0TNI8CQSL90K2LEZ1I6QG", "dateTime": 1519586540094}, {"current_trial": 100, "trialdata": {"rt": -1000, "trial_type": "single-audio", "word": "banjo", "stimulus": "/static/audio/wordpool/BANJO.wav", "conditions": [24, 1600, "a", 12000], "internal_node_id": "0.0-73.0", "trial": 2, "time_elapsed": 2518010, "serialpos": 11, "key_press": -1, "wordID": 81, "type": "PRES_AUD", "trial_index": 100}, "uniqueid": "MTK2897:386CSBG1O0TNI8CQSL90K2LEZ1I6QG", "dateTime": 1519586542511}, {"current_trial": 101, "trialdata": {"rt": -1000, "trial_type": "single-audio", "word": "possum", "stimulus": "/static/audio/wordpool/POSSUM.wav", "conditions": [24, 1600, "a", 12000], "internal_node_id": "0.0-74.0", "trial": 2, "time_elapsed": 2520705, "serialpos": 12, "key_press": -1, "wordID": 1111, "type": "PRES_AUD", "trial_index": 101}, "uniqueid": "MTK2897:386CSBG1O0TNI8CQSL90K2LEZ1I6QG", "dateTime": 1519586545205}, {"current_trial": 102, "trialdata": {"rt": -1000, "trial_type": "single-audio", "word": "flask", "stimulus": "/static/audio/wordpool/FLASK.wav", "conditions": [24, 1600, "a", 12000], "internal_node_id": "0.0-75.0", "trial": 2, "time_elapsed": 2523269, "serialpos": 13, "key_press": -1, "wordID": 575, "type": "PRES_AUD", "trial_index": 102}, "uniqueid": "MTK2897:386CSBG1O0TNI8CQSL90K2LEZ1I6QG", "dateTime": 1519586547769}, {"current_trial": 103, "trialdata": {"rt": -1000, "trial_type": "single-audio", "word": "zipper", "stimulus": "/static/audio/wordpool/ZIPPER.wav", "conditions": [24, 1600, "a", 12000], "internal_node_id": "0.0-76.0", "trial": 2, "time_elapsed": 2525862, "serialpos": 14, "key_press": -1, "wordID": 1635, "type": "PRES_AUD", "trial_index": 103}, "uniqueid": "MTK2897:386CSBG1O0TNI8CQSL90K2LEZ1I6QG", "dateTime": 1519586550363}, {"current_trial": 104, "trialdata": {"rt": -1000, "trial_type": "single-audio", "word": "bison", "stimulus": "/static/audio/wordpool/BISON.wav", "conditions": [24, 1600, "a", 12000], "internal_node_id": "0.0-77.0", "trial": 2, "time_elapsed": 2528449, "serialpos": 15, "key_press": -1, "wordID": 130, "type": "PRES_AUD", "trial_index": 104}, "uniqueid": "MTK2897:386CSBG1O0TNI8CQSL90K2LEZ1I6QG", "dateTime": 1519586552949}, {"current_trial": 105, "trialdata": {"rt": -1000, "trial_type": "single-audio", "word": "beaker", "stimulus": "/static/audio/wordpool/BEAKER.wav", "conditions": [24, 1600, "a", 12000], "internal_node_id": "0.0-78.0", "trial": 2, "time_elapsed": 2530900, "serialpos": 16, "key_press": -1, "wordID": 103, "type": "PRES_AUD", "trial_index": 105}, "uniqueid": "MTK2897:386CSBG1O0TNI8CQSL90K2LEZ1I6QG", "dateTime": 1519586555400}, {"current_trial": 106, "trialdata": {"rt": -1000, "trial_type": "single-audio", "word": "popcorn", "stimulus": "/static/audio/wordpool/POPCORN.wav", "conditions": [24, 1600, "a", 12000], "internal_node_id": "0.0-79.0", "trial": 2, "time_elapsed": 2533455, "serialpos": 17, "key_press": -1, "wordID": 1103, "type": "PRES_AUD", "trial_index": 106}, "uniqueid": "MTK2897:386CSBG1O0TNI8CQSL90K2LEZ1I6QG", "dateTime": 1519586557955}, {"current_trial": 107, "trialdata": {"rt": -1000, "trial_type": "single-audio", "word": "candy", "stimulus": "/static/audio/wordpool/CANDY.wav", "conditions": [24, 1600, "a", 12000], "internal_node_id": "0.0-80.0", "trial": 2, "time_elapsed": 2535861, "serialpos": 18, "key_press": -1, "wordID": 229, "type": "PRES_AUD", "trial_index": 107}, "uniqueid": "MTK2897:386CSBG1O0TNI8CQSL90K2LEZ1I6QG", "dateTime": 1519586560361}, {"current_trial": 108, "trialdata": {"rt": -1000, "trial_type": "single-audio", "word": "chemist", "stimulus": "/static/audio/wordpool/CHEMIST.wav", "conditions": [24, 1600, "a", 12000], "internal_node_id": "0.0-81.0", "trial": 2, "time_elapsed": 2538472, "serialpos": 19, "key_press": -1, "wordID": 291, "type": "PRES_AUD", "trial_index": 108}, "uniqueid": "MTK2897:386CSBG1O0TNI8CQSL90K2LEZ1I6QG", "dateTime": 1519586562972}, {"current_trial": 109, "trialdata": {"rt": -1000, "trial_type": "single-audio", "word": "shoulder", "stimulus": "/static/audio/wordpool/SHOULDER.wav", "conditions": [24, 1600, "a", 12000], "internal_node_id": "0.0-82.0", "trial": 2, "time_elapsed": 2540873, "serialpos": 20, "key_press": -1, "wordID": 1293, "type": "PRES_AUD", "trial_index": 109}, "uniqueid": "MTK2897:386CSBG1O0TNI8CQSL90K2LEZ1I6QG", "dateTime": 1519586565373}, {"current_trial": 110, "trialdata": {"rt": -1000, "trial_type": "single-audio", "word": "queen", "stimulus": "/static/audio/wordpool/QUEEN.wav", "conditions": [24, 1600, "a", 12000], "internal_node_id": "0.0-83.0", "trial": 2, "time_elapsed": 2543609, "serialpos": 21, "key_press": -1, "wordID": 1148, "type": "PRES_AUD", "trial_index": 110}, "uniqueid": "MTK2897:386CSBG1O0TNI8CQSL90K2LEZ1I6QG", "dateTime": 1519586568109}, {"current_trial": 111, "trialdata": {"rt": -1000, "trial_type": "single-audio", "word": "sister", "stimulus": "/static/audio/wordpool/SISTER.wav", "conditions": [24, 1600, "a", 12000], "internal_node_id": "0.0-84.0", "trial": 2, "time_elapsed": 2546249, "serialpos": 22, "key_press": -1, "wordID": 1311, "type": "PRES_AUD", "trial_index": 111}, "uniqueid": "MTK2897:386CSBG1O0TNI8CQSL90K2LEZ1I6QG", "dateTime": 1519586570749}, {"current_trial": 112, "trialdata": {"rt": -1000, "trial_type": "single-audio", "word": "harp", "stimulus": "/static/audio/wordpool/HARP.wav", "conditions": [24, 1600, "a", 12000], "internal_node_id": "0.0-85.0", "trial": 2, "time_elapsed": 2549033, "serialpos": 23, "key_press": -1, "wordID": 688, "type": "PRES_AUD", "trial_index": 112}, "uniqueid": "MTK2897:386CSBG1O0TNI8CQSL90K2LEZ1I6QG", "dateTime": 1519586573533}, {"current_trial": 113, "trialdata": {"rt": -1, "trial_type": "single-stim", "stimulus": "", "internal_node_id": "0.0-86.0-0.0", "time_elapsed": 2550421, "key_press": -1, "type": "PRE_RECALL_DELAY", "trial_index": 113}, "uniqueid": "MTK2897:386CSBG1O0TNI8CQSL90K2LEZ1I6QG", "dateTime": 1519586574921}, {"current_trial": 114, "trialdata": {"rt": -1000, "trial_type": "single-audio", "stimulus": "/static/audio/400Hz.wav", "internal_node_id": "0.0-87.0", "time_elapsed": 2550924, "key_press": -1, "type": "PRE_RECALL_ALERT", "trial_index": 114}, "uniqueid": "MTK2897:386CSBG1O0TNI8CQSL90K2LEZ1I6QG", "dateTime": 1519586575424}, {"current_trial": 115, "trialdata": {"rt": [1626, 2764, 3925, 5225, 7785, 16452, 19092], "recwords": ["harp", "sister", "queen", "sponge", "zipper", "chemist", "egypt"], "key_times": [435, 578, 719, 1101, 1626, 1943, 2031, 2148, 2298, 2452, 2602, 2764, 3125, 3279, 3454, 3614, 3703, 3925, 4147, 4288, 4510, 4700, 4888, 5033, 5225, 6892, 7069, 7277, 7441, 7536, 7644, 7785, 15513, 15640, 15776, 15888, 16054, 16122, 16272, 16452, 17355, 17555, 17811, 18036, 18621, 18798, 19092], "trial_type": "free-recall", "conditions": [24, 1600, "a", 12000], "internal_node_id": "0.0-88.0-0.0", "key_presses": [72, 65, 82, 80, 13, 83, 73, 83, 84, 69, 82, 13, 81, 85, 69, 69, 78, 13, 83, 80, 79, 78, 71, 69, 13, 90, 73, 80, 80, 69, 82, 13, 67, 72, 69, 77, 73, 83, 84, 13, 16, 69, 71, 89, 80, 84, 13], "trial": 2, "time_elapsed": 2610925, "type": "FREE_RECALL", "trial_index": 115}, "uniqueid": "MTK2897:386CSBG1O0TNI8CQSL90K2LEZ1I6QG", "dateTime": 1519586635426}, {"current_trial": 116, "trialdata": {"rt": 1781, "trial_type": "text", "internal_node_id": "0.0-89.0", "time_elapsed": 2614710, "key_press": 13, "type": "INSTRUCTIONS", "trial_index": 116}, "uniqueid": "MTK2897:386CSBG1O0TNI8CQSL90K2LEZ1I6QG", "dateTime": 1519586639211}, {"current_trial": 117, "trialdata": {"rt": [1747, 3642, 5358, 6992, 9125, 12000, 13449, 15188, 16431, 18404, 20061, 21625], "trial_type": "math-distractor", "key_times": [1451, 1548, 1747, 3297, 3433, 3642, 5042, 5143, 5358, 6627, 6834, 6992, 8807, 8897, 9125, 11688, 11811, 12000, 13246, 13449, 14798, 15013, 15188, 16099, 16220, 16431, 18059, 18255, 18404, 19716, 19849, 20061, 21211, 21435, 21625, 23614, 23750], "responses": ["19", "19", "15", "14", "15", "26", "8", "10", "19", "17", "18", "12"], "num2": [6, 5, 3, 1, 5, 9, 1, 1, 5, 9, 8, 2, 9], "num3": [9, 6, 9, 7, 1, 9, 2, 3, 9, 5, 5, 8, 5], "conditions": [24, 1600, "a", 24000], "internal_node_id": "0.0-90.0", "key_presses": [97, 105, 13, 97, 105, 13, 97, 101, 13, 97, 100, 13, 97, 101, 13, 98, 102, 13, 104, 13, 97, 96, 13, 97, 105, 13, 97, 103, 13, 97, 104, 13, 97, 98, 13, 98, 97], "trial": 3, "time_elapsed": 2640713, "type": "DISTRACTOR", "trial_index": 117, "num1": [4, 8, 3, 6, 9, 8, 5, 6, 5, 3, 5, 2, 7]}, "uniqueid": "MTK2897:386CSBG1O0TNI8CQSL90K2LEZ1I6QG", "dateTime": 1519586665213}, {"current_trial": 118, "trialdata": {"rt": -1, "trial_type": "single-stim", "stimulus": "<p id=\"stim\">10</p>", "internal_node_id": "0.0-91.0-0.0", "time_elapsed": 2643715, "key_press": -1, "trial_index": 118}, "uniqueid": "MTK2897:386CSBG1O0TNI8CQSL90K2LEZ1I6QG", "dateTime": 1519586668215}, {"current_trial": 119, "trialdata": {"rt": -1, "trial_type": "single-stim", "stimulus": "<p id=\"stim\">9</p>", "internal_node_id": "0.0-91.0-1.0", "time_elapsed": 2644715, "key_press": -1, "trial_index": 119}, "uniqueid": "MTK2897:386CSBG1O0TNI8CQSL90K2LEZ1I6QG", "dateTime": 1519586669216}, {"current_trial": 120, "trialdata": {"rt": -1, "trial_type": "single-stim", "stimulus": "<p id=\"stim\">8</p>", "internal_node_id": "0.0-91.0-2.0", "time_elapsed": 2645717, "key_press": -1, "trial_index": 120}, "uniqueid": "MTK2897:386CSBG1O0TNI8CQSL90K2LEZ1I6QG", "dateTime": 1519586670217}, {"current_trial": 121, "trialdata": {"rt": -1, "trial_type": "single-stim", "stimulus": "<p id=\"stim\">7</p>", "internal_node_id": "0.0-91.0-3.0", "time_elapsed": 2646718, "key_press": -1, "trial_index": 121}, "uniqueid": "MTK2897:386CSBG1O0TNI8CQSL90K2LEZ1I6QG", "dateTime": 1519586671218}, {"current_trial": 122, "trialdata": {"rt": -1, "trial_type": "single-stim", "stimulus": "<p id=\"stim\">6</p>", "internal_node_id": "0.0-91.0-4.0", "time_elapsed": 2647720, "key_press": -1, "trial_index": 122}, "uniqueid": "MTK2897:386CSBG1O0TNI8CQSL90K2LEZ1I6QG", "dateTime": 1519586672220}, {"current_trial": 123, "trialdata": {"rt": -1, "trial_type": "single-stim", "stimulus": "<p id=\"stim\">5</p>", "internal_node_id": "0.0-91.0-5.0", "time_elapsed": 2648720, "key_press": -1, "trial_index": 123}, "uniqueid": "MTK2897:386CSBG1O0TNI8CQSL90K2LEZ1I6QG", "dateTime": 1519586673221}, {"current_trial": 124, "trialdata": {"rt": -1, "trial_type": "single-stim", "stimulus": "<p id=\"stim\">4</p>", "internal_node_id": "0.0-91.0-6.0", "time_elapsed": 2649722, "key_press": -1, "trial_index": 124}, "uniqueid": "MTK2897:386CSBG1O0TNI8CQSL90K2LEZ1I6QG", "dateTime": 1519586674222}, {"current_trial": 125, "trialdata": {"rt": -1, "trial_type": "single-stim", "stimulus": "<p id=\"stim\">3</p>", "internal_node_id": "0.0-91.0-7.0", "time_elapsed": 2650723, "key_press": -1, "trial_index": 125}, "uniqueid": "MTK2897:386CSBG1O0TNI8CQSL90K2LEZ1I6QG", "dateTime": 1519586675223}, {"current_trial": 126, "trialdata": {"rt": -1, "trial_type": "single-stim", "stimulus": "<p id=\"stim\">2</p>", "internal_node_id": "0.0-91.0-8.0", "time_elapsed": 2651724, "key_press": -1, "trial_index": 126}, "uniqueid": "MTK2897:386CSBG1O0TNI8CQSL90K2LEZ1I6QG", "dateTime": 1519586676224}, {"current_trial": 127, "trialdata": {"rt": -1, "trial_type": "single-stim", "stimulus": "<p id=\"stim\">1</p>", "internal_node_id": "0.0-91.0-9.0", "time_elapsed": 2652725, "key_press": -1, "trial_index": 127}, "uniqueid": "MTK2897:386CSBG1O0TNI8CQSL90K2LEZ1I6QG", "dateTime": 1519586677225}, {"current_trial": 128, "trialdata": {"rt": -1, "trial_type": "single-stim", "stimulus": "<p id=\"stim\">+</p>", "internal_node_id": "0.0-92.0-0.0", "time_elapsed": 2654226, "key_press": -1, "type": "FIXATION", "trial_index": 128}, "uniqueid": "MTK2897:386CSBG1O0TNI8CQSL90K2LEZ1I6QG", "dateTime": 1519586678726}, {"current_trial": 129, "trialdata": {"rt": -1000, "trial_type": "single-audio", "word": "parsley", "stimulus": "/static/audio/wordpool/PARSLEY.wav", "conditions": [24, 1600, "a", 24000], "internal_node_id": "0.0-93.0", "trial": 3, "time_elapsed": 2656726, "serialpos": 0, "key_press": -1, "wordID": 1015, "type": "PRES_AUD", "trial_index": 129}, "uniqueid": "MTK2897:386CSBG1O0TNI8CQSL90K2LEZ1I6QG", "dateTime": 1519586681226}, {"current_trial": 130, "trialdata": {"rt": -1000, "trial_type": "single-audio", "word": "softball", "stimulus": "/static/audio/wordpool/SOFTBALL.wav", "conditions": [24, 1600, "a", 24000], "internal_node_id": "0.0-94.0", "trial": 3, "time_elapsed": 2659471, "serialpos": 1, "key_press": -1, "wordID": 1342, "type": "PRES_AUD", "trial_index": 130}, "uniqueid": "MTK2897:386CSBG1O0TNI8CQSL90K2LEZ1I6QG", "dateTime": 1519586683971}, {"current_trial": 131, "trialdata": {"rt": -1000, "trial_type": "single-audio", "word": "pilot", "stimulus": "/static/audio/wordpool/PILOT.wav", "conditions": [24, 1600, "a", 24000], "internal_node_id": "0.0-95.0", "trial": 3, "time_elapsed": 2662003, "serialpos": 2, "key_press": -1, "wordID": 1069, "type": "PRES_AUD", "trial_index": 131}, "uniqueid": "MTK2897:386CSBG1O0TNI8CQSL90K2LEZ1I6QG", "dateTime": 1519586686503}, {"current_trial": 132, "trialdata": {"rt": -1000, "trial_type": "single-audio", "word": "mildew", "stimulus": "/static/audio/wordpool/MILDEW.wav", "conditions": [24, 1600, "a", 24000], "internal_node_id": "0.0-96.0", "trial": 3, "time_elapsed": 2664556, "serialpos": 3, "key_press": -1, "wordID": 892, "type": "PRES_AUD", "trial_index": 132}, "uniqueid": "MTK2897:386CSBG1O0TNI8CQSL90K2LEZ1I6QG", "dateTime": 1519586689056}, {"current_trial": 133, "trialdata": {"rt": -1000, "trial_type": "single-audio", "word": "shark", "stimulus": "/static/audio/wordpool/SHARK.wav", "conditions": [24, 1600, "a", 24000], "internal_node_id": "0.0-97.0", "trial": 3, "time_elapsed": 2667085, "serialpos": 4, "key_press": -1, "wordID": 1274, "type": "PRES_AUD", "trial_index": 133}, "uniqueid": "MTK2897:386CSBG1O0TNI8CQSL90K2LEZ1I6QG", "dateTime": 1519586691585}, {"current_trial": 134, "trialdata": {"rt": -1000, "trial_type": "single-audio", "word": "turnip", "stimulus": "/static/audio/wordpool/TURNIP.wav", "conditions": [24, 1600, "a", 24000], "internal_node_id": "0.0-98.0", "trial": 3, "time_elapsed": 2669741, "serialpos": 5, "key_press": -1, "wordID": 1520, "type": "PRES_AUD", "trial_index": 134}, "uniqueid": "MTK2897:386CSBG1O0TNI8CQSL90K2LEZ1I6QG", "dateTime": 1519586694241}, {"current_trial": 135, "trialdata": {"rt": -1000, "trial_type": "single-audio", "word": "cafe", "stimulus": "/static/audio/wordpool/CAFE.wav", "conditions": [24, 1600, "a", 24000], "internal_node_id": "0.0-99.0", "trial": 3, "time_elapsed": 2672294, "serialpos": 6, "key_press": -1, "wordID": 215, "type": "PRES_AUD", "trial_index": 135}, "uniqueid": "MTK2897:386CSBG1O0TNI8CQSL90K2LEZ1I6QG", "dateTime": 1519586696794}, {"current_trial": 136, "trialdata": {"rt": -1000, "trial_type": "single-audio", "word": "diner", "stimulus": "/static/audio/wordpool/DINER.wav", "conditions": [24, 1600, "a", 24000], "internal_node_id": "0.0-100.0", "trial": 3, "time_elapsed": 2674939, "serialpos": 7, "key_press": -1, "wordID": 466, "type": "PRES_AUD", "trial_index": 136}, "uniqueid": "MTK2897:386CSBG1O0TNI8CQSL90K2LEZ1I6QG", "dateTime": 1519586699439}, {"current_trial": 137, "trialdata": {"rt": -1000, "trial_type": "single-audio", "word": "body", "stimulus": "/static/audio/wordpool/BODY.wav", "conditions": [24, 1600, "a", 24000], "internal_node_id": "0.0-101.0", "trial": 3, "time_elapsed": 2677602, "serialpos": 8, "key_press": -1, "wordID": 144, "type": "PRES_AUD", "trial_index": 137}, "uniqueid": "MTK2897:386CSBG1O0TNI8CQSL90K2LEZ1I6QG", "dateTime": 1519586702102}, {"current_trial": 138, "trialdata": {"rt": -1000, "trial_type": "single-audio", "word": "turtle", "stimulus": "/static/audio/wordpool/TURTLE.wav", "conditions": [24, 1600, "a", 24000], "internal_node_id": "0.0-102.0", "trial": 3, "time_elapsed": 2680367, "serialpos": 9, "key_press": -1, "wordID": 1521, "type": "PRES_AUD", "trial_index": 138}, "uniqueid": "MTK2897:386CSBG1O0TNI8CQSL90K2LEZ1I6QG", "dateTime": 1519586704867}, {"current_trial": 139, "trialdata": {"rt": -1000, "trial_type": "single-audio", "word": "orange", "stimulus": "/static/audio/wordpool/ORANGE.wav", "conditions": [24, 1600, "a", 24000], "internal_node_id": "0.0-103.0", "trial": 3, "time_elapsed": 2682920, "serialpos": 10, "key_press": -1, "wordID": 979, "type": "PRES_AUD", "trial_index": 139}, "uniqueid": "MTK2897:386CSBG1O0TNI8CQSL90K2LEZ1I6QG", "dateTime": 1519586707420}, {"current_trial": 140, "trialdata": {"rt": -1000, "trial_type": "single-audio", "word": "fruit", "stimulus": "/static/audio/wordpool/FRUIT.wav", "conditions": [24, 1600, "a", 24000], "internal_node_id": "0.0-104.0", "trial": 3, "time_elapsed": 2685524, "serialpos": 11, "key_press": -1, "wordID": 609, "type": "PRES_AUD", "trial_index": 140}, "uniqueid": "MTK2897:386CSBG1O0TNI8CQSL90K2LEZ1I6QG", "dateTime": 1519586710024}, {"current_trial": 141, "trialdata": {"rt": -1000, "trial_type": "single-audio", "word": "oyster", "stimulus": "/static/audio/wordpool/OYSTER.wav", "conditions": [24, 1600, "a", 24000], "internal_node_id": "0.0-105.0", "trial": 3, "time_elapsed": 2688258, "serialpos": 12, "key_press": -1, "wordID": 994, "type": "PRES_AUD", "trial_index": 141}, "uniqueid": "MTK2897:386CSBG1O0TNI8CQSL90K2LEZ1I6QG", "dateTime": 1519586712758}, {"current_trial": 142, "trialdata": {"rt": -1000, "trial_type": "single-audio", "word": "thread", "stimulus": "/static/audio/wordpool/THREAD.wav", "conditions": [24, 1600, "a", 24000], "internal_node_id": "0.0-106.0", "trial": 3, "time_elapsed": 2690811, "serialpos": 13, "key_press": -1, "wordID": 1459, "type": "PRES_AUD", "trial_index": 142}, "uniqueid": "MTK2897:386CSBG1O0TNI8CQSL90K2LEZ1I6QG", "dateTime": 1519586715312}, {"current_trial": 143, "trialdata": {"rt": -1000, "trial_type": "single-audio", "word": "eyelash", "stimulus": "/static/audio/wordpool/EYELASH.wav", "conditions": [24, 1600, "a", 24000], "internal_node_id": "0.0-107.0", "trial": 3, "time_elapsed": 2693457, "serialpos": 14, "key_press": -1, "wordID": 545, "type": "PRES_AUD", "trial_index": 143}, "uniqueid": "MTK2897:386CSBG1O0TNI8CQSL90K2LEZ1I6QG", "dateTime": 1519586717957}, {"current_trial": 144, "trialdata": {"rt": -1000, "trial_type": "single-audio", "word": "piston", "stimulus": "/static/audio/wordpool/PISTON.wav", "conditions": [24, 1600, "a", 24000], "internal_node_id": "0.0-108.0", "trial": 3, "time_elapsed": 2695996, "serialpos": 15, "key_press": -1, "wordID": 1075, "type": "PRES_AUD", "trial_index": 144}, "uniqueid": "MTK2897:386CSBG1O0TNI8CQSL90K2LEZ1I6QG", "dateTime": 1519586720496}, {"current_trial": 145, "trialdata": {"rt": -1000, "trial_type": "single-audio", "word": "valve", "stimulus": "/static/audio/wordpool/VALVE.wav", "conditions": [24, 1600, "a", 24000], "internal_node_id": "0.0-109.0", "trial": 3, "time_elapsed": 2698703, "serialpos": 16, "key_press": -1, "wordID": 1545, "type": "PRES_AUD", "trial_index": 145}, "uniqueid": "MTK2897:386CSBG1O0TNI8CQSL90K2LEZ1I6QG", "dateTime": 1519586723204}, {"current_trial": 146, "trialdata": {"rt": -1000, "trial_type": "single-audio", "word": "scalpel", "stimulus": "/static/audio/wordpool/SCALPEL.wav", "conditions": [24, 1600, "a", 24000], "internal_node_id": "0.0-110.0", "trial": 3, "time_elapsed": 2701440, "serialpos": 17, "key_press": -1, "wordID": 1242, "type": "PRES_AUD", "trial_index": 146}, "uniqueid": "MTK2897:386CSBG1O0TNI8CQSL90K2LEZ1I6QG", "dateTime": 1519586725940}, {"current_trial": 147, "trialdata": {"rt": -1000, "trial_type": "single-audio", "word": "dolphin", "stimulus": "/static/audio/wordpool/DOLPHIN.wav", "conditions": [24, 1600, "a", 24000], "internal_node_id": "0.0-111.0", "trial": 3, "time_elapsed": 2703846, "serialpos": 18, "key_press": -1, "wordID": 482, "type": "PRES_AUD", "trial_index": 147}, "uniqueid": "MTK2897:386CSBG1O0TNI8CQSL90K2LEZ1I6QG", "dateTime": 1519586728346}, {"current_trial": 148, "trialdata": {"rt": -1000, "trial_type": "single-audio", "word": "sandwich", "stimulus": "/static/audio/wordpool/SANDWICH.wav", "conditions": [24, 1600, "a", 24000], "internal_node_id": "0.0-112.0", "trial": 3, "time_elapsed": 2706348, "serialpos": 19, "key_press": -1, "wordID": 1231, "type": "PRES_AUD", "trial_index": 148}, "uniqueid": "MTK2897:386CSBG1O0TNI8CQSL90K2LEZ1I6QG", "dateTime": 1519586730848}, {"current_trial": 149, "trialdata": {"rt": -1000, "trial_type": "single-audio", "word": "razor", "stimulus": "/static/audio/wordpool/RAZOR.wav", "conditions": [24, 1600, "a", 24000], "internal_node_id": "0.0-113.0", "trial": 3, "time_elapsed": 2708979, "serialpos": 20, "key_press": -1, "wordID": 1170, "type": "PRES_AUD", "trial_index": 149}, "uniqueid": "MTK2897:386CSBG1O0TNI8CQSL90K2LEZ1I6QG", "dateTime": 1519586733479}, {"current_trial": 150, "trialdata": {"rt": -1000, "trial_type": "single-audio", "word": "radish", "stimulus": "/static/audio/wordpool/RADISH.wav", "conditions": [24, 1600, "a", 24000], "internal_node_id": "0.0-114.0", "trial": 3, "time_elapsed": 2711777, "serialpos": 21, "key_press": -1, "wordID": 1157, "type": "PRES_AUD", "trial_index": 150}, "uniqueid": "MTK2897:386CSBG1O0TNI8CQSL90K2LEZ1I6QG", "dateTime": 1519586736277}, {"current_trial": 151, "trialdata": {"rt": -1000, "trial_type": "single-audio", "word": "spool", "stimulus": "/static/audio/wordpool/SPOOL.wav", "conditions": [24, 1600, "a", 24000], "internal_node_id": "0.0-115.0", "trial": 3, "time_elapsed": 2714549, "serialpos": 22, "key_press": -1, "wordID": 1355, "type": "PRES_AUD", "trial_index": 151}, "uniqueid": "MTK2897:386CSBG1O0TNI8CQSL90K2LEZ1I6QG", "dateTime": 1519586739049}, {"current_trial": 152, "trialdata": {"rt": -1000, "trial_type": "single-audio", "word": "agent", "stimulus": "/static/audio/wordpool/AGENT.wav", "conditions": [24, 1600, "a", 24000], "internal_node_id": "0.0-116.0", "trial": 3, "time_elapsed": 2717201, "serialpos": 23, "key_press": -1, "wordID": 9, "type": "PRES_AUD", "trial_index": 152}, "uniqueid": "MTK2897:386CSBG1O0TNI8CQSL90K2LEZ1I6QG", "dateTime": 1519586741701}, {"current_trial": 153, "trialdata": {"rt": -1, "trial_type": "single-stim", "stimulus": "", "internal_node_id": "0.0-117.0-0.0", "time_elapsed": 2718531, "key_press": -1, "type": "PRE_RECALL_DELAY", "trial_index": 153}, "uniqueid": "MTK2897:386CSBG1O0TNI8CQSL90K2LEZ1I6QG", "dateTime": 1519586743031}, {"current_trial": 154, "trialdata": {"rt": -1000, "trial_type": "single-audio", "stimulus": "/static/audio/400Hz.wav", "internal_node_id": "0.0-118.0", "time_elapsed": 2719040, "key_press": -1, "type": "PRE_RECALL_ALERT", "trial_index": 154}, "uniqueid": "MTK2897:386CSBG1O0TNI8CQSL90K2LEZ1I6QG", "dateTime": 1519586743540}, {"current_trial": 155, "trialdata": {"rt": [2117, 3314, 16169], "recwords": ["spool", "agent", "raddish"], "key_times": [1123, 1298, 1522, 1688, 1903, 2117, 2409, 2636, 2839, 2963, 3135, 3314, 14413, 14984, 15331, 15490, 15661, 15834, 15928, 16169, 32380, 33229], "trial_type": "free-recall", "conditions": [24, 1600, "a", 24000], "internal_node_id": "0.0-119.0-0.0", "key_presses": [83, 80, 79, 79, 76, 13, 65, 71, 69, 78, 84, 13, 82, 65, 68, 68, 73, 83, 72, 13, 66, 8], "trial": 3, "time_elapsed": 2779042, "type": "FREE_RECALL", "trial_index": 155}, "uniqueid": "MTK2897:386CSBG1O0TNI8CQSL90K2LEZ1I6QG", "dateTime": 1519586803544}, {"current_trial": 156, "trialdata": {"rt": 1383, "trial_type": "text", "internal_node_id": "0.0-120.0", "time_elapsed": 2782427, "key_press": 13, "type": "INSTRUCTIONS", "trial_index": 156}, "uniqueid": "MTK2897:386CSBG1O0TNI8CQSL90K2LEZ1I6QG", "dateTime": 1519586806927}, {"current_trial": 157, "trialdata": {"rt": [2424, 4562, 7043, 8820, 10779], "trial_type": "math-distractor", "key_times": [2110, 2210, 2424, 4205, 4364, 4562, 6769, 6922, 7043, 8498, 8678, 8820, 10431, 10551, 10779], "responses": ["15", "11", "22", "14", "12"], "num2": [5, 1, 8, 6, 3, 3], "num3": [8, 4, 9, 6, 6, 4], "conditions": [24, 800, "a", 12000], "internal_node_id": "0.0-121.0", "key_presses": [97, 101, 13, 97, 97, 13, 98, 98, 13, 97, 100, 13, 97, 98, 13], "trial": 4, "time_elapsed": 2796430, "type": "DISTRACTOR", "trial_index": 157, "num1": [2, 6, 5, 2, 3, 5]}, "uniqueid": "MTK2897:386CSBG1O0TNI8CQSL90K2LEZ1I6QG", "dateTime": 1519586820930}, {"current_trial": 158, "trialdata": {"rt": -1, "trial_type": "single-stim", "stimulus": "<p id=\"stim\">10</p>", "internal_node_id": "0.0-122.0-0.0", "time_elapsed": 2799431, "key_press": -1, "trial_index": 158}, "uniqueid": "MTK2897:386CSBG1O0TNI8CQSL90K2LEZ1I6QG", "dateTime": 1519586823931}, {"current_trial": 159, "trialdata": {"rt": -1, "trial_type": "single-stim", "stimulus": "<p id=\"stim\">9</p>", "internal_node_id": "0.0-122.0-1.0", "time_elapsed": 2800432, "key_press": -1, "trial_index": 159}, "uniqueid": "MTK2897:386CSBG1O0TNI8CQSL90K2LEZ1I6QG", "dateTime": 1519586824932}, {"current_trial": 160, "trialdata": {"rt": -1, "trial_type": "single-stim", "stimulus": "<p id=\"stim\">8</p>", "internal_node_id": "0.0-122.0-2.0", "time_elapsed": 2801433, "key_press": -1, "trial_index": 160}, "uniqueid": "MTK2897:386CSBG1O0TNI8CQSL90K2LEZ1I6QG", "dateTime": 1519586825933}, {"current_trial": 161, "trialdata": {"rt": -1, "trial_type": "single-stim", "stimulus": "<p id=\"stim\">7</p>", "internal_node_id": "0.0-122.0-3.0", "time_elapsed": 2802434, "key_press": -1, "trial_index": 161}, "uniqueid": "MTK2897:386CSBG1O0TNI8CQSL90K2LEZ1I6QG", "dateTime": 1519586826934}, {"current_trial": 162, "trialdata": {"rt": -1, "trial_type": "single-stim", "stimulus": "<p id=\"stim\">6</p>", "internal_node_id": "0.0-122.0-4.0", "time_elapsed": 2803435, "key_press": -1, "trial_index": 162}, "uniqueid": "MTK2897:386CSBG1O0TNI8CQSL90K2LEZ1I6QG", "dateTime": 1519586827935}, {"current_trial": 163, "trialdata": {"rt": -1, "trial_type": "single-stim", "stimulus": "<p id=\"stim\">5</p>", "internal_node_id": "0.0-122.0-5.0", "time_elapsed": 2804436, "key_press": -1, "trial_index": 163}, "uniqueid": "MTK2897:386CSBG1O0TNI8CQSL90K2LEZ1I6QG", "dateTime": 1519586828936}, {"current_trial": 164, "trialdata": {"rt": -1, "trial_type": "single-stim", "stimulus": "<p id=\"stim\">4</p>", "internal_node_id": "0.0-122.0-6.0", "time_elapsed": 2805437, "key_press": -1, "trial_index": 164}, "uniqueid": "MTK2897:386CSBG1O0TNI8CQSL90K2LEZ1I6QG", "dateTime": 1519586829938}, {"current_trial": 165, "trialdata": {"rt": -1, "trial_type": "single-stim", "stimulus": "<p id=\"stim\">3</p>", "internal_node_id": "0.0-122.0-7.0", "time_elapsed": 2806439, "key_press": -1, "trial_index": 165}, "uniqueid": "MTK2897:386CSBG1O0TNI8CQSL90K2LEZ1I6QG", "dateTime": 1519586830939}, {"current_trial": 166, "trialdata": {"rt": -1, "trial_type": "single-stim", "stimulus": "<p id=\"stim\">2</p>", "internal_node_id": "0.0-122.0-8.0", "time_elapsed": 2807439, "key_press": -1, "trial_index": 166}, "uniqueid": "MTK2897:386CSBG1O0TNI8CQSL90K2LEZ1I6QG", "dateTime": 1519586831940}, {"current_trial": 167, "trialdata": {"rt": -1, "trial_type": "single-stim", "stimulus": "<p id=\"stim\">1</p>", "internal_node_id": "0.0-122.0-9.0", "time_elapsed": 2808440, "key_press": -1, "trial_index": 167}, "uniqueid": "MTK2897:386CSBG1O0TNI8CQSL90K2LEZ1I6QG", "dateTime": 1519586832941}, {"current_trial": 168, "trialdata": {"rt": -1, "trial_type": "single-stim", "stimulus": "<p id=\"stim\">+</p>", "internal_node_id": "0.0-123.0-0.0", "time_elapsed": 2809942, "key_press": -1, "type": "FIXATION", "trial_index": 168}, "uniqueid": "MTK2897:386CSBG1O0TNI8CQSL90K2LEZ1I6QG", "dateTime": 1519586834442}, {"current_trial": 169, "trialdata": {"rt": -1000, "trial_type": "single-audio", "word": "apple", "stimulus": "/static/audio/wordpool/APPLE.wav", "conditions": [24, 800, "a", 12000], "internal_node_id": "0.0-124.0", "trial": 4, "time_elapsed": 2811728, "serialpos": 0, "key_press": -1, "wordID": 32, "type": "PRES_AUD", "trial_index": 169}, "uniqueid": "MTK2897:386CSBG1O0TNI8CQSL90K2LEZ1I6QG", "dateTime": 1519586836228}, {"current_trial": 170, "trialdata": {"rt": -1000, "trial_type": "single-audio", "word": "shrub", "stimulus": "/static/audio/wordpool/SHRUB.wav", "conditions": [24, 800, "a", 12000], "internal_node_id": "0.0-125.0", "trial": 4, "time_elapsed": 2813529, "serialpos": 1, "key_press": -1, "wordID": 1298, "type": "PRES_AUD", "trial_index": 170}, "uniqueid": "MTK2897:386CSBG1O0TNI8CQSL90K2LEZ1I6QG", "dateTime": 1519586838029}, {"current_trial": 171, "trialdata": {"rt": -1000, "trial_type": "single-audio", "word": "statue", "stimulus": "/static/audio/wordpool/STATUE.wav", "conditions": [24, 800, "a", 12000], "internal_node_id": "0.0-126.0", "trial": 4, "time_elapsed": 2815497, "serialpos": 2, "key_press": -1, "wordID": 1373, "type": "PRES_AUD", "trial_index": 171}, "uniqueid": "MTK2897:386CSBG1O0TNI8CQSL90K2LEZ1I6QG", "dateTime": 1519586839997}, {"current_trial": 172, "trialdata": {"rt": -1000, "trial_type": "single-audio", "word": "toaster", "stimulus": "/static/audio/wordpool/TOASTER.wav", "conditions": [24, 800, "a", 12000], "internal_node_id": "0.0-127.0", "trial": 4, "time_elapsed": 2817312, "serialpos": 3, "key_press": -1, "wordID": 1471, "type": "PRES_AUD", "trial_index": 172}, "uniqueid": "MTK2897:386CSBG1O0TNI8CQSL90K2LEZ1I6QG", "dateTime": 1519586841813}, {"current_trial": 173, "trialdata": {"rt": -1000, "trial_type": "single-audio", "word": "scarf", "stimulus": "/static/audio/wordpool/SCARF.wav", "conditions": [24, 800, "a", 12000], "internal_node_id": "0.0-128.0", "trial": 4, "time_elapsed": 2819224, "serialpos": 4, "key_press": -1, "wordID": 1245, "type": "PRES_AUD", "trial_index": 173}, "uniqueid": "MTK2897:386CSBG1O0TNI8CQSL90K2LEZ1I6QG", "dateTime": 1519586843724}, {"current_trial": 174, "trialdata": {"rt": -1000, "trial_type": "single-audio", "word": "blouse", "stimulus": "/static/audio/wordpool/BLOUSE.wav", "conditions": [24, 800, "a", 12000], "internal_node_id": "0.0-129.0", "trial": 4, "time_elapsed": 2820945, "serialpos": 5, "key_press": -1, "wordID": 138, "type": "PRES_AUD", "trial_index": 174}, "uniqueid": "MTK2897:386CSBG1O0TNI8CQSL90K2LEZ1I6QG", "dateTime": 1519586845445}, {"current_trial": 175, "trialdata": {"rt": -1000, "trial_type": "single-audio", "word": "orchid", "stimulus": "/static/audio/wordpool/ORCHID.wav", "conditions": [24, 800, "a", 12000], "internal_node_id": "0.0-130.0", "trial": 4, "time_elapsed": 2822712, "serialpos": 6, "key_press": -1, "wordID": 981, "type": "PRES_AUD", "trial_index": 175}, "uniqueid": "MTK2897:386CSBG1O0TNI8CQSL90K2LEZ1I6QG", "dateTime": 1519586847212}, {"current_trial": 176, "trialdata": {"rt": -1000, "trial_type": "single-audio", "word": "permit", "stimulus": "/static/audio/wordpool/PERMIT.wav", "conditions": [24, 800, "a", 12000], "internal_node_id": "0.0-131.0", "trial": 4, "time_elapsed": 2824591, "serialpos": 7, "key_press": -1, "wordID": 1050, "type": "PRES_AUD", "trial_index": 176}, "uniqueid": "MTK2897:386CSBG1O0TNI8CQSL90K2LEZ1I6QG", "dateTime": 1519586849091}, {"current_trial": 177, "trialdata": {"rt": -1000, "trial_type": "single-audio", "word": "laser", "stimulus": "/static/audio/wordpool/LASER.wav", "conditions": [24, 800, "a", 12000], "internal_node_id": "0.0-132.0", "trial": 4, "time_elapsed": 2826436, "serialpos": 8, "key_press": -1, "wordID": 800, "type": "PRES_AUD", "trial_index": 177}, "uniqueid": "MTK2897:386CSBG1O0TNI8CQSL90K2LEZ1I6QG", "dateTime": 1519586850936}, {"current_trial": 178, "trialdata": {"rt": -1000, "trial_type": "single-audio", "word": "tweezers", "stimulus": "/static/audio/wordpool/TWEEZERS.wav", "conditions": [24, 800, "a", 12000], "internal_node_id": "0.0-133.0", "trial": 4, "time_elapsed": 2828421, "serialpos": 9, "key_press": -1, "wordID": 1525, "type": "PRES_AUD", "trial_index": 178}, "uniqueid": "MTK2897:386CSBG1O0TNI8CQSL90K2LEZ1I6QG", "dateTime": 1519586852921}, {"current_trial": 179, "trialdata": {"rt": -1000, "trial_type": "single-audio", "word": "lightning", "stimulus": "/static/audio/wordpool/LIGHTNING.wav", "conditions": [24, 800, "a", 12000], "internal_node_id": "0.0-134.0", "trial": 4, "time_elapsed": 2830297, "serialpos": 10, "key_press": -1, "wordID": 819, "type": "PRES_AUD", "trial_index": 179}, "uniqueid": "MTK2897:386CSBG1O0TNI8CQSL90K2LEZ1I6QG", "dateTime": 1519586854797}, {"current_trial": 180, "trialdata": {"rt": -1000, "trial_type": "single-audio", "word": "dorm", "stimulus": "/static/audio/wordpool/DORM.wav", "conditions": [24, 800, "a", 12000], "internal_node_id": "0.0-135.0", "trial": 4, "time_elapsed": 2832065, "serialpos": 11, "key_press": -1, "wordID": 487, "type": "PRES_AUD", "trial_index": 180}, "uniqueid": "MTK2897:386CSBG1O0TNI8CQSL90K2LEZ1I6QG", "dateTime": 1519586856565}, {"current_trial": 181, "trialdata": {"rt": -1000, "trial_type": "single-audio", "word": "lace", "stimulus": "/static/audio/wordpool/LACE.wav", "conditions": [24, 800, "a", 12000], "internal_node_id": "0.0-136.0", "trial": 4, "time_elapsed": 2833880, "serialpos": 12, "key_press": -1, "wordID": 791, "type": "PRES_AUD", "trial_index": 181}, "uniqueid": "MTK2897:386CSBG1O0TNI8CQSL90K2LEZ1I6QG", "dateTime": 1519586858380}, {"current_trial": 182, "trialdata": {"rt": -1000, "trial_type": "single-audio", "word": "xerox", "stimulus": "/static/audio/wordpool/XEROX.wav", "conditions": [24, 800, "a", 12000], "internal_node_id": "0.0-137.0", "trial": 4, "time_elapsed": 2835500, "serialpos": 13, "key_press": -1, "wordID": 1627, "type": "PRES_AUD", "trial_index": 182}, "uniqueid": "MTK2897:386CSBG1O0TNI8CQSL90K2LEZ1I6QG", "dateTime": 1519586860000}, {"current_trial": 183, "trialdata": {"rt": -1000, "trial_type": "single-audio", "word": "trout", "stimulus": "/static/audio/wordpool/TROUT.wav", "conditions": [24, 800, "a", 12000], "internal_node_id": "0.0-138.0", "trial": 4, "time_elapsed": 2837203, "serialpos": 14, "key_press": -1, "wordID": 1510, "type": "PRES_AUD", "trial_index": 183}, "uniqueid": "MTK2897:386CSBG1O0TNI8CQSL90K2LEZ1I6QG", "dateTime": 1519586861703}, {"current_trial": 184, "trialdata": {"rt": -1000, "trial_type": "single-audio", "word": "cobra", "stimulus": "/static/audio/wordpool/COBRA.wav", "conditions": [24, 800, "a", 12000], "internal_node_id": "0.0-139.0", "trial": 4, "time_elapsed": 2839110, "serialpos": 15, "key_press": -1, "wordID": 335, "type": "PRES_AUD", "trial_index": 184}, "uniqueid": "MTK2897:386CSBG1O0TNI8CQSL90K2LEZ1I6QG", "dateTime": 1519586863610}, {"current_trial": 185, "trialdata": {"rt": -1000, "trial_type": "single-audio", "word": "carrot", "stimulus": "/static/audio/wordpool/CARROT.wav", "conditions": [24, 800, "a", 12000], "internal_node_id": "0.0-140.0", "trial": 4, "time_elapsed": 2840942, "serialpos": 16, "key_press": -1, "wordID": 248, "type": "PRES_AUD", "trial_index": 185}, "uniqueid": "MTK2897:386CSBG1O0TNI8CQSL90K2LEZ1I6QG", "dateTime": 1519586865442}, {"current_trial": 186, "trialdata": {"rt": -1000, "trial_type": "single-audio", "word": "peach", "stimulus": "/static/audio/wordpool/PEACH.wav", "conditions": [24, 800, "a", 12000], "internal_node_id": "0.0-141.0", "trial": 4, "time_elapsed": 2842926, "serialpos": 17, "key_press": -1, "wordID": 1030, "type": "PRES_AUD", "trial_index": 186}, "uniqueid": "MTK2897:386CSBG1O0TNI8CQSL90K2LEZ1I6QG", "dateTime": 1519586867426}, {"current_trial": 187, "trialdata": {"rt": -1000, "trial_type": "single-audio", "word": "patrol", "stimulus": "/static/audio/wordpool/PATROL.wav", "conditions": [24, 800, "a", 12000], "internal_node_id": "0.0-142.0", "trial": 4, "time_elapsed": 2844840, "serialpos": 18, "key_press": -1, "wordID": 1026, "type": "PRES_AUD", "trial_index": 187}, "uniqueid": "MTK2897:386CSBG1O0TNI8CQSL90K2LEZ1I6QG", "dateTime": 1519586869340}, {"current_trial": 188, "trialdata": {"rt": -1000, "trial_type": "single-audio", "word": "police", "stimulus": "/static/audio/wordpool/POLICE.wav", "conditions": [24, 800, "a", 12000], "internal_node_id": "0.0-143.0", "trial": 4, "time_elapsed": 2846665, "serialpos": 19, "key_press": -1, "wordID": 1097, "type": "PRES_AUD", "trial_index": 188}, "uniqueid": "MTK2897:386CSBG1O0TNI8CQSL90K2LEZ1I6QG", "dateTime": 1519586871165}, {"current_trial": 189, "trialdata": {"rt": -1000, "trial_type": "single-audio", "word": "marsh", "stimulus": "/static/audio/wordpool/MARSH.wav", "conditions": [24, 800, "a", 12000], "internal_node_id": "0.0-144.0", "trial": 4, "time_elapsed": 2848464, "serialpos": 20, "key_press": -1, "wordID": 873, "type": "PRES_AUD", "trial_index": 189}, "uniqueid": "MTK2897:386CSBG1O0TNI8CQSL90K2LEZ1I6QG", "dateTime": 1519586872964}, {"current_trial": 190, "trialdata": {"rt": -1000, "trial_type": "single-audio", "word": "goblin", "stimulus": "/static/audio/wordpool/GOBLIN.wav", "conditions": [24, 800, "a", 12000], "internal_node_id": "0.0-145.0", "trial": 4, "time_elapsed": 2850401, "serialpos": 21, "key_press": -1, "wordID": 644, "type": "PRES_AUD", "trial_index": 190}, "uniqueid": "MTK2897:386CSBG1O0TNI8CQSL90K2LEZ1I6QG", "dateTime": 1519586874901}, {"current_trial": 191, "trialdata": {"rt": -1000, "trial_type": "single-audio", "word": "grape", "stimulus": "/static/audio/wordpool/GRAPE.wav", "conditions": [24, 800, "a", 12000], "internal_node_id": "0.0-146.0", "trial": 4, "time_elapsed": 2852145, "serialpos": 22, "key_press": -1, "wordID": 653, "type": "PRES_AUD", "trial_index": 191}, "uniqueid": "MTK2897:386CSBG1O0TNI8CQSL90K2LEZ1I6QG", "dateTime": 1519586876646}, {"current_trial": 192, "trialdata": {"rt": -1000, "trial_type": "single-audio", "word": "marine", "stimulus": "/static/audio/wordpool/MARINE.wav", "conditions": [24, 800, "a", 12000], "internal_node_id": "0.0-147.0", "trial": 4, "time_elapsed": 2853826, "serialpos": 23, "key_press": -1, "wordID": 868, "type": "PRES_AUD", "trial_index": 192}, "uniqueid": "MTK2897:386CSBG1O0TNI8CQSL90K2LEZ1I6QG", "dateTime": 1519586878326}, {"current_trial": 193, "trialdata": {"rt": -1, "trial_type": "single-stim", "stimulus": "", "internal_node_id": "0.0-148.0-0.0", "time_elapsed": 2855187, "key_press": -1, "type": "PRE_RECALL_DELAY", "trial_index": 193}, "uniqueid": "MTK2897:386CSBG1O0TNI8CQSL90K2LEZ1I6QG", "dateTime": 1519586879687}, {"current_trial": 194, "trialdata": {"rt": -1000, "trial_type": "single-audio", "stimulus": "/static/audio/400Hz.wav", "internal_node_id": "0.0-149.0", "time_elapsed": 2855690, "key_press": -1, "type": "PRE_RECALL_ALERT", "trial_index": 194}, "uniqueid": "MTK2897:386CSBG1O0TNI8CQSL90K2LEZ1I6QG", "dateTime": 1519586880190}, {"current_trial": 195, "trialdata": {"rt": [1712, 4986, 6603, 10336, 14899, 28900, 39178], "recwords": ["marine", "goblin", "marsh", "police", "orchid", "chase", "toaster"], "key_times": [829, 975, 1107, 1250, 1400, 1505, 1712, 2729, 3083, 3300, 3412, 3644, 3857, 4186, 4670, 4986, 5645, 5739, 5861, 6088, 6253, 6603, 9122, 9363, 9600, 9766, 9903, 10121, 10336, 13826, 13975, 14228, 14362, 14456, 14620, 14899, 28274, 28428, 28544, 28621, 28762, 28900, 38070, 38212, 38334, 38471, 38729, 38923, 39025, 39178], "trial_type": "free-recall", "conditions": [24, 800, "a", 12000], "internal_node_id": "0.0-150.0-0.0", "key_presses": [77, 65, 82, 73, 78, 69, 13, 71, 79, 66, 76, 73, 78, 8, 78, 13, 77, 65, 82, 83, 72, 13, 80, 79, 76, 73, 67, 69, 13, 79, 82, 67, 72, 73, 68, 13, 67, 72, 65, 83, 69, 13, 84, 79, 65, 83, 84, 69, 82, 13], "trial": 4, "time_elapsed": 2915692, "type": "FREE_RECALL", "trial_index": 195}, "uniqueid": "MTK2897:386CSBG1O0TNI8CQSL90K2LEZ1I6QG", "dateTime": 1519586940194}, {"current_trial": 196, "trialdata": {"rt": 1121, "trial_type": "text", "internal_node_id": "0.0-151.0", "time_elapsed": 2918815, "key_press": 13, "type": "INSTRUCTIONS", "trial_index": 196}, "uniqueid": "MTK2897:386CSBG1O0TNI8CQSL90K2LEZ1I6QG", "dateTime": 1519586943315}, {"current_trial": 197, "trialdata": {"rt": [2045, 4133, 5645, 7843, 9471, 10570, 11823], "trial_type": "math-distractor", "key_times": [1773, 1912, 2045, 3825, 3950, 4133, 5268, 5409, 5645, 7485, 7707, 7843, 9224, 9356, 9471, 10425, 10570, 11497, 11587, 11823], "responses": ["22", "16", "19", "17", "11", "5", "12"], "num2": [8, 7, 8, 9, 3, 2, 5, 5], "num3": [9, 6, 2, 3, 6, 1, 6, 1], "conditions": [24, 800, "a", 12000], "internal_node_id": "0.0-152.0", "key_presses": [98, 98, 13, 97, 102, 13, 97, 105, 13, 97, 103, 13, 97, 97, 13, 101, 13, 97, 98, 13], "trial": 5, "time_elapsed": 2932817, "type": "DISTRACTOR", "trial_index": 197, "num1": [5, 3, 9, 5, 2, 2, 1, 2]}, "uniqueid": "MTK2897:386CSBG1O0TNI8CQSL90K2LEZ1I6QG", "dateTime": 1519586957317}, {"current_trial": 198, "trialdata": {"rt": -1, "trial_type": "single-stim", "stimulus": "<p id=\"stim\">10</p>", "internal_node_id": "0.0-153.0-0.0", "time_elapsed": 2935819, "key_press": -1, "trial_index": 198}, "uniqueid": "MTK2897:386CSBG1O0TNI8CQSL90K2LEZ1I6QG", "dateTime": 1519586960319}, {"current_trial": 199, "trialdata": {"rt": -1, "trial_type": "single-stim", "stimulus": "<p id=\"stim\">9</p>", "internal_node_id": "0.0-153.0-1.0", "time_elapsed": 2936820, "key_press": -1, "trial_index": 199}, "uniqueid": "MTK2897:386CSBG1O0TNI8CQSL90K2LEZ1I6QG", "dateTime": 1519586961320}, {"current_trial": 200, "trialdata": {"rt": -1, "trial_type": "single-stim", "stimulus": "<p id=\"stim\">8</p>", "internal_node_id": "0.0-153.0-2.0", "time_elapsed": 2937822, "key_press": -1, "trial_index": 200}, "uniqueid": "MTK2897:386CSBG1O0TNI8CQSL90K2LEZ1I6QG", "dateTime": 1519586962323}, {"current_trial": 201, "trialdata": {"rt": -1, "trial_type": "single-stim", "stimulus": "<p id=\"stim\">7</p>", "internal_node_id": "0.0-153.0-3.0", "time_elapsed": 2938823, "key_press": -1, "trial_index": 201}, "uniqueid": "MTK2897:386CSBG1O0TNI8CQSL90K2LEZ1I6QG", "dateTime": 1519586963323}, {"current_trial": 202, "trialdata": {"rt": -1, "trial_type": "single-stim", "stimulus": "<p id=\"stim\">6</p>", "internal_node_id": "0.0-153.0-4.0", "time_elapsed": 2939824, "key_press": -1, "trial_index": 202}, "uniqueid": "MTK2897:386CSBG1O0TNI8CQSL90K2LEZ1I6QG", "dateTime": 1519586964324}, {"current_trial": 203, "trialdata": {"rt": -1, "trial_type": "single-stim", "stimulus": "<p id=\"stim\">5</p>", "internal_node_id": "0.0-153.0-5.0", "time_elapsed": 2940826, "key_press": -1, "trial_index": 203}, "uniqueid": "MTK2897:386CSBG1O0TNI8CQSL90K2LEZ1I6QG", "dateTime": 1519586965326}, {"current_trial": 204, "trialdata": {"rt": -1, "trial_type": "single-stim", "stimulus": "<p id=\"stim\">4</p>", "internal_node_id": "0.0-153.0-6.0", "time_elapsed": 2941827, "key_press": -1, "trial_index": 204}, "uniqueid": "MTK2897:386CSBG1O0TNI8CQSL90K2LEZ1I6QG", "dateTime": 1519586966327}, {"current_trial": 205, "trialdata": {"rt": -1, "trial_type": "single-stim", "stimulus": "<p id=\"stim\">3</p>", "internal_node_id": "0.0-153.0-7.0", "time_elapsed": 2942829, "key_press": -1, "trial_index": 205}, "uniqueid": "MTK2897:386CSBG1O0TNI8CQSL90K2LEZ1I6QG", "dateTime": 1519586967329}, {"current_trial": 206, "trialdata": {"rt": -1, "trial_type": "single-stim", "stimulus": "<p id=\"stim\">2</p>", "internal_node_id": "0.0-153.0-8.0", "time_elapsed": 2943831, "key_press": -1, "trial_index": 206}, "uniqueid": "MTK2897:386CSBG1O0TNI8CQSL90K2LEZ1I6QG", "dateTime": 1519586968331}, {"current_trial": 207, "trialdata": {"rt": -1, "trial_type": "single-stim", "stimulus": "<p id=\"stim\">1</p>", "internal_node_id": "0.0-153.0-9.0", "time_elapsed": 2944832, "key_press": -1, "trial_index": 207}, "uniqueid": "MTK2897:386CSBG1O0TNI8CQSL90K2LEZ1I6QG", "dateTime": 1519586969332}, {"current_trial": 208, "trialdata": {"rt": -1, "trial_type": "single-stim", "stimulus": "<p id=\"stim\">+</p>", "internal_node_id": "0.0-154.0-0.0", "time_elapsed": 2946333, "key_press": -1, "type": "FIXATION", "trial_index": 208}, "uniqueid": "MTK2897:386CSBG1O0TNI8CQSL90K2LEZ1I6QG", "dateTime": 1519586970834}, {"current_trial": 209, "trialdata": {"rt": -1000, "trial_type": "single-audio", "word": "baby", "stimulus": "/static/audio/wordpool/BABY.wav", "conditions": [24, 800, "a", 12000], "internal_node_id": "0.0-155.0", "trial": 5, "time_elapsed": 2948204, "serialpos": 0, "key_press": -1, "wordID": 63, "type": "PRES_AUD", "trial_index": 209}, "uniqueid": "MTK2897:386CSBG1O0TNI8CQSL90K2LEZ1I6QG", "dateTime": 1519586972704}, {"current_trial": 210, "trialdata": {"rt": -1000, "trial_type": "single-audio", "word": "piano", "stimulus": "/static/audio/wordpool/PIANO.wav", "conditions": [24, 800, "a", 12000], "internal_node_id": "0.0-156.0", "trial": 5, "time_elapsed": 2949924, "serialpos": 1, "key_press": -1, "wordID": 1056, "type": "PRES_AUD", "trial_index": 210}, "uniqueid": "MTK2897:386CSBG1O0TNI8CQSL90K2LEZ1I6QG", "dateTime": 1519586974424}, {"current_trial": 211, "trialdata": {"rt": -1000, "trial_type": "single-audio", "word": "flute", "stimulus": "/static/audio/wordpool/FLUTE.wav", "conditions": [24, 800, "a", 12000], "internal_node_id": "0.0-157.0", "trial": 5, "time_elapsed": 2951786, "serialpos": 2, "key_press": -1, "wordID": 584, "type": "PRES_AUD", "trial_index": 211}, "uniqueid": "MTK2897:386CSBG1O0TNI8CQSL90K2LEZ1I6QG", "dateTime": 1519586976286}, {"current_trial": 212, "trialdata": {"rt": -1000, "trial_type": "single-audio", "word": "virus", "stimulus": "/static/audio/wordpool/VIRUS.wav", "conditions": [24, 800, "a", 12000], "internal_node_id": "0.0-158.0", "trial": 5, "time_elapsed": 2953784, "serialpos": 3, "key_press": -1, "wordID": 1571, "type": "PRES_AUD", "trial_index": 212}, "uniqueid": "MTK2897:386CSBG1O0TNI8CQSL90K2LEZ1I6QG", "dateTime": 1519586978284}, {"current_trial": 213, "trialdata": {"rt": -1000, "trial_type": "single-audio", "word": "couch", "stimulus": "/static/audio/wordpool/COUCH.wav", "conditions": [24, 800, "a", 12000], "internal_node_id": "0.0-159.0", "trial": 5, "time_elapsed": 2955460, "serialpos": 4, "key_press": -1, "wordID": 385, "type": "PRES_AUD", "trial_index": 213}, "uniqueid": "MTK2897:386CSBG1O0TNI8CQSL90K2LEZ1I6QG", "dateTime": 1519586979960}, {"current_trial": 214, "trialdata": {"rt": -1000, "trial_type": "single-audio", "word": "hand", "stimulus": "/static/audio/wordpool/HAND.wav", "conditions": [24, 800, "a", 12000], "internal_node_id": "0.0-160.0", "trial": 5, "time_elapsed": 2957200, "serialpos": 5, "key_press": -1, "wordID": 682, "type": "PRES_AUD", "trial_index": 214}, "uniqueid": "MTK2897:386CSBG1O0TNI8CQSL90K2LEZ1I6QG", "dateTime": 1519586981700}, {"current_trial": 215, "trialdata": {"rt": -1000, "trial_type": "single-audio", "word": "county", "stimulus": "/static/audio/wordpool/COUNTY.wav", "conditions": [24, 800, "a", 12000], "internal_node_id": "0.0-161.0", "trial": 5, "time_elapsed": 2958814, "serialpos": 6, "key_press": -1, "wordID": 388, "type": "PRES_AUD", "trial_index": 215}, "uniqueid": "MTK2897:386CSBG1O0TNI8CQSL90K2LEZ1I6QG", "dateTime": 1519586983314}, {"current_trial": 216, "trialdata": {"rt": -1000, "trial_type": "single-audio", "word": "woman", "stimulus": "/static/audio/wordpool/WOMAN.wav", "conditions": [24, 800, "a", 12000], "internal_node_id": "0.0-162.0", "trial": 5, "time_elapsed": 2960613, "serialpos": 7, "key_press": -1, "wordID": 1619, "type": "PRES_AUD", "trial_index": 216}, "uniqueid": "MTK2897:386CSBG1O0TNI8CQSL90K2LEZ1I6QG", "dateTime": 1519586985113}, {"current_trial": 217, "trialdata": {"rt": -1000, "trial_type": "single-audio", "word": "expert", "stimulus": "/static/audio/wordpool/EXPERT.wav", "conditions": [24, 800, "a", 12000], "internal_node_id": "0.0-163.0", "trial": 5, "time_elapsed": 2962414, "serialpos": 8, "key_press": -1, "wordID": 542, "type": "PRES_AUD", "trial_index": 217}, "uniqueid": "MTK2897:386CSBG1O0TNI8CQSL90K2LEZ1I6QG", "dateTime": 1519586986914}, {"current_trial": 218, "trialdata": {"rt": -1000, "trial_type": "single-audio", "word": "bug", "stimulus": "/static/audio/wordpool/BUG.wav", "conditions": [24, 800, "a", 12000], "internal_node_id": "0.0-164.0", "trial": 5, "time_elapsed": 2964140, "serialpos": 9, "key_press": -1, "wordID": 186, "type": "PRES_AUD", "trial_index": 218}, "uniqueid": "MTK2897:386CSBG1O0TNI8CQSL90K2LEZ1I6QG", "dateTime": 1519586988640}, {"current_trial": 219, "trialdata": {"rt": -1000, "trial_type": "single-audio", "word": "kidney", "stimulus": "/static/audio/wordpool/KIDNEY.wav", "conditions": [24, 800, "a", 12000], "internal_node_id": "0.0-165.0", "trial": 5, "time_elapsed": 2965801, "serialpos": 10, "key_press": -1, "wordID": 775, "type": "PRES_AUD", "trial_index": 219}, "uniqueid": "MTK2897:386CSBG1O0TNI8CQSL90K2LEZ1I6QG", "dateTime": 1519586990301}, {"current_trial": 220, "trialdata": {"rt": -1000, "trial_type": "single-audio", "word": "pliers", "stimulus": "/static/audio/wordpool/PLIERS.wav", "conditions": [24, 800, "a", 12000], "internal_node_id": "0.0-166.0", "trial": 5, "time_elapsed": 2967412, "serialpos": 11, "key_press": -1, "wordID": 1088, "type": "PRES_AUD", "trial_index": 220}, "uniqueid": "MTK2897:386CSBG1O0TNI8CQSL90K2LEZ1I6QG", "dateTime": 1519586991912}, {"current_trial": 221, "trialdata": {"rt": -1000, "trial_type": "single-audio", "word": "wife", "stimulus": "/static/audio/wordpool/WIFE.wav", "conditions": [24, 800, "a", 12000], "internal_node_id": "0.0-167.0", "trial": 5, "time_elapsed": 2969174, "serialpos": 12, "key_press": -1, "wordID": 1608, "type": "PRES_AUD", "trial_index": 221}, "uniqueid": "MTK2897:386CSBG1O0TNI8CQSL90K2LEZ1I6QG", "dateTime": 1519586993674}, {"current_trial": 222, "trialdata": {"rt": -1000, "trial_type": "single-audio", "word": "picture", "stimulus": "/static/audio/wordpool/PICTURE.wav", "conditions": [24, 800, "a", 12000], "internal_node_id": "0.0-168.0", "trial": 5, "time_elapsed": 2971019, "serialpos": 13, "key_press": -1, "wordID": 1060, "type": "PRES_AUD", "trial_index": 222}, "uniqueid": "MTK2897:386CSBG1O0TNI8CQSL90K2LEZ1I6QG", "dateTime": 1519586995519}, {"current_trial": 223, "trialdata": {"rt": -1000, "trial_type": "single-audio", "word": "suitcase", "stimulus": "/static/audio/wordpool/SUITCASE.wav", "conditions": [24, 800, "a", 12000], "internal_node_id": "0.0-169.0", "trial": 5, "time_elapsed": 2972635, "serialpos": 14, "key_press": -1, "wordID": 1402, "type": "PRES_AUD", "trial_index": 223}, "uniqueid": "MTK2897:386CSBG1O0TNI8CQSL90K2LEZ1I6QG", "dateTime": 1519586997135}, {"current_trial": 224, "trialdata": {"rt": -1000, "trial_type": "single-audio", "word": "airport", "stimulus": "/static/audio/wordpool/AIRPORT.wav", "conditions": [24, 800, "a", 12000], "internal_node_id": "0.0-170.0", "trial": 5, "time_elapsed": 2974503, "serialpos": 15, "key_press": -1, "wordID": 12, "type": "PRES_AUD", "trial_index": 224}, "uniqueid": "MTK2897:386CSBG1O0TNI8CQSL90K2LEZ1I6QG", "dateTime": 1519586999003}, {"current_trial": 225, "trialdata": {"rt": -1000, "trial_type": "single-audio", "word": "napkin", "stimulus": "/static/audio/wordpool/NAPKIN.wav", "conditions": [24, 800, "a", 12000], "internal_node_id": "0.0-171.0", "trial": 5, "time_elapsed": 2976118, "serialpos": 16, "key_press": -1, "wordID": 936, "type": "PRES_AUD", "trial_index": 225}, "uniqueid": "MTK2897:386CSBG1O0TNI8CQSL90K2LEZ1I6QG", "dateTime": 1519587000618}, {"current_trial": 226, "trialdata": {"rt": -1000, "trial_type": "single-audio", "word": "gangster", "stimulus": "/static/audio/wordpool/GANGSTER.wav", "conditions": [24, 800, "a", 12000], "internal_node_id": "0.0-172.0", "trial": 5, "time_elapsed": 2977856, "serialpos": 17, "key_press": -1, "wordID": 619, "type": "PRES_AUD", "trial_index": 226}, "uniqueid": "MTK2897:386CSBG1O0TNI8CQSL90K2LEZ1I6QG", "dateTime": 1519587002356}, {"current_trial": 227, "trialdata": {"rt": -1000, "trial_type": "single-audio", "word": "portrait", "stimulus": "/static/audio/wordpool/PORTRAIT.wav", "conditions": [24, 800, "a", 12000], "internal_node_id": "0.0-173.0", "trial": 5, "time_elapsed": 2979600, "serialpos": 18, "key_press": -1, "wordID": 1110, "type": "PRES_AUD", "trial_index": 227}, "uniqueid": "MTK2897:386CSBG1O0TNI8CQSL90K2LEZ1I6QG", "dateTime": 1519587004100}, {"current_trial": 228, "trialdata": {"rt": -1000, "trial_type": "single-audio", "word": "beaver", "stimulus": "/static/audio/wordpool/BEAVER.wav", "conditions": [24, 800, "a", 12000], "internal_node_id": "0.0-174.0", "trial": 5, "time_elapsed": 2981222, "serialpos": 19, "key_press": -1, "wordID": 108, "type": "PRES_AUD", "trial_index": 228}, "uniqueid": "MTK2897:386CSBG1O0TNI8CQSL90K2LEZ1I6QG", "dateTime": 1519587005722}, {"current_trial": 229, "trialdata": {"rt": -1000, "trial_type": "single-audio", "word": "chipmunk", "stimulus": "/static/audio/wordpool/CHIPMUNK.wav", "conditions": [24, 800, "a", 12000], "internal_node_id": "0.0-175.0", "trial": 5, "time_elapsed": 2983076, "serialpos": 20, "key_press": -1, "wordID": 303, "type": "PRES_AUD", "trial_index": 229}, "uniqueid": "MTK2897:386CSBG1O0TNI8CQSL90K2LEZ1I6QG", "dateTime": 1519587007576}, {"current_trial": 230, "trialdata": {"rt": -1000, "trial_type": "single-audio", "word": "snake", "stimulus": "/static/audio/wordpool/SNAKE.wav", "conditions": [24, 800, "a", 12000], "internal_node_id": "0.0-176.0", "trial": 5, "time_elapsed": 2984777, "serialpos": 21, "key_press": -1, "wordID": 1332, "type": "PRES_AUD", "trial_index": 230}, "uniqueid": "MTK2897:386CSBG1O0TNI8CQSL90K2LEZ1I6QG", "dateTime": 1519587009277}, {"current_trial": 231, "trialdata": {"rt": -1000, "trial_type": "single-audio", "word": "clothes", "stimulus": "/static/audio/wordpool/CLOTHES.wav", "conditions": [24, 800, "a", 12000], "internal_node_id": "0.0-177.0", "trial": 5, "time_elapsed": 2986638, "serialpos": 22, "key_press": -1, "wordID": 326, "type": "PRES_AUD", "trial_index": 231}, "uniqueid": "MTK2897:386CSBG1O0TNI8CQSL90K2LEZ1I6QG", "dateTime": 1519587011138}, {"current_trial": 232, "trialdata": {"rt": -1000, "trial_type": "single-audio", "word": "tile", "stimulus": "/static/audio/wordpool/TILE.wav", "conditions": [24, 800, "a", 12000], "internal_node_id": "0.0-178.0", "trial": 5, "time_elapsed": 2988547, "serialpos": 23, "key_press": -1, "wordID": 1467, "type": "PRES_AUD", "trial_index": 232}, "uniqueid": "MTK2897:386CSBG1O0TNI8CQSL90K2LEZ1I6QG", "dateTime": 1519587013047}, {"current_trial": 233, "trialdata": {"rt": -1, "trial_type": "single-stim", "stimulus": "", "internal_node_id": "0.0-179.0-0.0", "time_elapsed": 2989854, "key_press": -1, "type": "PRE_RECALL_DELAY", "trial_index": 233}, "uniqueid": "MTK2897:386CSBG1O0TNI8CQSL90K2LEZ1I6QG", "dateTime": 1519587014354}, {"current_trial": 234, "trialdata": {"rt": -1000, "trial_type": "single-audio", "stimulus": "/static/audio/400Hz.wav", "internal_node_id": "0.0-180.0", "time_elapsed": 2990361, "key_press": -1, "type": "PRE_RECALL_ALERT", "trial_index": 234}, "uniqueid": "MTK2897:386CSBG1O0TNI8CQSL90K2LEZ1I6QG", "dateTime": 1519587014861}, {"current_trial": 235, "trialdata": {"rt": [1897, 3085, 4424, 6176, 7369, 8760, 11526], "recwords": ["clothes", "tile", "wife", "picture", "suit", "case", "airport"], "key_times": [423, 526, 688, 1268, 1395, 1526, 1681, 1897, 2236, 2291, 2582, 2692, 3085, 3493, 3609, 3779, 3891, 4424, 5235, 5432, 5552, 5749, 5860, 5970, 6037, 6176, 6589, 6691, 6786, 6964, 7369, 7562, 8352, 8477, 8599, 8760, 10594, 10733, 10855, 10963, 11134, 11227, 11393, 11526], "trial_type": "free-recall", "conditions": [24, 800, "a", 12000], "internal_node_id": "0.0-181.0-0.0", "key_presses": [67, 76, 79, 84, 72, 69, 83, 13, 84, 73, 76, 69, 13, 87, 73, 70, 69, 13, 80, 73, 67, 84, 85, 82, 69, 13, 83, 85, 73, 84, 32, 67, 65, 83, 69, 13, 65, 73, 82, 80, 79, 82, 84, 13], "trial": 5, "time_elapsed": 3050362, "type": "FREE_RECALL", "trial_index": 235}, "uniqueid": "MTK2897:386CSBG1O0TNI8CQSL90K2LEZ1I6QG", "dateTime": 1519587074864}, {"current_trial": 236, "trialdata": {"rt": 1048, "trial_type": "text", "internal_node_id": "0.0-182.0", "time_elapsed": 3053414, "key_press": 13, "type": "INSTRUCTIONS", "trial_index": 236}, "uniqueid": "MTK2897:386CSBG1O0TNI8CQSL90K2LEZ1I6QG", "dateTime": 1519587077914}, {"current_trial": 237, "trialdata": {"rt": [3058, 4517, 7638, 9062, 10323, 11747], "trial_type": "math-distractor", "key_times": [1521, 1635, 2353, 2845, 3058, 4250, 4329, 4517, 7278, 7463, 7638, 8780, 8856, 9062, 9968, 10107, 10323, 11505, 11747], "responses": ["13", "16", "23", "15", "18", "8"], "num2": [6, 6, 8, 1, 5, 3, 1], "num3": [2, 8, 9, 5, 8, 4, 1], "conditions": [12, 800, "a", 12000], "internal_node_id": "0.0-183.0", "key_presses": [97, 98, 8, 99, 13, 97, 102, 13, 98, 99, 13, 97, 101, 13, 97, 104, 13, 104, 13], "trial": 6, "time_elapsed": 3067416, "type": "DISTRACTOR", "trial_index": 237, "num1": [5, 2, 6, 9, 5, 1, 9]}, "uniqueid": "MTK2897:386CSBG1O0TNI8CQSL90K2LEZ1I6QG", "dateTime": 1519587091916}, {"current_trial": 238, "trialdata": {"rt": -1, "trial_type": "single-stim", "stimulus": "<p id=\"stim\">10</p>", "internal_node_id": "0.0-184.0-0.0", "time_elapsed": 3070418, "key_press": -1, "trial_index": 238}, "uniqueid": "MTK2897:386CSBG1O0TNI8CQSL90K2LEZ1I6QG", "dateTime": 1519587094918}, {"current_trial": 239, "trialdata": {"rt": -1, "trial_type": "single-stim", "stimulus": "<p id=\"stim\">9</p>", "internal_node_id": "0.0-184.0-1.0", "time_elapsed": 3071419, "key_press": -1, "trial_index": 239}, "uniqueid": "MTK2897:386CSBG1O0TNI8CQSL90K2LEZ1I6QG", "dateTime": 1519587095919}, {"current_trial": 240, "trialdata": {"rt": -1, "trial_type": "single-stim", "stimulus": "<p id=\"stim\">8</p>", "internal_node_id": "0.0-184.0-2.0", "time_elapsed": 3072421, "key_press": -1, "trial_index": 240}, "uniqueid": "MTK2897:386CSBG1O0TNI8CQSL90K2LEZ1I6QG", "dateTime": 1519587096921}, {"current_trial": 241, "trialdata": {"rt": -1, "trial_type": "single-stim", "stimulus": "<p id=\"stim\">7</p>", "internal_node_id": "0.0-184.0-3.0", "time_elapsed": 3073422, "key_press": -1, "trial_index": 241}, "uniqueid": "MTK2897:386CSBG1O0TNI8CQSL90K2LEZ1I6QG", "dateTime": 1519587097922}, {"current_trial": 242, "trialdata": {"rt": -1, "trial_type": "single-stim", "stimulus": "<p id=\"stim\">6</p>", "internal_node_id": "0.0-184.0-4.0", "time_elapsed": 3074423, "key_press": -1, "trial_index": 242}, "uniqueid": "MTK2897:386CSBG1O0TNI8CQSL90K2LEZ1I6QG", "dateTime": 1519587098923}, {"current_trial": 243, "trialdata": {"rt": -1, "trial_type": "single-stim", "stimulus": "<p id=\"stim\">5</p>", "internal_node_id": "0.0-184.0-5.0", "time_elapsed": 3075423, "key_press": -1, "trial_index": 243}, "uniqueid": "MTK2897:386CSBG1O0TNI8CQSL90K2LEZ1I6QG", "dateTime": 1519587099923}, {"current_trial": 244, "trialdata": {"rt": -1, "trial_type": "single-stim", "stimulus": "<p id=\"stim\">4</p>", "internal_node_id": "0.0-184.0-6.0", "time_elapsed": 3076426, "key_press": -1, "trial_index": 244}, "uniqueid": "MTK2897:386CSBG1O0TNI8CQSL90K2LEZ1I6QG", "dateTime": 1519587100926}, {"current_trial": 245, "trialdata": {"rt": -1, "trial_type": "single-stim", "stimulus": "<p id=\"stim\">3</p>", "internal_node_id": "0.0-184.0-7.0", "time_elapsed": 3077426, "key_press": -1, "trial_index": 245}, "uniqueid": "MTK2897:386CSBG1O0TNI8CQSL90K2LEZ1I6QG", "dateTime": 1519587101927}, {"current_trial": 246, "trialdata": {"rt": -1, "trial_type": "single-stim", "stimulus": "<p id=\"stim\">2</p>", "internal_node_id": "0.0-184.0-8.0", "time_elapsed": 3078428, "key_press": -1, "trial_index": 246}, "uniqueid": "MTK2897:386CSBG1O0TNI8CQSL90K2LEZ1I6QG", "dateTime": 1519587102928}, {"current_trial": 247, "trialdata": {"rt": -1, "trial_type": "single-stim", "