{"assignmentId": "33CKWXB73KR4UIRC1074O5MPHFX115", "workerId": "MTK2397", "questiondata": {"origin": "United States", "strat-rehearsal": "0", "marital": "Single", "education": "Some college", "ethnicity": "Not Hispanic", "color_depth": 24, "distracted": "No", "wrote-notes": "Yes", "strat-other": "", "screen_width": 1500, "avail_screen_width": 1500, "avail_screen_height": 960, "strat-image": "100", "language": "english", "gender": "Male", "age": "18", "gender_other": "", "race": ["White"], "strat-categorize": "100", "pixel_depth": 24, "strat-spatial": "0", "strat-story": "0", "race_other": "", "screen_height": 1000}, "bonus": 0, "hitId": "34YWR3PJ28HAQATTM8J9GPBWY3OX0G", "counterbalance": 2291, "useragent": "Mozilla/5.0 (Windows NT 10.0; Win64; x64) AppleWebKit/537.36 (KHTML, like Gecko) Chrome/63.0.3239.132 Safari/537.36", "eventdata": [{"eventtype": "initialized", "interval": 0, "value": null, "timestamp": 1517074964865}, {"eventtype": "window_resize", "interval": 0, "value": [1494, 944], "timestamp": 1517074964865}, {"eventtype": "window_resize", "interval": 214985, "value": [1500, 910], "timestamp": 1517075179850}, {"eventtype": "focus", "interval": 141018, "value": "off", "timestamp": 1517075320868}, {"eventtype": "focus", "interval": 14965, "value": "on", "timestamp": 1517075335833}, {"eventtype": "focus", "interval": 544584, "value": "off", "timestamp": 1517075880417}, {"eventtype": "window_resize", "interval": 194, "value": [748, 902], "timestamp": 1517075880611}, {"eventtype": "focus", "interval": 46, "value": "on", "timestamp": 1517075880657}, {"eventtype": "window_resize", "interval": 3501, "value": [1494, 944], "timestamp": 1517075884158}, {"eventtype": "focus", "interval": 1029, "value": "off", "timestamp": 1517075885187}, {"eventtype": "window_resize", "interval": 189, "value": [748, 902], "timestamp": 1517075885376}, {"eventtype": "focus", "interval": 7494, "value": "on", "timestamp": 1517075892870}, {"eventtype": "focus", "interval": 1675, "value": "off", "timestamp": 1517075894545}, {"eventtype": "focus", "interval": 6032, "value": "on", "timestamp": 1517075900577}, {"eventtype": "focus", "interval": 911247, "value": "off", "timestamp": 1517076811824}, {"eventtype": "focus", "interval": 2031, "value": "on", "timestamp": 1517076813855}, {"eventtype": "focus", "interval": 3574, "value": "off", "timestamp": 1517076817429}, {"eventtype": "focus", "interval": 2770, "value": "on", "timestamp": 1517076820199}, {"eventtype": "focus", "interval": 255607, "value": "off", "timestamp": 1517077075806}, {"eventtype": "focus", "interval": 22442, "value": "on", "timestamp": 1517077098248}, {"eventtype": "focus", "interval": 589462, "value": "off", "timestamp": 1517077687710}, {"eventtype": "focus", "interval": 119849, "value": "on", "timestamp": 1517077807559}, {"eventtype": "focus", "interval": 198965, "value": "off", "timestamp": 1517078006524}, {"eventtype": "focus", "interval": 13558, "value": "on", "timestamp": 1517078020082}], "data": [{"current_trial": 0, "trialdata": {"rt": 4477, "trial_type": "text", "internal_node_id": "0.0-0.0", "time_elapsed": 4481, "key_press": 173, "type": "INSTRUCTIONS", "trial_index": 0}, "uniqueid": "MTK2397:33CKWXB73KR4UIRC1074O5MPHFX115", "dateTime": 1517074969748}, {"current_trial": 1, "trialdata": {"rt": 13444, "trial_type": "text", "internal_node_id": "0.0-1.0", "time_elapsed": 17927, "key_press": 175, "type": "INSTRUCTIONS", "trial_index": 1}, "uniqueid": "MTK2397:33CKWXB73KR4UIRC1074O5MPHFX115", "dateTime": 1517074983193}, {"current_trial": 2, "trialdata": {"rt": [12089], "trial_type": "audio-test", "responses": ["ocean"], "internal_node_id": "0.0-2.0", "time_elapsed": 30022, "type": "AUDIO_TEST", "trial_index": 2}, "uniqueid": "MTK2397:33CKWXB73KR4UIRC1074O5MPHFX115", "dateTime": 1517074995287}, {"current_trial": 3, "trialdata": {"rt": [6067], "trial_type": "audio-test", "responses": ["crystal"], "internal_node_id": "0.0-3.0", "time_elapsed": 36094, "type": "AUDIO_TEST", "trial_index": 3}, "uniqueid": "MTK2397:33CKWXB73KR4UIRC1074O5MPHFX115", "dateTime": 1517075001359}, {"current_trial": 4, "trialdata": {"rt": [7577], "trial_type": "audio-test", "responses": ["spice"], "internal_node_id": "0.0-4.0", "time_elapsed": 43674, "type": "AUDIO_TEST", "trial_index": 4}, "uniqueid": "MTK2397:33CKWXB73KR4UIRC1074O5MPHFX115", "dateTime": 1517075008939}, {"current_trial": 5, "trialdata": {"rt": 17098, "trial_type": "survey-text", "responses": "{\"Q0\":\"2 AM\",\"Q1\":\"7AM\",\"Q2\":\"4\"}", "internal_node_id": "0.0-5.0", "time_elapsed": 61529, "type": "SLEEP_SURVEY", "trial_index": 5}, "uniqueid": "MTK2397:33CKWXB73KR4UIRC1074O5MPHFX115", "dateTime": 1517075026794}, {"current_trial": 6, "trialdata": {"rt": 25302, "trial_type": "text", "internal_node_id": "0.0-6.0", "time_elapsed": 87831, "key_press": 32, "type": "INSTRUCTIONS", "trial_index": 6}, "uniqueid": "MTK2397:33CKWXB73KR4UIRC1074O5MPHFX115", "dateTime": 1517075053096}, {"current_trial": 7, "trialdata": {"rt": 11171, "trial_type": "text", "internal_node_id": "0.0-7.0", "time_elapsed": 99504, "key_press": 32, "type": "INSTRUCTIONS", "trial_index": 7}, "uniqueid": "MTK2397:33CKWXB73KR4UIRC1074O5MPHFX115", "dateTime": 1517075064769}, {"current_trial": 8, "trialdata": {"rt": 7345, "trial_type": "text", "internal_node_id": "0.0-8.0", "time_elapsed": 107351, "key_press": 32, "type": "INSTRUCTIONS", "trial_index": 8}, "uniqueid": "MTK2397:33CKWXB73KR4UIRC1074O5MPHFX115", "dateTime": 1517075072617}, {"current_trial": 9, "trialdata": {"rt": [3160, 5890, 9070, 12211, 16960], "trial_type": "math-distractor", "key_times": [2455, 2652, 3160, 4972, 5379, 5890, 8372, 8803, 9070, 11541, 11703, 12211, 16173, 16462, 16960], "responses": ["14", "17", "19", "11", "24"], "num2": [6, 5, 4, 8, 8, 1], "num3": [2, 5, 8, 1, 7, 1], "conditions": [18, 1200, "v", 18000], "internal_node_id": "0.0-9.0", "key_presses": [49, 52, 13, 49, 55, 13, 49, 57, 13, 49, 49, 13, 50, 52, 13], "trial": 0, "time_elapsed": 126362, "type": "DISTRACTOR", "trial_index": 9, "num1": [6, 7, 7, 2, 9, 8]}, "uniqueid": "MTK2397:33CKWXB73KR4UIRC1074O5MPHFX115", "dateTime": 1517075091627}, {"current_trial": 10, "trialdata": {"rt": -1, "trial_type": "single-stim", "stimulus": "<p id=\"stim\">10</p>", "internal_node_id": "0.0-10.0-0.0", "time_elapsed": 129366, "key_press": -1, "trial_index": 10}, "uniqueid": "MTK2397:33CKWXB73KR4UIRC1074O5MPHFX115", "dateTime": 1517075094631}, {"current_trial": 11, "trialdata": {"rt": -1, "trial_type": "single-stim", "stimulus": "<p id=\"stim\">9</p>", "internal_node_id": "0.0-10.0-1.0", "time_elapsed": 130368, "key_press": -1, "trial_index": 11}, "uniqueid": "MTK2397:33CKWXB73KR4UIRC1074O5MPHFX115", "dateTime": 1517075095633}, {"current_trial": 12, "trialdata": {"rt": -1, "trial_type": "single-stim", "stimulus": "<p id=\"stim\">8</p>", "internal_node_id": "0.0-10.0-2.0", "time_elapsed": 131371, "key_press": -1, "trial_index": 12}, "uniqueid": "MTK2397:33CKWXB73KR4UIRC1074O5MPHFX115", "dateTime": 1517075096636}, {"current_trial": 13, "trialdata": {"rt": -1, "trial_type": "single-stim", "stimulus": "<p id=\"stim\">7</p>", "internal_node_id": "0.0-10.0-3.0", "time_elapsed": 132373, "key_press": -1, "trial_index": 13}, "uniqueid": "MTK2397:33CKWXB73KR4UIRC1074O5MPHFX115", "dateTime": 1517075097639}, {"current_trial": 14, "trialdata": {"rt": -1, "trial_type": "single-stim", "stimulus": "<p id=\"stim\">6</p>", "internal_node_id": "0.0-10.0-4.0", "time_elapsed": 133375, "key_press": -1, "trial_index": 14}, "uniqueid": "MTK2397:33CKWXB73KR4UIRC1074O5MPHFX115", "dateTime": 1517075098641}, {"current_trial": 15, "trialdata": {"rt": -1, "trial_type": "single-stim", "stimulus": "<p id=\"stim\">5</p>", "internal_node_id": "0.0-10.0-5.0", "time_elapsed": 134378, "key_press": -1, "trial_index": 15}, "uniqueid": "MTK2397:33CKWXB73KR4UIRC1074O5MPHFX115", "dateTime": 1517075099643}, {"current_trial": 16, "trialdata": {"rt": -1, "trial_type": "single-stim", "stimulus": "<p id=\"stim\">4</p>", "internal_node_id": "0.0-10.0-6.0", "time_elapsed": 135379, "key_press": -1, "trial_index": 16}, "uniqueid": "MTK2397:33CKWXB73KR4UIRC1074O5MPHFX115", "dateTime": 1517075100645}, {"current_trial": 17, "trialdata": {"rt": -1, "trial_type": "single-stim", "stimulus": "<p id=\"stim\">3</p>", "internal_node_id": "0.0-10.0-7.0", "time_elapsed": 136383, "key_press": -1, "trial_index": 17}, "uniqueid": "MTK2397:33CKWXB73KR4UIRC1074O5MPHFX115", "dateTime": 1517075101648}, {"current_trial": 18, "trialdata": {"rt": -1, "trial_type": "single-stim", "stimulus": "<p id=\"stim\">2</p>", "internal_node_id": "0.0-10.0-8.0", "time_elapsed": 137386, "key_press": -1, "trial_index": 18}, "uniqueid": "MTK2397:33CKWXB73KR4UIRC1074O5MPHFX115", "dateTime": 1517075102651}, {"current_trial": 19, "trialdata": {"rt": -1, "trial_type": "single-stim", "stimulus": "<p id=\"stim\">1</p>", "internal_node_id": "0.0-10.0-9.0", "time_elapsed": 138388, "key_press": -1, "trial_index": 19}, "uniqueid": "MTK2397:33CKWXB73KR4UIRC1074O5MPHFX115", "dateTime": 1517075103654}, {"current_trial": 20, "trialdata": {"rt": -1, "trial_type": "single-stim", "stimulus": "<p id=\"stim\">+</p>", "internal_node_id": "0.0-11.0-0.0", "time_elapsed": 139913, "key_press": -1, "type": "FIXATION", "trial_index": 20}, "uniqueid": "MTK2397:33CKWXB73KR4UIRC1074O5MPHFX115", "dateTime": 1517075105178}, {"current_trial": 21, "trialdata": {"rt": -1, "trial_type": "single-stim", "word": "servant", "stimulus": "<p id=\"stim\">SERVANT</p>", "conditions": [18, 1200, "v", 18000], "internal_node_id": "0.0-12.0", "trial": 0, "time_elapsed": 141114, "serialpos": 0, "key_press": -1, "wordID": 1270, "type": "PRES_VIS", "trial_index": 21}, "uniqueid": "MTK2397:33CKWXB73KR4UIRC1074O5MPHFX115", "dateTime": 1517075106379}, {"current_trial": 22, "trialdata": {"rt": -1, "trial_type": "single-stim", "word": "padding", "stimulus": "<p id=\"stim\">PADDING</p>", "conditions": [18, 1200, "v", 18000], "internal_node_id": "0.0-13.0", "trial": 0, "time_elapsed": 143159, "serialpos": 1, "key_press": -1, "wordID": 998, "type": "PRES_VIS", "trial_index": 22}, "uniqueid": "MTK2397:33CKWXB73KR4UIRC1074O5MPHFX115", "dateTime": 1517075108424}, {"current_trial": 23, "trialdata": {"rt": -1, "trial_type": "single-stim", "word": "sponge", "stimulus": "<p id=\"stim\">SPONGE</p>", "conditions": [18, 1200, "v", 18000], "internal_node_id": "0.0-14.0", "trial": 0, "time_elapsed": 145221, "serialpos": 2, "key_press": -1, "wordID": 1354, "type": "PRES_VIS", "trial_index": 23}, "uniqueid": "MTK2397:33CKWXB73KR4UIRC1074O5MPHFX115", "dateTime": 1517075110486}, {"current_trial": 24, "trialdata": {"rt": -1, "trial_type": "single-stim", "word": "lion", "stimulus": "<p id=\"stim\">LION</p>", "conditions": [18, 1200, "v", 18000], "internal_node_id": "0.0-15.0", "trial": 0, "time_elapsed": 147415, "serialpos": 3, "key_press": -1, "wordID": 826, "type": "PRES_VIS", "trial_index": 24}, "uniqueid": "MTK2397:33CKWXB73KR4UIRC1074O5MPHFX115", "dateTime": 1517075112680}, {"current_trial": 25, "trialdata": {"rt": -1, "trial_type": "single-stim", "word": "loft", "stimulus": "<p id=\"stim\">LOFT</p>", "conditions": [18, 1200, "v", 18000], "internal_node_id": "0.0-16.0", "trial": 0, "time_elapsed": 149724, "serialpos": 4, "key_press": -1, "wordID": 839, "type": "PRES_VIS", "trial_index": 25}, "uniqueid": "MTK2397:33CKWXB73KR4UIRC1074O5MPHFX115", "dateTime": 1517075114989}, {"current_trial": 26, "trialdata": {"rt": -1, "trial_type": "single-stim", "word": "europe", "stimulus": "<p id=\"stim\">EUROPE</p>", "conditions": [18, 1200, "v", 18000], "internal_node_id": "0.0-17.0", "trial": 0, "time_elapsed": 151912, "serialpos": 5, "key_press": -1, "wordID": 540, "type": "PRES_VIS", "trial_index": 26}, "uniqueid": "MTK2397:33CKWXB73KR4UIRC1074O5MPHFX115", "dateTime": 1517075117177}, {"current_trial": 27, "trialdata": {"rt": -1, "trial_type": "single-stim", "word": "nomad", "stimulus": "<p id=\"stim\">NOMAD</p>", "conditions": [18, 1200, "v", 18000], "internal_node_id": "0.0-18.0", "trial": 0, "time_elapsed": 154202, "serialpos": 6, "key_press": -1, "wordID": 954, "type": "PRES_VIS", "trial_index": 27}, "uniqueid": "MTK2397:33CKWXB73KR4UIRC1074O5MPHFX115", "dateTime": 1517075119467}, {"current_trial": 28, "trialdata": {"rt": -1, "trial_type": "single-stim", "word": "passage", "stimulus": "<p id=\"stim\">PASSAGE</p>", "conditions": [18, 1200, "v", 18000], "internal_node_id": "0.0-19.0", "trial": 0, "time_elapsed": 156561, "serialpos": 7, "key_press": -1, "wordID": 1018, "type": "PRES_VIS", "trial_index": 28}, "uniqueid": "MTK2397:33CKWXB73KR4UIRC1074O5MPHFX115", "dateTime": 1517075121826}, {"current_trial": 29, "trialdata": {"rt": -1, "trial_type": "single-stim", "word": "seagull", "stimulus": "<p id=\"stim\">SEAGULL</p>", "conditions": [18, 1200, "v", 18000], "internal_node_id": "0.0-20.0", "trial": 0, "time_elapsed": 158959, "serialpos": 8, "key_press": -1, "wordID": 1260, "type": "PRES_VIS", "trial_index": 29}, "uniqueid": "MTK2397:33CKWXB73KR4UIRC1074O5MPHFX115", "dateTime": 1517075124224}, {"current_trial": 30, "trialdata": {"rt": -1, "trial_type": "single-stim", "word": "knife", "stimulus": "<p id=\"stim\">KNIFE</p>", "conditions": [18, 1200, "v", 18000], "internal_node_id": "0.0-21.0", "trial": 0, "time_elapsed": 161229, "serialpos": 9, "key_press": -1, "wordID": 784, "type": "PRES_VIS", "trial_index": 30}, "uniqueid": "MTK2397:33CKWXB73KR4UIRC1074O5MPHFX115", "dateTime": 1517075126494}, {"current_trial": 31, "trialdata": {"rt": -1, "trial_type": "single-stim", "word": "tractor", "stimulus": "<p id=\"stim\">TRACTOR</p>", "conditions": [18, 1200, "v", 18000], "internal_node_id": "0.0-22.0", "trial": 0, "time_elapsed": 163333, "serialpos": 10, "key_press": -1, "wordID": 1492, "type": "PRES_VIS", "trial_index": 31}, "uniqueid": "MTK2397:33CKWXB73KR4UIRC1074O5MPHFX115", "dateTime": 1517075128598}, {"current_trial": 32, "trialdata": {"rt": -1, "trial_type": "single-stim", "word": "tablet", "stimulus": "<p id=\"stim\">TABLET</p>", "conditions": [18, 1200, "v", 18000], "internal_node_id": "0.0-23.0", "trial": 0, "time_elapsed": 165687, "serialpos": 11, "key_press": -1, "wordID": 1426, "type": "PRES_VIS", "trial_index": 32}, "uniqueid": "MTK2397:33CKWXB73KR4UIRC1074O5MPHFX115", "dateTime": 1517075130952}, {"current_trial": 33, "trialdata": {"rt": -1, "trial_type": "single-stim", "word": "machine", "stimulus": "<p id=\"stim\">MACHINE</p>", "conditions": [18, 1200, "v", 18000], "internal_node_id": "0.0-24.0", "trial": 0, "time_elapsed": 167790, "serialpos": 12, "key_press": -1, "wordID": 851, "type": "PRES_VIS", "trial_index": 33}, "uniqueid": "MTK2397:33CKWXB73KR4UIRC1074O5MPHFX115", "dateTime": 1517075133056}, {"current_trial": 34, "trialdata": {"rt": -1, "trial_type": "single-stim", "word": "freckle", "stimulus": "<p id=\"stim\">FRECKLE</p>", "conditions": [18, 1200, "v", 18000], "internal_node_id": "0.0-25.0", "trial": 0, "time_elapsed": 169808, "serialpos": 13, "key_press": -1, "wordID": 601, "type": "PRES_VIS", "trial_index": 34}, "uniqueid": "MTK2397:33CKWXB73KR4UIRC1074O5MPHFX115", "dateTime": 1517075135073}, {"current_trial": 35, "trialdata": {"rt": -1, "trial_type": "single-stim", "word": "cafe", "stimulus": "<p id=\"stim\">CAFE</p>", "conditions": [18, 1200, "v", 18000], "internal_node_id": "0.0-26.0", "trial": 0, "time_elapsed": 172130, "serialpos": 14, "key_press": -1, "wordID": 215, "type": "PRES_VIS", "trial_index": 35}, "uniqueid": "MTK2397:33CKWXB73KR4UIRC1074O5MPHFX115", "dateTime": 1517075137395}, {"current_trial": 36, "trialdata": {"rt": -1, "trial_type": "single-stim", "word": "dresser", "stimulus": "<p id=\"stim\">DRESSER</p>", "conditions": [18, 1200, "v", 18000], "internal_node_id": "0.0-27.0", "trial": 0, "time_elapsed": 174336, "serialpos": 15, "key_press": -1, "wordID": 495, "type": "PRES_VIS", "trial_index": 36}, "uniqueid": "MTK2397:33CKWXB73KR4UIRC1074O5MPHFX115", "dateTime": 1517075139601}, {"current_trial": 37, "trialdata": {"rt": -1, "trial_type": "single-stim", "word": "canal", "stimulus": "<p id=\"stim\">CANAL</p>", "conditions": [18, 1200, "v", 18000], "internal_node_id": "0.0-28.0", "trial": 0, "time_elapsed": 176466, "serialpos": 16, "key_press": -1, "wordID": 225, "type": "PRES_VIS", "trial_index": 37}, "uniqueid": "MTK2397:33CKWXB73KR4UIRC1074O5MPHFX115", "dateTime": 1517075141731}, {"current_trial": 38, "trialdata": {"rt": -1, "trial_type": "single-stim", "word": "peach", "stimulus": "<p id=\"stim\">PEACH</p>", "conditions": [18, 1200, "v", 18000], "internal_node_id": "0.0-29.0", "trial": 0, "time_elapsed": 178724, "serialpos": 17, "key_press": -1, "wordID": 1030, "type": "PRES_VIS", "trial_index": 38}, "uniqueid": "MTK2397:33CKWXB73KR4UIRC1074O5MPHFX115", "dateTime": 1517075143990}, {"current_trial": 39, "trialdata": {"rt": -1, "trial_type": "single-stim", "stimulus": "", "internal_node_id": "0.0-30.0-0.0", "time_elapsed": 180893, "key_press": -1, "type": "PRE_RECALL_DELAY", "trial_index": 39}, "uniqueid": "MTK2397:33CKWXB73KR4UIRC1074O5MPHFX115", "dateTime": 1517075146158}, {"current_trial": 40, "trialdata": {"rt": -1000, "trial_type": "single-audio", "stimulus": "/static/audio/400Hz.wav", "internal_node_id": "0.0-31.0", "time_elapsed": 181426, "key_press": -1, "type": "PRE_RECALL_ALERT", "trial_index": 40}, "uniqueid": "MTK2397:33CKWXB73KR4UIRC1074O5MPHFX115", "dateTime": 1517075146691}, {"current_trial": 41, "trialdata": {"rt": [3910, 5221, 6740, 9110, 11991, 17141], "recwords": ["canal", "europe", "nomad", "sponge", "seagull", ""], "key_times": [2662, 2663, 2753, 3172, 3281, 3462, 3910, 4392, 4572, 4661, 4761, 4932, 5042, 5221, 5503, 5613, 5833, 6203, 6402, 6515, 6591, 6740, 7003, 7203, 7461, 7711, 8123, 8252, 8753, 8843, 8922, 8993, 9110, 10992, 11142, 11232, 11380, 11521, 11643, 11782, 11991, 17141], "trial_type": "free-recall", "conditions": [18, 1200, "v", 18000], "internal_node_id": "0.0-32.0-0.0", "key_presses": [67, 65, 78, 65, 76, 16, 13, 69, 85, 82, 79, 80, 69, 13, 78, 79, 65, 8, 77, 65, 68, 13, 83, 80, 78, 71, 8, 8, 79, 78, 71, 69, 13, 83, 69, 65, 71, 85, 76, 76, 13, 13], "trial": 0, "time_elapsed": 241435, "type": "FREE_RECALL", "trial_index": 41}, "uniqueid": "MTK2397:33CKWXB73KR4UIRC1074O5MPHFX115", "dateTime": 1517075206708}, {"current_trial": 42, "trialdata": {"rt": 1697, "trial_type": "text", "internal_node_id": "0.0-33.0", "time_elapsed": 245142, "key_press": 39, "type": "INSTRUCTIONS", "trial_index": 42}, "uniqueid": "MTK2397:33CKWXB73KR4UIRC1074O5MPHFX115", "dateTime": 1517075210407}, {"current_trial": 43, "trialdata": {"rt": [2911, 6601, 8750, 11182, 13780, 16051, 17841], "trial_type": "math-distractor", "key_times": [2414, 2534, 2911, 6322, 6375, 6601, 8473, 8543, 8750, 10921, 11072, 11182, 13382, 13685, 13780, 15632, 15784, 16051, 17533, 17634, 17841], "responses": ["18", "18", "12", "15", "16", "16", "10"], "num2": [9, 7, 1, 5, 8, 2, 4, 9], "num3": [8, 2, 8, 2, 5, 9, 2, 2], "conditions": [18, 1200, "v", 18000], "internal_node_id": "0.0-34.0", "key_presses": [49, 56, 13, 49, 56, 13, 49, 50, 13, 49, 53, 13, 49, 54, 13, 49, 54, 13, 49, 48, 13], "trial": 1, "time_elapsed": 265148, "type": "DISTRACTOR", "trial_index": 43, "num1": [1, 9, 3, 8, 3, 5, 4, 8]}, "uniqueid": "MTK2397:33CKWXB73KR4UIRC1074O5MPHFX115", "dateTime": 1517075230413}, {"current_trial": 44, "trialdata": {"rt": -1, "trial_type": "single-stim", "stimulus": "<p id=\"stim\">10</p>", "internal_node_id": "0.0-35.0-0.0", "time_elapsed": 268151, "key_press": -1, "trial_index": 44}, "uniqueid": "MTK2397:33CKWXB73KR4UIRC1074O5MPHFX115", "dateTime": 1517075233416}, {"current_trial": 45, "trialdata": {"rt": -1, "trial_type": "single-stim", "stimulus": "<p id=\"stim\">9</p>", "internal_node_id": "0.0-35.0-1.0", "time_elapsed": 269154, "key_press": -1, "trial_index": 45}, "uniqueid": "MTK2397:33CKWXB73KR4UIRC1074O5MPHFX115", "dateTime": 1517075234420}, {"current_trial": 46, "trialdata": {"rt": -1, "trial_type": "single-stim", "stimulus": "<p id=\"stim\">8</p>", "internal_node_id": "0.0-35.0-2.0", "time_elapsed": 270157, "key_press": -1, "trial_index": 46}, "uniqueid": "MTK2397:33CKWXB73KR4UIRC1074O5MPHFX115", "dateTime": 1517075235422}, {"current_trial": 47, "trialdata": {"rt": -1, "trial_type": "single-stim", "stimulus": "<p id=\"stim\">7</p>", "internal_node_id": "0.0-35.0-3.0", "time_elapsed": 271158, "key_press": -1, "trial_index": 47}, "uniqueid": "MTK2397:33CKWXB73KR4UIRC1074O5MPHFX115", "dateTime": 1517075236423}, {"current_trial": 48, "trialdata": {"rt": -1, "trial_type": "single-stim", "stimulus": "<p id=\"stim\">6</p>", "internal_node_id": "0.0-35.0-4.0", "time_elapsed": 272160, "key_press": -1, "trial_index": 48}, "uniqueid": "MTK2397:33CKWXB73KR4UIRC1074O5MPHFX115", "dateTime": 1517075237425}, {"current_trial": 49, "trialdata": {"rt": -1, "trial_type": "single-stim", "stimulus": "<p id=\"stim\">5</p>", "internal_node_id": "0.0-35.0-5.0", "time_elapsed": 273161, "key_press": -1, "trial_index": 49}, "uniqueid": "MTK2397:33CKWXB73KR4UIRC1074O5MPHFX115", "dateTime": 1517075238427}, {"current_trial": 50, "trialdata": {"rt": -1, "trial_type": "single-stim", "stimulus": "<p id=\"stim\">4</p>", "internal_node_id": "0.0-35.0-6.0", "time_elapsed": 274163, "key_press": -1, "trial_index": 50}, "uniqueid": "MTK2397:33CKWXB73KR4UIRC1074O5MPHFX115", "dateTime": 1517075239428}, {"current_trial": 51, "trialdata": {"rt": -1, "trial_type": "single-stim", "stimulus": "<p id=\"stim\">3</p>", "internal_node_id": "0.0-35.0-7.0", "time_elapsed": 275166, "key_press": -1, "trial_index": 51}, "uniqueid": "MTK2397:33CKWXB73KR4UIRC1074O5MPHFX115", "dateTime": 1517075240431}, {"current_trial": 52, "trialdata": {"rt": -1, "trial_type": "single-stim", "stimulus": "<p id=\"stim\">2</p>", "internal_node_id": "0.0-35.0-8.0", "time_elapsed": 276169, "key_press": -1, "trial_index": 52}, "uniqueid": "MTK2397:33CKWXB73KR4UIRC1074O5MPHFX115", "dateTime": 1517075241434}, {"current_trial": 53, "trialdata": {"rt": -1, "trial_type": "single-stim", "stimulus": "<p id=\"stim\">1</p>", "internal_node_id": "0.0-35.0-9.0", "time_elapsed": 277171, "key_press": -1, "trial_index": 53}, "uniqueid": "MTK2397:33CKWXB73KR4UIRC1074O5MPHFX115", "dateTime": 1517075242436}, {"current_trial": 54, "trialdata": {"rt": -1, "trial_type": "single-stim", "stimulus": "<p id=\"stim\">+</p>", "internal_node_id": "0.0-36.0-0.0", "time_elapsed": 278675, "key_press": -1, "type": "FIXATION", "trial_index": 54}, "uniqueid": "MTK2397:33CKWXB73KR4UIRC1074O5MPHFX115", "dateTime": 1517075243940}, {"current_trial": 55, "trialdata": {"rt": -1, "trial_type": "single-stim", "word": "goblin", "stimulus": "<p id=\"stim\">GOBLIN</p>", "conditions": [18, 1200, "v", 18000], "internal_node_id": "0.0-37.0", "trial": 1, "time_elapsed": 279876, "serialpos": 0, "key_press": -1, "wordID": 644, "type": "PRES_VIS", "trial_index": 55}, "uniqueid": "MTK2397:33CKWXB73KR4UIRC1074O5MPHFX115", "dateTime": 1517075245141}, {"current_trial": 56, "trialdata": {"rt": -1, "trial_type": "single-stim", "word": "box", "stimulus": "<p id=\"stim\">BOX</p>", "conditions": [18, 1200, "v", 18000], "internal_node_id": "0.0-38.0", "trial": 1, "time_elapsed": 281984, "serialpos": 1, "key_press": -1, "wordID": 158, "type": "PRES_VIS", "trial_index": 56}, "uniqueid": "MTK2397:33CKWXB73KR4UIRC1074O5MPHFX115", "dateTime": 1517075247249}, {"current_trial": 57, "trialdata": {"rt": -1, "trial_type": "single-stim", "word": "hood", "stimulus": "<p id=\"stim\">HOOD</p>", "conditions": [18, 1200, "v", 18000], "internal_node_id": "0.0-39.0", "trial": 1, "time_elapsed": 284128, "serialpos": 2, "key_press": -1, "wordID": 713, "type": "PRES_VIS", "trial_index": 57}, "uniqueid": "MTK2397:33CKWXB73KR4UIRC1074O5MPHFX115", "dateTime": 1517075249393}, {"current_trial": 58, "trialdata": {"rt": -1, "trial_type": "single-stim", "word": "taxi", "stimulus": "<p id=\"stim\">TAXI</p>", "conditions": [18, 1200, "v", 18000], "internal_node_id": "0.0-40.0", "trial": 1, "time_elapsed": 286503, "serialpos": 3, "key_press": -1, "wordID": 1437, "type": "PRES_VIS", "trial_index": 58}, "uniqueid": "MTK2397:33CKWXB73KR4UIRC1074O5MPHFX115", "dateTime": 1517075251769}, {"current_trial": 59, "trialdata": {"rt": -1, "trial_type": "single-stim", "word": "pigeon", "stimulus": "<p id=\"stim\">PIGEON</p>", "conditions": [18, 1200, "v", 18000], "internal_node_id": "0.0-41.0", "trial": 1, "time_elapsed": 288688, "serialpos": 4, "key_press": -1, "wordID": 1064, "type": "PRES_VIS", "trial_index": 59}, "uniqueid": "MTK2397:33CKWXB73KR4UIRC1074O5MPHFX115", "dateTime": 1517075253954}, {"current_trial": 60, "trialdata": {"rt": -1, "trial_type": "single-stim", "word": "kitchen", "stimulus": "<p id=\"stim\">KITCHEN</p>", "conditions": [18, 1200, "v", 18000], "internal_node_id": "0.0-42.0", "trial": 1, "time_elapsed": 291009, "serialpos": 5, "key_press": -1, "wordID": 777, "type": "PRES_VIS", "trial_index": 60}, "uniqueid": "MTK2397:33CKWXB73KR4UIRC1074O5MPHFX115", "dateTime": 1517075256275}, {"current_trial": 61, "trialdata": {"rt": -1, "trial_type": "single-stim", "word": "tart", "stimulus": "<p id=\"stim\">TART</p>", "conditions": [18, 1200, "v", 18000], "internal_node_id": "0.0-43.0", "trial": 1, "time_elapsed": 293034, "serialpos": 6, "key_press": -1, "wordID": 1435, "type": "PRES_VIS", "trial_index": 61}, "uniqueid": "MTK2397:33CKWXB73KR4UIRC1074O5MPHFX115", "dateTime": 1517075258299}, {"current_trial": 62, "trialdata": {"rt": -1, "trial_type": "single-stim", "word": "motel", "stimulus": "<p id=\"stim\">MOTEL</p>", "conditions": [18, 1200, "v", 18000], "internal_node_id": "0.0-44.0", "trial": 1, "time_elapsed": 295418, "serialpos": 7, "key_press": -1, "wordID": 918, "type": "PRES_VIS", "trial_index": 62}, "uniqueid": "MTK2397:33CKWXB73KR4UIRC1074O5MPHFX115", "dateTime": 1517075260683}, {"current_trial": 63, "trialdata": {"rt": -1, "trial_type": "single-stim", "word": "egypt", "stimulus": "<p id=\"stim\">EGYPT</p>", "conditions": [18, 1200, "v", 18000], "internal_node_id": "0.0-45.0", "trial": 1, "time_elapsed": 297472, "serialpos": 8, "key_press": -1, "wordID": 518, "type": "PRES_VIS", "trial_index": 63}, "uniqueid": "MTK2397:33CKWXB73KR4UIRC1074O5MPHFX115", "dateTime": 1517075262738}, {"current_trial": 64, "trialdata": {"rt": -1, "trial_type": "single-stim", "word": "london", "stimulus": "<p id=\"stim\">LONDON</p>", "conditions": [18, 1200, "v", 18000], "internal_node_id": "0.0-46.0", "trial": 1, "time_elapsed": 299512, "serialpos": 9, "key_press": -1, "wordID": 842, "type": "PRES_VIS", "trial_index": 64}, "uniqueid": "MTK2397:33CKWXB73KR4UIRC1074O5MPHFX115", "dateTime": 1517075264777}, {"current_trial": 65, "trialdata": {"rt": -1, "trial_type": "single-stim", "word": "airport", "stimulus": "<p id=\"stim\">AIRPORT</p>", "conditions": [18, 1200, "v", 18000], "internal_node_id": "0.0-47.0", "trial": 1, "time_elapsed": 301808, "serialpos": 10, "key_press": -1, "wordID": 12, "type": "PRES_VIS", "trial_index": 65}, "uniqueid": "MTK2397:33CKWXB73KR4UIRC1074O5MPHFX115", "dateTime": 1517075267073}, {"current_trial": 66, "trialdata": {"rt": -1, "trial_type": "single-stim", "word": "bathtub", "stimulus": "<p id=\"stim\">BATHTUB</p>", "conditions": [18, 1200, "v", 18000], "internal_node_id": "0.0-48.0", "trial": 1, "time_elapsed": 303841, "serialpos": 11, "key_press": -1, "wordID": 99, "type": "PRES_VIS", "trial_index": 66}, "uniqueid": "MTK2397:33CKWXB73KR4UIRC1074O5MPHFX115", "dateTime": 1517075269107}, {"current_trial": 67, "trialdata": {"rt": -1, "trial_type": "single-stim", "word": "palace", "stimulus": "<p id=\"stim\">PALACE</p>", "conditions": [18, 1200, "v", 18000], "internal_node_id": "0.0-49.0", "trial": 1, "time_elapsed": 306062, "serialpos": 12, "key_press": -1, "wordID": 1005, "type": "PRES_VIS", "trial_index": 67}, "uniqueid": "MTK2397:33CKWXB73KR4UIRC1074O5MPHFX115", "dateTime": 1517075271328}, {"current_trial": 68, "trialdata": {"rt": -1, "trial_type": "single-stim", "word": "camel", "stimulus": "<p id=\"stim\">CAMEL</p>", "conditions": [18, 1200, "v", 18000], "internal_node_id": "0.0-50.0", "trial": 1, "time_elapsed": 308161, "serialpos": 13, "key_press": -1, "wordID": 222, "type": "PRES_VIS", "trial_index": 68}, "uniqueid": "MTK2397:33CKWXB73KR4UIRC1074O5MPHFX115", "dateTime": 1517075273426}, {"current_trial": 69, "trialdata": {"rt": -1, "trial_type": "single-stim", "word": "sketch", "stimulus": "<p id=\"stim\">SKETCH</p>", "conditions": [18, 1200, "v", 18000], "internal_node_id": "0.0-51.0", "trial": 1, "time_elapsed": 310319, "serialpos": 14, "key_press": -1, "wordID": 1314, "type": "PRES_VIS", "trial_index": 69}, "uniqueid": "MTK2397:33CKWXB73KR4UIRC1074O5MPHFX115", "dateTime": 1517075275584}, {"current_trial": 70, "trialdata": {"rt": -1, "trial_type": "single-stim", "word": "island", "stimulus": "<p id=\"stim\">ISLAND</p>", "conditions": [18, 1200, "v", 18000], "internal_node_id": "0.0-52.0", "trial": 1, "time_elapsed": 312434, "serialpos": 15, "key_press": -1, "wordID": 744, "type": "PRES_VIS", "trial_index": 70}, "uniqueid": "MTK2397:33CKWXB73KR4UIRC1074O5MPHFX115", "dateTime": 1517075277699}, {"current_trial": 71, "trialdata": {"rt": -1, "trial_type": "single-stim", "word": "star", "stimulus": "<p id=\"stim\">STAR</p>", "conditions": [18, 1200, "v", 18000], "internal_node_id": "0.0-53.0", "trial": 1, "time_elapsed": 314764, "serialpos": 16, "key_press": -1, "wordID": 1372, "type": "PRES_VIS", "trial_index": 71}, "uniqueid": "MTK2397:33CKWXB73KR4UIRC1074O5MPHFX115", "dateTime": 1517075280029}, {"current_trial": 72, "trialdata": {"rt": -1, "trial_type": "single-stim", "word": "convict", "stimulus": "<p id=\"stim\">CONVICT</p>", "conditions": [18, 1200, "v", 18000], "internal_node_id": "0.0-54.0", "trial": 1, "time_elapsed": 317086, "serialpos": 17, "key_press": -1, "wordID": 370, "type": "PRES_VIS", "trial_index": 72}, "uniqueid": "MTK2397:33CKWXB73KR4UIRC1074O5MPHFX115", "dateTime": 1517075282352}, {"current_trial": 73, "trialdata": {"rt": -1, "trial_type": "single-stim", "stimulus": "", "internal_node_id": "0.0-55.0-0.0", "time_elapsed": 319604, "key_press": -1, "type": "PRE_RECALL_DELAY", "trial_index": 73}, "uniqueid": "MTK2397:33CKWXB73KR4UIRC1074O5MPHFX115", "dateTime": 1517075284869}, {"current_trial": 74, "trialdata": {"rt": -1000, "trial_type": "single-audio", "stimulus": "/static/audio/400Hz.wav", "internal_node_id": "0.0-56.0", "time_elapsed": 320107, "key_press": -1, "type": "PRE_RECALL_ALERT", "trial_index": 74}, "uniqueid": "MTK2397:33CKWXB73KR4UIRC1074O5MPHFX115", "dateTime": 1517075285372}, {"current_trial": 75, "trialdata": {"rt": [3178, 4248, 5489, 6998, 9738, 10558], "recwords": ["convict", "island", "egypt", "star", "goblin", "hood"], "key_times": [1732, 1770, 1861, 2141, 2271, 2411, 2571, 2841, 2991, 3178, 3601, 3730, 3820, 3930, 4032, 4141, 4248, 4668, 4810, 4949, 5280, 5348, 5489, 5764, 5851, 5980, 6079, 6261, 6702, 6998, 8911, 8969, 9151, 9290, 9389, 9480, 9738, 10131, 10230, 10359, 10473, 10558], "trial_type": "free-recall", "conditions": [18, 1200, "v", 18000], "internal_node_id": "0.0-57.0-0.0", "key_presses": [67, 79, 78, 86, 73, 67, 69, 8, 84, 13, 73, 83, 76, 65, 78, 68, 13, 69, 71, 89, 80, 84, 13, 83, 84, 65, 82, 84, 8, 13, 71, 79, 66, 76, 73, 78, 13, 72, 79, 79, 68, 13], "trial": 1, "time_elapsed": 380112, "type": "FREE_RECALL", "trial_index": 75}, "uniqueid": "MTK2397:33CKWXB73KR4UIRC1074O5MPHFX115", "dateTime": 1517075345383}, {"current_trial": 76, "trialdata": {"rt": 1819, "trial_type": "text", "internal_node_id": "0.0-58.0", "time_elapsed": 383939, "key_press": 39, "type": "INSTRUCTIONS", "trial_index": 76}, "uniqueid": "MTK2397:33CKWXB73KR4UIRC1074O5MPHFX115", "dateTime": 1517075349204}, {"current_trial": 77, "trialdata": {"rt": [6725, 10375], "trial_type": "math-distractor", "key_times": [6066, 6516, 6725, 8817, 9018, 9863, 10126, 10375, 11885], "responses": ["22", "10"], "num2": [5, 1, 4], "num3": [9, 6, 8], "conditions": [12, 800, "v", 12000], "internal_node_id": "0.0-59.0", "key_presses": [50, 50, 13, 49, 57, 8, 48, 13, 49], "trial": 2, "time_elapsed": 396945, "type": "DISTRACTOR", "trial_index": 77, "num1": [8, 3, 7]}, "uniqueid": "MTK2397:33CKWXB73KR4UIRC1074O5MPHFX115", "dateTime": 1517075362210}, {"current_trial": 78, "trialdata": {"rt": -1, "trial_type": "single-stim", "stimulus": "<p id=\"stim\">10</p>", "internal_node_id": "0.0-60.0-0.0", "time_elapsed": 399948, "key_press": -1, "trial_index": 78}, "uniqueid": "MTK2397:33CKWXB73KR4UIRC1074O5MPHFX115", "dateTime": 1517075365214}, {"current_trial": 79, "trialdata": {"rt": -1, "trial_type": "single-stim", "stimulus": "<p id=\"stim\">9</p>", "internal_node_id": "0.0-60.0-1.0", "time_elapsed": 400951, "key_press": -1, "trial_index": 79}, "uniqueid": "MTK2397:33CKWXB73KR4UIRC1074O5MPHFX115", "dateTime": 1517075366216}, {"current_trial": 80, "trialdata": {"rt": -1, "trial_type": "single-stim", "stimulus": "<p id=\"stim\">8</p>", "internal_node_id": "0.0-60.0-2.0", "time_elapsed": 401954, "key_press": -1, "trial_index": 80}, "uniqueid": "MTK2397:33CKWXB73KR4UIRC1074O5MPHFX115", "dateTime": 1517075367219}, {"current_trial": 81, "trialdata": {"rt": -1, "trial_type": "single-stim", "stimulus": "<p id=\"stim\">7</p>", "internal_node_id": "0.0-60.0-3.0", "time_elapsed": 402973, "key_press": -1, "trial_index": 81}, "uniqueid": "MTK2397:33CKWXB73KR4UIRC1074O5MPHFX115", "dateTime": 1517075368238}, {"current_trial": 82, "trialdata": {"rt": -1, "trial_type": "single-stim", "stimulus": "<p id=\"stim\">6</p>", "internal_node_id": "0.0-60.0-4.0", "time_elapsed": 403975, "key_press": -1, "trial_index": 82}, "uniqueid": "MTK2397:33CKWXB73KR4UIRC1074O5MPHFX115", "dateTime": 1517075369240}, {"current_trial": 83, "trialdata": {"rt": -1, "trial_type": "single-stim", "stimulus": "<p id=\"stim\">5</p>", "internal_node_id": "0.0-60.0-5.0", "time_elapsed": 404977, "key_press": -1, "trial_index": 83}, "uniqueid": "MTK2397:33CKWXB73KR4UIRC1074O5MPHFX115", "dateTime": 1517075370242}, {"current_trial": 84, "trialdata": {"rt": -1, "trial_type": "single-stim", "stimulus": "<p id=\"stim\">4</p>", "internal_node_id": "0.0-60.0-6.0", "time_elapsed": 405979, "key_press": -1, "trial_index": 84}, "uniqueid": "MTK2397:33CKWXB73KR4UIRC1074O5MPHFX115", "dateTime": 1517075371244}, {"current_trial": 85, "trialdata": {"rt": -1, "trial_type": "single-stim", "stimulus": "<p id=\"stim\">3</p>", "internal_node_id": "0.0-60.0-7.0", "time_elapsed": 406982, "key_press": -1, "trial_index": 85}, "uniqueid": "MTK2397:33CKWXB73KR4UIRC1074O5MPHFX115", "dateTime": 1517075372247}, {"current_trial": 86, "trialdata": {"rt": -1, "trial_type": "single-stim", "stimulus": "<p id=\"stim\">2</p>", "internal_node_id": "0.0-60.0-8.0", "time_elapsed": 407985, "key_press": -1, "trial_index": 86}, "uniqueid": "MTK2397:33CKWXB73KR4UIRC1074O5MPHFX115", "dateTime": 1517075373250}, {"current_trial": 87, "trialdata": {"rt": -1, "trial_type": "single-stim", "stimulus": "<p id=\"stim\">1</p>", "internal_node_id": "0.0-60.0-9.0", "time_elapsed": 408987, "key_press": -1, "trial_index": 87}, "uniqueid": "MTK2397:33CKWXB73KR4UIRC1074O5MPHFX115", "dateTime": 1517075374252}, {"current_trial": 88, "trialdata": {"rt": -1, "trial_type": "single-stim", "stimulus": "<p id=\"stim\">+</p>", "internal_node_id": "0.0-61.0-0.0", "time_elapsed": 410489, "key_press": -1, "type": "FIXATION", "trial_index": 88}, "uniqueid": "MTK2397:33CKWXB73KR4UIRC1074O5MPHFX115", "dateTime": 1517075375755}, {"current_trial": 89, "trialdata": {"rt": -1, "trial_type": "single-stim", "word": "server", "stimulus": "<p id=\"stim\">SERVER</p>", "conditions": [12, 800, "v", 12000], "internal_node_id": "0.0-62.0", "trial": 2, "time_elapsed": 411292, "serialpos": 0, "key_press": -1, "wordID": 1271, "type": "PRES_VIS", "trial_index": 89}, "uniqueid": "MTK2397:33CKWXB73KR4UIRC1074O5MPHFX115", "dateTime": 1517075376557}, {"current_trial": 90, "trialdata": {"rt": -1, "trial_type": "single-stim", "word": "item", "stimulus": "<p id=\"stim\">ITEM</p>", "conditions": [12, 800, "v", 12000], "internal_node_id": "0.0-63.0", "trial": 2, "time_elapsed": 413076, "serialpos": 1, "key_press": -1, "wordID": 745, "type": "PRES_VIS", "trial_index": 90}, "uniqueid": "MTK2397:33CKWXB73KR4UIRC1074O5MPHFX115", "dateTime": 1517075378341}, {"current_trial": 91, "trialdata": {"rt": -1, "trial_type": "single-stim", "word": "cattle", "stimulus": "<p id=\"stim\">CATTLE</p>", "conditions": [12, 800, "v", 12000], "internal_node_id": "0.0-64.0", "trial": 2, "time_elapsed": 414927, "serialpos": 2, "key_press": -1, "wordID": 260, "type": "PRES_VIS", "trial_index": 91}, "uniqueid": "MTK2397:33CKWXB73KR4UIRC1074O5MPHFX115", "dateTime": 1517075380192}, {"current_trial": 92, "trialdata": {"rt": -1, "trial_type": "single-stim", "word": "parrot", "stimulus": "<p id=\"stim\">PARROT</p>", "conditions": [12, 800, "v", 12000], "internal_node_id": "0.0-65.0", "trial": 2, "time_elapsed": 416817, "serialpos": 3, "key_press": -1, "wordID": 1014, "type": "PRES_VIS", "trial_index": 92}, "uniqueid": "MTK2397:33CKWXB73KR4UIRC1074O5MPHFX115", "dateTime": 1517075382083}, {"current_trial": 93, "trialdata": {"rt": -1, "trial_type": "single-stim", "word": "saddle", "stimulus": "<p id=\"stim\">SADDLE</p>", "conditions": [12, 800, "v", 12000], "internal_node_id": "0.0-66.0", "trial": 2, "time_elapsed": 418583, "serialpos": 4, "key_press": -1, "wordID": 1220, "type": "PRES_VIS", "trial_index": 93}, "uniqueid": "MTK2397:33CKWXB73KR4UIRC1074O5MPHFX115", "dateTime": 1517075383849}, {"current_trial": 94, "trialdata": {"rt": -1, "trial_type": "single-stim", "word": "spoon", "stimulus": "<p id=\"stim\">SPOON</p>", "conditions": [12, 800, "v", 12000], "internal_node_id": "0.0-67.0", "trial": 2, "time_elapsed": 420286, "serialpos": 5, "key_press": -1, "wordID": 1356, "type": "PRES_VIS", "trial_index": 94}, "uniqueid": "MTK2397:33CKWXB73KR4UIRC1074O5MPHFX115", "dateTime": 1517075385551}, {"current_trial": 95, "trialdata": {"rt": -1, "trial_type": "single-stim", "word": "perch", "stimulus": "<p id=\"stim\">PERCH</p>", "conditions": [12, 800, "v", 12000], "internal_node_id": "0.0-68.0", "trial": 2, "time_elapsed": 421960, "serialpos": 6, "key_press": -1, "wordID": 1047, "type": "PRES_VIS", "trial_index": 95}, "uniqueid": "MTK2397:33CKWXB73KR4UIRC1074O5MPHFX115", "dateTime": 1517075387225}, {"current_trial": 96, "trialdata": {"rt": -1, "trial_type": "single-stim", "word": "radish", "stimulus": "<p id=\"stim\">RADISH</p>", "conditions": [12, 800, "v", 12000], "internal_node_id": "0.0-69.0", "trial": 2, "time_elapsed": 423804, "serialpos": 7, "key_press": -1, "wordID": 1157, "type": "PRES_VIS", "trial_index": 96}, "uniqueid": "MTK2397:33CKWXB73KR4UIRC1074O5MPHFX115", "dateTime": 1517075389070}, {"current_trial": 97, "trialdata": {"rt": -1, "trial_type": "single-stim", "word": "onion", "stimulus": "<p id=\"stim\">ONION</p>", "conditions": [12, 800, "v", 12000], "internal_node_id": "0.0-70.0", "trial": 2, "time_elapsed": 425714, "serialpos": 8, "key_press": -1, "wordID": 976, "type": "PRES_VIS", "trial_index": 97}, "uniqueid": "MTK2397:33CKWXB73KR4UIRC1074O5MPHFX115", "dateTime": 1517075390979}, {"current_trial": 98, "trialdata": {"rt": -1, "trial_type": "single-stim", "word": "fox", "stimulus": "<p id=\"stim\">FOX</p>", "conditions": [12, 800, "v", 12000], "internal_node_id": "0.0-71.0", "trial": 2, "time_elapsed": 427648, "serialpos": 9, "key_press": -1, "wordID": 597, "type": "PRES_VIS", "trial_index": 98}, "uniqueid": "MTK2397:33CKWXB73KR4UIRC1074O5MPHFX115", "dateTime": 1517075392914}, {"current_trial": 99, "trialdata": {"rt": -1, "trial_type": "single-stim", "word": "plaid", "stimulus": "<p id=\"stim\">PLAID</p>", "conditions": [12, 800, "v", 12000], "internal_node_id": "0.0-72.0", "trial": 2, "time_elapsed": 429615, "serialpos": 10, "key_press": -1, "wordID": 1079, "type": "PRES_VIS", "trial_index": 99}, "uniqueid": "MTK2397:33CKWXB73KR4UIRC1074O5MPHFX115", "dateTime": 1517075394880}, {"current_trial": 100, "trialdata": {"rt": -1, "trial_type": "single-stim", "word": "blockade", "stimulus": "<p id=\"stim\">BLOCKADE</p>", "conditions": [12, 800, "v", 12000], "internal_node_id": "0.0-73.0", "trial": 2, "time_elapsed": 431547, "serialpos": 11, "key_press": -1, "wordID": 136, "type": "PRES_VIS", "trial_index": 100}, "uniqueid": "MTK2397:33CKWXB73KR4UIRC1074O5MPHFX115", "dateTime": 1517075396812}, {"current_trial": 101, "trialdata": {"rt": -1, "trial_type": "single-stim", "stimulus": "", "internal_node_id": "0.0-74.0-0.0", "time_elapsed": 434022, "key_press": -1, "type": "PRE_RECALL_DELAY", "trial_index": 101}, "uniqueid": "MTK2397:33CKWXB73KR4UIRC1074O5MPHFX115", "dateTime": 1517075399287}, {"current_trial": 102, "trialdata": {"rt": -1000, "trial_type": "single-audio", "stimulus": "/static/audio/400Hz.wav", "internal_node_id": "0.0-75.0", "time_elapsed": 434525, "key_press": -1, "type": "PRE_RECALL_ALERT", "trial_index": 102}, "uniqueid": "MTK2397:33CKWXB73KR4UIRC1074O5MPHFX115", "dateTime": 1517075399791}, {"current_trial": 103, "trialdata": {"rt": [2853, 3702, 5611, 7711, 10592], "recwords": ["server", "item", "plaid", "blockade", "cattle"], "key_times": [1835, 1863, 1948, 2183, 2333, 2383, 2853, 3095, 3264, 3342, 3445, 3702, 4862, 5042, 5156, 5274, 5432, 5611, 5971, 6043, 6212, 6303, 6392, 6524, 6664, 6753, 6992, 7164, 7343, 7593, 7711, 9882, 9973, 10163, 10301, 10413, 10513, 10592], "trial_type": "free-recall", "conditions": [12, 800, "v", 12000], "internal_node_id": "0.0-76.0-0.0", "key_presses": [83, 69, 82, 86, 69, 82, 13, 73, 84, 69, 77, 13, 80, 76, 65, 73, 68, 13, 66, 76, 79, 67, 75, 65, 71, 69, 8, 8, 68, 69, 13, 67, 65, 84, 84, 76, 69, 13], "trial": 2, "time_elapsed": 494532, "type": "FREE_RECALL", "trial_index": 103}, "uniqueid": "MTK2397:33CKWXB73KR4UIRC1074O5MPHFX115", "dateTime": 1517075459802}, {"current_trial": 104, "trialdata": {"rt": 1763, "trial_type": "text", "internal_node_id": "0.0-77.0", "time_elapsed": 498302, "key_press": 39, "type": "INSTRUCTIONS", "trial_index": 104}, "uniqueid": "MTK2397:33CKWXB73KR4UIRC1074O5MPHFX115", "dateTime": 1517075463567}, {"current_trial": 105, "trialdata": {"rt": [3435, 7446, 9115], "trial_type": "math-distractor", "key_times": [2455, 2846, 3435, 6828, 7446, 8837, 8967, 9115], "responses": ["14", "7", "14"], "num2": [3, 2, 2, 7], "num3": [5, 4, 4, 8], "conditions": [24, 1600, "v", 12000], "internal_node_id": "0.0-78.0", "key_presses": [49, 52, 13, 55, 13, 49, 52, 13], "trial": 3, "time_elapsed": 512307, "type": "DISTRACTOR", "trial_index": 105, "num1": [6, 1, 8, 8]}, "uniqueid": "MTK2397:33CKWXB73KR4UIRC1074O5MPHFX115", "dateTime": 1517075477572}, {"current_trial": 106, "trialdata": {"rt": -1, "trial_type": "single-stim", "stimulus": "<p id=\"stim\">10</p>", "internal_node_id": "0.0-79.0-0.0", "time_elapsed": 515343, "key_press": -1, "trial_index": 106}, "uniqueid": "MTK2397:33CKWXB73KR4UIRC1074O5MPHFX115", "dateTime": 1517075480608}, {"current_trial": 107, "trialdata": {"rt": -1, "trial_type": "single-stim", "stimulus": "<p id=\"stim\">9</p>", "internal_node_id": "0.0-79.0-1.0", "time_elapsed": 516344, "key_press": -1, "trial_index": 107}, "uniqueid": "MTK2397:33CKWXB73KR4UIRC1074O5MPHFX115", "dateTime": 1517075481609}, {"current_trial": 108, "trialdata": {"rt": -1, "trial_type": "single-stim", "stimulus": "<p id=\"stim\">8</p>", "internal_node_id": "0.0-79.0-2.0", "time_elapsed": 517345, "key_press": -1, "trial_index": 108}, "uniqueid": "MTK2397:33CKWXB73KR4UIRC1074O5MPHFX115", "dateTime": 1517075482610}, {"current_trial": 109, "trialdata": {"rt": -1, "trial_type": "single-stim", "stimulus": "<p id=\"stim\">7</p>", "internal_node_id": "0.0-79.0-3.0", "time_elapsed": 518347, "key_press": -1, "trial_index": 109}, "uniqueid": "MTK2397:33CKWXB73KR4UIRC1074O5MPHFX115", "dateTime": 1517075483612}, {"current_trial": 110, "trialdata": {"rt": -1, "trial_type": "single-stim", "stimulus": "<p id=\"stim\">6</p>", "internal_node_id": "0.0-79.0-4.0", "time_elapsed": 519349, "key_press": -1, "trial_index": 110}, "uniqueid": "MTK2397:33CKWXB73KR4UIRC1074O5MPHFX115", "dateTime": 1517075484614}, {"current_trial": 111, "trialdata": {"rt": -1, "trial_type": "single-stim", "stimulus": "<p id=\"stim\">5</p>", "internal_node_id": "0.0-79.0-5.0", "time_elapsed": 520351, "key_press": -1, "trial_index": 111}, "uniqueid": "MTK2397:33CKWXB73KR4UIRC1074O5MPHFX115", "dateTime": 1517075485616}, {"current_trial": 112, "trialdata": {"rt": -1, "trial_type": "single-stim", "stimulus": "<p id=\"stim\">4</p>", "internal_node_id": "0.0-79.0-6.0", "time_elapsed": 521353, "key_press": -1, "trial_index": 112}, "uniqueid": "MTK2397:33CKWXB73KR4UIRC1074O5MPHFX115", "dateTime": 1517075486618}, {"current_trial": 113, "trialdata": {"rt": -1, "trial_type": "single-stim", "stimulus": "<p id=\"stim\">3</p>", "internal_node_id": "0.0-79.0-7.0", "time_elapsed": 522355, "key_press": -1, "trial_index": 113}, "uniqueid": "MTK2397:33CKWXB73KR4UIRC1074O5MPHFX115", "dateTime": 1517075487620}, {"current_trial": 114, "trialdata": {"rt": -1, "trial_type": "single-stim", "stimulus": "<p id=\"stim\">2</p>", "internal_node_id": "0.0-79.0-8.0", "time_elapsed": 523357, "key_press": -1, "trial_index": 114}, "uniqueid": "MTK2397:33CKWXB73KR4UIRC1074O5MPHFX115", "dateTime": 1517075488622}, {"current_trial": 115, "trialdata": {"rt": -1, "trial_type": "single-stim", "stimulus": "<p id=\"stim\">1</p>", "internal_node_id": "0.0-79.0-9.0", "time_elapsed": 524360, "key_press": -1, "trial_index": 115}, "uniqueid": "MTK2397:33CKWXB73KR4UIRC1074O5MPHFX115", "dateTime": 1517075489625}, {"current_trial": 116, "trialdata": {"rt": -1, "trial_type": "single-stim", "stimulus": "<p id=\"stim\">+</p>", "internal_node_id": "0.0-80.0-0.0", "time_elapsed": 525862, "key_press": -1, "type": "FIXATION", "trial_index": 116}, "uniqueid": "MTK2397:33CKWXB73KR4UIRC1074O5MPHFX115", "dateTime": 1517075491127}, {"current_trial": 117, "trialdata": {"rt": -1, "trial_type": "single-stim", "word": "scissors", "stimulus": "<p id=\"stim\">SCISSORS</p>", "conditions": [24, 1600, "v", 12000], "internal_node_id": "0.0-81.0", "trial": 3, "time_elapsed": 527464, "serialpos": 0, "key_press": -1, "wordID": 1249, "type": "PRES_VIS", "trial_index": 117}, "uniqueid": "MTK2397:33CKWXB73KR4UIRC1074O5MPHFX115", "dateTime": 1517075492729}, {"current_trial": 118, "trialdata": {"rt": -1, "trial_type": "single-stim", "word": "rifle", "stimulus": "<p id=\"stim\">RIFLE</p>", "conditions": [24, 1600, "v", 12000], "internal_node_id": "0.0-82.0", "trial": 3, "time_elapsed": 530025, "serialpos": 1, "key_press": -1, "wordID": 1191, "type": "PRES_VIS", "trial_index": 118}, "uniqueid": "MTK2397:33CKWXB73KR4UIRC1074O5MPHFX115", "dateTime": 1517075495290}, {"current_trial": 119, "trialdata": {"rt": -1, "trial_type": "single-stim", "word": "thief", "stimulus": "<p id=\"stim\">THIEF</p>", "conditions": [24, 1600, "v", 12000], "internal_node_id": "0.0-83.0", "trial": 3, "time_elapsed": 532501, "serialpos": 2, "key_press": -1, "wordID": 1455, "type": "PRES_VIS", "trial_index": 119}, "uniqueid": "MTK2397:33CKWXB73KR4UIRC1074O5MPHFX115", "dateTime": 1517075497766}, {"current_trial": 120, "trialdata": {"rt": -1, "trial_type": "single-stim", "word": "clam", "stimulus": "<p id=\"stim\">CLAM</p>", "conditions": [24, 1600, "v", 12000], "internal_node_id": "0.0-84.0", "trial": 3, "time_elapsed": 534988, "serialpos": 3, "key_press": -1, "wordID": 314, "type": "PRES_VIS", "trial_index": 120}, "uniqueid": "MTK2397:33CKWXB73KR4UIRC1074O5MPHFX115", "dateTime": 1517075500253}, {"current_trial": 121, "trialdata": {"rt": -1, "trial_type": "single-stim", "word": "cabin", "stimulus": "<p id=\"stim\">CABIN</p>", "conditions": [24, 1600, "v", 12000], "internal_node_id": "0.0-85.0", "trial": 3, "time_elapsed": 537559, "serialpos": 4, "key_press": -1, "wordID": 210, "type": "PRES_VIS", "trial_index": 121}, "uniqueid": "MTK2397:33CKWXB73KR4UIRC1074O5MPHFX115", "dateTime": 1517075502825}, {"current_trial": 122, "trialdata": {"rt": -1, "trial_type": "single-stim", "word": "japan", "stimulus": "<p id=\"stim\">JAPAN</p>", "conditions": [24, 1600, "v", 12000], "internal_node_id": "0.0-86.0", "trial": 3, "time_elapsed": 539997, "serialpos": 5, "key_press": -1, "wordID": 748, "type": "PRES_VIS", "trial_index": 122}, "uniqueid": "MTK2397:33CKWXB73KR4UIRC1074O5MPHFX115", "dateTime": 1517075505263}, {"current_trial": 123, "trialdata": {"rt": -1, "trial_type": "single-stim", "word": "victim", "stimulus": "<p id=\"stim\">VICTIM</p>", "conditions": [24, 1600, "v", 12000], "internal_node_id": "0.0-87.0", "trial": 3, "time_elapsed": 542434, "serialpos": 6, "key_press": -1, "wordID": 1561, "type": "PRES_VIS", "trial_index": 123}, "uniqueid": "MTK2397:33CKWXB73KR4UIRC1074O5MPHFX115", "dateTime": 1517075507700}, {"current_trial": 124, "trialdata": {"rt": -1, "trial_type": "single-stim", "word": "scallop", "stimulus": "<p id=\"stim\">SCALLOP</p>", "conditions": [24, 1600, "v", 12000], "internal_node_id": "0.0-88.0", "trial": 3, "time_elapsed": 545163, "serialpos": 7, "key_press": -1, "wordID": 1241, "type": "PRES_VIS", "trial_index": 124}, "uniqueid": "MTK2397:33CKWXB73KR4UIRC1074O5MPHFX115", "dateTime": 1517075510428}, {"current_trial": 125, "trialdata": {"rt": -1, "trial_type": "single-stim", "word": "cashew", "stimulus": "<p id=\"stim\">CASHEW</p>", "conditions": [24, 1600, "v", 12000], "internal_node_id": "0.0-89.0", "trial": 3, "time_elapsed": 547682, "serialpos": 8, "key_press": -1, "wordID": 252, "type": "PRES_VIS", "trial_index": 125}, "uniqueid": "MTK2397:33CKWXB73KR4UIRC1074O5MPHFX115", "dateTime": 1517075512948}, {"current_trial": 126, "trialdata": {"rt": -1, "trial_type": "single-stim", "word": "barrel", "stimulus": "<p id=\"stim\">BARREL</p>", "conditions": [24, 1600, "v", 12000], "internal_node_id": "0.0-90.0", "trial": 3, "time_elapsed": 550453, "serialpos": 9, "key_press": -1, "wordID": 90, "type": "PRES_VIS", "trial_index": 126}, "uniqueid": "MTK2397:33CKWXB73KR4UIRC1074O5MPHFX115", "dateTime": 1517075515718}, {"current_trial": 127, "trialdata": {"rt": -1, "trial_type": "single-stim", "word": "gallon", "stimulus": "<p id=\"stim\">GALLON</p>", "conditions": [24, 1600, "v", 12000], "internal_node_id": "0.0-91.0", "trial": 3, "time_elapsed": 553229, "serialpos": 10, "key_press": -1, "wordID": 617, "type": "PRES_VIS", "trial_index": 127}, "uniqueid": "MTK2397:33CKWXB73KR4UIRC1074O5MPHFX115", "dateTime": 1517075518495}, {"current_trial": 128, "trialdata": {"rt": -1, "trial_type": "single-stim", "word": "worker", "stimulus": "<p id=\"stim\">WORKER</p>", "conditions": [24, 1600, "v", 12000], "internal_node_id": "0.0-92.0", "trial": 3, "time_elapsed": 555943, "serialpos": 11, "key_press": -1, "wordID": 1620, "type": "PRES_VIS", "trial_index": 128}, "uniqueid": "MTK2397:33CKWXB73KR4UIRC1074O5MPHFX115", "dateTime": 1517075521208}, {"current_trial": 129, "trialdata": {"rt": -1, "trial_type": "single-stim", "word": "shrub", "stimulus": "<p id=\"stim\">SHRUB</p>", "conditions": [24, 1600, "v", 12000], "internal_node_id": "0.0-93.0", "trial": 3, "time_elapsed": 558418, "serialpos": 12, "key_press": -1, "wordID": 1298, "type": "PRES_VIS", "trial_index": 129}, "uniqueid": "MTK2397:33CKWXB73KR4UIRC1074O5MPHFX115", "dateTime": 1517075523683}, {"current_trial": 130, "trialdata": {"rt": -1, "trial_type": "single-stim", "word": "flower", "stimulus": "<p id=\"stim\">FLOWER</p>", "conditions": [24, 1600, "v", 12000], "internal_node_id": "0.0-94.0", "trial": 3, "time_elapsed": 560941, "serialpos": 13, "key_press": -1, "wordID": 583, "type": "PRES_VIS", "trial_index": 130}, "uniqueid": "MTK2397:33CKWXB73KR4UIRC1074O5MPHFX115", "dateTime": 1517075526206}, {"current_trial": 131, "trialdata": {"rt": -1, "trial_type": "single-stim", "word": "muffin", "stimulus": "<p id=\"stim\">MUFFIN</p>", "conditions": [24, 1600, "v", 12000], "internal_node_id": "0.0-95.0", "trial": 3, "time_elapsed": 563637, "serialpos": 14, "key_press": -1, "wordID": 928, "type": "PRES_VIS", "trial_index": 131}, "uniqueid": "MTK2397:33CKWXB73KR4UIRC1074O5MPHFX115", "dateTime": 1517075528903}, {"current_trial": 132, "trialdata": {"rt": -1, "trial_type": "single-stim", "word": "bacon", "stimulus": "<p id=\"stim\">BACON</p>", "conditions": [24, 1600, "v", 12000], "internal_node_id": "0.0-96.0", "trial": 3, "time_elapsed": 566243, "serialpos": 15, "key_press": -1, "wordID": 66, "type": "PRES_VIS", "trial_index": 132}, "uniqueid": "MTK2397:33CKWXB73KR4UIRC1074O5MPHFX115", "dateTime": 1517075531509}, {"current_trial": 133, "trialdata": {"rt": -1, "trial_type": "single-stim", "word": "sword", "stimulus": "<p id=\"stim\">SWORD</p>", "conditions": [24, 1600, "v", 12000], "internal_node_id": "0.0-97.0", "trial": 3, "time_elapsed": 568795, "serialpos": 16, "key_press": -1, "wordID": 1422, "type": "PRES_VIS", "trial_index": 133}, "uniqueid": "MTK2397:33CKWXB73KR4UIRC1074O5MPHFX115", "dateTime": 1517075534060}, {"current_trial": 134, "trialdata": {"rt": -1, "trial_type": "single-stim", "word": "widow", "stimulus": "<p id=\"stim\">WIDOW</p>", "conditions": [24, 1600, "v", 12000], "internal_node_id": "0.0-98.0", "trial": 3, "time_elapsed": 571344, "serialpos": 17, "key_press": -1, "wordID": 1607, "type": "PRES_VIS", "trial_index": 134}, "uniqueid": "MTK2397:33CKWXB73KR4UIRC1074O5MPHFX115", "dateTime": 1517075536610}, {"current_trial": 135, "trialdata": {"rt": -1, "trial_type": "single-stim", "word": "cashier", "stimulus": "<p id=\"stim\">CASHIER</p>", "conditions": [24, 1600, "v", 12000], "internal_node_id": "0.0-99.0", "trial": 3, "time_elapsed": 573749, "serialpos": 18, "key_press": -1, "wordID": 253, "type": "PRES_VIS", "trial_index": 135}, "uniqueid": "MTK2397:33CKWXB73KR4UIRC1074O5MPHFX115", "dateTime": 1517075539015}, {"current_trial": 136, "trialdata": {"rt": -1, "trial_type": "single-stim", "word": "sandwich", "stimulus": "<p id=\"stim\">SANDWICH</p>", "conditions": [24, 1600, "v", 12000], "internal_node_id": "0.0-100.0", "trial": 3, "time_elapsed": 576271, "serialpos": 19, "key_press": -1, "wordID": 1231, "type": "PRES_VIS", "trial_index": 136}, "uniqueid": "MTK2397:33CKWXB73KR4UIRC1074O5MPHFX115", "dateTime": 1517075541536}, {"current_trial": 137, "trialdata": {"rt": -1, "trial_type": "single-stim", "word": "custard", "stimulus": "<p id=\"stim\">CUSTARD</p>", "conditions": [24, 1600, "v", 12000], "internal_node_id": "0.0-101.0", "trial": 3, "time_elapsed": 578799, "serialpos": 20, "key_press": -1, "wordID": 428, "type": "PRES_VIS", "trial_index": 137}, "uniqueid": "MTK2397:33CKWXB73KR4UIRC1074O5MPHFX115", "dateTime": 1517075544064}, {"current_trial": 138, "trialdata": {"rt": -1, "trial_type": "single-stim", "word": "critic", "stimulus": "<p id=\"stim\">CRITIC</p>", "conditions": [24, 1600, "v", 12000], "internal_node_id": "0.0-102.0", "trial": 3, "time_elapsed": 581489, "serialpos": 21, "key_press": -1, "wordID": 409, "type": "PRES_VIS", "trial_index": 138}, "uniqueid": "MTK2397:33CKWXB73KR4UIRC1074O5MPHFX115", "dateTime": 1517075546754}, {"current_trial": 139, "trialdata": {"rt": -1, "trial_type": "single-stim", "word": "turnip", "stimulus": "<p id=\"stim\">TURNIP</p>", "conditions": [24, 1600, "v", 12000], "internal_node_id": "0.0-103.0", "trial": 3, "time_elapsed": 584290, "serialpos": 22, "key_press": -1, "wordID": 1520, "type": "PRES_VIS", "trial_index": 139}, "uniqueid": "MTK2397:33CKWXB73KR4UIRC1074O5MPHFX115", "dateTime": 1517075549556}, {"current_trial": 140, "trialdata": {"rt": -1, "trial_type": "single-stim", "word": "friend", "stimulus": "<p id=\"stim\">FRIEND</p>", "conditions": [24, 1600, "v", 12000], "internal_node_id": "0.0-104.0", "trial": 3, "time_elapsed": 587043, "serialpos": 23, "key_press": -1, "wordID": 605, "type": "PRES_VIS", "trial_index": 140}, "uniqueid": "MTK2397:33CKWXB73KR4UIRC1074O5MPHFX115", "dateTime": 1517075552308}, {"current_trial": 141, "trialdata": {"rt": -1, "trial_type": "single-stim", "stimulus": "", "internal_node_id": "0.0-105.0-0.0", "time_elapsed": 589227, "key_press": -1, "type": "PRE_RECALL_DELAY", "trial_index": 141}, "uniqueid": "MTK2397:33CKWXB73KR4UIRC1074O5MPHFX115", "dateTime": 1517075554492}, {"current_trial": 142, "trialdata": {"rt": -1000, "trial_type": "single-audio", "stimulus": "/static/audio/400Hz.wav", "internal_node_id": "0.0-106.0", "time_elapsed": 589730, "key_press": -1, "type": "PRE_RECALL_ALERT", "trial_index": 142}, "uniqueid": "MTK2397:33CKWXB73KR4UIRC1074O5MPHFX115", "dateTime": 1517075554996}, {"current_trial": 143, "trialdata": {"rt": [3278, 4708, 5887, 7181, 8837], "recwords": ["friend", "cashier", "scissors", "rifle", "custard"], "key_times": [1497, 1677, 2009, 2097, 2277, 2419, 3048, 3147, 3278, 3666, 3687, 3790, 3928, 4031, 4209, 4557, 4708, 4877, 5008, 5169, 5320, 5458, 5519, 5647, 5747, 5887, 6629, 6708, 6819, 6918, 7019, 7181, 7359, 7479, 7631, 7727, 7941, 8049, 8437, 8560, 8729, 8837], "trial_type": "free-recall", "conditions": [24, 1600, "v", 12000], "internal_node_id": "0.0-107.0-0.0", "key_presses": [70, 73, 8, 82, 73, 69, 78, 68, 13, 67, 65, 83, 72, 73, 69, 82, 13, 83, 67, 73, 83, 83, 79, 82, 83, 13, 82, 73, 70, 76, 69, 13, 67, 85, 83, 84, 65, 68, 8, 82, 68, 13], "trial": 3, "time_elapsed": 649736, "type": "FREE_RECALL", "trial_index": 143}, "uniqueid": "MTK2397:33CKWXB73KR4UIRC1074O5MPHFX115", "dateTime": 1517075615005}, {"current_trial": 144, "trialdata": {"rt": 5321, "trial_type": "text", "internal_node_id": "0.0-108.0", "time_elapsed": 657062, "key_press": 39, "type": "INSTRUCTIONS", "trial_index": 144}, "uniqueid": "MTK2397:33CKWXB73KR4UIRC1074O5MPHFX115", "dateTime": 1517075622327}, {"current_trial": 145, "trialdata": {"rt": [3241, 5111, 7212, 9602, 13232, 15042, 16911, 19171, 22459], "trial_type": "math-distractor", "key_times": [2756, 2922, 3241, 4582, 4762, 5111, 6841, 7002, 7212, 9113, 9323, 9602, 12703, 12969, 13232, 14613, 14753, 15042, 16422, 16642, 16911, 18872, 19022, 19171, 21904, 22180, 22459], "responses": ["19", "11", "11", "18", "20", "18", "17", "11", "15"], "num2": [3, 8, 3, 5, 9, 2, 8, 2, 6, 1], "num3": [8, 2, 3, 8, 7, 8, 8, 8, 4, 8], "conditions": [24, 800, "v", 24000], "internal_node_id": "0.0-109.0", "key_presses": [49, 57, 13, 49, 49, 13, 49, 49, 13, 49, 56, 13, 50, 48, 13, 49, 56, 13, 49, 55, 13, 49, 49, 13, 49, 53, 13], "trial": 4, "time_elapsed": 683067, "type": "DISTRACTOR", "trial_index": 145, "num1": [8, 1, 5, 5, 4, 8, 1, 1, 5, 6]}, "uniqueid": "MTK2397:33CKWXB73KR4UIRC1074O5MPHFX115", "dateTime": 1517075648333}, {"current_trial": 146, "trialdata": {"rt": -1, "trial_type": "single-stim", "stimulus": "<p id=\"stim\">10</p>", "internal_node_id": "0.0-110.0-0.0", "time_elapsed": 686071, "key_press": -1, "trial_index": 146}, "uniqueid": "MTK2397:33CKWXB73KR4UIRC1074O5MPHFX115", "dateTime": 1517075651336}, {"current_trial": 147, "trialdata": {"rt": -1, "trial_type": "single-stim", "stimulus": "<p id=\"stim\">9</p>", "internal_node_id": "0.0-110.0-1.0", "time_elapsed": 687088, "key_press": -1, "trial_index": 147}, "uniqueid": "MTK2397:33CKWXB73KR4UIRC1074O5MPHFX115", "dateTime": 1517075652353}, {"current_trial": 148, "trialdata": {"rt": -1, "trial_type": "single-stim", "stimulus": "<p id=\"stim\">8</p>", "internal_node_id": "0.0-110.0-2.0", "time_elapsed": 688089, "key_press": -1, "trial_index": 148}, "uniqueid": "MTK2397:33CKWXB73KR4UIRC1074O5MPHFX115", "dateTime": 1517075653354}, {"current_trial": 149, "trialdata": {"rt": -1, "trial_type": "single-stim", "stimulus": "<p id=\"stim\">7</p>", "internal_node_id": "0.0-110.0-3.0", "time_elapsed": 689091, "key_press": -1, "trial_index": 149}, "uniqueid": "MTK2397:33CKWXB73KR4UIRC1074O5MPHFX115", "dateTime": 1517075654356}, {"current_trial": 150, "trialdata": {"rt": -1, "trial_type": "single-stim", "stimulus": "<p id=\"stim\">6</p>", "internal_node_id": "0.0-110.0-4.0", "time_elapsed": 690093, "key_press": -1, "trial_index": 150}, "uniqueid": "MTK2397:33CKWXB73KR4UIRC1074O5MPHFX115", "dateTime": 1517075655358}, {"current_trial": 151, "trialdata": {"rt": -1, "trial_type": "single-stim", "stimulus": "<p id=\"stim\">5</p>", "internal_node_id": "0.0-110.0-5.0", "time_elapsed": 691095, "key_press": -1, "trial_index": 151}, "uniqueid": "MTK2397:33CKWXB73KR4UIRC1074O5MPHFX115", "dateTime": 1517075656360}, {"current_trial": 152, "trialdata": {"rt": -1, "trial_type": "single-stim", "stimulus": "<p id=\"stim\">4</p>", "internal_node_id": "0.0-110.0-6.0", "time_elapsed": 692097, "key_press": -1, "trial_index": 152}, "uniqueid": "MTK2397:33CKWXB73KR4UIRC1074O5MPHFX115", "dateTime": 1517075657363}, {"current_trial": 153, "trialdata": {"rt": -1, "trial_type": "single-stim", "stimulus": "<p id=\"stim\">3</p>", "internal_node_id": "0.0-110.0-7.0", "time_elapsed": 693100, "key_press": -1, "trial_index": 153}, "uniqueid": "MTK2397:33CKWXB73KR4UIRC1074O5MPHFX115", "dateTime": 1517075658366}, {"current_trial": 154, "trialdata": {"rt": -1, "trial_type": "single-stim", "stimulus": "<p id=\"stim\">2</p>", "internal_node_id": "0.0-110.0-8.0", "time_elapsed": 694102, "key_press": -1, "trial_index": 154}, "uniqueid": "MTK2397:33CKWXB73KR4UIRC1074O5MPHFX115", "dateTime": 1517075659368}, {"current_trial": 155, "trialdata": {"rt": -1, "trial_type": "single-stim", "stimulus": "<p id=\"stim\">1</p>", "internal_node_id": "0.0-110.0-9.0", "time_elapsed": 695105, "key_press": -1, "trial_index": 155}, "uniqueid": "MTK2397:33CKWXB73KR4UIRC1074O5MPHFX115", "dateTime": 1517075660370}, {"current_trial": 156, "trialdata": {"rt": -1, "trial_type": "single-stim", "stimulus": "<p id=\"stim\">+</p>", "internal_node_id": "0.0-111.0-0.0", "time_elapsed": 696607, "key_press": -1, "type": "FIXATION", "trial_index": 156}, "uniqueid": "MTK2397:33CKWXB73KR4UIRC1074O5MPHFX115", "dateTime": 1517075661873}, {"current_trial": 157, "trialdata": {"rt": -1, "trial_type": "single-stim", "word": "student", "stimulus": "<p id=\"stim\">STUDENT</p>", "conditions": [24, 800, "v", 24000], "internal_node_id": "0.0-112.0", "trial": 4, "time_elapsed": 697410, "serialpos": 0, "key_press": -1, "wordID": 1394, "type": "PRES_VIS", "trial_index": 157}, "uniqueid": "MTK2397:33CKWXB73KR4UIRC1074O5MPHFX115", "dateTime": 1517075662676}, {"current_trial": 158, "trialdata": {"rt": -1, "trial_type": "single-stim", "word": "college", "stimulus": "<p id=\"stim\">COLLEGE</p>", "conditions": [24, 800, "v", 24000], "internal_node_id": "0.0-113.0", "trial": 4, "time_elapsed": 699092, "serialpos": 1, "key_press": -1, "wordID": 345, "type": "PRES_VIS", "trial_index": 158}, "uniqueid": "MTK2397:33CKWXB73KR4UIRC1074O5MPHFX115", "dateTime": 1517075664358}, {"current_trial": 159, "trialdata": {"rt": -1, "trial_type": "single-stim", "word": "stove", "stimulus": "<p id=\"stim\">STOVE</p>", "conditions": [24, 800, "v", 24000], "internal_node_id": "0.0-114.0", "trial": 4, "time_elapsed": 700761, "serialpos": 2, "key_press": -1, "wordID": 1387, "type": "PRES_VIS", "trial_index": 159}, "uniqueid": "MTK2397:33CKWXB73KR4UIRC1074O5MPHFX115", "dateTime": 1517075666026}, {"current_trial": 160, "trialdata": {"rt": -1, "trial_type": "single-stim", "word": "spool", "stimulus": "<p id=\"stim\">SPOOL</p>", "conditions": [24, 800, "v", 24000], "internal_node_id": "0.0-115.0", "trial": 4, "time_elapsed": 702400, "serialpos": 3, "key_press": -1, "wordID": 1355, "type": "PRES_VIS", "trial_index": 160}, "uniqueid": "MTK2397:33CKWXB73KR4UIRC1074O5MPHFX115", "dateTime": 1517075667665}, {"current_trial": 161, "trialdata": {"rt": -1, "trial_type": "single-stim", "word": "heart", "stimulus": "<p id=\"stim\">HEART</p>", "conditions": [24, 800, "v", 24000], "internal_node_id": "0.0-116.0", "trial": 4, "time_elapsed": 704128, "serialpos": 4, "key_press": -1, "wordID": 696, "type": "PRES_VIS", "trial_index": 161}, "uniqueid": "MTK2397:33CKWXB73KR4UIRC1074O5MPHFX115", "dateTime": 1517075669393}, {"current_trial": 162, "trialdata": {"rt": -1, "trial_type": "single-stim", "word": "apple", "stimulus": "<p id=\"stim\">APPLE</p>", "conditions": [24, 800, "v", 24000], "internal_node_id": "0.0-117.0", "trial": 4, "time_elapsed": 705764, "serialpos": 5, "key_press": -1, "wordID": 32, "type": "PRES_VIS", "trial_index": 162}, "uniqueid": "MTK2397:33CKWXB73KR4UIRC1074O5MPHFX115", "dateTime": 1517075671029}, {"current_trial": 163, "trialdata": {"rt": -1, "trial_type": "single-stim", "word": "rod", "stimulus": "<p id=\"stim\">ROD</p>", "conditions": [24, 800, "v", 24000], "internal_node_id": "0.0-118.0", "trial": 4, "time_elapsed": 707400, "serialpos": 6, "key_press": -1, "wordID": 1202, "type": "PRES_VIS", "trial_index": 163}, "uniqueid": "MTK2397:33CKWXB73KR4UIRC1074O5MPHFX115", "dateTime": 1517075672665}, {"current_trial": 164, "trialdata": {"rt": -1, "trial_type": "single-stim", "word": "stomach", "stimulus": "<p id=\"stim\">STOMACH</p>", "conditions": [24, 800, "v", 24000], "internal_node_id": "0.0-119.0", "trial": 4, "time_elapsed": 709108, "serialpos": 7, "key_press": -1, "wordID": 1383, "type": "PRES_VIS", "trial_index": 164}, "uniqueid": "MTK2397:33CKWXB73KR4UIRC1074O5MPHFX115", "dateTime": 1517075674374}, {"current_trial": 165, "trialdata": {"rt": -1, "trial_type": "single-stim", "word": "hiker", "stimulus": "<p id=\"stim\">HIKER</p>", "conditions": [24, 800, "v", 24000], "internal_node_id": "0.0-120.0", "trial": 4, "time_elapsed": 711001, "serialpos": 8, "key_press": -1, "wordID": 707, "type": "PRES_VIS", "trial_index": 165}, "uniqueid": "MTK2397:33CKWXB73KR4UIRC1074O5MPHFX115", "dateTime": 1517075676266}, {"current_trial": 166, "trialdata": {"rt": -1, "trial_type": "single-stim", "word": "pizza", "stimulus": "<p id=\"stim\">PIZZA</p>", "conditions": [24, 800, "v", 24000], "internal_node_id": "0.0-121.0", "trial": 4, "time_elapsed": 712619, "serialpos": 9, "key_press": -1, "wordID": 1078, "type": "PRES_VIS", "trial_index": 166}, "uniqueid": "MTK2397:33CKWXB73KR4UIRC1074O5MPHFX115", "dateTime": 1517075677884}, {"current_trial": 167, "trialdata": {"rt": -1, "trial_type": "single-stim", "word": "puddle", "stimulus": "<p id=\"stim\">PUDDLE</p>", "conditions": [24, 800, "v", 24000], "internal_node_id": "0.0-122.0", "trial": 4, "time_elapsed": 714410, "serialpos": 10, "key_press": -1, "wordID": 1139, "type": "PRES_VIS", "trial_index": 167}, "uniqueid": "MTK2397:33CKWXB73KR4UIRC1074O5MPHFX115", "dateTime": 1517075679675}, {"current_trial": 168, "trialdata": {"rt": -1, "trial_type": "single-stim", "word": "hound", "stimulus": "<p id=\"stim\">HOUND</p>", "conditions": [24, 800, "v", 24000], "internal_node_id": "0.0-123.0", "trial": 4, "time_elapsed": 716245, "serialpos": 11, "key_press": -1, "wordID": 723, "type": "PRES_VIS", "trial_index": 168}, "uniqueid": "MTK2397:33CKWXB73KR4UIRC1074O5MPHFX115", "dateTime": 1517075681511}, {"current_trial": 169, "trialdata": {"rt": -1, "trial_type": "single-stim", "word": "hand", "stimulus": "<p id=\"stim\">HAND</p>", "conditions": [24, 800, "v", 24000], "internal_node_id": "0.0-124.0", "trial": 4, "time_elapsed": 717909, "serialpos": 12, "key_press": -1, "wordID": 682, "type": "PRES_VIS", "trial_index": 169}, "uniqueid": "MTK2397:33CKWXB73KR4UIRC1074O5MPHFX115", "dateTime": 1517075683174}, {"current_trial": 170, "trialdata": {"rt": -1, "trial_type": "single-stim", "word": "ozone", "stimulus": "<p id=\"stim\">OZONE</p>", "conditions": [24, 800, "v", 24000], "internal_node_id": "0.0-125.0", "trial": 4, "time_elapsed": 719573, "serialpos": 13, "key_press": -1, "wordID": 995, "type": "PRES_VIS", "trial_index": 170}, "uniqueid": "MTK2397:33CKWXB73KR4UIRC1074O5MPHFX115", "dateTime": 1517075684838}, {"current_trial": 171, "trialdata": {"rt": -1, "trial_type": "single-stim", "word": "mailman", "stimulus": "<p id=\"stim\">MAILMAN</p>", "conditions": [24, 800, "v", 24000], "internal_node_id": "0.0-126.0", "trial": 4, "time_elapsed": 721213, "serialpos": 14, "key_press": -1, "wordID": 857, "type": "PRES_VIS", "trial_index": 171}, "uniqueid": "MTK2397:33CKWXB73KR4UIRC1074O5MPHFX115", "dateTime": 1517075686478}, {"current_trial": 172, "trialdata": {"rt": -1, "trial_type": "single-stim", "word": "mailbox", "stimulus": "<p id=\"stim\">MAILBOX</p>", "conditions": [24, 800, "v", 24000], "internal_node_id": "0.0-127.0", "trial": 4, "time_elapsed": 722966, "serialpos": 15, "key_press": -1, "wordID": 856, "type": "PRES_VIS", "trial_index": 172}, "uniqueid": "MTK2397:33CKWXB73KR4UIRC1074O5MPHFX115", "dateTime": 1517075688231}, {"current_trial": 173, "trialdata": {"rt": -1, "trial_type": "single-stim", "word": "eyelash", "stimulus": "<p id=\"stim\">EYELASH</p>", "conditions": [24, 800, "v", 24000], "internal_node_id": "0.0-128.0", "trial": 4, "time_elapsed": 724966, "serialpos": 16, "key_press": -1, "wordID": 545, "type": "PRES_VIS", "trial_index": 173}, "uniqueid": "MTK2397:33CKWXB73KR4UIRC1074O5MPHFX115", "dateTime": 1517075690231}, {"current_trial": 174, "trialdata": {"rt": -1, "trial_type": "single-stim", "word": "daisy", "stimulus": "<p id=\"stim\">DAISY</p>", "conditions": [24, 800, "v", 24000], "internal_node_id": "0.0-129.0", "trial": 4, "time_elapsed": 726636, "serialpos": 17, "key_press": -1, "wordID": 434, "type": "PRES_VIS", "trial_index": 174}, "uniqueid": "MTK2397:33CKWXB73KR4UIRC1074O5MPHFX115", "dateTime": 1517075691901}, {"current_trial": 175, "trialdata": {"rt": -1, "trial_type": "single-stim", "word": "lace", "stimulus": "<p id=\"stim\">LACE</p>", "conditions": [24, 800, "v", 24000], "internal_node_id": "0.0-130.0", "trial": 4, "time_elapsed": 728427, "serialpos": 18, "key_press": -1, "wordID": 791, "type": "PRES_VIS", "trial_index": 175}, "uniqueid": "MTK2397:33CKWXB73KR4UIRC1074O5MPHFX115", "dateTime": 1517075693692}, {"current_trial": 176, "trialdata": {"rt": -1, "trial_type": "single-stim", "word": "ulcer", "stimulus": "<p id=\"stim\">ULCER</p>", "conditions": [24, 800, "v", 24000], "internal_node_id": "0.0-131.0", "trial": 4, "time_elapsed": 730137, "serialpos": 19, "key_press": -1, "wordID": 1532, "type": "PRES_VIS", "trial_index": 176}, "uniqueid": "MTK2397:33CKWXB73KR4UIRC1074O5MPHFX115", "dateTime": 1517075695403}, {"current_trial": 177, "trialdata": {"rt": -1, "trial_type": "single-stim", "word": "smog", "stimulus": "<p id=\"stim\">SMOG</p>", "conditions": [24, 800, "v", 24000], "internal_node_id": "0.0-132.0", "trial": 4, "time_elapsed": 732109, "serialpos": 20, "key_press": -1, "wordID": 1329, "type": "PRES_VIS", "trial_index": 177}, "uniqueid": "MTK2397:33CKWXB73KR4UIRC1074O5MPHFX115", "dateTime": 1517075697374}, {"current_trial": 178, "trialdata": {"rt": -1, "trial_type": "single-stim", "word": "pork", "stimulus": "<p id=\"stim\">PORK</p>", "conditions": [24, 800, "v", 24000], "internal_node_id": "0.0-133.0", "trial": 4, "time_elapsed": 733989, "serialpos": 21, "key_press": -1, "wordID": 1107, "type": "PRES_VIS", "trial_index": 178}, "uniqueid": "MTK2397:33CKWXB73KR4UIRC1074O5MPHFX115", "dateTime": 1517075699254}, {"current_trial": 179, "trialdata": {"rt": -1, "trial_type": "single-stim", "word": "airplane", "stimulus": "<p id=\"stim\">AIRPLANE</p>", "conditions": [24, 800, "v", 24000], "internal_node_id": "0.0-134.0", "trial": 4, "time_elapsed": 735638, "serialpos": 22, "key_press": -1, "wordID": 11, "type": "PRES_VIS", "trial_index": 179}, "uniqueid": "MTK2397:33CKWXB73KR4UIRC1074O5MPHFX115", "dateTime": 1517075700903}, {"current_trial": 180, "trialdata": {"rt": -1, "trial_type": "single-stim", "word": "blackboard", "stimulus": "<p id=\"stim\">BLACKBOARD</p>", "conditions": [24, 800, "v", 24000], "internal_node_id": "0.0-135.0", "trial": 4, "time_elapsed": 737307, "serialpos": 23, "key_press": -1, "wordID": 132, "type": "PRES_VIS", "trial_index": 180}, "uniqueid": "MTK2397:33CKWXB73KR4UIRC1074O5MPHFX115", "dateTime": 1517075702572}, {"current_trial": 181, "trialdata": {"rt": -1, "trial_type": "single-stim", "stimulus": "", "internal_node_id": "0.0-136.0-0.0", "time_elapsed": 739647, "key_press": -1, "type": "PRE_RECALL_DELAY", "trial_index": 181}, "uniqueid": "MTK2397:33CKWXB73KR4UIRC1074O5MPHFX115", "dateTime": 1517075704913}, {"current_trial": 182, "trialdata": {"rt": -1000, "trial_type": "single-audio", "stimulus": "/static/audio/400Hz.wav", "internal_node_id": "0.0-137.0", "time_elapsed": 740149, "key_press": -1, "type": "PRE_RECALL_ALERT", "trial_index": 182}, "uniqueid": "MTK2397:33CKWXB73KR4UIRC1074O5MPHFX115", "dateTime": 1517075705414}, {"current_trial": 183, "trialdata": {"rt": [1684, 4623, 7071, 7831, 9011, 9982, 11771, 12892, 25392, 26901], "recwords": ["b", "blackboard", "ulcer", "smog", "college", "student", "rod", "stomach]", "mailman", "mailbox"], "key_times": [1403, 1684, 1866, 2254, 2743, 3115, 3213, 3355, 3412, 3713, 3793, 4264, 4364, 4502, 4623, 4921, 5033, 5223, 5485, 5501, 5863, 6024, 6164, 6354, 6503, 6573, 7071, 7323, 7423, 7513, 7701, 7831, 8094, 8247, 8353, 8495, 8605, 8726, 8833, 9011, 9151, 9251, 9342, 9483, 9624, 9774, 9914, 9982, 11430, 11492, 11632, 11771, 11993, 12205, 12262, 12343, 12484, 12571, 12673, 12856, 12892, 24503, 24604, 24691, 24790, 24943, 25032, 25174, 25392, 25804, 25903, 25993, 26095, 26344, 26393, 26603, 26901], "trial_type": "free-recall", "conditions": [24, 800, "v", 24000], "internal_node_id": "0.0-138.0-0.0", "key_presses": [66, 186, 65, 8, 66, 76, 65, 67, 75, 66, 79, 65, 82, 68, 13, 85, 76, 83, 69, 82, 8, 8, 8, 67, 69, 82, 13, 83, 77, 79, 71, 13, 67, 79, 76, 76, 69, 71, 69, 13, 83, 84, 85, 68, 69, 78, 84, 13, 82, 79, 68, 13, 83, 84, 79, 77, 65, 67, 72, 221, 13, 77, 65, 73, 76, 77, 65, 78, 13, 77, 65, 73, 76, 66, 79, 88, 13], "trial": 4, "time_elapsed": 800153, "type": "FREE_RECALL", "trial_index": 183}, "uniqueid": "MTK2397:33CKWXB73KR4UIRC1074O5MPHFX115", "dateTime": 1517075765424}, {"current_trial": 184, "trialdata": {"rt": 2583, "trial_type": "text", "internal_node_id": "0.0-139.0", "time_elapsed": 804743, "key_press": 39, "type": "INSTRUCTIONS", "trial_index": 184}, "uniqueid": "MTK2397:33CKWXB73KR4UIRC1074O5MPHFX115", "dateTime": 1517075770009}, {"current_trial": 185, "trialdata": {"rt": [6749, 10149, 13409, 15879, 18509, 22530], "trial_type": "math-distractor", "key_times": [6220, 6570, 6749, 8272, 8381, 9039, 9201, 9861, 10149, 12929, 13168, 13409, 15581, 15879, 18141, 18261, 18509, 22180, 22361, 22530], "responses": ["26", "8", "16", "9", "10", "23"], "num2": [9, 2, 4, 3, 6, 8, 4], "num3": [9, 2, 7, 1, 3, 8, 2], "conditions": [24, 800, "v", 24000], "internal_node_id": "0.0-140.0", "key_presses": [50, 54, 13, 49, 48, 8, 8, 56, 13, 49, 54, 13, 57, 13, 49, 48, 13, 50, 51, 13], "trial": 5, "time_elapsed": 830749, "type": "DISTRACTOR", "trial_index": 185, "num1": [8, 4, 5, 5, 1, 7, 9]}, "uniqueid": "MTK2397:33CKWXB73KR4UIRC1074O5MPHFX115", "dateTime": 1517075796014}, {"current_trial": 186, "trialdata": {"rt": -1, "trial_type": "single-stim", "stimulus": "<p id=\"stim\">10</p>", "internal_node_id": "0.0-141.0-0.0", "time_elapsed": 833751, "key_press": -1, "trial_index": 186}, "uniqueid": "MTK2397:33CKWXB73KR4UIRC1074O5MPHFX115", "dateTime": 1517075799017}, {"current_trial": 187, "trialdata": {"rt": -1, "trial_type": "single-stim", "stimulus": "<p id=\"stim\">9</p>", "internal_node_id": "0.0-141.0-1.0", "time_elapsed": 834755, "key_press": -1, "trial_index": 187}, "uniqueid": "MTK2397:33CKWXB73KR4UIRC1074O5MPHFX115", "dateTime": 1517075800021}, {"current_trial": 188, "trialdata": {"rt": -1, "trial_type": "single-stim", "stimulus": "<p id=\"stim\">8</p>", "internal_node_id": "0.0-141.0-2.0", "time_elapsed": 835758, "key_press": -1, "trial_index": 188}, "uniqueid": "MTK2397:33CKWXB73KR4UIRC1074O5MPHFX115", "dateTime": 1517075801023}, {"current_trial": 189, "trialdata": {"rt": -1, "trial_type": "single-stim", "stimulus": "<p id=\"stim\">7</p>", "internal_node_id": "0.0-141.0-3.0", "time_elapsed": 836761, "key_press": -1, "trial_index": 189}, "uniqueid": "MTK2397:33CKWXB73KR4UIRC1074O5MPHFX115", "dateTime": 1517075802026}, {"current_trial": 190, "trialdata": {"rt": -1, "trial_type": "single-stim", "stimulus": "<p id=\"stim\">6</p>", "internal_node_id": "0.0-141.0-4.0", "time_elapsed": 837763, "key_press": -1, "trial_index": 190}, "uniqueid": "MTK2397:33CKWXB73KR4UIRC1074O5MPHFX115", "dateTime": 1517075803029}, {"current_trial": 191, "trialdata": {"rt": -1, "trial_type": "single-stim", "stimulus": "<p id=\"stim\">5</p>", "internal_node_id": "0.0-141.0-5.0", "time_elapsed": 838765, "key_press": -1, "trial_index": 191}, "uniqueid": "MTK2397:33CKWXB73KR4UIRC1074O5MPHFX115", "dateTime": 1517075804031}, {"current_trial": 192, "trialdata": {"rt": -1, "trial_type": "single-stim", "stimulus": "<p id=\"stim\">4</p>", "internal_node_id": "0.0-141.0-6.0", "time_elapsed": 839768, "key_press": -1, "trial_index": 192}, "uniqueid": "MTK2397:33CKWXB73KR4UIRC1074O5MPHFX115", "dateTime": 1517075805033}, {"current_trial": 193, "trialdata": {"rt": -1, "trial_type": "single-stim", "stimulus": "<p id=\"stim\">3</p>", "internal_node_id": "0.0-141.0-7.0", "time_elapsed": 840769, "key_press": -1, "trial_index": 193}, "uniqueid": "MTK2397:33CKWXB73KR4UIRC1074O5MPHFX115", "dateTime": 1517075806034}, {"current_trial": 194, "trialdata": {"rt": -1, "trial_type": "single-stim", "stimulus": "<p id=\"stim\">2</p>", "internal_node_id": "0.0-141.0-8.0", "time_elapsed": 841771, "key_press": -1, "trial_index": 194}, "uniqueid": "MTK2397:33CKWXB73KR4UIRC1074O5MPHFX115", "dateTime": 1517075807036}, {"current_trial": 195, "trialdata": {"rt": -1, "trial_type": "single-stim", "stimulus": "<p id=\"stim\">1</p>", "internal_node_id": "0.0-141.0-9.0", "time_elapsed": 842773, "key_press": -1, "trial_index": 195}, "uniqueid": "MTK2397:33CKWXB73KR4UIRC1074O5MPHFX115", "dateTime": 1517075808038}, {"current_trial": 196, "trialdata": {"rt": -1, "trial_type": "single-stim", "stimulus": "<p id=\"stim\">+</p>", "internal_node_id": "0.0-142.0-0.0", "time_elapsed": 844275, "key_press": -1, "type": "FIXATION", "trial_index": 196}, "uniqueid": "MTK2397:33CKWXB73KR4UIRC1074O5MPHFX115", "dateTime": 1517075809540}, {"current_trial": 197, "trialdata": {"rt": -1, "trial_type": "single-stim", "word": "curtain", "stimulus": "<p id=\"stim\">CURTAIN</p>", "conditions": [24, 800, "v", 24000], "internal_node_id": "0.0-143.0", "trial": 5, "time_elapsed": 845077, "serialpos": 0, "key_press": -1, "wordID": 426, "type": "PRES_VIS", "trial_index": 197}, "uniqueid": "MTK2397:33CKWXB73KR4UIRC1074O5MPHFX115", "dateTime": 1517075810342}, {"current_trial": 198, "trialdata": {"rt": -1, "trial_type": "single-stim", "word": "husband", "stimulus": "<p id=\"stim\">HUSBAND</p>", "conditions": [24, 800, "v", 24000], "internal_node_id": "0.0-144.0", "trial": 5, "time_elapsed": 846746, "serialpos": 1, "key_press": -1, "wordID": 727, "type": "PRES_VIS", "trial_index": 198}, "uniqueid": "MTK2397:33CKWXB73KR4UIRC1074O5MPHFX115", "dateTime": 1517075812011}, {"current_trial": 199, "trialdata": {"rt": -1, "trial_type": "single-stim", "word": "branch", "stimulus": "<p id=\"stim\">BRANCH</p>", "conditions": [24, 800, "v", 24000], "internal_node_id": "0.0-145.0", "trial": 5, "time_elapsed": 848705, "serialpos": 2, "key_press": -1, "wordID": 167, "type": "PRES_VIS", "trial_index": 199}, "uniqueid": "MTK2397:33CKWXB73KR4UIRC1074O5MPHFX115", "dateTime": 1517075813971}, {"current_trial": 200, "trialdata": {"rt": -1, "trial_type": "single-stim", "word": "rug", "stimulus": "<p id=\"stim\">RUG</p>", "conditions": [24, 800, "v", 24000], "internal_node_id": "0.0-146.0", "trial": 5, "time_elapsed": 850579, "serialpos": 3, "key_press": -1, "wordID": 1214, "type": "PRES_VIS", "trial_index": 200}, "uniqueid": "MTK2397:33CKWXB73KR4UIRC1074O5MPHFX115", "dateTime": 1517075815844}, {"current_trial": 201, "trialdata": {"rt": -1, "trial_type": "single-stim", "word": "burglar", "stimulus": "<p id=\"stim\">BURGLAR</p>", "conditions": [24, 800, "v", 24000], "internal_node_id": "0.0-147.0", "trial": 5, "time_elapsed": 852498, "serialpos": 4, "key_press": -1, "wordID": 199, "type": "PRES_VIS", "trial_index": 201}, "uniqueid": "MTK2397:33CKWXB73KR4UIRC1074O5MPHFX115", "dateTime": 1517075817763}, {"current_trial": 202, "trialdata": {"rt": -1, "trial_type": "single-stim", "word": "viking", "stimulus": "<p id=\"stim\">VIKING</p>", "conditions": [24, 800, "v", 24000], "internal_node_id": "0.0-148.0", "trial": 5, "time_elapsed": 854137, "serialpos": 5, "key_press": -1, "wordID": 1564, "type": "PRES_VIS", "trial_index": 202}, "uniqueid": "MTK2397:33CKWXB73KR4UIRC1074O5MPHFX115", "dateTime": 1517075819402}, {"current_trial": 203, "trialdata": {"rt": -1, "trial_type": "single-stim", "word": "orchid", "stimulus": "<p id=\"stim\">ORCHID</p>", "conditions": [24, 800, "v", 24000], "internal_node_id": "0.0-149.0", "trial": 5, "time_elapsed": 855829, "serialpos": 6, "key_press": -1, "wordID": 981, "type": "PRES_VIS", "trial_index": 203}, "uniqueid": "MTK2397:33CKWXB73KR4UIRC1074O5MPHFX115", "dateTime": 1517075821095}, {"current_trial": 204, "trialdata": {"rt": -1, "trial_type": "single-stim", "word": "sticker", "stimulus": "<p id=\"stim\">STICKER</p>", "conditions": [24, 800, "v", 24000], "internal_node_id": "0.0-150.0", "trial": 5, "time_elapsed": 857832, "serialpos": 7, "key_press": -1, "wordID": 1381, "type": "PRES_VIS", "trial_index": 204}, "uniqueid": "MTK2397:33CKWXB73KR4UIRC1074O5MPHFX115", "dateTime": 1517075823097}, {"current_trial": 205, "trialdata": {"rt": -1, "trial_type": "single-stim", "word": "badge", "stimulus": "<p id=\"stim\">BADGE</p>", "conditions": [24, 800, "v", 24000], "internal_node_id": "0.0-151.0", "trial": 5, "time_elapsed": 859501, "serialpos": 8, "key_press": -1, "wordID": 67, "type": "PRES_VIS", "trial_index": 205}, "uniqueid": "MTK2397:33CKWXB73KR4UIRC1074O5MPHFX115", "dateTime": 1517075824766}, {"current_trial": 206, "trialdata": {"rt": -1, "trial_type": "single-stim", "word": "picture", "stimulus": "<p id=\"stim\">PICTURE</p>", "conditions": [24, 800, "v", 24000], "internal_node_id": "0.0-152.0", "trial": 5, "time_elapsed": 861382, "serialpos": 9, "key_press": -1, "wordID": 1060, "type": "PRES_VIS", "trial_index": 206}, "uniqueid": "MTK2397:33CKWXB73KR4UIRC1074O5MPHFX115", "dateTime": 1517075826647}, {"current_trial": 207, "trialdata": {"rt": -1, "trial_type": "single-stim", "word": "drawing", "stimulus": "<p id=\"stim\">DRAWING</p>", "conditions": [24, 800, "v", 24000], "internal_node_id": "0.0-153.0", "trial": 5, "time_elapsed": 863346, "serialpos": 10, "key_press": -1, "wordID": 493, "type": "PRES_VIS", "trial_index": 207}, "uniqueid": "MTK2397:33CKWXB73KR4UIRC1074O5MPHFX115", "dateTime": 1517075828612}, {"current_trial": 208, "trialdata": {"rt": -1, "trial_type": "single-stim", "word": "wife", "stimulus": "<p id=\"stim\">WIFE</p>", "conditions": [24, 800, "v", 24000], "internal_node_id": "0.0-154.0", "trial": 5, "time_elapsed": 865331, "serialpos": 11, "key_press": -1, "wordID": 1608, "type": "PRES_VIS", "trial_index": 208}, "uniqueid": "MTK2397:33CKWXB73KR4UIRC1074O5MPHFX115", "dateTime": 1517075830597}, {"current_trial": 209, "trialdata": {"rt": -1, "trial_type": "single-stim", "word": "uncle", "stimulus": "<p id=\"stim\">UNCLE</p>", "conditions": [24, 800, "v", 24000], "internal_node_id": "0.0-155.0", "trial": 5, "time_elapsed": 867120, "serialpos": 12, "key_press": -1, "wordID": 1535, "type": "PRES_VIS", "trial_index": 209}, "uniqueid": "MTK2397:33CKWXB73KR4UIRC1074O5MPHFX115", "dateTime": 1517075832385}, {"current_trial": 210, "trialdata": {"rt": -1, "trial_type": "single-stim", "word": "leg", "stimulus": "<p id=\"stim\">LEG</p>", "conditions": [24, 800, "v", 24000], "internal_node_id": "0.0-156.0", "trial": 5, "time_elapsed": 868725, "serialpos": 13, "key_press": -1, "wordID": 808, "type": "PRES_VIS", "trial_index": 210}, "uniqueid": "MTK2397:33CKWXB73KR4UIRC1074O5MPHFX115", "dateTime": 1517075833990}, {"current_trial": 211, "trialdata": {"rt": -1, "trial_type": "single-stim", "word": "bunny", "stimulus": "<p id=\"stim\">BUNNY</p>", "conditions": [24, 800, "v", 24000], "internal_node_id": "0.0-157.0", "trial": 5, "time_elapsed": 870405, "serialpos": 14, "key_press": -1, "wordID": 197, "type": "PRES_VIS", "trial_index": 211}, "uniqueid": "MTK2397:33CKWXB73KR4UIRC1074O5MPHFX115", "dateTime": 1517075835670}, {"current_trial": 212, "trialdata": {"rt": -1, "trial_type": "single-stim", "word": "chipmunk", "stimulus": "<p id=\"stim\">CHIPMUNK</p>", "conditions": [24, 800, "v", 24000], "internal_node_id": "0.0-158.0", "trial": 5, "time_elapsed": 872218, "serialpos": 15, "key_press": -1, "wordID": 303, "type": "PRES_VIS", "trial_index": 212}, "uniqueid": "MTK2397:33CKWXB73KR4UIRC1074O5MPHFX115", "dateTime": 1517075837484}, {"current_trial": 213, "trialdata": {"rt": -1, "trial_type": "single-stim", "word": "dashboard", "stimulus": "<p id=\"stim\">DASHBOARD</p>", "conditions": [24, 800, "v", 24000], "internal_node_id": "0.0-159.0", "trial": 5, "time_elapsed": 873846, "serialpos": 16, "key_press": -1, "wordID": 440, "type": "PRES_VIS", "trial_index": 213}, "uniqueid": "MTK2397:33CKWXB73KR4UIRC1074O5MPHFX115", "dateTime": 1517075839112}, {"current_trial": 214, "trialdata": {"rt": -1, "trial_type": "single-stim", "word": "hawk", "stimulus": "<p id=\"stim\">HAWK</p>", "conditions": [24, 800, "v", 24000], "internal_node_id": "0.0-160.0", "trial": 5, "time_elapsed": 875556, "serialpos": 17, "key_press": -1, "wordID": 691, "type": "PRES_VIS", "trial_index": 214}, "uniqueid": "MTK2397:33CKWXB73KR4UIRC1074O5MPHFX115", "dateTime": 1517075840822}, {"current_trial": 215, "trialdata": {"rt": -1, "trial_type": "single-stim", "word": "dime", "stimulus": "<p id=\"stim\">DIME</p>", "conditions": [24, 800, "v", 24000], "internal_node_id": "0.0-161.0", "trial": 5, "time_elapsed": 877381, "serialpos": 18, "key_press": -1, "wordID": 465, "type": "PRES_VIS", "trial_index": 215}, "uniqueid": "MTK2397:33CKWXB73KR4UIRC1074O5MPHFX115", "dateTime": 1517075842647}, {"current_trial": 216, "trialdata": {"rt": -1, "trial_type": "single-stim", "word": "costume", "stimulus": "<p id=\"stim\">COSTUME</p>", "conditions": [24, 800, "v", 24000], "internal_node_id": "0.0-162.0", "trial": 5, "time_elapsed": 879192, "serialpos": 19, "key_press": -1, "wordID": 382, "type": "PRES_VIS", "trial_index": 216}, "uniqueid": "MTK2397:33CKWXB73KR4UIRC1074O5MPHFX115", "dateTime": 1517075844457}, {"current_trial": 217, "trialdata": {"rt": -1, "trial_type": "single-stim", "word": "brother", "stimulus": "<p id=\"stim\">BROTHER</p>", "conditions": [24, 800, "v", 24000], "internal_node_id": "0.0-163.0", "trial": 5, "time_elapsed": 880931, "serialpos": 20, "key_press": -1, "wordID": 178, "type": "PRES_VIS", "trial_index": 217}, "uniqueid": "MTK2397:33CKWXB73KR4UIRC1074O5MPHFX115", "dateTime": 1517075846196}, {"current_trial": 218, "trialdata": {"rt": -1, "trial_type": "single-stim", "word": "turtle", "stimulus": "<p id=\"stim\">TURTLE</p>", "conditions": [24, 800, "v", 24000], "internal_node_id": "0.0-164.0", "trial": 5, "time_elapsed": 882864, "serialpos": 21, "key_press": -1, "wordID": 1521, "type": "PRES_VIS", "trial_index": 218}, "uniqueid": "MTK2397:33CKWXB73KR4UIRC1074O5MPHFX115", "dateTime": 1517075848129}, {"current_trial": 219, "trialdata": {"rt": -1, "trial_type": "single-stim", "word": "balloon", "stimulus": "<p id=\"stim\">BALLOON</p>", "conditions": [24, 800, "v", 24000], "internal_node_id": "0.0-165.0", "trial": 5, "time_elapsed": 884727, "serialpos": 22, "key_press": -1, "wordID": 74, "type": "PRES_VIS", "trial_index": 219}, "uniqueid": "MTK2397:33CKWXB73KR4UIRC1074O5MPHFX115", "dateTime": 1517075849992}, {"current_trial": 220, "trialdata": {"rt": -1, "trial_type": "single-stim", "word": "chauffeur", "stimulus": "<p id=\"stim\">CHAUFFEUR</p>", "conditions": [24, 800, "v", 24000], "internal_node_id": "0.0-166.0", "trial": 5, "time_elapsed": 886447, "serialpos": 23, "key_press": -1, "wordID": 282, "type": "PRES_VIS", "trial_index": 220}, "uniqueid": "MTK2397:33CKWXB73KR4UIRC1074O5MPHFX115", "dateTime": 1517075851713}, {"current_trial": 221, "trialdata": {"rt": -1, "trial_type": "single-stim", "stimulus": "", "internal_node_id": "0.0-167.0-0.0", "time_elapsed": 888618, "key_press": -1, "type": "PRE_RECALL_DELAY", "trial_index": 221}, "uniqueid": "MTK2397:33CKWXB73KR4UIRC1074O5MPHFX115", "dateTime": 1517075853883}, {"current_trial": 222, "trialdata": {"rt": -1000, "trial_type": "single-audio", "stimulus": "/static/audio/400Hz.wav", "internal_node_id": "0.0-168.0", "time_elapsed": 889120, "key_press": -1, "type": "PRE_RECALL_ALERT", "trial_index": 222}, "uniqueid": "MTK2397:33CKWXB73KR4UIRC1074O5MPHFX115", "dateTime": 1517075854386}, {"current_trial": 223, "trialdata": {"rt": [2529, 5478, 6618, 7878], "recwords": ["uncle", "wife", "brother", "curtain"], "key_times": [1848, 1920, 2120, 2190, 2370, 2529, 2889, 3039, 4299, 4459, 4610, 4829, 4989, 5101, 5239, 5478, 5789, 5990, 6048, 6192, 6300, 6399, 6430, 6618, 6800, 6949, 7018, 7319, 7418, 7559, 7629, 7878], "trial_type": "free-recall", "conditions": [24, 800, "v", 24000], "internal_node_id": "0.0-169.0-0.0", "key_presses": [85, 78, 67, 76, 69, 13, 77, 79, 8, 8, 8, 87, 73, 70, 69, 13, 66, 82, 79, 84, 72, 69, 82, 13, 67, 85, 82, 84, 65, 73, 78, 13], "trial": 5, "time_elapsed": 949125, "type": "FREE_RECALL", "trial_index": 223}, "uniqueid": "MTK2397:33CKWXB73KR4UIRC1074O5MPHFX115", "dateTime": 1517075914395}, {"current_trial": 224, "trialdata": {"rt": 9919, "trial_type": "text", "internal_node_id": "0.0-170.0", "time_elapsed": 961051, "key_press": 39, "type": "INSTRUCTIONS", "trial_index": 224}, "uniqueid": "MTK2397:33CKWXB73KR4UIRC1074O5MPHFX115", "dateTime": 1517075926316}, {"current_trial": 225, "trialdata": {"rt": [2437, 5406, 10856], "trial_type": "math-distractor", "key_times": [2222, 2297, 2437, 4889, 5198, 5406, 9468, 9658, 9697, 10236, 10856], "responses": ["12", "16", "20"], "num2": [2, 7, 7, 2], "num3": [4, 1, 5, 3], "conditions": [24, 1600, "v", 12000], "internal_node_id": "0.0-171.0", "key_presses": [49, 50, 13, 49, 54, 13, 50, 48, 57, 8, 13], "trial": 6, "time_elapsed": 975057, "type": "DISTRACTOR", "trial_index": 225, "num1": [6, 8, 8, 6]}, "uniqueid": "MTK2397:33CKWXB73KR4UIRC1074O5MPHFX115", "dateTime": 1517075940323}, {"current_trial": 226, "trialdata": {"rt": -1, "trial_type": "single-stim", "stimulus": "<p id=\"stim\">10</p>", "internal_node_id": "0.0-172.0-0.0", "time_elapsed": 978060, "key_press": -1, "trial_index": 226}, "uniqueid": "MTK2397:33CKWXB73KR4UIRC1074O5MPHFX115", "dateTime": 1517075943328}, {"current_trial": 227, "trialdata": {"rt": -1, "trial_type": "single-stim", "stimulus": "<p id=\"stim\">9</p>", "internal_node_id": "0.0-172.0-1.0", "time_elapsed": 979064, "key_press": -1, "trial_index": 227}, "uniqueid": "MTK2397:33CKWXB73KR4UIRC1074O5MPHFX115", "dateTime": 1517075944329}, {"current_trial": 228, "trialdata": {"rt": -1, "trial_type": "single-stim", "stimulus": "<p id=\"stim\">8</p>", "internal_node_id": "0.0-172.0-2.0", "time_elapsed": 980065, "key_press": -1, "trial_index": 228}, "uniqueid": "MTK2397:33CKWXB73KR4UIRC1074O5MPHFX115", "dateTime": 1517075945330}, {"current_trial": 229, "trialdata": {"rt": -1, "trial_type": "single-stim", "stimulus": "<p id=\"stim\">7</p>", "internal_node_id": "0.0-172.0-3.0", "time_elapsed": 981067, "key_press": -1, "trial_index": 229}, "uniqueid": "MTK2397:33CKWXB73KR4UIRC1074O5MPHFX115", "dateTime": 1517075946333}, {"current_trial": 230, "trialdata": {"rt": -1, "trial_type": "single-stim", "stimulus": "<p id=\"stim\">6</p>", "internal_node_id": "0.0-172.0-4.0", "time_elapsed": 982070, "key_press": -1, "trial_index": 230}, "uniqueid": "MTK2397:33CKWXB73KR4UIRC1074O5MPHFX115", "dateTime": 1517075947336}, {"current_trial": 231, "trialdata": {"rt": -1, "trial_type": "single-stim", "stimulus": "<p id=\"stim\">5</p>", "internal_node_id": "0.0-172.0-5.0", "time_elapsed": 983074, "key_press": -1, "trial_index": 231}, "uniqueid": "MTK2397:33CKWXB73KR4UIRC1074O5MPHFX115", "dateTime": 1517075948339}, {"current_trial": 232, "trialdata": {"rt": -1, "trial_type": "single-stim", "stimulus": "<p id=\"stim\">4</p>", "internal_node_id": "0.0-172.0-6.0", "time_elapsed": 984077, "key_press": -1, "trial_index": 232}, "uniqueid": "MTK2397:33CKWXB73KR4UIRC1074O5MPHFX115", "dateTime": 1517075949342}, {"current_trial": 233, "trialdata": {"rt": -1, "trial_type": "single-stim", "stimulus": "<p id=\"stim\">3</p>", "internal_node_id": "0.0-172.0-7.0", "time_elapsed": 985080, "key_press": -1, "trial_index": 233}, "uniqueid": "MTK2397:33CKWXB73KR4UIRC1074O5MPHFX115", "dateTime": 1517075950345}, {"current_trial": 234, "trialdata": {"rt": -1, "trial_type": "single-stim", "stimulus": "<p id=\"stim\">2</p>", "internal_node_id": "0.0-172.0-8.0", "time_elapsed": 986082, "key_press": -1, "trial_index": 234}, "uniqueid": "MTK2397:33CKWXB73KR4UIRC1074O5MPHFX115", "dateTime": 1517075951348}, {"current_trial": 235, "trialdata": {"rt": -1, "trial_type": "single-stim", "stimulus": "<p id=\"stim\">1</p>", "internal_node_id": "0.0-172.0-9.0", "time_elapsed": 987085, "key_press": -1, "trial_index": 235}, "uniqueid": "MTK2397:33CKWXB73KR4UIRC1074O5MPHFX115", "dateTime": 1517075952351}, {"current_trial": 236, "trialdata": {"rt": -1, "trial_type": "single-stim", "stimulus": "<p id=\"stim\">+</p>", "internal_node_id": "0.0-173.0-0.0", "time_elapsed": 988588, "key_press": -1, "type": "FIXATION", "trial_index": 236}, "uniqueid": "MTK2397:33CKWXB73KR4UIRC1074O5MPHFX115", "dateTime": 1517075953854}, {"current_trial": 237, "trialdata": {"rt": -1, "trial_type": "single-stim", "word": "garden", "stimulus": "<p id=\"stim\">GARDEN</p>", "conditions": [24, 1600, "v", 12000], "internal_node_id": "0.0-174.0", "trial": 6, "time_elapsed": 990191, "serialpos": 0, "key_press": -1, "wordID": 622, "type": "PRES_VIS", "trial_index": 237}, "uniqueid": "MTK2397:33CKWXB73KR4UIRC1074O5MPHFX115", "dateTime": 1517075955457}, {"current_trial": 238, "trialdata": {"rt": -1, "trial_type": "single-stim", "word": "ox", "stimulus": "<p id=\"stim\">OX</p>", "conditions": [24, 1600, "v", 12000], "internal_node_id": "0.0-175.0", "trial": 6, "time_elapsed": 992843, "serialpos": 1, "key_press": -1, "wordID": 993, "type": "PRES_VIS", "trial_index": 238}, "uniqueid": "MTK2397:33CKWXB73KR4UIRC1074O5MPHFX115", "dateTime": 1517075958108}, {"current_trial": 239, "trialdata": {"rt": -1, "trial_type": "single-stim", "word": "captive", "stimulus": "<p id=\"stim\">CAPTIVE</p>", "conditions": [24, 1600, "v", 12000], "internal_node_id": "0.0-176.0", "trial": 6, "time_elapsed": 995371, "serialpos": 2, "key_press": -1, "wordID": 239, "type": "PRES_VIS", "trial_index": 239}, "uniqueid": "MTK2397:33CKWXB73KR4UIRC1074O5MPHFX115", "dateTime": 1517075960636}, {"current_trial": 240, "trialdata": {"rt": -1, "trial_type": "single-stim", "word": "plaster", "stimulus": "<p id=\"stim\">PLASTER</p>", "conditions": [24, 1600, "v", 12000], "internal_node_id": "0.0-177.0", "trial": 6, "time_elapsed": 998054, "serialpos": 3, "key_press": -1, "wordID": 1084, "type": "PRES_VIS", "trial_index": 240}, "uniqueid": "MTK2397:33CKWXB73KR4UIRC1074O5MPHFX115", "dateTime": 1517075963320}, {"current_trial": 241, "trialdata": {"rt": -1, "trial_type": "single-stim", "word": "snake", "stimulus": "<p id=\"stim\">SNAKE</p>", "conditions": [24, 1600, "v", 12000], "internal_node_id": "0.0-178.0", "trial": 6, "time_elapsed": 1000712, "serialpos": 4, "key_press": -1, "wordID": 1332, "type": "PRES_VIS", "trial_index": 241}, "uniqueid": "MTK2397:33CKWXB73KR4UIRC1074O5MPHFX115", "dateTime": 1517075965977}, {"current_trial": 242, "trialdata": {"rt": -1, "trial_type": "single-stim", "word": "lodge", "stimulus": "<p id=\"stim\">LODGE</p>", "conditions": [24, 1600, "v", 12000], "internal_node_id": "0.0-179.0", "trial": 6, "time_elapsed": 1003234, "serialpos": 5, "key_press": -1, "wordID": 838, "type": "PRES_VIS", "trial_index": 242}, "uniqueid": "MTK2397:33CKWXB73KR4UIRC1074O5MPHFX115", "dateTime": 1517075968499}, {"current_trial": 243, "trialdata": {"rt": -1, "trial_type": "single-stim", "word": "powder", "stimulus": "<p id=\"stim\">POWDER</p>", "conditions": [24, 1600, "v", 12000], "internal_node_id": "0.0-180.0", "trial": 6, "time_elapsed": 1005690, "serialpos": 6, "key_press": -1, "wordID": 1116, "type": "PRES_VIS", "trial_index": 243}, "uniqueid": "MTK2397:33CKWXB73KR4UIRC1074O5MPHFX115", "dateTime": 1517075970955}, {"current_trial": 244, "trialdata": {"rt": -1, "trial_type": "single-stim", "word": "cobra", "stimulus": "<p id=\"stim\">COBRA</p>", "conditions": [24, 1600, "v", 12000], "internal_node_id": "0.0-181.0", "trial": 6, "time_elapsed": 1008137, "serialpos": 7, "key_press": -1, "wordID": 335, "type": "PRES_VIS", "trial_index": 244}, "uniqueid": "MTK2397:33CKWXB73KR4UIRC1074O5MPHFX115", "dateTime": 1517075973402}, {"current_trial": 245, "trialdata": {"rt": -1, "trial_type": "single-stim", "word": "monster", "stimulus": "<p id=\"stim\">MONSTER</p>", "conditions": [24, 1600, "v", 12000], "internal_node_id": "0.0-182.0", "trial": 6, "time_elapsed": 1010934, "serialpos": 8, "key_press": -1, "wordID": 911, "type": "PRES_VIS", "trial_index": 245}, "uniqueid": "MTK2397:33CKWXB73KR4UIRC1074O5MPHFX115", "dateTime": 1517075976199}, {"current_trial": 246, "trialdata": {"rt": -1, "trial_type": "single-stim", "word": "hero", "stimulus": "<p id=\"stim\">HERO</p>", "conditions": [24, 1600, "v", 12000], "internal_node_id": "0.0-183.0", "trial": 6, "time_elapsed": 1013388, "serialpos": 9, "key_press": -1, "wordID": 705, "type": "PRES_VIS", "trial_index": 246}, "uniqueid": "MTK2397:33CKWXB73KR4UIRC1074O5MPHFX115", "dateTime": 1517075978654}, {"current_trial": 247, "trialdata": {"rt": -1, "trial_type": "single-stim", "word": "plaza", "stimulus": "<p id=\"stim\">PLAZA</p>", "conditions": [24, 1600, "v", 12000], "internal_node_id": "0.0-184.0", "trial": 6, "time_elapsed": 1016102, "serialpos": 10, "key_press": -1, "wordID": 1087, "type": "PRES_VIS", "trial_index": 247}, "uniqueid": "MTK2397:33CKWXB73KR4UIRC1074O5MPHFX115", "dateTime": 1517075981367}, {"current_trial": 248, "trialdata": {"rt": -1, "trial_type": "single-stim", "word": "sidewalk", "stimulus": "<p id=\"stim\">SIDEWALK</p>", "conditions": [24, 1600, "v", 12000], "internal_node_id": "0.0-185.0", "trial": 6, "time_elapsed": 1018656, "serialpos": 11, "key_press": -1, "wordID": 1302, "type": "PRES_VIS", "trial_index": 248}, "uniqueid": "MTK2397:33CKWXB73KR4UIRC1074O5MPHFX115", "dateTime": 1517075983921}, {"current_trial": 249, "trialdata": {"rt": -1, "trial_type": "single-stim", "word": "stone", "stimulus": "<p id=\"stim\">STONE</p>", "conditions": [24, 1600, "v", 12000], "internal_node_id": "0.0-186.0", "trial": 6, "time_elapsed": 1021199, "serialpos": 12, "key_press": -1, "wordID": 1384, "type": "PRES_VIS", "trial_index": 249}, "uniqueid": "MTK2397:33CKWXB73KR4UIRC1074O5MPHFX115", "dateTime": 1517075986465}, {"current_trial": 250, "trialdata": {"rt": -1, "trial_type": "single-stim", "word": "termite", "stimulus": "<p id=\"stim\">TERMITE</p>", "conditions": [24, 1600, "v", 12000], "internal_node_id": "0.0-187.0", "trial": 6, "time_elapsed": 1023896, "serialpos": 13, "key_press": -1, "wordID": 1450, "type": "PRES_VIS", "trial_index": 250}, "uniqueid": "MTK2397:33CKWXB73KR4UIRC1074O5MPHFX115", "dateTime": 1517075989161}, {"current_trial": 251, "trialdata": {"rt": -1, "trial_type": "single-stim", "word": "mildew", "stimulus": "<p id=\"stim\">MILDEW</p>", "conditions": [24, 1600, "v", 12000], "internal_node_id": "0.0-188.0", "trial": 6, "time_elapsed": 1026562, "serialpos": 14, "key_press": -1, "wordID": 892, "type": "PRES_VIS", "trial_index": 251}, "uniqueid": "MTK2397:33CKWXB73KR4UIRC1074O5MPHFX115", "dateTime": 1517075991827}, {"current_trial": 252, "trialdata": {"rt": -1, "trial_type": "single-stim", "word": "braces", "stimulus": "<p id=\"stim\">BRACES</p>", "conditions": [24, 1600, "v", 12000], "internal_node_id": "0.0-189.0", "trial": 6, "time_elapsed": 1029143, "serialpos": 15, "key_press": -1, "wordID": 163, "type": "PRES_VIS", "trial_index": 252}, "uniqueid": "MTK2397:33CKWXB73KR4UIRC1074O5MPHFX115", "dateTime": 1517075994408}, {"current_trial": 253, "trialdata": {"rt": -1, "trial_type": "single-stim", "word": "film", "stimulus": "<p id=\"stim\">FILM</p>", "conditions": [24, 1600, "v", 12000], "internal_node_id": "0.0-190.0", "trial": 6, "time_elapsed": 1031878, "serialpos": 16, "key_press": -1, "wordID": 564, "type": "PRES_VIS", "trial_index": 253}, "uniqueid": "MTK2397:33CKWXB73KR4UIRC1074O5MPHFX115", "dateTime": 1517075997144}, {"current_tria