{"assignmentId": "35USIKEBNSN2FBZYCTHJG8Q9UR4N6L", "workerId": "MTK2971", "questiondata": {"origin": "United States", "strat-rehearsal": "80", "marital": "Single", "education": "Bachelor's degree", "ethnicity": "Hispanic", "color_depth": 24, "distracted": "No", "wrote-notes": "No", "strat-other": "", "screen_width": 1536, "avail_screen_width": 1536, "avail_screen_height": 864, "strat-image": "41", "language": "English", "gender": "Male", "age": "28", "gender_other": "", "race": ["Black"], "strat-categorize": "60", "pixel_depth": 24, "strat-spatial": "66", "strat-story": "47", "race_other": "", "screen_height": 864}, "bonus": 0, "hitId": "366FYU4PTGW3X09GVW3ZBK5YWH7KEW", "counterbalance": 51, "useragent": "Mozilla/5.0 (Windows NT 10.0; Win64; x64) AppleWebKit/537.36 (KHTML, like Gecko) Chrome/64.0.3282.167 Safari/537.36", "eventdata": [{"eventtype": "initialized", "interval": 0, "value": null, "timestamp": 1519603503127}, {"eventtype": "window_resize", "interval": 0, "value": [1540, 816], "timestamp": 1519603503127}], "data": [{"current_trial": 0, "trialdata": {"rt": 1538, "trial_type": "text", "internal_node_id": "0.0-0.0", "time_elapsed": 1540, "key_press": 32, "type": "INSTRUCTIONS", "trial_index": 0}, "uniqueid": "MTK2971:35USIKEBNSN2FBZYCTHJG8Q9UR4N6L", "dateTime": 1519603505456}, {"current_trial": 1, "trialdata": {"rt": 12866, "trial_type": "text", "internal_node_id": "0.0-1.0", "time_elapsed": 14409, "key_press": 175, "type": "INSTRUCTIONS", "trial_index": 1}, "uniqueid": "MTK2971:35USIKEBNSN2FBZYCTHJG8Q9UR4N6L", "dateTime": 1519603518325}, {"current_trial": 2, "trialdata": {"rt": [11994], "trial_type": "audio-test", "responses": ["ocean"], "internal_node_id": "0.0-2.0", "time_elapsed": 26422, "type": "AUDIO_TEST", "trial_index": 2}, "uniqueid": "MTK2971:35USIKEBNSN2FBZYCTHJG8Q9UR4N6L", "dateTime": 1519603530338}, {"current_trial": 3, "trialdata": {"rt": [13812], "trial_type": "audio-test", "responses": ["crystal"], "internal_node_id": "0.0-3.0", "time_elapsed": 40237, "type": "AUDIO_TEST", "trial_index": 3}, "uniqueid": "MTK2971:35USIKEBNSN2FBZYCTHJG8Q9UR4N6L", "dateTime": 1519603544153}, {"current_trial": 4, "trialdata": {"rt": [5027], "trial_type": "audio-test", "responses": ["spice"], "internal_node_id": "0.0-4.0", "time_elapsed": 45268, "type": "AUDIO_TEST", "trial_index": 4}, "uniqueid": "MTK2971:35USIKEBNSN2FBZYCTHJG8Q9UR4N6L", "dateTime": 1519603549184}, {"current_trial": 5, "trialdata": {"rt": 22639, "trial_type": "survey-text", "responses": "{\"Q0\":\"1:30\",\"Q1\":\"7:30\",\"Q2\":\"4\"}", "internal_node_id": "0.0-5.0", "time_elapsed": 68660, "type": "SLEEP_SURVEY", "trial_index": 5}, "uniqueid": "MTK2971:35USIKEBNSN2FBZYCTHJG8Q9UR4N6L", "dateTime": 1519603572576}, {"current_trial": 6, "trialdata": {"rt": 152390, "trial_type": "text", "internal_node_id": "0.0-6.0", "time_elapsed": 222053, "key_press": 32, "type": "INSTRUCTIONS", "trial_index": 6}, "uniqueid": "MTK2971:35USIKEBNSN2FBZYCTHJG8Q9UR4N6L", "dateTime": 1519603725969}, {"current_trial": 7, "trialdata": {"rt": 45569, "trial_type": "text", "internal_node_id": "0.0-7.0", "time_elapsed": 268126, "key_press": 32, "type": "INSTRUCTIONS", "trial_index": 7}, "uniqueid": "MTK2971:35USIKEBNSN2FBZYCTHJG8Q9UR4N6L", "dateTime": 1519603772042}, {"current_trial": 8, "trialdata": {"rt": 10558, "trial_type": "text", "internal_node_id": "0.0-8.0", "time_elapsed": 279188, "key_press": 13, "type": "INSTRUCTIONS", "trial_index": 8}, "uniqueid": "MTK2971:35USIKEBNSN2FBZYCTHJG8Q9UR4N6L", "dateTime": 1519603783104}, {"current_trial": 9, "trialdata": {"rt": [3434, 5380, 7871, 9694, 11407, 13500, 15402, 17442], "trial_type": "math-distractor", "key_times": [2157, 2274, 3434, 4944, 5019, 5380, 7215, 7338, 7871, 9282, 9466, 9694, 10942, 11064, 11407, 13008, 13356, 13500, 15174, 15249, 15402, 16874, 17302, 17442], "responses": ["20", "10", "23", "11", "17", "16", "21", "17"], "num2": [7, 1, 8, 2, 5, 5, 9, 6, 2], "num3": [9, 1, 9, 7, 7, 2, 6, 4, 3], "conditions": [18, 1200, "v", 18000], "internal_node_id": "0.0-9.0", "key_presses": [50, 48, 13, 49, 48, 13, 50, 51, 13, 49, 49, 13, 49, 55, 13, 49, 54, 13, 50, 49, 13, 49, 55, 13], "trial": 0, "time_elapsed": 298200, "type": "DISTRACTOR", "trial_index": 9, "num1": [4, 8, 6, 2, 5, 9, 6, 7, 2]}, "uniqueid": "MTK2971:35USIKEBNSN2FBZYCTHJG8Q9UR4N6L", "dateTime": 1519603802116}, {"current_trial": 10, "trialdata": {"rt": -1, "trial_type": "single-stim", "stimulus": "<p id=\"stim\">10</p>", "internal_node_id": "0.0-10.0-0.0", "time_elapsed": 301206, "key_press": -1, "trial_index": 10}, "uniqueid": "MTK2971:35USIKEBNSN2FBZYCTHJG8Q9UR4N6L", "dateTime": 1519603805122}, {"current_trial": 11, "trialdata": {"rt": -1, "trial_type": "single-stim", "stimulus": "<p id=\"stim\">9</p>", "internal_node_id": "0.0-10.0-1.0", "time_elapsed": 302208, "key_press": -1, "trial_index": 11}, "uniqueid": "MTK2971:35USIKEBNSN2FBZYCTHJG8Q9UR4N6L", "dateTime": 1519603806124}, {"current_trial": 12, "trialdata": {"rt": -1, "trial_type": "single-stim", "stimulus": "<p id=\"stim\">8</p>", "internal_node_id": "0.0-10.0-2.0", "time_elapsed": 303211, "key_press": -1, "trial_index": 12}, "uniqueid": "MTK2971:35USIKEBNSN2FBZYCTHJG8Q9UR4N6L", "dateTime": 1519603807127}, {"current_trial": 13, "trialdata": {"rt": -1, "trial_type": "single-stim", "stimulus": "<p id=\"stim\">7</p>", "internal_node_id": "0.0-10.0-3.0", "time_elapsed": 304214, "key_press": -1, "trial_index": 13}, "uniqueid": "MTK2971:35USIKEBNSN2FBZYCTHJG8Q9UR4N6L", "dateTime": 1519603808130}, {"current_trial": 14, "trialdata": {"rt": -1, "trial_type": "single-stim", "stimulus": "<p id=\"stim\">6</p>", "internal_node_id": "0.0-10.0-4.0", "time_elapsed": 305216, "key_press": -1, "trial_index": 14}, "uniqueid": "MTK2971:35USIKEBNSN2FBZYCTHJG8Q9UR4N6L", "dateTime": 1519603809132}, {"current_trial": 15, "trialdata": {"rt": -1, "trial_type": "single-stim", "stimulus": "<p id=\"stim\">5</p>", "internal_node_id": "0.0-10.0-5.0", "time_elapsed": 306218, "key_press": -1, "trial_index": 15}, "uniqueid": "MTK2971:35USIKEBNSN2FBZYCTHJG8Q9UR4N6L", "dateTime": 1519603810134}, {"current_trial": 16, "trialdata": {"rt": -1, "trial_type": "single-stim", "stimulus": "<p id=\"stim\">4</p>", "internal_node_id": "0.0-10.0-6.0", "time_elapsed": 307220, "key_press": -1, "trial_index": 16}, "uniqueid": "MTK2971:35USIKEBNSN2FBZYCTHJG8Q9UR4N6L", "dateTime": 1519603811136}, {"current_trial": 17, "trialdata": {"rt": -1, "trial_type": "single-stim", "stimulus": "<p id=\"stim\">3</p>", "internal_node_id": "0.0-10.0-7.0", "time_elapsed": 308223, "key_press": -1, "trial_index": 17}, "uniqueid": "MTK2971:35USIKEBNSN2FBZYCTHJG8Q9UR4N6L", "dateTime": 1519603812140}, {"current_trial": 18, "trialdata": {"rt": -1, "trial_type": "single-stim", "stimulus": "<p id=\"stim\">2</p>", "internal_node_id": "0.0-10.0-8.0", "time_elapsed": 309226, "key_press": -1, "trial_index": 18}, "uniqueid": "MTK2971:35USIKEBNSN2FBZYCTHJG8Q9UR4N6L", "dateTime": 1519603813142}, {"current_trial": 19, "trialdata": {"rt": -1, "trial_type": "single-stim", "stimulus": "<p id=\"stim\">1</p>", "internal_node_id": "0.0-10.0-9.0", "time_elapsed": 310229, "key_press": -1, "trial_index": 19}, "uniqueid": "MTK2971:35USIKEBNSN2FBZYCTHJG8Q9UR4N6L", "dateTime": 1519603814145}, {"current_trial": 20, "trialdata": {"rt": -1, "trial_type": "single-stim", "stimulus": "<p id=\"stim\">+</p>", "internal_node_id": "0.0-11.0-0.0", "time_elapsed": 311732, "key_press": -1, "type": "FIXATION", "trial_index": 20}, "uniqueid": "MTK2971:35USIKEBNSN2FBZYCTHJG8Q9UR4N6L", "dateTime": 1519603815648}, {"current_trial": 21, "trialdata": {"rt": -1, "trial_type": "single-stim", "word": "wasp", "stimulus": "<p id=\"stim\">WASP</p>", "conditions": [18, 1200, "v", 18000], "internal_node_id": "0.0-12.0", "trial": 0, "time_elapsed": 312933, "serialpos": 0, "key_press": -1, "wordID": 1592, "type": "PRES_VIS", "trial_index": 21}, "uniqueid": "MTK2971:35USIKEBNSN2FBZYCTHJG8Q9UR4N6L", "dateTime": 1519603816850}, {"current_trial": 22, "trialdata": {"rt": -1, "trial_type": "single-stim", "word": "rabbit", "stimulus": "<p id=\"stim\">RABBIT</p>", "conditions": [18, 1200, "v", 18000], "internal_node_id": "0.0-13.0", "trial": 0, "time_elapsed": 315219, "serialpos": 1, "key_press": -1, "wordID": 1151, "type": "PRES_VIS", "trial_index": 22}, "uniqueid": "MTK2971:35USIKEBNSN2FBZYCTHJG8Q9UR4N6L", "dateTime": 1519603819136}, {"current_trial": 23, "trialdata": {"rt": -1, "trial_type": "single-stim", "word": "supper", "stimulus": "<p id=\"stim\">SUPPER</p>", "conditions": [18, 1200, "v", 18000], "internal_node_id": "0.0-14.0", "trial": 0, "time_elapsed": 317400, "serialpos": 2, "key_press": -1, "wordID": 1410, "type": "PRES_VIS", "trial_index": 23}, "uniqueid": "MTK2971:35USIKEBNSN2FBZYCTHJG8Q9UR4N6L", "dateTime": 1519603821316}, {"current_trial": 24, "trialdata": {"rt": -1, "trial_type": "single-stim", "word": "mister", "stimulus": "<p id=\"stim\">MISTER</p>", "conditions": [18, 1200, "v", 18000], "internal_node_id": "0.0-15.0", "trial": 0, "time_elapsed": 319428, "serialpos": 3, "key_press": -1, "wordID": 900, "type": "PRES_VIS", "trial_index": 24}, "uniqueid": "MTK2971:35USIKEBNSN2FBZYCTHJG8Q9UR4N6L", "dateTime": 1519603823345}, {"current_trial": 25, "trialdata": {"rt": -1, "trial_type": "single-stim", "word": "tractor", "stimulus": "<p id=\"stim\">TRACTOR</p>", "conditions": [18, 1200, "v", 18000], "internal_node_id": "0.0-16.0", "trial": 0, "time_elapsed": 321432, "serialpos": 4, "key_press": -1, "wordID": 1492, "type": "PRES_VIS", "trial_index": 25}, "uniqueid": "MTK2971:35USIKEBNSN2FBZYCTHJG8Q9UR4N6L", "dateTime": 1519603825348}, {"current_trial": 26, "trialdata": {"rt": -1, "trial_type": "single-stim", "word": "lumber", "stimulus": "<p id=\"stim\">LUMBER</p>", "conditions": [18, 1200, "v", 18000], "internal_node_id": "0.0-17.0", "trial": 0, "time_elapsed": 323611, "serialpos": 5, "key_press": -1, "wordID": 847, "type": "PRES_VIS", "trial_index": 26}, "uniqueid": "MTK2971:35USIKEBNSN2FBZYCTHJG8Q9UR4N6L", "dateTime": 1519603827527}, {"current_trial": 27, "trialdata": {"rt": -1, "trial_type": "single-stim", "word": "shortcake", "stimulus": "<p id=\"stim\">SHORTCAKE</p>", "conditions": [18, 1200, "v", 18000], "internal_node_id": "0.0-18.0", "trial": 0, "time_elapsed": 325770, "serialpos": 6, "key_press": -1, "wordID": 1291, "type": "PRES_VIS", "trial_index": 27}, "uniqueid": "MTK2971:35USIKEBNSN2FBZYCTHJG8Q9UR4N6L", "dateTime": 1519603829686}, {"current_trial": 28, "trialdata": {"rt": -1, "trial_type": "single-stim", "word": "cross", "stimulus": "<p id=\"stim\">CROSS</p>", "conditions": [18, 1200, "v", 18000], "internal_node_id": "0.0-19.0", "trial": 0, "time_elapsed": 328145, "serialpos": 7, "key_press": -1, "wordID": 412, "type": "PRES_VIS", "trial_index": 28}, "uniqueid": "MTK2971:35USIKEBNSN2FBZYCTHJG8Q9UR4N6L", "dateTime": 1519603832061}, {"current_trial": 29, "trialdata": {"rt": -1, "trial_type": "single-stim", "word": "fiddle", "stimulus": "<p id=\"stim\">FIDDLE</p>", "conditions": [18, 1200, "v", 18000], "internal_node_id": "0.0-20.0", "trial": 0, "time_elapsed": 330382, "serialpos": 8, "key_press": -1, "wordID": 560, "type": "PRES_VIS", "trial_index": 29}, "uniqueid": "MTK2971:35USIKEBNSN2FBZYCTHJG8Q9UR4N6L", "dateTime": 1519603834298}, {"current_trial": 30, "trialdata": {"rt": -1, "trial_type": "single-stim", "word": "drug", "stimulus": "<p id=\"stim\">DRUG</p>", "conditions": [18, 1200, "v", 18000], "internal_node_id": "0.0-21.0", "trial": 0, "time_elapsed": 332394, "serialpos": 9, "key_press": -1, "wordID": 500, "type": "PRES_VIS", "trial_index": 30}, "uniqueid": "MTK2971:35USIKEBNSN2FBZYCTHJG8Q9UR4N6L", "dateTime": 1519603836310}, {"current_trial": 31, "trialdata": {"rt": -1, "trial_type": "single-stim", "word": "buggy", "stimulus": "<p id=\"stim\">BUGGY</p>", "conditions": [18, 1200, "v", 18000], "internal_node_id": "0.0-22.0", "trial": 0, "time_elapsed": 334477, "serialpos": 10, "key_press": -1, "wordID": 187, "type": "PRES_VIS", "trial_index": 31}, "uniqueid": "MTK2971:35USIKEBNSN2FBZYCTHJG8Q9UR4N6L", "dateTime": 1519603838393}, {"current_trial": 32, "trialdata": {"rt": -1, "trial_type": "single-stim", "word": "mammal", "stimulus": "<p id=\"stim\">MAMMAL</p>", "conditions": [18, 1200, "v", 18000], "internal_node_id": "0.0-23.0", "trial": 0, "time_elapsed": 336760, "serialpos": 11, "key_press": -1, "wordID": 860, "type": "PRES_VIS", "trial_index": 32}, "uniqueid": "MTK2971:35USIKEBNSN2FBZYCTHJG8Q9UR4N6L", "dateTime": 1519603840676}, {"current_trial": 33, "trialdata": {"rt": -1, "trial_type": "single-stim", "word": "venus", "stimulus": "<p id=\"stim\">VENUS</p>", "conditions": [18, 1200, "v", 18000], "internal_node_id": "0.0-24.0", "trial": 0, "time_elapsed": 338924, "serialpos": 12, "key_press": -1, "wordID": 1556, "type": "PRES_VIS", "trial_index": 33}, "uniqueid": "MTK2971:35USIKEBNSN2FBZYCTHJG8Q9UR4N6L", "dateTime": 1519603842840}, {"current_trial": 34, "trialdata": {"rt": -1, "trial_type": "single-stim", "word": "parrot", "stimulus": "<p id=\"stim\">PARROT</p>", "conditions": [18, 1200, "v", 18000], "internal_node_id": "0.0-25.0", "trial": 0, "time_elapsed": 341102, "serialpos": 13, "key_press": -1, "wordID": 1014, "type": "PRES_VIS", "trial_index": 34}, "uniqueid": "MTK2971:35USIKEBNSN2FBZYCTHJG8Q9UR4N6L", "dateTime": 1519603845018}, {"current_trial": 35, "trialdata": {"rt": -1, "trial_type": "single-stim", "word": "thief", "stimulus": "<p id=\"stim\">THIEF</p>", "conditions": [18, 1200, "v", 18000], "internal_node_id": "0.0-26.0", "trial": 0, "time_elapsed": 343372, "serialpos": 14, "key_press": -1, "wordID": 1455, "type": "PRES_VIS", "trial_index": 35}, "uniqueid": "MTK2971:35USIKEBNSN2FBZYCTHJG8Q9UR4N6L", "dateTime": 1519603847288}, {"current_trial": 36, "trialdata": {"rt": -1, "trial_type": "single-stim", "word": "bouquet", "stimulus": "<p id=\"stim\">BOUQUET</p>", "conditions": [18, 1200, "v", 18000], "internal_node_id": "0.0-27.0", "trial": 0, "time_elapsed": 345527, "serialpos": 15, "key_press": -1, "wordID": 156, "type": "PRES_VIS", "trial_index": 36}, "uniqueid": "MTK2971:35USIKEBNSN2FBZYCTHJG8Q9UR4N6L", "dateTime": 1519603849443}, {"current_trial": 37, "trialdata": {"rt": -1, "trial_type": "single-stim", "word": "partner", "stimulus": "<p id=\"stim\">PARTNER</p>", "conditions": [18, 1200, "v", 18000], "internal_node_id": "0.0-28.0", "trial": 0, "time_elapsed": 347929, "serialpos": 16, "key_press": -1, "wordID": 1016, "type": "PRES_VIS", "trial_index": 37}, "uniqueid": "MTK2971:35USIKEBNSN2FBZYCTHJG8Q9UR4N6L", "dateTime": 1519603851845}, {"current_trial": 38, "trialdata": {"rt": -1, "trial_type": "single-stim", "word": "foot", "stimulus": "<p id=\"stim\">FOOT</p>", "conditions": [18, 1200, "v", 18000], "internal_node_id": "0.0-29.0", "trial": 0, "time_elapsed": 350062, "serialpos": 17, "key_press": -1, "wordID": 589, "type": "PRES_VIS", "trial_index": 38}, "uniqueid": "MTK2971:35USIKEBNSN2FBZYCTHJG8Q9UR4N6L", "dateTime": 1519603853978}, {"current_trial": 39, "trialdata": {"rt": -1, "trial_type": "single-stim", "stimulus": "", "internal_node_id": "0.0-30.0-0.0", "time_elapsed": 352495, "key_press": -1, "type": "PRE_RECALL_DELAY", "trial_index": 39}, "uniqueid": "MTK2971:35USIKEBNSN2FBZYCTHJG8Q9UR4N6L", "dateTime": 1519603856411}, {"current_trial": 40, "trialdata": {"rt": -1000, "trial_type": "single-audio", "stimulus": "/static/audio/400Hz.wav", "internal_node_id": "0.0-31.0", "time_elapsed": 352998, "key_press": -1, "type": "PRE_RECALL_ALERT", "trial_index": 40}, "uniqueid": "MTK2971:35USIKEBNSN2FBZYCTHJG8Q9UR4N6L", "dateTime": 1519603856914}, {"current_trial": 41, "trialdata": {"rt": [1701, 3785, 6841, 8592, 10091], "recwords": ["wasp", "rabbit", "bouquet", "supper", "fiddle"], "key_times": [1016, 1203, 1363, 1443, 1701, 2584, 2797, 3094, 3257, 3416, 3576, 3785, 4796, 4903, 5125, 5279, 5462, 5554, 5800, 6841, 7466, 7620, 7975, 8148, 8330, 8486, 8592, 9267, 9423, 9529, 9675, 9781, 9926, 10091], "trial_type": "free-recall", "conditions": [18, 1200, "v", 18000], "internal_node_id": "0.0-32.0-0.0", "key_presses": [87, 65, 83, 80, 13, 82, 65, 66, 66, 73, 84, 13, 66, 79, 85, 81, 85, 69, 84, 13, 83, 85, 80, 80, 69, 82, 13, 70, 73, 68, 68, 76, 69, 13], "trial": 0, "time_elapsed": 413002, "type": "FREE_RECALL", "trial_index": 41}, "uniqueid": "MTK2971:35USIKEBNSN2FBZYCTHJG8Q9UR4N6L", "dateTime": 1519603916920}, {"current_trial": 42, "trialdata": {"rt": 1621, "trial_type": "text", "internal_node_id": "0.0-33.0", "time_elapsed": 416629, "key_press": 13, "type": "INSTRUCTIONS", "trial_index": 42}, "uniqueid": "MTK2971:35USIKEBNSN2FBZYCTHJG8Q9UR4N6L", "dateTime": 1519603920545}, {"current_trial": 43, "trialdata": {"rt": [2103, 3966, 5210, 6805, 8536, 9900, 11598, 13733, 15397, 17001], "trial_type": "math-distractor", "key_times": [1538, 1721, 2103, 3391, 3843, 3966, 4938, 5054, 5210, 6351, 6674, 6805, 8051, 8392, 8536, 9461, 9761, 9900, 11320, 11502, 11598, 13171, 13594, 13733, 15129, 15269, 15397, 16863, 17001], "responses": ["11", "19", "12", "16", "16", "15", "22", "20", "13", "8"], "num2": [4, 5, 2, 1, 4, 9, 7, 5, 8, 4, 2], "num3": [2, 6, 2, 9, 8, 5, 7, 7, 1, 1, 9], "conditions": [18, 1200, "v", 18000], "internal_node_id": "0.0-34.0", "key_presses": [49, 49, 13, 49, 57, 13, 49, 50, 13, 49, 54, 13, 49, 54, 13, 49, 53, 13, 50, 50, 13, 50, 48, 13, 49, 51, 13, 56, 13], "trial": 1, "time_elapsed": 436631, "type": "DISTRACTOR", "trial_index": 43, "num1": [5, 8, 8, 6, 4, 1, 8, 8, 4, 3, 7]}, "uniqueid": "MTK2971:35USIKEBNSN2FBZYCTHJG8Q9UR4N6L", "dateTime": 1519603940547}, {"current_trial": 44, "trialdata": {"rt": -1, "trial_type": "single-stim", "stimulus": "<p id=\"stim\">10</p>", "internal_node_id": "0.0-35.0-0.0", "time_elapsed": 439638, "key_press": -1, "trial_index": 44}, "uniqueid": "MTK2971:35USIKEBNSN2FBZYCTHJG8Q9UR4N6L", "dateTime": 1519603943554}, {"current_trial": 45, "trialdata": {"rt": -1, "trial_type": "single-stim", "stimulus": "<p id=\"stim\">9</p>", "internal_node_id": "0.0-35.0-1.0", "time_elapsed": 440639, "key_press": -1, "trial_index": 45}, "uniqueid": "MTK2971:35USIKEBNSN2FBZYCTHJG8Q9UR4N6L", "dateTime": 1519603944556}, {"current_trial": 46, "trialdata": {"rt": -1, "trial_type": "single-stim", "stimulus": "<p id=\"stim\">8</p>", "internal_node_id": "0.0-35.0-2.0", "time_elapsed": 441644, "key_press": -1, "trial_index": 46}, "uniqueid": "MTK2971:35USIKEBNSN2FBZYCTHJG8Q9UR4N6L", "dateTime": 1519603945560}, {"current_trial": 47, "trialdata": {"rt": -1, "trial_type": "single-stim", "stimulus": "<p id=\"stim\">7</p>", "internal_node_id": "0.0-35.0-3.0", "time_elapsed": 442648, "key_press": -1, "trial_index": 47}, "uniqueid": "MTK2971:35USIKEBNSN2FBZYCTHJG8Q9UR4N6L", "dateTime": 1519603946564}, {"current_trial": 48, "trialdata": {"rt": -1, "trial_type": "single-stim", "stimulus": "<p id=\"stim\">6</p>", "internal_node_id": "0.0-35.0-4.0", "time_elapsed": 443651, "key_press": -1, "trial_index": 48}, "uniqueid": "MTK2971:35USIKEBNSN2FBZYCTHJG8Q9UR4N6L", "dateTime": 1519603947568}, {"current_trial": 49, "trialdata": {"rt": -1, "trial_type": "single-stim", "stimulus": "<p id=\"stim\">5</p>", "internal_node_id": "0.0-35.0-5.0", "time_elapsed": 444655, "key_press": -1, "trial_index": 49}, "uniqueid": "MTK2971:35USIKEBNSN2FBZYCTHJG8Q9UR4N6L", "dateTime": 1519603948571}, {"current_trial": 50, "trialdata": {"rt": -1, "trial_type": "single-stim", "stimulus": "<p id=\"stim\">4</p>", "internal_node_id": "0.0-35.0-6.0", "time_elapsed": 445658, "key_press": -1, "trial_index": 50}, "uniqueid": "MTK2971:35USIKEBNSN2FBZYCTHJG8Q9UR4N6L", "dateTime": 1519603949574}, {"current_trial": 51, "trialdata": {"rt": -1, "trial_type": "single-stim", "stimulus": "<p id=\"stim\">3</p>", "internal_node_id": "0.0-35.0-7.0", "time_elapsed": 446661, "key_press": -1, "trial_index": 51}, "uniqueid": "MTK2971:35USIKEBNSN2FBZYCTHJG8Q9UR4N6L", "dateTime": 1519603950577}, {"current_trial": 52, "trialdata": {"rt": -1, "trial_type": "single-stim", "stimulus": "<p id=\"stim\">2</p>", "internal_node_id": "0.0-35.0-8.0", "time_elapsed": 447664, "key_press": -1, "trial_index": 52}, "uniqueid": "MTK2971:35USIKEBNSN2FBZYCTHJG8Q9UR4N6L", "dateTime": 1519603951580}, {"current_trial": 53, "trialdata": {"rt": -1, "trial_type": "single-stim", "stimulus": "<p id=\"stim\">1</p>", "internal_node_id": "0.0-35.0-9.0", "time_elapsed": 448668, "key_press": -1, "trial_index": 53}, "uniqueid": "MTK2971:35USIKEBNSN2FBZYCTHJG8Q9UR4N6L", "dateTime": 1519603952584}, {"current_trial": 54, "trialdata": {"rt": -1, "trial_type": "single-stim", "stimulus": "<p id=\"stim\">+</p>", "internal_node_id": "0.0-36.0-0.0", "time_elapsed": 450170, "key_press": -1, "type": "FIXATION", "trial_index": 54}, "uniqueid": "MTK2971:35USIKEBNSN2FBZYCTHJG8Q9UR4N6L", "dateTime": 1519603954086}, {"current_trial": 55, "trialdata": {"rt": -1, "trial_type": "single-stim", "word": "badge", "stimulus": "<p id=\"stim\">BADGE</p>", "conditions": [18, 1200, "v", 18000], "internal_node_id": "0.0-37.0", "trial": 1, "time_elapsed": 451375, "serialpos": 0, "key_press": -1, "wordID": 67, "type": "PRES_VIS", "trial_index": 55}, "uniqueid": "MTK2971:35USIKEBNSN2FBZYCTHJG8Q9UR4N6L", "dateTime": 1519603955291}, {"current_trial": 56, "trialdata": {"rt": -1, "trial_type": "single-stim", "word": "missile", "stimulus": "<p id=\"stim\">MISSILE</p>", "conditions": [18, 1200, "v", 18000], "internal_node_id": "0.0-38.0", "trial": 1, "time_elapsed": 453722, "serialpos": 1, "key_press": -1, "wordID": 899, "type": "PRES_VIS", "trial_index": 56}, "uniqueid": "MTK2971:35USIKEBNSN2FBZYCTHJG8Q9UR4N6L", "dateTime": 1519603957638}, {"current_trial": 57, "trialdata": {"rt": -1, "trial_type": "single-stim", "word": "hiker", "stimulus": "<p id=\"stim\">HIKER</p>", "conditions": [18, 1200, "v", 18000], "internal_node_id": "0.0-39.0", "trial": 1, "time_elapsed": 455764, "serialpos": 2, "key_press": -1, "wordID": 707, "type": "PRES_VIS", "trial_index": 57}, "uniqueid": "MTK2971:35USIKEBNSN2FBZYCTHJG8Q9UR4N6L", "dateTime": 1519603959680}, {"current_trial": 58, "trialdata": {"rt": -1, "trial_type": "single-stim", "word": "velvet", "stimulus": "<p id=\"stim\">VELVET</p>", "conditions": [18, 1200, "v", 18000], "internal_node_id": "0.0-40.0", "trial": 1, "time_elapsed": 457992, "serialpos": 3, "key_press": -1, "wordID": 1554, "type": "PRES_VIS", "trial_index": 58}, "uniqueid": "MTK2971:35USIKEBNSN2FBZYCTHJG8Q9UR4N6L", "dateTime": 1519603961908}, {"current_trial": 59, "trialdata": {"rt": -1, "trial_type": "single-stim", "word": "grave", "stimulus": "<p id=\"stim\">GRAVE</p>", "conditions": [18, 1200, "v", 18000], "internal_node_id": "0.0-41.0", "trial": 1, "time_elapsed": 460200, "serialpos": 4, "key_press": -1, "wordID": 657, "type": "PRES_VIS", "trial_index": 59}, "uniqueid": "MTK2971:35USIKEBNSN2FBZYCTHJG8Q9UR4N6L", "dateTime": 1519603964116}, {"current_trial": 60, "trialdata": {"rt": -1, "trial_type": "single-stim", "word": "milk", "stimulus": "<p id=\"stim\">MILK</p>", "conditions": [18, 1200, "v", 18000], "internal_node_id": "0.0-42.0", "trial": 1, "time_elapsed": 462302, "serialpos": 5, "key_press": -1, "wordID": 894, "type": "PRES_VIS", "trial_index": 60}, "uniqueid": "MTK2971:35USIKEBNSN2FBZYCTHJG8Q9UR4N6L", "dateTime": 1519603966219}, {"current_trial": 61, "trialdata": {"rt": -1, "trial_type": "single-stim", "word": "cod", "stimulus": "<p id=\"stim\">COD</p>", "conditions": [18, 1200, "v", 18000], "internal_node_id": "0.0-43.0", "trial": 1, "time_elapsed": 464639, "serialpos": 6, "key_press": -1, "wordID": 339, "type": "PRES_VIS", "trial_index": 61}, "uniqueid": "MTK2971:35USIKEBNSN2FBZYCTHJG8Q9UR4N6L", "dateTime": 1519603968556}, {"current_trial": 62, "trialdata": {"rt": -1, "trial_type": "single-stim", "word": "shirt", "stimulus": "<p id=\"stim\">SHIRT</p>", "conditions": [18, 1200, "v", 18000], "internal_node_id": "0.0-44.0", "trial": 1, "time_elapsed": 466859, "serialpos": 7, "key_press": -1, "wordID": 1286, "type": "PRES_VIS", "trial_index": 62}, "uniqueid": "MTK2971:35USIKEBNSN2FBZYCTHJG8Q9UR4N6L", "dateTime": 1519603970775}, {"current_trial": 63, "trialdata": {"rt": -1, "trial_type": "single-stim", "word": "nightgown", "stimulus": "<p id=\"stim\">NIGHTGOWN</p>", "conditions": [18, 1200, "v", 18000], "internal_node_id": "0.0-45.0", "trial": 1, "time_elapsed": 469156, "serialpos": 8, "key_press": -1, "wordID": 952, "type": "PRES_VIS", "trial_index": 63}, "uniqueid": "MTK2971:35USIKEBNSN2FBZYCTHJG8Q9UR4N6L", "dateTime": 1519603973072}, {"current_trial": 64, "trialdata": {"rt": -1, "trial_type": "single-stim", "word": "portrait", "stimulus": "<p id=\"stim\">PORTRAIT</p>", "conditions": [18, 1200, "v", 18000], "internal_node_id": "0.0-46.0", "trial": 1, "time_elapsed": 471454, "serialpos": 9, "key_press": -1, "wordID": 1110, "type": "PRES_VIS", "trial_index": 64}, "uniqueid": "MTK2971:35USIKEBNSN2FBZYCTHJG8Q9UR4N6L", "dateTime": 1519603975370}, {"current_trial": 65, "trialdata": {"rt": -1, "trial_type": "single-stim", "word": "london", "stimulus": "<p id=\"stim\">LONDON</p>", "conditions": [18, 1200, "v", 18000], "internal_node_id": "0.0-47.0", "trial": 1, "time_elapsed": 473463, "serialpos": 10, "key_press": -1, "wordID": 842, "type": "PRES_VIS", "trial_index": 65}, "uniqueid": "MTK2971:35USIKEBNSN2FBZYCTHJG8Q9UR4N6L", "dateTime": 1519603977379}, {"current_trial": 66, "trialdata": {"rt": -1, "trial_type": "single-stim", "word": "quarter", "stimulus": "<p id=\"stim\">QUARTER</p>", "conditions": [18, 1200, "v", 18000], "internal_node_id": "0.0-48.0", "trial": 1, "time_elapsed": 475514, "serialpos": 11, "key_press": -1, "wordID": 1147, "type": "PRES_VIS", "trial_index": 66}, "uniqueid": "MTK2971:35USIKEBNSN2FBZYCTHJG8Q9UR4N6L", "dateTime": 1519603979430}, {"current_trial": 67, "trialdata": {"rt": -1, "trial_type": "single-stim", "word": "banker", "stimulus": "<p id=\"stim\">BANKER</p>", "conditions": [18, 1200, "v", 18000], "internal_node_id": "0.0-49.0", "trial": 1, "time_elapsed": 477563, "serialpos": 12, "key_press": -1, "wordID": 83, "type": "PRES_VIS", "trial_index": 67}, "uniqueid": "MTK2971:35USIKEBNSN2FBZYCTHJG8Q9UR4N6L", "dateTime": 1519603981479}, {"current_trial": 68, "trialdata": {"rt": -1, "trial_type": "single-stim", "word": "captive", "stimulus": "<p id=\"stim\">CAPTIVE</p>", "conditions": [18, 1200, "v", 18000], "internal_node_id": "0.0-50.0", "trial": 1, "time_elapsed": 479880, "serialpos": 13, "key_press": -1, "wordID": 239, "type": "PRES_VIS", "trial_index": 68}, "uniqueid": "MTK2971:35USIKEBNSN2FBZYCTHJG8Q9UR4N6L", "dateTime": 1519603983797}, {"current_trial": 69, "trialdata": {"rt": -1, "trial_type": "single-stim", "word": "gallon", "stimulus": "<p id=\"stim\">GALLON</p>", "conditions": [18, 1200, "v", 18000], "internal_node_id": "0.0-51.0", "trial": 1, "time_elapsed": 482157, "serialpos": 14, "key_press": -1, "wordID": 617, "type": "PRES_VIS", "trial_index": 69}, "uniqueid": "MTK2971:35USIKEBNSN2FBZYCTHJG8Q9UR4N6L", "dateTime": 1519603986073}, {"current_trial": 70, "trialdata": {"rt": -1, "trial_type": "single-stim", "word": "marker", "stimulus": "<p id=\"stim\">MARKER</p>", "conditions": [18, 1200, "v", 18000], "internal_node_id": "0.0-52.0", "trial": 1, "time_elapsed": 484555, "serialpos": 15, "key_press": -1, "wordID": 869, "type": "PRES_VIS", "trial_index": 70}, "uniqueid": "MTK2971:35USIKEBNSN2FBZYCTHJG8Q9UR4N6L", "dateTime": 1519603988471}, {"current_trial": 71, "trialdata": {"rt": -1, "trial_type": "single-stim", "word": "pork", "stimulus": "<p id=\"stim\">PORK</p>", "conditions": [18, 1200, "v", 18000], "internal_node_id": "0.0-53.0", "trial": 1, "time_elapsed": 486815, "serialpos": 16, "key_press": -1, "wordID": 1107, "type": "PRES_VIS", "trial_index": 71}, "uniqueid": "MTK2971:35USIKEBNSN2FBZYCTHJG8Q9UR4N6L", "dateTime": 1519603990731}, {"current_trial": 72, "trialdata": {"rt": -1, "trial_type": "single-stim", "word": "hand", "stimulus": "<p id=\"stim\">HAND</p>", "conditions": [18, 1200, "v", 18000], "internal_node_id": "0.0-54.0", "trial": 1, "time_elapsed": 488942, "serialpos": 17, "key_press": -1, "wordID": 682, "type": "PRES_VIS", "trial_index": 72}, "uniqueid": "MTK2971:35USIKEBNSN2FBZYCTHJG8Q9UR4N6L", "dateTime": 1519603992858}, {"current_trial": 73, "trialdata": {"rt": -1, "trial_type": "single-stim", "stimulus": "", "internal_node_id": "0.0-55.0-0.0", "time_elapsed": 491342, "key_press": -1, "type": "PRE_RECALL_DELAY", "trial_index": 73}, "uniqueid": "MTK2971:35USIKEBNSN2FBZYCTHJG8Q9UR4N6L", "dateTime": 1519603995258}, {"current_trial": 74, "trialdata": {"rt": -1000, "trial_type": "single-audio", "stimulus": "/static/audio/400Hz.wav", "internal_node_id": "0.0-56.0", "time_elapsed": 491844, "key_press": -1, "type": "PRE_RECALL_ALERT", "trial_index": 74}, "uniqueid": "MTK2971:35USIKEBNSN2FBZYCTHJG8Q9UR4N6L", "dateTime": 1519603995760}, {"current_trial": 75, "trialdata": {"rt": [2817, 4738, 6415, 7880, 12206], "recwords": ["badge", "missile", "cod", "london", "pork"], "key_times": [681, 834, 1044, 1243, 1704, 2435, 2586, 2817, 3278, 3480, 3565, 3729, 3847, 4059, 4208, 4738, 5781, 6123, 6240, 6415, 6821, 7053, 7169, 7261, 7427, 7523, 7880, 11305, 11585, 11761, 11846, 12206], "trial_type": "free-recall", "conditions": [18, 1200, "v", 18000], "internal_node_id": "0.0-57.0-0.0", "key_presses": [66, 65, 68, 69, 8, 71, 69, 13, 77, 73, 83, 83, 73, 76, 69, 13, 67, 79, 68, 13, 76, 79, 78, 68, 79, 78, 13, 80, 79, 82, 75, 13], "trial": 1, "time_elapsed": 551849, "type": "FREE_RECALL", "trial_index": 75}, "uniqueid": "MTK2971:35USIKEBNSN2FBZYCTHJG8Q9UR4N6L", "dateTime": 1519604055767}, {"current_trial": 76, "trialdata": {"rt": 2560, "trial_type": "text", "internal_node_id": "0.0-58.0", "time_elapsed": 556418, "key_press": 32, "type": "INSTRUCTIONS", "trial_index": 76}, "uniqueid": "MTK2971:35USIKEBNSN2FBZYCTHJG8Q9UR4N6L", "dateTime": 1519604060334}, {"current_trial": 77, "trialdata": {"rt": [1775, 3473, 5281, 6608, 8279, 10209, 11436], "trial_type": "math-distractor", "key_times": [1466, 1775, 2945, 3382, 3473, 4710, 5114, 5281, 6314, 6477, 6608, 7822, 8021, 8279, 9790, 10106, 10209, 11182, 11262, 11436], "responses": ["9", "17", "15", "11", "10", "16", "12"], "num2": [3, 9, 6, 4, 1, 5, 4, 7], "num3": [2, 1, 1, 6, 5, 4, 4, 5], "conditions": [24, 1600, "v", 12000], "internal_node_id": "0.0-59.0", "key_presses": [57, 13, 49, 55, 13, 49, 53, 13, 49, 49, 13, 49, 48, 13, 49, 54, 13, 49, 50, 13], "trial": 2, "time_elapsed": 569422, "type": "DISTRACTOR", "trial_index": 77, "num1": [4, 7, 8, 1, 4, 7, 4, 6]}, "uniqueid": "MTK2971:35USIKEBNSN2FBZYCTHJG8Q9UR4N6L", "dateTime": 1519604073338}, {"current_trial": 78, "trialdata": {"rt": -1, "trial_type": "single-stim", "stimulus": "<p id=\"stim\">10</p>", "internal_node_id": "0.0-60.0-0.0", "time_elapsed": 572427, "key_press": -1, "trial_index": 78}, "uniqueid": "MTK2971:35USIKEBNSN2FBZYCTHJG8Q9UR4N6L", "dateTime": 1519604076343}, {"current_trial": 79, "trialdata": {"rt": -1, "trial_type": "single-stim", "stimulus": "<p id=\"stim\">9</p>", "internal_node_id": "0.0-60.0-1.0", "time_elapsed": 573432, "key_press": -1, "trial_index": 79}, "uniqueid": "MTK2971:35USIKEBNSN2FBZYCTHJG8Q9UR4N6L", "dateTime": 1519604077348}, {"current_trial": 80, "trialdata": {"rt": -1, "trial_type": "single-stim", "stimulus": "<p id=\"stim\">8</p>", "internal_node_id": "0.0-60.0-2.0", "time_elapsed": 574436, "key_press": -1, "trial_index": 80}, "uniqueid": "MTK2971:35USIKEBNSN2FBZYCTHJG8Q9UR4N6L", "dateTime": 1519604078352}, {"current_trial": 81, "trialdata": {"rt": -1, "trial_type": "single-stim", "stimulus": "<p id=\"stim\">7</p>", "internal_node_id": "0.0-60.0-3.0", "time_elapsed": 575438, "key_press": -1, "trial_index": 81}, "uniqueid": "MTK2971:35USIKEBNSN2FBZYCTHJG8Q9UR4N6L", "dateTime": 1519604079354}, {"current_trial": 82, "trialdata": {"rt": -1, "trial_type": "single-stim", "stimulus": "<p id=\"stim\">6</p>", "internal_node_id": "0.0-60.0-4.0", "time_elapsed": 576440, "key_press": -1, "trial_index": 82}, "uniqueid": "MTK2971:35USIKEBNSN2FBZYCTHJG8Q9UR4N6L", "dateTime": 1519604080356}, {"current_trial": 83, "trialdata": {"rt": -1, "trial_type": "single-stim", "stimulus": "<p id=\"stim\">5</p>", "internal_node_id": "0.0-60.0-5.0", "time_elapsed": 577443, "key_press": -1, "trial_index": 83}, "uniqueid": "MTK2971:35USIKEBNSN2FBZYCTHJG8Q9UR4N6L", "dateTime": 1519604081359}, {"current_trial": 84, "trialdata": {"rt": -1, "trial_type": "single-stim", "stimulus": "<p id=\"stim\">4</p>", "internal_node_id": "0.0-60.0-6.0", "time_elapsed": 578446, "key_press": -1, "trial_index": 84}, "uniqueid": "MTK2971:35USIKEBNSN2FBZYCTHJG8Q9UR4N6L", "dateTime": 1519604082362}, {"current_trial": 85, "trialdata": {"rt": -1, "trial_type": "single-stim", "stimulus": "<p id=\"stim\">3</p>", "internal_node_id": "0.0-60.0-7.0", "time_elapsed": 579450, "key_press": -1, "trial_index": 85}, "uniqueid": "MTK2971:35USIKEBNSN2FBZYCTHJG8Q9UR4N6L", "dateTime": 1519604083366}, {"current_trial": 86, "trialdata": {"rt": -1, "trial_type": "single-stim", "stimulus": "<p id=\"stim\">2</p>", "internal_node_id": "0.0-60.0-8.0", "time_elapsed": 580451, "key_press": -1, "trial_index": 86}, "uniqueid": "MTK2971:35USIKEBNSN2FBZYCTHJG8Q9UR4N6L", "dateTime": 1519604084368}, {"current_trial": 87, "trialdata": {"rt": -1, "trial_type": "single-stim", "stimulus": "<p id=\"stim\">1</p>", "internal_node_id": "0.0-60.0-9.0", "time_elapsed": 581455, "key_press": -1, "trial_index": 87}, "uniqueid": "MTK2971:35USIKEBNSN2FBZYCTHJG8Q9UR4N6L", "dateTime": 1519604085371}, {"current_trial": 88, "trialdata": {"rt": -1, "trial_type": "single-stim", "stimulus": "<p id=\"stim\">+</p>", "internal_node_id": "0.0-61.0-0.0", "time_elapsed": 582958, "key_press": -1, "type": "FIXATION", "trial_index": 88}, "uniqueid": "MTK2971:35USIKEBNSN2FBZYCTHJG8Q9UR4N6L", "dateTime": 1519604086874}, {"current_trial": 89, "trialdata": {"rt": -1, "trial_type": "single-stim", "word": "lake", "stimulus": "<p id=\"stim\">LAKE</p>", "conditions": [24, 1600, "v", 12000], "internal_node_id": "0.0-62.0", "trial": 2, "time_elapsed": 584561, "serialpos": 0, "key_press": -1, "wordID": 795, "type": "PRES_VIS", "trial_index": 89}, "uniqueid": "MTK2971:35USIKEBNSN2FBZYCTHJG8Q9UR4N6L", "dateTime": 1519604088477}, {"current_trial": 90, "trialdata": {"rt": -1, "trial_type": "single-stim", "word": "county", "stimulus": "<p id=\"stim\">COUNTY</p>", "conditions": [24, 1600, "v", 12000], "internal_node_id": "0.0-63.0", "trial": 2, "time_elapsed": 587100, "serialpos": 1, "key_press": -1, "wordID": 388, "type": "PRES_VIS", "trial_index": 90}, "uniqueid": "MTK2971:35USIKEBNSN2FBZYCTHJG8Q9UR4N6L", "dateTime": 1519604091016}, {"current_trial": 91, "trialdata": {"rt": -1, "trial_type": "single-stim", "word": "barrel", "stimulus": "<p id=\"stim\">BARREL</p>", "conditions": [24, 1600, "v", 12000], "internal_node_id": "0.0-64.0", "trial": 2, "time_elapsed": 589893, "serialpos": 2, "key_press": -1, "wordID": 90, "type": "PRES_VIS", "trial_index": 91}, "uniqueid": "MTK2971:35USIKEBNSN2FBZYCTHJG8Q9UR4N6L", "dateTime": 1519604093809}, {"current_trial": 92, "trialdata": {"rt": -1, "trial_type": "single-stim", "word": "poison", "stimulus": "<p id=\"stim\">POISON</p>", "conditions": [24, 1600, "v", 12000], "internal_node_id": "0.0-65.0", "trial": 2, "time_elapsed": 592400, "serialpos": 3, "key_press": -1, "wordID": 1095, "type": "PRES_VIS", "trial_index": 92}, "uniqueid": "MTK2971:35USIKEBNSN2FBZYCTHJG8Q9UR4N6L", "dateTime": 1519604096316}, {"current_trial": 93, "trialdata": {"rt": -1, "trial_type": "single-stim", "word": "bug", "stimulus": "<p id=\"stim\">BUG</p>", "conditions": [24, 1600, "v", 12000], "internal_node_id": "0.0-66.0", "trial": 2, "time_elapsed": 595045, "serialpos": 4, "key_press": -1, "wordID": 186, "type": "PRES_VIS", "trial_index": 93}, "uniqueid": "MTK2971:35USIKEBNSN2FBZYCTHJG8Q9UR4N6L", "dateTime": 1519604098961}, {"current_trial": 94, "trialdata": {"rt": -1, "trial_type": "single-stim", "word": "clothes", "stimulus": "<p id=\"stim\">CLOTHES</p>", "conditions": [24, 1600, "v", 12000], "internal_node_id": "0.0-67.0", "trial": 2, "time_elapsed": 597485, "serialpos": 5, "key_press": -1, "wordID": 326, "type": "PRES_VIS", "trial_index": 94}, "uniqueid": "MTK2971:35USIKEBNSN2FBZYCTHJG8Q9UR4N6L", "dateTime": 1519604101401}, {"current_trial": 95, "trialdata": {"rt": -1, "trial_type": "single-stim", "word": "flower", "stimulus": "<p id=\"stim\">FLOWER</p>", "conditions": [24, 1600, "v", 12000], "internal_node_id": "0.0-68.0", "trial": 2, "time_elapsed": 600134, "serialpos": 6, "key_press": -1, "wordID": 583, "type": "PRES_VIS", "trial_index": 95}, "uniqueid": "MTK2971:35USIKEBNSN2FBZYCTHJG8Q9UR4N6L", "dateTime": 1519604104051}, {"current_trial": 96, "trialdata": {"rt": -1, "trial_type": "single-stim", "word": "garden", "stimulus": "<p id=\"stim\">GARDEN</p>", "conditions": [24, 1600, "v", 12000], "internal_node_id": "0.0-69.0", "trial": 2, "time_elapsed": 602718, "serialpos": 7, "key_press": -1, "wordID": 622, "type": "PRES_VIS", "trial_index": 96}, "uniqueid": "MTK2971:35USIKEBNSN2FBZYCTHJG8Q9UR4N6L", "dateTime": 1519604106634}, {"current_trial": 97, "trialdata": {"rt": -1, "trial_type": "single-stim", "word": "dragon", "stimulus": "<p id=\"stim\">DRAGON</p>", "conditions": [24, 1600, "v", 12000], "internal_node_id": "0.0-70.0", "trial": 2, "time_elapsed": 605164, "serialpos": 8, "key_press": -1, "wordID": 491, "type": "PRES_VIS", "trial_index": 97}, "uniqueid": "MTK2971:35USIKEBNSN2FBZYCTHJG8Q9UR4N6L", "dateTime": 1519604109080}, {"current_trial": 98, "trialdata": {"rt": -1, "trial_type": "single-stim", "word": "slope", "stimulus": "<p id=\"stim\">SLOPE</p>", "conditions": [24, 1600, "v", 12000], "internal_node_id": "0.0-71.0", "trial": 2, "time_elapsed": 607884, "serialpos": 9, "key_press": -1, "wordID": 1327, "type": "PRES_VIS", "trial_index": 98}, "uniqueid": "MTK2971:35USIKEBNSN2FBZYCTHJG8Q9UR4N6L", "dateTime": 1519604111801}, {"current_trial": 99, "trialdata": {"rt": -1, "trial_type": "single-stim", "word": "shorts", "stimulus": "<p id=\"stim\">SHORTS</p>", "conditions": [24, 1600, "v", 12000], "internal_node_id": "0.0-72.0", "trial": 2, "time_elapsed": 610592, "serialpos": 10, "key_press": -1, "wordID": 1292, "type": "PRES_VIS", "trial_index": 99}, "uniqueid": "MTK2971:35USIKEBNSN2FBZYCTHJG8Q9UR4N6L", "dateTime": 1519604114508}, {"current_trial": 100, "trialdata": {"rt": -1, "trial_type": "single-stim", "word": "creature", "stimulus": "<p id=\"stim\">CREATURE</p>", "conditions": [24, 1600, "v", 12000], "internal_node_id": "0.0-73.0", "trial": 2, "time_elapsed": 613292, "serialpos": 11, "key_press": -1, "wordID": 402, "type": "PRES_VIS", "trial_index": 100}, "uniqueid": "MTK2971:35USIKEBNSN2FBZYCTHJG8Q9UR4N6L", "dateTime": 1519604117208}, {"current_trial": 101, "trialdata": {"rt": -1, "trial_type": "single-stim", "word": "chipmunk", "stimulus": "<p id=\"stim\">CHIPMUNK</p>", "conditions": [24, 1600, "v", 12000], "internal_node_id": "0.0-74.0", "trial": 2, "time_elapsed": 615960, "serialpos": 12, "key_press": -1, "wordID": 303, "type": "PRES_VIS", "trial_index": 101}, "uniqueid": "MTK2971:35USIKEBNSN2FBZYCTHJG8Q9UR4N6L", "dateTime": 1519604119877}, {"current_trial": 102, "trialdata": {"rt": -1, "trial_type": "single-stim", "word": "globe", "stimulus": "<p id=\"stim\">GLOBE</p>", "conditions": [24, 1600, "v", 12000], "internal_node_id": "0.0-75.0", "trial": 2, "time_elapsed": 618490, "serialpos": 13, "key_press": -1, "wordID": 640, "type": "PRES_VIS", "trial_index": 102}, "uniqueid": "MTK2971:35USIKEBNSN2FBZYCTHJG8Q9UR4N6L", "dateTime": 1519604122406}, {"current_trial": 103, "trialdata": {"rt": -1, "trial_type": "single-stim", "word": "world", "stimulus": "<p id=\"stim\">WORLD</p>", "conditions": [24, 1600, "v", 12000], "internal_node_id": "0.0-76.0", "trial": 2, "time_elapsed": 621196, "serialpos": 14, "key_press": -1, "wordID": 1621, "type": "PRES_VIS", "trial_index": 103}, "uniqueid": "MTK2971:35USIKEBNSN2FBZYCTHJG8Q9UR4N6L", "dateTime": 1519604125112}, {"current_trial": 104, "trialdata": {"rt": -1, "trial_type": "single-stim", "word": "rocket", "stimulus": "<p id=\"stim\">ROCKET</p>", "conditions": [24, 1600, "v", 12000], "internal_node_id": "0.0-77.0", "trial": 2, "time_elapsed": 623602, "serialpos": 15, "key_press": -1, "wordID": 1201, "type": "PRES_VIS", "trial_index": 104}, "uniqueid": "MTK2971:35USIKEBNSN2FBZYCTHJG8Q9UR4N6L", "dateTime": 1519604127518}, {"current_trial": 105, "trialdata": {"rt": -1, "trial_type": "single-stim", "word": "beaver", "stimulus": "<p id=\"stim\">BEAVER</p>", "conditions": [24, 1600, "v", 12000], "internal_node_id": "0.0-78.0", "trial": 2, "time_elapsed": 626227, "serialpos": 16, "key_press": -1, "wordID": 108, "type": "PRES_VIS", "trial_index": 105}, "uniqueid": "MTK2971:35USIKEBNSN2FBZYCTHJG8Q9UR4N6L", "dateTime": 1519604130143}, {"current_trial": 106, "trialdata": {"rt": -1, "trial_type": "single-stim", "word": "silk", "stimulus": "<p id=\"stim\">SILK</p>", "conditions": [24, 1600, "v", 12000], "internal_node_id": "0.0-79.0", "trial": 2, "time_elapsed": 628884, "serialpos": 17, "key_press": -1, "wordID": 1306, "type": "PRES_VIS", "trial_index": 106}, "uniqueid": "MTK2971:35USIKEBNSN2FBZYCTHJG8Q9UR4N6L", "dateTime": 1519604132800}, {"current_trial": 107, "trialdata": {"rt": -1, "trial_type": "single-stim", "word": "goblin", "stimulus": "<p id=\"stim\">GOBLIN</p>", "conditions": [24, 1600, "v", 12000], "internal_node_id": "0.0-80.0", "trial": 2, "time_elapsed": 631578, "serialpos": 18, "key_press": -1, "wordID": 644, "type": "PRES_VIS", "trial_index": 107}, "uniqueid": "MTK2971:35USIKEBNSN2FBZYCTHJG8Q9UR4N6L", "dateTime": 1519604135494}, {"current_trial": 108, "trialdata": {"rt": -1, "trial_type": "single-stim", "word": "scarf", "stimulus": "<p id=\"stim\">SCARF</p>", "conditions": [24, 1600, "v", 12000], "internal_node_id": "0.0-81.0", "trial": 2, "time_elapsed": 634244, "serialpos": 19, "key_press": -1, "wordID": 1245, "type": "PRES_VIS", "trial_index": 108}, "uniqueid": "MTK2971:35USIKEBNSN2FBZYCTHJG8Q9UR4N6L", "dateTime": 1519604138160}, {"current_trial": 109, "trialdata": {"rt": -1, "trial_type": "single-stim", "word": "lapel", "stimulus": "<p id=\"stim\">LAPEL</p>", "conditions": [24, 1600, "v", 12000], "internal_node_id": "0.0-82.0", "trial": 2, "time_elapsed": 636823, "serialpos": 20, "key_press": -1, "wordID": 799, "type": "PRES_VIS", "trial_index": 109}, "uniqueid": "MTK2971:35USIKEBNSN2FBZYCTHJG8Q9UR4N6L", "dateTime": 1519604140740}, {"current_trial": 110, "trialdata": {"rt": -1, "trial_type": "single-stim", "word": "apron", "stimulus": "<p id=\"stim\">APRON</p>", "conditions": [24, 1600, "v", 12000], "internal_node_id": "0.0-83.0", "trial": 2, "time_elapsed": 639230, "serialpos": 21, "key_press": -1, "wordID": 34, "type": "PRES_VIS", "trial_index": 110}, "uniqueid": "MTK2971:35USIKEBNSN2FBZYCTHJG8Q9UR4N6L", "dateTime": 1519604143146}, {"current_trial": 111, "trialdata": {"rt": -1, "trial_type": "single-stim", "word": "subway", "stimulus": "<p id=\"stim\">SUBWAY</p>", "conditions": [24, 1600, "v", 12000], "internal_node_id": "0.0-84.0", "trial": 2, "time_elapsed": 641998, "serialpos": 22, "key_press": -1, "wordID": 1399, "type": "PRES_VIS", "trial_index": 111}, "uniqueid": "MTK2971:35USIKEBNSN2FBZYCTHJG8Q9UR4N6L", "dateTime": 1519604145914}, {"current_trial": 112, "trialdata": {"rt": -1, "trial_type": "single-stim", "word": "shelter", "stimulus": "<p id=\"stim\">SHELTER</p>", "conditions": [24, 1600, "v", 12000], "internal_node_id": "0.0-85.0", "trial": 2, "time_elapsed": 644762, "serialpos": 23, "key_press": -1, "wordID": 1281, "type": "PRES_VIS", "trial_index": 112}, "uniqueid": "MTK2971:35USIKEBNSN2FBZYCTHJG8Q9UR4N6L", "dateTime": 1519604148678}, {"current_trial": 113, "trialdata": {"rt": -1, "trial_type": "single-stim", "stimulus": "", "internal_node_id": "0.0-86.0-0.0", "time_elapsed": 647198, "key_press": -1, "type": "PRE_RECALL_DELAY", "trial_index": 113}, "uniqueid": "MTK2971:35USIKEBNSN2FBZYCTHJG8Q9UR4N6L", "dateTime": 1519604151114}, {"current_trial": 114, "trialdata": {"rt": -1000, "trial_type": "single-audio", "stimulus": "/static/audio/400Hz.wav", "internal_node_id": "0.0-87.0", "time_elapsed": 647699, "key_press": -1, "type": "PRE_RECALL_ALERT", "trial_index": 114}, "uniqueid": "MTK2971:35USIKEBNSN2FBZYCTHJG8Q9UR4N6L", "dateTime": 1519604151615}, {"current_trial": 115, "trialdata": {"rt": [1865, 3285, 4521, 8842, 10331, 12027, 13732, 16573, 18224, 20847, 24091], "recwords": ["subway", "shelter", "lapel", "lake", "county", "flower", "garden", "globe", "rocket", "shirt", "bug"], "key_times": [687, 832, 1119, 1285, 1451, 1535, 1865, 2345, 2476, 2635, 2762, 2874, 3034, 3119, 3285, 3627, 3773, 3885, 4104, 4243, 4521, 5586, 5712, 5771, 6004, 6160, 6251, 7159, 7686, 7724, 7762, 7798, 7835, 7872, 7910, 7947, 7985, 8023, 8378, 8473, 8580, 8677, 8842, 9265, 9407, 9653, 9743, 9882, 10025, 10331, 10803, 10932, 11099, 11226, 11376, 11535, 12027, 12572, 12806, 13026, 13209, 13368, 13448, 13732, 15172, 15262, 15431, 15506, 15814, 16573, 17171, 17321, 17428, 17545, 17652, 17966, 18224, 20107, 20258, 20470, 20550, 20710, 20847, 23593, 23707, 23887, 24091], "trial_type": "free-recall", "conditions": [24, 1600, "v", 12000], "internal_node_id": "0.0-88.0-0.0", "key_presses": [83, 85, 66, 87, 65, 89, 13, 83, 72, 69, 76, 84, 69, 82, 13, 76, 65, 80, 69, 76, 13, 83, 85, 66, 87, 65, 89, 8, 8, 8, 8, 8, 8, 8, 8, 8, 8, 8, 76, 65, 75, 69, 13, 67, 79, 85, 78, 84, 89, 13, 70, 76, 79, 87, 69, 82, 13, 71, 65, 82, 68, 69, 78, 13, 71, 76, 79, 66, 69, 13, 82, 79, 67, 75, 69, 84, 13, 83, 72, 73, 82, 84, 13, 66, 85, 71, 13], "trial": 2, "time_elapsed": 707706, "type": "FREE_RECALL", "trial_index": 115}, "uniqueid": "MTK2971:35USIKEBNSN2FBZYCTHJG8Q9UR4N6L", "dateTime": 1519604211623}, {"current_trial": 116, "trialdata": {"rt": 2600, "trial_type": "text", "internal_node_id": "0.0-89.0", "time_elapsed": 712309, "key_press": 13, "type": "INSTRUCTIONS", "trial_index": 116}, "uniqueid": "MTK2971:35USIKEBNSN2FBZYCTHJG8Q9UR4N6L", "dateTime": 1519604216225}, {"current_trial": 117, "trialdata": {"rt": [1610, 3087, 4500, 5755, 7535, 8857, 10200, 11798, 13072, 14713, 16143, 18328, 19669, 22053], "trial_type": "math-distractor", "key_times": [1340, 1442, 1610, 2848, 2949, 3087, 3956, 4387, 4500, 5481, 5643, 5755, 7017, 7438, 7535, 8674, 8857, 9811, 10104, 10200, 11374, 11666, 11798, 12678, 12986, 13072, 14123, 14618, 14713, 15839, 16033, 16143, 17943, 18242, 18328, 19184, 19567, 19669, 20787, 21913, 22053, 23607, 23762], "responses": ["12", "12", "10", "13", "18", "8", "14", "17", "16", "13", "11", "12", "19", "19"], "num2": [1, 3, 8, 2, 8, 1, 1, 3, 4, 8, 2, 4, 7, 6, 4], "num3": [6, 6, 1, 8, 4, 6, 5, 8, 5, 4, 3, 3, 9, 7, 9], "conditions": [12, 800, "v", 24000], "internal_node_id": "0.0-90.0", "key_presses": [49, 50, 13, 49, 50, 13, 49, 48, 13, 49, 51, 13, 49, 56, 13, 56, 13, 49, 52, 13, 49, 55, 13, 49, 54, 13, 49, 51, 13, 49, 49, 13, 49, 50, 13, 49, 57, 13, 49, 57, 13, 49, 54], "trial": 3, "time_elapsed": 738317, "type": "DISTRACTOR", "trial_index": 117, "num1": [5, 3, 1, 3, 6, 1, 8, 6, 7, 1, 6, 2, 3, 6, 3]}, "uniqueid": "MTK2971:35USIKEBNSN2FBZYCTHJG8Q9UR4N6L", "dateTime": 1519604242233}, {"current_trial": 118, "trialdata": {"rt": -1, "trial_type": "single-stim", "stimulus": "<p id=\"stim\">10</p>", "internal_node_id": "0.0-91.0-0.0", "time_elapsed": 741319, "key_press": -1, "trial_index": 118}, "uniqueid": "MTK2971:35USIKEBNSN2FBZYCTHJG8Q9UR4N6L", "dateTime": 1519604245235}, {"current_trial": 119, "trialdata": {"rt": -1, "trial_type": "single-stim", "stimulus": "<p id=\"stim\">9</p>", "internal_node_id": "0.0-91.0-1.0", "time_elapsed": 742323, "key_press": -1, "trial_index": 119}, "uniqueid": "MTK2971:35USIKEBNSN2FBZYCTHJG8Q9UR4N6L", "dateTime": 1519604246239}, {"current_trial": 120, "trialdata": {"rt": -1, "trial_type": "single-stim", "stimulus": "<p id=\"stim\">8</p>", "internal_node_id": "0.0-91.0-2.0", "time_elapsed": 743328, "key_press": -1, "trial_index": 120}, "uniqueid": "MTK2971:35USIKEBNSN2FBZYCTHJG8Q9UR4N6L", "dateTime": 1519604247244}, {"current_trial": 121, "trialdata": {"rt": -1, "trial_type": "single-stim", "stimulus": "<p id=\"stim\">7</p>", "internal_node_id": "0.0-91.0-3.0", "time_elapsed": 744328, "key_press": -1, "trial_index": 121}, "uniqueid": "MTK2971:35USIKEBNSN2FBZYCTHJG8Q9UR4N6L", "dateTime": 1519604248244}, {"current_trial": 122, "trialdata": {"rt": -1, "trial_type": "single-stim", "stimulus": "<p id=\"stim\">6</p>", "internal_node_id": "0.0-91.0-4.0", "time_elapsed": 745330, "key_press": -1, "trial_index": 122}, "uniqueid": "MTK2971:35USIKEBNSN2FBZYCTHJG8Q9UR4N6L", "dateTime": 1519604249247}, {"current_trial": 123, "trialdata": {"rt": -1, "trial_type": "single-stim", "stimulus": "<p id=\"stim\">5</p>", "internal_node_id": "0.0-91.0-5.0", "time_elapsed": 746334, "key_press": -1, "trial_index": 123}, "uniqueid": "MTK2971:35USIKEBNSN2FBZYCTHJG8Q9UR4N6L", "dateTime": 1519604250250}, {"current_trial": 124, "trialdata": {"rt": -1, "trial_type": "single-stim", "stimulus": "<p id=\"stim\">4</p>", "internal_node_id": "0.0-91.0-6.0", "time_elapsed": 747338, "key_press": -1, "trial_index": 124}, "uniqueid": "MTK2971:35USIKEBNSN2FBZYCTHJG8Q9UR4N6L", "dateTime": 1519604251254}, {"current_trial": 125, "trialdata": {"rt": -1, "trial_type": "single-stim", "stimulus": "<p id=\"stim\">3</p>", "internal_node_id": "0.0-91.0-7.0", "time_elapsed": 748339, "key_press": -1, "trial_index": 125}, "uniqueid": "MTK2971:35USIKEBNSN2FBZYCTHJG8Q9UR4N6L", "dateTime": 1519604252255}, {"current_trial": 126, "trialdata": {"rt": -1, "trial_type": "single-stim", "stimulus": "<p id=\"stim\">2</p>", "internal_node_id": "0.0-91.0-8.0", "time_elapsed": 749341, "key_press": -1, "trial_index": 126}, "uniqueid": "MTK2971:35USIKEBNSN2FBZYCTHJG8Q9UR4N6L", "dateTime": 1519604253257}, {"current_trial": 127, "trialdata": {"rt": -1, "trial_type": "single-stim", "stimulus": "<p id=\"stim\">1</p>", "internal_node_id": "0.0-91.0-9.0", "time_elapsed": 750342, "key_press": -1, "trial_index": 127}, "uniqueid": "MTK2971:35USIKEBNSN2FBZYCTHJG8Q9UR4N6L", "dateTime": 1519604254258}, {"current_trial": 128, "trialdata": {"rt": -1, "trial_type": "single-stim", "stimulus": "<p id=\"stim\">+</p>", "internal_node_id": "0.0-92.0-0.0", "time_elapsed": 751847, "key_press": -1, "type": "FIXATION", "trial_index": 128}, "uniqueid": "MTK2971:35USIKEBNSN2FBZYCTHJG8Q9UR4N6L", "dateTime": 1519604255763}, {"current_trial": 129, "trialdata": {"rt": -1, "trial_type": "single-stim", "word": "lace", "stimulus": "<p id=\"stim\">LACE</p>", "conditions": [12, 800, "v", 24000], "internal_node_id": "0.0-93.0", "trial": 3, "time_elapsed": 752651, "serialpos": 0, "key_press": -1, "wordID": 791, "type": "PRES_VIS", "trial_index": 129}, "uniqueid": "MTK2971:35USIKEBNSN2FBZYCTHJG8Q9UR4N6L", "dateTime": 1519604256567}, {"current_trial": 130, "trialdata": {"rt": -1, "trial_type": "single-stim", "word": "carriage", "stimulus": "<p id=\"stim\">CARRIAGE</p>", "conditions": [12, 800, "v", 24000], "internal_node_id": "0.0-94.0", "trial": 3, "time_elapsed": 754524, "serialpos": 1, "key_press": -1, "wordID": 247, "type": "PRES_VIS", "trial_index": 130}, "uniqueid": "MTK2971:35USIKEBNSN2FBZYCTHJG8Q9UR4N6L", "dateTime": 1519604258440}, {"current_trial": 131, "trialdata": {"rt": -1, "trial_type": "single-stim", "word": "onion", "stimulus": "<p id=\"stim\">ONION</p>", "conditions": [12, 800, "v", 24000], "internal_node_id": "0.0-95.0", "trial": 3, "time_elapsed": 756525, "serialpos": 2, "key_press": -1, "wordID": 976, "type": "PRES_VIS", "trial_index": 131}, "uniqueid": "MTK2971:35USIKEBNSN2FBZYCTHJG8Q9UR4N6L", "dateTime": 1519604260441}, {"current_trial": 132, "trialdata": {"rt": -1, "trial_type": "single-stim", "word": "diver", "stimulus": "<p id=\"stim\">DIVER</p>", "conditions": [12, 800, "v", 24000], "internal_node_id": "0.0-96.0", "trial": 3, "time_elapsed": 758179, "serialpos": 3, "key_press": -1, "wordID": 475, "type": "PRES_VIS", "trial_index": 132}, "uniqueid": "MTK2971:35USIKEBNSN2FBZYCTHJG8Q9UR4N6L", "dateTime": 1519604262095}, {"current_trial": 133, "trialdata": {"rt": -1, "trial_type": "single-stim", "word": "kidney", "stimulus": "<p id=\"stim\">KIDNEY</p>", "conditions": [12, 800, "v", 24000], "internal_node_id": "0.0-97.0", "trial": 3, "time_elapsed": 760006, "serialpos": 4, "key_press": -1, "wordID": 775, "type": "PRES_VIS", "trial_index": 133}, "uniqueid": "MTK2971:35USIKEBNSN2FBZYCTHJG8Q9UR4N6L", "dateTime": 1519604263922}, {"current_trial": 134, "trialdata": {"rt": -1, "trial_type": "single-stim", "word": "spool", "stimulus": "<p id=\"stim\">SPOOL</p>", "conditions": [12, 800, "v", 24000], "internal_node_id": "0.0-98.0", "trial": 3, "time_elapsed": 761906, "serialpos": 5, "key_press": -1, "wordID": 1355, "type": "PRES_VIS", "trial_index": 134}, "uniqueid": "MTK2971:35USIKEBNSN2FBZYCTHJG8Q9UR4N6L", "dateTime": 1519604265822}, {"current_trial": 135, "trialdata": {"rt": -1, "trial_type": "single-stim", "word": "clam", "stimulus": "<p id=\"stim\">CLAM</p>", "conditions": [12, 800, "v", 24000], "internal_node_id": "0.0-99.0", "trial": 3, "time_elapsed": 763569, "serialpos": 6, "key_press": -1, "wordID": 314, "type": "PRES_VIS", "trial_index": 135}, "uniqueid": "MTK2971:35USIKEBNSN2FBZYCTHJG8Q9UR4N6L", "dateTime": 1519604267485}, {"current_trial": 136, "trialdata": {"rt": -1, "trial_type": "single-stim", "word": "powder", "stimulus": "<p id=\"stim\">POWDER</p>", "conditions": [12, 800, "v", 24000], "internal_node_id": "0.0-100.0", "trial": 3, "time_elapsed": 765364, "serialpos": 7, "key_press": -1, "wordID": 1116, "type": "PRES_VIS", "trial_index": 136}, "uniqueid": "MTK2971:35USIKEBNSN2FBZYCTHJG8Q9UR4N6L", "dateTime": 1519604269280}, {"current_trial": 137, "trialdata": {"rt": -1, "trial_type": "single-stim", "word": "outfit", "stimulus": "<p id=\"stim\">OUTFIT</p>", "conditions": [12, 800, "v", 24000], "internal_node_id": "0.0-101.0", "trial": 3, "time_elapsed": 767019, "serialpos": 8, "key_press": -1, "wordID": 987, "type": "PRES_VIS", "trial_index": 137}, "uniqueid": "MTK2971:35USIKEBNSN2FBZYCTHJG8Q9UR4N6L", "dateTime": 1519604270935}, {"current_trial": 138, "trialdata": {"rt": -1, "trial_type": "single-stim", "word": "apple", "stimulus": "<p id=\"stim\">APPLE</p>", "conditions": [12, 800, "v", 24000], "internal_node_id": "0.0-102.0", "trial": 3, "time_elapsed": 769021, "serialpos": 9, "key_press": -1, "wordID": 32, "type": "PRES_VIS", "trial_index": 138}, "uniqueid": "MTK2971:35USIKEBNSN2FBZYCTHJG8Q9UR4N6L", "dateTime": 1519604272937}, {"current_trial": 139, "trialdata": {"rt": -1, "trial_type": "single-stim", "word": "peach", "stimulus": "<p id=\"stim\">PEACH</p>", "conditions": [12, 800, "v", 24000], "internal_node_id": "0.0-103.0", "trial": 3, "time_elapsed": 770679, "serialpos": 10, "key_press": -1, "wordID": 1030, "type": "PRES_VIS", "trial_index": 139}, "uniqueid": "MTK2971:35USIKEBNSN2FBZYCTHJG8Q9UR4N6L", "dateTime": 1519604274595}, {"current_trial": 140, "trialdata": {"rt": -1, "trial_type": "single-stim", "word": "liver", "stimulus": "<p id=\"stim\">LIVER</p>", "conditions": [12, 800, "v", 24000], "internal_node_id": "0.0-104.0", "trial": 3, "time_elapsed": 772386, "serialpos": 11, "key_press": -1, "wordID": 832, "type": "PRES_VIS", "trial_index": 140}, "uniqueid": "MTK2971:35USIKEBNSN2FBZYCTHJG8Q9UR4N6L", "dateTime": 1519604276303}, {"current_trial": 141, "trialdata": {"rt": -1, "trial_type": "single-stim", "stimulus": "", "internal_node_id": "0.0-105.0-0.0", "time_elapsed": 774606, "key_press": -1, "type": "PRE_RECALL_DELAY", "trial_index": 141}, "uniqueid": "MTK2971:35USIKEBNSN2FBZYCTHJG8Q9UR4N6L", "dateTime": 1519604278522}, {"current_trial": 142, "trialdata": {"rt": -1000, "trial_type": "single-audio", "stimulus": "/static/audio/400Hz.wav", "internal_node_id": "0.0-106.0", "time_elapsed": 775110, "key_press": -1, "type": "PRE_RECALL_ALERT", "trial_index": 142}, "uniqueid": "MTK2971:35USIKEBNSN2FBZYCTHJG8Q9UR4N6L", "dateTime": 1519604279026}, {"current_trial": 143, "trialdata": {"rt": [1710, 2916, 4751, 7082, 22650], "recwords": ["liver", "lace", "ccarriage", "clam", "peach"], "key_times": [943, 1165, 1234, 1425, 1548, 1710, 2349, 2430, 2634, 2804, 2916, 3351, 3422, 3716, 3922, 4074, 4165, 4317, 4462, 4595, 4751, 5911, 6013, 6137, 6249, 7082, 21757, 21879, 22075, 22278, 22358, 22650], "trial_type": "free-recall", "conditions": [12, 800, "v", 24000], "internal_node_id": "0.0-107.0-0.0", "key_presses": [76, 73, 86, 69, 82, 13, 76, 65, 67, 69, 13, 67, 67, 65, 82, 82, 73, 65, 71, 69, 13, 67, 76, 65, 77, 13, 80, 69, 65, 67, 72, 13], "trial": 3, "time_elapsed": 835114, "type": "FREE_RECALL", "trial_index": 143}, "uniqueid": "MTK2971:35USIKEBNSN2FBZYCTHJG8Q9UR4N6L", "dateTime": 1519604339032}, {"current_trial": 144, "trialdata": {"rt": 1133, "trial_type": "text", "internal_node_id": "0.0-108.0", "time_elapsed": 838252, "key_press": 13, "type": "INSTRUCTIONS", "trial_index": 144}, "uniqueid": "MTK2971:35USIKEBNSN2FBZYCTHJG8Q9UR4N6L", "dateTime": 1519604342169}, {"current_trial": 145, "trialdata": {"rt": [2738, 4521, 5872, 7528, 9416, 10738, 12495, 14129, 16705, 17950, 22799], "trial_type": "math-distractor", "key_times": [1437, 1775, 2161, 2738, 3955, 4356, 4521, 5721, 5872, 6992, 7389, 7528, 8923, 9290, 9416, 10637, 10738, 11708, 12399, 12495, 13512, 14023, 14129, 15208, 16559, 16705, 17855, 17950, 20588, 21353, 21996, 22708, 22799], "responses": ["14", "17", "8", "10", "17", "4", "15", "14", "18", "5", "24"], "num2": [3, 3, 1, 3, 7, 2, 4, 9, 8, 2, 9, 2], "num3": [6, 7, 6, 2, 5, 1, 6, 3, 9, 1, 8, 5], "conditions": [24, 800, "v", 24000], "internal_node_id": "0.0-109.0", "key_presses": [49, 52, 16, 13, 49, 55, 13, 56, 13, 49, 48, 13, 49, 55, 13, 52, 13, 49, 53, 13, 49, 52, 13, 49, 56, 13, 53, 13, 49, 8, 50, 52, 13], "trial": 4, "time_elapsed": 864261, "type": "DISTRACTOR", "trial_index": 145, "num1": [5, 7, 1, 5, 5, 1, 5, 2, 1, 2, 7, 5]}, "uniqueid": "MTK2971:35USIKEBNSN2FBZYCTHJG8Q9UR4N6L", "dateTime": 1519604368177}, {"current_trial": 146, "trialdata": {"rt": -1, "trial_type": "single-stim", "stimulus": "<p id=\"stim\">10</p>", "internal_node_id": "0.0-110.0-0.0", "time_elapsed": 867267, "key_press": -1, "trial_index": 146}, "uniqueid": "MTK2971:35USIKEBNSN2FBZYCTHJG8Q9UR4N6L", "dateTime": 1519604371183}, {"current_trial": 147, "trialdata": {"rt": -1, "trial_type": "single-stim", "stimulus": "<p id=\"stim\">9</p>", "internal_node_id": "0.0-110.0-1.0", "time_elapsed": 868272, "key_press": -1, "trial_index": 147}, "uniqueid": "MTK2971:35USIKEBNSN2FBZYCTHJG8Q9UR4N6L", "dateTime": 1519604372188}, {"current_trial": 148, "trialdata": {"rt": -1, "trial_type": "single-stim", "stimulus": "<p id=\"stim\">8</p>", "internal_node_id": "0.0-110.0-2.0", "time_elapsed": 869276, "key_press": -1, "trial_index": 148}, "uniqueid": "MTK2971:35USIKEBNSN2FBZYCTHJG8Q9UR4N6L", "dateTime": 1519604373192}, {"current_trial": 149, "trialdata": {"rt": -1, "trial_type": "single-stim", "stimulus": "<p id=\"stim\">7</p>", "internal_node_id": "0.0-110.0-3.0", "time_elapsed": 870277, "key_press": -1, "trial_index": 149}, "uniqueid": "MTK2971:35USIKEBNSN2FBZYCTHJG8Q9UR4N6L", "dateTime": 1519604374193}, {"current_trial": 150, "trialdata": {"rt": -1, "trial_type": "single-stim", "stimulus": "<p id=\"stim\">6</p>", "internal_node_id": "0.0-110.0-4.0", "time_elapsed": 871279, "key_press": -1, "trial_index": 150}, "uniqueid": "MTK2971:35USIKEBNSN2FBZYCTHJG8Q9UR4N6L", "dateTime": 1519604375195}, {"current_trial": 151, "trialdata": {"rt": -1, "trial_type": "single-stim", "stimulus": "<p id=\"stim\">5</p>", "internal_node_id": "0.0-110.0-5.0", "time_elapsed": 872283, "key_press": -1, "trial_index": 151}, "uniqueid": "MTK2971:35USIKEBNSN2FBZYCTHJG8Q9UR4N6L", "dateTime": 1519604376199}, {"current_trial": 152, "trialdata": {"rt": -1, "trial_type": "single-stim", "stimulus": "<p id=\"stim\">4</p>", "internal_node_id": "0.0-110.0-6.0", "time_elapsed": 873286, "key_press": -1, "trial_index": 152}, "uniqueid": "MTK2971:35USIKEBNSN2FBZYCTHJG8Q9UR4N6L", "dateTime": 1519604377202}, {"current_trial": 153, "trialdata": {"rt": -1, "trial_type": "single-stim", "stimulus": "<p id=\"stim\">3</p>", "internal_node_id": "0.0-110.0-7.0", "time_elapsed": 874287, "key_press": -1, "trial_index": 153}, "uniqueid": "MTK2971:35USIKEBNSN2FBZYCTHJG8Q9UR4N6L", "dateTime": 1519604378203}, {"current_trial": 154, "trialdata": {"rt": -1, "trial_type": "single-stim", "stimulus": "<p id=\"stim\">2</p>", "internal_node_id": "0.0-110.0-8.0", "time_elapsed": 875290, "key_press": -1, "trial_index": 154}, "uniqueid": "MTK2971:35USIKEBNSN2FBZYCTHJG8Q9UR4N6L", "dateTime": 1519604379206}, {"current_trial": 155, "trialdata": {"rt": -1, "trial_type": "single-stim", "stimulus": "<p id=\"stim\">1</p>", "internal_node_id": "0.0-110.0-9.0", "time_elapsed": 876294, "key_press": -1, "trial_index": 155}, "uniqueid": "MTK2971:35USIKEBNSN2FBZYCTHJG8Q9UR4N6L", "dateTime": 1519604380210}, {"current_trial": 156, "trialdata": {"rt": -1, "trial_type": "single-stim", "stimulus": "<p id=\"stim\">+</p>", "internal_node_id": "0.0-111.0-0.0", "time_elapsed": 877797, "key_press": -1, "type": "FIXATION", "trial_index": 156}, "uniqueid": "MTK2971:35USIKEBNSN2FBZYCTHJG8Q9UR4N6L", "dateTime": 1519604381713}, {"current_trial": 157, "trialdata": {"rt": -1, "trial_type": "single-stim", "word": "pimple", "stimulus": "<p id=\"stim\">PIMPLE</p>", "conditions": [24, 800, "v", 24000], "internal_node_id": "0.0-112.0", "trial": 4, "time_elapsed": 878597, "serialpos": 0, "key_press": -1, "wordID": 1070, "type": "PRES_VIS", "trial_index": 157}, "uniqueid": "MTK2971:35USIKEBNSN2FBZYCTHJG8Q9UR4N6L", "dateTime": 1519604382513}, {"current_trial": 158, "trialdata": {"rt": -1, "trial_type": "single-stim", "word": "handbag", "stimulus": "<p id=\"stim\">HANDBAG</p>", "conditions": [24, 800, "v", 24000], "internal_node_id": "0.0-113.0", "trial": 4, "time_elapsed": 880529, "serialpos": 1, "key_press": -1, "wordID": 683, "type": "PRES_VIS", "trial_index": 158}, "uniqueid": "MTK2971:35USIKEBNSN2FBZYCTHJG8Q9UR4N6L", "dateTime": 1519604384445}, {"current_trial": 159, "trialdata": {"rt": -1, "trial_type": "single-stim", "word": "ghetto", "stimulus": "<p id=\"stim\">GHETTO</p>", "conditions": [24, 800, "v", 24000], "internal_node_id": "0.0-114.0", "trial": 4, "time_elapsed": 882387, "serialpos": 2, "key_press": -1, "wordID": 632, "type": "PRES_VIS", "trial_index": 159}, "uniqueid": "MTK2971:35USIKEBNSN2FBZYCTHJG8Q9UR4N6L", "dateTime": 1519604386303}, {"current_trial": 160, "trialdata": {"rt": -1, "trial_type": "single-stim", "word": "barley", "stimulus": "<p id=\"stim\">BARLEY</p>", "conditions": [24, 800, "v", 24000], "internal_node_id": "0.0-115.0", "trial": 4, "time_elapsed": 884130, "serialpos": 3, "key_press": -1, "wordID": 87, "type": "PRES_VIS", "trial_index": 160}, "uniqueid": "MTK2971:35USIKEBNSN2FBZYCTHJG8Q9UR4N6L", "dateTime": 1519604388046}, {"current_trial": 161, "trialdata": {"rt": -1, "trial_type": "single-stim", "word": "student", "stimulus": "<p id=\"stim\">STUDENT</p>", "conditions": [24, 800, "v", 24000], "internal_node_id": "0.0-116.0", "trial": 4, "time_elapsed": 886095, "serialpos": 4, "key_press": -1, "wordID": 1394, "type": "PRES_VIS", "trial_index": 161}, "uniqueid": "MTK2971:35USIKEBNSN2FBZYCTHJG8Q9UR4N6L", "dateTime": 1519604390011}, {"current_trial": 162, "trialdata": {"rt": -1, "trial_type": "single-stim", "word": "college", "stimulus": "<p id=\"stim\">COLLEGE</p>", "conditions": [24, 800, "v", 24000], "internal_node_id": "0.0-117.0", "trial": 4, "time_elapsed": 887743, "serialpos": 5, "key_press": -1, "wordID": 345, "type": "PRES_VIS", "trial_index": 162}, "uniqueid": "MTK2971:35USIKEBNSN2FBZYCTHJG8Q9UR4N6L", "dateTime": 1519604391659}, {"current_trial": 163, "trialdata": {"rt": -1, "trial_type": "single-stim", "word": "uncle", "stimulus": "<p id=\"stim\">UNCLE</p>", "conditions": [24, 800, "v", 24000], "internal_node_id": "0.0-118.0", "trial": 4, "time_elapsed": 889432, "serialpos": 6, "key_press": -1, "wordID": 1535, "type": "PRES_VIS", "trial_index": 163}, "uniqueid": "MTK2971:35USIKEBNSN2FBZYCTHJG8Q9UR4N6L", "dateTime": 1519604393349}, {"current_trial": 164, "trialdata": {"rt": -1, "trial_type": "single-stim", "word": "blackboard", "stimulus": "<p id=\"stim\">BLACKBOARD</p>", "conditions": [24, 800, "v", 24000], "internal_node_id": "0.0-119.0", "trial": 4, "time_elapsed": 891388, "serialpos": 7, "key_press": -1, "wordID": 132, "type": "PRES_VIS", "trial_index": 164}, "uniqueid": "MTK2971:35USIKEBNSN2FBZYCTHJG8Q9UR4N6L", "dateTime": 1519604395304}, {"current_trial": 165, "trialdata": {"rt": -1, "trial_type": "single-stim", "word": "knapsack", "stimulus": "<p id=\"stim\">KNAPSACK</p>", "conditions": [24, 800, "v", 24000], "internal_node_id": "0.0-120.0", "trial": 4, "time_elapsed": 893275, "serialpos": 8, "key_press": -1, "wordID": 782, "type": "PRES_VIS", "trial_index": 165}, "uniqueid": "MTK2971:35USIKEBNSN2FBZYCTHJG8Q9UR4N6L", "dateTime": 1519604397191}, {"current_trial": 166, "trialdata": {"rt": -1, "trial_type": "single-stim", "word": "harp", "stimulus": "<p id=\"stim\">HARP</p>", "conditions": [24, 800, "v", 24000], "internal_node_id": "0.0-121.0", "trial": 4, "time_elapsed": 894932, "serialpos": 9, "key_press": -1, "wordID": 688, "type": "PRES_VIS", "trial_index": 166}, "uniqueid": "MTK2971:35USIKEBNSN2FBZYCTHJG8Q9UR4N6L", "dateTime": 1519604398848}, {"current_trial": 167, "trialdata": {"rt": -1, "trial_type": "single-stim", "word": "briefcase", "stimulus": "<p id=\"stim\">BRIEFCASE</p>", "conditions": [24, 800, "v", 24000], "internal_node_id": "0.0-122.0", "trial": 4, "time_elapsed": 896883, "serialpos": 10, "key_press": -1, "wordID": 174, "type": "PRES_VIS", "trial_index": 167}, "uniqueid": "MTK2971:35USIKEBNSN2FBZYCTHJG8Q9UR4N6L", "dateTime": 1519604400799}, {"current_trial": 168, "trialdata": {"rt": -1, "trial_type": "single-stim", "word": "necklace", "stimulus": "<p id=\"stim\">NECKLACE</p>", "conditions": [24, 800, "v", 24000], "internal_node_id": "0.0-123.0", "trial": 4, "time_elapsed": 898885, "serialpos": 11, "key_press": -1, "wordID": 939, "type": "PRES_VIS", "trial_index": 168}, "uniqueid": "MTK2971:35USIKEBNSN2FBZYCTHJG8Q9UR4N6L", "dateTime": 1519604402801}, {"current_trial": 169, "trialdata": {"rt": -1, "trial_type": "single-stim", "word": "flesh", "stimulus": "<p id=\"stim\">FLESH</p>", "conditions": [24, 800, "v", 24000], "internal_node_id": "0.0-124.0", "trial": 4, "time_elapsed": 900763, "serialpos": 12, "key_press": -1, "wordID": 578, "type": "PRES_VIS", "trial_index": 169}, "uniqueid": "MTK2971:35USIKEBNSN2FBZYCTHJG8Q9UR4N6L", "dateTime": 1519604404679}, {"current_trial": 170, "trialdata": {"rt": -1, "trial_type": "single-stim", "word": "pistol", "stimulus": "<p id=\"stim\">PISTOL</p>", "conditions": [24, 800, "v", 24000], "internal_node_id": "0.0-125.0", "trial": 4, "time_elapsed": 902461, "serialpos": 13, "key_press": -1, "wordID": 1074, "type": "PRES_VIS", "trial_index": 170}, "uniqueid": "MTK2971:35USIKEBNSN2FBZYCTHJG8Q9UR4N6L", "dateTime": 1519604406377}, {"current_trial": 171, "trialdata": {"rt": -1, "trial_type": "single-stim", "word": "bank", "stimulus": "<p id=\"stim\">BANK</p>", "conditions": [24, 800, "v", 24000], "internal_node_id": "0.0-126.0", "trial": 4, "time_elapsed": 904430, "serialpos": 14, "key_press": -1, "wordID": 82, "type": "PRES_VIS", "trial_index": 171}, "uniqueid": "MTK2971:35USIKEBNSN2FBZYCTHJG8Q9UR4N6L", "dateTime": 1519604408346}, {"current_trial": 172, "trialdata": {"rt": -1, "trial_type": "single-stim", "word": "bullet", "stimulus": "<p id=\"stim\">BULLET</p>", "conditions": [24, 800, "v", 24000], "internal_node_id": "0.0-127.0", "trial": 4, "time_elapsed": 906431, "serialpos": 15, "key_press": -1, "wordID": 193, "type": "PRES_VIS", "trial_index": 172}, "uniqueid": "MTK2971:35USIKEBNSN2FBZYCTHJG8Q9UR4N6L", "dateTime": 1519604410347}, {"current_trial": 173, "trialdata": {"rt": -1, "trial_type": "single-stim", "word": "pebble", "stimulus": "<p id=\"stim\">PEBBLE</p>", "conditions": [24, 800, "v", 24000], "internal_node_id": "0.0-128.0", "trial": 4, "time_elapsed": 908146, "serialpos": 16, "key_press": -1, "wordID": 1034, "type": "PRES_VIS", "trial_index": 173}, "uniqueid": "MTK2971:35USIKEBNSN2FBZYCTHJG8Q9UR4N6L", "dateTime": 1519604412063}, {"current_trial": 174, "trialdata": {"rt": -1, "trial_type": "single-stim", "word": "candy", "stimulus": "<p id=\"stim\">CANDY</p>", "conditions": [24, 800, "v", 24000], "internal_node_id": "0.0-129.0", "trial": 4, "time_elapsed": 910017, "serialpos": 17, "key_press": -1, "wordID": 229, "type": "PRES_VIS", "trial_index": 174}, "uniqueid": "MTK2971:35USIKEBNSN2FBZYCTHJG8Q9UR4N6L", "dateTime": 1519604413933}, {"current_trial": 175, "trialdata": {"rt": -1, "trial_type": "single-stim", "word": "fungus", "stimulus": "<p id=\"stim\">FUNGUS</p>", "conditions": [24, 800, "v", 24000], "internal_node_id": "0.0-130.0", "trial": 4, "time_elapsed": 911962, "serialpos": 18, "key_press": -1, "wordID": 613, "type": "PRES_VIS", "trial_index": 175}, "uniqueid": "MTK2971:35USIKEBNSN2FBZYCTHJG8Q9UR4N6L", "dateTime": 1519604415878}, {"current_trial": 176, "trialdata": {"rt": -1, "trial_type": "single-stim", "word": "termite", "stimulus": "<p id=\"stim\">TERMITE</p>", "conditions": [24, 800, "v", 24000], "internal_node_id": "0.0-131.0", "trial": 4, "time_elapsed": 913706, "serialpos": 19, "key_press": -1, "wordID": 1450, "type": "PRES_VIS", "trial_index": 176}, "uniqueid": "MTK2971:35USIKEBNSN2FBZYCTHJG8Q9UR4N6L", "dateTime": 1519604417622}, {"current_trial": 177, "trialdata": {"rt": -1, "trial_type": "single-stim", "word": "motor", "stimulus": "<p id=\"stim\">MOTOR</p>", "conditions": [24, 800, "v", 24000], "internal_node_id": "0.0-132.0", "trial": 4, "time_elapsed": 915691, "serialpos": 20, "key_press": -1, "wordID": 921, "type": "PRES_VIS", "trial_index": 177}, "uniqueid": "MTK2971:35USIKEBNSN2FBZYCTHJG8Q9UR4N6L", "dateTime": 1519604419607}, {"current_trial": 178, "trialdata": {"rt": -1, "trial_type": "single-stim", "word": "toaster", "stimulus": "<p id=\"stim\">TOASTER</p>", "conditions": [24, 800, "v", 24000], "internal_node_id": "0.0-133.0", "trial": 4, "time_elapsed": 917417, "serialpos": 21, "key_press": -1, "wordID": 1471, "type": "PRES_VIS", "trial_index": 178}, "uniqueid": "MTK2971:35USIKEBNSN2FBZYCTHJG8Q9UR4N6L", "dateTime": 1519604421333}, {"current_trial": 179, "trialdata": {"rt": -1, "trial_type": "single-stim", "word": "branch", "stimulus": "<p id=\"stim\">BRANCH</p>", "conditions": [24, 800, "v", 24000], "internal_node_id": "0.0-134.0", "trial": 4, "time_elapsed": 919275, "serialpos": 22, "key_press": -1, "wordID": 167, "type": "PRES_VIS", "trial_index": 179}, "uniqueid": "MTK2971:35USIKEBNSN2FBZYCTHJG8Q9UR4N6L", "dateTime": 1519604423191}, {"current_trial": 180, "trialdata": {"rt": -1, "trial_type": "single-stim", "word": "rebel", "stimulus": "<p id=\"stim\">REBEL</p>", "conditions": [24, 800, "v", 24000], "internal_node_id": "0.0-135.0", "trial": 4, "time_elapsed": 920904, "serialpos": 23, "key_press": -1, "wordID": 1171, "type": "PRES_VIS", "trial_index": 180}, "uniqueid": "MTK2971:35USIKEBNSN2FBZYCTHJG8Q9UR4N6L", "dateTime": 1519604424821}, {"current_trial": 181, "trialdata": {"rt": -1, "trial_type": "single-stim", "stimulus": "", "internal_node_id": "0.0-136.0-0.0", "time_elapsed": 923331, "key_press": -1, "type": "PRE_RECALL_DELAY", "trial_index": 181}, "uniqueid": "MTK2971:35USIKEBNSN2FBZYCTHJG8Q9UR4N6L", "dateTime": 1519604427247}, {"current_trial": 182, "trialdata": {"rt": -1000, "trial_type": "single-audio", "stimulus": "/static/audio/400Hz.wav", "internal_node_id": "0.0-137.0", "time_elapsed": 923832, "key_press": -1, "type": "PRE_RECALL_ALERT", "trial_index": 182}, "uniqueid": "MTK2971:35USIKEBNSN2FBZYCTHJG8Q9UR4N6L", "dateTime": 1519604427748}, {"current_trial": 183, "trialdata": {"rt": [1994, 3719, 5193, 7737, 9314, 10804, 12084, 14840, 29677, 50237], "recwords": ["rebel", "pimple", "branch", "barley", "student", "college", "uncle", "ghetto", "blackboard", "student"], "key_times": [396, 585, 693, 817, 1688, 1994, 2618, 2914, 3056, 3187, 3355, 3548, 3719, 4253, 4323, 4504, 4616, 4772, 4863, 5193, 5719, 5837, 6139, 6883, 7047, 7292, 7737, 8219, 8389, 8590, 8665, 8831, 8917, 9147, 9314, 9684, 9844, 10038, 10175, 10310, 10464, 10566, 10804, 11459, 11561, 11683, 11818, 11914, 12084, 13876, 13994, 14135, 14329, 14454, 14550, 14840, 27495, 27647, 27826, 28040, 28152, 28441, 29060, 29195, 29410, 29570, 29677, 47448, 47952, 48179, 48331, 48527, 48591, 48782, 50237], "trial_type": "free-recall", "conditions": [24, 800, "v", 24000], "internal_node_id": "0.0-138.0-0.0", "key_presses": [82, 69, 66, 69, 76, 13, 80, 73, 77, 80, 76, 69, 13, 66, 82, 65, 78, 67, 72, 13, 66, 65, 82, 76, 69, 89, 13, 83, 84, 85, 68, 69, 78, 84, 13, 67, 79, 76, 76, 69, 71, 69, 13, 85, 78, 67, 76, 69, 13, 71, 72, 69, 84, 84, 79, 13, 66, 76, 65, 67, 75, 66, 79, 65, 82, 68, 13, 83, 84, 85, 68, 69, 78, 84, 13], "trial": 4, "time_elapsed": 983838, "type": "FREE_RECALL", "trial_index": 183}, "uniqueid": "MTK2971:35USIKEBNSN2FBZYCTHJG8Q9UR4N6L", "dateTime": 1519604487756}, {"current_trial": 184, "trialdata": {"rt": 1461, "trial_type": "text", "internal_node_id": "0.0-139.0", "time_elapsed": 987303, "key_press": 13, "type": "INSTRUCTIONS", "trial_index": 184}, "uniqueid": "MTK2971:35USIKEBNSN2FBZYCTHJG8Q9UR4N6L", "dateTime": 1519604491220}, {"current_trial": 185, "trialdata": {"rt": [2044, 3644, 5536, 6923, 8540, 10846], "trial_type": "math-distractor", "key_times": [1552, 1874, 2044, 3511, 3644, 4992, 5424, 5536, 6575, 6822, 6923, 8204, 8392, 8540, 10718, 10846, 11797], "responses": ["14", "5", "17", "14", "11", "8"], "num2": [5, 1, 8, 3, 1, 1, 2], "num3": [8, 2, 8, 5, 3, 3, 8], "conditions": [24, 800, "v", 12000], "internal_node_id": "0.0-140.0", "key_presses": [49, 52, 13, 53, 13, 49, 55, 13, 49, 52, 13, 49, 49, 13, 56, 13, 49], "trial": 5, "time_elapsed": 1001313, "type": "DISTRACTOR", "trial_index": 185, "num1": [1, 2, 1, 6, 6, 4, 7]}, "uniqueid": "MTK2971:35USIKEBNSN2FBZYCTHJG8Q9UR4N6L", "dateTime": 1519604505229}, {"current_trial": 186, "trialdata": {"rt": -1, "trial_type": "single-stim", "stimulus": "<p id=\"stim\">10</p>", "internal_node_id": "0.0-141.0-0.0", "time_elapsed": 1004316, "key_press": -1, "trial_index": 186}, "uniqueid": "MTK2971:35USIKEBNSN2FBZYCTHJG8Q9UR4N6L", "dateTime": 1519604508233}, {"current_trial": 187, "trialdata": {"rt": -1, "trial_type": "single-stim", "stimulus": "<p id=\"stim\">9</p>", "internal_node_id": "0.0-141.0-1.0", "time_elapsed": 1005318, "key_press": -1, "trial_index": 187}, "uniqueid": "MTK2971:35USIKEBNSN2FBZYCTHJG8Q9UR4N6L", "dateTime": 1519604509235}, {"current_trial": 188, "trialdata": {"rt": -1, "trial_type": "single-stim", "stimulus": "<p id=\"stim\">8</p>", "internal_node_id": "0.0-141.0-2.0", "time_elapsed": 1006323, "key_press": -1, "trial_index": 188}, "uniqueid": "MTK2971:35USIKEBNSN2FBZYCTHJG8Q9UR4N6L", "dateTime": 1519604510239}, {"current_trial": 189, "trialdata": {"rt": -1, "trial_type": "single-stim", "stimulus": "<p id=\"stim\">7</p>", "internal_node_id": "0.0-141.0-3.0", "time_elapsed": 1007327, "key_press": -1, "trial_index": 189}, "uniqueid": "MTK2971:35USIKEBNSN2FBZYCTHJG8Q9UR4N6L", "dateTime": 1519604511243}, {"current_trial": 190, "trialdata": {"rt": -1, "trial_type": "single-stim", "stimulus": "<p id=\"stim\">6</p>", "internal_node_id": "0.0-141.0-4.0", "time_elapsed": 1008330, "key_press": -1, "trial_index": 190}, "uniqueid": "MTK2971:35USIKEBNSN2FBZYCTHJG8Q9UR4N6L", "dateTime": 1519604512246}, {"current_trial": 191, "trialdata": {"rt": -1, "trial_type": "single-stim", "stimulus": "<p id=\"stim\">5</p>", "internal_node_id": "0.0-141.0-5.0", "time_elapsed": 1009332, "key_press": -1, "trial_index": 191}, "uniqueid": "MTK2971:35USIKEBNSN2FBZYCTHJG8Q9UR4N6L", "dateTime": 1519604513248}, {"current_trial": 192, "trialdata": {"rt": -1, "trial_type": "single-stim", "stimulus": "<p id=\"stim\">4</p>", "internal_node_id": "0.0-141.0-6.0", "time_elapsed": 1010334, "key_press": -1, "trial_index": 192}, "uniqueid": "MTK2971:35USIKEBNSN2FBZYCTHJG8Q9UR4N6L", "dateTime": 1519604514250}, {"current_trial": 193, "trialdata": {"rt": -1, "trial_type": "single-stim", "stimulus": "<p id=\"stim\">3</p>", "internal_node_id": "0.0-141.0-7.0", "time_elapsed": 1011337, "key_press": -1, "trial_index": 193}, "uniqueid": "MTK2971:35USIKEBNSN2FBZYCTHJG8Q9UR4N6L", "dateTime": 1519604515254}, {"current_trial": 194, "trialdata": {"rt": -1, "trial_type": "single-stim", "stimulus": "<p id=\"stim\">2</p>", "internal_node_id": "0.0-141.0-8.0", "time_elapsed": 1012342, "key_press": -1, "trial_index": 194}, "uniqueid": "MTK2971:35USIKEBNSN2FBZYCTHJG8Q9UR4N6L", "dateTime": 1519604516258}, {"current_trial": 195, "trialdata": {"rt": -1, "trial_type": "single-stim", "stimulus": "<p id=\"stim\">1</p>", "internal_node_id": "0.0-141.0-9.0", "time_elapsed": 1013344, "key_press": -1, "trial_index": 195}, "uniqueid": "MTK2971:35USIKEBNSN2FBZYCTHJG8Q9UR4N6L", "dateTime": 1519604517260}, {"current_trial": 196, "trialdata": {"rt": -1, "trial_type": "single-stim", "stimulus": "<p id=\"stim\">+</p>", "internal_node_id": "0.0-142.0-0.0", "time_elapsed": 1014848, "key_press": -1, "type": "FIXATION", "trial_index": 196}, "uniqueid": "MTK2971:35USIKEBNSN2FBZYCTHJG8Q9UR4N6L", "dateTime": 1519604518764}, {"current_trial": 197, "trialdata": {"rt": -1, "trial_type": "single-stim", "word": "elbow", "stimulus": "<p id=\"stim\">ELBOW</p>", "conditions": [24, 800, "v", 12000], "internal_node_id": "0.0-143.0", "trial": 5, "time_elapsed": 1015650, "serialpos": 0, "key_press": -1, "wordID": 519, "type": "PRES_VIS", "trial_index": 197}, "uniqueid": "MTK2971:35USIKEBNSN2FBZYCTHJG8Q9UR4N6L", "dateTime": 1519604519566}, {"current_trial": 198, "trialdata": {"rt": -1, "trial_type": "single-stim", "word": "cigar", "stimulus": "<p id=\"stim\">CIGAR</p>", "conditions": [24, 800, "v", 12000], "internal_node_id": "0.0-144.0", "trial": 5, "time_elapsed": 1017327, "serialpos": 1, "key_press": -1, "wordID": 307, "type": "PRES_VIS", "trial_index": 198}, "uniqueid": "MTK2971:35USIKEBNSN2FBZYCTHJG8Q9UR4N6L", "dateTime": 1519604521243}, {"current_trial": 199, "trialdata": {"rt": -1, "trial_type": "single-stim", "word": "football", "stimulus": "<p id=\"stim\">FOOTBALL</p>", "conditions": [24, 800, "v", 12000], "internal_node_id": "0.0-145.0", "trial": 5, "time_elapsed": 1019016, "serialpos": 2, "key_press": -1, "wordID": 590, "type": "PRES_VIS", "trial_index": 199}, "uniqueid": "MTK2971:35USIKEBNSN2FBZYCTHJG8Q9UR4N6L", "dateTime": 1519604522932}, {"current_trial": 200, "trialdata": {"rt": -1, "trial_type": "single-stim", "word": "helmet", "stimulus": "<p id=\"stim\">HELMET</p>", "conditions": [24, 800, "v", 12000], "internal_node_id": "0.0-146.0", "trial": 5, "time_elapsed": 1020704, "serialpos": 3, "key_press": -1, "wordID": 701, "type": "PRES_VIS", "trial_index": 200}, "uniqueid": "MTK2971:35USIKEBNSN2FBZYCTHJG8Q9UR4N6L", "dateTime": 1519604524620}, {"current_trial": 201, "trialdata": {"rt": -1, "trial_type": "single-stim", "word": "bike", "stimulus": "<p id=\"stim\">BIKE</p>", "conditions": [24, 800, "v", 12000], "internal_node_id": "0.0-147.0", "trial": 5, "time_elapsed": 1022701, "serialpos": 4, "key_press": -1, "wordID": 124, "type": "PRES_VIS", "trial_index": 201}, "uniqueid": "MTK2971:35USIKEBNSN2FBZYCTHJG8Q9UR4N6L", "dateTime": 1519604526617}, {"current_trial": 202, "trialdata": {"rt": -1, "trial_type": "single-stim", "word": "ankle", "stimulus": "<p id=\"stim\">ANKLE</p>", "conditions": [24, 800, "v", 12000], "internal_node_id": "0.0-148.0", "trial": 5, "time_elapsed": 1024459, "serialpos": 5, "key_press": -1, "wordID": 23, "type": "PRES_VIS", "trial_index": 202}, "uniqueid": "MTK2971:35USIKEBNSN2FBZYCTHJG8Q9UR4N6L", "dateTime": 1519604528375}, {"current_trial": 203, "trialdata": {"rt": -1, "trial_type": "single-stim", "word": "leg", "stimulus": "<p id=\"stim\">LEG</p>", "conditions": [24, 800, "v", 12000], "internal_node_id": "0.0-149.0", "trial": 5, "time_elapsed": 1026406, "serialpos": 6, "key_press": -1, "wordID": 808, "type": "PRES_VIS", "trial_index": 203}, "uniqueid": "MTK2971:35USIKEBNSN2FBZYCTHJG8Q9UR4N6L", "dateTime": 1519604530322}, {"current_trial": 204, "trialdata": {"rt": -1, "trial_type": "single-stim", "word": "kleenex", "stimulus": "<p id=\"stim\">KLEENEX</p>", "conditions": [24, 800, "v", 12000], "internal_node_id": "0.0-150.0", "trial": 5, "time_elapsed": 1028235, "serialpos": 7, "key_press": -1, "wordID": 781, "type": "PRES_VIS", "trial_index": 204}, "uniqueid": "MTK2971:35USIKEBNSN2FBZYCTHJG8Q9UR4N6L", "dateTime": 1519604532151}, {"current_trial": 205, "trialdata": {"rt": -1, "trial_type": "single-stim", "word": "message", "stimulus": "<p id=\"stim\">MESSAGE</p>", "conditions": [24, 800, "v", 12000], "internal_node_id": "0.0-151.0", "trial": 5, "time_elapsed": 1030006, "serialpos": 8, "key_press": -1, "wordID": 887, "type": "PRES_VIS", "trial_index": 205}, "uniqueid": "MTK2971:35USIKEBNSN2FBZYCTHJG8Q9UR4N6L", "dateTime": 1519604533922}, {"current_trial": 206, "trialdata": {"rt": -1, "trial_type": "single-stim", "word": "transplant", "stimulus": "<p id=\"stim\">TRANSPLANT</p>", "conditions": [24, 800, "v", 12000], "internal_node_id": "0.0-152.0", "trial": 5, "time_elapsed": 1031876, "serialpos": 9, "key_press": -1, "wordID": 1495, "type": "PRES_VIS", "trial_index": 206}, "uniqueid": "MTK2971:35USIKEBNSN2FBZYCTHJG8Q9UR4N6L", "dateTime": 1519604535792}, {"current_trial": 207, "trialdata": {"rt": -1, "trial_type": "single-stim", "word": "scissors", "stimulus": "<p id=\"stim\">SCISSORS</p>", "conditions": [24, 800, "v", 12000], "internal_node_id": "0.0-153.0", "trial": 5, "time_elapsed": 1033781, "serialpos": 10, "key_press": -1, "wordID": 1249, "type": "PRES_VIS", "trial_index": 207}, "uniqueid": "MTK2971:35USIKEBNSN2FBZYCTHJG8Q9UR4N6L", "dateTime": 1519604537697}, {"current_trial": 208, "trialdata": {"rt": -1, "trial_type": "single-stim", "word": "knife", "stimulus": "<p id=\"stim\">KNIFE</p>", "conditions": [24, 800, "v", 12000], "internal_node_id": "0.0-154.0", "trial": 5, "time_elapsed": 1035532, "serialpos": 11, "key_press": -1, "wordID": 784, "type": "PRES_VIS", "trial_index": 208}, "uniqueid": "MTK2971:35USIKEBNSN2FBZYCTHJG8Q9UR4N6L", "dateTime": 1519604539449}, {"current_trial": 209, "trialdata": {"rt": -1, "trial_type": "single-stim", "word": "crater", "stimulus": "<p id=\"stim\">CRATER</p>", "conditions": [24, 800, "v", 12000], "internal_node_id": "0.0-155.0", "trial": 5, "time_elapsed": 1037479, "serialpos": 12, "key_press": -1, "wordID": 399, "type": "PRES_VIS", "trial_index": 209}, "uniqueid": "MTK2971:35USIKEBNSN2FBZYCTHJG8Q9UR4N6L", "dateTime": 1519604541395}, {"current_trial": 210, "trialdata": {"rt": -1, "trial_type": "single-stim", "word": "donor", "stimulus": "<p id=\"stim\">DONOR</p>", "conditions": [24, 800, "v", 12000], "internal_node_id": "0.0-156.0", "trial": 5, "time_elapsed": 1039228, "serialpos": 13, "key_press": -1, "wordID": 484, "type": "PRES_VIS", "trial_index": 210}, "uniqueid": "MTK2971:35USIKEBNSN2FBZYCTHJG8Q9UR4N6L", "dateTime": 1519604543144}, {"current_trial": 211, "trialdata": {"rt": -1, "trial_type": "single-stim", "word": "gift", "stimulus": "<p id=\"stim\">GIFT</p>", "conditions": [24, 800, "v", 12000], "internal_node_id": "0.0-157.0", "trial": 5, "time_elapsed": 1040952, "serialpos": 14, "key_press": -1, "wordID": 634, "type": "PRES_VIS", "trial_index": 211}, "uniqueid": "MTK2971:35USIKEBNSN2FBZYCTHJG8Q9UR4N6L", "dateTime": 1519604544869}, {"current_trial": 212, "trialdata": {"rt": -1, "trial_type": "single-stim", "word": "rooster", "stimulus": "<p id=\"stim\">ROOSTER</p>", "conditions": [24, 800, "v", 12000], "internal_node_id": "0.0-158.0", "trial": 5, "time_elapsed": 1042822, "serialpos": 15, "key_press": -1, "wordID": 1208, "type": "PRES_VIS", "trial_index": 212}, "uniqueid": "MTK2971:35USIKEBNSN2FBZYCTHJG8Q9UR4N6L", "dateTime": 1519604546738}, {"current_trial": 213, "trialdata": {"rt": -1, "trial_type": "single-stim", "word": "lava", "stimulus": "<p id=\"stim\">LAVA</p>", "conditions": [24, 800, "v", 12000], "internal_node_id": "0.0-159.0", "trial": 5, "time_elapsed": 1044744, "serialpos": 16, "key_press": -1, "wordID": 803, "type": "PRES_VIS", "trial_index": 213}, "uniqueid": "MTK2971:35USIKEBNSN2FBZYCTHJG8Q9UR4N6L", "dateTime": 1519604548660}, {"current_trial": 214, "trialdata": {"rt": -1, "trial_type": "single-stim", "word": "market", "stimulus": "<p id=\"stim\">MARKET</p>", "conditions": [24, 800, "v", 12000], "internal_node_id": "0.0-160.0", "trial": 5, "time_elapsed": 1046352, "serialpos": 17, "key_press": -1, "wordID": 870, "type": "PRES_VIS", "trial_index": 214}, "uniqueid": "MTK2971:35USIKEBNSN2FBZYCTHJG8Q9UR4N6L", "dateTime": 1519604550268}, {"current_trial": 215, "trialdata": {"rt": -1, "trial_type": "single-stim", "word": "actor", "stimulus": "<p id=\"stim\">ACTOR</p>", "conditions": [24, 800, "v", 12000], "internal_node_id": "0.0-161.0", "trial": 5, "time_elapsed": 1048277, "serialpos": 18, "key_press": -1, "wordID": 4, "type": "PRES_VIS", "trial_index": 215}, "uniqueid": "MTK2971:35USIKEBNSN2FBZYCTHJG8Q9UR4N6L", "dateTime": 1519604552193}, {"current_trial": 216, "trialdata": {"rt": -1, "trial_type": "single-stim", "word": "film", "stimulus": "<p id=\"stim\">FILM</p>", "conditions": [24, 800, "v", 12000], "internal_node_id": "0.0-162.0", "trial": 5, "time_elapsed": 1050066, "serialpos": 19, "key_press": -1, "wordID": 564, "type": "PRES_VIS", "trial_index": 216}, "uniqueid": "MTK2971:35USIKEBNSN2FBZYCTHJG8Q9UR4N6L", "dateTime": 1519604553982}, {"current_trial": 217, "trialdata": {"rt": -1, "trial_type": "single-stim", "word": "pudding", "stimulus": "<p id=\"stim\">PUDDING</p>", "conditions": [24, 800, "v", 12000], "internal_node_id": "0.0-163.0", "trial": 5, "time_elapsed": 1052044, "serialpos": 20, "key_press": -1, "wordID": 1138, "type": "PRES_VIS", "trial_index": 217}, "uniqueid": "MTK2971:35USIKEBNSN2FBZYCTHJG8Q9UR4N6L", "dateTime": 1519604555960}, {"current_trial": 218, "trialdata": {"rt": -1, "trial_type": "single-stim", "word": "smog", "stimulus": "<p id=\"stim\">SMOG</p>", "conditions": [24, 800, "v", 12000], "internal_node_id": "0.0-164.0", "trial": 5, "time_elapsed": 1053869, "serialpos": 21, "key_press": -1, "wordID": 1329, "type": "PRES_VIS", "trial_index": 218}, "uniqueid": "MTK2971:35USIKEBNSN2FBZYCTHJG8Q9UR4N6L", "dateTime": 1519604557785}, {"current_trial": 219, "trialdata": {"rt": -1, "trial_type": "single-stim", "word": "daisy", "stimulus": "<p id=\"stim\">DAISY</p>", "conditions": [24, 800, "v", 12000], "internal_node_id": "0.0-165.0", "trial": 5, "time_elapsed": 1055559, "serialpos": 22, "key_press": -1, "wordID": 434, "type": "PRES_VIS", "trial_index": 219}, "uniqueid": "MTK2971:35USIKEBNSN2FBZYCTHJG8Q9UR4N6L", "dateTime": 1519604559475}, {"current_trial": 220, "trialdata": {"rt": -1, "trial_type": "single-stim", "word": "hostess", "stimulus": "<p id=\"stim\">HOSTESS</p>", "conditions": [24, 800, "v", 12000], "internal_node_id": "0.0-166.0", "trial": 5, "time_elapsed": 1057166, "serialpos": 23, "key_press": -1, "wordID": 722, "type": "PRES_VIS", "trial_index": 220}, "uniqueid": "MTK2971:35USIKEBNSN2FBZYCTHJG8Q9UR4N6L", "dateTime": 1519604561082}, {"current_trial": 221, "trialdata": {"rt": -1, "trial_type": "single-stim", "stimulus": "", "internal_node_id": "0.0-167.0-0.0", "time_elapsed": 1059668, "key_press": -1, "type": "PRE_RECALL_DELAY", "trial_index": 221}, "uniqueid": "MTK2971:35USIKEBNSN2FBZYCTHJG8Q9UR4N6L", "dateTime": 1519604563584}, {"current_trial": 222, "trialdata": {"rt": -1000, "trial_type": "single-audio", "stimulus": "/static/audio/400Hz.wav", "internal_node_id": "0.0-168.0", "time_elapsed": 1060170, "key_press": -1, "type": "PRE_RECALL_ALERT", "trial_index": 222}, "uniqueid": "MTK2971:35USIKEBNSN2FBZYCTHJG8Q9UR4N6L", "dateTime": 1519604564086}, {"current_trial": 223, "trialdata": {"rt": [2898, 3787, 5433, 7498, 8746, 9869, 11433, 12542, 14058, 16699, 21576, 48342], "recwords": ["pudding", "smog", "hostess", "football", "helmet", "arm", "elbow", "leg", "ankle", "donor", "hostess", "kleenex"], "key_times": [368, 643, 756, 911, 1035, 1166, 1642, 1813, 2319, 2410, 2506, 2898, 3115, 3305, 3501, 3612, 3787, 4289, 4502, 4571, 4767, 4990, 5181, 5325, 5433, 5810, 5999, 6174, 6322, 6542, 6656, 6848, 6978, 7498, 7984, 8075, 8227, 8384, 8437, 8616, 8746, 9278, 9487, 9573, 9869, 10406, 10609, 10795, 10930, 11108, 11433, 11845, 11947, 12395, 12542, 13124, 13379, 13565, 13739, 13923, 14058, 14396, 14685, 14690, 15429, 15583, 16024, 16190, 16323, 16479, 16699, 20500, 20637, 20826, 20996, 21082, 21293, 21453, 21576, 47163, 47356, 47600, 47756, 47903, 48004, 48247, 48342], "trial_type": "free-recall", "conditions": [24, 800, "v", 12000], "internal_node_id": "0.0-169.0-0.0", "key_presses": [80, 85, 68, 68, 76, 69, 8, 8, 73, 78, 71, 13, 83, 77, 79, 71, 13, 72, 79, 83, 84, 69, 83, 83, 13, 70, 79, 79, 84, 66, 65, 76, 76, 13, 72, 69, 76, 77, 69, 84, 13, 65, 82, 77, 13, 69, 76, 66, 79, 87, 13, 76, 69, 71, 13, 65, 78, 75, 76, 69, 13, 68, 78, 79, 8, 8, 79, 78, 79, 82, 13, 72, 79, 83, 84, 69, 83, 83, 13, 75, 76, 69, 69, 78, 69, 88, 13], "trial": 5, "time_elapsed": 1120174, "type": "FREE_RECALL", "trial_index": 223}, "uniqueid": "MTK2971:35USIKEBNSN2FBZYCTHJG8Q9UR4N6L", "dateTime": 1519604624092}, {"current_trial": 224, "trialdata": {"rt": 1826, "trial_type": "text", "internal_node_id": "0.0-170.0", "time_elapsed": 1124005, "key_press": 13, "type": "INSTRUCTIONS", "trial_index": 224}, "uniqueid": "MTK2971:35USIKEBNSN2FBZYCTHJG8Q9UR4N6L", "dateTime": 1519604627921}, {"current_trial": 225, "trialdata": {"rt": [2165, 3492, 4913, 8482, 9887, 11884], "trial_type": "math-distractor", "key_times": [1760, 1889, 2165, 3380, 3492, 4397, 4812, 4913, 6051, 7403, 8058, 8344, 8482, 9539, 9771, 9887, 11551, 11776, 11884], "responses": ["10", "7", "15", "23", "15", "23"], "num2": [4, 1, 6, 7, 2, 9, 3], "num3": [2, 1, 1, 9, 9, 9, 7], "conditions": [12, 1600, "v", 12000], "internal_node_id": "0.0-171.0", "key_presses": [49, 48, 13, 55, 13, 49, 53, 13, 49, 8, 50, 51, 13, 49, 53, 13, 50, 51, 13], "trial": 6, "time_elapsed": 1138011, "type": "DISTRACTOR", "trial_index": 225, "num1": [4, 5, 8, 7, 4, 5, 6]}, "uniqueid": "MTK2971:35USIKEBNSN2FBZYCTHJG8Q9UR4N6L", "dateTime": 1519604641927}, {"current_trial": 226, "trialdata": {"rt": -1, "trial_type": "single-stim", "stimulus": "<p id=\"stim\">10</p>", "internal_node_id": "0.0-172.0-0.0", "time_elapsed": 1141016, "key_press": -1, "trial_index": 226}, "uniqueid": "MTK2971:35USIKEBNSN2FBZYCTHJG8Q9UR4N6L", "dateTime": 1519604644932}, {"current_trial": 227, "trialdata": {"rt": -1, "trial_type": "single-stim", "stimulus": "<p id=\"stim\">9</p>", "internal_node_id": "0.0-172.0-1.0", "time_elapsed": 1142019, "key_press": -1, "trial_index": 227}, "uniqueid": "MTK2971:35USIKEBNSN2FBZYCTHJG8Q9UR4N6L", "dateTime": 1519604645935}, {"current_trial": 228, "trialdata": {"rt": -1, "trial_type": "single-stim", "stimulus": "<p id=\"stim\">8</p>", "internal_node_id": "0.0-172.0-2.0", "time_elapsed": 1143023, "key_press": -1, "trial_index": 228}, "uniqueid": "MTK2971:35USIKEBNSN2FBZYCTHJG8Q9UR4N6L", "dateTime": 1519604646940}, {"current_trial": 229, "trialdata": {"rt": -1, "trial_type": "single-stim", "stimulus": "<p id=\"stim\">7</p>", "internal_node_id": "0.0-172.0-3.0", "time_elapsed": 1144027, "key_press": -1, "trial_index": 229}, "uniqueid": "MTK2971:35USIKEBNSN2FBZYCTHJG8Q9UR4N6L", "dateTime": 1519604647943}, {"current_trial": 230, "trialdata": {"rt": -1, "trial_type": "single-stim", "stimulus": "<p id=\"stim\">6</p>", "internal_node_id": "0.0-172.0-4.0", "time_elapsed": 1145028, "key_press": -1, "trial_index": 230}, "uniqueid": "MTK2971:35USIKEBNSN2FBZYCTHJG8Q9UR4N6L", "dateTime": 1519604648944}, {"current_trial": 231, "trialdata": {"rt": -1, "trial_type": "single-stim", "stimulus": "<p id=\"stim\">5</p>", "internal_node_id": "0.0-172.0-5.0", "time_elapsed": 1146030, "key_press": -1, "trial_index": 231}, "uniqueid": "MTK2971:35USIKEBNSN2FBZYCTHJG8Q9UR4N6L", "dateTime": 1519604649946}, {"current_trial": 232, "trialdata": {"rt": -1, "trial_type": "single-stim", "stimulus": "<p id=\"stim\">4</p>", "internal_node_id": "0.0-172.0-6.0", "time_elapsed": 1147032, "key_press": -1, "trial_index": 232}, "uniqueid": "MTK2971:35USIKEBNSN2FBZYCTHJG8Q9UR4N6L", "dateTime": 1519604650948}, {"current_trial": 233, "trialdata": {"rt": -1, "trial_type": "single-stim", "stimulus": "<p id=\"stim\">3</p>", "internal_node_id": "0.0-172.0-7.0", "time_elapsed": 1148035, "key_press": -1, "trial_index": 233}, "uniqueid": "MTK2971:35USIKEBNSN2FBZYCTHJG8Q9UR4N6L", "dateTime": 1519604651952}, {"current_trial": 234, "trialdata": {"rt": -1, "trial_type": "single-stim", "stimulus": "<p id=\"stim\">2</p>", "internal_node_id": "0.0-172.0-8.0", "time_elapsed": 1149040, "key_press": -1, "trial_index": 234}, "uniqueid": "MTK2971:35USIKEBNSN2FBZYCTHJG8Q9UR4N6L", "dateTime": 1519604652956}, {"current_trial": 235, "trialdata": {"rt": -1, "trial_type": "single-stim", "stimulus": "<p id=\"stim\">1</p>", "internal_node_id": "0.0-172.0-9.0", "time_elapsed": 1150043, "key_press": -1, "trial_index": 235}, "uniqueid": "MTK2971:35USIKEBNSN2FBZYCTHJG8Q9UR4N6L", "dateTime": 1519604653959}, {"current_trial": 236, "trialdata": {"rt": -1, "trial_type": "single-stim", "stimulus": "<p id=\"stim\">+</p>", "internal_node_id": "0.0-173.0-0.0", "time_elapsed": 1151547, "key_press": -1, "type": "FIXATION", "trial_index": 236}, "uniqueid": "MTK2971:35USIKEBNSN2FBZYCTHJG8Q9UR4N6L", "dateTime": 1519604655463}, {"current_trial": 237, "trialdata": {"rt": -1, "trial_type": "single-stim", "word": "crab", "stimulus": "<p id=\"stim\">CRAB</p>", "conditions": [12, 1600, "v", 12000], "internal_node_id": "0.0-174.0", "trial": 6, "time_elapsed": 1153152, "serialpos": 0, "key_press": -1, "wordID": 396, "type": "PRES_VIS", "trial_index": 237}, "uniqueid": "MTK2971:35USIKEBNSN2FBZYCTHJG8Q9UR4N6L", "dateTime": 1519604657068}, {"current_trial": 238, "trialdata": {"rt": -1, "trial_type": "single-stim", "word": "flask", "stimulus": "<p id=\"stim\">FLASK</p>", "conditions": [12, 1600, "v", 12000], "internal_node_id": "0.0-175.0", "trial": 6, "time_elapsed": 1155776, "serialpos": 1, "key_press": -1, "wordID": 575, "type": "PRES_VIS", "trial_index": 238}, "uniqueid": "MTK2971:35USIKEBNSN2FBZYCTHJG8Q9UR4N6L", "dateTime": 1519604659692}, {"current_trial": 239, "trialdata": {"rt": -1, "trial_type": "single-stim", "word": "cricket", "stimulus": "<p id=\"stim\">CRICKET</p>", "conditions": [12, 1600, "v", 12000], "internal_node_id": "0.0-176.0", "trial": 6, "time_elapsed": 1158342, "serialpos": 2, "key_press": -1, "wordID": 407, "type": "PRES_VIS", "trial_index": 239}, "uniqueid": "MTK2971:35USIKEBNSN2FBZYCTHJG8Q9UR4N6L", "dateTime": 1519604662258}, {"current_trial": 240, "trialdata": {"rt": -1, "trial_type": "single-stim", "word": "cyclone", "stimulus": "<p id=\"stim\">CYCLONE</p>", "conditions": [12, 1600, "v", 12000], "internal_node_id": "0.0-177.0", "trial": 6, "time_elapsed": 1160817, "serialpos": 3, "key_press": -1, "wordID": 430, "type": "PRES_VIS", "trial_index": 240}, "uniqueid": "MTK2971:35USIKEBNSN2FBZYCTHJG8Q9UR4N6L", "dateTime": 1519604664733}, {"current_trial": 241, "trialdata": {"rt": -1, "trial_type": "single-stim", "word": "primate", "stimulus": "<p id=\"stim\">PRIMATE</p>", "conditions": [12, 1600, "v", 12000], "internal_node_id": "0.0-178.0", "trial": 6, "time_elapsed": 1163343, "serialpos": 4, "key_press": -1, "wordID": 1122, "type": "PRES_VIS", "trial_index": 241}, "uniqueid": "MTK2971:35USIKEBNSN2FBZYCTHJG8Q9UR4N6L", "dateTime": 1519604667259}, {"current_trial": 242, "trialdata": {"rt": -1, "trial_type": "single-stim", "word": "cobra", "stimulus": "<p id=\"stim\">COBRA</p>", "conditions": [12, 1600, "v", 12000], "internal_node_id": "0.0-179.0", "trial": 6, "time_elapsed": 1166049, "serialpos": 5, "key_press": -1, "wordID": 335, "type": "PRES_VIS", "trial_index": 242}, "uniqueid": "MTK2971:35USIKEBNSN2FBZYCTHJG8Q9UR4N6L", "dateTime": 1519604669965}, {"current_trial": 243, "trialdata": {"rt": -1, "trial_type": "single-stim", "word": "journal", "stimulus": "<p id=\"stim\">JOURNAL</p>", "conditions": [12, 1600, "v", 12000], "internal_node_id": "0.0-180.0", "trial": 6, "time_elapsed": 1168622, "serialpos": 6, "key_press": -1, "wordID": 759, "type": "PRES_VIS", "trial_index": 243}, "uniqueid": "MTK2971:35USIKEBNSN2FBZYCTHJG8Q9UR4N6L", "dateTime": 1519604672538}, {"current_trial": 244, "trialdata": {"rt": -1, "trial_type": "single-stim", "word": "radish", "stimulus": "<p id=\"stim\">RADISH</p>", "conditions": [12, 1600, "v", 12000], "internal_node_id": "0.0-181.0", "trial": 6, "time_elapsed": 1171413, "serialpos": 7, "key_press": -1, "wordID": 1157, "type": "PRES_VIS", "trial_index": 244}, "uniqueid": "MTK2971:35USIKEBNSN2FBZYCTHJG8Q9UR4N6L", "dateTime": 1519604675329}, {"current_trial": 245, "trialdata": {"rt": -1, "trial_type": "single-stim", "word": "dolphin", "stimulus": "<p id=\"stim\">DOLPHIN</p>", "conditions": [12, 1600, "v", 12000], "internal_node_id": "0.0-182.0", "trial": 6, "time_elapsed": 1174016, "serialpos": 8, "key_press": -1, "wordID": 482, "type": "PRES_VIS", "trial_index": 245}, "uniqueid": "MTK2971:35USIKEBNSN2FBZYCTHJG8Q9UR4N6L", "dateTime": 1519604677932}, {"current_trial": 246, "trialdata": {"rt": -1, "trial_type": "single-stim", "word": "cellar", "stimulus": "<p id=\"stim\">CELLAR</p>", "conditions": [12, 1600, "v", 12000], "internal_node_id": "0.0-183.0", "trial": 6, "time_elapsed": 1176772, "serialpos": 9, "key_press": -1, "wordID": 266, "type": "PRES_VIS", "trial_index": 246}, "uniqueid": "MTK2971:35USIKEBNSN2FBZYCTHJG8Q9UR4N6L", "dateTime": 1519604680688}, {"current_trial": 247, "trialdata": {"rt": -1, "trial_type": "single-stim", "word": "basement", "stimulus": "<p id=\"stim\">BASEMENT</p>", "conditions": [12, 1600, "v", 12000], "internal_node_id": "0.0-184.0", "trial": 6, "time_elapsed": 1179317, "serialpos": 10, "key_press": -1, "wordID": 93, "type": "PRES_VIS", "trial_index": 247}, "uniqueid": "MTK2971:35USIKEBNSN2FBZYCTHJG8Q9UR4N6L", "dateTime": 1519604683233}, {"current_trial": 248, "trialdata": {"rt": -1, "trial_type": "single-stim", "word": "beaker", "stimulus": "<p id=\"stim\">BEAKER</p>", "conditions": [12, 1600, "v", 12000], "internal_node_id": "0.0-185.0", "trial": 6, "time_elapsed": 1182021, "serialpos": 11, "key_press": -1, "wordID": 103, "type": "PRES_VIS", "trial_index": 248}, "uniqueid": "MTK2971:35USIKEBNSN2FBZYCTHJG8Q9UR4N6L", "dateTime": 1519604685937}, {"current_trial": 249, "trialdata": {"rt": -1, "trial_type": "single-stim", "stimulus": "", "internal_node_id": "0.0-186.0-0.0", "time_elapsed": 1184295, "key_press": -1, "type": "PRE_RECALL_DELAY", "trial_index": 249}, "uniqueid": "MTK2971:35USIKEBNSN2FBZYCTHJG8Q9UR4N6L", "dateTime": 1519604688211}, {"current_trial": 250, "trialdata": {"rt": -1000, "trial_type": "single-audio", "stimulus": "/static/audio/400Hz.wav", "internal_node_id": "0.0-187.0", "time_elapsed": 1184796, "key_press": -1, "type": "PRE_RECALL_ALERT", "trial_index": 250}, "uniqueid": "MTK2971:35USIKEBNSN2FBZYCTHJG8Q9UR4N6L", "dateTime": 1519604688712}, {"current_trial": 251, "trialdata": {"rt": [1502, 3176, 4786, 6302, 7895, 12160, 25590], "recwords": ["beaker", "cricket", "crab", "cellar", "basement", "primate", "journal"], "key_times": [465, 556, 751, 886, 1019, 1203, 1502, 1978, 2364, 2492, 2615, 2723, 2862, 3060, 3176, 3652, 4142, 4368, 4478, 4786, 5059, 5295, 5415, 5565, 5689, 5915, 6302, 6795, 6901, 6992, 7197, 7335, 7394, 7515, 7720, 7895, 10174, 10464, 11252, 11427, 11655, 11816, 11943, 12160, 23941, 24163, 24340, 24477, 24644, 24787, 24934, 25590], "trial_type": "free-recall", "conditions": [12, 1600, "v", 12000], "internal_node_id": "0.0-188.0-0.0", "key_presses": [66, 69, 65, 75, 69, 82, 13, 67, 82, 73, 67, 75, 69, 84, 13, 67, 82, 65, 66, 13, 67, 69, 76, 76, 65, 82, 13, 66, 65, 83, 69, 77, 69, 78, 84, 13, 80, 82, 73, 77, 65, 84, 69, 13, 74, 79, 85, 82, 78, 65, 76, 13], "trial": 6, "time_elapsed": 1244798, "type": "FREE_RECALL", "trial_index": 251}, "uniqueid": "MTK2971:35USIKEBNSN2FBZYCTHJG8Q9UR4N6L", "dateTime": 15196