{"assignmentId": "31LM9EDVOMZE36E5WCB8PCVEGWJNJK", "workerId": "MTK2931", "questiondata": {"origin": "United States", "strat-rehearsal": "1", "marital": "Married/Domestic Partnership", "education": "High school diploma", "ethnicity": "Not Hispanic", "color_depth": 24, "distracted": "No", "wrote-notes": "No", "strat-other": "", "screen_width": 1920, "avail_screen_width": 1920, "avail_screen_height": 1040, "strat-image": "20", "language": "enlish", "gender": "Male", "age": "37", "gender_other": "", "race": ["White"], "strat-categorize": "87", "pixel_depth": 24, "strat-spatial": "8", "strat-story": "1", "race_other": "", "screen_height": 1080}, "bonus": 0, "hitId": "37SDSEDIN99KIYD3AJBHEVDDC8918B", "counterbalance": 2476, "useragent": "Mozilla/5.0 (Windows NT 10.0; Win64; x64) AppleWebKit/537.36 (KHTML, like Gecko) Chrome/64.0.3282.167 Safari/537.36", "eventdata": [{"eventtype": "initialized", "interval": 0, "value": null, "timestamp": 1519590853795}, {"eventtype": "window_resize", "interval": 0, "value": [1920, 1033], "timestamp": 1519590853795}, {"eventtype": "focus", "interval": 10396, "value": "off", "timestamp": 1519590864191}, {"eventtype": "focus", "interval": 2826, "value": "on", "timestamp": 1519590867017}, {"eventtype": "window_resize", "interval": 1727, "value": [1920, 989], "timestamp": 1519590868744}, {"eventtype": "window_resize", "interval": 1294, "value": [1920, 1033], "timestamp": 1519590870038}, {"eventtype": "window_resize", "interval": 740, "value": [1920, 989], "timestamp": 1519590870778}, {"eventtype": "focus", "interval": 4179, "value": "off", "timestamp": 1519590874957}, {"eventtype": "focus", "interval": 1900, "value": "on", "timestamp": 1519590876857}, {"eventtype": "focus", "interval": 1414, "value": "off", "timestamp": 1519590878271}, {"eventtype": "focus", "interval": 6975, "value": "on", "timestamp": 1519590885246}], "data": [{"current_trial": 0, "trialdata": {"rt": 5511, "trial_type": "text", "internal_node_id": "0.0-0.0", "time_elapsed": 5511, "key_press": 32, "type": "INSTRUCTIONS", "trial_index": 0}, "uniqueid": "MTK2931:31LM9EDVOMZE36E5WCB8PCVEGWJNJK", "dateTime": 1519590886540}, {"current_trial": 1, "trialdata": {"rt": 28294, "trial_type": "text", "internal_node_id": "0.0-1.0", "time_elapsed": 33808, "key_press": 32, "type": "INSTRUCTIONS", "trial_index": 1}, "uniqueid": "MTK2931:31LM9EDVOMZE36E5WCB8PCVEGWJNJK", "dateTime": 1519590914836}, {"current_trial": 2, "trialdata": {"rt": [11437], "trial_type": "audio-test", "responses": ["ocean"], "internal_node_id": "0.0-2.0", "time_elapsed": 45306, "type": "AUDIO_TEST", "trial_index": 2}, "uniqueid": "MTK2931:31LM9EDVOMZE36E5WCB8PCVEGWJNJK", "dateTime": 1519590926334}, {"current_trial": 3, "trialdata": {"rt": [7753], "trial_type": "audio-test", "responses": ["crystal"], "internal_node_id": "0.0-3.0", "time_elapsed": 53061, "type": "AUDIO_TEST", "trial_index": 3}, "uniqueid": "MTK2931:31LM9EDVOMZE36E5WCB8PCVEGWJNJK", "dateTime": 1519590934089}, {"current_trial": 4, "trialdata": {"rt": [6128], "trial_type": "audio-test", "responses": ["spice"], "internal_node_id": "0.0-4.0", "time_elapsed": 59192, "type": "AUDIO_TEST", "trial_index": 4}, "uniqueid": "MTK2931:31LM9EDVOMZE36E5WCB8PCVEGWJNJK", "dateTime": 1519590940220}, {"current_trial": 5, "trialdata": {"rt": 36157, "trial_type": "survey-text", "responses": "{\"Q0\":\"1\",\"Q1\":\"8\",\"Q2\":\"5\"}", "internal_node_id": "0.0-5.0", "time_elapsed": 96101, "type": "SLEEP_SURVEY", "trial_index": 5}, "uniqueid": "MTK2931:31LM9EDVOMZE36E5WCB8PCVEGWJNJK", "dateTime": 1519590977129}, {"current_trial": 6, "trialdata": {"rt": 53511, "trial_type": "text", "internal_node_id": "0.0-6.0", "time_elapsed": 150613, "key_press": 13, "type": "INSTRUCTIONS", "trial_index": 6}, "uniqueid": "MTK2931:31LM9EDVOMZE36E5WCB8PCVEGWJNJK", "dateTime": 1519591031641}, {"current_trial": 7, "trialdata": {"rt": 19972, "trial_type": "text", "internal_node_id": "0.0-7.0", "time_elapsed": 171085, "key_press": 13, "type": "INSTRUCTIONS", "trial_index": 7}, "uniqueid": "MTK2931:31LM9EDVOMZE36E5WCB8PCVEGWJNJK", "dateTime": 1519591052113}, {"current_trial": 8, "trialdata": {"rt": 15104, "trial_type": "text", "internal_node_id": "0.0-8.0", "time_elapsed": 186692, "key_press": 13, "type": "INSTRUCTIONS", "trial_index": 8}, "uniqueid": "MTK2931:31LM9EDVOMZE36E5WCB8PCVEGWJNJK", "dateTime": 1519591067720}, {"current_trial": 9, "trialdata": {"rt": [3859, 7398, 9503, 12337, 16694], "trial_type": "math-distractor", "key_times": [3062, 3226, 3859, 6595, 6930, 7398, 8890, 9175, 9503, 11224, 11702, 12337, 13662, 14043, 15464, 15717, 16694], "responses": ["10", "15", "14", "16", "15"], "num2": [1, 2, 6, 1, 6, 6], "num3": [1, 8, 5, 9, 4, 4], "conditions": [18, 1200, "a", 18000], "internal_node_id": "0.0-9.0", "key_presses": [49, 48, 13, 49, 53, 13, 49, 52, 13, 49, 54, 13, 49, 52, 8, 53, 13], "trial": 0, "time_elapsed": 205697, "type": "DISTRACTOR", "trial_index": 9, "num1": [8, 5, 3, 6, 5, 5]}, "uniqueid": "MTK2931:31LM9EDVOMZE36E5WCB8PCVEGWJNJK", "dateTime": 1519591086725}, {"current_trial": 10, "trialdata": {"rt": -1, "trial_type": "single-stim", "stimulus": "<p id=\"stim\">10</p>", "internal_node_id": "0.0-10.0-0.0", "time_elapsed": 208699, "key_press": -1, "trial_index": 10}, "uniqueid": "MTK2931:31LM9EDVOMZE36E5WCB8PCVEGWJNJK", "dateTime": 1519591089727}, {"current_trial": 11, "trialdata": {"rt": -1, "trial_type": "single-stim", "stimulus": "<p id=\"stim\">9</p>", "internal_node_id": "0.0-10.0-1.0", "time_elapsed": 209700, "key_press": -1, "trial_index": 11}, "uniqueid": "MTK2931:31LM9EDVOMZE36E5WCB8PCVEGWJNJK", "dateTime": 1519591090728}, {"current_trial": 12, "trialdata": {"rt": -1, "trial_type": "single-stim", "stimulus": "<p id=\"stim\">8</p>", "internal_node_id": "0.0-10.0-2.0", "time_elapsed": 210701, "key_press": -1, "trial_index": 12}, "uniqueid": "MTK2931:31LM9EDVOMZE36E5WCB8PCVEGWJNJK", "dateTime": 1519591091729}, {"current_trial": 13, "trialdata": {"rt": -1, "trial_type": "single-stim", "stimulus": "<p id=\"stim\">7</p>", "internal_node_id": "0.0-10.0-3.0", "time_elapsed": 211702, "key_press": -1, "trial_index": 13}, "uniqueid": "MTK2931:31LM9EDVOMZE36E5WCB8PCVEGWJNJK", "dateTime": 1519591092731}, {"current_trial": 14, "trialdata": {"rt": -1, "trial_type": "single-stim", "stimulus": "<p id=\"stim\">6</p>", "internal_node_id": "0.0-10.0-4.0", "time_elapsed": 212704, "key_press": -1, "trial_index": 14}, "uniqueid": "MTK2931:31LM9EDVOMZE36E5WCB8PCVEGWJNJK", "dateTime": 1519591093732}, {"current_trial": 15, "trialdata": {"rt": -1, "trial_type": "single-stim", "stimulus": "<p id=\"stim\">5</p>", "internal_node_id": "0.0-10.0-5.0", "time_elapsed": 213705, "key_press": -1, "trial_index": 15}, "uniqueid": "MTK2931:31LM9EDVOMZE36E5WCB8PCVEGWJNJK", "dateTime": 1519591094733}, {"current_trial": 16, "trialdata": {"rt": -1, "trial_type": "single-stim", "stimulus": "<p id=\"stim\">4</p>", "internal_node_id": "0.0-10.0-6.0", "time_elapsed": 214707, "key_press": -1, "trial_index": 16}, "uniqueid": "MTK2931:31LM9EDVOMZE36E5WCB8PCVEGWJNJK", "dateTime": 1519591095735}, {"current_trial": 17, "trialdata": {"rt": -1, "trial_type": "single-stim", "stimulus": "<p id=\"stim\">3</p>", "internal_node_id": "0.0-10.0-7.0", "time_elapsed": 215708, "key_press": -1, "trial_index": 17}, "uniqueid": "MTK2931:31LM9EDVOMZE36E5WCB8PCVEGWJNJK", "dateTime": 1519591096736}, {"current_trial": 18, "trialdata": {"rt": -1, "trial_type": "single-stim", "stimulus": "<p id=\"stim\">2</p>", "internal_node_id": "0.0-10.0-8.0", "time_elapsed": 216710, "key_press": -1, "trial_index": 18}, "uniqueid": "MTK2931:31LM9EDVOMZE36E5WCB8PCVEGWJNJK", "dateTime": 1519591097738}, {"current_trial": 19, "trialdata": {"rt": -1, "trial_type": "single-stim", "stimulus": "<p id=\"stim\">1</p>", "internal_node_id": "0.0-10.0-9.0", "time_elapsed": 217710, "key_press": -1, "trial_index": 19}, "uniqueid": "MTK2931:31LM9EDVOMZE36E5WCB8PCVEGWJNJK", "dateTime": 1519591098738}, {"current_trial": 20, "trialdata": {"rt": -1, "trial_type": "single-stim", "stimulus": "<p id=\"stim\">+</p>", "internal_node_id": "0.0-11.0-0.0", "time_elapsed": 219212, "key_press": -1, "type": "FIXATION", "trial_index": 20}, "uniqueid": "MTK2931:31LM9EDVOMZE36E5WCB8PCVEGWJNJK", "dateTime": 1519591100240}, {"current_trial": 21, "trialdata": {"rt": -1000, "trial_type": "single-audio", "word": "leopard", "stimulus": "/static/audio/wordpool/LEOPARD.wav", "conditions": [18, 1200, "a", 18000], "internal_node_id": "0.0-12.0", "trial": 0, "time_elapsed": 221291, "serialpos": 0, "key_press": -1, "wordID": 811, "type": "PRES_AUD", "trial_index": 21}, "uniqueid": "MTK2931:31LM9EDVOMZE36E5WCB8PCVEGWJNJK", "dateTime": 1519591102319}, {"current_trial": 22, "trialdata": {"rt": -1000, "trial_type": "single-audio", "word": "lion", "stimulus": "/static/audio/wordpool/LION.wav", "conditions": [18, 1200, "a", 18000], "internal_node_id": "0.0-13.0", "trial": 0, "time_elapsed": 223522, "serialpos": 1, "key_press": -1, "wordID": 826, "type": "PRES_AUD", "trial_index": 22}, "uniqueid": "MTK2931:31LM9EDVOMZE36E5WCB8PCVEGWJNJK", "dateTime": 1519591104551}, {"current_trial": 23, "trialdata": {"rt": -1000, "trial_type": "single-audio", "word": "zipper", "stimulus": "/static/audio/wordpool/ZIPPER.wav", "conditions": [18, 1200, "a", 18000], "internal_node_id": "0.0-14.0", "trial": 0, "time_elapsed": 225673, "serialpos": 2, "key_press": -1, "wordID": 1635, "type": "PRES_AUD", "trial_index": 23}, "uniqueid": "MTK2931:31LM9EDVOMZE36E5WCB8PCVEGWJNJK", "dateTime": 1519591106701}, {"current_trial": 24, "trialdata": {"rt": -1000, "trial_type": "single-audio", "word": "stone", "stimulus": "/static/audio/wordpool/STONE.wav", "conditions": [18, 1200, "a", 18000], "internal_node_id": "0.0-15.0", "trial": 0, "time_elapsed": 227764, "serialpos": 3, "key_press": -1, "wordID": 1384, "type": "PRES_AUD", "trial_index": 24}, "uniqueid": "MTK2931:31LM9EDVOMZE36E5WCB8PCVEGWJNJK", "dateTime": 1519591108792}, {"current_trial": 25, "trialdata": {"rt": -1000, "trial_type": "single-audio", "word": "casket", "stimulus": "/static/audio/wordpool/CASKET.wav", "conditions": [18, 1200, "a", 18000], "internal_node_id": "0.0-16.0", "trial": 0, "time_elapsed": 229948, "serialpos": 4, "key_press": -1, "wordID": 254, "type": "PRES_AUD", "trial_index": 25}, "uniqueid": "MTK2931:31LM9EDVOMZE36E5WCB8PCVEGWJNJK", "dateTime": 1519591110976}, {"current_trial": 26, "trialdata": {"rt": -1000, "trial_type": "single-audio", "word": "match", "stimulus": "/static/audio/wordpool/MATCH.wav", "conditions": [18, 1200, "a", 18000], "internal_node_id": "0.0-17.0", "trial": 0, "time_elapsed": 232116, "serialpos": 5, "key_press": -1, "wordID": 877, "type": "PRES_AUD", "trial_index": 26}, "uniqueid": "MTK2931:31LM9EDVOMZE36E5WCB8PCVEGWJNJK", "dateTime": 1519591113144}, {"current_trial": 27, "trialdata": {"rt": -1000, "trial_type": "single-audio", "word": "chemist", "stimulus": "/static/audio/wordpool/CHEMIST.wav", "conditions": [18, 1200, "a", 18000], "internal_node_id": "0.0-18.0", "trial": 0, "time_elapsed": 234334, "serialpos": 6, "key_press": -1, "wordID": 291, "type": "PRES_AUD", "trial_index": 27}, "uniqueid": "MTK2931:31LM9EDVOMZE36E5WCB8PCVEGWJNJK", "dateTime": 1519591115362}, {"current_trial": 28, "trialdata": {"rt": -1000, "trial_type": "single-audio", "word": "arm", "stimulus": "/static/audio/wordpool/ARM.wav", "conditions": [18, 1200, "a", 18000], "internal_node_id": "0.0-19.0", "trial": 0, "time_elapsed": 236443, "serialpos": 7, "key_press": -1, "wordID": 37, "type": "PRES_AUD", "trial_index": 28}, "uniqueid": "MTK2931:31LM9EDVOMZE36E5WCB8PCVEGWJNJK", "dateTime": 1519591117471}, {"current_trial": 29, "trialdata": {"rt": -1000, "trial_type": "single-audio", "word": "silk", "stimulus": "/static/audio/wordpool/SILK.wav", "conditions": [18, 1200, "a", 18000], "internal_node_id": "0.0-20.0", "trial": 0, "time_elapsed": 238671, "serialpos": 8, "key_press": -1, "wordID": 1306, "type": "PRES_AUD", "trial_index": 29}, "uniqueid": "MTK2931:31LM9EDVOMZE36E5WCB8PCVEGWJNJK", "dateTime": 1519591119699}, {"current_trial": 30, "trialdata": {"rt": -1000, "trial_type": "single-audio", "word": "stallion", "stimulus": "/static/audio/wordpool/STALLION.wav", "conditions": [18, 1200, "a", 18000], "internal_node_id": "0.0-21.0", "trial": 0, "time_elapsed": 240849, "serialpos": 9, "key_press": -1, "wordID": 1368, "type": "PRES_AUD", "trial_index": 30}, "uniqueid": "MTK2931:31LM9EDVOMZE36E5WCB8PCVEGWJNJK", "dateTime": 1519591121877}, {"current_trial": 31, "trialdata": {"rt": -1000, "trial_type": "single-audio", "word": "bucket", "stimulus": "/static/audio/wordpool/BUCKET.wav", "conditions": [18, 1200, "a", 18000], "internal_node_id": "0.0-22.0", "trial": 0, "time_elapsed": 243242, "serialpos": 10, "key_press": -1, "wordID": 183, "type": "PRES_AUD", "trial_index": 31}, "uniqueid": "MTK2931:31LM9EDVOMZE36E5WCB8PCVEGWJNJK", "dateTime": 1519591124270}, {"current_trial": 32, "trialdata": {"rt": -1000, "trial_type": "single-audio", "word": "napkin", "stimulus": "/static/audio/wordpool/NAPKIN.wav", "conditions": [18, 1200, "a", 18000], "internal_node_id": "0.0-23.0", "trial": 0, "time_elapsed": 245577, "serialpos": 11, "key_press": -1, "wordID": 936, "type": "PRES_AUD", "trial_index": 32}, "uniqueid": "MTK2931:31LM9EDVOMZE36E5WCB8PCVEGWJNJK", "dateTime": 1519591126606}, {"current_trial": 33, "trialdata": {"rt": -1000, "trial_type": "single-audio", "word": "blade", "stimulus": "/static/audio/wordpool/BLADE.wav", "conditions": [18, 1200, "a", 18000], "internal_node_id": "0.0-24.0", "trial": 0, "time_elapsed": 247883, "serialpos": 12, "key_press": -1, "wordID": 133, "type": "PRES_AUD", "trial_index": 33}, "uniqueid": "MTK2931:31LM9EDVOMZE36E5WCB8PCVEGWJNJK", "dateTime": 1519591128911}, {"current_trial": 34, "trialdata": {"rt": -1000, "trial_type": "single-audio", "word": "mop", "stimulus": "/static/audio/wordpool/MOP.wav", "conditions": [18, 1200, "a", 18000], "internal_node_id": "0.0-25.0", "trial": 0, "time_elapsed": 250269, "serialpos": 13, "key_press": -1, "wordID": 915, "type": "PRES_AUD", "trial_index": 34}, "uniqueid": "MTK2931:31LM9EDVOMZE36E5WCB8PCVEGWJNJK", "dateTime": 1519591131297}, {"current_trial": 35, "trialdata": {"rt": -1000, "trial_type": "single-audio", "word": "passage", "stimulus": "/static/audio/wordpool/PASSAGE.wav", "conditions": [18, 1200, "a", 18000], "internal_node_id": "0.0-26.0", "trial": 0, "time_elapsed": 252422, "serialpos": 14, "key_press": -1, "wordID": 1018, "type": "PRES_AUD", "trial_index": 35}, "uniqueid": "MTK2931:31LM9EDVOMZE36E5WCB8PCVEGWJNJK", "dateTime": 1519591133450}, {"current_trial": 36, "trialdata": {"rt": -1000, "trial_type": "single-audio", "word": "truck", "stimulus": "/static/audio/wordpool/TRUCK.wav", "conditions": [18, 1200, "a", 18000], "internal_node_id": "0.0-27.0", "trial": 0, "time_elapsed": 254484, "serialpos": 15, "key_press": -1, "wordID": 1511, "type": "PRES_AUD", "trial_index": 36}, "uniqueid": "MTK2931:31LM9EDVOMZE36E5WCB8PCVEGWJNJK", "dateTime": 1519591135512}, {"current_trial": 37, "trialdata": {"rt": -1000, "trial_type": "single-audio", "word": "breast", "stimulus": "/static/audio/wordpool/BREAST.wav", "conditions": [18, 1200, "a", 18000], "internal_node_id": "0.0-28.0", "trial": 0, "time_elapsed": 256546, "serialpos": 16, "key_press": -1, "wordID": 170, "type": "PRES_AUD", "trial_index": 37}, "uniqueid": "MTK2931:31LM9EDVOMZE36E5WCB8PCVEGWJNJK", "dateTime": 1519591137574}, {"current_trial": 38, "trialdata": {"rt": -1000, "trial_type": "single-audio", "word": "valley", "stimulus": "/static/audio/wordpool/VALLEY.wav", "conditions": [18, 1200, "a", 18000], "internal_node_id": "0.0-29.0", "trial": 0, "time_elapsed": 258705, "serialpos": 17, "key_press": -1, "wordID": 1544, "type": "PRES_AUD", "trial_index": 38}, "uniqueid": "MTK2931:31LM9EDVOMZE36E5WCB8PCVEGWJNJK", "dateTime": 1519591139733}, {"current_trial": 39, "trialdata": {"rt": -1, "trial_type": "single-stim", "stimulus": "", "internal_node_id": "0.0-30.0-0.0", "time_elapsed": 260097, "key_press": -1, "type": "PRE_RECALL_DELAY", "trial_index": 39}, "uniqueid": "MTK2931:31LM9EDVOMZE36E5WCB8PCVEGWJNJK", "dateTime": 1519591141125}, {"current_trial": 40, "trialdata": {"rt": -1000, "trial_type": "single-audio", "stimulus": "/static/audio/400Hz.wav", "internal_node_id": "0.0-31.0", "time_elapsed": 260606, "key_press": -1, "type": "PRE_RECALL_ALERT", "trial_index": 40}, "uniqueid": "MTK2931:31LM9EDVOMZE36E5WCB8PCVEGWJNJK", "dateTime": 1519591141634}, {"current_trial": 41, "trialdata": {"rt": [3007, 8975, 11163, 12766, 16328, 18756, 20490, 23870, 35088], "recwords": ["mop", "casket", "valley", "lion", "bucket", "stone", "chemist", "leopard", "stallion"], "key_times": [2289, 2535, 2767, 3007, 4097, 4201, 4416, 5093, 5631, 5782, 6422, 6780, 6881, 7264, 7410, 8141, 8267, 8387, 8975, 9286, 9480, 9671, 9832, 10009, 10571, 11163, 11523, 11754, 11923, 12056, 12766, 13985, 14383, 14542, 14722, 14869, 14981, 15127, 15289, 16328, 17860, 18132, 18267, 18409, 18495, 18756, 19201, 19344, 19449, 19569, 19684, 19801, 19970, 20490, 21075, 21157, 21815, 22007, 22101, 22291, 22721, 23870, 32790, 33021, 33249, 33506, 33662, 33872, 34070, 34650, 35088], "trial_type": "free-recall", "conditions": [18, 1200, "a", 18000], "internal_node_id": "0.0-32.0-0.0", "key_presses": [77, 79, 80, 13, 67, 65, 83, 75, 8, 67, 8, 69, 84, 8, 8, 75, 69, 84, 13, 86, 65, 76, 76, 69, 89, 13, 76, 73, 79, 78, 13, 78, 8, 66, 85, 67, 75, 69, 84, 13, 83, 84, 79, 78, 69, 13, 67, 72, 69, 77, 73, 83, 84, 13, 76, 69, 79, 80, 65, 82, 68, 13, 83, 84, 65, 76, 76, 73, 79, 78, 13], "trial": 0, "time_elapsed": 320608, "type": "FREE_RECALL", "trial_index": 41}, "uniqueid": "MTK2931:31LM9EDVOMZE36E5WCB8PCVEGWJNJK", "dateTime": 1519591201638}, {"current_trial": 42, "trialdata": {"rt": 2111, "trial_type": "text", "internal_node_id": "0.0-33.0", "time_elapsed": 324721, "key_press": 13, "type": "INSTRUCTIONS", "trial_index": 42}, "uniqueid": "MTK2931:31LM9EDVOMZE36E5WCB8PCVEGWJNJK", "dateTime": 1519591205749}, {"current_trial": 43, "trialdata": {"rt": [3020, 5895, 8510, 11594, 14506, 16910], "trial_type": "math-distractor", "key_times": [2737, 3020, 5243, 5538, 5895, 8064, 8214, 8510, 10204, 10490, 11032, 11350, 11594, 14114, 14215, 14506, 16278, 16476, 16910], "responses": ["9", "17", "20", "18", "20", "19"], "num2": [5, 4, 8, 6, 4, 3, 7], "num3": [2, 6, 4, 6, 8, 8, 5], "conditions": [18, 1200, "a", 18000], "internal_node_id": "0.0-34.0", "key_presses": [57, 13, 49, 55, 13, 50, 48, 13, 49, 57, 8, 56, 13, 50, 48, 13, 49, 57, 13], "trial": 1, "time_elapsed": 344724, "type": "DISTRACTOR", "trial_index": 43, "num1": [2, 7, 8, 6, 8, 8, 9]}, "uniqueid": "MTK2931:31LM9EDVOMZE36E5WCB8PCVEGWJNJK", "dateTime": 1519591225752}, {"current_trial": 44, "trialdata": {"rt": -1, "trial_type": "single-stim", "stimulus": "<p id=\"stim\">10</p>", "internal_node_id": "0.0-35.0-0.0", "time_elapsed": 347726, "key_press": -1, "trial_index": 44}, "uniqueid": "MTK2931:31LM9EDVOMZE36E5WCB8PCVEGWJNJK", "dateTime": 1519591228754}, {"current_trial": 45, "trialdata": {"rt": -1, "trial_type": "single-stim", "stimulus": "<p id=\"stim\">9</p>", "internal_node_id": "0.0-35.0-1.0", "time_elapsed": 348729, "key_press": -1, "trial_index": 45}, "uniqueid": "MTK2931:31LM9EDVOMZE36E5WCB8PCVEGWJNJK", "dateTime": 1519591229758}, {"current_trial": 46, "trialdata": {"rt": -1, "trial_type": "single-stim", "stimulus": "<p id=\"stim\">8</p>", "internal_node_id": "0.0-35.0-2.0", "time_elapsed": 349730, "key_press": -1, "trial_index": 46}, "uniqueid": "MTK2931:31LM9EDVOMZE36E5WCB8PCVEGWJNJK", "dateTime": 1519591230758}, {"current_trial": 47, "trialdata": {"rt": -1, "trial_type": "single-stim", "stimulus": "<p id=\"stim\">7</p>", "internal_node_id": "0.0-35.0-3.0", "time_elapsed": 350732, "key_press": -1, "trial_index": 47}, "uniqueid": "MTK2931:31LM9EDVOMZE36E5WCB8PCVEGWJNJK", "dateTime": 1519591231760}, {"current_trial": 48, "trialdata": {"rt": -1, "trial_type": "single-stim", "stimulus": "<p id=\"stim\">6</p>", "internal_node_id": "0.0-35.0-4.0", "time_elapsed": 351732, "key_press": -1, "trial_index": 48}, "uniqueid": "MTK2931:31LM9EDVOMZE36E5WCB8PCVEGWJNJK", "dateTime": 1519591232760}, {"current_trial": 49, "trialdata": {"rt": -1, "trial_type": "single-stim", "stimulus": "<p id=\"stim\">5</p>", "internal_node_id": "0.0-35.0-5.0", "time_elapsed": 352733, "key_press": -1, "trial_index": 49}, "uniqueid": "MTK2931:31LM9EDVOMZE36E5WCB8PCVEGWJNJK", "dateTime": 1519591233761}, {"current_trial": 50, "trialdata": {"rt": -1, "trial_type": "single-stim", "stimulus": "<p id=\"stim\">4</p>", "internal_node_id": "0.0-35.0-6.0", "time_elapsed": 353735, "key_press": -1, "trial_index": 50}, "uniqueid": "MTK2931:31LM9EDVOMZE36E5WCB8PCVEGWJNJK", "dateTime": 1519591234763}, {"current_trial": 51, "trialdata": {"rt": -1, "trial_type": "single-stim", "stimulus": "<p id=\"stim\">3</p>", "internal_node_id": "0.0-35.0-7.0", "time_elapsed": 354737, "key_press": -1, "trial_index": 51}, "uniqueid": "MTK2931:31LM9EDVOMZE36E5WCB8PCVEGWJNJK", "dateTime": 1519591235765}, {"current_trial": 52, "trialdata": {"rt": -1, "trial_type": "single-stim", "stimulus": "<p id=\"stim\">2</p>", "internal_node_id": "0.0-35.0-8.0", "time_elapsed": 355738, "key_press": -1, "trial_index": 52}, "uniqueid": "MTK2931:31LM9EDVOMZE36E5WCB8PCVEGWJNJK", "dateTime": 1519591236766}, {"current_trial": 53, "trialdata": {"rt": -1, "trial_type": "single-stim", "stimulus": "<p id=\"stim\">1</p>", "internal_node_id": "0.0-35.0-9.0", "time_elapsed": 356740, "key_press": -1, "trial_index": 53}, "uniqueid": "MTK2931:31LM9EDVOMZE36E5WCB8PCVEGWJNJK", "dateTime": 1519591237768}, {"current_trial": 54, "trialdata": {"rt": -1, "trial_type": "single-stim", "stimulus": "<p id=\"stim\">+</p>", "internal_node_id": "0.0-36.0-0.0", "time_elapsed": 358240, "key_press": -1, "type": "FIXATION", "trial_index": 54}, "uniqueid": "MTK2931:31LM9EDVOMZE36E5WCB8PCVEGWJNJK", "dateTime": 1519591239268}, {"current_trial": 55, "trialdata": {"rt": -1000, "trial_type": "single-audio", "word": "airplane", "stimulus": "/static/audio/wordpool/AIRPLANE.wav", "conditions": [18, 1200, "a", 18000], "internal_node_id": "0.0-37.0", "trial": 1, "time_elapsed": 360577, "serialpos": 0, "key_press": -1, "wordID": 11, "type": "PRES_AUD", "trial_index": 55}, "uniqueid": "MTK2931:31LM9EDVOMZE36E5WCB8PCVEGWJNJK", "dateTime": 1519591241605}, {"current_trial": 56, "trialdata": {"rt": -1000, "trial_type": "single-audio", "word": "parrot", "stimulus": "/static/audio/wordpool/PARROT.wav", "conditions": [18, 1200, "a", 18000], "internal_node_id": "0.0-38.0", "trial": 1, "time_elapsed": 362762, "serialpos": 1, "key_press": -1, "wordID": 1014, "type": "PRES_AUD", "trial_index": 56}, "uniqueid": "MTK2931:31LM9EDVOMZE36E5WCB8PCVEGWJNJK", "dateTime": 1519591243790}, {"current_trial": 57, "trialdata": {"rt": -1000, "trial_type": "single-audio", "word": "widow", "stimulus": "/static/audio/wordpool/WIDOW.wav", "conditions": [18, 1200, "a", 18000], "internal_node_id": "0.0-39.0", "trial": 1, "time_elapsed": 365051, "serialpos": 2, "key_press": -1, "wordID": 1607, "type": "PRES_AUD", "trial_index": 57}, "uniqueid": "MTK2931:31LM9EDVOMZE36E5WCB8PCVEGWJNJK", "dateTime": 1519591246079}, {"current_trial": 58, "trialdata": {"rt": -1000, "trial_type": "single-audio", "word": "cocoon", "stimulus": "/static/audio/wordpool/COCOON.wav", "conditions": [18, 1200, "a", 18000], "internal_node_id": "0.0-40.0", "trial": 1, "time_elapsed": 367378, "serialpos": 3, "key_press": -1, "wordID": 338, "type": "PRES_AUD", "trial_index": 58}, "uniqueid": "MTK2931:31LM9EDVOMZE36E5WCB8PCVEGWJNJK", "dateTime": 1519591248406}, {"current_trial": 59, "trialdata": {"rt": -1000, "trial_type": "single-audio", "word": "termite", "stimulus": "/static/audio/wordpool/TERMITE.wav", "conditions": [18, 1200, "a", 18000], "internal_node_id": "0.0-41.0", "trial": 1, "time_elapsed": 369729, "serialpos": 4, "key_press": -1, "wordID": 1450, "type": "PRES_AUD", "trial_index": 59}, "uniqueid": "MTK2931:31LM9EDVOMZE36E5WCB8PCVEGWJNJK", "dateTime": 1519591250757}, {"current_trial": 60, "trialdata": {"rt": -1000, "trial_type": "single-audio", "word": "brandy", "stimulus": "/static/audio/wordpool/BRANDY.wav", "conditions": [18, 1200, "a", 18000], "internal_node_id": "0.0-42.0", "trial": 1, "time_elapsed": 371760, "serialpos": 5, "key_press": -1, "wordID": 168, "type": "PRES_AUD", "trial_index": 60}, "uniqueid": "MTK2931:31LM9EDVOMZE36E5WCB8PCVEGWJNJK", "dateTime": 1519591252788}, {"current_trial": 61, "trialdata": {"rt": -1000, "trial_type": "single-audio", "word": "sister", "stimulus": "/static/audio/wordpool/SISTER.wav", "conditions": [18, 1200, "a", 18000], "internal_node_id": "0.0-43.0", "trial": 1, "time_elapsed": 374080, "serialpos": 6, "key_press": -1, "wordID": 1311, "type": "PRES_AUD", "trial_index": 61}, "uniqueid": "MTK2931:31LM9EDVOMZE36E5WCB8PCVEGWJNJK", "dateTime": 1519591255108}, {"current_trial": 62, "trialdata": {"rt": -1000, "trial_type": "single-audio", "word": "plaster", "stimulus": "/static/audio/wordpool/PLASTER.wav", "conditions": [18, 1200, "a", 18000], "internal_node_id": "0.0-44.0", "trial": 1, "time_elapsed": 376113, "serialpos": 7, "key_press": -1, "wordID": 1084, "type": "PRES_AUD", "trial_index": 62}, "uniqueid": "MTK2931:31LM9EDVOMZE36E5WCB8PCVEGWJNJK", "dateTime": 1519591257141}, {"current_trial": 63, "trialdata": {"rt": -1000, "trial_type": "single-audio", "word": "banjo", "stimulus": "/static/audio/wordpool/BANJO.wav", "conditions": [18, 1200, "a", 18000], "internal_node_id": "0.0-45.0", "trial": 1, "time_elapsed": 378266, "serialpos": 8, "key_press": -1, "wordID": 81, "type": "PRES_AUD", "trial_index": 63}, "uniqueid": "MTK2931:31LM9EDVOMZE36E5WCB8PCVEGWJNJK", "dateTime": 1519591259294}, {"current_trial": 64, "trialdata": {"rt": -1000, "trial_type": "single-audio", "word": "boyfriend", "stimulus": "/static/audio/wordpool/BOYFRIEND.wav", "conditions": [18, 1200, "a", 18000], "internal_node_id": "0.0-46.0", "trial": 1, "time_elapsed": 380485, "serialpos": 9, "key_press": -1, "wordID": 161, "type": "PRES_AUD", "trial_index": 64}, "uniqueid": "MTK2931:31LM9EDVOMZE36E5WCB8PCVEGWJNJK", "dateTime": 1519591261513}, {"current_trial": 65, "trialdata": {"rt": -1000, "trial_type": "single-audio", "word": "cross", "stimulus": "/static/audio/wordpool/CROSS.wav", "conditions": [18, 1200, "a", 18000], "internal_node_id": "0.0-47.0", "trial": 1, "time_elapsed": 382881, "serialpos": 10, "key_press": -1, "wordID": 412, "type": "PRES_AUD", "trial_index": 65}, "uniqueid": "MTK2931:31LM9EDVOMZE36E5WCB8PCVEGWJNJK", "dateTime": 1519591263909}, {"current_trial": 66, "trialdata": {"rt": -1000, "trial_type": "single-audio", "word": "patrol", "stimulus": "/static/audio/wordpool/PATROL.wav", "conditions": [18, 1200, "a", 18000], "internal_node_id": "0.0-48.0", "trial": 1, "time_elapsed": 384957, "serialpos": 11, "key_press": -1, "wordID": 1026, "type": "PRES_AUD", "trial_index": 66}, "uniqueid": "MTK2931:31LM9EDVOMZE36E5WCB8PCVEGWJNJK", "dateTime": 1519591265985}, {"current_trial": 67, "trialdata": {"rt": -1000, "trial_type": "single-audio", "word": "citrus", "stimulus": "/static/audio/wordpool/CITRUS.wav", "conditions": [18, 1200, "a", 18000], "internal_node_id": "0.0-49.0", "trial": 1, "time_elapsed": 387233, "serialpos": 12, "key_press": -1, "wordID": 312, "type": "PRES_AUD", "trial_index": 67}, "uniqueid": "MTK2931:31LM9EDVOMZE36E5WCB8PCVEGWJNJK", "dateTime": 1519591268261}, {"current_trial": 68, "trialdata": {"rt": -1000, "trial_type": "single-audio", "word": "wife", "stimulus": "/static/audio/wordpool/WIFE.wav", "conditions": [18, 1200, "a", 18000], "internal_node_id": "0.0-50.0", "trial": 1, "time_elapsed": 389623, "serialpos": 13, "key_press": -1, "wordID": 1608, "type": "PRES_AUD", "trial_index": 68}, "uniqueid": "MTK2931:31LM9EDVOMZE36E5WCB8PCVEGWJNJK", "dateTime": 1519591270652}, {"current_trial": 69, "trialdata": {"rt": -1000, "trial_type": "single-audio", "word": "county", "stimulus": "/static/audio/wordpool/COUNTY.wav", "conditions": [18, 1200, "a", 18000], "internal_node_id": "0.0-51.0", "trial": 1, "time_elapsed": 392000, "serialpos": 14, "key_press": -1, "wordID": 388, "type": "PRES_AUD", "trial_index": 69}, "uniqueid": "MTK2931:31LM9EDVOMZE36E5WCB8PCVEGWJNJK", "dateTime": 1519591273028}, {"current_trial": 70, "trialdata": {"rt": -1000, "trial_type": "single-audio", "word": "guard", "stimulus": "/static/audio/wordpool/GUARD.wav", "conditions": [18, 1200, "a", 18000], "internal_node_id": "0.0-52.0", "trial": 1, "time_elapsed": 394031, "serialpos": 15, "key_press": -1, "wordID": 666, "type": "PRES_AUD", "trial_index": 70}, "uniqueid": "MTK2931:31LM9EDVOMZE36E5WCB8PCVEGWJNJK", "dateTime": 1519591275059}, {"current_trial": 71, "trialdata": {"rt": -1000, "trial_type": "single-audio", "word": "cabin", "stimulus": "/static/audio/wordpool/CABIN.wav", "conditions": [18, 1200, "a", 18000], "internal_node_id": "0.0-53.0", "trial": 1, "time_elapsed": 396170, "serialpos": 16, "key_press": -1, "wordID": 210, "type": "PRES_AUD", "trial_index": 71}, "uniqueid": "MTK2931:31LM9EDVOMZE36E5WCB8PCVEGWJNJK", "dateTime": 1519591277198}, {"current_trial": 72, "trialdata": {"rt": -1000, "trial_type": "single-audio", "word": "costume", "stimulus": "/static/audio/wordpool/COSTUME.wav", "conditions": [18, 1200, "a", 18000], "internal_node_id": "0.0-54.0", "trial": 1, "time_elapsed": 398494, "serialpos": 17, "key_press": -1, "wordID": 382, "type": "PRES_AUD", "trial_index": 72}, "uniqueid": "MTK2931:31LM9EDVOMZE36E5WCB8PCVEGWJNJK", "dateTime": 1519591279522}, {"current_trial": 73, "trialdata": {"rt": -1, "trial_type": "single-stim", "stimulus": "", "internal_node_id": "0.0-55.0-0.0", "time_elapsed": 399892, "key_press": -1, "type": "PRE_RECALL_DELAY", "trial_index": 73}, "uniqueid": "MTK2931:31LM9EDVOMZE36E5WCB8PCVEGWJNJK", "dateTime": 1519591280921}, {"current_trial": 74, "trialdata": {"rt": -1000, "trial_type": "single-audio", "stimulus": "/static/audio/400Hz.wav", "internal_node_id": "0.0-56.0", "time_elapsed": 400393, "key_press": -1, "type": "PRE_RECALL_ALERT", "trial_index": 74}, "uniqueid": "MTK2931:31LM9EDVOMZE36E5WCB8PCVEGWJNJK", "dateTime": 1519591281421}, {"current_trial": 75, "trialdata": {"rt": [2129, 3359, 4518, 6081, 7684, 8685, 10185, 14763, 22578, 28328, 51983, 57438], "recwords": ["costume", "cabin", "patrol", "guard", "county", "sister", "wife", "boyfriend", "parrot", "aeroplace", "termite", "cocoon"], "key_times": [1026, 1189, 1225, 1472, 1582, 1819, 1934, 2129, 2437, 2513, 2675, 2853, 3007, 3359, 3618, 3754, 3960, 4013, 4074, 4290, 4518, 5030, 5154, 5281, 5500, 5691, 6081, 6338, 6581, 6786, 6873, 7011, 7157, 7684, 7921, 8023, 8106, 8277, 8363, 8495, 8685, 9415, 9581, 9816, 9886, 10185, 13266, 13409, 13666, 13850, 14021, 14112, 14211, 14345, 14427, 14763, 21471, 21665, 21934, 22091, 22195, 22301, 22578, 26411, 26938, 27047, 27205, 27412, 27565, 27747, 27936, 28025, 28328, 51204, 51312, 51447, 51511, 51623, 51746, 51823, 51983, 55860, 56036, 56240, 56701, 56850, 56994, 57438], "trial_type": "free-recall", "conditions": [18, 1200, "a", 18000], "internal_node_id": "0.0-57.0-0.0", "key_presses": [67, 79, 83, 84, 85, 77, 69, 13, 67, 65, 66, 73, 78, 13, 80, 65, 84, 82, 79, 76, 13, 71, 85, 65, 82, 68, 13, 67, 79, 85, 78, 84, 89, 13, 83, 73, 83, 84, 69, 82, 13, 87, 73, 70, 69, 13, 66, 79, 89, 70, 82, 73, 69, 78, 68, 13, 80, 65, 82, 82, 79, 84, 13, 65, 69, 82, 79, 80, 76, 65, 67, 69, 13, 84, 69, 82, 77, 73, 84, 69, 13, 67, 79, 67, 79, 79, 78, 13], "trial": 1, "time_elapsed": 460396, "type": "FREE_RECALL", "trial_index": 75}, "uniqueid": "MTK2931:31LM9EDVOMZE36E5WCB8PCVEGWJNJK", "dateTime": 1519591341425}, {"current_trial": 76, "trialdata": {"rt": 3063, "trial_type": "text", "internal_node_id": "0.0-58.0", "time_elapsed": 465460, "key_press": 13, "type": "INSTRUCTIONS", "trial_index": 76}, "uniqueid": "MTK2931:31LM9EDVOMZE36E5WCB8PCVEGWJNJK", "dateTime": 1519591346489}, {"current_trial": 77, "trialdata": {"rt": [2787, 5683, 8287, 11566], "trial_type": "math-distractor", "key_times": [2144, 2546, 2787, 4866, 5399, 5683, 7664, 8027, 8287, 10702, 11315, 11566], "responses": ["16", "26", "15", "14"], "num2": [7, 9, 3, 6, 8], "num3": [1, 8, 9, 5, 8], "conditions": [24, 800, "a", 12000], "internal_node_id": "0.0-59.0", "key_presses": [49, 54, 13, 50, 54, 13, 49, 53, 13, 49, 52, 13], "trial": 2, "time_elapsed": 478462, "type": "DISTRACTOR", "trial_index": 77, "num1": [8, 9, 3, 3, 9]}, "uniqueid": "MTK2931:31LM9EDVOMZE36E5WCB8PCVEGWJNJK", "dateTime": 1519591359490}, {"current_trial": 78, "trialdata": {"rt": -1, "trial_type": "single-stim", "stimulus": "<p id=\"stim\">10</p>", "internal_node_id": "0.0-60.0-0.0", "time_elapsed": 481464, "key_press": -1, "trial_index": 78}, "uniqueid": "MTK2931:31LM9EDVOMZE36E5WCB8PCVEGWJNJK", "dateTime": 1519591362492}, {"current_trial": 79, "trialdata": {"rt": -1, "trial_type": "single-stim", "stimulus": "<p id=\"stim\">9</p>", "internal_node_id": "0.0-60.0-1.0", "time_elapsed": 482464, "key_press": -1, "trial_index": 79}, "uniqueid": "MTK2931:31LM9EDVOMZE36E5WCB8PCVEGWJNJK", "dateTime": 1519591363492}, {"current_trial": 80, "trialdata": {"rt": -1, "trial_type": "single-stim", "stimulus": "<p id=\"stim\">8</p>", "internal_node_id": "0.0-60.0-2.0", "time_elapsed": 483465, "key_press": -1, "trial_index": 80}, "uniqueid": "MTK2931:31LM9EDVOMZE36E5WCB8PCVEGWJNJK", "dateTime": 1519591364493}, {"current_trial": 81, "trialdata": {"rt": -1, "trial_type": "single-stim", "stimulus": "<p id=\"stim\">7</p>", "internal_node_id": "0.0-60.0-3.0", "time_elapsed": 484466, "key_press": -1, "trial_index": 81}, "uniqueid": "MTK2931:31LM9EDVOMZE36E5WCB8PCVEGWJNJK", "dateTime": 1519591365494}, {"current_trial": 82, "trialdata": {"rt": -1, "trial_type": "single-stim", "stimulus": "<p id=\"stim\">6</p>", "internal_node_id": "0.0-60.0-4.0", "time_elapsed": 485467, "key_press": -1, "trial_index": 82}, "uniqueid": "MTK2931:31LM9EDVOMZE36E5WCB8PCVEGWJNJK", "dateTime": 1519591366495}, {"current_trial": 83, "trialdata": {"rt": -1, "trial_type": "single-stim", "stimulus": "<p id=\"stim\">5</p>", "internal_node_id": "0.0-60.0-5.0", "time_elapsed": 486468, "key_press": -1, "trial_index": 83}, "uniqueid": "MTK2931:31LM9EDVOMZE36E5WCB8PCVEGWJNJK", "dateTime": 1519591367496}, {"current_trial": 84, "trialdata": {"rt": -1, "trial_type": "single-stim", "stimulus": "<p id=\"stim\">4</p>", "internal_node_id": "0.0-60.0-6.0", "time_elapsed": 487468, "key_press": -1, "trial_index": 84}, "uniqueid": "MTK2931:31LM9EDVOMZE36E5WCB8PCVEGWJNJK", "dateTime": 1519591368496}, {"current_trial": 85, "trialdata": {"rt": -1, "trial_type": "single-stim", "stimulus": "<p id=\"stim\">3</p>", "internal_node_id": "0.0-60.0-7.0", "time_elapsed": 488470, "key_press": -1, "trial_index": 85}, "uniqueid": "MTK2931:31LM9EDVOMZE36E5WCB8PCVEGWJNJK", "dateTime": 1519591369498}, {"current_trial": 86, "trialdata": {"rt": -1, "trial_type": "single-stim", "stimulus": "<p id=\"stim\">2</p>", "internal_node_id": "0.0-60.0-8.0", "time_elapsed": 489471, "key_press": -1, "trial_index": 86}, "uniqueid": "MTK2931:31LM9EDVOMZE36E5WCB8PCVEGWJNJK", "dateTime": 1519591370499}, {"current_trial": 87, "trialdata": {"rt": -1, "trial_type": "single-stim", "stimulus": "<p id=\"stim\">1</p>", "internal_node_id": "0.0-60.0-9.0", "time_elapsed": 490471, "key_press": -1, "trial_index": 87}, "uniqueid": "MTK2931:31LM9EDVOMZE36E5WCB8PCVEGWJNJK", "dateTime": 1519591371499}, {"current_trial": 88, "trialdata": {"rt": -1, "trial_type": "single-stim", "stimulus": "<p id=\"stim\">+</p>", "internal_node_id": "0.0-61.0-0.0", "time_elapsed": 491973, "key_press": -1, "type": "FIXATION", "trial_index": 88}, "uniqueid": "MTK2931:31LM9EDVOMZE36E5WCB8PCVEGWJNJK", "dateTime": 1519591373001}, {"current_trial": 89, "trialdata": {"rt": -1000, "trial_type": "single-audio", "word": "robber", "stimulus": "/static/audio/wordpool/ROBBER.wav", "conditions": [24, 800, "a", 12000], "internal_node_id": "0.0-62.0", "trial": 2, "time_elapsed": 493818, "serialpos": 0, "key_press": -1, "wordID": 1196, "type": "PRES_AUD", "trial_index": 89}, "uniqueid": "MTK2931:31LM9EDVOMZE36E5WCB8PCVEGWJNJK", "dateTime": 1519591374846}, {"current_trial": 90, "trialdata": {"rt": -1000, "trial_type": "single-audio", "word": "penguin", "stimulus": "/static/audio/wordpool/PENGUIN.wav", "conditions": [24, 800, "a", 12000], "internal_node_id": "0.0-63.0", "trial": 2, "time_elapsed": 495524, "serialpos": 1, "key_press": -1, "wordID": 1043, "type": "PRES_AUD", "trial_index": 90}, "uniqueid": "MTK2931:31LM9EDVOMZE36E5WCB8PCVEGWJNJK", "dateTime": 1519591376552}, {"current_trial": 91, "trialdata": {"rt": -1000, "trial_type": "single-audio", "word": "turtle", "stimulus": "/static/audio/wordpool/TURTLE.wav", "conditions": [24, 800, "a", 12000], "internal_node_id": "0.0-64.0", "trial": 2, "time_elapsed": 497234, "serialpos": 2, "key_press": -1, "wordID": 1521, "type": "PRES_AUD", "trial_index": 91}, "uniqueid": "MTK2931:31LM9EDVOMZE36E5WCB8PCVEGWJNJK", "dateTime": 1519591378262}, {"current_trial": 92, "trialdata": {"rt": -1000, "trial_type": "single-audio", "word": "plaid", "stimulus": "/static/audio/wordpool/PLAID.wav", "conditions": [24, 800, "a", 12000], "internal_node_id": "0.0-65.0", "trial": 2, "time_elapsed": 499062, "serialpos": 3, "key_press": -1, "wordID": 1079, "type": "PRES_AUD", "trial_index": 92}, "uniqueid": "MTK2931:31LM9EDVOMZE36E5WCB8PCVEGWJNJK", "dateTime": 1519591380091}, {"current_trial": 93, "trialdata": {"rt": -1000, "trial_type": "single-audio", "word": "badge", "stimulus": "/static/audio/wordpool/BADGE.wav", "conditions": [24, 800, "a", 12000], "internal_node_id": "0.0-66.0", "trial": 2, "time_elapsed": 500908, "serialpos": 4, "key_press": -1, "wordID": 67, "type": "PRES_AUD", "trial_index": 93}, "uniqueid": "MTK2931:31LM9EDVOMZE36E5WCB8PCVEGWJNJK", "dateTime": 1519591381936}, {"current_trial": 94, "trialdata": {"rt": -1000, "trial_type": "single-audio", "word": "pudding", "stimulus": "/static/audio/wordpool/PUDDING.wav", "conditions": [24, 800, "a", 12000], "internal_node_id": "0.0-67.0", "trial": 2, "time_elapsed": 502652, "serialpos": 5, "key_press": -1, "wordID": 1138, "type": "PRES_AUD", "trial_index": 94}, "uniqueid": "MTK2931:31LM9EDVOMZE36E5WCB8PCVEGWJNJK", "dateTime": 1519591383680}, {"current_trial": 95, "trialdata": {"rt": -1000, "trial_type": "single-audio", "word": "catcher", "stimulus": "/static/audio/wordpool/CATCHER.wav", "conditions": [24, 800, "a", 12000], "internal_node_id": "0.0-68.0", "trial": 2, "time_elapsed": 504415, "serialpos": 6, "key_press": -1, "wordID": 257, "type": "PRES_AUD", "trial_index": 95}, "uniqueid": "MTK2931:31LM9EDVOMZE36E5WCB8PCVEGWJNJK", "dateTime": 1519591385444}, {"current_trial": 96, "trialdata": {"rt": -1000, "trial_type": "single-audio", "word": "flesh", "stimulus": "/static/audio/wordpool/FLESH.wav", "conditions": [24, 800, "a", 12000], "internal_node_id": "0.0-69.0", "trial": 2, "time_elapsed": 506170, "serialpos": 7, "key_press": -1, "wordID": 578, "type": "PRES_AUD", "trial_index": 96}, "uniqueid": "MTK2931:31LM9EDVOMZE36E5WCB8PCVEGWJNJK", "dateTime": 1519591387198}, {"current_trial": 97, "trialdata": {"rt": -1000, "trial_type": "single-audio", "word": "bison", "stimulus": "/static/audio/wordpool/BISON.wav", "conditions": [24, 800, "a", 12000], "internal_node_id": "0.0-70.0", "trial": 2, "time_elapsed": 507801, "serialpos": 8, "key_press": -1, "wordID": 130, "type": "PRES_AUD", "trial_index": 97}, "uniqueid": "MTK2931:31LM9EDVOMZE36E5WCB8PCVEGWJNJK", "dateTime": 1519591388829}, {"current_trial": 98, "trialdata": {"rt": -1000, "trial_type": "single-audio", "word": "custard", "stimulus": "/static/audio/wordpool/CUSTARD.wav", "conditions": [24, 800, "a", 12000], "internal_node_id": "0.0-71.0", "trial": 2, "time_elapsed": 509663, "serialpos": 9, "key_press": -1, "wordID": 428, "type": "PRES_AUD", "trial_index": 98}, "uniqueid": "MTK2931:31LM9EDVOMZE36E5WCB8PCVEGWJNJK", "dateTime": 1519591390691}, {"current_trial": 99, "trialdata": {"rt": -1000, "trial_type": "single-audio", "word": "guitar", "stimulus": "/static/audio/wordpool/GUITAR.wav", "conditions": [24, 800, "a", 12000], "internal_node_id": "0.0-72.0", "trial": 2, "time_elapsed": 511293, "serialpos": 10, "key_press": -1, "wordID": 669, "type": "PRES_AUD", "trial_index": 99}, "uniqueid": "MTK2931:31LM9EDVOMZE36E5WCB8PCVEGWJNJK", "dateTime": 1519591392321}, {"current_trial": 100, "trialdata": {"rt": -1000, "trial_type": "single-audio", "word": "orange", "stimulus": "/static/audio/wordpool/ORANGE.wav", "conditions": [24, 800, "a", 12000], "internal_node_id": "0.0-73.0", "trial": 2, "time_elapsed": 513167, "serialpos": 11, "key_press": -1, "wordID": 979, "type": "PRES_AUD", "trial_index": 100}, "uniqueid": "MTK2931:31LM9EDVOMZE36E5WCB8PCVEGWJNJK", "dateTime": 1519591394195}, {"current_trial": 101, "trialdata": {"rt": -1000, "trial_type": "single-audio", "word": "island", "stimulus": "/static/audio/wordpool/ISLAND.wav", "conditions": [24, 800, "a", 12000], "internal_node_id": "0.0-74.0", "trial": 2, "time_elapsed": 515015, "serialpos": 12, "key_press": -1, "wordID": 744, "type": "PRES_AUD", "trial_index": 101}, "uniqueid": "MTK2931:31LM9EDVOMZE36E5WCB8PCVEGWJNJK", "dateTime": 1519591396043}, {"current_trial": 102, "trialdata": {"rt": -1000, "trial_type": "single-audio", "word": "drawing", "stimulus": "/static/audio/wordpool/DRAWING.wav", "conditions": [24, 800, "a", 12000], "internal_node_id": "0.0-75.0", "trial": 2, "time_elapsed": 516952, "serialpos": 13, "key_press": -1, "wordID": 493, "type": "PRES_AUD", "trial_index": 102}, "uniqueid": "MTK2931:31LM9EDVOMZE36E5WCB8PCVEGWJNJK", "dateTime": 1519591397980}, {"current_trial": 103, "trialdata": {"rt": -1000, "trial_type": "single-audio", "word": "pimple", "stimulus": "/static/audio/wordpool/PIMPLE.wav", "conditions": [24, 800, "a", 12000], "internal_node_id": "0.0-76.0", "trial": 2, "time_elapsed": 518665, "serialpos": 14, "key_press": -1, "wordID": 1070, "type": "PRES_AUD", "trial_index": 103}, "uniqueid": "MTK2931:31LM9EDVOMZE36E5WCB8PCVEGWJNJK", "dateTime": 1519591399694}, {"current_trial": 104, "trialdata": {"rt": -1000, "trial_type": "single-audio", "word": "blackboard", "stimulus": "/static/audio/wordpool/BLACKBOARD.wav", "conditions": [24, 800, "a", 12000], "internal_node_id": "0.0-77.0", "trial": 2, "time_elapsed": 520306, "serialpos": 15, "key_press": -1, "wordID": 132, "type": "PRES_AUD", "trial_index": 104}, "uniqueid": "MTK2931:31LM9EDVOMZE36E5WCB8PCVEGWJNJK", "dateTime": 1519591401334}, {"current_trial": 105, "trialdata": {"rt": -1000, "trial_type": "single-audio", "word": "sibling", "stimulus": "/static/audio/wordpool/SIBLING.wav", "conditions": [24, 800, "a", 12000], "internal_node_id": "0.0-78.0", "trial": 2, "time_elapsed": 521938, "serialpos": 16, "key_press": -1, "wordID": 1300, "type": "PRES_AUD", "trial_index": 105}, "uniqueid": "MTK2931:31LM9EDVOMZE36E5WCB8PCVEGWJNJK", "dateTime": 1519591402966}, {"current_trial": 106, "trialdata": {"rt": -1000, "trial_type": "single-audio", "word": "salad", "stimulus": "/static/audio/wordpool/SALAD.wav", "conditions": [24, 800, "a", 12000], "internal_node_id": "0.0-79.0", "trial": 2, "time_elapsed": 523705, "serialpos": 17, "key_press": -1, "wordID": 1223, "type": "PRES_AUD", "trial_index": 106}, "uniqueid": "MTK2931:31LM9EDVOMZE36E5WCB8PCVEGWJNJK", "dateTime": 1519591404733}, {"current_trial": 107, "trialdata": {"rt": -1000, "trial_type": "single-audio", "word": "grill", "stimulus": "/static/audio/wordpool/GRILL.wav", "conditions": [24, 800, "a", 12000], "internal_node_id": "0.0-80.0", "trial": 2, "time_elapsed": 525665, "serialpos": 18, "key_press": -1, "wordID": 660, "type": "PRES_AUD", "trial_index": 107}, "uniqueid": "MTK2931:31LM9EDVOMZE36E5WCB8PCVEGWJNJK", "dateTime": 1519591406693}, {"current_trial": 108, "trialdata": {"rt": -1000, "trial_type": "single-audio", "word": "cook", "stimulus": "/static/audio/wordpool/COOK.wav", "conditions": [24, 800, "a", 12000], "internal_node_id": "0.0-81.0", "trial": 2, "time_elapsed": 527306, "serialpos": 19, "key_press": -1, "wordID": 371, "type": "PRES_AUD", "trial_index": 108}, "uniqueid": "MTK2931:31LM9EDVOMZE36E5WCB8PCVEGWJNJK", "dateTime": 1519591408334}, {"current_trial": 109, "trialdata": {"rt": -1000, "trial_type": "single-audio", "word": "brother", "stimulus": "/static/audio/wordpool/BROTHER.wav", "conditions": [24, 800, "a", 12000], "internal_node_id": "0.0-82.0", "trial": 2, "time_elapsed": 528997, "serialpos": 20, "key_press": -1, "wordID": 178, "type": "PRES_AUD", "trial_index": 109}, "uniqueid": "MTK2931:31LM9EDVOMZE36E5WCB8PCVEGWJNJK", "dateTime": 1519591410025}, {"current_trial": 110, "trialdata": {"rt": -1000, "trial_type": "single-audio", "word": "seagull", "stimulus": "/static/audio/wordpool/SEAGULL.wav", "conditions": [24, 800, "a", 12000], "internal_node_id": "0.0-83.0", "trial": 2, "time_elapsed": 530843, "serialpos": 21, "key_press": -1, "wordID": 1260, "type": "PRES_AUD", "trial_index": 110}, "uniqueid": "MTK2931:31LM9EDVOMZE36E5WCB8PCVEGWJNJK", "dateTime": 1519591411871}, {"current_trial": 111, "trialdata": {"rt": -1000, "trial_type": "single-audio", "word": "flag", "stimulus": "/static/audio/wordpool/FLAG.wav", "conditions": [24, 800, "a", 12000], "internal_node_id": "0.0-84.0", "trial": 2, "time_elapsed": 532805, "serialpos": 22, "key_press": -1, "wordID": 572, "type": "PRES_AUD", "trial_index": 111}, "uniqueid": "MTK2931:31LM9EDVOMZE36E5WCB8PCVEGWJNJK", "dateTime": 1519591413833}, {"current_trial": 112, "trialdata": {"rt": -1000, "trial_type": "single-audio", "word": "padding", "stimulus": "/static/audio/wordpool/PADDING.wav", "conditions": [24, 800, "a", 12000], "internal_node_id": "0.0-85.0", "trial": 2, "time_elapsed": 534682, "serialpos": 23, "key_press": -1, "wordID": 998, "type": "PRES_AUD", "trial_index": 112}, "uniqueid": "MTK2931:31LM9EDVOMZE36E5WCB8PCVEGWJNJK", "dateTime": 1519591415710}, {"current_trial": 113, "trialdata": {"rt": -1, "trial_type": "single-stim", "stimulus": "", "internal_node_id": "0.0-86.0-0.0", "time_elapsed": 535964, "key_press": -1, "type": "PRE_RECALL_DELAY", "trial_index": 113}, "uniqueid": "MTK2931:31LM9EDVOMZE36E5WCB8PCVEGWJNJK", "dateTime": 1519591416992}, {"current_trial": 114, "trialdata": {"rt": -1000, "trial_type": "single-audio", "stimulus": "/static/audio/400Hz.wav", "internal_node_id": "0.0-87.0", "time_elapsed": 536466, "key_press": -1, "type": "PRE_RECALL_ALERT", "trial_index": 114}, "uniqueid": "MTK2931:31LM9EDVOMZE36E5WCB8PCVEGWJNJK", "dateTime": 1519591417494}, {"current_trial": 115, "trialdata": {"rt": [2332, 3946, 5278, 6904, 7846, 9161, 10551, 12327, 14289, 18164, 28550, 44444, 46213], "recwords": ["padding", "flag", "brother", "sibling", "cook", "grill", "salad", "custard", "penguin", "seagull", "island", "drying", "pimple"], "key_times": [1093, 1179, 1369, 1533, 1655, 1730, 1855, 2332, 2782, 2925, 3098, 3688, 3946, 4459, 4573, 4697, 4799, 4930, 4949, 5056, 5278, 5477, 5692, 5893, 5984, 6191, 6283, 6395, 6904, 7163, 7271, 7438, 7527, 7846, 8255, 8365, 8590, 8808, 8942, 9161, 9874, 9978, 10102, 10209, 10339, 10551, 10770, 10896, 11025, 11175, 11348, 11531, 11727, 12327, 12887, 12994, 13156, 13292, 13395, 13580, 13662, 14289, 14513, 14639, 14796, 15033, 15142, 15362, 16560, 18164, 27709, 27840, 27984, 28058, 28205, 28291, 28550, 43115, 43319, 43580, 43783, 43897, 44039, 44444, 45124, 45322, 45448, 45703, 45881, 46008, 46213], "trial_type": "free-recall", "conditions": [24, 800, "a", 12000], "internal_node_id": "0.0-88.0-0.0", "key_presses": [80, 65, 68, 68, 73, 78, 71, 13, 70, 76, 65, 71, 13, 66, 82, 79, 84, 72, 69, 82, 13, 83, 73, 66, 76, 73, 78, 71, 13, 67, 79, 79, 75, 13, 71, 82, 73, 76, 76, 13, 83, 65, 76, 65, 68, 13, 67, 85, 83, 84, 65, 82, 68, 13, 80, 69, 78, 71, 85, 73, 78, 13, 83, 69, 65, 71, 85, 76, 76, 13, 73, 83, 76, 65, 78, 68, 13, 68, 82, 89, 73, 78, 71, 13, 80, 73, 77, 80, 76, 69, 13], "trial": 2, "time_elapsed": 596469, "type": "FREE_RECALL", "trial_index": 115}, "uniqueid": "MTK2931:31LM9EDVOMZE36E5WCB8PCVEGWJNJK", "dateTime": 1519591477498}, {"current_trial": 116, "trialdata": {"rt": 1251, "trial_type": "text", "internal_node_id": "0.0-89.0", "time_elapsed": 599722, "key_press": 13, "type": "INSTRUCTIONS", "trial_index": 116}, "uniqueid": "MTK2931:31LM9EDVOMZE36E5WCB8PCVEGWJNJK", "dateTime": 1519591480750}, {"current_trial": 117, "trialdata": {"rt": [2346, 7206], "trial_type": "math-distractor", "key_times": [1874, 2063, 2346, 3521, 3942, 5078, 5248, 7206, 11877, 11994], "responses": ["20", "13"], "num2": [8, 3, 7], "num3": [5, 2, 8], "conditions": [12, 1600, "a", 12000], "internal_node_id": "0.0-90.0", "key_presses": [50, 48, 13, 49, 53, 8, 51, 13, 50, 49], "trial": 3, "time_elapsed": 613724, "type": "DISTRACTOR", "trial_index": 117, "num1": [7, 8, 6]}, "uniqueid": "MTK2931:31LM9EDVOMZE36E5WCB8PCVEGWJNJK", "dateTime": 1519591494752}, {"current_trial": 118, "trialdata": {"rt": -1, "trial_type": "single-stim", "stimulus": "<p id=\"stim\">10</p>", "internal_node_id": "0.0-91.0-0.0", "time_elapsed": 616726, "key_press": -1, "trial_index": 118}, "uniqueid": "MTK2931:31LM9EDVOMZE36E5WCB8PCVEGWJNJK", "dateTime": 1519591497754}, {"current_trial": 119, "trialdata": {"rt": -1, "trial_type": "single-stim", "stimulus": "<p id=\"stim\">9</p>", "internal_node_id": "0.0-91.0-1.0", "time_elapsed": 617726, "key_press": -1, "trial_index": 119}, "uniqueid": "MTK2931:31LM9EDVOMZE36E5WCB8PCVEGWJNJK", "dateTime": 1519591498754}, {"current_trial": 120, "trialdata": {"rt": -1, "trial_type": "single-stim", "stimulus": "<p id=\"stim\">8</p>", "internal_node_id": "0.0-91.0-2.0", "time_elapsed": 618728, "key_press": -1, "trial_index": 120}, "uniqueid": "MTK2931:31LM9EDVOMZE36E5WCB8PCVEGWJNJK", "dateTime": 1519591499756}, {"current_trial": 121, "trialdata": {"rt": -1, "trial_type": "single-stim", "stimulus": "<p id=\"stim\">7</p>", "internal_node_id": "0.0-91.0-3.0", "time_elapsed": 619730, "key_press": -1, "trial_index": 121}, "uniqueid": "MTK2931:31LM9EDVOMZE36E5WCB8PCVEGWJNJK", "dateTime": 1519591500758}, {"current_trial": 122, "trialdata": {"rt": -1, "trial_type": "single-stim", "stimulus": "<p id=\"stim\">6</p>", "internal_node_id": "0.0-91.0-4.0", "time_elapsed": 620731, "key_press": -1, "trial_index": 122}, "uniqueid": "MTK2931:31LM9EDVOMZE36E5WCB8PCVEGWJNJK", "dateTime": 1519591501760}, {"current_trial": 123, "trialdata": {"rt": -1, "trial_type": "single-stim", "stimulus": "<p id=\"stim\">5</p>", "internal_node_id": "0.0-91.0-5.0", "time_elapsed": 621732, "key_press": -1, "trial_index": 123}, "uniqueid": "MTK2931:31LM9EDVOMZE36E5WCB8PCVEGWJNJK", "dateTime": 1519591502760}, {"current_trial": 124, "trialdata": {"rt": -1, "trial_type": "single-stim", "stimulus": "<p id=\"stim\">4</p>", "internal_node_id": "0.0-91.0-6.0", "time_elapsed": 622734, "key_press": -1, "trial_index": 124}, "uniqueid": "MTK2931:31LM9EDVOMZE36E5WCB8PCVEGWJNJK", "dateTime": 1519591503762}, {"current_trial": 125, "trialdata": {"rt": -1, "trial_type": "single-stim", "stimulus": "<p id=\"stim\">3</p>", "internal_node_id": "0.0-91.0-7.0", "time_elapsed": 623735, "key_press": -1, "trial_index": 125}, "uniqueid": "MTK2931:31LM9EDVOMZE36E5WCB8PCVEGWJNJK", "dateTime": 1519591504763}, {"current_trial": 126, "trialdata": {"rt": -1, "trial_type": "single-stim", "stimulus": "<p id=\"stim\">2</p>", "internal_node_id": "0.0-91.0-8.0", "time_elapsed": 624735, "key_press": -1, "trial_index": 126}, "uniqueid": "MTK2931:31LM9EDVOMZE36E5WCB8PCVEGWJNJK", "dateTime": 1519591505764}, {"current_trial": 127, "trialdata": {"rt": -1, "trial_type": "single-stim", "stimulus": "<p id=\"stim\">1</p>", "internal_node_id": "0.0-91.0-9.0", "time_elapsed": 625738, "key_press": -1, "trial_index": 127}, "uniqueid": "MTK2931:31LM9EDVOMZE36E5WCB8PCVEGWJNJK", "dateTime": 1519591506766}, {"current_trial": 128, "trialdata": {"rt": -1, "trial_type": "single-stim", "stimulus": "<p id=\"stim\">+</p>", "internal_node_id": "0.0-92.0-0.0", "time_elapsed": 627238, "key_press": -1, "type": "FIXATION", "trial_index": 128}, "uniqueid": "MTK2931:31LM9EDVOMZE36E5WCB8PCVEGWJNJK", "dateTime": 1519591508267}, {"current_trial": 129, "trialdata": {"rt": -1000, "trial_type": "single-audio", "word": "outfit", "stimulus": "/static/audio/wordpool/OUTFIT.wav", "conditions": [12, 1600, "a", 12000], "internal_node_id": "0.0-93.0", "trial": 3, "time_elapsed": 629814, "serialpos": 0, "key_press": -1, "wordID": 987, "type": "PRES_AUD", "trial_index": 129}, "uniqueid": "MTK2931:31LM9EDVOMZE36E5WCB8PCVEGWJNJK", "dateTime": 1519591510842}, {"current_trial": 130, "trialdata": {"rt": -1000, "trial_type": "single-audio", "word": "mammal", "stimulus": "/static/audio/wordpool/MAMMAL.wav", "conditions": [12, 1600, "a", 12000], "internal_node_id": "0.0-94.0", "trial": 3, "time_elapsed": 632399, "serialpos": 1, "key_press": -1, "wordID": 860, "type": "PRES_AUD", "trial_index": 130}, "uniqueid": "MTK2931:31LM9EDVOMZE36E5WCB8PCVEGWJNJK", "dateTime": 1519591513427}, {"current_trial": 131, "trialdata": {"rt": -1000, "trial_type": "single-audio", "word": "shortcake", "stimulus": "/static/audio/wordpool/SHORTCAKE.wav", "conditions": [12, 1600, "a", 12000], "internal_node_id": "0.0-95.0", "trial": 3, "time_elapsed": 634872, "serialpos": 2, "key_press": -1, "wordID": 1291, "type": "PRES_AUD", "trial_index": 131}, "uniqueid": "MTK2931:31LM9EDVOMZE36E5WCB8PCVEGWJNJK", "dateTime": 1519591515900}, {"current_trial": 132, "trialdata": {"rt": -1000, "trial_type": "single-audio", "word": "couch", "stimulus": "/static/audio/wordpool/COUCH.wav", "conditions": [12, 1600, "a", 12000], "internal_node_id": "0.0-96.0", "trial": 3, "time_elapsed": 637598, "serialpos": 3, "key_press": -1, "wordID": 385, "type": "PRES_AUD", "trial_index": 132}, "uniqueid": "MTK2931:31LM9EDVOMZE36E5WCB8PCVEGWJNJK", "dateTime": 1519591518626}, {"current_trial": 133, "trialdata": {"rt": -1000, "trial_type": "single-audio", "word": "cabbage", "stimulus": "/static/audio/wordpool/CABBAGE.wav", "conditions": [12, 1600, "a", 12000], "internal_node_id": "0.0-97.0", "trial": 3, "time_elapsed": 640305, "serialpos": 4, "key_press": -1, "wordID": 209, "type": "PRES_AUD", "trial_index": 133}, "uniqueid": "MTK2931:31LM9EDVOMZE36E5WCB8PCVEGWJNJK", "dateTime": 1519591521333}, {"current_trial": 134, "trialdata": {"rt": -1000, "trial_type": "single-audio", "word": "cattle", "stimulus": "/static/audio/wordpool/CATTLE.wav", "conditions": [12, 1600, "a", 12000], "internal_node_id": "0.0-98.0", "trial": 3, "time_elapsed": 643103, "serialpos": 5, "key_press": -1, "wordID": 260, "type": "PRES_AUD", "trial_index": 134}, "uniqueid": "MTK2931:31LM9EDVOMZE36E5WCB8PCVEGWJNJK", "dateTime": 1519591524131}, {"current_trial": 135, "trialdata": {"rt": -1000, "trial_type": "single-audio", "word": "beef", "stimulus": "/static/audio/wordpool/BEEF.wav", "conditions": [12, 1600, "a", 12000], "internal_node_id": "0.0-99.0", "trial": 3, "time_elapsed": 645546, "serialpos": 6, "key_press": -1, "wordID": 112, "type": "PRES_AUD", "trial_index": 135}, "uniqueid": "MTK2931:31LM9EDVOMZE36E5WCB8PCVEGWJNJK", "dateTime": 1519591526574}, {"current_trial": 136, "trialdata": {"rt": -1000, "trial_type": "single-audio", "word": "gravel", "stimulus": "/static/audio/wordpool/GRAVEL.wav", "conditions": [12, 1600, "a", 12000], "internal_node_id": "0.0-100.0", "trial": 3, "time_elapsed": 648074, "serialpos": 7, "key_press": -1, "wordID": 658, "type": "PRES_AUD", "trial_index": 136}, "uniqueid": "MTK2931:31LM9EDVOMZE36E5WCB8PCVEGWJNJK", "dateTime": 1519591529102}, {"current_trial": 137, "trialdata": {"rt": -1000, "trial_type": "single-audio", "word": "playground", "stimulus": "/static/audio/wordpool/PLAYGROUND.wav", "conditions": [12, 1600, "a", 12000], "internal_node_id": "0.0-101.0", "trial": 3, "time_elapsed": 650642, "serialpos": 8, "key_press": -1, "wordID": 1086, "type": "PRES_AUD", "trial_index": 137}, "uniqueid": "MTK2931:31LM9EDVOMZE36E5WCB8PCVEGWJNJK", "dateTime": 1519591531670}, {"current_trial": 138, "trialdata": {"rt": -1000, "trial_type": "single-audio", "word": "scarf", "stimulus": "/static/audio/wordpool/SCARF.wav", "conditions": [12, 1600, "a", 12000], "internal_node_id": "0.0-102.0", "trial": 3, "time_elapsed": 653319, "serialpos": 9, "key_press": -1, "wordID": 1245, "type": "PRES_AUD", "trial_index": 138}, "uniqueid": "MTK2931:31LM9EDVOMZE36E5WCB8PCVEGWJNJK", "dateTime": 1519591534347}, {"current_trial": 139, "trialdata": {"rt": -1000, "trial_type": "single-audio", "word": "pizza", "stimulus": "/static/audio/wordpool/PIZZA.wav", "conditions": [12, 1600, "a", 12000], "internal_node_id": "0.0-103.0", "trial": 3, "time_elapsed": 656002, "serialpos": 10, "key_press": -1, "wordID": 1078, "type": "PRES_AUD", "trial_index": 139}, "uniqueid": "MTK2931:31LM9EDVOMZE36E5WCB8PCVEGWJNJK", "dateTime": 1519591537030}, {"current_trial": 140, "trialdata": {"rt": -1000, "trial_type": "single-audio", "word": "primate", "stimulus": "/static/audio/wordpool/PRIMATE.wav", "conditions": [12, 1600, "a", 12000], "internal_node_id": "0.0-104.0", "trial": 3, "time_elapsed": 658520, "serialpos": 11, "key_press": -1, "wordID": 1122, "type": "PRES_AUD", "trial_index": 140}, "uniqueid": "MTK2931:31LM9EDVOMZE36E5WCB8PCVEGWJNJK", "dateTime": 1519591539548}, {"current_trial": 141, "trialdata": {"rt": -1, "trial_type": "single-stim", "stimulus": "", "internal_node_id": "0.0-105.0-0.0", "time_elapsed": 659750, "key_press": -1, "type": "PRE_RECALL_DELAY", "trial_index": 141}, "uniqueid": "MTK2931:31LM9EDVOMZE36E5WCB8PCVEGWJNJK", "dateTime": 1519591540778}, {"current_trial": 142, "trialdata": {"rt": -1000, "trial_type": "single-audio", "stimulus": "/static/audio/400Hz.wav", "internal_node_id": "0.0-106.0", "time_elapsed": 660258, "key_press": -1, "type": "PRE_RECALL_ALERT", "trial_index": 142}, "uniqueid": "MTK2931:31LM9EDVOMZE36E5WCB8PCVEGWJNJK", "dateTime": 1519591541286}, {"current_trial": 143, "trialdata": {"rt": [2431, 4111, 7145, 9318, 13342], "recwords": ["pizza", "primate", "playground", "gravel", "couch"], "key_times": [931, 1164, 1665, 1959, 2185, 2431, 3041, 3190, 3296, 3422, 3542, 3744, 3811, 4111, 4484, 4702, 4887, 5077, 5391, 5507, 5911, 6127, 6258, 6380, 7145, 7849, 7910, 8063, 8290, 8408, 8557, 9318, 12404, 12546, 12674, 12792, 12930, 13342], "trial_type": "free-recall", "conditions": [12, 1600, "a", 12000], "internal_node_id": "0.0-107.0-0.0", "key_presses": [80, 73, 90, 90, 65, 13, 80, 82, 73, 77, 65, 84, 69, 13, 80, 76, 65, 89, 71, 82, 79, 85, 78, 68, 13, 71, 82, 65, 86, 69, 76, 13, 67, 79, 85, 67, 72, 13], "trial": 3, "time_elapsed": 720261, "type": "FREE_RECALL", "trial_index": 143}, "uniqueid": "MTK2931:31LM9EDVOMZE36E5WCB8PCVEGWJNJK", "dateTime": 1519591601292}, {"current_trial": 144, "trialdata": {"rt": 1553, "trial_type": "text", "internal_node_id": "0.0-108.0", "time_elapsed": 723817, "key_press": 13, "type": "INSTRUCTIONS", "trial_index": 144}, "uniqueid": "MTK2931:31LM9EDVOMZE36E5WCB8PCVEGWJNJK", "dateTime": 1519591604845}, {"current_trial": 145, "trialdata": {"rt": [2293, 4582, 7160, 10266, 11848], "trial_type": "math-distractor", "key_times": [1667, 2006, 2293, 3945, 4291, 4582, 6744, 6877, 7160, 9791, 10004, 10266, 11540, 11707, 11848], "responses": ["19", "14", "10", "20", "11"], "num2": [1, 1, 7, 6, 4, 8], "num3": [9, 6, 1, 7, 2, 7], "conditions": [12, 1600, "a", 12000], "internal_node_id": "0.0-109.0", "key_presses": [49, 57, 13, 49, 52, 13, 49, 48, 13, 50, 48, 13, 49, 49, 13], "trial": 4, "time_elapsed": 737821, "type": "DISTRACTOR", "trial_index": 145, "num1": [9, 7, 2, 7, 5, 7]}, "uniqueid": "MTK2931:31LM9EDVOMZE36E5WCB8PCVEGWJNJK", "dateTime": 1519591618849}, {"current_trial": 146, "trialdata": {"rt": -1, "trial_type": "single-stim", "stimulus": "<p id=\"stim\">10</p>", "internal_node_id": "0.0-110.0-0.0", "time_elapsed": 740822, "key_press": -1, "trial_index": 146}, "uniqueid": "MTK2931:31LM9EDVOMZE36E5WCB8PCVEGWJNJK", "dateTime": 1519591621850}, {"current_trial": 147, "trialdata": {"rt": -1, "trial_type": "single-stim", "stimulus": "<p id=\"stim\">9</p>", "internal_node_id": "0.0-110.0-1.0", "time_elapsed": 741823, "key_press": -1, "trial_index": 147}, "uniqueid": "MTK2931:31LM9EDVOMZE36E5WCB8PCVEGWJNJK", "dateTime": 1519591622851}, {"current_trial": 148, "trialdata": {"rt": -1, "trial_type": "single-stim", "stimulus": "<p id=\"stim\">8</p>", "internal_node_id": "0.0-110.0-2.0", "time_elapsed": 742824, "key_press": -1, "trial_index": 148}, "uniqueid": "MTK2931:31LM9EDVOMZE36E5WCB8PCVEGWJNJK", "dateTime": 1519591623853}, {"current_trial": 149, "trialdata": {"rt": -1, "trial_type": "single-stim", "stimulus": "<p id=\"stim\">7</p>", "internal_node_id": "0.0-110.0-3.0", "time_elapsed": 743827, "key_press": -1, "trial_index": 149}, "uniqueid": "MTK2931:31LM9EDVOMZE36E5WCB8PCVEGWJNJK", "dateTime": 1519591624855}, {"current_trial": 150, "trialdata": {"rt": -1, "trial_type": "single-stim", "stimulus": "<p id=\"stim\">6</p>", "internal_node_id": "0.0-110.0-4.0", "time_elapsed": 744827, "key_press": -1, "trial_index": 150}, "uniqueid": "MTK2931:31LM9EDVOMZE36E5WCB8PCVEGWJNJK", "dateTime": 1519591625855}, {"current_trial": 151, "trialdata": {"rt": -1, "trial_type": "single-stim", "stimulus": "<p id=\"stim\">5</p>", "internal_node_id": "0.0-110.0-5.0", "time_elapsed": 745829, "key_press": -1, "trial_index": 151}, "uniqueid": "MTK2931:31LM9EDVOMZE36E5WCB8PCVEGWJNJK", "dateTime": 1519591626857}, {"current_trial": 152, "trialdata": {"rt": -1, "trial_type": "single-stim", "stimulus": "<p id=\"stim\">4</p>", "internal_node_id": "0.0-110.0-6.0", "time_elapsed": 746830, "key_press": -1, "trial_index": 152}, "uniqueid": "MTK2931:31LM9EDVOMZE36E5WCB8PCVEGWJNJK", "dateTime": 1519591627858}, {"current_trial": 153, "trialdata": {"rt": -1, "trial_type": "single-stim", "stimulus": "<p id=\"stim\">3</p>", "internal_node_id": "0.0-110.0-7.0", "time_elapsed": 747831, "key_press": -1, "trial_index": 153}, "uniqueid": "MTK2931:31LM9EDVOMZE36E5WCB8PCVEGWJNJK", "dateTime": 1519591628859}, {"current_trial": 154, "trialdata": {"rt": -1, "trial_type": "single-stim", "stimulus": "<p id=\"stim\">2</p>", "internal_node_id": "0.0-110.0-8.0", "time_elapsed": 748831, "key_press": -1, "trial_index": 154}, "uniqueid": "MTK2931:31LM9EDVOMZE36E5WCB8PCVEGWJNJK", "dateTime": 1519591629859}, {"current_trial": 155, "trialdata": {"rt": -1, "trial_type": "single-stim", "stimulus": "<p id=\"stim\">1</p>", "internal_node_id": "0.0-110.0-9.0", "time_elapsed": 749833, "key_press": -1, "trial_index": 155}, "uniqueid": "MTK2931:31LM9EDVOMZE36E5WCB8PCVEGWJNJK", "dateTime": 1519591630861}, {"current_trial": 156, "trialdata": {"rt": -1, "trial_type": "single-stim", "stimulus": "<p id=\"stim\">+</p>", "internal_node_id": "0.0-111.0-0.0", "time_elapsed": 751334, "key_press": -1, "type": "FIXATION", "trial_index": 156}, "uniqueid": "MTK2931:31LM9EDVOMZE36E5WCB8PCVEGWJNJK", "dateTime": 1519591632362}, {"current_trial": 157, "trialdata": {"rt": -1000, "trial_type": "single-audio", "word": "valve", "stimulus": "/static/audio/wordpool/VALVE.wav", "conditions": [12, 1600, "a", 12000], "internal_node_id": "0.0-112.0", "trial": 4, "time_elapsed": 754025, "serialpos": 0, "key_press": -1, "wordID": 1545, "type": "PRES_AUD", "trial_index": 157}, "uniqueid": "MTK2931:31LM9EDVOMZE36E5WCB8PCVEGWJNJK", "dateTime": 1519591635053}, {"current_trial": 158, "trialdata": {"rt": -1000, "trial_type": "single-audio", "word": "piston", "stimulus": "/static/audio/wordpool/PISTON.wav", "conditions": [12, 1600, "a", 12000], "internal_node_id": "0.0-113.0", "trial": 4, "time_elapsed": 756463, "serialpos": 1, "key_press": -1, "wordID": 1075, "type": "PRES_AUD", "trial_index": 158}, "uniqueid": "MTK2931:31LM9EDVOMZE36E5WCB8PCVEGWJNJK", "dateTime": 1519591637491}, {"current_trial": 159, "trialdata": {"rt": -1000, "trial_type": "single-audio", "word": "fireplace", "stimulus": "/static/audio/wordpool/FIREPLACE.wav", "conditions": [12, 1600, "a", 12000], "internal_node_id": "0.0-114.0", "trial": 4, "time_elapsed": 759057, "serialpos": 2, "key_press": -1, "wordID": 569, "type": "PRES_AUD", "trial_index": 159}, "uniqueid": "MTK2931:31LM9EDVOMZE36E5WCB8PCVEGWJNJK", "dateTime": 1519591640085}, {"current_trial": 160, "trialdata": {"rt": -1000, "trial_type": "single-audio", "word": "knife", "stimulus": "/static/audio/wordpool/KNIFE.wav", "conditions": [12, 1600, "a", 12000], "internal_node_id": "0.0-115.0", "trial": 4, "time_elapsed": 761525, "serialpos": 3, "key_press": -1, "wordID": 784, "type": "PRES_AUD", "trial_index": 160}, "uniqueid": "MTK2931:31LM9EDVOMZE36E5WCB8PCVEGWJNJK", "dateTime": 1519591642553}, {"current_trial": 161, "trialdata": {"rt": -1000, "trial_type": "single-audio", "word": "canal", "stimulus": "/static/audio/wordpool/CANAL.wav", "conditions": [12, 1600, "a", 12000], "internal_node_id": "0.0-116.0", "trial": 4, "time_elapsed": 764103, "serialpos": 4, "key_press": -1, "wordID": 225, "type": "PRES_AUD", "trial_index": 161}, "uniqueid": "MTK2931:31LM9EDVOMZE36E5WCB8PCVEGWJNJK", "dateTime": 1519591645131}, {"current_trial": 162, "trialdata": {"rt": -1000, "trial_type": "single-audio", "word": "award", "stimulus": "/static/audio/wordpool/AWARD.wav", "conditions": [12, 1600, "a", 12000], "internal_node_id": "0.0-117.0", "trial": 4, "time_elapsed": 766802, "serialpos": 5, "key_press": -1, "wordID": 62, "type": "PRES_AUD", "trial_index": 162}, "uniqueid": "MTK2931:31LM9EDVOMZE36E5WCB8PCVEGWJNJK", "dateTime": 1519591647830}, {"current_trial": 163, "trialdata": {"rt": -1000, "trial_type": "single-audio", "word": "actress", "stimulus": "/static/audio/wordpool/ACTRESS.wav", "conditions": [12, 1600, "a", 12000], "internal_node_id": "0.0-118.0", "trial": 4, "time_elapsed": 769286, "serialpos": 6, "key_press": -1, "wordID": 5, "type": "PRES_AUD", "trial_index": 163}, "uniqueid": "MTK2931:31LM9EDVOMZE36E5WCB8PCVEGWJNJK", "dateTime": 1519591650314}, {"current_trial": 164, "trialdata": {"rt": -1000, "trial_type": "single-audio", "word": "report", "stimulus": "/static/audio/wordpool/REPORT.wav", "conditions": [12, 1600, "a", 12000], "internal_node_id": "0.0-119.0", "trial": 4, "time_elapsed": 771842, "serialpos": 7, "key_press": -1, "wordID": 1183, "type": "PRES_AUD", "trial_index": 164}, "uniqueid": "MTK2931:31LM9EDVOMZE36E5WCB8PCVEGWJNJK", "dateTime": 1519591652870}, {"current_trial": 165, "trialdata": {"rt": -1000, "trial_type": "single-audio", "word": "forest", "stimulus": "/static/audio/wordpool/FOREST.wav", "conditions": [12, 1600, "a", 12000], "internal_node_id": "0.0-120.0", "trial": 4, "time_elapsed": 774385, "serialpos": 8, "key_press": -1, "wordID": 592, "type": "PRES_AUD", "trial_index": 165}, "uniqueid": "MTK2931:31LM9EDVOMZE36E5WCB8PCVEGWJNJK", "dateTime": 1519591655413}, {"current_trial": 166, "trialdata": {"rt": -1000, "trial_type": "single-audio", "word": "pistol", "stimulus": "/static/audio/wordpool/PISTOL.wav", "conditions": [12, 1600, "a", 12000], "internal_node_id": "0.0-121.0", "trial": 4, "time_elapsed": 777038, "serialpos": 9, "key_press": -1, "wordID": 1074, "type": "PRES_AUD", "trial_index": 166}, "uniqueid": "MTK2931:31LM9EDVOMZE36E5WCB8PCVEGWJNJK", "dateTime": 1519591658066}, {"current_trial": 167, "trialdata": {"rt": -1000, "trial_type": "single-audio", "word": "robin", "stimulus": "/static/audio/wordpool/ROBIN.wav", "conditions": [12, 1600, "a", 12000], "internal_node_id": "0.0-122.0", "trial": 4, "time_elapsed": 779548, "serialpos": 10, "key_press": -1, "wordID": 1198, "type": "PRES_AUD", "trial_index": 167}, "uniqueid": "MTK2931:31LM9EDVOMZE36E5WCB8PCVEGWJNJK", "dateTime": 1519591660576}, {"current_trial": 168, "trialdata": {"rt": -1000, "trial_type": "single-audio", "word": "taxi", "stimulus": "/static/audio/wordpool/TAXI.wav", "conditions": [12, 1600, "a", 12000], "internal_node_id": "0.0-123.0", "trial": 4, "time_elapsed": 782267, "serialpos": 11, "key_press": -1, "wordID": 1437, "type": "PRES_AUD", "trial_index": 168}, "uniqueid": "MTK2931:31LM9EDVOMZE36E5WCB8PCVEGWJNJK", "dateTime": 1519591663295}, {"current_trial": 169, "trialdata": {"rt": -1, "trial_type": "single-stim", "stimulus": "", "internal_node_id": "0.0-124.0-0.0", "time_elapsed": 783576, "key_press": -1, "type": "PRE_RECALL_DELAY", "trial_index": 169}, "uniqueid": "MTK2931:31LM9EDVOMZE36E5WCB8PCVEGWJNJK", "dateTime": 1519591664604}, {"current_trial": 170, "trialdata": {"rt": -1000, "trial_type": "single-audio", "stimulus": "/static/audio/400Hz.wav", "internal_node_id": "0.0-125.0", "time_elapsed": 784077, "key_press": -1, "type": "PRE_RECALL_ALERT", "trial_index": 170}, "uniqueid": "MTK2931:31LM9EDVOMZE36E5WCB8PCVEGWJNJK", "dateTime": 1519591665105}, {"current_trial": 171, "trialdata": {"rt": [2168, 3856, 5511, 7595, 9306, 12990, 14933, 19117, 24226, 46951], "recwords": ["taxi", "robin", "pistol", "actress", "award", "fireplace", "valve", "piston", "knife", "report"], "key_times": [1086, 1311, 1494, 1754, 2168, 2550, 2712, 2981, 3090, 3266, 3856, 4505, 4727, 4820, 4993, 5051, 5262, 5511, 5699, 5919, 6180, 6280, 6410, 6770, 6933, 7011, 7069, 7288, 7440, 7595, 8018, 8252, 8406, 8724, 8960, 9306, 11579, 11695, 11794, 11895, 11968, 12173, 12292, 12486, 12585, 12990, 13816, 13971, 14128, 14331, 14385, 14933, 17753, 17979, 18093, 18313, 18365, 18531, 19117, 22522, 22628, 22807, 23076, 23596, 24226, 46251, 46343, 46450, 46506, 46599, 46773, 46951], "trial_type": "free-recall", "conditions": [12, 1600, "a", 12000], "internal_node_id": "0.0-126.0-0.0", "key_presses": [84, 65, 88, 73, 13, 82, 79, 66, 73, 78, 13, 80, 73, 83, 84, 79, 76, 13, 65, 67, 84, 69, 82, 8, 8, 82, 69, 83, 83, 13, 65, 87, 65, 82, 68, 13, 70, 73, 82, 69, 80, 76, 65, 67, 69, 13, 86, 65, 76, 86, 69, 13, 80, 73, 83, 84, 79, 78, 13, 75, 78, 73, 70, 69, 13, 82, 69, 80, 79, 82, 84, 13], "trial": 4, "time_elapsed": 844078, "type": "FREE_RECALL", "trial_index": 171}, "uniqueid": "MTK2931:31LM9EDVOMZE36E5WCB8PCVEGWJNJK", "dateTime": 1519591725108}, {"current_trial": 172, "trialdata": {"rt": 1066, "trial_type": "text", "internal_node_id": "0.0-127.0", "time_elapsed": 847146, "key_press": 13, "type": "INSTRUCTIONS", "trial_index": 172}, "uniqueid": "MTK2931:31LM9EDVOMZE36E5WCB8PCVEGWJNJK", "dateTime": 1519591728174}, {"current_trial": 173, "trialdata": {"rt": [1822, 3721, 5221, 7015, 8837, 11058, 13430, 16274], "trial_type": "math-distractor", "key_times": [1565, 1667, 1822, 3462, 3721, 4606, 4945, 5221, 6249, 6759, 7015, 8288, 8575, 8837, 10606, 10847, 11058, 12872, 13430, 15428, 16055, 16274, 18561, 20640, 23768, 23946], "responses": ["21", "8", "18", "14", "14", "21", "5", "17"], "num2": [7, 3, 4, 2, 5, 9, 1, 6, 8], "num3": [7, 4, 8, 9, 5, 6, 2, 8, 8], "conditions": [12, 800, "a", 24000], "internal_node_id": "0.0-128.0", "key_presses": [50, 49, 13, 56, 13, 49, 56, 13, 49, 52, 13, 49, 52, 13, 50, 49, 13, 53, 13, 49, 55, 13, 50, 52, 8, 51], "trial": 5, "time_elapsed": 873150, "type": "DISTRACTOR", "trial_index": 173, "num1": [7, 1, 6, 3, 4, 6, 2, 3, 7]}, "uniqueid": "MTK2931:31LM9EDVOMZE36E5WCB8PCVEGWJNJK", "dateTime": 1519591754178}, {"current_trial": 174, "trialdata": {"rt": -1, "trial_type": "single-stim", "stimulus": "<p id=\"stim\">10</p>", "internal_node_id": "0.0-129.0-0.0", "time_elapsed": 876151, "key_press": -1, "trial_index": 174}, "uniqueid": "MTK2931:31LM9EDVOMZE36E5WCB8PCVEGWJNJK", "dateTime": 1519591757179}, {"current_trial": 175, "trialdata": {"rt": -1, "trial_type": "single-stim", "stimulus": "<p id=\"stim\">9</p>", "internal_node_id": "0.0-129.0-1.0", "time_elapsed": 877152, "key_press": -1, "trial_index": 175}, "uniqueid": "MTK2931:31LM9EDVOMZE36E5WCB8PCVEGWJNJK", "dateTime": 1519591758180}, {"current_trial": 176, "trialdata": {"rt": -1, "trial_type": "single-stim", "stimulus": "<p id=\"stim\">8</p>", "internal_node_id": "0.0-129.0-2.0", "time_elapsed": 878153, "key_press": -1, "trial_index": 176}, "uniqueid": "MTK2931:31LM9EDVOMZE36E5WCB8PCVEGWJNJK", "dateTime": 1519591759181}, {"current_trial": 177, "trialdata": {"rt": -1, "trial_type": "single-stim", "stimulus": "<p id=\"stim\">7</p>", "internal_node_id": "0.0-129.0-3.0", "time_elapsed": 879155, "key_press": -1, "trial_index": 177}, "uniqueid": "MTK2931:31LM9EDVOMZE36E5WCB8PCVEGWJNJK", "dateTime": 1519591760183}, {"current_trial": 178, "trialdata": {"rt": -1, "trial_type": "single-stim", "stimulus": "<p id=\"stim\">6</p>", "internal_node_id": "0.0-129.0-4.0", "time_elapsed": 880155, "key_press": -1, "trial_index": 178}, "uniqueid": "MTK2931:31LM9EDVOMZE36E5WCB8PCVEGWJNJK", "dateTime": 1519591761183}, {"current_trial": 179, "trialdata": {"rt": -1, "trial_type": "single-stim", "stimulus": "<p id=\"stim\">5</p>", "internal_node_id": "0.0-129.0-5.0", "time_elapsed": 881158, "key_press": -1, "trial_index": 179}, "uniqueid": "MTK2931:31LM9EDVOMZE36E5WCB8PCVEGWJNJK", "dateTime": 1519591762186}, {"current_trial": 180, "trialdata": {"rt": -1, "trial_type": "single-stim", "stimulus": "<p id=\"stim\">4</p>", "internal_node_id": "0.0-129.0-6.0", "time_elapsed": 882158, "key_press": -1, "trial_index": 180}, "uniqueid": "MTK2931:31LM9EDVOMZE36E5WCB8PCVEGWJNJK", "dateTime": 1519591763186}, {"current_trial": 181, "trialdata": {"rt": -1, "trial_type": "single-stim", "stimulus": "<p id=\"stim\">3</p>", "internal_node_id": "0.0-129.0-7.0", "time_elapsed": 883159, "key_press": -1, "trial_index": 181}, "uniqueid": "MTK2931:31LM9EDVOMZE36E5WCB8PCVEGWJNJK", "dateTime": 1519591764187}, {"current_trial": 182, "trialdata": {"rt": -1, "trial_type": "single-stim", "stimulus": "<p id=\"stim\">2</p>", "internal_node_id": "0.0-129.0-8.0", "time_elapsed": 884160, "key_press": -1, "trial_index": 182}, "uniqueid": "MTK2931:31LM9EDVOMZE36E5WCB8PCVEGWJNJK", "dateTime": 1519591765188}, {"current_trial": 183, "trialdata": {"rt": -1, "trial_type": "single-stim", "stimulus": "<p id=\"stim\">1</p>", "internal_node_id": "0.0-129.0-9.0", "time_elapsed": 885162, "key_press": -1, "trial_index": 183}, "uniqueid": "MTK2931:31LM9EDVOMZE36E5WCB8PCVEGWJNJK", "dateTime": 1519591766190}, {"current_trial": 184, "trialdata": {"rt": -1, "trial_type": "single-stim", "stimulus": "<p id=\"stim\">+</p>", "internal_node_id": "0.0-130.0-0.0", "time_elapsed": 886662, "key_press": -1, "type": "FIXATION", "trial_index": 184}, "uniqueid": "MTK2931:31LM9EDVOMZE36E5WCB8PCVEGWJNJK", "dateTime": 1519591767690}, {"current_trial": 185, "trialdata": {"rt": -1000, "trial_type": "single-audio", "word": "camel", "stimulus": "/static/audio/wordpool/CAMEL.wav", "conditions": [12, 800, "a", 24000], "internal_node_id": "0.0-131.0", "trial": 5, "time_elapsed": 888302, "serialpos": 0, "key_press": -1, "wordID": 222, "type": "PRES_AUD", "trial_index": 185}, "uniqueid": "MTK2931:31LM9EDVOMZE36E5WCB8PCVEGWJNJK", "dateTime": 1519591769330}, {"current_trial": 186, "trialdata": {"rt": -1000, "trial_type": "single-audio", "word": "baby", "stimulus": "/static/audio/wordpool/BABY.wav", "conditions": [12, 800, "a", 24000], "internal_node_id": "0.0-132.0", "trial": 5, "time_elapsed": 889913, "serialpos": 1, "key_press": -1, "wordID": 63, "type": "PRES_AUD", "trial_index": 186}, "uniqueid": "MTK2931:31LM9EDVOMZE36E5WCB8PCVEGWJNJK", "dateTime": 1519591770941}, {"current_trial": 187, "trialdata": {"rt": -1000, "trial_type": "single-audio", "word": "beaver", "stimulus": "/static/audio/wordpool/BEAVER.wav", "conditions": [12, 800, "a", 24000], "internal_node_id": "0.0-133.0", "trial": 5, "time_elapsed": 891578, "serialpos": 2, "key_press": -1, "wordID": 108, "type": "PRES_AUD", "trial_index": 187}, "uniqueid": "MTK2931:31LM9EDVOMZE36E5WCB8PCVEGWJNJK", "dateTime": 1519591772606}, {"current_trial": 188, "trialdata": {"rt": -1000, "trial_type": "single-audio", "word": "cashier", "stimulus": "/static/audio/wordpool/CASHIER.wav", "conditions": [12, 800, "a", 24000], "internal_node_id": "0.0-134.0", "trial": 5, "time_elapsed": 893238, "serialpos": 3, "key_press": -1, "wordID": 253, "type": "PRES_AUD", "trial_index": 188}, "uniqueid": "MTK2931:31LM9EDVOMZE36E5WCB8PCVEGWJNJK", "dateTime": 1519591774266}, {"current_trial": 189, "trialdata": {"rt": -1000, "trial_type": "single-audio", "word": "statue", "stimulus": "/static/audio/wordpool/STATUE.wav", "conditions": [12, 800, "a", 24000], "internal_node_id": "0.0-135.0", "trial": 5, "time_elapsed": 895070, "serialpos": 4, "key_press": -1, "wordID": 1373, "type": "PRES_AUD", "trial_index": 189}, "uniqueid": "MTK2931:31LM9EDVOMZE36E5WCB8PCVEGWJNJK", "dateTime": 1519591776098}, {"current_trial": 190, "trialdata": {"rt": -1000, "trial_type": "single-audio", "word": "garden", "stimulus": "/static/audio/wordpool/GARDEN.wav", "conditions": [12, 800, "a", 24000], "internal_node_id": "0.0-136.0", "trial": 5, "time_elapsed": 896951, "serialpos": 5, "key_press": -1, "wordID": 622, "type": "PRES_AUD", "trial_index": 190}, "uniqueid": "MTK2931:31LM9EDVOMZE36E5WCB8PCVEGWJNJK", "dateTime": 1519591777979}, {"current_trial": 191, "trialdata": {"rt": -1000, "trial_type": "single-audio", "word": "shrub", "stimulus": "/static/audio/wordpool/SHRUB.wav", "conditions": [12, 800, "a", 24000], "internal_node_id": "0.0-137.0", "trial": 5, "time_elapsed": 898584, "serialpos": 6, "key_press": -1, "wordID": 1298, "type": "PRES_AUD", "trial_index": 191}, "uniqueid": "MTK2931:31LM9EDVOMZE36E5WCB8PCVEGWJNJK", "dateTime": 1519591779612}, {"current_trial": 192, "trialdata": {"rt": -1000, "trial_type": "single-audio", "word": "pastry", "stimulus": "/static/audio/wordpool/PASTRY.wav", "conditions": [12, 800, "a", 24000], "internal_node_id": "0.0-138.0", "trial": 5, "time_elapsed": 900409, "serialpos": 7, "key_press": -1, "wordID": 1021, "type": "PRES_AUD", "trial_index": 192}, "uniqueid": "MTK2931:31LM9EDVOMZE36E5WCB8PCVEGWJNJK", "dateTime": 1519591781437}, {"current_trial": 193, "trialdata": {"rt": -1000, "trial_type": "single-audio", "word": "xerox", "stimulus": "/static/audio/wordpool/XEROX.wav", "conditions": [12, 800, "a", 24000], "internal_node_id": "0.0-139.0", "trial": 5, "time_elapsed": 902036, "serialpos": 8, "key_press": -1, "wordID": 1627, "type": "PRES_AUD", "trial_index": 193}, "uniqueid": "MTK2931:31LM9EDVOMZE36E5WCB8PCVEGWJNJK", "dateTime": 1519591783065}, {"current_trial": 194, "trialdata": {"rt": -1000, "trial_type": "single-audio", "word": "ketchup", "stimulus": "/static/audio/wordpool/KETCHUP.wav", "conditions": [12, 800, "a", 24000], "internal_node_id": "0.0-140.0", "trial": 5, "time_elapsed": 903897, "serialpos": 9, "key_press": -1, "wordID": 770, "type": "PRES_AUD", "trial_index": 194}, "uniqueid": "MTK2931:31LM9EDVOMZE36E5WCB8PCVEGWJNJK", "dateTime": 1519591784925}, {"current_trial": 195, "trialdata": {"rt": -1000, "trial_type": "single-audio", "word": "ox", "stimulus": "/static/audio/wordpool/OX.wav", "conditions": [12, 800, "a", 24000], "internal_node_id": "0.0-141.0", "trial": 5, "time_elapsed": 905898, "serialpos": 10, "key_press": -1, "wordID": 993, "type": "PRES_AUD", "trial_index": 195}, "uniqueid": "MTK2931:31LM9EDVOMZE36E5WCB8PCVEGWJNJK", "dateTime": 1519591786926}, {"current_trial": 196, "trialdata": {"rt": -1000, "trial_type": "single-audio", "word": "sculpture", "stimulus": "/static/audio/wordpool/SCULPTURE.wav", "conditions": [12, 800, "a", 24000], "internal_node_id": "0.0-142.0", "trial": 5, "time_elapsed": 907681, "serialpos": 11, "key_press": -1, "wordID": 1257, "type": "PRES_AUD", "trial_index": 196}, "uniqueid": "MTK2931:31LM9EDVOMZE36E5WCB8PCVEGWJNJK", "dateTime": 1519591788710}, {"current_trial": 197, "trialdata": {"rt": -1, "trial_type": "single-stim", "stimulus": "", "internal_node_id": "0.0-143.0-0.0", "time_elapsed": 909005, "key_press": -1, "type": "PRE_RECALL_DELAY", "trial_index": 197}, "uniqueid": "MTK2931:31LM9EDVOMZE36E5WCB8PCVEGWJNJK", "dateTime": 1519591790033}, {"current_trial": 198, "trialdata": {"rt": -1000, "trial_type": "single-audio", "stimulus": "/static/audio/400Hz.wav", "internal_node_id": "0.0-144.0", "time_elapsed": 909512, "key_press": -1, "type": "PRE_RECALL_ALERT", "trial_index": 198}, "uniqueid": "MTK2931:31LM9EDVOMZE36E5WCB8PCVEGWJNJK", "dateTime": 1519591790540}, {"current_trial": 199, "trialdata": {"rt": [3118, 4305, 7588, 19962, 23567], "recwords": ["sculpture", "ox", "ketchup", "xerox", "baby"], "key_times": [1126, 1250, 1498, 1854, 2097, 2247, 2364, 2495, 2581, 3118, 3491, 3772, 4305, 5084, 5189, 5402, 5645, 5802, 5853, 6932, 7588, 18835, 19110, 19219, 19400, 19689, 19962, 22841, 22918, 23053, 23225, 23567], "trial_type": "free-recall", "conditions": [12, 800, "a", 24000], "internal_node_id": "0.0-145.0-0.0", "key_presses": [83, 67, 85, 76, 80, 84, 85, 82, 69, 13, 79, 88, 13, 75, 69, 84, 67, 72, 85, 80, 13, 88, 69, 82, 79, 88, 13, 66, 65, 66, 89, 13], "trial": 5, "time_elapsed": 969513, "type": "FREE_RECALL", "trial_index": 199}, "uniqueid": "MTK2931:31LM9EDVOMZE36E5WCB8PCVEGWJNJK", "dateTime": 1519591850543}, {"current_trial": 200, "trialdata": {"rt": 489, "trial_type": "text", "internal_node_id": "0.0-146.0", "time_elapsed": 972005, "key_press": 13, "type": "INSTRUCTIONS", "trial_index": 200}, "uniqueid": "MTK2931:31LM9EDVOMZE36E5WCB8PCVEGWJNJK", "dateTime": 1519591853034}, {"current_trial": 201, "trialdata": {"rt": [2522, 4076, 5776, 7508, 9394, 11506], "trial_type": "math-distractor", "key_times": [2073, 2241, 2522, 3881, 4076, 5443, 5776, 7019, 7277, 7508, 8911, 9197, 9394, 10888, 11286, 11506], "responses": ["20", "6", "9", "14", "15", "16"], "num2": [8, 4, 1, 2, 7, 4, 6], "num3": [4, 1, 5, 6, 7, 9, 8], "conditions": [12, 800, "a", 12000], "internal_node_id": "0.0-147.0", "key_presses": [50, 48, 13, 54, 13, 57, 13, 49, 52, 13, 49, 53, 13, 49, 54, 13], "trial": 6, "time_elapsed": 986008, "type": "DISTRACTOR", "trial_index": 201, "num1": [8, 1, 3, 6, 1, 3, 1]}, "uniqueid": "MTK2931:31LM9EDVOMZE36E5WCB8PCVEGWJNJK", "dateTime": 1519591867036}, {"current_trial": 202, "trialdata": {"rt": -1, "trial_type": "single-stim", "stimulus": "<p id=\"stim\">10</p>", "internal_node_id": "0.0-148.0-0.0", "time_elapsed": 989010, "key_press": -1, "trial_index": 202}, "uniqueid": "MTK2931:31LM9EDVOMZE36E5WCB8PCVEGWJNJK", "dateTime": 1519591870038}, {"current_trial": 203, "trialdata": {"rt": -1, "trial_type": "single-stim", "stimulus": "<p id=\"stim\">9</p>", "internal_node_id": "0.0-148.0-1.0", "time_elapsed": 990013, "key_press": -1, "trial_index": 203}, "uniqueid": "MTK2931:31LM9EDVOMZE36E5WCB8PCVEGWJNJK", "dateTime": 1519591871041}, {"current_trial": 204, "trialdata": {"rt": -1, "trial_type": "single-stim", "stimulus": "<p id=\"stim\">8</p>", "internal_node_id": "0.0-148.0-2.0", "time_elapsed": 991015, "key_press": -1, "trial_index": 204}, "uniqueid": "MTK2931:31LM9EDVOMZE36E5WCB8PCVEGWJNJK", "dateTime": 1519591872043}, {"current_trial": 205, "trialdata": {"rt": -1, "trial_type": "single-stim", "stimulus": "<p id=\"stim\">7</p>", "internal_node_id": "0.0-148.0-3.0", "time_elapsed": 992017, "key_press": -1, "trial_index": 205}, "uniqueid": "MTK2931:31LM9EDVOMZE36E5WCB8PCVEGWJNJK", "dateTime": 1519591873045}, {"current_trial": 206, "trialdata": {"rt": -1, "trial_type": "single-stim", "stimulus": "<p id=\"stim\">6</p>", "internal_node_id": "0.0-148.0-4.0", "time_elapsed": 993018, "key_press": -1, "trial_index": 206}, "uniqueid": "MTK2931:31LM9EDVOMZE36E5WCB8PCVEGWJNJK", "dateTime": 1519591874046}, {"current_trial": 207, "trialdata": {"rt": -1, "trial_type": "single-stim", "stimulus": "<p id=\"stim\">5</p>", "internal_node_id": "0.0-148.0-5.0", "time_elapsed": 994020, "key_press": -1, "trial_index": 207}, "uniqueid": "MTK2931:31LM9EDVOMZE36E5WCB8PCVEGWJNJK", "dateTime": 1519591875048}, {"current_trial": 208, "trialdata": {"rt": -1, "trial_type": "single-stim", "stimulus": "<p id=\"stim\">4</p>", "internal_node_id": "0.0-148.0-6.0", "time_elapsed": 995020, "key_press": -1, "trial_index": 208}, "uniqueid": "MTK2931:31LM9EDVOMZE36E5WCB8PCVEGWJNJK", "dateTime": 1519591876049}, {"current_trial": 209, "trialdata": {"rt": -1, "trial_type": "single-stim", "stimulus": "<p id=\"stim\">3</p>", "internal_node_id": "0.0-148.0-7.0", "time_elapsed": 996022, "key_press": -1, "trial_index": 209}, "uniqueid": "MTK2931:31LM9EDVOMZE36E5WCB8PCVEGWJNJK", "dateTime": 1519591877050}, {"current_trial": 210, "trialdata": {"rt": -1, "trial_type": "single-stim", "stimulus": "<p id=\"stim\">2</p>", "internal_node_id": "0.0-148.0-8.0", "time_elapsed": 997023, "key_press": -1, "trial_index": 210}, "uniqueid": "MTK2931:31LM9EDVOMZE36E5WCB8PCVEGWJNJK", "dateTime": 1519591878051}, {"current_trial": 211, "trialdata": {"rt": -1, "trial_type": "single-stim", "stimulus": "<p id=\"stim\">1</p>", "internal_node_id": "0.0-148.0-9.0", "time_elapsed": 998025, "key_press": -1, "trial_index": 211}, "uniqueid": "MTK2931:31LM9EDVOMZE36E5WCB8PCVEGWJNJK", "dateTime": 1519591879053}, {"current_trial": 212, "trialdata": {"rt": -1, "trial_type": "single-stim", "stimulus": "<p id=\"stim\">+</p>", "internal_node_id": "0.0-149.0-0.0", "time_elapsed": 999526, "key_press": -1, "type": "FIXATION", "trial_index": 212}, "uniqueid": "MTK2931:31LM9EDVOMZE36E5WCB8PCVEGWJNJK", "dateTime": 1519591880554}, {"current_trial": 213, "trialdata": {"rt": -1000, "trial_type": "single-audio", "word": "crab", "stimulus": "/static/audio/wordpool/CRAB.wav", "conditions": [12, 800, "a", 12000], "internal_node_id": "0.0-150.0", "trial": 6, "time_elapsed": 1001252, "serialpos": 0, "key_press": -1, "wordID": 396, "type": "PRES_AUD", "trial_index": 213}, "uniqueid": "MTK2931:31LM9EDVOMZE36E5WCB8PCVEGWJNJK", "dateTime": 1519591882280}, {"current_trial": 214, "trialdata": {"rt": -1000, "trial_type": "single-audio", "word": "scallop", "stimulus": "/static/audio/wordpool/SCALLOP.wav", "conditions": [12, 800, "a", 12000], "internal_node_id": "0.0-151.0", "trial": 6, "time_elapsed": 1003098, "serialpos": 1, "key_press": -1, "wordID": 1241, "type": "PRES_AUD", "trial_index": 214}, "uniqueid": "MTK2931:31LM9EDVOMZE36E5WCB8PCVEGWJNJK", "dateTime": 1519591884127}, {"current_trial": 215, "trialdata": {"rt": -1000, "trial_type": "single-audio", "word": "burglar", "stimulus": "/static/audio/wordpool/BURGLAR.wav", "conditions": [12, 800, "a", 12000], "internal_node_id": "0.0-152.0", "trial": 6, "time_elapsed": 1005069, "serialpos": 2, "key_press": -1, "wordID": 199, "type": "PRES_AUD", "trial_index": 215}, "uniqueid": "MTK2931:31LM9EDVOMZE36E5WCB8PCVEGWJNJK", "dateTime": 1519591886097}, {"current_trial": 216, "trialdata": {"rt": -1000, "trial_type": "single-audio", "word": "thief", "stimulus": "/static/audio/wordpool/THIEF.wav", "conditions": [12, 800, "a", 12000], "internal_node_id": "0.0-153.0", "trial": 6, "time_elapsed": 1007035, "serialpos": 3, "key_press": -1, "wordID": 1455, "type": "PRES_AUD", "trial_index": 216}, "uniqueid": "MTK2931:31LM9EDVOMZE36E5WCB8PCVEGWJNJK", "dateTime": 1519591888063}, {"current_trial": 217, "trialdata": {"rt": -1000, "trial_type": "single-audio", "word": "muffin", "stimulus": "/static/audio/wordpool/MUFFIN.wav", "conditions": [12, 800, "a", 12000], "internal_node_id": "0.0-154.0", "trial": 6, "time_elapsed": 1008897, "serialpos": 4, "key_press": -1, "wordID": 928, "type": "PRES_AUD", "trial_index": 217}, "uniqueid": "MTK2931:31LM9EDVOMZE36E5WCB8PCVEGWJNJK", "dateTime": 1519591889925}, {"current_trial": 218, "trialdata": {"rt": -1000, "trial_type": "single-audio", "word": "milk", "stimulus": "/static/audio/wordpool/MILK.wav", "conditions": [12, 800, "a", 12000], "internal_node_id": "0.0-155.0", "trial": 6, "time_elapsed": 1010781, "serialpos": 5, "key_press": -1, "wordID": 894, "type": "PRES_AUD", "trial_index": 218}, "uniqueid": "MTK2931:31LM9EDVOMZE36E5WCB8PCVEGWJNJK", "dateTime": 1519591891809}, {"current_trial": 219, "trialdata": {"rt": -1000, "trial_type": "single-audio", "word": "bug", "stimulus": "/static/audio/wordpool/BUG.wav", "conditions": [12, 800, "a", 12000], "internal_node_id": "0.0-156.0", "trial": 6, "time_elapsed": 1012699, "serialpos": 6, "key_press": -1, "wordID": 186, "type": "PRES_AUD", "trial_index": 219}, "uniqueid": "MTK2931:31LM9EDVOMZE36E5WCB8PCVEGWJNJK", "dateTime": 1519591893727}, {"current_trial": 220, "trialdata": {"rt": -1000, "trial_type": "single-audio", "word": "igloo", "stimulus": "/static/audio/wordpool/IGLOO.wav", "conditions": [12, 800, "a", 12000], "internal_node_id": "0.0-157.0", "trial": 6, "time_elapsed": 1014372, "serialpos": 7, "key_press": -1, "wordID": 733, "type": "PRES_AUD", "trial_index": 220}, "uniqueid": "MTK2931:31LM9EDVOMZE36E5WCB8PCVEGWJNJK", "dateTime": 1519591895400}, {"current_trial": 221, "trialdata": {"rt": -1000, "trial_type": "single-audio", "word": "honey", "stimulus": "/static/audio/wordpool/HONEY.wav", "conditions": [12, 800, "a", 12000], "internal_node_id": "0.0-158.0", "trial": 6, "time_elapsed": 1016095, "serialpos": 8, "key_press": -1, "wordID": 712, "type": "PRES_AUD", "trial_index": 221}, "uniqueid": "MTK2931:31LM9EDVOMZE36E5WCB8PCVEGWJNJK", "dateTime": 1519591897123}, {"current_trial": 222, "trialdata": {"rt": -1000, "trial_type": "single-audio", "word": "banker", "stimulus": "/static/audio/wordpool/BANKER.wav", "conditions": [12, 800, "a", 12000], "internal_node_id": "0.0-159.0", "trial": 6, "time_elapsed": 1017777, "serialpos": 9, "key_press": -1, "wordID": 83, "type": "PRES_AUD", "trial_index": 222}, "uniqueid": "MTK2931:31LM9EDVOMZE36E5WCB8PCVEGWJNJK", "dateTime": 1519591898805}, {"current_trial": 223, "trialdata": {"rt": -1000, "trial_type": "single-audio", "word": "snake", "stimulus": "/static/audio/wordpool/SNAKE.wav", "conditions": [12, 800, "a", 12000], "internal_node_id": "0.0-160.0", "trial": 6, "time_elapsed": 1019390, "serialpos": 10, "key_press": -1, "wordID": 1332, "type": "PRES_AUD", "trial_index": 223}, "uniqueid": "MTK2931:31LM9EDVOMZE36E5WCB8PCVEGWJNJK", "dateTime": 1519591900418}, {"current_trial": 224, "trialdata": {"rt": -1000, "trial_type": "single-audio", "word": "bunny", "stimulus": "/static/audio/wordpool/BUNNY.wav", "conditions": [12, 800, "a", 12000], "internal_node_id": "0.0-161.0", "trial": 6, "time_elapsed": 1021204, "serialpos": 11, "key_press": -1, "wordID": 197, "type": "PRES_AUD", "trial_index": 224}, "uniqueid": "MTK2931:31LM9EDVOMZE36E5WCB8PCVEGWJNJK", "dateTime": 1519591902232}, {"current_trial": 225, "trialdata": {"rt": -1, "trial_type": "single-stim", "stimulus": "", "internal_node_id": "0.0-162.0-0.0", "time_elapsed": 1022450, "key_press": -1, "type": "PRE_RECALL_DELAY", "trial_index": 225}, "uniqueid": "MTK2931:31LM9EDVOMZE36E5WCB8PCVEGWJNJK", "dateTime": 1519591903478}, {"current_trial": 226, "trialdata": {"rt": -1000, "trial_type": "single-audio", "stimulus": "/static/audio/400Hz.wav", "internal_node_id": "0.0-163.0", "time_elapsed": 1022957, "key_press": -1, "type": "PRE_RECALL_ALERT", "trial_index": 226}, "uniqueid": "MTK2931:31LM9EDVOMZE36E5WCB8PCVEGWJNJK", "dateTime": 1519591903985}, {"current_trial": 227, "trialdata": {"rt": [2351, 3612, 5591, 17154, 24236, 49009], "recwords": ["bunny", "snake", "igloo", "thief", "burglar", "muffin"], "key_times": [1147, 1267, 1510, 1692, 1921, 2351, 2734, 2913, 3035, 3138, 3284, 3612, 4010, 4260, 4404, 4628, 4824, 5591, 15867, 16017, 16075, 16179, 16510, 17154, 22298, 22397, 22588, 22704, 23126, 23422, 23657, 24236, 48102, 48246, 48430, 48583, 48664, 48746, 49009], "trial_type": "free-recall", "conditions": [12, 800, "a", 12000], "internal_node_id": "0.0-164.0-0.0", "key_presses": [66, 85, 78, 78, 89, 13, 83, 78, 65, 75, 69, 13, 73, 71, 76, 79, 79, 13, 84, 72, 73, 69, 70, 13, 66, 85, 82, 71, 76, 65, 82, 13, 77, 85, 70, 70, 73, 78, 13], "trial": 6, "time_elapsed": 1082959, "type": "FREE_RECALL", "trial_index": 227}, "uniqueid": "MTK2931:31LM9EDVOMZE36E5WCB8PCVEGWJNJK", "dateTime": 1519591963989}, {"current_trial": 228, "trialdata": {"rt": 1764, "trial_type": "text", "internal_node_id": "0.0-165.0", "time_elapsed": 1086726, "key_press": 13, "type": "INSTRUCTIONS", "trial_index": 228}, "uniqueid": "MTK2931:31LM9EDVOMZE36E5WCB8PCVEGWJNJK", "dateTime": 1519591967755}, {"current_trial": 229, "trialdata": {"rt": [2461, 4771, 8502, 10024], "trial_type": "math-distractor", "key_times": [2130, 2305, 2461, 4397, 4493, 4771, 7199, 7293, 8502, 9597, 9894, 10024, 11851], "responses": ["11", "12", "12", "13"], "num2": [2, 3, 7, 1, 8], "num3": [4, 6, 2, 8, 2], "conditions": [24, 800, "a", 12000], "internal_node_id": "0.0-166.0", "key_presses": [49, 49, 13, 49, 50, 13, 49, 50, 13, 49, 51, 13, 49], "trial": 7, "time_elapsed": 1100731, "type": "DISTRACTOR", "trial_index": 229, "num1": [5, 3, 3, 4, 4]}, "uniqueid": "MTK2931:31LM9EDVOMZE36E5WCB8PCVEGWJNJK", "dateTime": 1519591981759}, {"current_trial": 230, "trialdata": {"rt": -1, "trial_type": "single-stim", "stimulus": "<p id=\"stim\">10</p>", "internal_node_id": "0.0-167.0-0.0", "time_elapsed": 1103732, "key_press": -1, "trial_index": 230}, "uniqueid": "MTK2931:31LM9EDVOMZE36E5WCB8PCVEGWJNJK", "dateTime": 1519591984760}, {"current_trial": 231, "trialdata": {"rt": -1, "trial_type": "single-stim", "stimulus": "<p id=\"stim\">9</p>", "internal_node_id": "0.0-167.0-1.0", "time_elapsed": 1104734, "key_press": -1, "trial_index": 231}, "uniqueid": "MTK2931:31LM9EDVOMZE36E5WCB8PCVEGWJNJK", "dateTime": 1519591985762}, {"current_trial": 232, "trialdata": {"rt": -1, "trial_type": "single-stim", "stimulus": "<p id=\"stim\">8</p>", "internal_node_id": "0.0-167.0-2.0", "time_elapsed": 1105735, "key_press": -1, "trial_index": 232}, "uniqueid": "MTK2931:31LM9EDVOMZE36E5WCB8PCVEGWJNJK", "dateTime": 1519591986763}, {"current_trial": 233, "trialdata": {"rt": -1, "trial_type": "single-stim", "stimulus": "<p id=\"stim\">7</p>", "internal_node_id": "0.0-167.0-3.0", "time_elapsed": 1106738, "key_press": -1, "trial_index": 233}, "uniqueid": "MTK2931:31LM9EDVOMZE36E5WCB8PCVEGWJNJK", "dateTime": 1519591987766}, {"current_trial": 234, "trialdata": {"rt": -1, "trial_type": "single-stim", "stimulus": "<p id=\"stim\">6</p>", "internal_node_id": "0.0-167.0-4.0", "time_elapsed": 1107738, "key_press": -1, "trial_index": 234}, "uniqueid": "MTK2931:31LM9EDVOMZE36E5WCB8PCVEGWJNJK", "dateTime": 1519591988766}, {"current_trial": 235, "trialdata": {"rt": -1, "trial_type": "single-stim", "stimulus": "<p id=\"stim\">5</p>", "internal_node_id": "0.0-167.0-5.0", "time_elapsed": 1108740, "key_press": -1, "trial_index": 235}, "uniqueid": "MTK2931:31LM9EDVOMZE36E5WCB8PCVEGWJNJK", "dateTime": 1519591989768}, {"current_trial": 236, "trialdata": {"rt": -1, "trial_type": "single-stim", "stimulus": "<p id=\"stim\">4</p>", "internal_node_id": "0.0-167.0-6.0", "time_elapsed": 1109741, "key_press": -1, "trial_index": 236}, "uniqueid": "MTK2931:31LM9EDVOMZE36E5WCB8PCVEGWJNJK", "dateTime": 1519591990769}, {"current_trial": 237, "trialdata": {"rt": -1, "trial_type": "single-stim", "stimulus": "<p id=\"stim\">3</p>", "internal_node_id": "0.0-167.0-7.0", "time_elapsed": 1110743, "key_press": -1, "trial_index": 237}, "uniqueid": "MTK2931:31LM9EDVOMZE36E5WCB8PCVEGWJNJK", "dateTime": 1519591991771}, {"current_trial": 238, "trialdata": {"rt": -1, "trial_type": "single-stim", "stimulus": "<p id=\"stim\">2</p>", "internal_node_id": "0.0-167.0-8.0", "time_elapsed": 1111744, "key_press": -1, "trial_index": 238}, "uniqueid": "MTK2931:31LM9EDVOMZE36E5WCB8PCVEGWJNJK", "dateTime": 1519591992772}, {"current_trial": 239, "trialdata": {"rt": -1, "trial_type": "single-stim", "stimulus": "<p id=\"stim\">1</p>", "internal_node_id": "0.0-167.0-9.0", "time_elapsed": 1112745, "key_press": -1, "trial_index": 239}, "uniqueid": "MTK2931:31LM9EDVOMZE36E5WCB8PCVEGWJNJK", "dateTime": 1519591993773}, {"current_trial": 240, "trialdata": {"rt": -1, "trial_type": "single-stim", "stimulus": "<p id=\"stim\">+</p>", "internal_node_id": "0.0-168.0-0.0", "time_elapsed": 1114247, "key_press": -1, "type": "FIXATION", "trial_index": 240}, "uniqueid": "MTK2931:31LM9EDVOMZE36E5WCB8PCVEGWJNJK", "dateTime": 1519591995275}, {"current_trial": 241, "trialdata": {"rt": -1000, "trial_type": "single-audio", "word": "pilot", "stimulus": "/static/audio/wordpool/PILOT.wav", "conditions": [24, 800, "a", 12000], "internal_node_id": "0.0-169.0", "trial": 7, "time_elapsed": 1116174, "serialpos": 0, "key_press": -1, "wordID": 1069, "type": "PRES_AUD", "trial_index": 241}, "uniqueid": "MTK2931:31LM9EDVOMZE36E5WCB8PCVEGWJNJK", "dateTime": 1519591997202}, {"current_trial": 242, "trialdata": {"rt": -1000, "trial_type": "single-audio", "word": "queen", "stimulus": "/static/audio/wordpool/QUEEN.wav", "conditions": [24, 800, "a", 12000], "internal_node_id": "0.0-170.0", "trial": 7, "time_elapsed": 1117989, "serialpos": 1, "key_press": -1, "wordID": 1148, "type": "PRES_AUD", "trial_index": 242}, "uniqueid": "MTK2931:31LM9EDVOMZE36E5WCB8PCVEGWJNJK", "dateTime": 1519591999017}, {"current_trial": 243, "trialdata": {"rt": -1000, "trial_type": "single-audio", "word": "blender", "stimulus": "/static/audio/wordpool/BLENDER.wav", "conditions": [24, 800, "a", 12000], "internal_node_id": "0.0-171.0", "trial": 7, "time_elapsed": 1119765, "serialpos": 2, "key_press": -1, "wordID": 135, "type": "PRES_AUD", "trial_index": 243}, "uniqueid": "MTK2931:31LM9EDVOMZE36E5WCB8PCVEGWJNJK", "dateTime": 1519592000793}, {"current_trial": 244, "trialdata": {"rt": -1000, "trial_type": "single-audio", "word": "student", "stimulus": "/static/audio/wordpool/STUDENT.wav", "conditions": [24, 800, "a", 12000], "internal_node_id": "0.0-172.0", "trial": 7, "time_elapsed": 1121713, "serialpos": 3, "key_press": -1, "wordID": 1394, "type": "PRES_AUD", "trial_index": 244}, "uniqueid": "MTK2931:31LM9EDVOMZE36E5WCB8PCVEGWJNJK", "dateTime": 1519592002741}, {"current_trial": 245, "trialdata": {"rt": -1000, "trial_type": "single-audio", "word": "soda", "stimulus": "/static/audio/wordpool/SODA.wav", "conditions": [24, 800, "a", 12000], "internal_node_id": "0.0-173.0", "trial": 7, "time_elapsed": 1123361, "serialpos": 4, "key_press": -1, "wordID": 1340, "type": "PRES_AUD", "trial_index": 245}, "uniqueid": "MTK2931:31LM9EDVOMZE36E5WCB8PCVEGWJNJK", "dateTime": 1519592004389}, {"current_trial": 246, "trialdata": {"rt": -1000, "trial_type": "single-audio", "word": "handbag", "stimulus": "/static/audio/wordpool/HANDBAG.wav", "conditions": [24, 800, "a", 12000], "internal_node_id": "0.0-174.0", "trial": 7, "time_elapsed": 1125144, "serialpos": 5, "key_press": -1, "wordID": 683, "type": "PRES_AUD", "trial_index": 246}, "uniqueid": "MTK2931:31LM9EDVOMZE36E5WCB8PCVEGWJNJK", "dateTime": 1519592006172}, {"current_trial": 247, "trialdata": {"rt": -1000, "trial_type": "single-audio", "word": "necklace", "stimulus": "/static/audio/wordpool/NECKLACE.wav", "conditions": [24, 800, "a", 12000], "internal_node_id": "0.0-175.0", "trial": 7, "time_elapsed": 1127027, "serialpos": 6, "key_press": -1, "wordID": 939, "type": "PRES_AUD", "trial_index": 247}, "uniqueid": "MTK2931:31LM9EDVOMZE36E5WCB8PCVEGWJNJK", "dateTime": 1519592008055}, {"current_trial": 248, "trialdata": {"rt": -1000, "trial_type": "single-audio", "word": "dustpan", "stimulus": "/static/audio/wordpool/DUSTPAN.wav", "conditions": [24, 800, "a", 12000], "internal_node_id": "0.0-176.0", "trial": 7, "time_elapsed": 1128926, "serialpos": 7, "key_press": -1, "wordID": 508, "type": "PRES_AUD", "trial_index": 248}, "uniqueid": "MTK2931:31LM9EDVOMZE36E5WCB8PCVEGWJNJK", "dateTime": 1519592009954}, {"current_trial": 249, "trialdata": {"rt": -1000, "trial_type": "single-audio", "word": "drink", "stimulus": "/static/audio/wordpool/DRINK.wav", "conditions": [24, 800, "a", 12000], "internal_node_id": "0.0-177.0", "trial": 7, "time_elapsed": 1130651, "serialpos": 8, "key_press": -1, "wordID": 497, "type": "PRES_AUD", "trial_index": 249}, "uniqueid": "MTK2931:31LM9EDVOMZE36E5WCB8PCVEGWJNJK", "dateTime": 1519592011679}, {"current_trial": 250, "trialdata": {"rt": -1000, "trial_type": "single-audio", "word": "lightning", "stimulus": "/static/audio/wordpool/LIGHTNING.wav", "conditions": [24, 800, "a", 12000], "internal_node_id": "0.0-178.0", "trial": 7, "time_elapsed": 1132366, "serialpos": 9, "key_press": -1, "wordID": 819, "type": "PRES_AUD", "trial_index": 250}, "uniqueid": "MTK2931:31LM9EDVOMZE36E5WCB8PCVEGWJNJK", "dateTime": 1519592013394}, {"current_trial": 251, "trialdata": {"rt": -1000, "trial_type": "single-audio", "word": "cyclone", "stimulus": "/static/audio/wordpool/CYCLONE.wav", "conditions": [24, 800, "a", 12000], "internal_node_id":