{"assignmentId": "3DY4FPOOA2V89Z6R68681KBIAHYVRK", "workerId": "MTK2405", "questiondata": {"avail_screen_height": 728, "color_depth": 24, "screen_width": 1366, "pixel_depth": 24, "avail_screen_width": 1366, "screen_height": 768}, "bonus": 0, "hitId": "3FJ2RVH25ZDRLOE9YFH9JAITOYI29N", "counterbalance": 1593, "useragent": "Mozilla/5.0 (Windows NT 6.2; Win64; x64) AppleWebKit/537.36 (KHTML, like Gecko) Chrome/63.0.3239.132 Safari/537.36", "eventdata": [{"eventtype": "initialized", "interval": 0, "value": null, "timestamp": 1517075567512}, {"eventtype": "window_resize", "interval": 0, "value": [1366, 721], "timestamp": 1517075567512}, {"eventtype": "focus", "interval": 115159, "value": "off", "timestamp": 1517075682671}, {"eventtype": "focus", "interval": 3321, "value": "on", "timestamp": 1517075685992}, {"eventtype": "focus", "interval": 14760, "value": "off", "timestamp": 1517075700752}, {"eventtype": "focus", "interval": 3021, "value": "on", "timestamp": 1517075703773}, {"eventtype": "focus", "interval": 62789, "value": "off", "timestamp": 1517075766562}, {"eventtype": "focus", "interval": 7, "value": "on", "timestamp": 1517075766569}, {"eventtype": "focus", "interval": 8556, "value": "off", "timestamp": 1517075775125}, {"eventtype": "focus", "interval": 5, "value": "on", "timestamp": 1517075775130}, {"eventtype": "focus", "interval": 8330, "value": "off", "timestamp": 1517075783460}, {"eventtype": "focus", "interval": 5, "value": "on", "timestamp": 1517075783465}, {"eventtype": "focus", "interval": 890676, "value": "off", "timestamp": 1517076674141}, {"eventtype": "focus", "interval": 7090, "value": "on", "timestamp": 1517076681231}], "data": [{"current_trial": 0, "trialdata": {"rt": 3108, "trial_type": "text", "internal_node_id": "0.0-0.0", "time_elapsed": 3128, "key_press": 74, "type": "INSTRUCTIONS", "trial_index": 0}, "uniqueid": "MTK2405:3DY4FPOOA2V89Z6R68681KBIAHYVRK", "dateTime": 1517075590931}, {"current_trial": 1, "trialdata": {"rt": 18361, "trial_type": "text", "internal_node_id": "0.0-1.0", "time_elapsed": 21493, "key_press": 74, "type": "INSTRUCTIONS", "trial_index": 1}, "uniqueid": "MTK2405:3DY4FPOOA2V89Z6R68681KBIAHYVRK", "dateTime": 1517075609297}, {"current_trial": 2, "trialdata": {"rt": [127739], "trial_type": "audio-test", "responses": ["ocean"], "internal_node_id": "0.0-2.0", "time_elapsed": 149276, "type": "AUDIO_TEST", "trial_index": 2}, "uniqueid": "MTK2405:3DY4FPOOA2V89Z6R68681KBIAHYVRK", "dateTime": 1517075737079}, {"current_trial": 3, "trialdata": {"rt": [11866], "trial_type": "audio-test", "responses": ["crystal"], "internal_node_id": "0.0-3.0", "time_elapsed": 161160, "type": "AUDIO_TEST", "trial_index": 3}, "uniqueid": "MTK2405:3DY4FPOOA2V89Z6R68681KBIAHYVRK", "dateTime": 1517075748963}, {"current_trial": 4, "trialdata": {"rt": [14808, 23427, 32795, 40824], "trial_type": "audio-test", "responses": ["bike", "bite", "vise", "spice"], "internal_node_id": "0.0-4.0", "time_elapsed": 201999, "type": "AUDIO_TEST", "trial_index": 4}, "uniqueid": "MTK2405:3DY4FPOOA2V89Z6R68681KBIAHYVRK", "dateTime": 1517075789802}, {"current_trial": 5, "trialdata": {"rt": 25954, "trial_type": "survey-text", "responses": "{\"Q0\":\"10 PM\",\"Q1\":\"8AM\",\"Q2\":\"8\"}", "internal_node_id": "0.0-5.0", "time_elapsed": 228713, "type": "SLEEP_SURVEY", "trial_index": 5}, "uniqueid": "MTK2405:3DY4FPOOA2V89Z6R68681KBIAHYVRK", "dateTime": 1517075816516}, {"current_trial": 6, "trialdata": {"rt": 36925, "trial_type": "text", "internal_node_id": "0.0-6.0", "time_elapsed": 266640, "key_press": 40, "type": "INSTRUCTIONS", "trial_index": 6}, "uniqueid": "MTK2405:3DY4FPOOA2V89Z6R68681KBIAHYVRK", "dateTime": 1517075854443}, {"current_trial": 7, "trialdata": {"rt": 4596, "trial_type": "text", "internal_node_id": "0.0-7.0", "time_elapsed": 271738, "key_press": 175, "type": "INSTRUCTIONS", "trial_index": 7}, "uniqueid": "MTK2405:3DY4FPOOA2V89Z6R68681KBIAHYVRK", "dateTime": 1517075859544}, {"current_trial": 8, "trialdata": {"rt": 48, "trial_type": "text", "internal_node_id": "0.0-8.0", "time_elapsed": 272291, "key_press": 175, "type": "INSTRUCTIONS", "trial_index": 8}, "uniqueid": "MTK2405:3DY4FPOOA2V89Z6R68681KBIAHYVRK", "dateTime": 1517075860094}, {"current_trial": 9, "trialdata": {"rt": [6742, 10466, 15558], "trial_type": "math-distractor", "key_times": [5290, 5509, 6742, 9217, 10466, 14385, 14801, 15558], "responses": ["23", "5", "13"], "num2": [7, 3, 1, 2], "num3": [8, 1, 7, 6], "conditions": [18, 1200, "a", 18000], "internal_node_id": "0.0-9.0", "key_presses": [50, 51, 13, 53, 13, 49, 51, 13], "trial": 0, "time_elapsed": 291308, "type": "DISTRACTOR", "trial_index": 9, "num1": [8, 1, 5, 5]}, "uniqueid": "MTK2405:3DY4FPOOA2V89Z6R68681KBIAHYVRK", "dateTime": 1517075879111}, {"current_trial": 10, "trialdata": {"rt": -1, "trial_type": "single-stim", "stimulus": "<p id=\"stim\">10</p>", "internal_node_id": "0.0-10.0-0.0", "time_elapsed": 294317, "key_press": -1, "trial_index": 10}, "uniqueid": "MTK2405:3DY4FPOOA2V89Z6R68681KBIAHYVRK", "dateTime": 1517075882120}, {"current_trial": 11, "trialdata": {"rt": -1, "trial_type": "single-stim", "stimulus": "<p id=\"stim\">9</p>", "internal_node_id": "0.0-10.0-1.0", "time_elapsed": 295323, "key_press": -1, "trial_index": 11}, "uniqueid": "MTK2405:3DY4FPOOA2V89Z6R68681KBIAHYVRK", "dateTime": 1517075883126}, {"current_trial": 12, "trialdata": {"rt": -1, "trial_type": "single-stim", "stimulus": "<p id=\"stim\">8</p>", "internal_node_id": "0.0-10.0-2.0", "time_elapsed": 296325, "key_press": -1, "trial_index": 12}, "uniqueid": "MTK2405:3DY4FPOOA2V89Z6R68681KBIAHYVRK", "dateTime": 1517075884130}, {"current_trial": 13, "trialdata": {"rt": -1, "trial_type": "single-stim", "stimulus": "<p id=\"stim\">7</p>", "internal_node_id": "0.0-10.0-3.0", "time_elapsed": 297331, "key_press": -1, "trial_index": 13}, "uniqueid": "MTK2405:3DY4FPOOA2V89Z6R68681KBIAHYVRK", "dateTime": 1517075885134}, {"current_trial": 14, "trialdata": {"rt": -1, "trial_type": "single-stim", "stimulus": "<p id=\"stim\">6</p>", "internal_node_id": "0.0-10.0-4.0", "time_elapsed": 298334, "key_press": -1, "trial_index": 14}, "uniqueid": "MTK2405:3DY4FPOOA2V89Z6R68681KBIAHYVRK", "dateTime": 1517075886137}, {"current_trial": 15, "trialdata": {"rt": 987, "trial_type": "single-stim", "stimulus": "<p id=\"stim\">5</p>", "internal_node_id": "0.0-10.0-5.0", "time_elapsed": 299335, "key_press": 13, "trial_index": 15}, "uniqueid": "MTK2405:3DY4FPOOA2V89Z6R68681KBIAHYVRK", "dateTime": 1517075887138}, {"current_trial": 16, "trialdata": {"rt": -1, "trial_type": "single-stim", "stimulus": "<p id=\"stim\">4</p>", "internal_node_id": "0.0-10.0-6.0", "time_elapsed": 300338, "key_press": -1, "trial_index": 16}, "uniqueid": "MTK2405:3DY4FPOOA2V89Z6R68681KBIAHYVRK", "dateTime": 1517075888141}, {"current_trial": 17, "trialdata": {"rt": -1, "trial_type": "single-stim", "stimulus": "<p id=\"stim\">3</p>", "internal_node_id": "0.0-10.0-7.0", "time_elapsed": 301341, "key_press": -1, "trial_index": 17}, "uniqueid": "MTK2405:3DY4FPOOA2V89Z6R68681KBIAHYVRK", "dateTime": 1517075889144}, {"current_trial": 18, "trialdata": {"rt": -1, "trial_type": "single-stim", "stimulus": "<p id=\"stim\">2</p>", "internal_node_id": "0.0-10.0-8.0", "time_elapsed": 302344, "key_press": -1, "trial_index": 18}, "uniqueid": "MTK2405:3DY4FPOOA2V89Z6R68681KBIAHYVRK", "dateTime": 1517075890147}, {"current_trial": 19, "trialdata": {"rt": -1, "trial_type": "single-stim", "stimulus": "<p id=\"stim\">1</p>", "internal_node_id": "0.0-10.0-9.0", "time_elapsed": 303346, "key_press": -1, "trial_index": 19}, "uniqueid": "MTK2405:3DY4FPOOA2V89Z6R68681KBIAHYVRK", "dateTime": 1517075891152}, {"current_trial": 20, "trialdata": {"rt": -1, "trial_type": "single-stim", "stimulus": "<p id=\"stim\">+</p>", "internal_node_id": "0.0-11.0-0.0", "time_elapsed": 304850, "key_press": -1, "type": "FIXATION", "trial_index": 20}, "uniqueid": "MTK2405:3DY4FPOOA2V89Z6R68681KBIAHYVRK", "dateTime": 1517075892656}, {"current_trial": 21, "trialdata": {"rt": 1748.888888888871, "trial_type": "single-audio", "word": "curtain", "stimulus": "/static/audio/wordpool/CURTAIN.wav", "conditions": [18, 1200, "a", 18000], "internal_node_id": "0.0-12.0", "trial": 0, "time_elapsed": 307152, "serialpos": 0, "key_press": 67, "wordID": 426, "type": "PRES_AUD", "trial_index": 21}, "uniqueid": "MTK2405:3DY4FPOOA2V89Z6R68681KBIAHYVRK", "dateTime": 1517075894955}, {"current_trial": 22, "trialdata": {"rt": 82.85714285716494, "trial_type": "single-audio", "word": "radish", "stimulus": "/static/audio/wordpool/RADISH.wav", "conditions": [18, 1200, "a", 18000], "internal_node_id": "0.0-13.0", "trial": 0, "time_elapsed": 309244, "serialpos": 1, "key_press": 82, "wordID": 1157, "type": "PRES_AUD", "trial_index": 22}, "uniqueid": "MTK2405:3DY4FPOOA2V89Z6R68681KBIAHYVRK", "dateTime": 1517075897047}, {"current_trial": 23, "trialdata": {"rt": 152.51700680272506, "trial_type": "single-audio", "word": "jello", "stimulus": "/static/audio/wordpool/JELLO.wav", "conditions": [18, 1200, "a", 18000], "internal_node_id": "0.0-14.0", "trial": 0, "time_elapsed": 311297, "serialpos": 2, "key_press": 188, "wordID": 753, "type": "PRES_AUD", "trial_index": 23}, "uniqueid": "MTK2405:3DY4FPOOA2V89Z6R68681KBIAHYVRK", "dateTime": 1517075899100}, {"current_trial": 24, "trialdata": {"rt": 30.612244897952223, "trial_type": "single-audio", "word": "motor", "stimulus": "/static/audio/wordpool/MOTOR.wav", "conditions": [18, 1200, "a", 18000], "internal_node_id": "0.0-15.0", "trial": 0, "time_elapsed": 313371, "serialpos": 3, "key_press": 188, "wordID": 921, "type": "PRES_AUD", "trial_index": 24}, "uniqueid": "MTK2405:3DY4FPOOA2V89Z6R68681KBIAHYVRK", "dateTime": 1517075901174}, {"current_trial": 25, "trialdata": {"rt": 164.1269841269377, "trial_type": "single-audio", "word": "scarf", "stimulus": "/static/audio/wordpool/SCARF.wav", "conditions": [18, 1200, "a", 18000], "internal_node_id": "0.0-16.0", "trial": 0, "time_elapsed": 315732, "serialpos": 4, "key_press": 188, "wordID": 1245, "type": "PRES_AUD", "trial_index": 25}, "uniqueid": "MTK2405:3DY4FPOOA2V89Z6R68681KBIAHYVRK", "dateTime": 1517075903540}, {"current_trial": 26, "trialdata": {"rt": 216.3718820860936, "trial_type": "single-audio", "word": "whistle", "stimulus": "/static/audio/wordpool/WHISTLE.wav", "conditions": [18, 1200, "a", 18000], "internal_node_id": "0.0-17.0", "trial": 0, "time_elapsed": 317918, "serialpos": 5, "key_press": 188, "wordID": 1605, "type": "PRES_AUD", "trial_index": 26}, "uniqueid": "MTK2405:3DY4FPOOA2V89Z6R68681KBIAHYVRK", "dateTime": 1517075905721}, {"current_trial": 27, "trialdata": {"rt": -50.65759637187739, "trial_type": "single-audio", "word": "notebook", "stimulus": "/static/audio/wordpool/NOTEBOOK.wav", "conditions": [18, 1200, "a", 18000], "internal_node_id": "0.0-18.0", "trial": 0, "time_elapsed": 320166, "serialpos": 6, "key_press": 188, "wordID": 958, "type": "PRES_AUD", "trial_index": 27}, "uniqueid": "MTK2405:3DY4FPOOA2V89Z6R68681KBIAHYVRK", "dateTime": 1517075907969}, {"current_trial": 28, "trialdata": {"rt": -59.36507936507951, "trial_type": "single-audio", "word": "grave", "stimulus": "/static/audio/wordpool/GRAVE.wav", "conditions": [18, 1200, "a", 18000], "internal_node_id": "0.0-19.0", "trial": 0, "time_elapsed": 322290, "serialpos": 7, "key_press": 69, "wordID": 657, "type": "PRES_AUD", "trial_index": 28}, "uniqueid": "MTK2405:3DY4FPOOA2V89Z6R68681KBIAHYVRK", "dateTime": 1517075910093}, {"current_trial": 29, "trialdata": {"rt": 489.20634920636985, "trial_type": "single-audio", "word": "cod", "stimulus": "/static/audio/wordpool/COD.wav", "conditions": [18, 1200, "a", 18000], "internal_node_id": "0.0-20.0", "trial": 0, "time_elapsed": 324338, "serialpos": 8, "key_press": 32, "wordID": 339, "type": "PRES_AUD", "trial_index": 29}, "uniqueid": "MTK2405:3DY4FPOOA2V89Z6R68681KBIAHYVRK", "dateTime": 1517075912141}, {"current_trial": 30, "trialdata": {"rt": -1000, "trial_type": "single-audio", "word": "pliers", "stimulus": "/static/audio/wordpool/PLIERS.wav", "conditions": [18, 1200, "a", 18000], "internal_node_id": "0.0-21.0", "trial": 0, "time_elapsed": 326649, "serialpos": 9, "key_press": -1, "wordID": 1088, "type": "PRES_AUD", "trial_index": 30}, "uniqueid": "MTK2405:3DY4FPOOA2V89Z6R68681KBIAHYVRK", "dateTime": 1517075914452}, {"current_trial": 31, "trialdata": {"rt": -1000, "trial_type": "single-audio", "word": "handbag", "stimulus": "/static/audio/wordpool/HANDBAG.wav", "conditions": [18, 1200, "a", 18000], "internal_node_id": "0.0-22.0", "trial": 0, "time_elapsed": 329026, "serialpos": 10, "key_press": -1, "wordID": 683, "type": "PRES_AUD", "trial_index": 31}, "uniqueid": "MTK2405:3DY4FPOOA2V89Z6R68681KBIAHYVRK", "dateTime": 1517075916829}, {"current_trial": 32, "trialdata": {"rt": -1000, "trial_type": "single-audio", "word": "machine", "stimulus": "/static/audio/wordpool/MACHINE.wav", "conditions": [18, 1200, "a", 18000], "internal_node_id": "0.0-23.0", "trial": 0, "time_elapsed": 331292, "serialpos": 11, "key_press": -1, "wordID": 851, "type": "PRES_AUD", "trial_index": 32}, "uniqueid": "MTK2405:3DY4FPOOA2V89Z6R68681KBIAHYVRK", "dateTime": 1517075919095}, {"current_trial": 33, "trialdata": {"rt": -1000, "trial_type": "single-audio", "word": "eyelash", "stimulus": "/static/audio/wordpool/EYELASH.wav", "conditions": [18, 1200, "a", 18000], "internal_node_id": "0.0-24.0", "trial": 0, "time_elapsed": 333474, "serialpos": 12, "key_press": -1, "wordID": 545, "type": "PRES_AUD", "trial_index": 33}, "uniqueid": "MTK2405:3DY4FPOOA2V89Z6R68681KBIAHYVRK", "dateTime": 1517075921277}, {"current_trial": 34, "trialdata": {"rt": 460.1814058956961, "trial_type": "single-audio", "word": "bacon", "stimulus": "/static/audio/wordpool/BACON.wav", "conditions": [18, 1200, "a", 18000], "internal_node_id": "0.0-25.0", "trial": 0, "time_elapsed": 335729, "serialpos": 13, "key_press": 40, "wordID": 66, "type": "PRES_AUD", "trial_index": 34}, "uniqueid": "MTK2405:3DY4FPOOA2V89Z6R68681KBIAHYVRK", "dateTime": 1517075923532}, {"current_trial": 35, "trialdata": {"rt": -1000, "trial_type": "single-audio", "word": "crown", "stimulus": "/static/audio/wordpool/CROWN.wav", "conditions": [18, 1200, "a", 18000], "internal_node_id": "0.0-26.0", "trial": 0, "time_elapsed": 337742, "serialpos": 14, "key_press": -1, "wordID": 414, "type": "PRES_AUD", "trial_index": 35}, "uniqueid": "MTK2405:3DY4FPOOA2V89Z6R68681KBIAHYVRK", "dateTime": 1517075925548}, {"current_trial": 36, "trialdata": {"rt": -1000, "trial_type": "single-audio", "word": "cashew", "stimulus": "/static/audio/wordpool/CASHEW.wav", "conditions": [18, 1200, "a", 18000], "internal_node_id": "0.0-27.0", "trial": 0, "time_elapsed": 339932, "serialpos": 15, "key_press": -1, "wordID": 252, "type": "PRES_AUD", "trial_index": 36}, "uniqueid": "MTK2405:3DY4FPOOA2V89Z6R68681KBIAHYVRK", "dateTime": 1517075927735}, {"current_trial": 37, "trialdata": {"rt": -1000, "trial_type": "single-audio", "word": "drawing", "stimulus": "/static/audio/wordpool/DRAWING.wav", "conditions": [18, 1200, "a", 18000], "internal_node_id": "0.0-28.0", "trial": 0, "time_elapsed": 342197, "serialpos": 16, "key_press": -1, "wordID": 493, "type": "PRES_AUD", "trial_index": 37}, "uniqueid": "MTK2405:3DY4FPOOA2V89Z6R68681KBIAHYVRK", "dateTime": 1517075930000}, {"current_trial": 38, "trialdata": {"rt": -1000, "trial_type": "single-audio", "word": "jungle", "stimulus": "/static/audio/wordpool/JUNGLE.wav", "conditions": [18, 1200, "a", 18000], "internal_node_id": "0.0-29.0", "trial": 0, "time_elapsed": 344337, "serialpos": 17, "key_press": -1, "wordID": 763, "type": "PRES_AUD", "trial_index": 38}, "uniqueid": "MTK2405:3DY4FPOOA2V89Z6R68681KBIAHYVRK", "dateTime": 1517075932140}, {"current_trial": 39, "trialdata": {"rt": -1, "trial_type": "single-stim", "stimulus": "", "internal_node_id": "0.0-30.0-0.0", "time_elapsed": 345555, "key_press": -1, "type": "PRE_RECALL_DELAY", "trial_index": 39}, "uniqueid": "MTK2405:3DY4FPOOA2V89Z6R68681KBIAHYVRK", "dateTime": 1517075933358}, {"current_trial": 40, "trialdata": {"rt": -1000, "trial_type": "single-audio", "stimulus": "/static/audio/400Hz.wav", "internal_node_id": "0.0-31.0", "time_elapsed": 346066, "key_press": -1, "type": "PRE_RECALL_ALERT", "trial_index": 40}, "uniqueid": "MTK2405:3DY4FPOOA2V89Z6R68681KBIAHYVRK", "dateTime": 1517075933869}, {"current_trial": 41, "trialdata": {"rt": [6500, 10086, 12023, 17215, 22691, 24834, 27397, 30872, 33721, 39915, 54929], "recwords": ["yellow", "drawinf", "jungle", "notebook", "yellow", "list", "curtain", "whistle", "car", "", "drawing"], "key_times": [1851, 2208, 2548, 2725, 2871, 2887, 4151, 4352, 5852, 6254, 6500, 6830, 7020, 7342, 8534, 9011, 9276, 9406, 9633, 10086, 10556, 10733, 10965, 11245, 11420, 11650, 12023, 15024, 15271, 15452, 15651, 15944, 16134, 16255, 16436, 17215, 20993, 21264, 21576, 21739, 21918, 22149, 22691, 23668, 23872, 24100, 24456, 24834, 25304, 25543, 25728, 25949, 26251, 26402, 26658, 27397, 29090, 29445, 29691, 29869, 30194, 30408, 30549, 30872, 32772, 33000, 33280, 33721, 39915, 52774, 52952, 53383, 53623, 53919, 54053, 54181, 54929], "trial_type": "free-recall", "conditions": [18, 1200, "a", 18000], "internal_node_id": "0.0-32.0-0.0", "key_presses": [89, 69, 76, 76, 48, 79, 8, 8, 79, 87, 188, 68, 82, 16, 65, 87, 73, 78, 70, 188, 74, 85, 78, 71, 76, 69, 188, 78, 79, 84, 69, 66, 79, 79, 75, 13, 89, 69, 76, 76, 79, 87, 13, 76, 73, 83, 84, 13, 67, 85, 82, 84, 65, 73, 78, 13, 87, 72, 73, 83, 84, 76, 69, 13, 67, 65, 82, 13, 13, 68, 82, 65, 87, 73, 78, 71, 13], "trial": 0, "time_elapsed": 406073, "type": "FREE_RECALL", "trial_index": 41}, "uniqueid": "MTK2405:3DY4FPOOA2V89Z6R68681KBIAHYVRK", "dateTime": 1517075993918}, {"current_trial": 42, "trialdata": {"rt": 2098, "trial_type": "text", "internal_node_id": "0.0-33.0", "time_elapsed": 410215, "key_press": 13, "type": "INSTRUCTIONS", "trial_index": 42}, "uniqueid": "MTK2405:3DY4FPOOA2V89Z6R68681KBIAHYVRK", "dateTime": 1517075998018}, {"current_trial": 43, "trialdata": {"rt": [2898, 5009, 7323, 10516, 13365, 16764], "trial_type": "math-distractor", "key_times": [1655, 2179, 2898, 4228, 4451, 5009, 6547, 6946, 7323, 9459, 9674, 10516, 12823, 13002, 13365, 15765, 16271, 16764], "responses": ["17", "21", "14", "23", "11", "15"], "num2": [1, 7, 6, 7, 4, 6, 2], "num3": [7, 7, 6, 7, 1, 7, 4], "conditions": [18, 1200, "a", 18000], "internal_node_id": "0.0-34.0", "key_presses": [49, 55, 13, 50, 49, 13, 49, 52, 13, 50, 51, 13, 49, 49, 13, 49, 53, 13], "trial": 1, "time_elapsed": 430225, "type": "DISTRACTOR", "trial_index": 43, "num1": [9, 7, 2, 8, 6, 2, 2]}, "uniqueid": "MTK2405:3DY4FPOOA2V89Z6R68681KBIAHYVRK", "dateTime": 1517076018028}, {"current_trial": 44, "trialdata": {"rt": -1, "trial_type": "single-stim", "stimulus": "<p id=\"stim\">10</p>", "internal_node_id": "0.0-35.0-0.0", "time_elapsed": 433234, "key_press": -1, "trial_index": 44}, "uniqueid": "MTK2405:3DY4FPOOA2V89Z6R68681KBIAHYVRK", "dateTime": 1517076021040}, {"current_trial": 45, "trialdata": {"rt": -1, "trial_type": "single-stim", "stimulus": "<p id=\"stim\">9</p>", "internal_node_id": "0.0-35.0-1.0", "time_elapsed": 434239, "key_press": -1, "trial_index": 45}, "uniqueid": "MTK2405:3DY4FPOOA2V89Z6R68681KBIAHYVRK", "dateTime": 1517076022044}, {"current_trial": 46, "trialdata": {"rt": -1, "trial_type": "single-stim", "stimulus": "<p id=\"stim\">8</p>", "internal_node_id": "0.0-35.0-2.0", "time_elapsed": 435243, "key_press": -1, "trial_index": 46}, "uniqueid": "MTK2405:3DY4FPOOA2V89Z6R68681KBIAHYVRK", "dateTime": 1517076023048}, {"current_trial": 47, "trialdata": {"rt": -1, "trial_type": "single-stim", "stimulus": "<p id=\"stim\">7</p>", "internal_node_id": "0.0-35.0-3.0", "time_elapsed": 436248, "key_press": -1, "trial_index": 47}, "uniqueid": "MTK2405:3DY4FPOOA2V89Z6R68681KBIAHYVRK", "dateTime": 1517076024053}, {"current_trial": 48, "trialdata": {"rt": -1, "trial_type": "single-stim", "stimulus": "<p id=\"stim\">6</p>", "internal_node_id": "0.0-35.0-4.0", "time_elapsed": 437251, "key_press": -1, "trial_index": 48}, "uniqueid": "MTK2405:3DY4FPOOA2V89Z6R68681KBIAHYVRK", "dateTime": 1517076025056}, {"current_trial": 49, "trialdata": {"rt": -1, "trial_type": "single-stim", "stimulus": "<p id=\"stim\">5</p>", "internal_node_id": "0.0-35.0-5.0", "time_elapsed": 438258, "key_press": -1, "trial_index": 49}, "uniqueid": "MTK2405:3DY4FPOOA2V89Z6R68681KBIAHYVRK", "dateTime": 1517076026061}, {"current_trial": 50, "trialdata": {"rt": -1, "trial_type": "single-stim", "stimulus": "<p id=\"stim\">4</p>", "internal_node_id": "0.0-35.0-6.0", "time_elapsed": 439262, "key_press": -1, "trial_index": 50}, "uniqueid": "MTK2405:3DY4FPOOA2V89Z6R68681KBIAHYVRK", "dateTime": 1517076027067}, {"current_trial": 51, "trialdata": {"rt": -1, "trial_type": "single-stim", "stimulus": "<p id=\"stim\">3</p>", "internal_node_id": "0.0-35.0-7.0", "time_elapsed": 440269, "key_press": -1, "trial_index": 51}, "uniqueid": "MTK2405:3DY4FPOOA2V89Z6R68681KBIAHYVRK", "dateTime": 1517076028072}, {"current_trial": 52, "trialdata": {"rt": -1, "trial_type": "single-stim", "stimulus": "<p id=\"stim\">2</p>", "internal_node_id": "0.0-35.0-8.0", "time_elapsed": 441274, "key_press": -1, "trial_index": 52}, "uniqueid": "MTK2405:3DY4FPOOA2V89Z6R68681KBIAHYVRK", "dateTime": 1517076029077}, {"current_trial": 53, "trialdata": {"rt": -1, "trial_type": "single-stim", "stimulus": "<p id=\"stim\">1</p>", "internal_node_id": "0.0-35.0-9.0", "time_elapsed": 442279, "key_press": -1, "trial_index": 53}, "uniqueid": "MTK2405:3DY4FPOOA2V89Z6R68681KBIAHYVRK", "dateTime": 1517076030082}, {"current_trial": 54, "trialdata": {"rt": -1, "trial_type": "single-stim", "stimulus": "<p id=\"stim\">+</p>", "internal_node_id": "0.0-36.0-0.0", "time_elapsed": 443780, "key_press": -1, "type": "FIXATION", "trial_index": 54}, "uniqueid": "MTK2405:3DY4FPOOA2V89Z6R68681KBIAHYVRK", "dateTime": 1517076031585}, {"current_trial": 55, "trialdata": {"rt": -1000, "trial_type": "single-audio", "word": "helmet", "stimulus": "/static/audio/wordpool/HELMET.wav", "conditions": [18, 1200, "a", 18000], "internal_node_id": "0.0-37.0", "trial": 1, "time_elapsed": 446178, "serialpos": 0, "key_press": -1, "wordID": 701, "type": "PRES_AUD", "trial_index": 55}, "uniqueid": "MTK2405:3DY4FPOOA2V89Z6R68681KBIAHYVRK", "dateTime": 1517076033981}, {"current_trial": 56, "trialdata": {"rt": -1000, "trial_type": "single-audio", "word": "dentist", "stimulus": "/static/audio/wordpool/DENTIST.wav", "conditions": [18, 1200, "a", 18000], "internal_node_id": "0.0-38.0", "trial": 1, "time_elapsed": 448526, "serialpos": 1, "key_press": -1, "wordID": 446, "type": "PRES_AUD", "trial_index": 56}, "uniqueid": "MTK2405:3DY4FPOOA2V89Z6R68681KBIAHYVRK", "dateTime": 1517076036329}, {"current_trial": 57, "trialdata": {"rt": -1000, "trial_type": "single-audio", "word": "bunny", "stimulus": "/static/audio/wordpool/BUNNY.wav", "conditions": [18, 1200, "a", 18000], "internal_node_id": "0.0-39.0", "trial": 1, "time_elapsed": 450617, "serialpos": 2, "key_press": -1, "wordID": 197, "type": "PRES_AUD", "trial_index": 57}, "uniqueid": "MTK2405:3DY4FPOOA2V89Z6R68681KBIAHYVRK", "dateTime": 1517076038420}, {"current_trial": 58, "trialdata": {"rt": -1000, "trial_type": "single-audio", "word": "hostess", "stimulus": "/static/audio/wordpool/HOSTESS.wav", "conditions": [18, 1200, "a", 18000], "internal_node_id": "0.0-40.0", "trial": 1, "time_elapsed": 453005, "serialpos": 3, "key_press": -1, "wordID": 722, "type": "PRES_AUD", "trial_index": 58}, "uniqueid": "MTK2405:3DY4FPOOA2V89Z6R68681KBIAHYVRK", "dateTime": 1517076040808}, {"current_trial": 59, "trialdata": {"rt": -1000, "trial_type": "single-audio", "word": "badge", "stimulus": "/static/audio/wordpool/BADGE.wav", "conditions": [18, 1200, "a", 18000], "internal_node_id": "0.0-41.0", "trial": 1, "time_elapsed": 455238, "serialpos": 4, "key_press": -1, "wordID": 67, "type": "PRES_AUD", "trial_index": 59}, "uniqueid": "MTK2405:3DY4FPOOA2V89Z6R68681KBIAHYVRK", "dateTime": 1517076043041}, {"current_trial": 60, "trialdata": {"rt": -1000, "trial_type": "single-audio", "word": "cowboy", "stimulus": "/static/audio/wordpool/COWBOY.wav", "conditions": [18, 1200, "a", 18000], "internal_node_id": "0.0-42.0", "trial": 1, "time_elapsed": 457538, "serialpos": 5, "key_press": -1, "wordID": 394, "type": "PRES_AUD", "trial_index": 60}, "uniqueid": "MTK2405:3DY4FPOOA2V89Z6R68681KBIAHYVRK", "dateTime": 1517076045341}, {"current_trial": 61, "trialdata": {"rt": -1000, "trial_type": "single-audio", "word": "robin", "stimulus": "/static/audio/wordpool/ROBIN.wav", "conditions": [18, 1200, "a", 18000], "internal_node_id": "0.0-43.0", "trial": 1, "time_elapsed": 459849, "serialpos": 6, "key_press": -1, "wordID": 1198, "type": "PRES_AUD", "trial_index": 61}, "uniqueid": "MTK2405:3DY4FPOOA2V89Z6R68681KBIAHYVRK", "dateTime": 1517076047652}, {"current_trial": 62, "trialdata": {"rt": -1000, "trial_type": "single-audio", "word": "monster", "stimulus": "/static/audio/wordpool/MONSTER.wav", "conditions": [18, 1200, "a", 18000], "internal_node_id": "0.0-44.0", "trial": 1, "time_elapsed": 461988, "serialpos": 7, "key_press": -1, "wordID": 911, "type": "PRES_AUD", "trial_index": 62}, "uniqueid": "MTK2405:3DY4FPOOA2V89Z6R68681KBIAHYVRK", "dateTime": 1517076049791}, {"current_trial": 63, "trialdata": {"rt": -1000, "trial_type": "single-audio", "word": "guard", "stimulus": "/static/audio/wordpool/GUARD.wav", "conditions": [18, 1200, "a", 18000], "internal_node_id": "0.0-45.0", "trial": 1, "time_elapsed": 464287, "serialpos": 8, "key_press": -1, "wordID": 666, "type": "PRES_AUD", "trial_index": 63}, "uniqueid": "MTK2405:3DY4FPOOA2V89Z6R68681KBIAHYVRK", "dateTime": 1517076052090}, {"current_trial": 64, "trialdata": {"rt": -1000, "trial_type": "single-audio", "word": "laser", "stimulus": "/static/audio/wordpool/LASER.wav", "conditions": [18, 1200, "a", 18000], "internal_node_id": "0.0-46.0", "trial": 1, "time_elapsed": 466355, "serialpos": 9, "key_press": -1, "wordID": 800, "type": "PRES_AUD", "trial_index": 64}, "uniqueid": "MTK2405:3DY4FPOOA2V89Z6R68681KBIAHYVRK", "dateTime": 1517076054158}, {"current_trial": 65, "trialdata": {"rt": -1000, "trial_type": "single-audio", "word": "outdoors", "stimulus": "/static/audio/wordpool/OUTDOORS.wav", "conditions": [18, 1200, "a", 18000], "internal_node_id": "0.0-47.0", "trial": 1, "time_elapsed": 468504, "serialpos": 10, "key_press": -1, "wordID": 986, "type": "PRES_AUD", "trial_index": 65}, "uniqueid": "MTK2405:3DY4FPOOA2V89Z6R68681KBIAHYVRK", "dateTime": 1517076056307}, {"current_trial": 66, "trialdata": {"rt": -1000, "trial_type": "single-audio", "word": "nurse", "stimulus": "/static/audio/wordpool/NURSE.wav", "conditions": [18, 1200, "a", 18000], "internal_node_id": "0.0-48.0", "trial": 1, "time_elapsed": 470692, "serialpos": 11, "key_press": -1, "wordID": 962, "type": "PRES_AUD", "trial_index": 66}, "uniqueid": "MTK2405:3DY4FPOOA2V89Z6R68681KBIAHYVRK", "dateTime": 1517076058495}, {"current_trial": 67, "trialdata": {"rt": -1000, "trial_type": "single-audio", "word": "ghetto", "stimulus": "/static/audio/wordpool/GHETTO.wav", "conditions": [18, 1200, "a", 18000], "internal_node_id": "0.0-49.0", "trial": 1, "time_elapsed": 472770, "serialpos": 12, "key_press": -1, "wordID": 632, "type": "PRES_AUD", "trial_index": 67}, "uniqueid": "MTK2405:3DY4FPOOA2V89Z6R68681KBIAHYVRK", "dateTime": 1517076060573}, {"current_trial": 68, "trialdata": {"rt": -1000, "trial_type": "single-audio", "word": "camel", "stimulus": "/static/audio/wordpool/CAMEL.wav", "conditions": [18, 1200, "a", 18000], "internal_node_id": "0.0-50.0", "trial": 1, "time_elapsed": 474990, "serialpos": 13, "key_press": -1, "wordID": 222, "type": "PRES_AUD", "trial_index": 68}, "uniqueid": "MTK2405:3DY4FPOOA2V89Z6R68681KBIAHYVRK", "dateTime": 1517076062793}, {"current_trial": 69, "trialdata": {"rt": -1000, "trial_type": "single-audio", "word": "tortoise", "stimulus": "/static/audio/wordpool/TORTOISE.wav", "conditions": [18, 1200, "a", 18000], "internal_node_id": "0.0-51.0", "trial": 1, "time_elapsed": 477160, "serialpos": 14, "key_press": -1, "wordID": 1485, "type": "PRES_AUD", "trial_index": 69}, "uniqueid": "MTK2405:3DY4FPOOA2V89Z6R68681KBIAHYVRK", "dateTime": 1517076064963}, {"current_trial": 70, "trialdata": {"rt": -1000, "trial_type": "single-audio", "word": "chipmunk", "stimulus": "/static/audio/wordpool/CHIPMUNK.wav", "conditions": [18, 1200, "a", 18000], "internal_node_id": "0.0-52.0", "trial": 1, "time_elapsed": 479240, "serialpos": 15, "key_press": -1, "wordID": 303, "type": "PRES_AUD", "trial_index": 70}, "uniqueid": "MTK2405:3DY4FPOOA2V89Z6R68681KBIAHYVRK", "dateTime": 1517076067043}, {"current_trial": 71, "trialdata": {"rt": -1000, "trial_type": "single-audio", "word": "office", "stimulus": "/static/audio/wordpool/OFFICE.wav", "conditions": [18, 1200, "a", 18000], "internal_node_id": "0.0-53.0", "trial": 1, "time_elapsed": 481628, "serialpos": 16, "key_press": -1, "wordID": 971, "type": "PRES_AUD", "trial_index": 71}, "uniqueid": "MTK2405:3DY4FPOOA2V89Z6R68681KBIAHYVRK", "dateTime": 1517076069434}, {"current_trial": 72, "trialdata": {"rt": -1000, "trial_type": "single-audio", "word": "hatchet", "stimulus": "/static/audio/wordpool/HATCHET.wav", "conditions": [18, 1200, "a", 18000], "internal_node_id": "0.0-54.0", "trial": 1, "time_elapsed": 483895, "serialpos": 17, "key_press": -1, "wordID": 690, "type": "PRES_AUD", "trial_index": 72}, "uniqueid": "MTK2405:3DY4FPOOA2V89Z6R68681KBIAHYVRK", "dateTime": 1517076071698}, {"current_trial": 73, "trialdata": {"rt": -1, "trial_type": "single-stim", "stimulus": "", "internal_node_id": "0.0-55.0-0.0", "time_elapsed": 485209, "key_press": -1, "type": "PRE_RECALL_DELAY", "trial_index": 73}, "uniqueid": "MTK2405:3DY4FPOOA2V89Z6R68681KBIAHYVRK", "dateTime": 1517076073012}, {"current_trial": 74, "trialdata": {"rt": -1000, "trial_type": "single-audio", "stimulus": "/static/audio/400Hz.wav", "internal_node_id": "0.0-56.0", "time_elapsed": 485724, "key_press": -1, "type": "PRE_RECALL_ALERT", "trial_index": 74}, "uniqueid": "MTK2405:3DY4FPOOA2V89Z6R68681KBIAHYVRK", "dateTime": 1517076073527}, {"current_trial": 75, "trialdata": {"rt": [3993, 7296, 13812, 17710, 20062, 26436, 32466, 34934, 39942, 51340], "recwords": ["hatchet", "helmet", "tortois", "chipmunk", "guard", "monster", "car", "sunny", "dentist", "bag"], "key_times": [1394, 1651, 2173, 2653, 2995, 3352, 3617, 3993, 4517, 4705, 4999, 5304, 5586, 6338, 6569, 6823, 7296, 9048, 9207, 9471, 10063, 10224, 10546, 12324, 12840, 13201, 13812, 14881, 15048, 15503, 15803, 16140, 16389, 16687, 17077, 17710, 18189, 18464, 18779, 19099, 19413, 20062, 24458, 24691, 24995, 25344, 25537, 25705, 25921, 26436, 31443, 31691, 32031, 32466, 33453, 33695, 33991, 34169, 34399, 34934, 38296, 38478, 38706, 38874, 39171, 39322, 39620, 39942, 50144, 50452, 50841, 51340], "trial_type": "free-recall", "conditions": [18, 1200, "a", 18000], "internal_node_id": "0.0-57.0-0.0", "key_presses": [72, 65, 84, 67, 72, 69, 84, 13, 72, 69, 76, 77, 65, 8, 69, 84, 13, 84, 79, 82, 84, 79, 85, 8, 73, 83, 13, 67, 72, 73, 80, 77, 85, 78, 75, 13, 71, 85, 65, 82, 68, 13, 77, 79, 78, 83, 84, 69, 82, 13, 67, 65, 82, 13, 83, 85, 78, 78, 89, 13, 68, 69, 78, 84, 73, 83, 84, 13, 66, 65, 71, 13], "trial": 1, "time_elapsed": 545727, "type": "FREE_RECALL", "trial_index": 75}, "uniqueid": "MTK2405:3DY4FPOOA2V89Z6R68681KBIAHYVRK", "dateTime": 1517076133540}, {"current_trial": 76, "trialdata": {"rt": 3849, "trial_type": "text", "internal_node_id": "0.0-58.0", "time_elapsed": 551587, "key_press": 13, "type": "INSTRUCTIONS", "trial_index": 76}, "uniqueid": "MTK2405:3DY4FPOOA2V89Z6R68681KBIAHYVRK", "dateTime": 1517076139390}, {"current_trial": 77, "trialdata": {"rt": [2338, 5314, 8901, 14328, 17293, 20519], "trial_type": "math-distractor", "key_times": [1460, 1827, 2338, 4441, 4948, 5314, 7662, 8028, 8901, 12860, 13226, 14328, 16332, 16803, 17293, 19417, 19991, 20519], "responses": ["13", "15", "15", "13", "17", "15"], "num2": [1, 1, 2, 4, 7, 3, 8], "num3": [3, 6, 8, 5, 3, 6, 7], "conditions": [24, 1600, "a", 24000], "internal_node_id": "0.0-59.0", "key_presses": [49, 51, 13, 49, 53, 13, 49, 53, 13, 49, 51, 13, 49, 55, 13, 49, 53, 13], "trial": 2, "time_elapsed": 576600, "type": "DISTRACTOR", "trial_index": 77, "num1": [9, 8, 5, 4, 7, 6, 4]}, "uniqueid": "MTK2405:3DY4FPOOA2V89Z6R68681KBIAHYVRK", "dateTime": 1517076164403}, {"current_trial": 78, "trialdata": {"rt": -1, "trial_type": "single-stim", "stimulus": "<p id=\"stim\">10</p>", "internal_node_id": "0.0-60.0-0.0", "time_elapsed": 579623, "key_press": -1, "trial_index": 78}, "uniqueid": "MTK2405:3DY4FPOOA2V89Z6R68681KBIAHYVRK", "dateTime": 1517076167426}, {"current_trial": 79, "trialdata": {"rt": -1, "trial_type": "single-stim", "stimulus": "<p id=\"stim\">9</p>", "internal_node_id": "0.0-60.0-1.0", "time_elapsed": 580629, "key_press": -1, "trial_index": 79}, "uniqueid": "MTK2405:3DY4FPOOA2V89Z6R68681KBIAHYVRK", "dateTime": 1517076168432}, {"current_trial": 80, "trialdata": {"rt": -1, "trial_type": "single-stim", "stimulus": "<p id=\"stim\">8</p>", "internal_node_id": "0.0-60.0-2.0", "time_elapsed": 581637, "key_press": -1, "trial_index": 80}, "uniqueid": "MTK2405:3DY4FPOOA2V89Z6R68681KBIAHYVRK", "dateTime": 1517076169440}, {"current_trial": 81, "trialdata": {"rt": -1, "trial_type": "single-stim", "stimulus": "<p id=\"stim\">7</p>", "internal_node_id": "0.0-60.0-3.0", "time_elapsed": 582640, "key_press": -1, "trial_index": 81}, "uniqueid": "MTK2405:3DY4FPOOA2V89Z6R68681KBIAHYVRK", "dateTime": 1517076170443}, {"current_trial": 82, "trialdata": {"rt": -1, "trial_type": "single-stim", "stimulus": "<p id=\"stim\">6</p>", "internal_node_id": "0.0-60.0-4.0", "time_elapsed": 583645, "key_press": -1, "trial_index": 82}, "uniqueid": "MTK2405:3DY4FPOOA2V89Z6R68681KBIAHYVRK", "dateTime": 1517076171448}, {"current_trial": 83, "trialdata": {"rt": -1, "trial_type": "single-stim", "stimulus": "<p id=\"stim\">5</p>", "internal_node_id": "0.0-60.0-5.0", "time_elapsed": 584650, "key_press": -1, "trial_index": 83}, "uniqueid": "MTK2405:3DY4FPOOA2V89Z6R68681KBIAHYVRK", "dateTime": 1517076172453}, {"current_trial": 84, "trialdata": {"rt": -1, "trial_type": "single-stim", "stimulus": "<p id=\"stim\">4</p>", "internal_node_id": "0.0-60.0-6.0", "time_elapsed": 585655, "key_press": -1, "trial_index": 84}, "uniqueid": "MTK2405:3DY4FPOOA2V89Z6R68681KBIAHYVRK", "dateTime": 1517076173458}, {"current_trial": 85, "trialdata": {"rt": -1, "trial_type": "single-stim", "stimulus": "<p id=\"stim\">3</p>", "internal_node_id": "0.0-60.0-7.0", "time_elapsed": 586657, "key_press": -1, "trial_index": 85}, "uniqueid": "MTK2405:3DY4FPOOA2V89Z6R68681KBIAHYVRK", "dateTime": 1517076174462}, {"current_trial": 86, "trialdata": {"rt": -1, "trial_type": "single-stim", "stimulus": "<p id=\"stim\">2</p>", "internal_node_id": "0.0-60.0-8.0", "time_elapsed": 587664, "key_press": -1, "trial_index": 86}, "uniqueid": "MTK2405:3DY4FPOOA2V89Z6R68681KBIAHYVRK", "dateTime": 1517076175467}, {"current_trial": 87, "trialdata": {"rt": -1, "trial_type": "single-stim", "stimulus": "<p id=\"stim\">1</p>", "internal_node_id": "0.0-60.0-9.0", "time_elapsed": 588667, "key_press": -1, "trial_index": 87}, "uniqueid": "MTK2405:3DY4FPOOA2V89Z6R68681KBIAHYVRK", "dateTime": 1517076176472}, {"current_trial": 88, "trialdata": {"rt": -1, "trial_type": "single-stim", "stimulus": "<p id=\"stim\">+</p>", "internal_node_id": "0.0-61.0-0.0", "time_elapsed": 590172, "key_press": -1, "type": "FIXATION", "trial_index": 88}, "uniqueid": "MTK2405:3DY4FPOOA2V89Z6R68681KBIAHYVRK", "dateTime": 1517076177975}, {"current_trial": 89, "trialdata": {"rt": -1000, "trial_type": "single-audio", "word": "victim", "stimulus": "/static/audio/wordpool/VICTIM.wav", "conditions": [24, 1600, "a", 24000], "internal_node_id": "0.0-62.0", "trial": 2, "time_elapsed": 592626, "serialpos": 0, "key_press": -1, "wordID": 1561, "type": "PRES_AUD", "trial_index": 89}, "uniqueid": "MTK2405:3DY4FPOOA2V89Z6R68681KBIAHYVRK", "dateTime": 1517076180429}, {"current_trial": 90, "trialdata": {"rt": -1000, "trial_type": "single-audio", "word": "suspect", "stimulus": "/static/audio/wordpool/SUSPECT.wav", "conditions": [24, 1600, "a", 24000], "internal_node_id": "0.0-63.0", "trial": 2, "time_elapsed": 595249, "serialpos": 1, "key_press": -1, "wordID": 1414, "type": "PRES_AUD", "trial_index": 90}, "uniqueid": "MTK2405:3DY4FPOOA2V89Z6R68681KBIAHYVRK", "dateTime": 1517076183052}, {"current_trial": 91, "trialdata": {"rt": -1000, "trial_type": "single-audio", "word": "doughnut", "stimulus": "/static/audio/wordpool/DOUGHNUT.wav", "conditions": [24, 1600, "a", 24000], "internal_node_id": "0.0-64.0", "trial": 2, "time_elapsed": 597673, "serialpos": 2, "key_press": -1, "wordID": 489, "type": "PRES_AUD", "trial_index": 91}, "uniqueid": "MTK2405:3DY4FPOOA2V89Z6R68681KBIAHYVRK", "dateTime": 1517076185476}, {"current_trial": 92, "trialdata": {"rt": -1000, "trial_type": "single-audio", "word": "dorm", "stimulus": "/static/audio/wordpool/DORM.wav", "conditions": [24, 1600, "a", 24000], "internal_node_id": "0.0-65.0", "trial": 2, "time_elapsed": 600451, "serialpos": 3, "key_press": -1, "wordID": 487, "type": "PRES_AUD", "trial_index": 92}, "uniqueid": "MTK2405:3DY4FPOOA2V89Z6R68681KBIAHYVRK", "dateTime": 1517076188254}, {"current_trial": 93, "trialdata": {"rt": -1000, "trial_type": "single-audio", "word": "bank", "stimulus": "/static/audio/wordpool/BANK.wav", "conditions": [24, 1600, "a", 24000], "internal_node_id": "0.0-66.0", "trial": 2, "time_elapsed": 602862, "serialpos": 4, "key_press": -1, "wordID": 82, "type": "PRES_AUD", "trial_index": 93}, "uniqueid": "MTK2405:3DY4FPOOA2V89Z6R68681KBIAHYVRK", "dateTime": 1517076190665}, {"current_trial": 94, "trialdata": {"rt": -1000, "trial_type": "single-audio", "word": "teacher", "stimulus": "/static/audio/wordpool/TEACHER.wav", "conditions": [24, 1600, "a", 24000], "internal_node_id": "0.0-67.0", "trial": 2, "time_elapsed": 605484, "serialpos": 5, "key_press": -1, "wordID": 1439, "type": "PRES_AUD", "trial_index": 94}, "uniqueid": "MTK2405:3DY4FPOOA2V89Z6R68681KBIAHYVRK", "dateTime": 1517076193287}, {"current_trial": 95, "trialdata": {"rt": -1000, "trial_type": "single-audio", "word": "saddle", "stimulus": "/static/audio/wordpool/SADDLE.wav", "conditions": [24, 1600, "a", 24000], "internal_node_id": "0.0-68.0", "trial": 2, "time_elapsed": 608251, "serialpos": 6, "key_press": -1, "wordID": 1220, "type": "PRES_AUD", "trial_index": 95}, "uniqueid": "MTK2405:3DY4FPOOA2V89Z6R68681KBIAHYVRK", "dateTime": 1517076196054}, {"current_trial": 96, "trialdata": {"rt": -1000, "trial_type": "single-audio", "word": "wardrobe", "stimulus": "/static/audio/wordpool/WARDROBE.wav", "conditions": [24, 1600, "a", 24000], "internal_node_id": "0.0-69.0", "trial": 2, "time_elapsed": 610658, "serialpos": 7, "key_press": -1, "wordID": 1586, "type": "PRES_AUD", "trial_index": 96}, "uniqueid": "MTK2405:3DY4FPOOA2V89Z6R68681KBIAHYVRK", "dateTime": 1517076198461}, {"current_trial": 97, "trialdata": {"rt": -1000, "trial_type": "single-audio", "word": "student", "stimulus": "/static/audio/wordpool/STUDENT.wav", "conditions": [24, 1600, "a", 24000], "internal_node_id": "0.0-70.0", "trial": 2, "time_elapsed": 613233, "serialpos": 8, "key_press": -1, "wordID": 1394, "type": "PRES_AUD", "trial_index": 97}, "uniqueid": "MTK2405:3DY4FPOOA2V89Z6R68681KBIAHYVRK", "dateTime": 1517076201036}, {"current_trial": 98, "trialdata": {"rt": -1000, "trial_type": "single-audio", "word": "piano", "stimulus": "/static/audio/wordpool/PIANO.wav", "conditions": [24, 1600, "a", 24000], "internal_node_id": "0.0-71.0", "trial": 2, "time_elapsed": 615968, "serialpos": 9, "key_press": -1, "wordID": 1056, "type": "PRES_AUD", "trial_index": 98}, "uniqueid": "MTK2405:3DY4FPOOA2V89Z6R68681KBIAHYVRK", "dateTime": 1517076203771}, {"current_trial": 99, "trialdata": {"rt": -1000, "trial_type": "single-audio", "word": "sword", "stimulus": "/static/audio/wordpool/SWORD.wav", "conditions": [24, 1600, "a", 24000], "internal_node_id": "0.0-72.0", "trial": 2, "time_elapsed": 618655, "serialpos": 10, "key_press": -1, "wordID": 1422, "type": "PRES_AUD", "trial_index": 99}, "uniqueid": "MTK2405:3DY4FPOOA2V89Z6R68681KBIAHYVRK", "dateTime": 1517076206458}, {"current_trial": 100, "trialdata": {"rt": -1000, "trial_type": "single-audio", "word": "hook", "stimulus": "/static/audio/wordpool/HOOK.wav", "conditions": [24, 1600, "a", 24000], "internal_node_id": "0.0-73.0", "trial": 2, "time_elapsed": 621454, "serialpos": 11, "key_press": -1, "wordID": 714, "type": "PRES_AUD", "trial_index": 100}, "uniqueid": "MTK2405:3DY4FPOOA2V89Z6R68681KBIAHYVRK", "dateTime": 1517076209257}, {"current_trial": 101, "trialdata": {"rt": -1000, "trial_type": "single-audio", "word": "snack", "stimulus": "/static/audio/wordpool/SNACK.wav", "conditions": [24, 1600, "a", 24000], "internal_node_id": "0.0-74.0", "trial": 2, "time_elapsed": 623877, "serialpos": 12, "key_press": -1, "wordID": 1330, "type": "PRES_AUD", "trial_index": 101}, "uniqueid": "MTK2405:3DY4FPOOA2V89Z6R68681KBIAHYVRK", "dateTime": 1517076211680}, {"current_trial": 102, "trialdata": {"rt": -1000, "trial_type": "single-audio", "word": "relish", "stimulus": "/static/audio/wordpool/RELISH.wav", "conditions": [24, 1600, "a", 24000], "internal_node_id": "0.0-75.0", "trial": 2, "time_elapsed": 626576, "serialpos": 13, "key_press": -1, "wordID": 1182, "type": "PRES_AUD", "trial_index": 102}, "uniqueid": "MTK2405:3DY4FPOOA2V89Z6R68681KBIAHYVRK", "dateTime": 1517076214379}, {"current_trial": 103, "trialdata": {"rt": -1000, "trial_type": "single-audio", "word": "mailman", "stimulus": "/static/audio/wordpool/MAILMAN.wav", "conditions": [24, 1600, "a", 24000], "internal_node_id": "0.0-76.0", "trial": 2, "time_elapsed": 629374, "serialpos": 14, "key_press": -1, "wordID": 857, "type": "PRES_AUD", "trial_index": 103}, "uniqueid": "MTK2405:3DY4FPOOA2V89Z6R68681KBIAHYVRK", "dateTime": 1517076217177}, {"current_trial": 104, "trialdata": {"rt": -1000, "trial_type": "single-audio", "word": "diver", "stimulus": "/static/audio/wordpool/DIVER.wav", "conditions": [24, 1600, "a", 24000], "internal_node_id": "0.0-77.0", "trial": 2, "time_elapsed": 632015, "serialpos": 15, "key_press": -1, "wordID": 475, "type": "PRES_AUD", "trial_index": 104}, "uniqueid": "MTK2405:3DY4FPOOA2V89Z6R68681KBIAHYVRK", "dateTime": 1517076219818}, {"current_trial": 105, "trialdata": {"rt": -1000, "trial_type": "single-audio", "word": "ketchup", "stimulus": "/static/audio/wordpool/KETCHUP.wav", "conditions": [24, 1600, "a", 24000], "internal_node_id": "0.0-78.0", "trial": 2, "time_elapsed": 634700, "serialpos": 16, "key_press": -1, "wordID": 770, "type": "PRES_AUD", "trial_index": 105}, "uniqueid": "MTK2405:3DY4FPOOA2V89Z6R68681KBIAHYVRK", "dateTime": 1517076222503}, {"current_trial": 106, "trialdata": {"rt": -1000, "trial_type": "single-audio", "word": "foot", "stimulus": "/static/audio/wordpool/FOOT.wav", "conditions": [24, 1600, "a", 24000], "internal_node_id": "0.0-79.0", "trial": 2, "time_elapsed": 637467, "serialpos": 17, "key_press": -1, "wordID": 589, "type": "PRES_AUD", "trial_index": 106}, "uniqueid": "MTK2405:3DY4FPOOA2V89Z6R68681KBIAHYVRK", "dateTime": 1517076225270}, {"current_trial": 107, "trialdata": {"rt": -1000, "trial_type": "single-audio", "word": "gallon", "stimulus": "/static/audio/wordpool/GALLON.wav", "conditions": [24, 1600, "a", 24000], "internal_node_id": "0.0-80.0", "trial": 2, "time_elapsed": 639907, "serialpos": 18, "key_press": -1, "wordID": 617, "type": "PRES_AUD", "trial_index": 107}, "uniqueid": "MTK2405:3DY4FPOOA2V89Z6R68681KBIAHYVRK", "dateTime": 1517076227710}, {"current_trial": 108, "trialdata": {"rt": -1000, "trial_type": "single-audio", "word": "brandy", "stimulus": "/static/audio/wordpool/BRANDY.wav", "conditions": [24, 1600, "a", 24000], "internal_node_id": "0.0-81.0", "trial": 2, "time_elapsed": 642498, "serialpos": 19, "key_press": -1, "wordID": 168, "type": "PRES_AUD", "trial_index": 108}, "uniqueid": "MTK2405:3DY4FPOOA2V89Z6R68681KBIAHYVRK", "dateTime": 1517076230301}, {"current_trial": 109, "trialdata": {"rt": -1000, "trial_type": "single-audio", "word": "stove", "stimulus": "/static/audio/wordpool/STOVE.wav", "conditions": [24, 1600, "a", 24000], "internal_node_id": "0.0-82.0", "trial": 2, "time_elapsed": 644952, "serialpos": 20, "key_press": -1, "wordID": 1387, "type": "PRES_AUD", "trial_index": 109}, "uniqueid": "MTK2405:3DY4FPOOA2V89Z6R68681KBIAHYVRK", "dateTime": 1517076232755}, {"current_trial": 110, "trialdata": {"rt": -1000, "trial_type": "single-audio", "word": "toaster", "stimulus": "/static/audio/wordpool/TOASTER.wav", "conditions": [24, 1600, "a", 24000], "internal_node_id": "0.0-83.0", "trial": 2, "time_elapsed": 647405, "serialpos": 21, "key_press": -1, "wordID": 1471, "type": "PRES_AUD", "trial_index": 110}, "uniqueid": "MTK2405:3DY4FPOOA2V89Z6R68681KBIAHYVRK", "dateTime": 1517076235208}, {"current_trial": 111, "trialdata": {"rt": -1000, "trial_type": "single-audio", "word": "popcorn", "stimulus": "/static/audio/wordpool/POPCORN.wav", "conditions": [24, 1600, "a", 24000], "internal_node_id": "0.0-84.0", "trial": 2, "time_elapsed": 650123, "serialpos": 22, "key_press": -1, "wordID": 1103, "type": "PRES_AUD", "trial_index": 111}, "uniqueid": "MTK2405:3DY4FPOOA2V89Z6R68681KBIAHYVRK", "dateTime": 1517076237926}, {"current_trial": 112, "trialdata": {"rt": -1000, "trial_type": "single-audio", "word": "country", "stimulus": "/static/audio/wordpool/COUNTRY.wav", "conditions": [24, 1600, "a", 24000], "internal_node_id": "0.0-85.0", "trial": 2, "time_elapsed": 652607, "serialpos": 23, "key_press": -1, "wordID": 387, "type": "PRES_AUD", "trial_index": 112}, "uniqueid": "MTK2405:3DY4FPOOA2V89Z6R68681KBIAHYVRK", "dateTime": 1517076240410}, {"current_trial": 113, "trialdata": {"rt": -1, "trial_type": "single-stim", "stimulus": "", "internal_node_id": "0.0-86.0-0.0", "time_elapsed": 653948, "key_press": -1, "type": "PRE_RECALL_DELAY", "trial_index": 113}, "uniqueid": "MTK2405:3DY4FPOOA2V89Z6R68681KBIAHYVRK", "dateTime": 1517076241751}, {"current_trial": 114, "trialdata": {"rt": -1000, "trial_type": "single-audio", "stimulus": "/static/audio/400Hz.wav", "internal_node_id": "0.0-87.0", "time_elapsed": 654449, "key_press": -1, "type": "PRE_RECALL_ALERT", "trial_index": 114}, "uniqueid": "MTK2405:3DY4FPOOA2V89Z6R68681KBIAHYVRK", "dateTime": 1517076242252}, {"current_trial": 115, "trialdata": {"rt": [3379, 6382, 9736, 12025, 16439, 20325, 23003, 28931, 46536, 53836], "recwords": ["student", "teacher", "catsup", "snack", "door", "sword", "helmet", "dentist", "donut", "snack"], "key_times": [1287, 1616, 1951, 2201, 2361, 2558, 2740, 3379, 4027, 4457, 4797, 5235, 5446, 5639, 5776, 6382, 6981, 7204, 7533, 8425, 8733, 9235, 9736, 10173, 10363, 10509, 10927, 11234, 12025, 14990, 15288, 15427, 15624, 16439, 18284, 18536, 19034, 19300, 19583, 20325, 21227, 21440, 21732, 22031, 22273, 22541, 23003, 25870, 26730, 27002, 27175, 27438, 27639, 27885, 28043, 28376, 28931, 45002, 45250, 45552, 45809, 46050, 46536, 52446, 52627, 52753, 53107, 53327, 53836], "trial_type": "free-recall", "conditions": [24, 1600, "a", 24000], "internal_node_id": "0.0-88.0-0.0", "key_presses": [83, 84, 85, 68, 69, 78, 84, 13, 84, 69, 65, 67, 72, 69, 82, 13, 67, 65, 84, 83, 85, 80, 13, 83, 78, 65, 67, 75, 13, 68, 79, 79, 82, 13, 83, 87, 79, 82, 68, 13, 72, 69, 76, 77, 69, 84, 13, 83, 8, 68, 69, 78, 84, 73, 83, 84, 13, 68, 79, 78, 85, 84, 13, 83, 78, 65, 67, 75, 13], "trial": 2, "time_elapsed": 714453, "type": "FREE_RECALL", "trial_index": 115}, "uniqueid": "MTK2405:3DY4FPOOA2V89Z6R68681KBIAHYVRK", "dateTime": 1517076302316}, {"current_trial": 116, "trialdata": {"rt": 1862, "trial_type": "text", "internal_node_id": "0.0-89.0", "time_elapsed": 718377, "key_press": 77, "type": "INSTRUCTIONS", "trial_index": 116}, "uniqueid": "MTK2405:3DY4FPOOA2V89Z6R68681KBIAHYVRK", "dateTime": 1517076306180}, {"current_trial": 117, "trialdata": {"rt": [3147, 6590, 9991], "trial_type": "math-distractor", "key_times": [1907, 2538, 3147, 5493, 6197, 6590, 8899, 9431, 9991, 11872], "responses": ["16", "10", "16"], "num2": [2, 6, 4, 7], "num3": [9, 1, 4, 3], "conditions": [12, 800, "a", 12000], "internal_node_id": "0.0-90.0", "key_presses": [49, 54, 13, 49, 48, 13, 49, 54, 13, 49], "trial": 3, "time_elapsed": 732390, "type": "DISTRACTOR", "trial_index": 117, "num1": [5, 3, 8, 1]}, "uniqueid": "MTK2405:3DY4FPOOA2V89Z6R68681KBIAHYVRK", "dateTime": 1517076320193}, {"current_trial": 118, "trialdata": {"rt": -1, "trial_type": "single-stim", "stimulus": "<p id=\"stim\">10</p>", "internal_node_id": "0.0-91.0-0.0", "time_elapsed": 735394, "key_press": -1, "trial_index": 118}, "uniqueid": "MTK2405:3DY4FPOOA2V89Z6R68681KBIAHYVRK", "dateTime": 1517076323199}, {"current_trial": 119, "trialdata": {"rt": -1, "trial_type": "single-stim", "stimulus": "<p id=\"stim\">9</p>", "internal_node_id": "0.0-91.0-1.0", "time_elapsed": 736400, "key_press": -1, "trial_index": 119}, "uniqueid": "MTK2405:3DY4FPOOA2V89Z6R68681KBIAHYVRK", "dateTime": 1517076324203}, {"current_trial": 120, "trialdata": {"rt": -1, "trial_type": "single-stim", "stimulus": "<p id=\"stim\">8</p>", "internal_node_id": "0.0-91.0-2.0", "time_elapsed": 737402, "key_press": -1, "trial_index": 120}, "uniqueid": "MTK2405:3DY4FPOOA2V89Z6R68681KBIAHYVRK", "dateTime": 1517076325205}, {"current_trial": 121, "trialdata": {"rt": -1, "trial_type": "single-stim", "stimulus": "<p id=\"stim\">7</p>", "internal_node_id": "0.0-91.0-3.0", "time_elapsed": 738407, "key_press": -1, "trial_index": 121}, "uniqueid": "MTK2405:3DY4FPOOA2V89Z6R68681KBIAHYVRK", "dateTime": 1517076326213}, {"current_trial": 122, "trialdata": {"rt": -1, "trial_type": "single-stim", "stimulus": "<p id=\"stim\">6</p>", "internal_node_id": "0.0-91.0-4.0", "time_elapsed": 739412, "key_press": -1, "trial_index": 122}, "uniqueid": "MTK2405:3DY4FPOOA2V89Z6R68681KBIAHYVRK", "dateTime": 1517076327217}, {"current_trial": 123, "trialdata": {"rt": -1, "trial_type": "single-stim", "stimulus": "<p id=\"stim\">5</p>", "internal_node_id": "0.0-91.0-5.0", "time_elapsed": 740414, "key_press": -1, "trial_index": 123}, "uniqueid": "MTK2405:3DY4FPOOA2V89Z6R68681KBIAHYVRK", "dateTime": 1517076328220}, {"current_trial": 124, "trialdata": {"rt": -1, "trial_type": "single-stim", "stimulus": "<p id=\"stim\">4</p>", "internal_node_id": "0.0-91.0-6.0", "time_elapsed": 741418, "key_press": -1, "trial_index": 124}, "uniqueid": "MTK2405:3DY4FPOOA2V89Z6R68681KBIAHYVRK", "dateTime": 1517076329221}, {"current_trial": 125, "trialdata": {"rt": -1, "trial_type": "single-stim", "stimulus": "<p id=\"stim\">3</p>", "internal_node_id": "0.0-91.0-7.0", "time_elapsed": 742423, "key_press": -1, "trial_index": 125}, "uniqueid": "MTK2405:3DY4FPOOA2V89Z6R68681KBIAHYVRK", "dateTime": 1517076330226}, {"current_trial": 126, "trialdata": {"rt": -1, "trial_type": "single-stim", "stimulus": "<p id=\"stim\">2</p>", "internal_node_id": "0.0-91.0-8.0", "time_elapsed": 743439, "key_press": -1, "trial_index": 126}, "uniqueid": "MTK2405:3DY4FPOOA2V89Z6R68681KBIAHYVRK", "dateTime": 1517076331242}, {"current_trial": 127, "trialdata": {"rt": -1, "trial_type": "single-stim", "stimulus": "<p id=\"stim\">1</p>", "internal_node_id": "0.0-91.0-9.0", "time_elapsed": 744444, "key_press": -1, "trial_index": 127}, "uniqueid": "MTK2405:3DY4FPOOA2V89Z6R68681KBIAHYVRK", "dateTime": 1517076332249}, {"current_trial": 128, "trialdata": {"rt": -1, "trial_type": "single-stim", "stimulus": "<p id=\"stim\">+</p>", "internal_node_id": "0.0-92.0-0.0", "time_elapsed": 745949, "key_press": -1, "type": "FIXATION", "trial_index": 128}, "uniqueid": "MTK2405:3DY4FPOOA2V89Z6R68681KBIAHYVRK", "dateTime": 1517076333752}, {"current_trial": 129, "trialdata": {"rt": -1000, "trial_type": "single-audio", "word": "climber", "stimulus": "/static/audio/wordpool/CLIMBER.wav", "conditions": [12, 800, "a", 12000], "internal_node_id": "0.0-93.0", "trial": 3, "time_elapsed": 747603, "serialpos": 0, "key_press": -1, "wordID": 322, "type": "PRES_AUD", "trial_index": 129}, "uniqueid": "MTK2405:3DY4FPOOA2V89Z6R68681KBIAHYVRK", "dateTime": 1517076335406}, {"current_trial": 130, "trialdata": {"rt": -1000, "trial_type": "single-audio", "word": "rifle", "stimulus": "/static/audio/wordpool/RIFLE.wav", "conditions": [12, 800, "a", 12000], "internal_node_id": "0.0-94.0", "trial": 3, "time_elapsed": 749243, "serialpos": 1, "key_press": -1, "wordID": 1191, "type": "PRES_AUD", "trial_index": 130}, "uniqueid": "MTK2405:3DY4FPOOA2V89Z6R68681KBIAHYVRK", "dateTime": 1517076337046}, {"current_trial": 131, "trialdata": {"rt": -1000, "trial_type": "single-audio", "word": "wrench", "stimulus": "/static/audio/wordpool/WRENCH.wav", "conditions": [12, 800, "a", 12000], "internal_node_id": "0.0-95.0", "trial": 3, "time_elapsed": 751214, "serialpos": 2, "key_press": -1, "wordID": 1624, "type": "PRES_AUD", "trial_index": 131}, "uniqueid": "MTK2405:3DY4FPOOA2V89Z6R68681KBIAHYVRK", "dateTime": 1517076339017}, {"current_trial": 132, "trialdata": {"rt": -1000, "trial_type": "single-audio", "word": "grill", "stimulus": "/static/audio/wordpool/GRILL.wav", "conditions": [12, 800, "a", 12000], "internal_node_id": "0.0-96.0", "trial": 3, "time_elapsed": 753198, "serialpos": 3, "key_press": -1, "wordID": 660, "type": "PRES_AUD", "trial_index": 132}, "uniqueid": "MTK2405:3DY4FPOOA2V89Z6R68681KBIAHYVRK", "dateTime": 1517076341001}, {"current_trial": 133, "trialdata": {"rt": -1000, "trial_type": "single-audio", "word": "cocoon", "stimulus": "/static/audio/wordpool/COCOON.wav", "conditions": [12, 800, "a", 12000], "internal_node_id": "0.0-97.0", "trial": 3, "time_elapsed": 754854, "serialpos": 4, "key_press": -1, "wordID": 338, "type": "PRES_AUD", "trial_index": 133}, "uniqueid": "MTK2405:3DY4FPOOA2V89Z6R68681KBIAHYVRK", "dateTime": 1517076342657}, {"current_trial": 134, "trialdata": {"rt": -1000, "trial_type": "single-audio", "word": "statue", "stimulus": "/static/audio/wordpool/STATUE.wav", "conditions": [12, 800, "a", 12000], "internal_node_id": "0.0-98.0", "trial": 3, "time_elapsed": 756558, "serialpos": 5, "key_press": -1, "wordID": 1373, "type": "PRES_AUD", "trial_index": 134}, "uniqueid": "MTK2405:3DY4FPOOA2V89Z6R68681KBIAHYVRK", "dateTime": 1517076344361}, {"current_trial": 135, "trialdata": {"rt": -1000, "trial_type": "single-audio", "word": "sculpture", "stimulus": "/static/audio/wordpool/SCULPTURE.wav", "conditions": [12, 800, "a", 12000], "internal_node_id": "0.0-99.0", "trial": 3, "time_elapsed": 758400, "serialpos": 6, "key_press": -1, "wordID": 1257, "type": "PRES_AUD", "trial_index": 135}, "uniqueid": "MTK2405:3DY4FPOOA2V89Z6R68681KBIAHYVRK", "dateTime": 1517076346203}, {"current_trial": 136, "trialdata": {"rt": -1000, "trial_type": "single-audio", "word": "sheriff", "stimulus": "/static/audio/wordpool/SHERIFF.wav", "conditions": [12, 800, "a", 12000], "internal_node_id": "0.0-100.0", "trial": 3, "time_elapsed": 760028, "serialpos": 7, "key_press": -1, "wordID": 1283, "type": "PRES_AUD", "trial_index": 136}, "uniqueid": "MTK2405:3DY4FPOOA2V89Z6R68681KBIAHYVRK", "dateTime": 1517076347831}, {"current_trial": 137, "trialdata": {"rt": -1000, "trial_type": "single-audio", "word": "hiker", "stimulus": "/static/audio/wordpool/HIKER.wav", "conditions": [12, 800, "a", 12000], "internal_node_id": "0.0-101.0", "trial": 3, "time_elapsed": 761649, "serialpos": 8, "key_press": -1, "wordID": 707, "type": "PRES_AUD", "trial_index": 137}, "uniqueid": "MTK2405:3DY4FPOOA2V89Z6R68681KBIAHYVRK", "dateTime": 1517076349452}, {"current_trial": 138, "trialdata": {"rt": -1000, "trial_type": "single-audio", "word": "world", "stimulus": "/static/audio/wordpool/WORLD.wav", "conditions": [12, 800, "a", 12000], "internal_node_id": "0.0-102.0", "trial": 3, "time_elapsed": 763430, "serialpos": 9, "key_press": -1, "wordID": 1621, "type": "PRES_AUD", "trial_index": 138}, "uniqueid": "MTK2405:3DY4FPOOA2V89Z6R68681KBIAHYVRK", "dateTime": 1517076351233}, {"current_trial": 139, "trialdata": {"rt": -1000, "trial_type": "single-audio", "word": "friend", "stimulus": "/static/audio/wordpool/FRIEND.wav", "conditions": [12, 800, "a", 12000], "internal_node_id": "0.0-103.0", "trial": 3, "time_elapsed": 765041, "serialpos": 10, "key_press": -1, "wordID": 605, "type": "PRES_AUD", "trial_index": 139}, "uniqueid": "MTK2405:3DY4FPOOA2V89Z6R68681KBIAHYVRK", "dateTime": 1517076352844}, {"current_trial": 140, "trialdata": {"rt": -1000, "trial_type": "single-audio", "word": "spoon", "stimulus": "/static/audio/wordpool/SPOON.wav", "conditions": [12, 800, "a", 12000], "internal_node_id": "0.0-104.0", "trial": 3, "time_elapsed": 766902, "serialpos": 11, "key_press": -1, "wordID": 1356, "type": "PRES_AUD", "trial_index": 140}, "uniqueid": "MTK2405:3DY4FPOOA2V89Z6R68681KBIAHYVRK", "dateTime": 1517076354705}, {"current_trial": 141, "trialdata": {"rt": -1, "trial_type": "single-stim", "stimulus": "", "internal_node_id": "0.0-105.0-0.0", "time_elapsed": 768136, "key_press": -1, "type": "PRE_RECALL_DELAY", "trial_index": 141}, "uniqueid": "MTK2405:3DY4FPOOA2V89Z6R68681KBIAHYVRK", "dateTime": 1517076355939}, {"current_trial": 142, "trialdata": {"rt": -1000, "trial_type": "single-audio", "stimulus": "/static/audio/400Hz.wav", "internal_node_id": "0.0-106.0", "time_elapsed": 768645, "key_press": -1, "type": "PRE_RECALL_ALERT", "trial_index": 142}, "uniqueid": "MTK2405:3DY4FPOOA2V89Z6R68681KBIAHYVRK", "dateTime": 1517076356448}, {"current_trial": 143, "trialdata": {"rt": [2771, 4603, 6280, 8176, 16710, 22010, 27192, 31130, 38124, 45522], "recwords": ["hiker", "world", "friend", "spoon", "spoon", "sheriff", "wrench", "worker", "world", "knife"], "key_times": [1243, 1612, 1844, 2070, 2242, 2771, 3116, 3418, 3685, 3936, 4277, 4603, 4931, 5100, 5355, 5524, 5676, 5886, 6280, 6596, 6900, 7240, 7383, 7619, 8176, 15050, 15349, 15647, 15791, 16041, 16710, 20026, 20285, 20518, 20675, 20958, 21262, 21426, 22010, 25073, 25354, 25618, 25805, 26097, 26319, 27192, 29785, 29989, 30190, 30470, 30632, 30830, 31130, 36279, 36509, 36755, 37128, 37416, 38124, 42554, 42819, 43097, 43490, 44664, 45063, 45251, 45522], "trial_type": "free-recall", "conditions": [12, 800, "a", 12000], "internal_node_id": "0.0-107.0-0.0", "key_presses": [72, 73, 75, 69, 82, 13, 87, 79, 82, 76, 68, 13, 70, 82, 73, 69, 78, 68, 13, 83, 80, 79, 79, 78, 13, 83, 80, 79, 79, 78, 13, 83, 72, 69, 82, 73, 70, 70, 13, 87, 82, 69, 78, 67, 72, 13, 87, 79, 82, 75, 69, 82, 13, 87, 79, 82, 76, 68, 13, 75, 78, 73, 86, 8, 70, 69, 13], "trial": 3, "time_elapsed": 828649, "type": "FREE_RECALL", "trial_index": 143}, "uniqueid": "MTK2405:3DY4FPOOA2V89Z6R68681KBIAHYVRK", "dateTime": 1517076416462}, {"current_trial": 144, "trialdata": {"rt": 1336, "trial_type": "text", "internal_node_id": "0.0-108.0", "time_elapsed": 831995, "key_press": 75, "type": "INSTRUCTIONS", "trial_index": 144}, "uniqueid": "MTK2405:3DY4FPOOA2V89Z6R68681KBIAHYVRK", "dateTime": 1517076419801}, {"current_trial": 145, "trialdata": {"rt": [2466, 4798, 7908, 10420], "trial_type": "math-distractor", "key_times": [2011, 2466, 4410, 4798, 6892, 7468, 7908, 9492, 9848, 10420], "responses": ["9", "9", "15", "13"], "num2": [2, 6, 7, 8, 5], "num3": [4, 2, 4, 2, 9], "conditions": [24, 800, "a", 12000], "internal_node_id": "0.0-109.0", "key_presses": [57, 13, 57, 13, 49, 53, 13, 49, 51, 13], "trial": 4, "time_elapsed": 846012, "type": "DISTRACTOR", "trial_index": 145, "num1": [3, 1, 4, 3, 7]}, "uniqueid": "MTK2405:3DY4FPOOA2V89Z6R68681KBIAHYVRK", "dateTime": 1517076433815}, {"current_trial": 146, "trialdata": {"rt": -1, "trial_type": "single-stim", "stimulus": "<p id=\"stim\">10</p>", "internal_node_id": "0.0-110.0-0.0", "time_elapsed": 849014, "key_press": -1, "trial_index": 146}, "uniqueid": "MTK2405:3DY4FPOOA2V89Z6R68681KBIAHYVRK", "dateTime": 1517076436820}, {"current_trial": 147, "trialdata": {"rt": -1, "trial_type": "single-stim", "stimulus": "<p id=\"stim\">9</p>", "internal_node_id": "0.0-110.0-1.0", "time_elapsed": 850017, "key_press": -1, "trial_index": 147}, "uniqueid": "MTK2405:3DY4FPOOA2V89Z6R68681KBIAHYVRK", "dateTime": 1517076437823}, {"current_trial": 148, "trialdata": {"rt": -1, "trial_type": "single-stim", "stimulus": "<p id=\"stim\">8</p>", "internal_node_id": "0.0-110.0-2.0", "time_elapsed": 851023, "key_press": -1, "trial_index": 148}, "uniqueid": "MTK2405:3DY4FPOOA2V89Z6R68681KBIAHYVRK", "dateTime": 1517076438826}, {"current_trial": 149, "trialdata": {"rt": -1, "trial_type": "single-stim", "stimulus": "<p id=\"stim\">7</p>", "internal_node_id": "0.0-110.0-3.0", "time_elapsed": 852024, "key_press": -1, "trial_index": 149}, "uniqueid": "MTK2405:3DY4FPOOA2V89Z6R68681KBIAHYVRK", "dateTime": 1517076439827}, {"current_trial": 150, "trialdata": {"rt": -1, "trial_type": "single-stim", "stimulus": "<p id=\"stim\">6</p>", "internal_node_id": "0.0-110.0-4.0", "time_elapsed": 853032, "key_press": -1, "trial_index": 150}, "uniqueid": "MTK2405:3DY4FPOOA2V89Z6R68681KBIAHYVRK", "dateTime": 1517076440835}, {"current_trial": 151, "trialdata": {"rt": -1, "trial_type": "single-stim", "stimulus": "<p id=\"stim\">5</p>", "internal_node_id": "0.0-110.0-5.0", "time_elapsed": 854034, "key_press": -1, "trial_index": 151}, "uniqueid": "MTK2405:3DY4FPOOA2V89Z6R68681KBIAHYVRK", "dateTime": 1517076441837}, {"current_trial": 152, "trialdata": {"rt": -1, "trial_type": "single-stim", "stimulus": "<p id=\"stim\">4</p>", "internal_node_id": "0.0-110.0-6.0", "time_elapsed": 855042, "key_press": -1, "trial_index": 152}, "uniqueid": "MTK2405:3DY4FPOOA2V89Z6R68681KBIAHYVRK", "dateTime": 1517076442845}, {"current_trial": 153, "trialdata": {"rt": -1, "trial_type": "single-stim", "stimulus": "<p id=\"stim\">3</p>", "internal_node_id": "0.0-110.0-7.0", "time_elapsed": 856052, "key_press": -1, "trial_index": 153}, "uniqueid": "MTK2405:3DY4FPOOA2V89Z6R68681KBIAHYVRK", "dateTime": 1517076443855}, {"current_trial": 154, "trialdata": {"rt": -1, "trial_type": "single-stim", "stimulus": "<p id=\"stim\">2</p>", "internal_node_id": "0.0-110.0-8.0", "time_elapsed": 857056, "key_press": -1, "trial_index": 154}, "uniqueid": "MTK2405:3DY4FPOOA2V89Z6R68681KBIAHYVRK", "dateTime": 1517076444861}, {"current_trial": 155, "trialdata": {"rt": -1, "trial_type": "single-stim", "stimulus": "<p id=\"stim\">1</p>", "internal_node_id": "0.0-110.0-9.0", "time_elapsed": 858062, "key_press": -1, "trial_index": 155}, "uniqueid": "MTK2405:3DY4FPOOA2V89Z6R68681KBIAHYVRK", "dateTime": 1517076445865}, {"current_trial": 156, "trialdata": {"rt": -1, "trial_type": "single-stim", "stimulus": "<p id=\"stim\">+</p>", "internal_node_id": "0.0-111.0-0.0", "time_elapsed": 859567, "key_press": -1, "type": "FIXATION", "trial_index": 156}, "uniqueid": "MTK2405:3DY4FPOOA2V89Z6R68681KBIAHYVRK", "dateTime": 1517076447370}, {"current_trial": 157, "trialdata": {"rt": -1000, "trial_type": "single-audio", "word": "permit", "stimulus": "/static/audio/wordpool/PERMIT.wav", "conditions": [24, 800, "a", 12000], "internal_node_id": "0.0-112.0", "trial": 4, "time_elapsed": 861256, "serialpos": 0, "key_press": -1, "wordID": 1050, "type": "PRES_AUD", "trial_index": 157}, "uniqueid": "MTK2405:3DY4FPOOA2V89Z6R68681KBIAHYVRK", "dateTime": 1517076449059}, {"current_trial": 158, "trialdata": {"rt": -1000, "trial_type": "single-audio", "word": "lumber", "stimulus": "/static/audio/wordpool/LUMBER.wav", "conditions": [24, 800, "a", 12000], "internal_node_id": "0.0-113.0", "trial": 4, "time_elapsed": 863084, "serialpos": 1, "key_press": -1, "wordID": 847, "type": "PRES_AUD", "trial_index": 158}, "uniqueid": "MTK2405:3DY4FPOOA2V89Z6R68681KBIAHYVRK", "dateTime": 1517076450887}, {"current_trial": 159, "trialdata": {"rt": -1000, "trial_type": "single-audio", "word": "fragrance", "stimulus": "/static/audio/wordpool/FRAGRANCE.wav", "conditions": [24, 800, "a", 12000], "internal_node_id": "0.0-114.0", "trial": 4, "time_elapsed": 864928, "serialpos": 2, "key_press": -1, "wordID": 598, "type": "PRES_AUD", "trial_index": 159}, "uniqueid": "MTK2405:3DY4FPOOA2V89Z6R68681KBIAHYVRK", "dateTime": 1517076452731}, {"current_trial": 160, "trialdata": {"rt": -1000, "trial_type": "single-audio", "word": "crater", "stimulus": "/static/audio/wordpool/CRATER.wav", "conditions": [24, 800, "a", 12000], "internal_node_id": "0.0-115.0", "trial": 4, "time_elapsed": 866910, "serialpos": 3, "key_press": -1, "wordID": 399, "type": "PRES_AUD", "trial_index": 160}, "uniqueid": "MTK2405:3DY4FPOOA2V89Z6R68681KBIAHYVRK", "dateTime": 1517076454713}, {"current_trial": 161, "trialdata": {"rt": -1000, "trial_type": "single-audio", "word": "lava", "stimulus": "/static/audio/wordpool/LAVA.wav", "conditions": [24, 800, "a", 12000], "internal_node_id": "0.0-116.0", "trial": 4, "time_elapsed": 868817, "serialpos": 4, "key_press": -1, "wordID": 803, "type": "PRES_AUD", "trial_index": 161}, "uniqueid": "MTK2405:3DY4FPOOA2V89Z6R68681KBIAHYVRK", "dateTime": 1517076456620}, {"current_trial": 162, "trialdata": {"rt": -1000, "trial_type": "single-audio", "word": "binder", "stimulus": "/static/audio/wordpool/BINDER.wav", "conditions": [24, 800, "a", 12000], "internal_node_id": "0.0-117.0", "trial": 4, "time_elapsed": 870601, "serialpos": 5, "key_press": -1, "wordID": 126, "type": "PRES_AUD", "trial_index": 162}, "uniqueid": "MTK2405:3DY4FPOOA2V89Z6R68681KBIAHYVRK", "dateTime": 1517076458404}, {"current_trial": 163, "trialdata": {"rt": -1000, "trial_type": "single-audio", "word": "shirt", "stimulus": "/static/audio/wordpool/SHIRT.wav", "conditions": [24, 800, "a", 12000], "internal_node_id": "0.0-118.0", "trial": 4, "time_elapsed": 872394, "serialpos": 6, "key_press": -1, "wordID": 1286, "type": "PRES_AUD", "trial_index": 163}, "uniqueid": "MTK2405:3DY4FPOOA2V89Z6R68681KBIAHYVRK", "dateTime": 1517076460197}, {"current_trial": 164, "trialdata": {"rt": -1000, "trial_type": "single-audio", "word": "pigeon", "stimulus": "/static/audio/wordpool/PIGEON.wav", "conditions": [24, 800, "a", 12000], "internal_node_id": "0.0-119.0", "trial": 4, "time_elapsed": 874102, "serialpos": 7, "key_press": -1, "wordID": 1064, "type": "PRES_AUD", "trial_index": 164}, "uniqueid": "MTK2405:3DY4FPOOA2V89Z6R68681KBIAHYVRK", "dateTime": 1517076461905}, {"current_trial": 165, "trialdata": {"rt": -1000, "trial_type": "single-audio", "word": "donkey", "stimulus": "/static/audio/wordpool/DONKEY.wav", "conditions": [24, 800, "a", 12000], "internal_node_id": "0.0-120.0", "trial": 4, "time_elapsed": 876099, "serialpos": 8, "key_press": -1, "wordID": 483, "type": "PRES_AUD", "trial_index": 165}, "uniqueid": "MTK2405:3DY4FPOOA2V89Z6R68681KBIAHYVRK", "dateTime": 1517076463902}, {"current_trial": 166, "trialdata": {"rt": -1000, "trial_type": "single-audio", "word": "shovel", "stimulus": "/static/audio/wordpool/SHOVEL.wav", "conditions": [24, 800, "a", 12000], "internal_node_id": "0.0-121.0", "trial": 4, "time_elapsed": 877879, "serialpos": 9, "key_press": -1, "wordID": 1294, "type": "PRES_AUD", "trial_index": 166}, "uniqueid": "MTK2405:3DY4FPOOA2V89Z6R68681KBIAHYVRK", "dateTime": 1517076465682}, {"current_trial": 167, "trialdata": {"rt": -1000, "trial_type": "single-audio", "word": "headband", "stimulus": "/static/audio/wordpool/HEADBAND.wav", "conditions": [24, 800, "a", 12000], "internal_node_id": "0.0-122.0", "trial": 4, "time_elapsed": 879803, "serialpos": 10, "key_press": -1, "wordID": 695, "type": "PRES_AUD", "trial_index": 167}, "uniqueid": "MTK2405:3DY4FPOOA2V89Z6R68681KBIAHYVRK", "dateTime": 1517076467606}, {"current_trial": 168, "trialdata": {"rt": -1000, "trial_type": "single-audio", "word": "child", "stimulus": "/static/audio/wordpool/CHILD.wav", "conditions": [24, 800, "a", 12000], "internal_node_id": "0.0-123.0", "trial": 4, "time_elapsed": 881504, "serialpos": 11, "key_press": -1, "wordID": 298, "type": "PRES_AUD", "trial_index": 168}, "uniqueid": "MTK2405:3DY4FPOOA2V89Z6R68681KBIAHYVRK", "dateTime": 1517076469307}, {"current_trial": 169, "trialdata": {"rt": -1000, "trial_type": "single-audio", "word": "blouse", "stimulus": "/static/audio/wordpool/BLOUSE.wav", "conditions": [24, 800, "a", 12000], "internal_node_id": "0.0-124.0", "trial": 4, "time_elapsed": 883473, "serialpos": 12, "key_press": -1, "wordID": 138, "type": "PRES_AUD", "trial_index": 169}, "uniqueid": "MTK2405:3DY4FPOOA2V89Z6R68681KBIAHYVRK", "dateTime": 1517076471276}, {"current_trial": 170, "trialdata": {"rt": -1000, "trial_type": "single-audio", "word": "london", "stimulus": "/static/audio/wordpool/LONDON.wav", "conditions": [24, 800, "a", 12000], "internal_node_id": "0.0-125.0", "trial": 4, "time_elapsed": 885443, "serialpos": 13, "key_press": -1, "wordID": 842, "type": "PRES_AUD", "trial_index": 170}, "uniqueid": "MTK2405:3DY4FPOOA2V89Z6R68681KBIAHYVRK", "dateTime": 1517076473246}, {"current_trial": 171, "trialdata": {"rt": -1000, "trial_type": "single-audio", "word": "cupboard", "stimulus": "/static/audio/wordpool/CUPBOARD.wav", "conditions": [24, 800, "a", 12000], "internal_node_id": "0.0-126.0", "trial": 4, "time_elapsed": 887349, "serialpos": 14, "key_press": -1, "wordID": 424, "type": "PRES_AUD", "trial_index": 171}, "uniqueid": "MTK2405:3DY4FPOOA2V89Z6R68681KBIAHYVRK", "dateTime": 1517076475152}, {"current_trial": 172, "trialdata": {"rt": -1000, "trial_type": "single-audio", "word": "pastry", "stimulus": "/static/audio/wordpool/PASTRY.wav", "conditions": [24, 800, "a", 12000], "internal_node_id": "0.0-127.0", "trial": 4, "time_elapsed": 889287, "serialpos": 15, "key_press": -1, "wordID": 1021, "type": "PRES_AUD", "trial_index": 172}, "uniqueid": "MTK2405:3DY4FPOOA2V89Z6R68681KBIAHYVRK", "dateTime": 1517076477090}, {"current_trial": 173, "trialdata": {"rt": -1000, "trial_type": "single-audio", "word": "chemist", "stimulus": "/static/audio/wordpool/CHEMIST.wav", "conditions": [24, 800, "a", 12000], "internal_node_id": "0.0-128.0", "trial": 4, "time_elapsed": 891100, "serialpos": 16, "key_press": -1, "wordID": 291, "type": "PRES_AUD", "trial_index": 173}, "uniqueid": "MTK2405:3DY4FPOOA2V89Z6R68681KBIAHYVRK", "dateTime": 1517076478903}, {"current_trial": 174, "trialdata": {"rt": -1000, "trial_type": "single-audio", "word": "wrist", "stimulus": "/static/audio/wordpool/WRIST.wav", "conditions": [24, 800, "a", 12000], "internal_node_id": "0.0-129.0", "trial": 4, "time_elapsed": 893006, "serialpos": 17, "key_press": -1, "wordID": 1625, "type": "PRES_AUD", "trial_index": 174}, "uniqueid": "MTK2405:3DY4FPOOA2V89Z6R68681KBIAHYVRK", "dateTime": 1517076480809}, {"current_trial": 175, "trialdata": {"rt": -1000, "trial_type": "single-audio", "word": "cellar", "stimulus": "/static/audio/wordpool/CELLAR.wav", "conditions": [24, 800, "a", 12000], "internal_node_id": "0.0-130.0", "trial": 4, "time_elapsed": 894990, "serialpos": 18, "key_press": -1, "wordID": 266, "type": "PRES_AUD", "trial_index": 175}, "uniqueid": "MTK2405:3DY4FPOOA2V89Z6R68681KBIAHYVRK", "dateTime": 1517076482793}, {"current_trial": 176, "trialdata": {"rt": -1000, "trial_type": "single-audio", "word": "basement", "stimulus": "/static/audio/wordpool/BASEMENT.wav", "conditions": [24, 800, "a", 12000], "internal_node_id": "0.0-131.0", "trial": 4, "time_elapsed": 896912, "serialpos": 19, "key_press": -1, "wordID": 93, "type": "PRES_AUD", "trial_index": 176}, "uniqueid": "MTK2405:3DY4FPOOA2V89Z6R68681KBIAHYVRK", "dateTime": 1517076484715}, {"current_trial": 177, "trialdata": {"rt": -1000, "trial_type": "single-audio", "word": "church", "stimulus": "/static/audio/wordpool/CHURCH.wav", "conditions": [24, 800, "a", 12000], "internal_node_id": "0.0-132.0", "trial": 4, "time_elapsed": 898918, "serialpos": 20, "key_press": -1, "wordID": 306, "type": "PRES_AUD", "trial_index": 177}, "uniqueid": "MTK2405:3DY4FPOOA2V89Z6R68681KBIAHYVRK", "dateTime": 1517076486721}, {"current_trial": 178, "trialdata": {"rt": -1000, "trial_type": "single-audio", "word": "princess", "stimulus": "/static/audio/wordpool/PRINCESS.wav", "conditions": [24, 800, "a", 12000], "internal_node_id": "0.0-133.0", "trial": 4, "time_elapsed": 900542, "serialpos": 21, "key_press": -1, "wordID": 1124, "type": "PRES_AUD", "trial_index": 178}, "uniqueid": "MTK2405:3DY4FPOOA2V89Z6R68681KBIAHYVRK", "dateTime": 1517076488345}, {"current_trial": 179, "trialdata": {"rt": -1000, "trial_type": "single-audio", "word": "ankle", "stimulus": "/static/audio/wordpool/ANKLE.wav", "conditions": [24, 800, "a", 12000], "internal_node_id": "0.0-134.0", "trial": 4, "time_elapsed": 902186, "serialpos": 22, "key_press": -1, "wordID": 23, "type": "PRES_AUD", "trial_index": 179}, "uniqueid": "MTK2405:3DY4FPOOA2V89Z6R68681KBIAHYVRK", "dateTime": 1517076489989}, {"current_trial": 180, "trialdata": {"rt": -1000, "trial_type": "single-audio", "word": "carriage", "stimulus": "/static/audio/wordpool/CARRIAGE.wav", "conditions": [24, 800, "a", 12000], "internal_node_id": "0.0-135.0", "trial": 4, "time_elapsed": 903985, "serialpos": 23, "key_press": -1, "wordID": 247, "type": "PRES_AUD", "trial_index": 180}, "uniqueid": "MTK2405:3DY4FPOOA2V89Z6R68681KBIAHYVRK", "dateTime": 1517076491788}, {"current_trial": 181, "trialdata": {"rt": -1, "trial_type": "single-stim", "stimulus": "", "internal_node_id": "0.0-136.0-0.0", "time_elapsed": 905206, "key_press": -1, "type": "PRE_RECALL_DELAY", "trial_index": 181}, "uniqueid": "MTK2405:3DY4FPOOA2V89Z6R68681KBIAHYVRK", "dateTime": 1517076493009}, {"current_trial": 182, "trialdata": {"rt": -1000, "trial_type": "single-audio", "stimulus": "/static/audio/400Hz.wav", "internal_node_id": "0.0-137.0", "time_elapsed": 905707, "key_press": -1, "type": "PRE_RECALL_ALERT", "trial_index": 182}, "uniqueid": "MTK2405:3DY4FPOOA2V89Z6R68681KBIAHYVRK", "dateTime": 1517076493510}, {"current_trial": 183, "trialdata": {"rt": [3453, 6027, 8290, 11792, 16426, 23031, 25265, 47571], "recwords": ["carriage", "princess", "crater", "donkey", "church", "child", "ankle", "chemist"], "key_times": [1095, 1335, 1615, 1742, 1970, 2210, 2626, 2932, 3453, 3951, 4205, 4371, 4634, 4916, 5143, 5603, 5757, 6027, 6270, 6518, 6754, 7048, 7259, 7361, 8290, 9461, 9655, 9964, 10289, 10525, 11146, 11792, 14023, 14206, 14715, 14890, 15327, 15522, 16426, 21511, 21643, 21962, 22231, 22642, 23031, 23382, 23671, 24093, 24341, 24777, 25265, 43378, 43693, 44155, 44869, 45039, 45196, 45938, 46157, 46278, 46502, 46760, 46916, 47229, 47571], "trial_type": "free-recall", "conditions": [24, 800, "a", 12000], "internal_node_id": "0.0-138.0-0.0", "key_presses": [67, 65, 82, 82, 73, 65, 71, 69, 13, 80, 82, 73, 78, 67, 69, 83, 83, 13, 67, 82, 65, 84, 69, 82, 13, 68, 79, 78, 75, 69, 89, 13, 67, 72, 85, 82, 67, 72, 13, 67, 72, 73, 76, 68, 13, 65, 78, 75, 76, 69, 13, 83, 67, 73, 8, 8, 8, 67, 72, 69, 77, 73, 83, 84, 13], "trial": 4, "time_elapsed": 965710, "type": "FREE_RECALL", "trial_index": 183}, "uniqueid": "MTK2405:3DY4FPOOA2V89Z6R68681KBIAHYVRK", "dateTime": 1517076553531}, {"current_trial": 184, "trialdata": {"rt": 2008, "trial_type": "text", "internal_node_id": "0.0-139.0", "time_elapsed": 969738, "key_press": 75, "type": "INSTRUCTIONS", "trial_index": 184}, "uniqueid": "MTK2405:3DY4FPOOA2V89Z6R68681KBIAHYVRK", "dateTime": 1517076557541}, {"current_trial": 185, "trialdata": {"rt": [4054, 6954, 11555, 16070, 18397, 22270], "trial_type": "math-distractor", "key_times": [2978, 3224, 4054, 6172, 6629, 6954, 11094, 11288, 11555, 14877, 15293, 16070, 17977, 18397, 21766, 21799, 22270], "responses": ["20", "15", "21", "20", "9", "19"], "num2": [8, 5, 6, 9, 3, 7, 3], "num3": [3, 7, 9, 4, 5, 8, 7], "conditions": [12, 800, "a", 24000], "internal_node_id": "0.0-140.0", "key_presses": [50, 48, 13, 49, 53, 13, 50, 49, 13, 50, 48, 13, 57, 13, 49, 57, 13], "trial": 5, "time_elapsed": 995753, "type": "DISTRACTOR", "trial_index": 185, "num1": [9, 3, 6, 7, 1, 4, 6]}, "uniqueid": "MTK2405:3DY4FPOOA2V89Z6R68681KBIAHYVRK", "dateTime": 1517076583556}, {"current_trial": 186, "trialdata": {"rt": -1, "trial_type": "single-stim", "stimulus": "<p id=\"stim\">10</p>", "internal_node_id": "0.0-141.0-0.0", "time_elapsed": 998755, "key_press": -1, "trial_index": 186}, "uniqueid": "MTK2405:3DY4FPOOA2V89Z6R68681KBIAHYVRK", "dateTime": 1517076586560}, {"current_trial": 187, "trialdata": {"rt": -1, "trial_type": "single-stim", "stimulus": "<p id=\"stim\">9</p>", "internal_node_id": "0.0-141.0-1.0", "time_elapsed": 999758, "key_press": -1, "trial_index": 187}, "uniqueid": "MTK2405:3DY4FPOOA2V89Z6R68681KBIAHYVRK", "dateTime": 1517076587564}, {"current_trial": 188, "trialdata": {"rt": -1, "trial_type": "single-stim", "stimulus": "<p id=\"stim\">8</p>", "internal_node_id": "0.0-141.0-2.0", "time_elapsed": 1000761, "key_press": -1, "trial_index": 188}, "uniqueid": "MTK2405:3DY4FPOOA2V89Z6R68681KBIAHYVRK", "dateTime": 1517076588567}, {"current_trial": 189, "trialdata": {"rt": -1, "trial_type": "single-stim", "stimulus": "<p id=\"stim\">7</p>", "internal_node_id": "0.0-141.0-3.0", "time_elapsed": 1001766, "key_press": -1, "trial_index": 189}, "uniqueid": "MTK2405:3DY4FPOOA2V89Z6R68681KBIAHYVRK", "dateTime": 1517076589571}, {"current_trial": 190, "trialdata": {"rt": -1, "trial_type": "single-stim", "stimulus": "<p id=\"stim\">6</p>", "internal_node_id": "0.0-141.0-4.0", "time_elapsed": 1002773, "key_press": -1, "trial_index": 190}, "uniqueid": "MTK2405:3DY4FPOOA2V89Z6R68681KBIAHYVRK", "dateTime": 1517076590576}, {"current_trial": 191, "trialdata": {"rt": -1, "trial_type": "single-stim", "stimulus": "<p id=\"stim\">5</p>", "internal_node_id": "0.0-141.0-5.0", "time_elapsed": 1003775, "key_press": -1, "trial_index": 191}, "uniqueid": "MTK2405:3DY4FPOOA2V89Z6R68681KBIAHYVRK", "dateTime": 1517076591580}, {"current_trial": 192, "trialdata": {"rt": -1, "trial_type": "single-stim", "stimulus": "<p id=\"stim\">4</p>", "internal_node_id": "0.0-141.0-6.0", "time_elapsed": 1004781, "key_press": -1, "trial_index": 192}, "uniqueid": "MTK2405:3DY4FPOOA2V89Z6R68681KBIAHYVRK", "dateTime": 1517076592584}, {"current_trial": 193, "trialdata": {"rt": -1, "trial_type": "single-stim", "stimulus": "<p id=\"stim\">3</p>", "internal_node_id": "0.0-141.0-7.0", "time_elapsed": 1005782, "key_press": -1, "trial_index": 193}, "uniqueid": "MTK2405:3DY4FPOOA2V89Z6R68681KBIAHYVRK", "dateTime": 1517076593585}, {"current_trial": 194, "trialdata": {"rt": -1, "trial_type": "single-stim", "stimulus": "<p id=\"stim\">2</p>", "internal_node_id": "0.0-141.0-8.0", "time_elapsed": 1006785, "key_press": -1, "trial_index": 194}, "uniqueid": "MTK2405:3DY4FPOOA2V89Z6R68681KBIAHYVRK", "dateTime": 1517076594591}, {"current_trial": 195, "trialdata": {"rt": -1, "trial_type": "single-stim", "stimulus": "<p id=\"stim\">1</p>", "internal_node_id": "0.0-141.0-9.0", "time_elapsed": 1007790, "key_press": -1, "trial_index": 195}, "uniqueid": "MTK2405:3DY4FPOOA2V89Z6R68681KBIAHYVRK", "dateTime": 1517076595593}, {"current_trial": 196, "trialdata": {"rt": -1, "trial_type": "single-stim", "stimulus": "<p id=\"stim\">+</p>", "internal_node_id": "0.0-142.0-0.0", "time_elapsed": 1009296, "key_press": -1, "type": "FIXATION", "trial_index": 196}, "uniqueid": "MTK2405:3DY4FPOOA2V89Z6R68681KBIAHYVRK", "dateTime": 1517076597099}, {"current_trial": 197, "trialdata": {"rt": -1000, "trial_type": "single-audio", "word": "egypt", "stimulus": "/static/audio/wordpool/EGYPT.wav", "conditions": [12, 800, "a", 24000], "internal_node_id": "0.0-143.0", "trial": 5, "time_elapsed": 1011014, "serialpos": 0, "key_press": -1, "wordID": 518, "type": "PRES_AUD", "trial_index": 197}, "uniqueid": "MTK2405:3DY4FPOOA2V89Z6R68681KBIAHYVRK", "dateTime": 1517076598817}, {"current_trial": 198, "trialdata": {"rt": -1000, "trial_type": "single-audio", "word": "valley", "stimulus": "/static/audio/wordpool/VALLEY.wav", "conditions": [12, 800, "a", 24000], "internal_node_id": "0.0-144.0", "trial": 5, "time_elapsed": 1012703, "serialpos": 1, "key_press": -1, "wordID": 1544, "type": "PRES_AUD", "trial_index": 198}, "uniqueid": "MTK2405:3DY4FPOOA2V89Z6R68681KBIAHYVRK", "dateTime": 1517076600506}, {"current_trial": 199, "trialdata": {"rt": -1000, "trial_type": "single-audio", "word": "omelet", "stimulus": "/static/audio/wordpool/OMELET.wav", "conditions": [12, 800, "a", 24000], "internal_node_id": "0.0-145.0", "trial": 5, "time_elapsed": 1014391, "serialpos": 2, "key_press": -1, "wordID": 975, "type": "PRES_AUD", "trial_index": 199}, "uniqueid": "MTK2405:3DY4FPOOA2V89Z6R68681KBIAHYVRK", "dateTime": 1517076602194}, {"current_trial": 200, "trialdata": {"rt": -1000, "trial_type": "single-audio", "word": "lamp", "stimulus": "/static/audio/wordpool/LAMP.wav", "conditions": [12, 800, "a", 24000], "internal_node_id": "0.0-146.0", "trial": 5, "time_elapsed": 1016256, "serialpos": 3, "key_press": -1, "wordID": 797, "type": "PRES_AUD", "trial_index": 200}, "uniqueid": "MTK2405:3DY4FPOOA2V89Z6R68681KBIAHYVRK", "dateTime": 1517076604059}, {"current_trial": 201, "trialdata": {"rt": -1000, "trial_type": "single-audio", "word": "actor", "stimulus": "/static/audio/wordpool/ACTOR.wav", "conditions": [12, 800, "a", 24000], "internal_node_id": "0.0-147.0", "trial": 5, "time_elapsed": 1018127, "serialpos": 4, "key_press": -1, "wordID": 4, "type": "PRES_AUD", "trial_index": 201}, "uniqueid": "MTK2405:3DY4FPOOA2V89Z6R68681KBIAHYVRK", "dateTime": 1517076605930}, {"current_trial": 202, "trialdata": {"rt": -1000, "trial_type": "single-audio", "word": "piston", "stimulus": "/static/audio/wordpool/PISTON.wav", "conditions": [12, 800, "a", 24000], "internal_node_id": "0.0-148.0", "trial": 5, "time_elapsed": 1019986, "serialpos": 5, "key_press": -1, "wordID": 1075, "type": "PRES_AUD", "trial_index": 202}, "uniqueid": "MTK2405:3DY4FPOOA2V89Z6R68681KBIAHYVRK", "dateTime": 1517076607789}, {"current_trial": 203, "trialdata": {"rt": -1000, "trial_type": "single-audio", "word": "brick", "stimulus": "/static/audio/wordpool/BRICK.wav", "conditions": [12, 800, "a", 24000], "internal_node_id": "0.0-149.0", "trial": 5, "time_elapsed": 1021969, "serialpos": 6, "key_press": -1, "wordID": 171, "type": "PRES_AUD", "trial_index": 203}, "uniqueid": "MTK2405:3DY4FPOOA2V89Z6R68681KBIAHYVRK", "dateTime": 1517076609772}, {"current_trial": 204, "trialdata": {"rt": -1000, "trial_type": "single-audio", "word": "custard", "stimulus": "/static/audio/wordpool/CUSTARD.wav", "conditions": [12, 800, "a", 24000], "internal_node_id": "0.0-150.0", "trial": 5, "time_elapsed": 1023970, "serialpos": 7, "key_press": -1, "wordID": 428, "type": "PRES_AUD", "trial_index": 204}, "uniqueid": "MTK2405:3DY4FPOOA2V89Z6R68681KBIAHYVRK", "dateTime": 1517076611773}, {"current_trial": 205, "trialdata": {"rt": -1000, "trial_type": "single-audio", "word": "scissors", "stimulus": "/static/audio/wordpool/SCISSORS.wav", "conditions": [12, 800, "a", 24000], "internal_node_id": "0.0-151.0", "trial": 5, "time_elapsed": 1025689, "serialpos": 8, "key_press": -1, "wordID": 1249, "type": "PRES_AUD", "trial_index": 205}, "uniqueid": "MTK2405:3DY4FPOOA2V89Z6R68681KBIAHYVRK", "dateTime": 1517076613492}, {"current_trial": 206, "trialdata": {"rt": -1000, "trial_type": "single-audio", "word": "scalpel", "stimulus": "/static/audio/wordpool/SCALPEL.wav", "conditions": [12, 800, "a", 24000], "internal_node_id": "0.0-152.0", "trial": 5, "time_elapsed": 1027624, "serialpos": 9, "key_press": -1, "wordID": 1242, "type": "PRES_AUD", "trial_index": 206}, "uniqueid": "MTK2405:3DY4FPOOA2V89Z6R68681KBIAHYVRK", "dateTime": 1517076615427}, {"current_trial": 207, "trialdata": {"rt": -1000, "trial_type": "single-audio", "word": "pilot", "stimulus": "/static/audio/wordpool/PILOT.wav", "conditions": [12, 800, "a", 24000], "internal_node_id": "0.0-153.0", "trial": 5, "time_elapsed": 1029327, "serialpos": 10, "key_press": -1, "wordID": 1069, "type": "PRES_AUD", "trial_index": 207}, "uniqueid": "MTK2405:3DY4FPOOA2V89Z6R68681KBIAHYVRK", "dateTime": 1517076617130}, {"current_trial": 208, "trialdata": {"rt": -1000, "trial_type": "single-audio", "word": "staple", "stimulus": "/static/audio/wordpool/STAPLE.wav", "conditions": [12, 800, "a", 24000], "internal_node_id": "0.0-154.0", "trial": 5, "time_elapsed": 1030969, "serialpos": 11, "key_press": -1, "wordID": 1370, "type": "PRES_AUD", "trial_index": 208}, "uniqueid": "MTK2405:3DY4FPOOA2V89Z6R68681KBIAHYVRK", "dateTime": 1517076618772}, {"current_trial": 209, "trialdata": {"rt": -1, "trial_type": "single-stim", "stimulus": "", "internal_node_id": "0.0-155.0-0.0", "time_elapsed": 1032283, "key_press": -1, "type": "PRE_RECALL_DELAY", "trial_index": 209}, "uniqueid": "MTK2405:3DY4FPOOA2V89Z6R68681KBIAHYVRK", "dateTime": 1517076620086}, {"current_trial": 210, "trialdata": {"rt": -1000, "trial_type": "single-audio", "stimulus": "/static/audio/400Hz.wav", "internal_node_id": "0.0-156.0", "time_elapsed": 1032798, "key_press": -1, "type": "PRE_RECALL_ALERT", "trial_index": 210}, "uniqueid": "MTK2405:3DY4FPOOA2V89Z6R68681KBIAHYVRK", "dateTime": 1517076620601}, {"current_trial": 211, "trialdata": {"rt": [3075, 7383, 10030, 22390, 26854, 28852, 35826, 38349], "recwords": ["staple", "ejept", "scissor", "sculpple", "vslley", "crater", "lamp", "pilot"], "key_times": [1118, 1484, 1953, 2272, 2492, 2723, 3075, 3577, 5248, 5570, 6147, 6498, 7383, 7725, 7986, 8316, 8859, 9187, 9516, 9710, 10030, 10698, 11456, 11892, 12593, 12837, 20814, 21157, 21404, 22390, 25114, 25370, 25653, 25794, 26089, 26476, 26854, 27494, 27723, 27967, 28236, 28456, 28562, 28852, 34269, 34439, 34611, 35010, 35826, 36532, 36978, 37295, 37605, 37926, 38349], "trial_type": "free-recall", "conditions": [12, 800, "a", 24000], "internal_node_id": "0.0-157.0-0.0", "key_presses": [83, 84, 65, 80, 76, 69, 13, 69, 74, 69, 80, 84, 13, 83, 67, 73, 83, 83, 79, 82, 13, 83, 67, 85, 76, 80, 80, 76, 69, 13, 86, 83, 76, 76, 69, 89, 13, 67, 82, 65, 84, 69, 82, 13, 76, 65, 77, 80, 13, 80, 73, 76, 79, 84, 13], "trial": 5, "time_elapsed": 1092798, "type": "FREE_RECALL", "trial_index": 211}, "uniqueid": "MTK2405:3DY4FPOOA2V89Z6R68681KBIAHYVRK", "dateTime": 1517076680616}, {"current_trial": 212, "trialdata": {"rt": 2928, "trial_type": "text", "internal_node_id": "0.0-158.0", "time_elapsed": 1097744, "key_press": 13, "type": "INSTRUCTIONS", "trial_index": 212}, "uniqueid": "MTK2405:3DY4FPOOA2V89Z6R68681KBIAHYVRK", "dateTime": 1517076685547}, {"current_trial": 213, "trialdata": {"rt": [2869, 6133, 10295], "trial_type": "math-distractor", "key_times": [1805, 2226, 2869, 5165, 5673, 6133, 9495, 10002, 10295], "responses": ["14", "17", "17"], "num2": [4, 6, 5, 9], "num3": [8, 5, 9, 5], "conditions": [12, 800, "a", 12000], "internal_node_id": "0.0-159.0", "key_presses": [49, 52, 13, 49, 55, 13, 49, 55, 13], "trial": 6, "time_elapsed": 1111755, "type": "DISTRACTOR", "trial_index": 213, "num1": [2, 6, 3, 6]}, "uniqueid": "MTK2405:3DY4FPOOA2V89Z6R68681KBIAHYVRK", "dateTime": 1517076699558}, {"current_trial": 214, "trialdata": {"rt": -1, "trial_type": "single-stim", "stimulus": "<p id=\"stim\">10</p>", "internal_node_id": "0.0-160.0-0.0", "time_elapsed": 1114758, "key_press": -1, "trial_index": 214}, "uniqueid": "MTK2405:3DY4FPOOA2V89Z6R68681KBIAHYVRK", "dateTime": 1517076702561}, {"current_trial": 215, "trialdata": {"rt": -1, "trial_type": "single-stim", "stimulus": "<p id=\"stim\">9</p>", "internal_node_id": "0.0-160.0-1.0", "time_elapsed": 1115764, "key_press": -1, "trial_index": 215}, "uniqueid": "MTK2405:3DY4FPOOA2V89Z6R68681KBIAHYVRK", "dateTime": 1517076703570}, {"current_trial": 216, "trialdata": {"rt": -1, "trial_type": "single-stim", "stimulus": "<p id=\"stim\">8</p>", "internal_node_id": "0.0-160.0-2.0", "time_elapsed": 1116770, "key_press": -1, "trial_index": 216}, "uniqueid": "MTK2405:3DY4FPOOA2V89Z6R68681KBIAHYVRK", "dateTime": 1517076704573}, {"current_trial": 217, "trialdata": {"rt": -1, "trial_type": "single-stim", "stimulus": "<p id=\"stim\">7</p>", "internal_node_id": "0.0-160.0-3.0", "time_elapsed": 1117773, "key_press": -1, "trial_index": 217}, "uniqueid": "MTK2405:3DY4FPOOA2V89Z6R68681KBIAHYVRK", "dateTime": 1517076705576}, {"current_trial": 218, "trialdata": {"rt": -1, "trial_type": "single-stim", "stimulus": "<p id=\"stim\">6</p>", "internal_node_id": "0.0-160.0-4.0", "time_elapsed": 1118775, "key_press": -1, "trial_index": 218}, "uniqueid": "MTK2405:3DY4FPOOA2V89Z6R68681KBIAHYVRK", "dateTime": 1517076706581}, {"current_trial": 219, "trialdata": {"rt": -1, "trial_type": "single-stim", "stimulus": "<p id=\"stim\">5</p>", "internal_node_id": "0.0-160.0-5.0", "time_elapsed": 1119783, "key_press": -1, "trial_index": 219}, "uniqueid": "MTK2405:3DY4FPOOA2V89Z6R68681KBIAHYVRK", "dateTime": 1517076707589}, {"current_trial": 220, "trialdata": {"rt": -1, "trial_type": "single-stim", "stimulus": "<p id=\"stim\">4</p>", "internal_node_id": "0.0-160.0-6.0", "time_elapsed": 1120788, "key_press": -1, "trial_index": 220}, "uniqueid": "MTK2405:3DY4FPOOA2V89Z6R68681KBIAHYVRK", "dateTime": 1517076708593}, {"current_trial": 221, "trialdata": {"rt": -1, "trial_type": "single-stim", "stimulus": "<p id=\"stim\">3</p>", "internal_node_id": "0.0-160.0-7.0", "time_elapsed": 1121793, "key_press": -1, "trial_index": 221}, "uniqueid": "MTK2405:3DY4FPOOA2V89Z6R68681KBIAHYVRK", "dateTime": 1517076709596}, {"current_trial": 222, "trialdata": {"rt": -1, "trial_type": "single-stim", "stimulus": "<p id=\"stim\">2</p>", "internal_node_id": "0.0-160.0-8.0", "time_elapsed": 1122794, "key_press": -1, "trial_index": 222}, "uniqueid": "MTK2405:3DY4FPOOA2V89Z6R68681KBIAHYVRK", "dateTime": 1517076710597}, {"current_trial": 223, "trialdata": {"rt": -1, "trial_type": "single-stim", "stimulus": "<p id=\"stim\">1</p>", "internal_node_id": "0.0-160.0-9.0", "time_elapsed": 1123798, "key_press": -1, "trial_index": 223}, "uniqueid": "MTK2405:3DY4FPOOA2V89Z6R68681KBIAHYVRK", "dateTime": 1517076711603}, {"current_trial": 224, "trialdata": {"rt": -1, "trial_type": "single-stim", "stimulus": "<p id=\"stim\">+</p>", "internal_node_id": "0.0-161.0-0.0", "time_elapsed": 1125304, "key_press": -1, "type": "FIXATION", "trial_index": 224}, "uniqueid": "MTK2405:3DY4FPOOA2V89Z6R68681KBIAHYVRK", "dateTime": 1517076713107}, {"current_trial": 225, "trialdata": {"rt": -1000, "trial_type": "single-audio", "word": "mammal", "stimulus": "/static/audio/wordpool/MAMMAL.wav", "conditions": [12, 800, "a", 12000], "internal_node_id": "0.0-162.0", "trial": 6, "time_elapsed": 1127231, "serialpos": 0, "key_press": -1, "wordID": 860, "type": "PRES_AUD", "trial_index": 225}, "uniqueid": "MTK2405:3DY4FPOOA2V89Z6R68681KBIAHYVRK", "dateTime": 1517076715034}, {"current_trial": 226, "trialdata": {"rt": -1000, "trial_type": "single-audio", "word": "stomach", "stimulus": "/static/audio/wordpool/STOMACH.wav", "conditions": [12, 800, "a", 12000], "internal_node_id": "0.0-163.0", "trial": 6, "time_elapsed": 1128908, "serialpos": 1, "key_press": -1, "wordID": 1383, "type": "PRES_AUD", "trial_index": 226}, "uniqueid": "MTK2405:3DY4FPOOA2V89Z6R68681KBIAHYVRK", "dateTime": 1517076716711}, {"current_trial": 227, "trialdata": {"rt": -1000, "trial_type": "single-audio", "word": "chest", "stimulus": "/static/audio/wordpool/CHEST.wav", "conditions": [12, 800, "a", 12000], "internal_node_id": "0.0-164.0", "trial": 6, "time_elapsed": 1130869, "serialpos": 2, "key_press": -1, "wordID": 294, "type": "PRES_AUD", "trial_index": 227}, "uniqueid": "MTK2405:3DY4FPOOA2V89Z6R68681KBIAHYVRK", "dateTime": 1517076718672}, {"current_trial": 228, "trialdata": {"rt": -1000, "trial_type": "single-audio", "word": "kleenex", "stimulus": "/static/audio/wordpool/KLEENEX.wav", "conditions": [12, 800, "a", 12000], "internal_node_id": "0.0-165.0", "trial": 6, "time_elapsed": 1132715, "serialpos": 3, "key_press": -1, "wordID": 781, "type": "PRES_AUD", "trial_index": 228}, "uniqueid": "MTK2405:3DY4FPOOA2V89Z6R68681KBIAHYVRK", "dateTime": 1517076720518}, {"current_trial": 229, "trialdata": {"rt": -1000, "trial_type": "single-audio", "word": "summit", "stimulus": "/static/audio/wordpool/SUMMIT.wav", "conditions": [12, 800, "a", 12000], "internal_node_id": "0.0-166.0", "trial": 6, "time_elapsed": 1134508, "serialpos": 4, "key_press": -1, "wordID": 1404, "type": "PRES_AUD", "trial_index": 229}, "uniqueid": "MTK2405:3DY4FPOOA2V89Z6R68681KBIAHYVRK", "dateTime": 1517076722311}, {"current_trial": 230, "trialdata": {"rt": -1000, "trial_type": "single-audio", "word": "blueprint", "stimulus": "/static/audio/wordpool/BLUEPRINT.wav", "conditions": [12, 800, "a", 12000], "internal_node_id": "0.0-167.0", "trial": 6, "time_elapsed": 1136293, "serialpos": 5, "key_press": -1, "wordID": 141, "type": "PRES_AUD", "trial_index": 230}, "uniqueid": "MTK2405:3DY4FPOOA2V89Z6R68681KBIAHYVRK", "dateTime": 1517076724096}, {"current_trial": 231, "trialdata": {"rt": -1000, "trial_type": "single-audio", "word": "mask", "stimulus": "/static/audio/wordpool/MASK.wav", "conditions": [12, 800, "a", 12000], "internal_node_id": "0.0-168.0", "trial": 6, "time_elapsed": 1138279, "serialpos": 6, "key_press": -1, "wordID": 875, "type": "PRES_AUD", "trial_index": 231}, "uniqueid": "MTK2405:3DY4FPOOA2V89Z6R68681KBIAHYVRK", "dateTime": 1517076726082}, {"current_trial": 232, "trialdata": {"rt": -1000, "trial_type": "single-audio", "word": "shorts", "stimulus": "/static/audio/wordpool/SHORTS.wav", "conditions": [12, 800, "a", 12000], "internal_node_id": "0.0-169.0", "trial": 6, "time_elapsed": 1140072, "serialpos": 7, "key_press": -1, "wordID": 1292, "type": "PRES_AUD", "trial_index": 232}, "uniqueid": "MTK2405:3DY4FPOOA2V89Z6R68681KBIAHYVRK", "dateTime": 1517076727875}, {"current_trial": 233, "trialdata": {"rt": -1000, "trial_type": "single-audio", "word": "passage", "stimulus": "/static/audio/wordpool/PASSAGE.wav", "conditions": [12, 800, "a", 12000], "internal_node_id": "0.0-170.0", "trial": 6, "time_elapsed": 1141997, "serialpos": 8, "key_press": -1, "wordID": 1018, "type": "PRES_AUD", "trial_index": 233}, "uniqueid": "MTK2405:3DY4FPOOA2V89Z6R68681KBIAHYVRK", "dateTime": 1517076729800}, {"current_trial": 234, "trialdata": {"rt": -1000, "trial_type": "single-audio", "word": "gymnast", "stimulus": "/static/audio/wordpool/GYMNAST.wav", "conditions": [12, 800, "a", 12000], "internal_node_id": "0.0-171.0", "trial": 6, "time_elapsed": 1143740, "serialpos": 9, "key_press": -1, "wordID": 674, "type": "PRES_AUD", "trial_index": 234}, "uniqueid": "MTK2405:3DY4FPOOA2V89Z6R68681KBIAHYVRK", "dateTime": 1517076731545}, {"current_trial": 235, "trialdata": {"rt": -1000, "trial_type": "single-audio", "word": "proton", "stimulus": "/static/audio/wordpool/PROTON.wav", "conditions": [12, 800, "a", 12000], "internal_node_id": "0.0-172.0", "trial": 6, "time_elapsed": 1145681, "serialpos": 10, "key_press": -1, "wordID": 1131, "type": "PRES_AUD", "trial_index": 235}, "uniqueid": "MTK2405:3DY4FPOOA2V89Z6R68681KBIAHYVRK", "dateTime": 1517076733484}, {"current_trial": 236, "trialdata": {"rt": -1000, "trial_type": "single-audio", "word": "panther", "stimulus": "/static/audio/wordpool/PANTHER.wav", "conditions": [12, 800, "a", 12000], "internal_node_id": "0.0-173.0", "trial": 6, "time_elapsed": 1147668, "serialpos": 11, "key_press": -1, "wordID": 1008, "type": "PRES_AUD", "trial_index": 236}, "uniqueid": "MTK2405:3DY4FPOOA2V89Z6R68681KBIAHYVRK", "dateTime": 1517076735471}, {"current_trial": 237, "trialdata": {"rt": -1, "trial_type": "single-stim", "stimulus": "", "internal_node_id": "0.0-174.0-0.0", "time_elapsed": 1148884, "key_press": -1, "type": "PRE_RECALL_DELAY", "trial_index": 237}, "uniqueid": "MTK2405:3DY4FPOOA2V89Z6R68681KBIAHYVRK", "dateTime": 1517076736687}, {"current_trial": 238, "trialdata": {"rt": -1000, "trial_type": "single-audio", "stimulus": "/static/audio/400Hz.wav", "internal_node_id": "0.0-175.0", "time_elapsed": 1149396, "key_press": -1, "type": "PRE_RECALL_ALERT", "trial_index": 238}, "uniqueid": "MTK2405:3DY4FPOOA2V89Z6R68681KBIAHYVRK", "dateTime": 1517076737199}, {"current_trial": 239, "trialdata": {"rt": [3712, 7708, 11411, 17753, 27109, 31131, 41313], "recwords": ["panther", "gymnist", "camel", "proton", "stomach", "shirt", "panther"], "key_times": [1412, 1846, 2289, 2633, 2857, 3041, 3162, 3712, 4248, 4504, 5505, 6253, 6507, 6707, 7205, 7708, 10055, 10306, 10444, 10736, 10985, 11411, 15551, 16038, 16320, 16577, 16710, 16993, 17753, 24411, 24746, 24985, 25250, 25496, 25878, 26231, 27109, 29626, 29758, 30082, 30265, 30506, 31131, 39937, 40111, 40312, 40547, 40698, 40837, 40944, 41313], "trial_type": "free-recall", "conditions": [12, 800, "a", 12000], "internal_node_id": "0.0-176.0-0.0", "key_presses": [80, 65, 78, 84, 72, 69, 82, 13, 71, 89, 77, 78, 73, 83, 84, 13, 67, 65, 77, 69, 76, 13, 80, 82, 79, 84, 79, 78, 13, 83, 84, 79, 77, 65, 67, 72, 13, 83, 72, 73, 82, 84, 13, 80, 65, 78, 84, 72, 69, 82, 13], "trial": 6, "time_elapsed": 1209399, "type": "FREE_RECALL", "trial_index": 239}, "uniqueid": "MTK2405:3DY4FPOOA2V89Z6R68681KBIAHYVRK", "dateTime": 1517076797222}, {"current_trial": 240, "trialdata": {"rt": 1308, "trial_type": "text", "internal_node_id": "0.0-177.0", "time_elapsed": 1212730, "key_press": 76, "type": "INSTRUCTIONS", "trial_index": 240}, "uniqueid": "MTK2405:3DY4FPOOA2V89Z6R68681KBIAHYVRK", "dateTime": 1517076800533}, {"current_trial": 241, "trialdata": {"rt": [2104, 5217, 7792, 11373, 14791, 16965, 19233, 22992], "trial_type": "math-distractor", "key_times": [1281, 1635, 2104, 4297, 4617, 5217, 6939, 7345, 7792, 10931, 11089, 11373, 13948, 14426, 14791, 16665, 16965, 18849, 18991, 19233, 20978, 21391, 22277, 22592, 22992], "responses": ["13", "20", "27", "21", "19", "9", "22", "15"], "num2": [1, 9, 9, 7, 9, 2, 9, 8, 9], "num3": [3, 4, 9, 8, 5, 6, 4, 1, 5], "conditions": [12, 1600, "a", 24000], "internal_node_id": "0.0-178.0", "key_presses": [49, 51, 13, 50, 48, 13, 50, 55, 13, 50, 49, 13, 49, 57, 13, 57, 13, 50, 50, 13, 49, 54, 8, 53, 13], "trial": 7, "time_elapsed": 1238737, "type": "DISTRACTOR", "trial_index": 241, "num1": [9, 7, 9, 6, 5, 1, 9, 6, 2]}, "uniqueid": "MTK2405:3DY4FPOOA2V89Z6R68681KBIAHYVRK", "dateTime": 1517076826540}, {"current_trial": 242, "trialdata": {"rt": -1, "trial_type": "single-stim", "stimulus": "<p id=\"stim\">10</p>", "internal_node_id": "0.0-179.0-0.0", "time_elapsed": 1241740, "key_press": -1, "trial_index": 242}, "uniqueid": "MTK2405:3DY4FPOOA2V89Z6R68681KBIAHYVRK", "dateTime": 1517076829543}, {"current_trial": 243, "trialdata": {"rt": -1, "trial_type": "single-stim", "stimulus": "<p id=\"stim\">9</p>", "internal_node_id": "0.0-179.0-1.0", "time_elapsed": 1242740, "key_press": -1, "trial_index": 243}, "uniqueid": "MTK2405:3DY4FPOOA2V89Z6R68681KBIAHYVRK", "dateTime": 1517076830543}, {"current_trial": 244, "trialdata": {"rt": -1, "trial_type": "single-stim", "stimulus": "<p id=\"stim\">8</p>", "internal_node_id": "0.0-179.0-2.0", "time_elapsed": 1243741, "key_press": -1, "trial_index": 244}, "uniqueid": "MTK2405:3DY4FPOOA2V89Z6R68681KBIAHYVRK", "dateTime": 1517076831547}, {"current_trial": 245, "trialdata": {"rt": -1, "trial_type": "single-stim", "stimulus": "<p id=\"stim\">7</p>", "internal_node_id": "0.0-179.0-3.0", "time_elapsed": 1244745, "key_press": -1, "trial_index": 245}, "uniqueid": "MTK2405:3DY4FPOOA2V89Z6R68681KBIAHYVRK", "dateTime": 1517076832548}, {"current_trial": 246, "trialdata": {"rt": -1, "trial_type": "single-stim", "stimulus": "<p id=\"stim\">6</p>", "internal_node_id": "0.0-179.0-4.0", "time_elapsed": 1245750, "key_press": -1, "trial_index": 246}, "uniqueid": "MTK2405:3DY4FPOOA2V89Z6R68681KBIAHYVRK", "dateTime": 1517076833555}, {"current_trial": 247, "trialdata": {"rt": -1, "trial_type": "single-stim", "stimulus": "<p id=\"stim\">5</p>", "internal_node_id": "0.0-179.0-5.0", "time_elapsed": 1246758, "key_press": -1, "trial_index": 247}, "uniqueid": "MTK2405:3DY4FPOOA2V89Z6R68681KBIAHYVRK", "dateTime": 1517076834561}, {"current_trial": 248, "trialdata": {"rt": -1, "trial_type": "single-stim", "stimulus": "<p id=\"stim\">4</p>", "internal_node_id": "0.0-179.0-6.0", "time_elapsed": 1247758, "key_press": -1, "trial_index": 248}, "uniqueid": "MTK2405:3DY4FPOOA2V89Z6R68681KBIAHYVRK", "dateTime": 1517076835561}, {"current_trial": 249, "trialdata": {"rt": -1, "trial_type": "single-stim", "stimulus": "<p id=\"stim\">3</p>", "internal_node_id": "0.0-179.0-7.0", "time_elapsed": 1248765, "key_press": -1, "trial_index": 249