{"assignmentId": "3AMYWKA6YCTKXWZAD8HWVXQEI6CO6C", "workerId": "MTK2438", "questiondata": {"origin": "United States", "strat-rehearsal": "11", "marital": "Married/Domestic Partnership", "education": "Bachelor's degree", "ethnicity": "Not Hispanic", "color_depth": 24, "distracted": "No", "wrote-notes": "No", "strat-other": "I tried to make up little stories with the words, but the lists were too long and I couldn't keep up fast enough to make a story. ", "screen_width": 1366, "avail_screen_width": 1366, "avail_screen_height": 728, "strat-image": "86", "language": "english", "gender": "Female", "age": "29", "gender_other": "", "race": ["White"], "strat-categorize": "94", "pixel_depth": 24, "strat-spatial": "0", "strat-story": "68", "race_other": "", "screen_height": 768}, "bonus": 0, "hitId": "3UXQ63NLAATGA3FE65DAPCCSI0EBL1", "counterbalance": 68, "useragent": "Mozilla/5.0 (Windows NT 10.0; Win64; x64) AppleWebKit/537.36 (KHTML, like Gecko) Chrome/63.0.3239.132 Safari/537.36", "eventdata": [{"eventtype": "initialized", "interval": 0, "value": null, "timestamp": 1517249821849}, {"eventtype": "window_resize", "interval": 1, "value": [1366, 721], "timestamp": 1517249821850}, {"eventtype": "window_resize", "interval": 26022, "value": [1366, 677], "timestamp": 1517249847872}, {"eventtype": "focus", "interval": 54759, "value": "off", "timestamp": 1517249902631}, {"eventtype": "focus", "interval": 7979, "value": "on", "timestamp": 1517249910610}, {"eventtype": "focus", "interval": 448971, "value": "off", "timestamp": 1517250359581}, {"eventtype": "focus", "interval": 4482, "value": "on", "timestamp": 1517250364063}, {"eventtype": "focus", "interval": 1219306, "value": "off", "timestamp": 1517251583369}, {"eventtype": "focus", "interval": 9754, "value": "on", "timestamp": 1517251593123}], "data": [{"current_trial": 0, "trialdata": {"rt": 2114, "trial_type": "text", "internal_node_id": "0.0-0.0", "time_elapsed": 2130, "key_press": 32, "type": "INSTRUCTIONS", "trial_index": 0}, "uniqueid": "MTK2438:3AMYWKA6YCTKXWZAD8HWVXQEI6CO6C", "dateTime": 1517249850386}, {"current_trial": 1, "trialdata": {"rt": 37491, "trial_type": "text", "internal_node_id": "0.0-1.0", "time_elapsed": 39635, "key_press": 32, "type": "INSTRUCTIONS", "trial_index": 1}, "uniqueid": "MTK2438:3AMYWKA6YCTKXWZAD8HWVXQEI6CO6C", "dateTime": 1517249887885}, {"current_trial": 2, "trialdata": {"rt": [29855], "trial_type": "audio-test", "responses": ["ocean"], "internal_node_id": "0.0-2.0", "time_elapsed": 69571, "type": "AUDIO_TEST", "trial_index": 2}, "uniqueid": "MTK2438:3AMYWKA6YCTKXWZAD8HWVXQEI6CO6C", "dateTime": 1517249917821}, {"current_trial": 3, "trialdata": {"rt": [8610], "trial_type": "audio-test", "responses": ["crystal"], "internal_node_id": "0.0-3.0", "time_elapsed": 78218, "type": "AUDIO_TEST", "trial_index": 3}, "uniqueid": "MTK2438:3AMYWKA6YCTKXWZAD8HWVXQEI6CO6C", "dateTime": 1517249926467}, {"current_trial": 4, "trialdata": {"rt": [6439], "trial_type": "audio-test", "responses": ["spice"], "internal_node_id": "0.0-4.0", "time_elapsed": 84705, "type": "AUDIO_TEST", "trial_index": 4}, "uniqueid": "MTK2438:3AMYWKA6YCTKXWZAD8HWVXQEI6CO6C", "dateTime": 1517249932955}, {"current_trial": 5, "trialdata": {"rt": 34232, "trial_type": "survey-text", "responses": "{\"Q0\":\"9:00\",\"Q1\":\"7:00\",\"Q2\":\"5\"}", "internal_node_id": "0.0-5.0", "time_elapsed": 119705, "type": "SLEEP_SURVEY", "trial_index": 5}, "uniqueid": "MTK2438:3AMYWKA6YCTKXWZAD8HWVXQEI6CO6C", "dateTime": 1517249967954}, {"current_trial": 6, "trialdata": {"rt": 55038, "trial_type": "text", "internal_node_id": "0.0-6.0", "time_elapsed": 175749, "key_press": 32, "type": "INSTRUCTIONS", "trial_index": 6}, "uniqueid": "MTK2438:3AMYWKA6YCTKXWZAD8HWVXQEI6CO6C", "dateTime": 1517250023999}, {"current_trial": 7, "trialdata": {"rt": 21660, "trial_type": "text", "internal_node_id": "0.0-7.0", "time_elapsed": 197915, "key_press": 32, "type": "INSTRUCTIONS", "trial_index": 7}, "uniqueid": "MTK2438:3AMYWKA6YCTKXWZAD8HWVXQEI6CO6C", "dateTime": 1517250046165}, {"current_trial": 8, "trialdata": {"rt": 16384, "trial_type": "text", "internal_node_id": "0.0-8.0", "time_elapsed": 214806, "key_press": 32, "type": "INSTRUCTIONS", "trial_index": 8}, "uniqueid": "MTK2438:3AMYWKA6YCTKXWZAD8HWVXQEI6CO6C", "dateTime": 1517250063055}, {"current_trial": 9, "trialdata": {"rt": [3402, 7379, 11417, 14174], "trial_type": "math-distractor", "key_times": [2439, 2617, 3402, 5848, 6376, 7379, 10401, 10590, 11417, 13168, 13446, 14174], "responses": ["20", "18", "12", "17"], "num2": [7, 7, 2, 2, 5], "num3": [6, 5, 5, 7, 5], "conditions": [18, 1200, "a", 18000], "internal_node_id": "0.0-9.0", "key_presses": [98, 96, 13, 97, 104, 13, 97, 98, 13, 97, 103, 13], "trial": 0, "time_elapsed": 233835, "type": "DISTRACTOR", "trial_index": 9, "num1": [7, 8, 5, 8, 9]}, "uniqueid": "MTK2438:3AMYWKA6YCTKXWZAD8HWVXQEI6CO6C", "dateTime": 1517250082085}, {"current_trial": 10, "trialdata": {"rt": -1, "trial_type": "single-stim", "stimulus": "<p id=\"stim\">10</p>", "internal_node_id": "0.0-10.0-0.0", "time_elapsed": 236846, "key_press": -1, "trial_index": 10}, "uniqueid": "MTK2438:3AMYWKA6YCTKXWZAD8HWVXQEI6CO6C", "dateTime": 1517250085096}, {"current_trial": 11, "trialdata": {"rt": -1, "trial_type": "single-stim", "stimulus": "<p id=\"stim\">9</p>", "internal_node_id": "0.0-10.0-1.0", "time_elapsed": 237852, "key_press": -1, "trial_index": 11}, "uniqueid": "MTK2438:3AMYWKA6YCTKXWZAD8HWVXQEI6CO6C", "dateTime": 1517250086101}, {"current_trial": 12, "trialdata": {"rt": -1, "trial_type": "single-stim", "stimulus": "<p id=\"stim\">8</p>", "internal_node_id": "0.0-10.0-2.0", "time_elapsed": 238857, "key_press": -1, "trial_index": 12}, "uniqueid": "MTK2438:3AMYWKA6YCTKXWZAD8HWVXQEI6CO6C", "dateTime": 1517250087106}, {"current_trial": 13, "trialdata": {"rt": -1, "trial_type": "single-stim", "stimulus": "<p id=\"stim\">7</p>", "internal_node_id": "0.0-10.0-3.0", "time_elapsed": 239864, "key_press": -1, "trial_index": 13}, "uniqueid": "MTK2438:3AMYWKA6YCTKXWZAD8HWVXQEI6CO6C", "dateTime": 1517250088113}, {"current_trial": 14, "trialdata": {"rt": -1, "trial_type": "single-stim", "stimulus": "<p id=\"stim\">6</p>", "internal_node_id": "0.0-10.0-4.0", "time_elapsed": 240869, "key_press": -1, "trial_index": 14}, "uniqueid": "MTK2438:3AMYWKA6YCTKXWZAD8HWVXQEI6CO6C", "dateTime": 1517250089118}, {"current_trial": 15, "trialdata": {"rt": -1, "trial_type": "single-stim", "stimulus": "<p id=\"stim\">5</p>", "internal_node_id": "0.0-10.0-5.0", "time_elapsed": 241877, "key_press": -1, "trial_index": 15}, "uniqueid": "MTK2438:3AMYWKA6YCTKXWZAD8HWVXQEI6CO6C", "dateTime": 1517250090127}, {"current_trial": 16, "trialdata": {"rt": -1, "trial_type": "single-stim", "stimulus": "<p id=\"stim\">4</p>", "internal_node_id": "0.0-10.0-6.0", "time_elapsed": 242881, "key_press": -1, "trial_index": 16}, "uniqueid": "MTK2438:3AMYWKA6YCTKXWZAD8HWVXQEI6CO6C", "dateTime": 1517250091131}, {"current_trial": 17, "trialdata": {"rt": -1, "trial_type": "single-stim", "stimulus": "<p id=\"stim\">3</p>", "internal_node_id": "0.0-10.0-7.0", "time_elapsed": 243885, "key_press": -1, "trial_index": 17}, "uniqueid": "MTK2438:3AMYWKA6YCTKXWZAD8HWVXQEI6CO6C", "dateTime": 1517250092134}, {"current_trial": 18, "trialdata": {"rt": -1, "trial_type": "single-stim", "stimulus": "<p id=\"stim\">2</p>", "internal_node_id": "0.0-10.0-8.0", "time_elapsed": 244889, "key_press": -1, "trial_index": 18}, "uniqueid": "MTK2438:3AMYWKA6YCTKXWZAD8HWVXQEI6CO6C", "dateTime": 1517250093139}, {"current_trial": 19, "trialdata": {"rt": -1, "trial_type": "single-stim", "stimulus": "<p id=\"stim\">1</p>", "internal_node_id": "0.0-10.0-9.0", "time_elapsed": 245894, "key_press": -1, "trial_index": 19}, "uniqueid": "MTK2438:3AMYWKA6YCTKXWZAD8HWVXQEI6CO6C", "dateTime": 1517250094143}, {"current_trial": 20, "trialdata": {"rt": -1, "trial_type": "single-stim", "stimulus": "<p id=\"stim\">+</p>", "internal_node_id": "0.0-11.0-0.0", "time_elapsed": 247399, "key_press": -1, "type": "FIXATION", "trial_index": 20}, "uniqueid": "MTK2438:3AMYWKA6YCTKXWZAD8HWVXQEI6CO6C", "dateTime": 1517250095649}, {"current_trial": 21, "trialdata": {"rt": -1000, "trial_type": "single-audio", "word": "servant", "stimulus": "/static/audio/wordpool/SERVANT.wav", "conditions": [18, 1200, "a", 18000], "internal_node_id": "0.0-12.0", "trial": 0, "time_elapsed": 249828, "serialpos": 0, "key_press": -1, "wordID": 1270, "type": "PRES_AUD", "trial_index": 21}, "uniqueid": "MTK2438:3AMYWKA6YCTKXWZAD8HWVXQEI6CO6C", "dateTime": 1517250098077}, {"current_trial": 22, "trialdata": {"rt": -1000, "trial_type": "single-audio", "word": "dime", "stimulus": "/static/audio/wordpool/DIME.wav", "conditions": [18, 1200, "a", 18000], "internal_node_id": "0.0-13.0", "trial": 0, "time_elapsed": 252075, "serialpos": 1, "key_press": -1, "wordID": 465, "type": "PRES_AUD", "trial_index": 22}, "uniqueid": "MTK2438:3AMYWKA6YCTKXWZAD8HWVXQEI6CO6C", "dateTime": 1517250100325}, {"current_trial": 23, "trialdata": {"rt": -1000, "trial_type": "single-audio", "word": "zipper", "stimulus": "/static/audio/wordpool/ZIPPER.wav", "conditions": [18, 1200, "a", 18000], "internal_node_id": "0.0-14.0", "trial": 0, "time_elapsed": 254199, "serialpos": 2, "key_press": -1, "wordID": 1635, "type": "PRES_AUD", "trial_index": 23}, "uniqueid": "MTK2438:3AMYWKA6YCTKXWZAD8HWVXQEI6CO6C", "dateTime": 1517250102449}, {"current_trial": 24, "trialdata": {"rt": -1000, "trial_type": "single-audio", "word": "finger", "stimulus": "/static/audio/wordpool/FINGER.wav", "conditions": [18, 1200, "a", 18000], "internal_node_id": "0.0-15.0", "trial": 0, "time_elapsed": 256275, "serialpos": 3, "key_press": -1, "wordID": 566, "type": "PRES_AUD", "trial_index": 24}, "uniqueid": "MTK2438:3AMYWKA6YCTKXWZAD8HWVXQEI6CO6C", "dateTime": 1517250104524}, {"current_trial": 25, "trialdata": {"rt": -1000, "trial_type": "single-audio", "word": "island", "stimulus": "/static/audio/wordpool/ISLAND.wav", "conditions": [18, 1200, "a", 18000], "internal_node_id": "0.0-16.0", "trial": 0, "time_elapsed": 258433, "serialpos": 4, "key_press": -1, "wordID": 744, "type": "PRES_AUD", "trial_index": 25}, "uniqueid": "MTK2438:3AMYWKA6YCTKXWZAD8HWVXQEI6CO6C", "dateTime": 1517250106682}, {"current_trial": 26, "trialdata": {"rt": -1000, "trial_type": "single-audio", "word": "freezer", "stimulus": "/static/audio/wordpool/FREEZER.wav", "conditions": [18, 1200, "a", 18000], "internal_node_id": "0.0-17.0", "trial": 0, "time_elapsed": 260775, "serialpos": 5, "key_press": -1, "wordID": 603, "type": "PRES_AUD", "trial_index": 26}, "uniqueid": "MTK2438:3AMYWKA6YCTKXWZAD8HWVXQEI6CO6C", "dateTime": 1517250109024}, {"current_trial": 27, "trialdata": {"rt": -1000, "trial_type": "single-audio", "word": "item", "stimulus": "/static/audio/wordpool/ITEM.wav", "conditions": [18, 1200, "a", 18000], "internal_node_id": "0.0-18.0", "trial": 0, "time_elapsed": 262954, "serialpos": 6, "key_press": -1, "wordID": 745, "type": "PRES_AUD", "trial_index": 27}, "uniqueid": "MTK2438:3AMYWKA6YCTKXWZAD8HWVXQEI6CO6C", "dateTime": 1517250111203}, {"current_trial": 28, "trialdata": {"rt": -1000, "trial_type": "single-audio", "word": "blackboard", "stimulus": "/static/audio/wordpool/BLACKBOARD.wav", "conditions": [18, 1200, "a", 18000], "internal_node_id": "0.0-19.0", "trial": 0, "time_elapsed": 265301, "serialpos": 7, "key_press": -1, "wordID": 132, "type": "PRES_AUD", "trial_index": 28}, "uniqueid": "MTK2438:3AMYWKA6YCTKXWZAD8HWVXQEI6CO6C", "dateTime": 1517250113551}, {"current_trial": 29, "trialdata": {"rt": -1000, "trial_type": "single-audio", "word": "hamper", "stimulus": "/static/audio/wordpool/HAMPER.wav", "conditions": [18, 1200, "a", 18000], "internal_node_id": "0.0-20.0", "trial": 0, "time_elapsed": 267668, "serialpos": 8, "key_press": -1, "wordID": 681, "type": "PRES_AUD", "trial_index": 29}, "uniqueid": "MTK2438:3AMYWKA6YCTKXWZAD8HWVXQEI6CO6C", "dateTime": 1517250115918}, {"current_trial": 30, "trialdata": {"rt": -1000, "trial_type": "single-audio", "word": "balloon", "stimulus": "/static/audio/wordpool/BALLOON.wav", "conditions": [18, 1200, "a", 18000], "internal_node_id": "0.0-21.0", "trial": 0, "time_elapsed": 269940, "serialpos": 9, "key_press": -1, "wordID": 74, "type": "PRES_AUD", "trial_index": 30}, "uniqueid": "MTK2438:3AMYWKA6YCTKXWZAD8HWVXQEI6CO6C", "dateTime": 1517250118189}, {"current_trial": 31, "trialdata": {"rt": -1000, "trial_type": "single-audio", "word": "poison", "stimulus": "/static/audio/wordpool/POISON.wav", "conditions": [18, 1200, "a", 18000], "internal_node_id": "0.0-22.0", "trial": 0, "time_elapsed": 272176, "serialpos": 10, "key_press": -1, "wordID": 1095, "type": "PRES_AUD", "trial_index": 31}, "uniqueid": "MTK2438:3AMYWKA6YCTKXWZAD8HWVXQEI6CO6C", "dateTime": 1517250120425}, {"current_trial": 32, "trialdata": {"rt": -1000, "trial_type": "single-audio", "word": "garlic", "stimulus": "/static/audio/wordpool/GARLIC.wav", "conditions": [18, 1200, "a", 18000], "internal_node_id": "0.0-23.0", "trial": 0, "time_elapsed": 274270, "serialpos": 11, "key_press": -1, "wordID": 623, "type": "PRES_AUD", "trial_index": 32}, "uniqueid": "MTK2438:3AMYWKA6YCTKXWZAD8HWVXQEI6CO6C", "dateTime": 1517250122519}, {"current_trial": 33, "trialdata": {"rt": -1000, "trial_type": "single-audio", "word": "beaver", "stimulus": "/static/audio/wordpool/BEAVER.wav", "conditions": [18, 1200, "a", 18000], "internal_node_id": "0.0-24.0", "trial": 0, "time_elapsed": 276502, "serialpos": 12, "key_press": -1, "wordID": 108, "type": "PRES_AUD", "trial_index": 33}, "uniqueid": "MTK2438:3AMYWKA6YCTKXWZAD8HWVXQEI6CO6C", "dateTime": 1517250124752}, {"current_trial": 34, "trialdata": {"rt": -1000, "trial_type": "single-audio", "word": "panther", "stimulus": "/static/audio/wordpool/PANTHER.wav", "conditions": [18, 1200, "a", 18000], "internal_node_id": "0.0-25.0", "trial": 0, "time_elapsed": 278593, "serialpos": 13, "key_press": -1, "wordID": 1008, "type": "PRES_AUD", "trial_index": 34}, "uniqueid": "MTK2438:3AMYWKA6YCTKXWZAD8HWVXQEI6CO6C", "dateTime": 1517250126843}, {"current_trial": 35, "trialdata": {"rt": -1000, "trial_type": "single-audio", "word": "ox", "stimulus": "/static/audio/wordpool/OX.wav", "conditions": [18, 1200, "a", 18000], "internal_node_id": "0.0-26.0", "trial": 0, "time_elapsed": 280745, "serialpos": 14, "key_press": -1, "wordID": 993, "type": "PRES_AUD", "trial_index": 35}, "uniqueid": "MTK2438:3AMYWKA6YCTKXWZAD8HWVXQEI6CO6C", "dateTime": 1517250128995}, {"current_trial": 36, "trialdata": {"rt": -1000, "trial_type": "single-audio", "word": "cross", "stimulus": "/static/audio/wordpool/CROSS.wav", "conditions": [18, 1200, "a", 18000], "internal_node_id": "0.0-27.0", "trial": 0, "time_elapsed": 283092, "serialpos": 15, "key_press": -1, "wordID": 412, "type": "PRES_AUD", "trial_index": 36}, "uniqueid": "MTK2438:3AMYWKA6YCTKXWZAD8HWVXQEI6CO6C", "dateTime": 1517250131342}, {"current_trial": 37, "trialdata": {"rt": -1000, "trial_type": "single-audio", "word": "knife", "stimulus": "/static/audio/wordpool/KNIFE.wav", "conditions": [18, 1200, "a", 18000], "internal_node_id": "0.0-28.0", "trial": 0, "time_elapsed": 285304, "serialpos": 16, "key_press": -1, "wordID": 784, "type": "PRES_AUD", "trial_index": 37}, "uniqueid": "MTK2438:3AMYWKA6YCTKXWZAD8HWVXQEI6CO6C", "dateTime": 1517250133554}, {"current_trial": 38, "trialdata": {"rt": -1000, "trial_type": "single-audio", "word": "burglar", "stimulus": "/static/audio/wordpool/BURGLAR.wav", "conditions": [18, 1200, "a", 18000], "internal_node_id": "0.0-29.0", "trial": 0, "time_elapsed": 287329, "serialpos": 17, "key_press": -1, "wordID": 199, "type": "PRES_AUD", "trial_index": 38}, "uniqueid": "MTK2438:3AMYWKA6YCTKXWZAD8HWVXQEI6CO6C", "dateTime": 1517250135579}, {"current_trial": 39, "trialdata": {"rt": -1, "trial_type": "single-stim", "stimulus": "", "internal_node_id": "0.0-30.0-0.0", "time_elapsed": 288642, "key_press": -1, "type": "PRE_RECALL_DELAY", "trial_index": 39}, "uniqueid": "MTK2438:3AMYWKA6YCTKXWZAD8HWVXQEI6CO6C", "dateTime": 1517250136892}, {"current_trial": 40, "trialdata": {"rt": -1000, "trial_type": "single-audio", "stimulus": "/static/audio/400Hz.wav", "internal_node_id": "0.0-31.0", "time_elapsed": 289149, "key_press": -1, "type": "PRE_RECALL_ALERT", "trial_index": 40}, "uniqueid": "MTK2438:3AMYWKA6YCTKXWZAD8HWVXQEI6CO6C", "dateTime": 1517250137399}, {"current_trial": 41, "trialdata": {"rt": [2476, 3545, 4542, 5837, 6562, 7757, 9679, 11851, 12674, 17714, 20063, 21936, 25956], "recwords": ["burglar", "knife", "hamper", "freezer", "ox", "beaver", "island", "zipper", "finger", "dime", "server", "finger", "cross"], "key_times": [1479, 1809, 1905, 2124, 2184, 2261, 2385, 2476, 2926, 3095, 3234, 3318, 3441, 3545, 3908, 3985, 4175, 4261, 4370, 4448, 4542, 4859, 5005, 5141, 5291, 5468, 5628, 5728, 5837, 6338, 6423, 6562, 7049, 7169, 7260, 7464, 7593, 7675, 7757, 8927, 9109, 9277, 9336, 9446, 9552, 9679, 11086, 11171, 11473, 11603, 11708, 11750, 11851, 12118, 12227, 12323, 12401, 12513, 12582, 12674, 17386, 17448, 17567, 17631, 17714, 18769, 18967, 19110, 19365, 19697, 19762, 20063, 21278, 21366, 21485, 21649, 21796, 21867, 21936, 25292, 25517, 25613, 25713, 25879, 25956], "trial_type": "free-recall", "conditions": [18, 1200, "a", 18000], "internal_node_id": "0.0-32.0-0.0", "key_presses": [66, 85, 82, 71, 76, 65, 82, 13, 75, 78, 73, 70, 69, 13, 72, 65, 77, 80, 69, 82, 13, 70, 82, 69, 69, 90, 69, 82, 13, 79, 88, 13, 66, 69, 65, 86, 69, 82, 13, 73, 83, 76, 65, 78, 68, 13, 90, 73, 80, 80, 69, 82, 13, 70, 73, 78, 71, 69, 82, 13, 68, 73, 77, 69, 13, 83, 69, 82, 86, 69, 82, 13, 70, 73, 78, 71, 69, 82, 13, 67, 82, 79, 83, 83, 13], "trial": 0, "time_elapsed": 349167, "type": "FREE_RECALL", "trial_index": 41}, "uniqueid": "MTK2438:3AMYWKA6YCTKXWZAD8HWVXQEI6CO6C", "dateTime": 1517250197437}, {"current_trial": 42, "trialdata": {"rt": 1778, "trial_type": "text", "internal_node_id": "0.0-33.0", "time_elapsed": 352968, "key_press": 32, "type": "INSTRUCTIONS", "trial_index": 42}, "uniqueid": "MTK2438:3AMYWKA6YCTKXWZAD8HWVXQEI6CO6C", "dateTime": 1517250201218}, {"current_trial": 43, "trialdata": {"rt": [3817, 6601, 9125, 11510, 16701], "trial_type": "math-distractor", "key_times": [2094, 2268, 3058, 3479, 3817, 5744, 6601, 8440, 9125, 10774, 11510, 15864, 16013, 16701], "responses": ["13", "9", "9", "6", "14"], "num2": [5, 6, 1, 4, 1, 8], "num3": [7, 1, 1, 1, 9, 9], "conditions": [18, 1200, "a", 18000], "internal_node_id": "0.0-34.0", "key_presses": [97, 98, 8, 99, 13, 105, 13, 105, 13, 102, 13, 97, 100, 13], "trial": 1, "time_elapsed": 372980, "type": "DISTRACTOR", "trial_index": 43, "num1": [1, 2, 7, 1, 4, 2]}, "uniqueid": "MTK2438:3AMYWKA6YCTKXWZAD8HWVXQEI6CO6C", "dateTime": 1517250221230}, {"current_trial": 44, "trialdata": {"rt": -1, "trial_type": "single-stim", "stimulus": "<p id=\"stim\">10</p>", "internal_node_id": "0.0-35.0-0.0", "time_elapsed": 375987, "key_press": -1, "trial_index": 44}, "uniqueid": "MTK2438:3AMYWKA6YCTKXWZAD8HWVXQEI6CO6C", "dateTime": 1517250224236}, {"current_trial": 45, "trialdata": {"rt": -1, "trial_type": "single-stim", "stimulus": "<p id=\"stim\">9</p>", "internal_node_id": "0.0-35.0-1.0", "time_elapsed": 376990, "key_press": -1, "trial_index": 45}, "uniqueid": "MTK2438:3AMYWKA6YCTKXWZAD8HWVXQEI6CO6C", "dateTime": 1517250225240}, {"current_trial": 46, "trialdata": {"rt": -1, "trial_type": "single-stim", "stimulus": "<p id=\"stim\">8</p>", "internal_node_id": "0.0-35.0-2.0", "time_elapsed": 377994, "key_press": -1, "trial_index": 46}, "uniqueid": "MTK2438:3AMYWKA6YCTKXWZAD8HWVXQEI6CO6C", "dateTime": 1517250226244}, {"current_trial": 47, "trialdata": {"rt": -1, "trial_type": "single-stim", "stimulus": "<p id=\"stim\">7</p>", "internal_node_id": "0.0-35.0-3.0", "time_elapsed": 378998, "key_press": -1, "trial_index": 47}, "uniqueid": "MTK2438:3AMYWKA6YCTKXWZAD8HWVXQEI6CO6C", "dateTime": 1517250227248}, {"current_trial": 48, "trialdata": {"rt": -1, "trial_type": "single-stim", "stimulus": "<p id=\"stim\">6</p>", "internal_node_id": "0.0-35.0-4.0", "time_elapsed": 380003, "key_press": -1, "trial_index": 48}, "uniqueid": "MTK2438:3AMYWKA6YCTKXWZAD8HWVXQEI6CO6C", "dateTime": 1517250228252}, {"current_trial": 49, "trialdata": {"rt": -1, "trial_type": "single-stim", "stimulus": "<p id=\"stim\">5</p>", "internal_node_id": "0.0-35.0-5.0", "time_elapsed": 381007, "key_press": -1, "trial_index": 49}, "uniqueid": "MTK2438:3AMYWKA6YCTKXWZAD8HWVXQEI6CO6C", "dateTime": 1517250229256}, {"current_trial": 50, "trialdata": {"rt": -1, "trial_type": "single-stim", "stimulus": "<p id=\"stim\">4</p>", "internal_node_id": "0.0-35.0-6.0", "time_elapsed": 382011, "key_press": -1, "trial_index": 50}, "uniqueid": "MTK2438:3AMYWKA6YCTKXWZAD8HWVXQEI6CO6C", "dateTime": 1517250230260}, {"current_trial": 51, "trialdata": {"rt": -1, "trial_type": "single-stim", "stimulus": "<p id=\"stim\">3</p>", "internal_node_id": "0.0-35.0-7.0", "time_elapsed": 383015, "key_press": -1, "trial_index": 51}, "uniqueid": "MTK2438:3AMYWKA6YCTKXWZAD8HWVXQEI6CO6C", "dateTime": 1517250231264}, {"current_trial": 52, "trialdata": {"rt": -1, "trial_type": "single-stim", "stimulus": "<p id=\"stim\">2</p>", "internal_node_id": "0.0-35.0-8.0", "time_elapsed": 384018, "key_press": -1, "trial_index": 52}, "uniqueid": "MTK2438:3AMYWKA6YCTKXWZAD8HWVXQEI6CO6C", "dateTime": 1517250232268}, {"current_trial": 53, "trialdata": {"rt": -1, "trial_type": "single-stim", "stimulus": "<p id=\"stim\">1</p>", "internal_node_id": "0.0-35.0-9.0", "time_elapsed": 385023, "key_press": -1, "trial_index": 53}, "uniqueid": "MTK2438:3AMYWKA6YCTKXWZAD8HWVXQEI6CO6C", "dateTime": 1517250233272}, {"current_trial": 54, "trialdata": {"rt": -1, "trial_type": "single-stim", "stimulus": "<p id=\"stim\">+</p>", "internal_node_id": "0.0-36.0-0.0", "time_elapsed": 386527, "key_press": -1, "type": "FIXATION", "trial_index": 54}, "uniqueid": "MTK2438:3AMYWKA6YCTKXWZAD8HWVXQEI6CO6C", "dateTime": 1517250234776}, {"current_trial": 55, "trialdata": {"rt": -1000, "trial_type": "single-audio", "word": "denim", "stimulus": "/static/audio/wordpool/DENIM.wav", "conditions": [18, 1200, "a", 18000], "internal_node_id": "0.0-37.0", "trial": 1, "time_elapsed": 388674, "serialpos": 0, "key_press": -1, "wordID": 445, "type": "PRES_AUD", "trial_index": 55}, "uniqueid": "MTK2438:3AMYWKA6YCTKXWZAD8HWVXQEI6CO6C", "dateTime": 1517250236924}, {"current_trial": 56, "trialdata": {"rt": -1000, "trial_type": "single-audio", "word": "spider", "stimulus": "/static/audio/wordpool/SPIDER.wav", "conditions": [18, 1200, "a", 18000], "internal_node_id": "0.0-38.0", "trial": 1, "time_elapsed": 391065, "serialpos": 1, "key_press": -1, "wordID": 1350, "type": "PRES_AUD", "trial_index": 56}, "uniqueid": "MTK2438:3AMYWKA6YCTKXWZAD8HWVXQEI6CO6C", "dateTime": 1517250239314}, {"current_trial": 57, "trialdata": {"rt": -1000, "trial_type": "single-audio", "word": "treat", "stimulus": "/static/audio/wordpool/TREAT.wav", "conditions": [18, 1200, "a", 18000], "internal_node_id": "0.0-39.0", "trial": 1, "time_elapsed": 393333, "serialpos": 2, "key_press": -1, "wordID": 1500, "type": "PRES_AUD", "trial_index": 57}, "uniqueid": "MTK2438:3AMYWKA6YCTKXWZAD8HWVXQEI6CO6C", "dateTime": 1517250241583}, {"current_trial": 58, "trialdata": {"rt": -1000, "trial_type": "single-audio", "word": "money", "stimulus": "/static/audio/wordpool/MONEY.wav", "conditions": [18, 1200, "a", 18000], "internal_node_id": "0.0-40.0", "trial": 1, "time_elapsed": 395567, "serialpos": 3, "key_press": -1, "wordID": 907, "type": "PRES_AUD", "trial_index": 58}, "uniqueid": "MTK2438:3AMYWKA6YCTKXWZAD8HWVXQEI6CO6C", "dateTime": 1517250243816}, {"current_trial": 59, "trialdata": {"rt": -1000, "trial_type": "single-audio", "word": "robber", "stimulus": "/static/audio/wordpool/ROBBER.wav", "conditions": [18, 1200, "a", 18000], "internal_node_id": "0.0-41.0", "trial": 1, "time_elapsed": 397586, "serialpos": 4, "key_press": -1, "wordID": 1196, "type": "PRES_AUD", "trial_index": 59}, "uniqueid": "MTK2438:3AMYWKA6YCTKXWZAD8HWVXQEI6CO6C", "dateTime": 1517250245835}, {"current_trial": 60, "trialdata": {"rt": -1000, "trial_type": "single-audio", "word": "kleenex", "stimulus": "/static/audio/wordpool/KLEENEX.wav", "conditions": [18, 1200, "a", 18000], "internal_node_id": "0.0-42.0", "trial": 1, "time_elapsed": 399708, "serialpos": 5, "key_press": -1, "wordID": 781, "type": "PRES_AUD", "trial_index": 60}, "uniqueid": "MTK2438:3AMYWKA6YCTKXWZAD8HWVXQEI6CO6C", "dateTime": 1517250247958}, {"current_trial": 61, "trialdata": {"rt": -1000, "trial_type": "single-audio", "word": "mildew", "stimulus": "/static/audio/wordpool/MILDEW.wav", "conditions": [18, 1200, "a", 18000], "internal_node_id": "0.0-43.0", "trial": 1, "time_elapsed": 401911, "serialpos": 6, "key_press": -1, "wordID": 892, "type": "PRES_AUD", "trial_index": 61}, "uniqueid": "MTK2438:3AMYWKA6YCTKXWZAD8HWVXQEI6CO6C", "dateTime": 1517250250161}, {"current_trial": 62, "trialdata": {"rt": -1000, "trial_type": "single-audio", "word": "rust", "stimulus": "/static/audio/wordpool/RUST.wav", "conditions": [18, 1200, "a", 18000], "internal_node_id": "0.0-44.0", "trial": 1, "time_elapsed": 404279, "serialpos": 7, "key_press": -1, "wordID": 1218, "type": "PRES_AUD", "trial_index": 62}, "uniqueid": "MTK2438:3AMYWKA6YCTKXWZAD8HWVXQEI6CO6C", "dateTime": 1517250252528}, {"current_trial": 63, "trialdata": {"rt": -1000, "trial_type": "single-audio", "word": "twister", "stimulus": "/static/audio/wordpool/TWISTER.wav", "conditions": [18, 1200, "a", 18000], "internal_node_id": "0.0-45.0", "trial": 1, "time_elapsed": 406410, "serialpos": 8, "key_press": -1, "wordID": 1529, "type": "PRES_AUD", "trial_index": 63}, "uniqueid": "MTK2438:3AMYWKA6YCTKXWZAD8HWVXQEI6CO6C", "dateTime": 1517250254660}, {"current_trial": 64, "trialdata": {"rt": -1000, "trial_type": "single-audio", "word": "bison", "stimulus": "/static/audio/wordpool/BISON.wav", "conditions": [18, 1200, "a", 18000], "internal_node_id": "0.0-46.0", "trial": 1, "time_elapsed": 408585, "serialpos": 9, "key_press": -1, "wordID": 130, "type": "PRES_AUD", "trial_index": 64}, "uniqueid": "MTK2438:3AMYWKA6YCTKXWZAD8HWVXQEI6CO6C", "dateTime": 1517250256835}, {"current_trial": 65, "trialdata": {"rt": -1000, "trial_type": "single-audio", "word": "seal", "stimulus": "/static/audio/wordpool/SEAL.wav", "conditions": [18, 1200, "a", 18000], "internal_node_id": "0.0-47.0", "trial": 1, "time_elapsed": 410822, "serialpos": 10, "key_press": -1, "wordID": 1261, "type": "PRES_AUD", "trial_index": 65}, "uniqueid": "MTK2438:3AMYWKA6YCTKXWZAD8HWVXQEI6CO6C", "dateTime": 1517250259072}, {"current_trial": 66, "trialdata": {"rt": -1000, "trial_type": "single-audio", "word": "soda", "stimulus": "/static/audio/wordpool/SODA.wav", "conditions": [18, 1200, "a", 18000], "internal_node_id": "0.0-48.0", "trial": 1, "time_elapsed": 412839, "serialpos": 11, "key_press": -1, "wordID": 1340, "type": "PRES_AUD", "trial_index": 66}, "uniqueid": "MTK2438:3AMYWKA6YCTKXWZAD8HWVXQEI6CO6C", "dateTime": 1517250261088}, {"current_trial": 67, "trialdata": {"rt": -1000, "trial_type": "single-audio", "word": "banjo", "stimulus": "/static/audio/wordpool/BANJO.wav", "conditions": [18, 1200, "a", 18000], "internal_node_id": "0.0-49.0", "trial": 1, "time_elapsed": 415146, "serialpos": 12, "key_press": -1, "wordID": 81, "type": "PRES_AUD", "trial_index": 67}, "uniqueid": "MTK2438:3AMYWKA6YCTKXWZAD8HWVXQEI6CO6C", "dateTime": 1517250263395}, {"current_trial": 68, "trialdata": {"rt": -1000, "trial_type": "single-audio", "word": "piston", "stimulus": "/static/audio/wordpool/PISTON.wav", "conditions": [18, 1200, "a", 18000], "internal_node_id": "0.0-50.0", "trial": 1, "time_elapsed": 417308, "serialpos": 13, "key_press": -1, "wordID": 1075, "type": "PRES_AUD", "trial_index": 68}, "uniqueid": "MTK2438:3AMYWKA6YCTKXWZAD8HWVXQEI6CO6C", "dateTime": 1517250265572}, {"current_trial": 69, "trialdata": {"rt": -1000, "trial_type": "single-audio", "word": "onion", "stimulus": "/static/audio/wordpool/ONION.wav", "conditions": [18, 1200, "a", 18000], "internal_node_id": "0.0-51.0", "trial": 1, "time_elapsed": 419408, "serialpos": 14, "key_press": -1, "wordID": 976, "type": "PRES_AUD", "trial_index": 69}, "uniqueid": "MTK2438:3AMYWKA6YCTKXWZAD8HWVXQEI6CO6C", "dateTime": 1517250267658}, {"current_trial": 70, "trialdata": {"rt": -1000, "trial_type": "single-audio", "word": "lava", "stimulus": "/static/audio/wordpool/LAVA.wav", "conditions": [18, 1200, "a", 18000], "internal_node_id": "0.0-52.0", "trial": 1, "time_elapsed": 421518, "serialpos": 15, "key_press": -1, "wordID": 803, "type": "PRES_AUD", "trial_index": 70}, "uniqueid": "MTK2438:3AMYWKA6YCTKXWZAD8HWVXQEI6CO6C", "dateTime": 1517250269768}, {"current_trial": 71, "trialdata": {"rt": -1000, "trial_type": "single-audio", "word": "canal", "stimulus": "/static/audio/wordpool/CANAL.wav", "conditions": [18, 1200, "a", 18000], "internal_node_id": "0.0-53.0", "trial": 1, "time_elapsed": 423829, "serialpos": 16, "key_press": -1, "wordID": 225, "type": "PRES_AUD", "trial_index": 71}, "uniqueid": "MTK2438:3AMYWKA6YCTKXWZAD8HWVXQEI6CO6C", "dateTime": 1517250272079}, {"current_trial": 72, "trialdata": {"rt": -1000, "trial_type": "single-audio", "word": "flute", "stimulus": "/static/audio/wordpool/FLUTE.wav", "conditions": [18, 1200, "a", 18000], "internal_node_id": "0.0-54.0", "trial": 1, "time_elapsed": 426036, "serialpos": 17, "key_press": -1, "wordID": 584, "type": "PRES_AUD", "trial_index": 72}, "uniqueid": "MTK2438:3AMYWKA6YCTKXWZAD8HWVXQEI6CO6C", "dateTime": 1517250274285}, {"current_trial": 73, "trialdata": {"rt": -1, "trial_type": "single-stim", "stimulus": "", "internal_node_id": "0.0-55.0-0.0", "time_elapsed": 427281, "key_press": -1, "type": "PRE_RECALL_DELAY", "trial_index": 73}, "uniqueid": "MTK2438:3AMYWKA6YCTKXWZAD8HWVXQEI6CO6C", "dateTime": 1517250275531}, {"current_trial": 74, "trialdata": {"rt": -1000, "trial_type": "single-audio", "stimulus": "/static/audio/400Hz.wav", "internal_node_id": "0.0-56.0", "time_elapsed": 427786, "key_press": -1, "type": "PRE_RECALL_ALERT", "trial_index": 74}, "uniqueid": "MTK2438:3AMYWKA6YCTKXWZAD8HWVXQEI6CO6C", "dateTime": 1517250276035}, {"current_trial": 75, "trialdata": {"rt": [2367, 3470, 4288, 5261, 13227, 14403, 15502, 24643, 30330, 34245, 39679, 41202, 55863, 57013], "recwords": ["flute", "onion", "lava", "canal", "mildew", "rust", "flute", "twister", "kleenex", "piston", "seal", "bison", "denim", "spider"], "key_times": [1390, 1475, 1580, 1703, 2080, 2144, 2267, 2367, 2700, 2837, 3008, 3139, 3194, 3470, 3728, 3881, 4003, 4135, 4288, 4577, 4696, 4829, 4921, 5067, 5261, 11802, 11913, 12198, 12557, 12700, 12782, 12997, 13068, 13227, 13560, 13773, 13887, 14146, 14403, 14989, 15084, 15223, 15301, 15418, 15502, 23100, 23554, 23823, 23942, 24324, 24476, 24539, 24643, 28442, 28744, 28854, 29011, 29102, 29618, 29986, 30036, 30217, 30330, 33420, 33589, 33756, 33985, 34072, 34140, 34245, 39184, 39334, 39437, 39525, 39679, 40682, 40808, 40885, 40990, 41067, 41202, 55052, 55255, 55435, 55599, 55689, 55863, 56129, 56376, 56518, 56637, 56836, 56909, 57013], "trial_type": "free-recall", "conditions": [18, 1200, "a", 18000], "internal_node_id": "0.0-57.0-0.0", "key_presses": [70, 76, 85, 71, 8, 84, 69, 13, 79, 78, 73, 79, 78, 13, 76, 65, 86, 65, 13, 67, 65, 78, 65, 76, 13, 77, 73, 68, 8, 76, 68, 69, 87, 13, 82, 85, 83, 84, 13, 70, 76, 85, 84, 69, 13, 84, 87, 73, 83, 84, 69, 82, 13, 75, 76, 69, 69, 78, 88, 8, 69, 88, 13, 80, 73, 83, 84, 79, 78, 13, 83, 69, 65, 76, 13, 66, 73, 83, 79, 78, 13, 68, 69, 78, 73, 77, 13, 83, 80, 73, 68, 69, 82, 13], "trial": 1, "time_elapsed": 487798, "type": "FREE_RECALL", "trial_index": 75}, "uniqueid": "MTK2438:3AMYWKA6YCTKXWZAD8HWVXQEI6CO6C", "dateTime": 1517250336062}, {"current_trial": 76, "trialdata": {"rt": 2933, "trial_type": "text", "internal_node_id": "0.0-58.0", "time_elapsed": 492749, "key_press": 32, "type": "INSTRUCTIONS", "trial_index": 76}, "uniqueid": "MTK2438:3AMYWKA6YCTKXWZAD8HWVXQEI6CO6C", "dateTime": 1517250340998}, {"current_trial": 77, "trialdata": {"rt": [3577, 6013, 10441], "trial_type": "math-distractor", "key_times": [2427, 2971, 3577, 5212, 5394, 6013, 9321, 9834, 10441], "responses": ["16", "12", "16"], "num2": [8, 1, 4, 6], "num3": [3, 5, 7, 9], "conditions": [24, 800, "a", 12000], "internal_node_id": "0.0-59.0", "key_presses": [97, 102, 13, 97, 98, 13, 97, 102, 13], "trial": 2, "time_elapsed": 505762, "type": "DISTRACTOR", "trial_index": 77, "num1": [5, 6, 5, 9]}, "uniqueid": "MTK2438:3AMYWKA6YCTKXWZAD8HWVXQEI6CO6C", "dateTime": 1517250354012}, {"current_trial": 78, "trialdata": {"rt": -1, "trial_type": "single-stim", "stimulus": "<p id=\"stim\">10</p>", "internal_node_id": "0.0-60.0-0.0", "time_elapsed": 508767, "key_press": -1, "trial_index": 78}, "uniqueid": "MTK2438:3AMYWKA6YCTKXWZAD8HWVXQEI6CO6C", "dateTime": 1517250357016}, {"current_trial": 79, "trialdata": {"rt": -1, "trial_type": "single-stim", "stimulus": "<p id=\"stim\">9</p>", "internal_node_id": "0.0-60.0-1.0", "time_elapsed": 509771, "key_press": -1, "trial_index": 79}, "uniqueid": "MTK2438:3AMYWKA6YCTKXWZAD8HWVXQEI6CO6C", "dateTime": 1517250358020}, {"current_trial": 80, "trialdata": {"rt": -1, "trial_type": "single-stim", "stimulus": "<p id=\"stim\">8</p>", "internal_node_id": "0.0-60.0-2.0", "time_elapsed": 510775, "key_press": -1, "trial_index": 80}, "uniqueid": "MTK2438:3AMYWKA6YCTKXWZAD8HWVXQEI6CO6C", "dateTime": 1517250359025}, {"current_trial": 81, "trialdata": {"rt": -1, "trial_type": "single-stim", "stimulus": "<p id=\"stim\">7</p>", "internal_node_id": "0.0-60.0-3.0", "time_elapsed": 511799, "key_press": -1, "trial_index": 81}, "uniqueid": "MTK2438:3AMYWKA6YCTKXWZAD8HWVXQEI6CO6C", "dateTime": 1517250360049}, {"current_trial": 82, "trialdata": {"rt": -1, "trial_type": "single-stim", "stimulus": "<p id=\"stim\">6</p>", "internal_node_id": "0.0-60.0-4.0", "time_elapsed": 512824, "key_press": -1, "trial_index": 82}, "uniqueid": "MTK2438:3AMYWKA6YCTKXWZAD8HWVXQEI6CO6C", "dateTime": 1517250361073}, {"current_trial": 83, "trialdata": {"rt": -1, "trial_type": "single-stim", "stimulus": "<p id=\"stim\">5</p>", "internal_node_id": "0.0-60.0-5.0", "time_elapsed": 513834, "key_press": -1, "trial_index": 83}, "uniqueid": "MTK2438:3AMYWKA6YCTKXWZAD8HWVXQEI6CO6C", "dateTime": 1517250362084}, {"current_trial": 84, "trialdata": {"rt": -1, "trial_type": "single-stim", "stimulus": "<p id=\"stim\">4</p>", "internal_node_id": "0.0-60.0-6.0", "time_elapsed": 514839, "key_press": -1, "trial_index": 84}, "uniqueid": "MTK2438:3AMYWKA6YCTKXWZAD8HWVXQEI6CO6C", "dateTime": 1517250363088}, {"current_trial": 85, "trialdata": {"rt": -1, "trial_type": "single-stim", "stimulus": "<p id=\"stim\">3</p>", "internal_node_id": "0.0-60.0-7.0", "time_elapsed": 515842, "key_press": -1, "trial_index": 85}, "uniqueid": "MTK2438:3AMYWKA6YCTKXWZAD8HWVXQEI6CO6C", "dateTime": 1517250364091}, {"current_trial": 86, "trialdata": {"rt": -1, "trial_type": "single-stim", "stimulus": "<p id=\"stim\">2</p>", "internal_node_id": "0.0-60.0-8.0", "time_elapsed": 516846, "key_press": -1, "trial_index": 86}, "uniqueid": "MTK2438:3AMYWKA6YCTKXWZAD8HWVXQEI6CO6C", "dateTime": 1517250365096}, {"current_trial": 87, "trialdata": {"rt": -1, "trial_type": "single-stim", "stimulus": "<p id=\"stim\">1</p>", "internal_node_id": "0.0-60.0-9.0", "time_elapsed": 517851, "key_press": -1, "trial_index": 87}, "uniqueid": "MTK2438:3AMYWKA6YCTKXWZAD8HWVXQEI6CO6C", "dateTime": 1517250366100}, {"current_trial": 88, "trialdata": {"rt": -1, "trial_type": "single-stim", "stimulus": "<p id=\"stim\">+</p>", "internal_node_id": "0.0-61.0-0.0", "time_elapsed": 519354, "key_press": -1, "type": "FIXATION", "trial_index": 88}, "uniqueid": "MTK2438:3AMYWKA6YCTKXWZAD8HWVXQEI6CO6C", "dateTime": 1517250367604}, {"current_trial": 89, "trialdata": {"rt": -1000, "trial_type": "single-audio", "word": "daisy", "stimulus": "/static/audio/wordpool/DAISY.wav", "conditions": [24, 800, "a", 12000], "internal_node_id": "0.0-62.0", "trial": 2, "time_elapsed": 521240, "serialpos": 0, "key_press": -1, "wordID": 434, "type": "PRES_AUD", "trial_index": 89}, "uniqueid": "MTK2438:3AMYWKA6YCTKXWZAD8HWVXQEI6CO6C", "dateTime": 1517250369489}, {"current_trial": 90, "trialdata": {"rt": -1000, "trial_type": "single-audio", "word": "fruit", "stimulus": "/static/audio/wordpool/FRUIT.wav", "conditions": [24, 800, "a", 12000], "internal_node_id": "0.0-63.0", "trial": 2, "time_elapsed": 522990, "serialpos": 1, "key_press": -1, "wordID": 609, "type": "PRES_AUD", "trial_index": 90}, "uniqueid": "MTK2438:3AMYWKA6YCTKXWZAD8HWVXQEI6CO6C", "dateTime": 1517250371239}, {"current_trial": 91, "trialdata": {"rt": -1000, "trial_type": "single-audio", "word": "badge", "stimulus": "/static/audio/wordpool/BADGE.wav", "conditions": [24, 800, "a", 12000], "internal_node_id": "0.0-64.0", "trial": 2, "time_elapsed": 524783, "serialpos": 2, "key_press": -1, "wordID": 67, "type": "PRES_AUD", "trial_index": 91}, "uniqueid": "MTK2438:3AMYWKA6YCTKXWZAD8HWVXQEI6CO6C", "dateTime": 1517250373032}, {"current_trial": 92, "trialdata": {"rt": -1000, "trial_type": "single-audio", "word": "portrait", "stimulus": "/static/audio/wordpool/PORTRAIT.wav", "conditions": [24, 800, "a", 12000], "internal_node_id": "0.0-65.0", "trial": 2, "time_elapsed": 526591, "serialpos": 3, "key_press": -1, "wordID": 1110, "type": "PRES_AUD", "trial_index": 92}, "uniqueid": "MTK2438:3AMYWKA6YCTKXWZAD8HWVXQEI6CO6C", "dateTime": 1517250374841}, {"current_trial": 93, "trialdata": {"rt": -1000, "trial_type": "single-audio", "word": "husband", "stimulus": "/static/audio/wordpool/HUSBAND.wav", "conditions": [24, 800, "a", 12000], "internal_node_id": "0.0-66.0", "trial": 2, "time_elapsed": 528317, "serialpos": 4, "key_press": -1, "wordID": 727, "type": "PRES_AUD", "trial_index": 93}, "uniqueid": "MTK2438:3AMYWKA6YCTKXWZAD8HWVXQEI6CO6C", "dateTime": 1517250376566}, {"current_trial": 94, "trialdata": {"rt": -1000, "trial_type": "single-audio", "word": "fiddle", "stimulus": "/static/audio/wordpool/FIDDLE.wav", "conditions": [24, 800, "a", 12000], "internal_node_id": "0.0-67.0", "trial": 2, "time_elapsed": 530237, "serialpos": 5, "key_press": -1, "wordID": 560, "type": "PRES_AUD", "trial_index": 94}, "uniqueid": "MTK2438:3AMYWKA6YCTKXWZAD8HWVXQEI6CO6C", "dateTime": 1517250378487}, {"current_trial": 95, "trialdata": {"rt": -1000, "trial_type": "single-audio", "word": "crib", "stimulus": "/static/audio/wordpool/CRIB.wav", "conditions": [24, 800, "a", 12000], "internal_node_id": "0.0-68.0", "trial": 2, "time_elapsed": 532201, "serialpos": 6, "key_press": -1, "wordID": 406, "type": "PRES_AUD", "trial_index": 95}, "uniqueid": "MTK2438:3AMYWKA6YCTKXWZAD8HWVXQEI6CO6C", "dateTime": 1517250380450}, {"current_trial": 96, "trialdata": {"rt": -1000, "trial_type": "single-audio", "word": "picture", "stimulus": "/static/audio/wordpool/PICTURE.wav", "conditions": [24, 800, "a", 12000], "internal_node_id": "0.0-69.0", "trial": 2, "time_elapsed": 533975, "serialpos": 7, "key_press": -1, "wordID": 1060, "type": "PRES_AUD", "trial_index": 96}, "uniqueid": "MTK2438:3AMYWKA6YCTKXWZAD8HWVXQEI6CO6C", "dateTime": 1517250382225}, {"current_trial": 97, "trialdata": {"rt": -1000, "trial_type": "single-audio", "word": "shortcake", "stimulus": "/static/audio/wordpool/SHORTCAKE.wav", "conditions": [24, 800, "a", 12000], "internal_node_id": "0.0-70.0", "trial": 2, "time_elapsed": 535620, "serialpos": 8, "key_press": -1, "wordID": 1291, "type": "PRES_AUD", "trial_index": 97}, "uniqueid": "MTK2438:3AMYWKA6YCTKXWZAD8HWVXQEI6CO6C", "dateTime": 1517250383870}, {"current_trial": 98, "trialdata": {"rt": -1000, "trial_type": "single-audio", "word": "muffin", "stimulus": "/static/audio/wordpool/MUFFIN.wav", "conditions": [24, 800, "a", 12000], "internal_node_id": "0.0-71.0", "trial": 2, "time_elapsed": 537472, "serialpos": 9, "key_press": -1, "wordID": 928, "type": "PRES_AUD", "trial_index": 98}, "uniqueid": "MTK2438:3AMYWKA6YCTKXWZAD8HWVXQEI6CO6C", "dateTime": 1517250385721}, {"current_trial": 99, "trialdata": {"rt": -1000, "trial_type": "single-audio", "word": "crater", "stimulus": "/static/audio/wordpool/CRATER.wav", "conditions": [24, 800, "a", 12000], "internal_node_id": "0.0-72.0", "trial": 2, "time_elapsed": 539200, "serialpos": 10, "key_press": -1, "wordID": 399, "type": "PRES_AUD", "trial_index": 99}, "uniqueid": "MTK2438:3AMYWKA6YCTKXWZAD8HWVXQEI6CO6C", "dateTime": 1517250387449}, {"current_trial": 100, "trialdata": {"rt": -1000, "trial_type": "single-audio", "word": "hero", "stimulus": "/static/audio/wordpool/HERO.wav", "conditions": [24, 800, "a", 12000], "internal_node_id": "0.0-73.0", "trial": 2, "time_elapsed": 540821, "serialpos": 11, "key_press": -1, "wordID": 705, "type": "PRES_AUD", "trial_index": 100}, "uniqueid": "MTK2438:3AMYWKA6YCTKXWZAD8HWVXQEI6CO6C", "dateTime": 1517250389071}, {"current_trial": 101, "trialdata": {"rt": -1000, "trial_type": "single-audio", "word": "bucket", "stimulus": "/static/audio/wordpool/BUCKET.wav", "conditions": [24, 800, "a", 12000], "internal_node_id": "0.0-74.0", "trial": 2, "time_elapsed": 542693, "serialpos": 12, "key_press": -1, "wordID": 183, "type": "PRES_AUD", "trial_index": 101}, "uniqueid": "MTK2438:3AMYWKA6YCTKXWZAD8HWVXQEI6CO6C", "dateTime": 1517250390943}, {"current_trial": 102, "trialdata": {"rt": -1000, "trial_type": "single-audio", "word": "padding", "stimulus": "/static/audio/wordpool/PADDING.wav", "conditions": [24, 800, "a", 12000], "internal_node_id": "0.0-75.0", "trial": 2, "time_elapsed": 544567, "serialpos": 13, "key_press": -1, "wordID": 998, "type": "PRES_AUD", "trial_index": 102}, "uniqueid": "MTK2438:3AMYWKA6YCTKXWZAD8HWVXQEI6CO6C", "dateTime": 1517250392817}, {"current_trial": 103, "trialdata": {"rt": -1000, "trial_type": "single-audio", "word": "pecan", "stimulus": "/static/audio/wordpool/PECAN.wav", "conditions": [24, 800, "a", 12000], "internal_node_id": "0.0-76.0", "trial": 2, "time_elapsed": 546320, "serialpos": 14, "key_press": -1, "wordID": 1035, "type": "PRES_AUD", "trial_index": 103}, "uniqueid": "MTK2438:3AMYWKA6YCTKXWZAD8HWVXQEI6CO6C", "dateTime": 1517250394569}, {"current_trial": 104, "trialdata": {"rt": -1000, "trial_type": "single-audio", "word": "milk", "stimulus": "/static/audio/wordpool/MILK.wav", "conditions": [24, 800, "a", 12000], "internal_node_id": "0.0-77.0", "trial": 2, "time_elapsed": 548173, "serialpos": 15, "key_press": -1, "wordID": 894, "type": "PRES_AUD", "trial_index": 104}, "uniqueid": "MTK2438:3AMYWKA6YCTKXWZAD8HWVXQEI6CO6C", "dateTime": 1517250396422}, {"current_trial": 105, "trialdata": {"rt": -1000, "trial_type": "single-audio", "word": "sparrow", "stimulus": "/static/audio/wordpool/SPARROW.wav", "conditions": [24, 800, "a", 12000], "internal_node_id": "0.0-78.0", "trial": 2, "time_elapsed": 550172, "serialpos": 16, "key_press": -1, "wordID": 1346, "type": "PRES_AUD", "trial_index": 105}, "uniqueid": "MTK2438:3AMYWKA6YCTKXWZAD8HWVXQEI6CO6C", "dateTime": 1517250398421}, {"current_trial": 106, "trialdata": {"rt": -1000, "trial_type": "single-audio", "word": "pudding", "stimulus": "/static/audio/wordpool/PUDDING.wav", "conditions": [24, 800, "a", 12000], "internal_node_id": "0.0-79.0", "trial": 2, "time_elapsed": 552029, "serialpos": 17, "key_press": -1, "wordID": 1138, "type": "PRES_AUD", "trial_index": 106}, "uniqueid": "MTK2438:3AMYWKA6YCTKXWZAD8HWVXQEI6CO6C", "dateTime": 1517250400279}, {"current_trial": 107, "trialdata": {"rt": -1000, "trial_type": "single-audio", "word": "novel", "stimulus": "/static/audio/wordpool/NOVEL.wav", "conditions": [24, 800, "a", 12000], "internal_node_id": "0.0-80.0", "trial": 2, "time_elapsed": 553899, "serialpos": 18, "key_press": -1, "wordID": 959, "type": "PRES_AUD", "trial_index": 107}, "uniqueid": "MTK2438:3AMYWKA6YCTKXWZAD8HWVXQEI6CO6C", "dateTime": 1517250402148}, {"current_trial": 108, "trialdata": {"rt": -1000, "trial_type": "single-audio", "word": "robin", "stimulus": "/static/audio/wordpool/ROBIN.wav", "conditions": [24, 800, "a", 12000], "internal_node_id": "0.0-81.0", "trial": 2, "time_elapsed": 555672, "serialpos": 19, "key_press": -1, "wordID": 1198, "type": "PRES_AUD", "trial_index": 108}, "uniqueid": "MTK2438:3AMYWKA6YCTKXWZAD8HWVXQEI6CO6C", "dateTime": 1517250403921}, {"current_trial": 109, "trialdata": {"rt": -1000, "trial_type": "single-audio", "word": "skillet", "stimulus": "/static/audio/wordpool/SKILLET.wav", "conditions": [24, 800, "a", 12000], "internal_node_id": "0.0-82.0", "trial": 2, "time_elapsed": 557496, "serialpos": 20, "key_press": -1, "wordID": 1316, "type": "PRES_AUD", "trial_index": 109}, "uniqueid": "MTK2438:3AMYWKA6YCTKXWZAD8HWVXQEI6CO6C", "dateTime": 1517250405745}, {"current_trial": 110, "trialdata": {"rt": -1000, "trial_type": "single-audio", "word": "turtle", "stimulus": "/static/audio/wordpool/TURTLE.wav", "conditions": [24, 800, "a", 12000], "internal_node_id": "0.0-83.0", "trial": 2, "time_elapsed": 559249, "serialpos": 21, "key_press": -1, "wordID": 1521, "type": "PRES_AUD", "trial_index": 110}, "uniqueid": "MTK2438:3AMYWKA6YCTKXWZAD8HWVXQEI6CO6C", "dateTime": 1517250407498}, {"current_trial": 111, "trialdata": {"rt": -1000, "trial_type": "single-audio", "word": "dolphin", "stimulus": "/static/audio/wordpool/DOLPHIN.wav", "conditions": [24, 800, "a", 12000], "internal_node_id": "0.0-84.0", "trial": 2, "time_elapsed": 561143, "serialpos": 22, "key_press": -1, "wordID": 482, "type": "PRES_AUD", "trial_index": 111}, "uniqueid": "MTK2438:3AMYWKA6YCTKXWZAD8HWVXQEI6CO6C", "dateTime": 1517250409392}, {"current_trial": 112, "trialdata": {"rt": -1000, "trial_type": "single-audio", "word": "statue", "stimulus": "/static/audio/wordpool/STATUE.wav", "conditions": [24, 800, "a", 12000], "internal_node_id": "0.0-85.0", "trial": 2, "time_elapsed": 563129, "serialpos": 23, "key_press": -1, "wordID": 1373, "type": "PRES_AUD", "trial_index": 112}, "uniqueid": "MTK2438:3AMYWKA6YCTKXWZAD8HWVXQEI6CO6C", "dateTime": 1517250411378}, {"current_trial": 113, "trialdata": {"rt": -1, "trial_type": "single-stim", "stimulus": "", "internal_node_id": "0.0-86.0-0.0", "time_elapsed": 564445, "key_press": -1, "type": "PRE_RECALL_DELAY", "trial_index": 113}, "uniqueid": "MTK2438:3AMYWKA6YCTKXWZAD8HWVXQEI6CO6C", "dateTime": 1517250412695}, {"current_trial": 114, "trialdata": {"rt": -1000, "trial_type": "single-audio", "stimulus": "/static/audio/400Hz.wav", "internal_node_id": "0.0-87.0", "time_elapsed": 564949, "key_press": -1, "type": "PRE_RECALL_ALERT", "trial_index": 114}, "uniqueid": "MTK2438:3AMYWKA6YCTKXWZAD8HWVXQEI6CO6C", "dateTime": 1517250413199}, {"current_trial": 115, "trialdata": {"rt": [2783, 3926, 6381, 8348, 9707, 11026, 14382, 18322, 20212, 24892, 25742, 40377, 41779, 45983], "recwords": ["statue", "turtle", "dolphin", "pudding", "muffin", "shortcake", "robber", "turtle", "dolphin", "pecan", "milk", "husband", "fiddle", "portrait"], "key_times": [1607, 1851, 1952, 2174, 2567, 2682, 2783, 3168, 3274, 3369, 3575, 3696, 3787, 3926, 4512, 4683, 4906, 5086, 5438, 5592, 5730, 6381, 6792, 7004, 7161, 7283, 7892, 7973, 8061, 8152, 8247, 8348, 8665, 8935, 9203, 9382, 9487, 9555, 9707, 9901, 10023, 10125, 10189, 10355, 10648, 10735, 10848, 10931, 11026, 13770, 13863, 14016, 14135, 14227, 14268, 14382, 17501, 17619, 17733, 17968, 18098, 18199, 18322, 18542, 18639, 18798, 19242, 19372, 19593, 19731, 19962, 20013, 20212, 24386, 24462, 24623, 24683, 24756, 24892, 25154, 25332, 25473, 25606, 25742, 38511, 38832, 38951, 39142, 39287, 39428, 40052, 40179, 40275, 40377, 40828, 40928, 41034, 41208, 41580, 41684, 41779, 44478, 44726, 44924, 45186, 45395, 45473, 45578, 45881, 45983], "trial_type": "free-recall", "conditions": [24, 800, "a", 12000], "internal_node_id": "0.0-88.0-0.0", "key_presses": [83, 84, 65, 84, 85, 69, 13, 84, 85, 82, 84, 76, 69, 32, 68, 79, 76, 80, 72, 73, 78, 13, 80, 85, 68, 73, 8, 68, 73, 78, 71, 13, 77, 85, 70, 70, 73, 78, 13, 83, 72, 79, 82, 84, 67, 65, 75, 69, 13, 82, 79, 66, 66, 69, 82, 13, 84, 85, 82, 84, 76, 69, 13, 68, 79, 80, 8, 76, 80, 72, 73, 78, 13, 80, 69, 67, 65, 78, 13, 77, 73, 76, 75, 13, 85, 8, 72, 85, 83, 66, 65, 78, 68, 13, 70, 73, 68, 68, 76, 69, 13, 80, 79, 82, 84, 82, 65, 73, 84, 13], "trial": 2, "time_elapsed": 624961, "type": "FREE_RECALL", "trial_index": 115}, "uniqueid": "MTK2438:3AMYWKA6YCTKXWZAD8HWVXQEI6CO6C", "dateTime": 1517250473225}, {"current_trial": 116, "trialdata": {"rt": 3061, "trial_type": "text", "internal_node_id": "0.0-89.0", "time_elapsed": 630041, "key_press": 32, "type": "INSTRUCTIONS", "trial_index": 116}, "uniqueid": "MTK2438:3AMYWKA6YCTKXWZAD8HWVXQEI6CO6C", "dateTime": 1517250478291}, {"current_trial": 117, "trialdata": {"rt": [3665, 6452, 10011], "trial_type": "math-distractor", "key_times": [2913, 3082, 3665, 5638, 5907, 6452, 9298, 9456, 10011], "responses": ["14", "12", "21"], "num2": [9, 2, 6, 1], "num3": [3, 5, 7, 4], "conditions": [12, 800, "a", 12000], "internal_node_id": "0.0-90.0", "key_presses": [97, 100, 13, 97, 98, 13, 98, 97, 13], "trial": 3, "time_elapsed": 644053, "type": "DISTRACTOR", "trial_index": 117, "num1": [2, 5, 9, 4]}, "uniqueid": "MTK2438:3AMYWKA6YCTKXWZAD8HWVXQEI6CO6C", "dateTime": 1517250492302}, {"current_trial": 118, "trialdata": {"rt": -1, "trial_type": "single-stim", "stimulus": "<p id=\"stim\">10</p>", "internal_node_id": "0.0-91.0-0.0", "time_elapsed": 647058, "key_press": -1, "trial_index": 118}, "uniqueid": "MTK2438:3AMYWKA6YCTKXWZAD8HWVXQEI6CO6C", "dateTime": 1517250495307}, {"current_trial": 119, "trialdata": {"rt": -1, "trial_type": "single-stim", "stimulus": "<p id=\"stim\">9</p>", "internal_node_id": "0.0-91.0-1.0", "time_elapsed": 648061, "key_press": -1, "trial_index": 119}, "uniqueid": "MTK2438:3AMYWKA6YCTKXWZAD8HWVXQEI6CO6C", "dateTime": 1517250496311}, {"current_trial": 120, "trialdata": {"rt": -1, "trial_type": "single-stim", "stimulus": "<p id=\"stim\">8</p>", "internal_node_id": "0.0-91.0-2.0", "time_elapsed": 649065, "key_press": -1, "trial_index": 120}, "uniqueid": "MTK2438:3AMYWKA6YCTKXWZAD8HWVXQEI6CO6C", "dateTime": 1517250497314}, {"current_trial": 121, "trialdata": {"rt": -1, "trial_type": "single-stim", "stimulus": "<p id=\"stim\">7</p>", "internal_node_id": "0.0-91.0-3.0", "time_elapsed": 650069, "key_press": -1, "trial_index": 121}, "uniqueid": "MTK2438:3AMYWKA6YCTKXWZAD8HWVXQEI6CO6C", "dateTime": 1517250498318}, {"current_trial": 122, "trialdata": {"rt": -1, "trial_type": "single-stim", "stimulus": "<p id=\"stim\">6</p>", "internal_node_id": "0.0-91.0-4.0", "time_elapsed": 651074, "key_press": -1, "trial_index": 122}, "uniqueid": "MTK2438:3AMYWKA6YCTKXWZAD8HWVXQEI6CO6C", "dateTime": 1517250499323}, {"current_trial": 123, "trialdata": {"rt": -1, "trial_type": "single-stim", "stimulus": "<p id=\"stim\">5</p>", "internal_node_id": "0.0-91.0-5.0", "time_elapsed": 652078, "key_press": -1, "trial_index": 123}, "uniqueid": "MTK2438:3AMYWKA6YCTKXWZAD8HWVXQEI6CO6C", "dateTime": 1517250500328}, {"current_trial": 124, "trialdata": {"rt": -1, "trial_type": "single-stim", "stimulus": "<p id=\"stim\">4</p>", "internal_node_id": "0.0-91.0-6.0", "time_elapsed": 653083, "key_press": -1, "trial_index": 124}, "uniqueid": "MTK2438:3AMYWKA6YCTKXWZAD8HWVXQEI6CO6C", "dateTime": 1517250501332}, {"current_trial": 125, "trialdata": {"rt": -1, "trial_type": "single-stim", "stimulus": "<p id=\"stim\">3</p>", "internal_node_id": "0.0-91.0-7.0", "time_elapsed": 654087, "key_press": -1, "trial_index": 125}, "uniqueid": "MTK2438:3AMYWKA6YCTKXWZAD8HWVXQEI6CO6C", "dateTime": 1517250502336}, {"current_trial": 126, "trialdata": {"rt": -1, "trial_type": "single-stim", "stimulus": "<p id=\"stim\">2</p>", "internal_node_id": "0.0-91.0-8.0", "time_elapsed": 655090, "key_press": -1, "trial_index": 126}, "uniqueid": "MTK2438:3AMYWKA6YCTKXWZAD8HWVXQEI6CO6C", "dateTime": 1517250503340}, {"current_trial": 127, "trialdata": {"rt": -1, "trial_type": "single-stim", "stimulus": "<p id=\"stim\">1</p>", "internal_node_id": "0.0-91.0-9.0", "time_elapsed": 656094, "key_press": -1, "trial_index": 127}, "uniqueid": "MTK2438:3AMYWKA6YCTKXWZAD8HWVXQEI6CO6C", "dateTime": 1517250504343}, {"current_trial": 128, "trialdata": {"rt": -1, "trial_type": "single-stim", "stimulus": "<p id=\"stim\">+</p>", "internal_node_id": "0.0-92.0-0.0", "time_elapsed": 657597, "key_press": -1, "type": "FIXATION", "trial_index": 128}, "uniqueid": "MTK2438:3AMYWKA6YCTKXWZAD8HWVXQEI6CO6C", "dateTime": 1517250505847}, {"current_trial": 129, "trialdata": {"rt": -1000, "trial_type": "single-audio", "word": "sheriff", "stimulus": "/static/audio/wordpool/SHERIFF.wav", "conditions": [12, 800, "a", 12000], "internal_node_id": "0.0-93.0", "trial": 3, "time_elapsed": 659443, "serialpos": 0, "key_press": -1, "wordID": 1283, "type": "PRES_AUD", "trial_index": 129}, "uniqueid": "MTK2438:3AMYWKA6YCTKXWZAD8HWVXQEI6CO6C", "dateTime": 1517250507692}, {"current_trial": 130, "trialdata": {"rt": -1000, "trial_type": "single-audio", "word": "knapsack", "stimulus": "/static/audio/wordpool/KNAPSACK.wav", "conditions": [12, 800, "a", 12000], "internal_node_id": "0.0-94.0", "trial": 3, "time_elapsed": 661372, "serialpos": 1, "key_press": -1, "wordID": 782, "type": "PRES_AUD", "trial_index": 130}, "uniqueid": "MTK2438:3AMYWKA6YCTKXWZAD8HWVXQEI6CO6C", "dateTime": 1517250509622}, {"current_trial": 131, "trialdata": {"rt": -1000, "trial_type": "single-audio", "word": "postage", "stimulus": "/static/audio/wordpool/POSTAGE.wav", "conditions": [12, 800, "a", 12000], "internal_node_id": "0.0-95.0", "trial": 3, "time_elapsed": 663241, "serialpos": 2, "key_press": -1, "wordID": 1112, "type": "PRES_AUD", "trial_index": 131}, "uniqueid": "MTK2438:3AMYWKA6YCTKXWZAD8HWVXQEI6CO6C", "dateTime": 1517250511490}, {"current_trial": 132, "trialdata": {"rt": -1000, "trial_type": "single-audio", "word": "pluto", "stimulus": "/static/audio/wordpool/PLUTO.wav", "conditions": [12, 800, "a", 12000], "internal_node_id": "0.0-96.0", "trial": 3, "time_elapsed": 664861, "serialpos": 3, "key_press": -1, "wordID": 1091, "type": "PRES_AUD", "trial_index": 132}, "uniqueid": "MTK2438:3AMYWKA6YCTKXWZAD8HWVXQEI6CO6C", "dateTime": 1517250513111}, {"current_trial": 133, "trialdata": {"rt": -1000, "trial_type": "single-audio", "word": "xerox", "stimulus": "/static/audio/wordpool/XEROX.wav", "conditions": [12, 800, "a", 12000], "internal_node_id": "0.0-97.0", "trial": 3, "time_elapsed": 666514, "serialpos": 4, "key_press": -1, "wordID": 1627, "type": "PRES_AUD", "trial_index": 133}, "uniqueid": "MTK2438:3AMYWKA6YCTKXWZAD8HWVXQEI6CO6C", "dateTime": 1517250514763}, {"current_trial": 134, "trialdata": {"rt": -1000, "trial_type": "single-audio", "word": "hand", "stimulus": "/static/audio/wordpool/HAND.wav", "conditions": [12, 800, "a", 12000], "internal_node_id": "0.0-98.0", "trial": 3, "time_elapsed": 668427, "serialpos": 5, "key_press": -1, "wordID": 682, "type": "PRES_AUD", "trial_index": 134}, "uniqueid": "MTK2438:3AMYWKA6YCTKXWZAD8HWVXQEI6CO6C", "dateTime": 1517250516676}, {"current_trial": 135, "trialdata": {"rt": -1000, "trial_type": "single-audio", "word": "skirt", "stimulus": "/static/audio/wordpool/SKIRT.wav", "conditions": [12, 800, "a", 12000], "internal_node_id": "0.0-99.0", "trial": 3, "time_elapsed": 670414, "serialpos": 6, "key_press": -1, "wordID": 1318, "type": "PRES_AUD", "trial_index": 135}, "uniqueid": "MTK2438:3AMYWKA6YCTKXWZAD8HWVXQEI6CO6C", "dateTime": 1517250518663}, {"current_trial": 136, "trialdata": {"rt": -1000, "trial_type": "single-audio", "word": "airport", "stimulus": "/static/audio/wordpool/AIRPORT.wav", "conditions": [12, 800, "a", 12000], "internal_node_id": "0.0-100.0", "trial": 3, "time_elapsed": 672298, "serialpos": 7, "key_press": -1, "wordID": 12, "type": "PRES_AUD", "trial_index": 136}, "uniqueid": "MTK2438:3AMYWKA6YCTKXWZAD8HWVXQEI6CO6C", "dateTime": 1517250520547}, {"current_trial": 137, "trialdata": {"rt": -1000, "trial_type": "single-audio", "word": "briefcase", "stimulus": "/static/audio/wordpool/BRIEFCASE.wav", "conditions": [12, 800, "a", 12000], "internal_node_id": "0.0-101.0", "trial": 3, "time_elapsed": 674013, "serialpos": 8, "key_press": -1, "wordID": 174, "type": "PRES_AUD", "trial_index": 137}, "uniqueid": "MTK2438:3AMYWKA6YCTKXWZAD8HWVXQEI6CO6C", "dateTime": 1517250522263}, {"current_trial": 138, "trialdata": {"rt": -1000, "trial_type": "single-audio", "word": "driver", "stimulus": "/static/audio/wordpool/DRIVER.wav", "conditions": [12, 800, "a", 12000], "internal_node_id": "0.0-102.0", "trial": 3, "time_elapsed": 675656, "serialpos": 9, "key_press": -1, "wordID": 498, "type": "PRES_AUD", "trial_index": 138}, "uniqueid": "MTK2438:3AMYWKA6YCTKXWZAD8HWVXQEI6CO6C", "dateTime": 1517250523906}, {"current_trial": 139, "trialdata": {"rt": -1000, "trial_type": "single-audio", "word": "custard", "stimulus": "/static/audio/wordpool/CUSTARD.wav", "conditions": [12, 800, "a", 12000], "internal_node_id": "0.0-103.0", "trial": 3, "time_elapsed": 677449, "serialpos": 10, "key_press": -1, "wordID": 428, "type": "PRES_AUD", "trial_index": 139}, "uniqueid": "MTK2438:3AMYWKA6YCTKXWZAD8HWVXQEI6CO6C", "dateTime": 1517250525699}, {"current_trial": 140, "trialdata": {"rt": -1000, "trial_type": "single-audio", "word": "jelly", "stimulus": "/static/audio/wordpool/JELLY.wav", "conditions": [12, 800, "a", 12000], "internal_node_id": "0.0-104.0", "trial": 3, "time_elapsed": 679395, "serialpos": 11, "key_press": -1, "wordID": 754, "type": "PRES_AUD", "trial_index": 140}, "uniqueid": "MTK2438:3AMYWKA6YCTKXWZAD8HWVXQEI6CO6C", "dateTime": 1517250527645}, {"current_trial": 141, "trialdata": {"rt": -1, "trial_type": "single-stim", "stimulus": "", "internal_node_id": "0.0-105.0-0.0", "time_elapsed": 680617, "key_press": -1, "type": "PRE_RECALL_DELAY", "trial_index": 141}, "uniqueid": "MTK2438:3AMYWKA6YCTKXWZAD8HWVXQEI6CO6C", "dateTime": 1517250528866}, {"current_trial": 142, "trialdata": {"rt": -1000, "trial_type": "single-audio", "stimulus": "/static/audio/400Hz.wav", "internal_node_id": "0.0-106.0", "time_elapsed": 681121, "key_press": -1, "type": "PRE_RECALL_ALERT", "trial_index": 142}, "uniqueid": "MTK2438:3AMYWKA6YCTKXWZAD8HWVXQEI6CO6C", "dateTime": 1517250529370}, {"current_trial": 143, "trialdata": {"rt": [2929, 4093, 6590, 7899, 8946, 14910, 16357, 18890], "recwords": ["custard", "jelly", "breifcase", "airport", "driver", "sherriff", "postage", "knapsack"], "key_times": [1708, 1858, 1954, 2129, 2228, 2319, 2484, 2929, 3360, 3470, 3562, 3676, 3814, 4093, 5263, 5377, 5487, 5583, 5714, 6214, 6275, 6366, 6484, 6590, 6822, 6995, 7140, 7279, 7496, 7610, 7795, 7899, 8043, 8289, 8390, 8497, 8594, 8795, 8946, 13194, 13333, 13570, 13680, 13912, 14055, 14155, 14671, 14910, 15313, 15571, 15657, 15872, 15959, 16091, 16200, 16357, 17235, 17422, 17574, 17805, 18080, 18324, 18479, 18711, 18890], "trial_type": "free-recall", "conditions": [12, 800, "a", 12000], "internal_node_id": "0.0-107.0-0.0", "key_presses": [67, 85, 83, 84, 65, 82, 68, 13, 74, 69, 76, 76, 89, 13, 66, 82, 69, 73, 70, 67, 65, 83, 69, 13, 65, 73, 82, 80, 79, 82, 84, 13, 68, 82, 73, 86, 69, 82, 13, 83, 72, 69, 82, 82, 73, 70, 70, 13, 80, 79, 83, 84, 65, 71, 69, 13, 75, 78, 65, 80, 83, 65, 67, 75, 13], "trial": 3, "time_elapsed": 741130, "type": "FREE_RECALL", "trial_index": 143}, "uniqueid": "MTK2438:3AMYWKA6YCTKXWZAD8HWVXQEI6CO6C", "dateTime": 1517250589401}, {"current_trial": 144, "trialdata": {"rt": 1119, "trial_type": "text", "internal_node_id": "0.0-108.0", "time_elapsed": 744275, "key_press": 32, "type": "INSTRUCTIONS", "trial_index": 144}, "uniqueid": "MTK2438:3AMYWKA6YCTKXWZAD8HWVXQEI6CO6C", "dateTime": 1517250592524}, {"current_trial": 145, "trialdata": {"rt": [3884, 6817, 10045], "trial_type": "math-distractor", "key_times": [3356, 3527, 3884, 5952, 6120, 6817, 9571, 9709, 10045], "responses": ["21", "10", "21"], "num2": [6, 2, 7, 5], "num3": [9, 1, 9, 7], "conditions": [12, 1600, "a", 12000], "internal_node_id": "0.0-109.0", "key_presses": [98, 97, 13, 97, 96, 13, 98, 97, 13], "trial": 4, "time_elapsed": 758286, "type": "DISTRACTOR", "trial_index": 145, "num1": [6, 7, 5, 1]}, "uniqueid": "MTK2438:3AMYWKA6YCTKXWZAD8HWVXQEI6CO6C", "dateTime": 1517250606535}, {"current_trial": 146, "trialdata": {"rt": -1, "trial_type": "single-stim", "stimulus": "<p id=\"stim\">10</p>", "internal_node_id": "0.0-110.0-0.0", "time_elapsed": 761291, "key_press": -1, "trial_index": 146}, "uniqueid": "MTK2438:3AMYWKA6YCTKXWZAD8HWVXQEI6CO6C", "dateTime": 1517250609540}, {"current_trial": 147, "trialdata": {"rt": -1, "trial_type": "single-stim", "stimulus": "<p id=\"stim\">9</p>", "internal_node_id": "0.0-110.0-1.0", "time_elapsed": 762295, "key_press": -1, "trial_index": 147}, "uniqueid": "MTK2438:3AMYWKA6YCTKXWZAD8HWVXQEI6CO6C", "dateTime": 1517250610545}, {"current_trial": 148, "trialdata": {"rt": -1, "trial_type": "single-stim", "stimulus": "<p id=\"stim\">8</p>", "internal_node_id": "0.0-110.0-2.0", "time_elapsed": 763299, "key_press": -1, "trial_index": 148}, "uniqueid": "MTK2438:3AMYWKA6YCTKXWZAD8HWVXQEI6CO6C", "dateTime": 1517250611548}, {"current_trial": 149, "trialdata": {"rt": -1, "trial_type": "single-stim", "stimulus": "<p id=\"stim\">7</p>", "internal_node_id": "0.0-110.0-3.0", "time_elapsed": 764302, "key_press": -1, "trial_index": 149}, "uniqueid": "MTK2438:3AMYWKA6YCTKXWZAD8HWVXQEI6CO6C", "dateTime": 1517250612552}, {"current_trial": 150, "trialdata": {"rt": -1, "trial_type": "single-stim", "stimulus": "<p id=\"stim\">6</p>", "internal_node_id": "0.0-110.0-4.0", "time_elapsed": 765306, "key_press": -1, "trial_index": 150}, "uniqueid": "MTK2438:3AMYWKA6YCTKXWZAD8HWVXQEI6CO6C", "dateTime": 1517250613556}, {"current_trial": 151, "trialdata": {"rt": -1, "trial_type": "single-stim", "stimulus": "<p id=\"stim\">5</p>", "internal_node_id": "0.0-110.0-5.0", "time_elapsed": 766310, "key_press": -1, "trial_index": 151}, "uniqueid": "MTK2438:3AMYWKA6YCTKXWZAD8HWVXQEI6CO6C", "dateTime": 1517250614560}, {"current_trial": 152, "trialdata": {"rt": -1, "trial_type": "single-stim", "stimulus": "<p id=\"stim\">4</p>", "internal_node_id": "0.0-110.0-6.0", "time_elapsed": 767314, "key_press": -1, "trial_index": 152}, "uniqueid": "MTK2438:3AMYWKA6YCTKXWZAD8HWVXQEI6CO6C", "dateTime": 1517250615564}, {"current_trial": 153, "trialdata": {"rt": -1, "trial_type": "single-stim", "stimulus": "<p id=\"stim\">3</p>", "internal_node_id": "0.0-110.0-7.0", "time_elapsed": 768318, "key_press": -1, "trial_index": 153}, "uniqueid": "MTK2438:3AMYWKA6YCTKXWZAD8HWVXQEI6CO6C", "dateTime": 1517250616568}, {"current_trial": 154, "trialdata": {"rt": -1, "trial_type": "single-stim", "stimulus": "<p id=\"stim\">2</p>", "internal_node_id": "0.0-110.0-8.0", "time_elapsed": 769323, "key_press": -1, "trial_index": 154}, "uniqueid": "MTK2438:3AMYWKA6YCTKXWZAD8HWVXQEI6CO6C", "dateTime": 1517250617572}, {"current_trial": 155, "trialdata": {"rt": -1, "trial_type": "single-stim", "stimulus": "<p id=\"stim\">1</p>", "internal_node_id": "0.0-110.0-9.0", "time_elapsed": 770326, "key_press": -1, "trial_index": 155}, "uniqueid": "MTK2438:3AMYWKA6YCTKXWZAD8HWVXQEI6CO6C", "dateTime": 1517250618576}, {"current_trial": 156, "trialdata": {"rt": -1, "trial_type": "single-stim", "stimulus": "<p id=\"stim\">+</p>", "internal_node_id": "0.0-111.0-0.0", "time_elapsed": 771831, "key_press": -1, "type": "FIXATION", "trial_index": 156}, "uniqueid": "MTK2438:3AMYWKA6YCTKXWZAD8HWVXQEI6CO6C", "dateTime": 1517250620080}, {"current_trial": 157, "trialdata": {"rt": -1000, "trial_type": "single-audio", "word": "snake", "stimulus": "/static/audio/wordpool/SNAKE.wav", "conditions": [12, 1600, "a", 12000], "internal_node_id": "0.0-112.0", "trial": 4, "time_elapsed": 774576, "serialpos": 0, "key_press": -1, "wordID": 1332, "type": "PRES_AUD", "trial_index": 157}, "uniqueid": "MTK2438:3AMYWKA6YCTKXWZAD8HWVXQEI6CO6C", "dateTime": 1517250622826}, {"current_trial": 158, "trialdata": {"rt": -1000, "trial_type": "single-audio", "word": "mop", "stimulus": "/static/audio/wordpool/MOP.wav", "conditions": [12, 1600, "a", 12000], "internal_node_id": "0.0-113.0", "trial": 4, "time_elapsed": 777189, "serialpos": 1, "key_press": -1, "wordID": 915, "type": "PRES_AUD", "trial_index": 158}, "uniqueid": "MTK2438:3AMYWKA6YCTKXWZAD8HWVXQEI6CO6C", "dateTime": 1517250625439}, {"current_trial": 159, "trialdata": {"rt": -1000, "trial_type": "single-audio", "word": "wrist", "stimulus": "/static/audio/wordpool/WRIST.wav", "conditions": [12, 1600, "a", 12000], "internal_node_id": "0.0-114.0", "trial": 4, "time_elapsed": 779671, "serialpos": 2, "key_press": -1, "wordID": 1625, "type": "PRES_AUD", "trial_index": 159}, "uniqueid": "MTK2438:3AMYWKA6YCTKXWZAD8HWVXQEI6CO6C", "dateTime": 1517250627921}, {"current_trial": 160, "trialdata": {"rt": -1000, "trial_type": "single-audio", "word": "glass", "stimulus": "/static/audio/wordpool/GLASS.wav", "conditions": [12, 1600, "a", 12000], "internal_node_id": "0.0-115.0", "trial": 4, "time_elapsed": 782074, "serialpos": 3, "key_press": -1, "wordID": 638, "type": "PRES_AUD", "trial_index": 160}, "uniqueid": "MTK2438:3AMYWKA6YCTKXWZAD8HWVXQEI6CO6C", "dateTime": 1517250630324}, {"current_trial": 161, "trialdata": {"rt": -1000, "trial_type": "single-audio", "word": "goblin", "stimulus": "/static/audio/wordpool/GOBLIN.wav", "conditions": [12, 1600, "a", 12000], "internal_node_id": "0.0-116.0", "trial": 4, "time_elapsed": 784680, "serialpos": 4, "key_press": -1, "wordID": 644, "type": "PRES_AUD", "trial_index": 161}, "uniqueid": "MTK2438:3AMYWKA6YCTKXWZAD8HWVXQEI6CO6C", "dateTime": 1517250632930}, {"current_trial": 162, "trialdata": {"rt": -1000, "trial_type": "single-audio", "word": "dragon", "stimulus": "/static/audio/wordpool/DRAGON.wav", "conditions": [12, 1600, "a", 12000], "internal_node_id": "0.0-117.0", "trial": 4, "time_elapsed": 787292, "serialpos": 5, "key_press": -1, "wordID": 491, "type": "PRES_AUD", "trial_index": 162}, "uniqueid": "MTK2438:3AMYWKA6YCTKXWZAD8HWVXQEI6CO6C", "dateTime": 1517250635542}, {"current_trial": 163, "trialdata": {"rt": -1000, "trial_type": "single-audio", "word": "london", "stimulus": "/static/audio/wordpool/LONDON.wav", "conditions": [12, 1600, "a", 12000], "internal_node_id": "0.0-118.0", "trial": 4, "time_elapsed": 789859, "serialpos": 6, "key_press": -1, "wordID": 842, "type": "PRES_AUD", "trial_index": 163}, "uniqueid": "MTK2438:3AMYWKA6YCTKXWZAD8HWVXQEI6CO6C", "dateTime": 1517250638109}, {"current_trial": 164, "trialdata": {"rt": -1000, "trial_type": "single-audio", "word": "quail", "stimulus": "/static/audio/wordpool/QUAIL.wav", "conditions": [12, 1600, "a", 12000], "internal_node_id": "0.0-119.0", "trial": 4, "time_elapsed": 792325, "serialpos": 7, "key_press": -1, "wordID": 1146, "type": "PRES_AUD", "trial_index": 164}, "uniqueid": "MTK2438:3AMYWKA6YCTKXWZAD8HWVXQEI6CO6C", "dateTime": 1517250640574}, {"current_trial": 165, "trialdata": {"rt": -1000, "trial_type": "single-audio", "word": "branch", "stimulus": "/static/audio/wordpool/BRANCH.wav", "conditions": [12, 1600, "a", 12000], "internal_node_id": "0.0-120.0", "trial": 4, "time_elapsed": 794947, "serialpos": 8, "key_press": -1, "wordID": 167, "type": "PRES_AUD", "trial_index": 165}, "uniqueid": "MTK2438:3AMYWKA6YCTKXWZAD8HWVXQEI6CO6C", "dateTime": 1517250643197}, {"current_trial": 166, "trialdata": {"rt": -1000, "trial_type": "single-audio", "word": "diver", "stimulus": "/static/audio/wordpool/DIVER.wav", "conditions": [12, 1600, "a", 12000], "internal_node_id": "0.0-121.0", "trial": 4, "time_elapsed": 797550, "serialpos": 9, "key_press": -1, "wordID": 475, "type": "PRES_AUD", "trial_index": 166}, "uniqueid": "MTK2438:3AMYWKA6YCTKXWZAD8HWVXQEI6CO6C", "dateTime": 1517250645799}, {"current_trial": 167, "trialdata": {"rt": -1000, "trial_type": "single-audio", "word": "tortoise", "stimulus": "/static/audio/wordpool/TORTOISE.wav", "conditions": [12, 1600, "a", 12000], "internal_node_id": "0.0-122.0", "trial": 4, "time_elapsed": 800241, "serialpos": 10, "key_press": -1, "wordID": 1485, "type": "PRES_AUD", "trial_index": 167}, "uniqueid": "MTK2438:3AMYWKA6YCTKXWZAD8HWVXQEI6CO6C", "dateTime": 1517250648490}, {"current_trial": 168, "trialdata": {"rt": -1000, "trial_type": "single-audio", "word": "termite", "stimulus": "/static/audio/wordpool/TERMITE.wav", "conditions": [12, 1600, "a", 12000], "internal_node_id": "0.0-123.0", "trial": 4, "time_elapsed": 802741, "serialpos": 11, "key_press": -1, "wordID": 1450, "type": "PRES_AUD", "trial_index": 168}, "uniqueid": "MTK2438:3AMYWKA6YCTKXWZAD8HWVXQEI6CO6C", "dateTime": 1517250650990}, {"current_trial": 169, "trialdata": {"rt": -1, "trial_type": "single-stim", "stimulus": "", "internal_node_id": "0.0-124.0-0.0", "time_elapsed": 803987, "key_press": -1, "type": "PRE_RECALL_DELAY", "trial_index": 169}, "uniqueid": "MTK2438:3AMYWKA6YCTKXWZAD8HWVXQEI6CO6C", "dateTime": 1517250652237}, {"current_trial": 170, "trialdata": {"rt": -1000, "trial_type": "single-audio", "stimulus": "/static/audio/400Hz.wav", "internal_node_id": "0.0-125.0", "time_elapsed": 804500, "key_press": -1, "type": "PRE_RECALL_ALERT", "trial_index": 170}, "uniqueid": "MTK2438:3AMYWKA6YCTKXWZAD8HWVXQEI6CO6C", "dateTime": 1517250652750}, {"current_trial": 171, "trialdata": {"rt": [2065, 3903, 5851, 8162, 16692, 18039, 19330, 47560, 48693, 51501], "recwords": ["termite", "tortoise", "diver", "snail", "mop", "glass", "goblet", "snake", "wrist", "dragon"], "key_times": [1272, 1416, 1507, 1558, 1690, 1799, 1969, 2065, 2713, 2814, 2921, 3309, 3440, 3606, 3685, 3789, 3903, 4765, 5074, 5385, 5667, 5738, 5851, 7399, 7513, 7591, 7881, 8018, 8162, 16031, 16284, 16424, 16692, 16929, 17407, 17537, 17629, 17706, 17793, 17938, 18039, 18279, 18576, 18748, 18920, 19045, 19183, 19330, 46988, 47131, 47214, 47370, 47457, 47560, 47905, 48079, 48206, 48422, 48593, 48693, 50544, 50972, 51049, 51177, 51287, 51384, 51501], "trial_type": "free-recall", "conditions": [12, 1600, "a", 12000], "internal_node_id": "0.0-126.0-0.0", "key_presses": [84, 69, 82, 77, 73, 84, 69, 13, 84, 79, 82, 84, 79, 73, 83, 69, 13, 68, 73, 86, 69, 82, 13, 83, 78, 65, 73, 76, 13, 77, 79, 80, 13, 83, 8, 71, 76, 65, 83, 83, 13, 71, 79, 66, 76, 69, 84, 13, 83, 78, 65, 75, 69, 13, 87, 82, 73, 83, 84, 13, 68, 82, 65, 71, 79, 78, 13], "trial": 4, "time_elapsed": 864542, "type": "FREE_RECALL", "trial_index": 171}, "uniqueid": "MTK2438:3AMYWKA6YCTKXWZAD8HWVXQEI6CO6C", "dateTime": 1517250712810}, {"current_trial": 172, "trialdata": {"rt": 1305, "trial_type": "text", "internal_node_id": "0.0-127.0", "time_elapsed": 867870, "key_press": 32, "type": "INSTRUCTIONS", "trial_index": 172}, "uniqueid": "MTK2438:3AMYWKA6YCTKXWZAD8HWVXQEI6CO6C", "dateTime": 1517250716119}, {"current_trial": 173, "trialdata": {"rt": [3088, 5769, 9257], "trial_type": "math-distractor", "key_times": [2230, 2440, 3088, 4769, 5041, 5769, 8454, 8601, 9257], "responses": ["13", "18", "12"], "num2": [3, 8, 5, 3], "num3": [8, 1, 1, 9], "conditions": [24, 1600, "a", 12000], "internal_node_id": "0.0-128.0", "key_presses": [97, 99, 13, 97, 104, 13, 97, 98, 13], "trial": 5, "time_elapsed": 881886, "type": "DISTRACTOR", "trial_index": 173, "num1": [2, 9, 6, 6]}, "uniqueid": "MTK2438:3AMYWKA6YCTKXWZAD8HWVXQEI6CO6C", "dateTime": 1517250730135}, {"current_trial": 174, "trialdata": {"rt": -1, "trial_type": "single-stim", "stimulus": "<p id=\"stim\">10</p>", "internal_node_id": "0.0-129.0-0.0", "time_elapsed": 884893, "key_press": -1, "trial_index": 174}, "uniqueid": "MTK2438:3AMYWKA6YCTKXWZAD8HWVXQEI6CO6C", "dateTime": 1517250733143}, {"current_trial": 175, "trialdata": {"rt": -1, "trial_type": "single-stim", "stimulus": "<p id=\"stim\">9</p>", "internal_node_id": "0.0-129.0-1.0", "time_elapsed": 885901, "key_press": -1, "trial_index": 175}, "uniqueid": "MTK2438:3AMYWKA6YCTKXWZAD8HWVXQEI6CO6C", "dateTime": 1517250734151}, {"current_trial": 176, "trialdata": {"rt": -1, "trial_type": "single-stim", "stimulus": "<p id=\"stim\">8</p>", "internal_node_id": "0.0-129.0-2.0", "time_elapsed": 886905, "key_press": -1, "trial_index": 176}, "uniqueid": "MTK2438:3AMYWKA6YCTKXWZAD8HWVXQEI6CO6C", "dateTime": 1517250735155}, {"current_trial": 177, "trialdata": {"rt": -1, "trial_type": "single-stim", "stimulus": "<p id=\"stim\">7</p>", "internal_node_id": "0.0-129.0-3.0", "time_elapsed": 887909, "key_press": -1, "trial_index": 177}, "uniqueid": "MTK2438:3AMYWKA6YCTKXWZAD8HWVXQEI6CO6C", "dateTime": 1517250736159}, {"current_trial": 178, "trialdata": {"rt": -1, "trial_type": "single-stim", "stimulus": "<p id=\"stim\">6</p>", "internal_node_id": "0.0-129.0-4.0", "time_elapsed": 888913, "key_press": -1, "trial_index": 178}, "uniqueid": "MTK2438:3AMYWKA6YCTKXWZAD8HWVXQEI6CO6C", "dateTime": 1517250737162}, {"current_trial": 179, "trialdata": {"rt": -1, "trial_type": "single-stim", "stimulus": "<p id=\"stim\">5</p>", "internal_node_id": "0.0-129.0-5.0", "time_elapsed": 889917, "key_press": -1, "trial_index": 179}, "uniqueid": "MTK2438:3AMYWKA6YCTKXWZAD8HWVXQEI6CO6C", "dateTime": 1517250738167}, {"current_trial": 180, "trialdata": {"rt": -1, "trial_type": "single-stim", "stimulus": "<p id=\"stim\">4</p>", "internal_node_id": "0.0-129.0-6.0", "time_elapsed": 890921, "key_press": -1, "trial_index": 180}, "uniqueid": "MTK2438:3AMYWKA6YCTKXWZAD8HWVXQEI6CO6C", "dateTime": 1517250739171}, {"current_trial": 181, "trialdata": {"rt": -1, "trial_type": "single-stim", "stimulus": "<p id=\"stim\">3</p>", "internal_node_id": "0.0-129.0-7.0", "time_elapsed": 891925, "key_press": -1, "trial_index": 181}, "uniqueid": "MTK2438:3AMYWKA6YCTKXWZAD8HWVXQEI6CO6C", "dateTime": 1517250740174}, {"current_trial": 182, "trialdata": {"rt": -1, "trial_type": "single-stim", "stimulus": "<p id=\"stim\">2</p>", "internal_node_id": "0.0-129.0-8.0", "time_elapsed": 892928, "key_press": -1, "trial_index": 182}, "uniqueid": "MTK2438:3AMYWKA6YCTKXWZAD8HWVXQEI6CO6C", "dateTime": 1517250741178}, {"current_trial": 183, "trialdata": {"rt": -1, "trial_type": "single-stim", "stimulus": "<p id=\"stim\">1</p>", "internal_node_id": "0.0-129.0-9.0", "time_elapsed": 893932, "key_press": -1, "trial_index": 183}, "uniqueid": "MTK2438:3AMYWKA6YCTKXWZAD8HWVXQEI6CO6C", "dateTime": 1517250742182}, {"current_trial": 184, "trialdata": {"rt": -1, "trial_type": "single-stim", "stimulus": "<p id=\"stim\">+</p>", "internal_node_id": "0.0-130.0-0.0", "time_elapsed": 895437, "key_press": -1, "type": "FIXATION", "trial_index": 184}, "uniqueid": "MTK2438:3AMYWKA6YCTKXWZAD8HWVXQEI6CO6C", "dateTime": 1517250743686}, {"current_trial": 185, "trialdata": {"rt": -1000, "trial_type": "single-audio", "word": "toaster", "stimulus": "/static/audio/wordpool/TOASTER.wav", "conditions": [24, 1600, "a", 12000], "internal_node_id": "0.0-131.0", "trial": 5, "time_elapsed": 898113, "serialpos": 0, "key_press": -1, "wordID": 1471, "type": "PRES_AUD", "trial_index": 185}, "uniqueid": "MTK2438:3AMYWKA6YCTKXWZAD8HWVXQEI6CO6C", "dateTime": 1517250746362}, {"current_trial": 186, "trialdata": {"rt": -1000, "trial_type": "single-audio", "word": "baby", "stimulus": "/static/audio/wordpool/BABY.wav", "conditions": [24, 1600, "a", 12000], "internal_node_id": "0.0-132.0", "trial": 5, "time_elapsed": 900577, "serialpos": 1, "key_press": -1, "wordID": 63, "type": "PRES_AUD", "trial_index": 186}, "uniqueid": "MTK2438:3AMYWKA6YCTKXWZAD8HWVXQEI6CO6C", "dateTime": 1517250748826}, {"current_trial": 187, "trialdata": {"rt": -1000, "trial_type": "single-audio", "word": "salmon", "stimulus": "/static/audio/wordpool/SALMON.wav", "conditions": [24, 1600, "a", 12000], "internal_node_id": "0.0-133.0", "trial": 5, "time_elapsed": 902992, "serialpos": 2, "key_press": -1, "wordID": 1226, "type": "PRES_AUD", "trial_index": 187}, "uniqueid": "MTK2438:3AMYWKA6YCTKXWZAD8HWVXQEI6CO6C", "dateTime": 1517250751241}, {"current_trial": 188, "trialdata": {"rt": -1000, "trial_type": "single-audio", "word": "yarn", "stimulus": "/static/audio/wordpool/YARN.wav", "conditions": [24, 1600, "a", 12000], "internal_node_id": "0.0-134.0", "trial": 5, "time_elapsed": 905481, "serialpos": 3, "key_press": -1, "wordID": 1630, "type": "PRES_AUD", "trial_index": 188}, "uniqueid": "MTK2438:3AMYWKA6YCTKXWZAD8HWVXQEI6CO6C", "dateTime": 1517250753730}, {"current_trial": 189, "trialdata": {"rt": -1000, "trial_type": "single-audio", "word": "scissors", "stimulus": "/static/audio/wordpool/SCISSORS.wav", "conditions": [24, 1600, "a", 12000], "internal_node_id": "0.0-135.0", "trial": 5, "time_elapsed": 907976, "serialpos": 4, "key_press": -1, "wordID": 1249, "type": "PRES_AUD", "trial_index": 189}, "uniqueid": "MTK2438:3AMYWKA6YCTKXWZAD8HWVXQEI6CO6C", "dateTime": 1517250756226}, {"current_trial": 190, "trialdata": {"rt": -1000, "trial_type": "single-audio", "word": "rabbit", "stimulus": "/static/audio/wordpool/RABBIT.wav", "conditions": [24, 1600, "a", 12000], "internal_node_id": "0.0-136.0", "trial": 5, "time_elapsed": 910669, "serialpos": 5, "key_press": -1, "wordID": 1151, "type": "PRES_AUD", "trial_index": 190}, "uniqueid": "MTK2438:3AMYWKA6YCTKXWZAD8HWVXQEI6CO6C", "dateTime": 1517250758918}, {"current_trial": 191, "trialdata": {"rt": -1000, "trial_type": "single-audio", "word": "snack", "stimulus": "/static/audio/wordpool/SNACK.wav", "conditions": [24, 1600, "a", 12000], "internal_node_id": "0.0-137.0", "trial": 5, "time_elapsed": 913140, "serialpos": 6, "key_press": -1, "wordID": 1330, "type": "PRES_AUD", "trial_index": 191}, "uniqueid": "MTK2438:3AMYWKA6YCTKXWZAD8HWVXQEI6CO6C", "dateTime": 1517250761389}, {"current_trial": 192, "trialdata": {"rt": -1000, "trial_type": "single-audio", "word": "candy", "stimulus": "/static/audio/wordpool/CANDY.wav", "conditions": [24, 1600, "a", 12000], "internal_node_id": "0.0-138.0", "trial": 5, "time_elapsed": 915749, "serialpos": 7, "key_press": -1, "wordID": 229, "type": "PRES_AUD", "trial_index": 192}, "uniqueid": "MTK2438:3AMYWKA6YCTKXWZAD8HWVXQEI6CO6C", "dateTime": 1517250763998}, {"current_trial": 193, "trialdata": {"rt": -1000, "trial_type": "single-audio", "word": "brandy", "stimulus": "/static/audio/wordpool/BRANDY.wav", "conditions": [24, 1600, "a", 12000], "internal_node_id": "0.0-139.0", "trial": 5, "time_elapsed": 918351, "serialpos": 8, "key_press": -1, "wordID": 168, "type": "PRES_AUD", "trial_index": 193}, "uniqueid": "MTK2438:3AMYWKA6YCTKXWZAD8HWVXQEI6CO6C", "dateTime": 1517250766600}, {"current_trial": 194, "trialdata": {"rt": -1000, "trial_type": "single-audio", "word": "fox", "stimulus": "/static/audio/wordpool/FOX.wav", "conditions": [24, 1600, "a", 12000], "internal_node_id": "0.0-140.0", "trial": 5, "time_elapsed": 920907, "serialpos": 9, "key_press": -1, "wordID": 597, "type": "PRES_AUD", "trial_index": 194}, "uniqueid": "MTK2438:3AMYWKA6YCTKXWZAD8HWVXQEI6CO6C", "dateTime": 1517250769157}, {"current_trial": 195, "trialdata": {"rt": -1000, "trial_type": "single-audio", "word": "popcorn", "stimulus": "/static/audio/wordpool/POPCORN.wav", "conditions": [24, 1600, "a", 12000], "internal_node_id": "0.0-141.0", "trial": 5, "time_elapsed": 923628, "serialpos": 10, "key_press": -1, "wordID": 1103, "type": "PRES_AUD", "trial_index": 195}, "uniqueid": "MTK2438:3AMYWKA6YCTKXWZAD8HWVXQEI6CO6C", "dateTime": 1517250771877}, {"current_trial": 196, "trialdata": {"rt": -1000, "trial_type": "single-audio", "word": "star", "stimulus": "/static/audio/wordpool/STAR.wav", "conditions": [24, 1600, "a", 12000], "internal_node_id": "0.0-142.0", "trial": 5, "time_elapsed": 926238, "serialpos": 11, "key_press": -1, "wordID": 1372, "type": "PRES_AUD", "trial_index": 196}, "uniqueid": "MTK2438:3AMYWKA6YCTKXWZAD8HWVXQEI6CO6C", "dateTime": 1517250774488}, {"current_trial": 197, "trialdata": {"rt": -1000, "trial_type": "single-audio", "word": "match", "stimulus": "/static/audio/wordpool/MATCH.wav", "conditions": [24, 1600, "a", 12000], "internal_node_id": "0.0-143.0", "trial": 5, "time_elapsed": 928988, "serialpos": 12, "key_press": -1, "wordID": 877, "type": "PRES_AUD", "trial_index": 197}, "uniqueid": "MTK2438:3AMYWKA6YCTKXWZAD8HWVXQEI6CO6C", "dateTime": 1517250777238}, {"current_trial": 198, "trialdata": {"rt": -1000, "trial_type": "single-audio", "word": "bureau", "stimulus": "/static/audio/wordpool/BUREAU.wav", "conditions": [24, 1600, "a", 12000], "internal_node_id": "0.0-144.0", "trial": 5, "time_elapsed": 931616, "serialpos": 13, "key_press": -1, "wordID": 198, "type": "PRES_AUD", "trial_index": 198}, "uniqueid": "MTK2438:3AMYWKA6YCTKXWZAD8HWVXQEI6CO6C", "dateTime": 1517250779866}, {"current_trial": 199, "trialdata": {"rt": -1000, "trial_type": "single-audio", "word": "grave", "stimulus": "/static/audio/wordpool/GRAVE.wav", "conditions": [24, 1600, "a", 12000], "internal_node_id": "0.0-145.0", "trial": 5, "time_elapsed": 934326, "serialpos": 14, "key_press": -1, "wordID": 657, "type": "PRES_AUD", "trial_index": 199}, "uniqueid": "MTK2438:3AMYWKA6YCTKXWZAD8HWVXQEI6CO6C", "dateTime": 1517250782576}, {"current_trial": 200, "trialdata": {"rt": -1000, "trial_type": "single-audio", "word": "passage", "stimulus": "/static/audio/wordpool/PASSAGE.wav", "conditions": [24, 1600, "a", 12000], "internal_node_id": "0.0-146.0", "trial": 5, "time_elapsed": 936874, "serialpos": 15, "key_press": -1, "wordID": 1018, "type": "PRES_AUD", "trial_index": 200}, "uniqueid": "MTK2438:3AMYWKA6YCTKXWZAD8HWVXQEI6CO6C", "dateTime": 1517250785123}, {"current_trial": 201, "trialdata": {"rt": -1000, "trial_type": "single-audio", "word": "switch", "stimulus": "/static/audio/wordpool/SWITCH.wav", "conditions": [24, 1600, "a", 12000], "internal_node_id": "0.0-147.0", "trial": 5, "time_elapsed": 939385, "serialpos": 16, "key_press": -1, "wordID": 1421, "type": "PRES_AUD", "trial_index": 201}, "uniqueid": "MTK2438:3AMYWKA6YCTKXWZAD8HWVXQEI6CO6C", "dateTime": 1517250787634}, {"current_trial": 202, "trialdata": {"rt": -1000, "trial_type": "single-audio", "word": "shirt", "stimulus": "/static/audio/wordpool/SHIRT.wav", "conditions": [24, 1600, "a", 12000], "internal_node_id": "0.0-148.0", "trial": 5, "time_elapsed": 941879, "serialpos": 17, "key_press": -1, "wordID": 1286, "type": "PRES_AUD", "trial_index": 202}, "uniqueid": "MTK2438:3AMYWKA6YCTKXWZAD8HWVXQEI6CO6C", "dateTime": 1517250790129}, {"current_trial": 203, "trialdata": {"rt": -1000, "trial_type": "single-audio", "word": "dress", "stimulus": "/static/audio/wordpool/DRESS.wav", "conditions": [24, 1600, "a", 12000], "internal_node_id": "0.0-149.0", "trial": 5, "time_elapsed": 944446, "serialpos": 18, "key_press": -1, "wordID": 494, "type": "PRES_AUD", "trial_index": 203}, "uniqueid": "MTK2438:3AMYWKA6YCTKXWZAD8HWVXQEI6CO6C", "dateTime": 1517250792699}, {"current_trial": 204, "trialdata": {"rt": -1000, "trial_type": "single-audio", "word": "clothes", "stimulus": "/static/audio/wordpool/CLOTHES.wav", "conditions": [24, 1600, "a", 12000], "internal_node_id": "0.0-150.0", "trial": 5, "time_elapsed": 947245, "serialpos": 19, "key_press": -1, "wordID": 326, "type": "PRES_AUD", "trial_index": 204}, "uniqueid": "MTK2438:3AMYWKA6YCTKXWZAD8HWVXQEI6CO6C", "dateTime": 1517250795495}, {"current_trial": 205, "trialdata": {"rt": -1000, "trial_type": "single-audio", "word": "chest", "stimulus": "/static/audio/wordpool/CHEST.wav", "conditions": [24, 1600, "a", 12000], "internal_node_id": "0.0-151.0", "trial": 5, "time_elapsed": 949929, "serialpos": 20, "key_press": -1, "wordID": 294, "type": "PRES_AUD", "trial_index": 205}, "uniqueid": "MTK2438:3AMYWKA6YCTKXWZAD8HWVXQEI6CO6C", "dateTime": 1517250798178}, {"current_trial": 206, "trialdata": {"rt": -1000, "trial_type": "single-audio", "word": "lagoon", "stimulus": "/static/audio/wordpool/LAGOON.wav", "conditions": [24, 1600, "a", 12000], "internal_node_id": "0.0-152.0", "trial": 5, "time_elapsed": 952621, "serialpos": 21, "key_press": -1, "wordID": 794, "type": "PRES_AUD", "trial_index": 206}, "uniqueid": "MTK2438:3AMYWKA6YCTKXWZAD8HWVXQEI6CO6C", "dateTime": 1517250800871}, {"current_trial": 207, "trialdata": {"rt": -1000, "trial_type": "single-audio", "word": "seagull", "stimulus": "/static/audio/wordpool/SEAGULL.wav", "conditions": [24, 1600, "a", 12000], "internal_node_id": "0.0-153.0", "trial": 5, "time_elapsed": 955404, "serialpos": 22, "key_press": -1, "wordID": 1260, "type": "PRES_AUD", "trial_index": 207}, "uniqueid": "MTK2438:3AMYWKA6YCTKXWZAD8HWVXQEI6CO6C", "dateTime": 1517250803654}, {"current_trial": 208, "trialdata": {"rt": -1000, "trial_type": "single-audio", "word": "forehead", "stimulus": "/static/audio/wordpool/FOREHEAD.wav", "conditions": [24, 1600, "a", 12000], "internal_node_id": "0.0-154.0", "trial": 5, "time_elapsed": 958091, "serialpos": 23, "key_press": -1, "wordID": 591, "type": "PRES_AUD", "trial_index": 208}, "uniqueid": "MTK2438:3AMYWKA6YCTKXWZAD8HWVXQEI6CO6C", "dateTime": 1517250806340}, {"current_trial": 209, "trialdata": {"rt": -1, "trial_type": "single-stim", "stimulus": "", "internal_node_id": "0.0-155.0-0.0", "time_elapsed": 959324, "key_press": -1, "type": "PRE_RECALL_DELAY", "trial_index": 209}, "uniqueid": "MTK2438:3AMYWKA6YCTKXWZAD8HWVXQEI6CO6C", "dateTime": 1517250807574}, {"current_trial": 210, "trialdata": {"rt": -1000, "trial_type": "single-audio", "stimulus": "/static/audio/400Hz.wav", "internal_node_id": "0.0-156.0", "time_elapsed": 959829, "key_press": -1, "type": "PRE_RECALL_ALERT", "trial_index": 210}, "uniqueid": "MTK2438:3AMYWKA6YCTKXWZAD8HWVXQEI6CO6C", "dateTime": 1517250808078}, {"current_trial": 211, "trialdata": {"rt": [2489, 3871, 5877, 6875, 7181, 8473, 16189, 22406, 53313, 54198, 55920], "recwords": ["forehead", "seagull", "chest", "dress", "", "clothes", "coaster", "rabbit", "candy", "snack", "popcorn"], "key_times": [1050, 1321, 1408, 1629, 2024, 2139, 2194, 2349, 2489, 2973, 3129, 3253, 3349, 3494, 3609, 3740, 3871, 4116, 4231, 4361, 4777, 4928, 5060, 5147, 5269, 5479, 5598, 5781, 5877, 6070, 6264, 6389, 6443, 6615, 6875, 7181, 7387, 7733, 7882, 8157, 8249, 8294, 8358, 8473, 14254, 14326, 14440, 14706, 15205, 15356, 15442, 15529, 15870, 16015, 16097, 16189, 21705, 21810, 21929, 22046, 22170, 22283, 22406, 52599, 52661, 52785, 53013, 53132, 53313, 53532, 53727, 53846, 53975, 54046, 54198, 54547, 54698, 55020, 55323, 55592, 55666, 55778, 55920], "trial_type": "free-recall", "conditions": [24, 1600, "a", 12000], "internal_node_id": "0.0-157.0-0.0", "key_presses": [70, 79, 82, 69, 72, 69, 65, 68, 13, 83, 69, 65, 71, 85, 76, 76, 13, 83, 72, 69, 8, 8, 8, 67, 72, 69, 83, 84, 13, 68, 82, 69, 83, 83, 32, 13, 67, 76, 79, 84, 72, 69, 83, 13, 67, 79, 83, 84, 8, 8, 65, 83, 84, 69, 82, 13, 82, 65, 66, 66, 73, 84, 13, 67, 65, 78, 68, 89, 13, 83, 78, 65, 67, 75, 13, 80, 79, 80, 67, 79, 82, 78, 13], "trial": 5, "time_elapsed": 1019841, "type": "FREE_RECALL", "trial_index": 211}, "uniqueid": "MTK2438:3AMYWKA6YCTKXWZAD8HWVXQEI6CO6C", "dateTime": 1517250868112}, {"current_trial": 212, "trialdata": {"rt": 1762, "trial_type": "text", "internal_node_id": "0.0-158.0", "time_elapsed": 1023629, "key_press": 32, "type": "INSTRUCTIONS", "trial_index": 212}, "uniqueid": "MTK2438:3AMYWKA6YCTKXWZAD8HWVXQEI6CO6C", "dateTime": 1517250871878}, {"current_trial": 213, "trialdata": {"rt": [3118, 6992, 13259, 16182, 19460, 22030], "trial_type": "math-distractor", "key_times": [2435, 2544, 3118, 6315, 6449, 6992, 12272, 12684, 13259, 15359, 15563, 16182, 18554, 18792, 19460, 21230, 21413, 22030], "responses": ["11", "22", "17", "10", "13", "20"], "num2": [7, 7, 9, 2, 1, 5, 9], "num3": [2, 6, 4, 7, 5, 7, 5], "conditions": [24, 1600, "a", 24000], "internal_node_id": "0.0-159.0", "key_presses": [97, 97, 13, 98, 98, 13, 97, 103, 13, 97, 96, 13, 97, 99, 13, 98, 96, 13], "trial": 6, "time_elapsed": 1049640, "type": "DISTRACTOR", "trial_index": 213, "num1": [2, 8, 4, 1, 7, 8, 2]}, "uniqueid": "MTK2438:3AMYWKA6YCTKXWZAD8HWVXQEI6CO6C", "dateTime": 1517250897890}, {"current_trial": 214, "trialdata": {"rt": -1, "trial_type": "single-stim", "stimulus": "<p id=\"stim\">10</p>", "internal_node_id": "0.0-160.0-0.0", "time_elapsed": 1052645, "key_press": -1, "trial_index": 214}, "uniqueid": "MTK2438:3AMYWKA6YCTKXWZAD8HWVXQEI6CO6C", "dateTime": 1517250900895}, {"current_trial": 215, "trialdata": {"rt": -1, "trial_type": "single-stim", "stimulus": "<p id=\"stim\">9</p>", "internal_node_id": "0.0-160.0-1.0", "time_elapsed": 1053650, "key_press": -1, "trial_index": 215}, "uniqueid": "MTK2438:3AMYWKA6YCTKXWZAD8HWVXQEI6CO6C", "dateTime": 1517250901899}, {"current_trial": 216, "trialdata": {"rt": -1, "trial_type": "single-stim", "stimulus": "<p id=\"stim\">8</p>", "internal_node_id": "0.0-160.0-2.0", "time_elapsed": 1054654, "key_press": -1, "trial_index": 216}, "uniqueid": "MTK2438:3AMYWKA6YCTKXWZAD8HWVXQEI6CO6C", "dateTime": 1517250902903}, {"current_trial": 217, "trialdata": {"rt": -1, "trial_type": "single-stim", "stimulus": "<p id=\"stim\">7</p>", "internal_node_id": "0.0-160.0-3.0", "time_elapsed": 1055658, "key_press": -1, "trial_index": 217}, "uniqueid": "MTK2438:3AMYWKA6YCTKXWZAD8HWVXQEI6CO6C", "dateTime": 1517250903907}, {"current_trial": 218, "trialdata": {"rt": -1, "trial_type": "single-stim", "stimulus": "<p id=\"stim\">6</p>", "internal_node_id": "0.0-160.0-4.0", "time_elapsed": 1056664, "key_press": -1, "trial_index": 218}, "uniqueid": "MTK2438:3AMYWKA6YCTKXWZAD8HWVXQEI6CO6C", "dateTime": 1517250904914}, {"current_trial": 219, "trialdata": {"rt": -1, "trial_type": "single-stim", "stimulus": "<p id=\"stim\">5</p>", "internal_node_id": "0.0-160.0-5.0", "time_elapsed": 1057668, "key_press": -1, "trial_index": 219}, "uniqueid": "MTK2438:3AMYWKA6YCTKXWZAD8HWVXQEI6CO6C", "dateTime": 1517250905918}, {"current_trial": 220, "trialdata": {"rt": -1, "trial_type": "single-stim", "stimulus": "<p id=\"stim\">4</p>", "internal_node_id": "0.0-160.0-6.0", "time_elapsed": 1058673, "key_press": -1, "trial_index": 220}, "uniqueid": "MTK2438:3AMYWKA6YCTKXWZAD8HWVXQEI6CO6C", "dateTime": 1517250906922}, {"current_trial": 221, "trialdata": {"rt": -1, "trial_type": "single-stim", "stimulus": "<p id=\"stim\">3</p>", "internal_node_id": "0.0-160.0-7.0", "time_elapsed": 1059677, "key_press": -1, "trial_index": 221}, "uniqueid": "MTK2438:3AMYWKA6YCTKXWZAD8HWVXQEI6CO6C", "dateTime": 1517250907926}, {"current_trial": 222, "trialdata": {"rt": -1, "trial_type": "single-stim", "stimulus": "<p id=\"stim\">2</p>", "internal_node_id": "0.0-160.0-8.0", "time_elapsed": 1060681, "key_press": -1, "trial_index": 222}, "uniqueid": "MTK2438:3AMYWKA6YCTKXWZAD8HWVXQEI6CO6C", "dateTime": 1517250908931}, {"current_trial": 223, "trialdata": {"rt": -1, "trial_type": "single-stim", "stimulus": "<p id=\"stim\">1</p>", "internal_node_id": "0.0-160.0-9.0", "time_elapsed": 1061684, "key_press": -1, "trial_index": 223}, "uniqueid": "MTK2438:3AMYWKA6YCTKXWZAD8HWVXQEI6CO6C", "dateTime": 1517250909934}, {"current_trial": 224, "trialdata": {"rt": -1, "trial_type": "single-stim", "stimulus": "<p id=\"stim\">+</p>", "internal_node_id": "0.0-161.0-0.0", "time_elapsed": 1063189, "key_press": -1, "type": "FIXATION", "trial_index": 224}, "uniqueid": "MTK2438:3AMYWKA6YCTKXWZAD8HWVXQEI6CO6C", "dateTime": 1517250911439}, {"current_trial": 225, "trialdata": {"rt": -1000, "trial_type": "single-audio", "word": "sausage", "stimulus": "/static/audio/wordpool/SAUSAGE.wav", "conditions": [24, 1600, "a", 24000], "internal_node_id": "0.0-162.0", "trial": 6, "time_elapsed": 1065875, "serialpos": 0, "key_press": -1, "wordID": 1237, "type": "PRES_AUD", "trial_index": 225}, "uniqueid": "MTK2438:3AMYWKA6YCTKXWZAD8HWVXQEI6CO6C", "dateTime": 1517250914125}, {"current_trial": 226, "trialdata": {"rt": -1000, "trial_type": "single-audio", "word": "mister", "stimulus": "/static/audio/wordpool/MISTER.wav", "conditions": [24, 1600, "a", 24000], "internal_node_id": "0.0-163.0", "trial": 6, "time_elapsed": 1068480, "serialpos": 1, "key_press": -1, "wordID": 900, "type": "PRES_AUD", "trial_index": 226}, "uniqueid": "MTK2438:3AMYWKA6YCTKXWZAD8HWVXQEI6CO6C", "dateTime": 1517250916730}, {"current_trial": 227, "trialdata": {"rt": -1000, "trial_type": "single-audio", "word": "crayon", "stimulus": "/static/audio/wordpool/CRAYON.wav", "conditions": [24, 1600, "a", 24000], "internal_node_id": "0.0-164.0", "trial": 6, "time_elapsed": 1071169, "serialpos": 2, "key_press": -1, "wordID": 400, "type": "PRES_AUD", "trial_index": 227}, "uniqueid": "MTK2438:3AMYWKA6YCTKXWZAD8HWVXQEI6CO6C", "dateTime": 1517250919419}, {"current_trial": 228, "trialdata": {"rt": -1000, "trial_type": "single-audio", "word": "beast", "stimulus": "/static/audio/wordpool/BEAST.wav", "conditions": [24, 1600, "a", 24000], "internal_node_id": "0.0-165.0", "trial": 6, "time_elapsed": 1073956, "serialpos": 3, "key_press": -1, "wordID": 107, "type": "PRES_AUD", "trial_index": 228}, "uniqueid": "MTK2438:3AMYWKA6YCTKXWZAD8HWVXQEI6CO6C", "dateTime": 1517250922205}, {"current_trial": 229, "trialdata": {"rt": -1000, "trial_type": "single-audio", "word": "honey", "stimulus": "/static/audio/wordpool/HONEY.wav", "conditions": [24, 1600, "a", 24000], "internal_node_id": "0.0-166.0", "trial": 6, "time_elapsed": 1076543, "serialpos": 4, "key_press": -1, "wordID": 712, "type": "PRES_AUD", "trial_index": 229}, "uniqueid": "MTK2438:3AMYWKA6YCTKXWZAD8HWVXQEI6CO6C", "dateTime": 1517250924792}, {"current_trial": 230, "trialdata": {"rt": -1000, "trial_type": "single-audio", "word": "motel", "stimulus": "/static/audio/wordpool/MOTEL.wav", "conditions": [24, 1600, "a", 24000], "internal_node_id": "0.0-167.0", "trial": 6, "time_elapsed": 1079234, "serialpos": 5, "key_press": -1, "wordID": 918, "type": "PRES_AUD", "trial_index": 230}, "uniqueid": "MTK2438:3AMYWKA6YCTKXWZAD8HWVXQEI6CO6C", "dateTime": 1517250927483}, {"current_trial": 231, "trialdata": {"rt": -1000, "trial_type": "single-audio", "word": "cousin", "stimulus": "/static/audio/wordpool/COUSIN.wav", "conditions": [24, 1600, "a", 24000], "internal_node_id": "0.0-168.0", "trial": 6, "time_elapsed": 1081841, "serialpos": 6, "key_press": -1, "wordID": 391, "type": "PRES_AUD", "trial_index": 231}, "uniqueid": "MTK2438:3AMYWKA6YCTKXWZAD8HWVXQEI6CO6C", "dateTime": 1517250930091}, {"current_trial": 232, "trialdata": {"rt": -1000, "trial_type": "single-audio", "word": "pork", "stimulus": "/static/audio/wordpool/PORK.wav", "conditions": [24, 1600, "a", 24000], "internal_node_id": "0.0-169.0", "trial": 6, "time_elapsed": 1084373, "serialpos": 7, "key_press": -1, "wordID": 1107, "type": "PRES_AUD", "trial_index": 232}, "uniqueid": "MTK2438:3AMYWKA6YCTKXWZAD8HWVXQEI6CO6C", "dateTime": 1517250932623}, {"current_trial": 233, "trialdata": {"rt": -1000, "trial_type": "single-audio", "word": "clam", "stimulus": "/static/audio/wordpool/CLAM.wav", "conditions": [24, 1600, "a", 24000], "internal_node_id": "0.0-170.0", "trial": 6, "time_elapsed": 1086793, "serialpos": 8, "key_press": -1, "wordID": 314, "type": "PRES_AUD", "trial_index": 233}, "uniqueid": "MTK2438:3AMYWKA6YCTKXWZAD8HWVXQEI6CO6C", "dateTime": 1517250935042}, {"current_trial": 234, "trialdata": {"rt": -1000, "trial_type": "single-audio", "word": "rod", "stimulus": "/static/audio/wordpool/ROD.wav", "conditions": [24, 1600, "a", 24000], "internal_node_id": "0.0-171.0", "trial": 6, "time_elapsed": 1089325, "serialpos": 9, "key_press": -1, "wordID": 1202, "type": "PRES_AUD", "trial_index": 234}, "uniqueid": "MTK2438:3AMYWKA6YCTKXWZAD8HWVXQEI6CO6C", "dateTime": 1517250937574}, {"current_trial": 235, "trialdata": {"rt": -1000, "trial_type": "single-audio", "word": "uncle", "stimulus": "/static/audio/wordpool/UNCLE.wav", "conditions": [24, 1600, "a", 24000], "internal_node_id": "0.0-172.0", "trial": 6, "time_elapsed": 1092085, "serialpos": 10, "key_press": -1, "wordID": 1535, "type": "PRES_AUD", "trial_index": 235}, "uniqueid": "MTK2438:3AMYWKA6YCTKXWZAD8HWVXQEI6CO6C", "dateTime": 1517250940334}, {"current_trial": 236, "trialdata": {"rt": -1000, "trial_type": "single-audio", "word": "widow", "stimulus": "/static/audio/wordpool/WIDOW.wav", "conditions": [24, 1600, "a", 24000], "internal_node_id": "0.0-173.0", "trial": 6, "time_elapsed": 1094630, "serialpos": 11, "key_press": -1, "wordID": 1607, "type": "PRES_AUD", "trial_index": 236}, "uniqueid": "MTK2438:3AMYWKA6YCTKXWZAD8HWVXQEI6CO6C", "dateTime": 1517250942879}, {"current_trial": 237, "trialdata": {"rt": -1000, "trial_type": "single-audio", "word": "jury", "stimulus": "/static/audio/wordpool/JURY.wav", "conditions": [24, 1600, "a", 24000], "internal_node_id": "0.0-174.0", "trial": 6, "time_elapsed": 1097384, "serialpos": 12, "key_press": -1, "wordID": 765, "type": "PRES_AUD", "trial_index": 237}, "uniqueid": "MTK2438:3AMYWKA6YCTKXWZAD8HWVXQEI6CO6C", "dateTime": 1517250945633}, {"current_trial": 238, "trialdata": {"rt": -1000, "trial_type": "single-audio", "word": "carriage", "stimulus": "/static/audio/wordpool/CARRIAGE.wav", "conditions": [24, 1600, "a", 24000], "internal_node_id": "0.0-175.0", "trial": 6, "time_elapsed": 1099874, "serialpos": 13, "key_press": -1, "wordID": 247, "type": "PRES_AUD", "trial_index": 238}, "uniqueid": "MTK2438:3AMYWKA6YCTKXWZAD8HWVXQEI6CO6C", "dateTime": 1517250948124}, {"current_trial": 239, "trialdata": {"rt": -1000, "trial_type": "single-audio", "word": "lettuce", "stimulus": "/static/audio/wordpool/LETTUCE.wav", "conditions": [24, 1600, "a", 24000], "internal_node_id": "0.0-176.0", "trial": 6, "time_elapsed": 1102647, "serialpos": 14, "key_press": -1, "wordID": 813, "type": "PRES_AUD", "trial_index": 239}, "uniqueid": "MTK2438:3AMYWKA6YCTKXWZAD8HWVXQEI6CO6C", "dateTime": 1517250950897}, {"current_trial": 240, "trialdata": {"rt": -1000, "trial_type": "single-audio", "word": "cottage", "stimulus": "/static/audio/wordpool/COTTAGE.wav", "conditions": [24, 1600, "a", 24000], "internal_node_id": "0.0-177.0", "trial": 6, "time_elapsed": 1105146, "serialpos": 15, "key_press": -1, "wordID": 383, "type": "PRES_AUD", "trial_index": 240}, "uniqueid": "MTK2438:3AMYWKA6YCTKXWZAD8HWVXQEI6CO6C", "dateTime": 1517250953396}, {"current_trial": 241, "trialdata": {"rt": -1000, "trial_type": "single-audio", "word": "river", "stimulus": "/static/audio/wordpool/RIVER.wav", "conditions": [24, 1600, "a", 24000], "internal_node_id": "0.0-178.0", "trial": 6, "time_elapsed": 1107876, "serialpos": 16, "key_press": -1, "wordID": 1193, "type": "PRES_AUD", "trial_index": 241}, "uniqueid": "MTK2438:3AMYWKA6YCTKXWZAD8HWVXQEI6CO6C", "dateTime": 1517250956126}, {"current_trial": 242, "trialdata": {"rt": -1000, "trial_type": "single-audio", "word": "brook", "stimulus": "/static/audio/wordpool/BROOK.wav", "conditions": [24, 1600, "a", 24000], "internal_node_id": "0.0-179.0", "trial": 6, "time_elapsed": 1110307, "serialpos": 17, "key_press": -1, "wordID": 176, "type": "PRES_AUD", "trial_index": 242}, "uniqueid": "MTK2438:3AMYWKA6YCTKXWZAD8HWVXQEI6CO6C", "dateTime": 1517250958556}, {"current_trial": 243, "trialdata": {"rt": -1000, "trial_type": "single-audio", "word": "glove", "stimulus": "/static/audio/wordpool/GLOVE.wav", "conditions": [24, 1600, "a", 24000], "internal_node_id": "0.0-180.0", "trial": 6, "time_elapsed": 1112744, "serialpos": 18, "key_press": -1, "wordID": 641, "type": "PRES_AUD", "trial_index": 243}, "uniqueid": "MTK2438:3AMYWKA6YCTKXWZAD8HWVXQEI6CO6C", "dateTime": 1517250960993}, {"current_trial": 244, "trialdata": {"rt": -1000, "trial_type": "single-audio", "word": "judge", "stimulus": "/static/audio/wordpool/JUDGE.wav", "conditions": [24, 1600, "a", 24000], "internal_node_id": "0.0-181.0", "trial": 6, "time_elapsed": 1115286, "serialpos": 19, "key_press": -1, "wordID": 760, "type": "PRES_AUD", "trial_index": 244}, "uniqueid": "MTK2438:3AMYWKA6YCTKXWZAD8HWVXQEI6CO6C", "dateTime": 1517250963535}, {"current_trial": 245, "trialdata": {"rt": -1000, "trial_type": "single-audio", "word": "waiter", "stimulus": "/static/audio/wordpool/WAITER.wav", "conditions": [24, 1600, "a", 24000], "internal_node_id": "0.0-182.0", "trial": 6, "time_elapsed": 1117776, "serialpos": 20, "key_press": -1, "wordID": 1579, "type": "PRES_AUD", "trial_index": 245}, "uniqueid": "MTK2438:3AMYWKA6YCTKXWZAD8HWVXQEI6CO6C", "dateTime": 1517250966025}, {"current_trial": 246, "trialdata": {"rt": -1000, "trial_type": "single-audio", "word": "ulcer", "stimulus": "/static/audio/wordpool/ULCER.wav", "conditions": [24, 1600, "a", 24000], "internal_node_id": "0.0-183.0", "trial": 6, "time_elapsed": 1120520, "serialpos": 21, "key_press"