{"assignmentId": "3AMW0RGHOE9APHH3RPGSM8HQOH3NP5", "workerId": "MTK2565", "questiondata": {"avail_screen_height": 835, "color_depth": 24, "screen_width": 1536, "pixel_depth": 24, "avail_screen_width": 1536, "screen_height": 864}, "bonus": 0, "hitId": "3R4QIDVOJPJ0B0H6ZASWDPSTCEAEET", "counterbalance": 2357, "useragent": "Mozilla/5.0 (Windows NT 6.0; rv:52.0) Gecko/20100101 Firefox/52.0", "eventdata": [{"eventtype": "initialized", "interval": 0, "value": null, "timestamp": 1519068646235}, {"eventtype": "window_resize", "interval": 0, "value": [1522, 777], "timestamp": 1519068646235}, {"eventtype": "focus", "interval": 2761, "value": "off", "timestamp": 1519068648996}, {"eventtype": "focus", "interval": 4598, "value": "on", "timestamp": 1519068653594}, {"eventtype": "focus", "interval": 21515, "value": "off", "timestamp": 1519068675109}, {"eventtype": "focus", "interval": 1280, "value": "on", "timestamp": 1519068676389}, {"eventtype": "focus", "interval": 7214, "value": "off", "timestamp": 1519068683603}, {"eventtype": "focus", "interval": 2469, "value": "on", "timestamp": 1519068686072}, {"eventtype": "focus", "interval": 17499, "value": "off", "timestamp": 1519068703571}, {"eventtype": "focus", "interval": 2307, "value": "on", "timestamp": 1519068705878}, {"eventtype": "focus", "interval": 7773, "value": "off", "timestamp": 1519068713651}, {"eventtype": "focus", "interval": 5138, "value": "on", "timestamp": 1519068718789}, {"eventtype": "focus", "interval": 14038, "value": "off", "timestamp": 1519068732827}, {"eventtype": "focus", "interval": 2258, "value": "on", "timestamp": 1519068735085}, {"eventtype": "focus", "interval": 2106107, "value": "off", "timestamp": 1519070841192}, {"eventtype": "focus", "interval": 8084, "value": "on", "timestamp": 1519070849276}, {"eventtype": "focus", "interval": 83700, "value": "off", "timestamp": 1519070932976}, {"eventtype": "focus", "interval": 16, "value": "on", "timestamp": 1519070932992}, {"eventtype": "focus", "interval": 54, "value": "off", "timestamp": 1519070933046}, {"eventtype": "focus", "interval": 2047, "value": "on", "timestamp": 1519070935093}], "data": [{"current_trial": 0, "trialdata": {"rt": 2378, "trial_type": "text", "internal_node_id": "0.0-0.0", "time_elapsed": 2382, "key_press": 32, "type": "INSTRUCTIONS", "trial_index": 0}, "uniqueid": "MTK2565:3AMW0RGHOE9APHH3RPGSM8HQOH3NP5", "dateTime": 1519068677519}, {"current_trial": 1, "trialdata": {"rt": 18555, "trial_type": "text", "internal_node_id": "0.0-1.0", "time_elapsed": 20943, "key_press": 32, "type": "INSTRUCTIONS", "trial_index": 1}, "uniqueid": "MTK2565:3AMW0RGHOE9APHH3RPGSM8HQOH3NP5", "dateTime": 1519068696081}, {"current_trial": 2, "trialdata": {"rt": [23603], "trial_type": "audio-test", "responses": ["ocean"], "internal_node_id": "0.0-2.0", "time_elapsed": 44729, "type": "AUDIO_TEST", "trial_index": 2}, "uniqueid": "MTK2565:3AMW0RGHOE9APHH3RPGSM8HQOH3NP5", "dateTime": 1519068719865}, {"current_trial": 3, "trialdata": {"rt": [8388], "trial_type": "audio-test", "responses": ["crystal"], "internal_node_id": "0.0-3.0", "time_elapsed": 53159, "type": "AUDIO_TEST", "trial_index": 3}, "uniqueid": "MTK2565:3AMW0RGHOE9APHH3RPGSM8HQOH3NP5", "dateTime": 1519068728295}, {"current_trial": 4, "trialdata": {"rt": [10624], "trial_type": "audio-test", "responses": ["spice"], "internal_node_id": "0.0-4.0", "time_elapsed": 63812, "type": "AUDIO_TEST", "trial_index": 4}, "uniqueid": "MTK2565:3AMW0RGHOE9APHH3RPGSM8HQOH3NP5", "dateTime": 1519068738948}, {"current_trial": 5, "trialdata": {"rt": 16013, "trial_type": "survey-text", "responses": "{\"Q0\":\"11pm\",\"Q1\":\"6am\",\"Q2\":\"5\"}", "internal_node_id": "0.0-5.0", "time_elapsed": 80582, "type": "SLEEP_SURVEY", "trial_index": 5}, "uniqueid": "MTK2565:3AMW0RGHOE9APHH3RPGSM8HQOH3NP5", "dateTime": 1519068755718}, {"current_trial": 6, "trialdata": {"rt": 33805, "trial_type": "text", "internal_node_id": "0.0-6.0", "time_elapsed": 115392, "key_press": 32, "type": "INSTRUCTIONS", "trial_index": 6}, "uniqueid": "MTK2565:3AMW0RGHOE9APHH3RPGSM8HQOH3NP5", "dateTime": 1519068790527}, {"current_trial": 7, "trialdata": {"rt": 14503, "trial_type": "text", "internal_node_id": "0.0-7.0", "time_elapsed": 130401, "key_press": 32, "type": "INSTRUCTIONS", "trial_index": 7}, "uniqueid": "MTK2565:3AMW0RGHOE9APHH3RPGSM8HQOH3NP5", "dateTime": 1519068805539}, {"current_trial": 8, "trialdata": {"rt": 8499, "trial_type": "text", "internal_node_id": "0.0-8.0", "time_elapsed": 139406, "key_press": 32, "type": "INSTRUCTIONS", "trial_index": 8}, "uniqueid": "MTK2565:3AMW0RGHOE9APHH3RPGSM8HQOH3NP5", "dateTime": 1519068814541}, {"current_trial": 9, "trialdata": {"rt": [3887, 6653, 8973, 12797, 15868], "trial_type": "math-distractor", "key_times": [2269, 2556, 3887, 5581, 5789, 6653, 8141, 8973, 11404, 11724, 12797, 15036, 15868, 17692, 17916], "responses": ["11", "11", "8", "16", "7"], "num2": [8, 7, 6, 7, 2, 1], "num3": [1, 1, 1, 5, 3, 4], "conditions": [18, 1200, "a", 18000], "internal_node_id": "0.0-9.0", "key_presses": [97, 97, 13, 97, 97, 13, 104, 13, 97, 102, 13, 103, 13, 97, 98], "trial": 0, "time_elapsed": 158419, "type": "DISTRACTOR", "trial_index": 9, "num1": [2, 3, 1, 4, 2, 7]}, "uniqueid": "MTK2565:3AMW0RGHOE9APHH3RPGSM8HQOH3NP5", "dateTime": 1519068833554}, {"current_trial": 10, "trialdata": {"rt": -1, "trial_type": "single-stim", "stimulus": "<p id=\"stim\">10</p>", "internal_node_id": "0.0-10.0-0.0", "time_elapsed": 161423, "key_press": -1, "trial_index": 10}, "uniqueid": "MTK2565:3AMW0RGHOE9APHH3RPGSM8HQOH3NP5", "dateTime": 1519068836559}, {"current_trial": 11, "trialdata": {"rt": -1, "trial_type": "single-stim", "stimulus": "<p id=\"stim\">9</p>", "internal_node_id": "0.0-10.0-1.0", "time_elapsed": 162426, "key_press": -1, "trial_index": 11}, "uniqueid": "MTK2565:3AMW0RGHOE9APHH3RPGSM8HQOH3NP5", "dateTime": 1519068837561}, {"current_trial": 12, "trialdata": {"rt": -1, "trial_type": "single-stim", "stimulus": "<p id=\"stim\">8</p>", "internal_node_id": "0.0-10.0-2.0", "time_elapsed": 163427, "key_press": -1, "trial_index": 12}, "uniqueid": "MTK2565:3AMW0RGHOE9APHH3RPGSM8HQOH3NP5", "dateTime": 1519068838563}, {"current_trial": 13, "trialdata": {"rt": -1, "trial_type": "single-stim", "stimulus": "<p id=\"stim\">7</p>", "internal_node_id": "0.0-10.0-3.0", "time_elapsed": 164431, "key_press": -1, "trial_index": 13}, "uniqueid": "MTK2565:3AMW0RGHOE9APHH3RPGSM8HQOH3NP5", "dateTime": 1519068839566}, {"current_trial": 14, "trialdata": {"rt": -1, "trial_type": "single-stim", "stimulus": "<p id=\"stim\">6</p>", "internal_node_id": "0.0-10.0-4.0", "time_elapsed": 165433, "key_press": -1, "trial_index": 14}, "uniqueid": "MTK2565:3AMW0RGHOE9APHH3RPGSM8HQOH3NP5", "dateTime": 1519068840569}, {"current_trial": 15, "trialdata": {"rt": -1, "trial_type": "single-stim", "stimulus": "<p id=\"stim\">5</p>", "internal_node_id": "0.0-10.0-5.0", "time_elapsed": 166435, "key_press": -1, "trial_index": 15}, "uniqueid": "MTK2565:3AMW0RGHOE9APHH3RPGSM8HQOH3NP5", "dateTime": 1519068841570}, {"current_trial": 16, "trialdata": {"rt": -1, "trial_type": "single-stim", "stimulus": "<p id=\"stim\">4</p>", "internal_node_id": "0.0-10.0-6.0", "time_elapsed": 167437, "key_press": -1, "trial_index": 16}, "uniqueid": "MTK2565:3AMW0RGHOE9APHH3RPGSM8HQOH3NP5", "dateTime": 1519068842572}, {"current_trial": 17, "trialdata": {"rt": -1, "trial_type": "single-stim", "stimulus": "<p id=\"stim\">3</p>", "internal_node_id": "0.0-10.0-7.0", "time_elapsed": 168441, "key_press": -1, "trial_index": 17}, "uniqueid": "MTK2565:3AMW0RGHOE9APHH3RPGSM8HQOH3NP5", "dateTime": 1519068843579}, {"current_trial": 18, "trialdata": {"rt": -1, "trial_type": "single-stim", "stimulus": "<p id=\"stim\">2</p>", "internal_node_id": "0.0-10.0-8.0", "time_elapsed": 169447, "key_press": -1, "trial_index": 18}, "uniqueid": "MTK2565:3AMW0RGHOE9APHH3RPGSM8HQOH3NP5", "dateTime": 1519068844582}, {"current_trial": 19, "trialdata": {"rt": -1, "trial_type": "single-stim", "stimulus": "<p id=\"stim\">1</p>", "internal_node_id": "0.0-10.0-9.0", "time_elapsed": 170449, "key_press": -1, "trial_index": 19}, "uniqueid": "MTK2565:3AMW0RGHOE9APHH3RPGSM8HQOH3NP5", "dateTime": 1519068845584}, {"current_trial": 20, "trialdata": {"rt": -1, "trial_type": "single-stim", "stimulus": "<p id=\"stim\">+</p>", "internal_node_id": "0.0-11.0-0.0", "time_elapsed": 171951, "key_press": -1, "type": "FIXATION", "trial_index": 20}, "uniqueid": "MTK2565:3AMW0RGHOE9APHH3RPGSM8HQOH3NP5", "dateTime": 1519068847086}, {"current_trial": 21, "trialdata": {"rt": -1000, "trial_type": "single-audio", "word": "child", "stimulus": "/static/audio/wordpool/CHILD.wav", "conditions": [18, 1200, "a", 18000], "internal_node_id": "0.0-12.0", "trial": 0, "time_elapsed": 174266, "serialpos": 0, "key_press": -1, "wordID": 298, "type": "PRES_AUD", "trial_index": 21}, "uniqueid": "MTK2565:3AMW0RGHOE9APHH3RPGSM8HQOH3NP5", "dateTime": 1519068849402}, {"current_trial": 22, "trialdata": {"rt": -1000, "trial_type": "single-audio", "word": "rod", "stimulus": "/static/audio/wordpool/ROD.wav", "conditions": [18, 1200, "a", 18000], "internal_node_id": "0.0-13.0", "trial": 0, "time_elapsed": 176638, "serialpos": 1, "key_press": -1, "wordID": 1202, "type": "PRES_AUD", "trial_index": 22}, "uniqueid": "MTK2565:3AMW0RGHOE9APHH3RPGSM8HQOH3NP5", "dateTime": 1519068851774}, {"current_trial": 23, "trialdata": {"rt": -1000, "trial_type": "single-audio", "word": "coffee", "stimulus": "/static/audio/wordpool/COFFEE.wav", "conditions": [18, 1200, "a", 18000], "internal_node_id": "0.0-14.0", "trial": 0, "time_elapsed": 178669, "serialpos": 2, "key_press": -1, "wordID": 340, "type": "PRES_AUD", "trial_index": 23}, "uniqueid": "MTK2565:3AMW0RGHOE9APHH3RPGSM8HQOH3NP5", "dateTime": 1519068853804}, {"current_trial": 24, "trialdata": {"rt": -1000, "trial_type": "single-audio", "word": "rocket", "stimulus": "/static/audio/wordpool/ROCKET.wav", "conditions": [18, 1200, "a", 18000], "internal_node_id": "0.0-15.0", "trial": 0, "time_elapsed": 180764, "serialpos": 3, "key_press": -1, "wordID": 1201, "type": "PRES_AUD", "trial_index": 24}, "uniqueid": "MTK2565:3AMW0RGHOE9APHH3RPGSM8HQOH3NP5", "dateTime": 1519068855899}, {"current_trial": 25, "trialdata": {"rt": -1000, "trial_type": "single-audio", "word": "maple", "stimulus": "/static/audio/wordpool/MAPLE.wav", "conditions": [18, 1200, "a", 18000], "internal_node_id": "0.0-16.0", "trial": 0, "time_elapsed": 182969, "serialpos": 4, "key_press": -1, "wordID": 865, "type": "PRES_AUD", "trial_index": 25}, "uniqueid": "MTK2565:3AMW0RGHOE9APHH3RPGSM8HQOH3NP5", "dateTime": 1519068858105}, {"current_trial": 26, "trialdata": {"rt": -1000, "trial_type": "single-audio", "word": "iceberg", "stimulus": "/static/audio/wordpool/ICEBERG.wav", "conditions": [18, 1200, "a", 18000], "internal_node_id": "0.0-17.0", "trial": 0, "time_elapsed": 185103, "serialpos": 5, "key_press": -1, "wordID": 730, "type": "PRES_AUD", "trial_index": 26}, "uniqueid": "MTK2565:3AMW0RGHOE9APHH3RPGSM8HQOH3NP5", "dateTime": 1519068860239}, {"current_trial": 27, "trialdata": {"rt": -1000, "trial_type": "single-audio", "word": "rifle", "stimulus": "/static/audio/wordpool/RIFLE.wav", "conditions": [18, 1200, "a", 18000], "internal_node_id": "0.0-18.0", "trial": 0, "time_elapsed": 187206, "serialpos": 6, "key_press": -1, "wordID": 1191, "type": "PRES_AUD", "trial_index": 27}, "uniqueid": "MTK2565:3AMW0RGHOE9APHH3RPGSM8HQOH3NP5", "dateTime": 1519068862342}, {"current_trial": 28, "trialdata": {"rt": -1000, "trial_type": "single-audio", "word": "woman", "stimulus": "/static/audio/wordpool/WOMAN.wav", "conditions": [18, 1200, "a", 18000], "internal_node_id": "0.0-19.0", "trial": 0, "time_elapsed": 189450, "serialpos": 7, "key_press": -1, "wordID": 1619, "type": "PRES_AUD", "trial_index": 28}, "uniqueid": "MTK2565:3AMW0RGHOE9APHH3RPGSM8HQOH3NP5", "dateTime": 1519068864586}, {"current_trial": 29, "trialdata": {"rt": -1000, "trial_type": "single-audio", "word": "backbone", "stimulus": "/static/audio/wordpool/BACKBONE.wav", "conditions": [18, 1200, "a", 18000], "internal_node_id": "0.0-20.0", "trial": 0, "time_elapsed": 191562, "serialpos": 8, "key_press": -1, "wordID": 65, "type": "PRES_AUD", "trial_index": 29}, "uniqueid": "MTK2565:3AMW0RGHOE9APHH3RPGSM8HQOH3NP5", "dateTime": 1519068866698}, {"current_trial": 30, "trialdata": {"rt": -1000, "trial_type": "single-audio", "word": "banjo", "stimulus": "/static/audio/wordpool/BANJO.wav", "conditions": [18, 1200, "a", 18000], "internal_node_id": "0.0-21.0", "trial": 0, "time_elapsed": 193645, "serialpos": 9, "key_press": -1, "wordID": 81, "type": "PRES_AUD", "trial_index": 30}, "uniqueid": "MTK2565:3AMW0RGHOE9APHH3RPGSM8HQOH3NP5", "dateTime": 1519068868780}, {"current_trial": 31, "trialdata": {"rt": -1000, "trial_type": "single-audio", "word": "bunny", "stimulus": "/static/audio/wordpool/BUNNY.wav", "conditions": [18, 1200, "a", 18000], "internal_node_id": "0.0-22.0", "trial": 0, "time_elapsed": 195761, "serialpos": 10, "key_press": -1, "wordID": 197, "type": "PRES_AUD", "trial_index": 31}, "uniqueid": "MTK2565:3AMW0RGHOE9APHH3RPGSM8HQOH3NP5", "dateTime": 1519068870896}, {"current_trial": 32, "trialdata": {"rt": -1000, "trial_type": "single-audio", "word": "college", "stimulus": "/static/audio/wordpool/COLLEGE.wav", "conditions": [18, 1200, "a", 18000], "internal_node_id": "0.0-23.0", "trial": 0, "time_elapsed": 198163, "serialpos": 11, "key_press": -1, "wordID": 345, "type": "PRES_AUD", "trial_index": 32}, "uniqueid": "MTK2565:3AMW0RGHOE9APHH3RPGSM8HQOH3NP5", "dateTime": 1519068873298}, {"current_trial": 33, "trialdata": {"rt": -1000, "trial_type": "single-audio", "word": "fleet", "stimulus": "/static/audio/wordpool/FLEET.wav", "conditions": [18, 1200, "a", 18000], "internal_node_id": "0.0-24.0", "trial": 0, "time_elapsed": 200541, "serialpos": 12, "key_press": -1, "wordID": 577, "type": "PRES_AUD", "trial_index": 33}, "uniqueid": "MTK2565:3AMW0RGHOE9APHH3RPGSM8HQOH3NP5", "dateTime": 1519068875677}, {"current_trial": 34, "trialdata": {"rt": -1000, "trial_type": "single-audio", "word": "scissors", "stimulus": "/static/audio/wordpool/SCISSORS.wav", "conditions": [18, 1200, "a", 18000], "internal_node_id": "0.0-25.0", "trial": 0, "time_elapsed": 202563, "serialpos": 13, "key_press": -1, "wordID": 1249, "type": "PRES_AUD", "trial_index": 34}, "uniqueid": "MTK2565:3AMW0RGHOE9APHH3RPGSM8HQOH3NP5", "dateTime": 1519068877700}, {"current_trial": 35, "trialdata": {"rt": -1000, "trial_type": "single-audio", "word": "county", "stimulus": "/static/audio/wordpool/COUNTY.wav", "conditions": [18, 1200, "a", 18000], "internal_node_id": "0.0-26.0", "trial": 0, "time_elapsed": 204819, "serialpos": 14, "key_press": -1, "wordID": 388, "type": "PRES_AUD", "trial_index": 35}, "uniqueid": "MTK2565:3AMW0RGHOE9APHH3RPGSM8HQOH3NP5", "dateTime": 1519068879954}, {"current_trial": 36, "trialdata": {"rt": -1000, "trial_type": "single-audio", "word": "daisy", "stimulus": "/static/audio/wordpool/DAISY.wav", "conditions": [18, 1200, "a", 18000], "internal_node_id": "0.0-27.0", "trial": 0, "time_elapsed": 206887, "serialpos": 15, "key_press": -1, "wordID": 434, "type": "PRES_AUD", "trial_index": 36}, "uniqueid": "MTK2565:3AMW0RGHOE9APHH3RPGSM8HQOH3NP5", "dateTime": 1519068882022}, {"current_trial": 37, "trialdata": {"rt": -1000, "trial_type": "single-audio", "word": "garlic", "stimulus": "/static/audio/wordpool/GARLIC.wav", "conditions": [18, 1200, "a", 18000], "internal_node_id": "0.0-28.0", "trial": 0, "time_elapsed": 209045, "serialpos": 16, "key_press": -1, "wordID": 623, "type": "PRES_AUD", "trial_index": 37}, "uniqueid": "MTK2565:3AMW0RGHOE9APHH3RPGSM8HQOH3NP5", "dateTime": 1519068884182}, {"current_trial": 38, "trialdata": {"rt": -1000, "trial_type": "single-audio", "word": "cashier", "stimulus": "/static/audio/wordpool/CASHIER.wav", "conditions": [18, 1200, "a", 18000], "internal_node_id": "0.0-29.0", "trial": 0, "time_elapsed": 211209, "serialpos": 17, "key_press": -1, "wordID": 253, "type": "PRES_AUD", "trial_index": 38}, "uniqueid": "MTK2565:3AMW0RGHOE9APHH3RPGSM8HQOH3NP5", "dateTime": 1519068886345}, {"current_trial": 39, "trialdata": {"rt": -1, "trial_type": "single-stim", "stimulus": "", "internal_node_id": "0.0-30.0-0.0", "time_elapsed": 212564, "key_press": -1, "type": "PRE_RECALL_DELAY", "trial_index": 39}, "uniqueid": "MTK2565:3AMW0RGHOE9APHH3RPGSM8HQOH3NP5", "dateTime": 1519068887699}, {"current_trial": 40, "trialdata": {"rt": -1000, "trial_type": "single-audio", "stimulus": "/static/audio/400Hz.wav", "internal_node_id": "0.0-31.0", "time_elapsed": 213065, "key_press": -1, "type": "PRE_RECALL_ALERT", "trial_index": 40}, "uniqueid": "MTK2565:3AMW0RGHOE9APHH3RPGSM8HQOH3NP5", "dateTime": 1519068888200}, {"current_trial": 41, "trialdata": {"rt": [2783, 4399, 7502, 11182, 15454, 21886, 38254], "recwords": ["child", "rod", "garlic", "cashier", "county", "", "garlic"], "key_times": [1472, 1758, 1951, 2190, 2478, 2783, 3534, 3774, 3998, 4399, 5633, 5934, 6206, 6414, 6654, 6974, 7502, 7966, 9183, 9438, 9614, 9902, 10126, 10399, 11182, 12319, 12510, 12766, 13022, 13246, 13470, 15454, 21886, 24110, 24478, 24670, 26510, 36190, 36495, 36766, 37038, 37294, 37487, 38254], "trial_type": "free-recall", "conditions": [18, 1200, "a", 18000], "internal_node_id": "0.0-32.0-0.0", "key_presses": [67, 72, 73, 76, 68, 13, 82, 79, 68, 13, 71, 65, 82, 76, 73, 67, 13, 67, 65, 83, 72, 73, 69, 82, 13, 67, 79, 85, 78, 84, 89, 13, 13, 40, 40, 40, 34, 71, 65, 82, 76, 73, 67, 13], "trial": 0, "time_elapsed": 273072, "type": "FREE_RECALL", "trial_index": 41}, "uniqueid": "MTK2565:3AMW0RGHOE9APHH3RPGSM8HQOH3NP5", "dateTime": 1519068948216}, {"current_trial": 42, "trialdata": {"rt": 4835, "trial_type": "text", "internal_node_id": "0.0-33.0", "time_elapsed": 279918, "key_press": 32, "type": "INSTRUCTIONS", "trial_index": 42}, "uniqueid": "MTK2565:3AMW0RGHOE9APHH3RPGSM8HQOH3NP5", "dateTime": 1519068955053}, {"current_trial": 43, "trialdata": {"rt": [4153, 6057, 9561, 11881, 14442, 16073], "trial_type": "math-distractor", "key_times": [3353, 3513, 4153, 5545, 5673, 6057, 8585, 8905, 9561, 11433, 11593, 11881, 13897, 14106, 14442, 15769, 16073, 17593, 17849], "responses": ["11", "11", "18", "11", "16", "5"], "num2": [8, 6, 7, 1, 9, 2, 5], "num3": [2, 1, 9, 1, 3, 2, 9], "conditions": [18, 1200, "a", 18000], "internal_node_id": "0.0-34.0", "key_presses": [97, 97, 13, 97, 97, 13, 97, 104, 13, 97, 97, 13, 97, 102, 13, 101, 13, 97, 103], "trial": 1, "time_elapsed": 299925, "type": "DISTRACTOR", "trial_index": 43, "num1": [1, 4, 2, 9, 4, 1, 3]}, "uniqueid": "MTK2565:3AMW0RGHOE9APHH3RPGSM8HQOH3NP5", "dateTime": 1519068975060}, {"current_trial": 44, "trialdata": {"rt": -1, "trial_type": "single-stim", "stimulus": "<p id=\"stim\">10</p>", "internal_node_id": "0.0-35.0-0.0", "time_elapsed": 302926, "key_press": -1, "trial_index": 44}, "uniqueid": "MTK2565:3AMW0RGHOE9APHH3RPGSM8HQOH3NP5", "dateTime": 1519068978061}, {"current_trial": 45, "trialdata": {"rt": -1, "trial_type": "single-stim", "stimulus": "<p id=\"stim\">9</p>", "internal_node_id": "0.0-35.0-1.0", "time_elapsed": 303927, "key_press": -1, "trial_index": 45}, "uniqueid": "MTK2565:3AMW0RGHOE9APHH3RPGSM8HQOH3NP5", "dateTime": 1519068979063}, {"current_trial": 46, "trialdata": {"rt": -1, "trial_type": "single-stim", "stimulus": "<p id=\"stim\">8</p>", "internal_node_id": "0.0-35.0-2.0", "time_elapsed": 304928, "key_press": -1, "trial_index": 46}, "uniqueid": "MTK2565:3AMW0RGHOE9APHH3RPGSM8HQOH3NP5", "dateTime": 1519068980064}, {"current_trial": 47, "trialdata": {"rt": -1, "trial_type": "single-stim", "stimulus": "<p id=\"stim\">7</p>", "internal_node_id": "0.0-35.0-3.0", "time_elapsed": 305930, "key_press": -1, "trial_index": 47}, "uniqueid": "MTK2565:3AMW0RGHOE9APHH3RPGSM8HQOH3NP5", "dateTime": 1519068981065}, {"current_trial": 48, "trialdata": {"rt": -1, "trial_type": "single-stim", "stimulus": "<p id=\"stim\">6</p>", "internal_node_id": "0.0-35.0-4.0", "time_elapsed": 306930, "key_press": -1, "trial_index": 48}, "uniqueid": "MTK2565:3AMW0RGHOE9APHH3RPGSM8HQOH3NP5", "dateTime": 1519068982066}, {"current_trial": 49, "trialdata": {"rt": -1, "trial_type": "single-stim", "stimulus": "<p id=\"stim\">5</p>", "internal_node_id": "0.0-35.0-5.0", "time_elapsed": 307932, "key_press": -1, "trial_index": 49}, "uniqueid": "MTK2565:3AMW0RGHOE9APHH3RPGSM8HQOH3NP5", "dateTime": 1519068983067}, {"current_trial": 50, "trialdata": {"rt": -1, "trial_type": "single-stim", "stimulus": "<p id=\"stim\">4</p>", "internal_node_id": "0.0-35.0-6.0", "time_elapsed": 308935, "key_press": -1, "trial_index": 50}, "uniqueid": "MTK2565:3AMW0RGHOE9APHH3RPGSM8HQOH3NP5", "dateTime": 1519068984070}, {"current_trial": 51, "trialdata": {"rt": -1, "trial_type": "single-stim", "stimulus": "<p id=\"stim\">3</p>", "internal_node_id": "0.0-35.0-7.0", "time_elapsed": 309936, "key_press": -1, "trial_index": 51}, "uniqueid": "MTK2565:3AMW0RGHOE9APHH3RPGSM8HQOH3NP5", "dateTime": 1519068985071}, {"current_trial": 52, "trialdata": {"rt": -1, "trial_type": "single-stim", "stimulus": "<p id=\"stim\">2</p>", "internal_node_id": "0.0-35.0-8.0", "time_elapsed": 310938, "key_press": -1, "trial_index": 52}, "uniqueid": "MTK2565:3AMW0RGHOE9APHH3RPGSM8HQOH3NP5", "dateTime": 1519068986073}, {"current_trial": 53, "trialdata": {"rt": -1, "trial_type": "single-stim", "stimulus": "<p id=\"stim\">1</p>", "internal_node_id": "0.0-35.0-9.0", "time_elapsed": 311940, "key_press": -1, "trial_index": 53}, "uniqueid": "MTK2565:3AMW0RGHOE9APHH3RPGSM8HQOH3NP5", "dateTime": 1519068987075}, {"current_trial": 54, "trialdata": {"rt": -1, "trial_type": "single-stim", "stimulus": "<p id=\"stim\">+</p>", "internal_node_id": "0.0-36.0-0.0", "time_elapsed": 313441, "key_press": -1, "type": "FIXATION", "trial_index": 54}, "uniqueid": "MTK2565:3AMW0RGHOE9APHH3RPGSM8HQOH3NP5", "dateTime": 1519068988576}, {"current_trial": 55, "trialdata": {"rt": -1000, "trial_type": "single-audio", "word": "typist", "stimulus": "/static/audio/wordpool/TYPIST.wav", "conditions": [18, 1200, "a", 18000], "internal_node_id": "0.0-37.0", "trial": 1, "time_elapsed": 315523, "serialpos": 0, "key_press": -1, "wordID": 1531, "type": "PRES_AUD", "trial_index": 55}, "uniqueid": "MTK2565:3AMW0RGHOE9APHH3RPGSM8HQOH3NP5", "dateTime": 1519068990658}, {"current_trial": 56, "trialdata": {"rt": -1000, "trial_type": "single-audio", "word": "burglar", "stimulus": "/static/audio/wordpool/BURGLAR.wav", "conditions": [18, 1200, "a", 18000], "internal_node_id": "0.0-38.0", "trial": 1, "time_elapsed": 317642, "serialpos": 1, "key_press": -1, "wordID": 199, "type": "PRES_AUD", "trial_index": 56}, "uniqueid": "MTK2565:3AMW0RGHOE9APHH3RPGSM8HQOH3NP5", "dateTime": 1519068992777}, {"current_trial": 57, "trialdata": {"rt": -1000, "trial_type": "single-audio", "word": "garbage", "stimulus": "/static/audio/wordpool/GARBAGE.wav", "conditions": [18, 1200, "a", 18000], "internal_node_id": "0.0-39.0", "trial": 1, "time_elapsed": 320020, "serialpos": 2, "key_press": -1, "wordID": 621, "type": "PRES_AUD", "trial_index": 57}, "uniqueid": "MTK2565:3AMW0RGHOE9APHH3RPGSM8HQOH3NP5", "dateTime": 1519068995156}, {"current_trial": 58, "trialdata": {"rt": -1000, "trial_type": "single-audio", "word": "stream", "stimulus": "/static/audio/wordpool/STREAM.wav", "conditions": [18, 1200, "a", 18000], "internal_node_id": "0.0-40.0", "trial": 1, "time_elapsed": 322068, "serialpos": 3, "key_press": -1, "wordID": 1391, "type": "PRES_AUD", "trial_index": 58}, "uniqueid": "MTK2565:3AMW0RGHOE9APHH3RPGSM8HQOH3NP5", "dateTime": 1519068997203}, {"current_trial": 59, "trialdata": {"rt": -1000, "trial_type": "single-audio", "word": "spool", "stimulus": "/static/audio/wordpool/SPOOL.wav", "conditions": [18, 1200, "a", 18000], "internal_node_id": "0.0-41.0", "trial": 1, "time_elapsed": 324261, "serialpos": 4, "key_press": -1, "wordID": 1355, "type": "PRES_AUD", "trial_index": 59}, "uniqueid": "MTK2565:3AMW0RGHOE9APHH3RPGSM8HQOH3NP5", "dateTime": 1519068999397}, {"current_trial": 60, "trialdata": {"rt": -1000, "trial_type": "single-audio", "word": "brick", "stimulus": "/static/audio/wordpool/BRICK.wav", "conditions": [18, 1200, "a", 18000], "internal_node_id": "0.0-42.0", "trial": 1, "time_elapsed": 326381, "serialpos": 5, "key_press": -1, "wordID": 171, "type": "PRES_AUD", "trial_index": 60}, "uniqueid": "MTK2565:3AMW0RGHOE9APHH3RPGSM8HQOH3NP5", "dateTime": 1519069001517}, {"current_trial": 61, "trialdata": {"rt": -1000, "trial_type": "single-audio", "word": "jelly", "stimulus": "/static/audio/wordpool/JELLY.wav", "conditions": [18, 1200, "a", 18000], "internal_node_id": "0.0-43.0", "trial": 1, "time_elapsed": 328385, "serialpos": 6, "key_press": -1, "wordID": 754, "type": "PRES_AUD", "trial_index": 61}, "uniqueid": "MTK2565:3AMW0RGHOE9APHH3RPGSM8HQOH3NP5", "dateTime": 1519069003521}, {"current_trial": 62, "trialdata": {"rt": -1000, "trial_type": "single-audio", "word": "body", "stimulus": "/static/audio/wordpool/BODY.wav", "conditions": [18, 1200, "a", 18000], "internal_node_id": "0.0-44.0", "trial": 1, "time_elapsed": 330400, "serialpos": 7, "key_press": -1, "wordID": 144, "type": "PRES_AUD", "trial_index": 62}, "uniqueid": "MTK2565:3AMW0RGHOE9APHH3RPGSM8HQOH3NP5", "dateTime": 1519069005535}, {"current_trial": 63, "trialdata": {"rt": -1000, "trial_type": "single-audio", "word": "husband", "stimulus": "/static/audio/wordpool/HUSBAND.wav", "conditions": [18, 1200, "a", 18000], "internal_node_id": "0.0-45.0", "trial": 1, "time_elapsed": 332472, "serialpos": 8, "key_press": -1, "wordID": 727, "type": "PRES_AUD", "trial_index": 63}, "uniqueid": "MTK2565:3AMW0RGHOE9APHH3RPGSM8HQOH3NP5", "dateTime": 1519069007608}, {"current_trial": 64, "trialdata": {"rt": -1000, "trial_type": "single-audio", "word": "nightgown", "stimulus": "/static/audio/wordpool/NIGHTGOWN.wav", "conditions": [18, 1200, "a", 18000], "internal_node_id": "0.0-46.0", "trial": 1, "time_elapsed": 334843, "serialpos": 9, "key_press": -1, "wordID": 952, "type": "PRES_AUD", "trial_index": 64}, "uniqueid": "MTK2565:3AMW0RGHOE9APHH3RPGSM8HQOH3NP5", "dateTime": 1519069009979}, {"current_trial": 65, "trialdata": {"rt": -1000, "trial_type": "single-audio", "word": "brook", "stimulus": "/static/audio/wordpool/BROOK.wav", "conditions": [18, 1200, "a", 18000], "internal_node_id": "0.0-47.0", "trial": 1, "time_elapsed": 337077, "serialpos": 10, "key_press": -1, "wordID": 176, "type": "PRES_AUD", "trial_index": 65}, "uniqueid": "MTK2565:3AMW0RGHOE9APHH3RPGSM8HQOH3NP5", "dateTime": 1519069012212}, {"current_trial": 66, "trialdata": {"rt": -1000, "trial_type": "single-audio", "word": "beast", "stimulus": "/static/audio/wordpool/BEAST.wav", "conditions": [18, 1200, "a", 18000], "internal_node_id": "0.0-48.0", "trial": 1, "time_elapsed": 339353, "serialpos": 11, "key_press": -1, "wordID": 107, "type": "PRES_AUD", "trial_index": 66}, "uniqueid": "MTK2565:3AMW0RGHOE9APHH3RPGSM8HQOH3NP5", "dateTime": 1519069014488}, {"current_trial": 67, "trialdata": {"rt": -1000, "trial_type": "single-audio", "word": "tribe", "stimulus": "/static/audio/wordpool/TRIBE.wav", "conditions": [18, 1200, "a", 18000], "internal_node_id": "0.0-49.0", "trial": 1, "time_elapsed": 341432, "serialpos": 12, "key_press": -1, "wordID": 1504, "type": "PRES_AUD", "trial_index": 67}, "uniqueid": "MTK2565:3AMW0RGHOE9APHH3RPGSM8HQOH3NP5", "dateTime": 1519069016567}, {"current_trial": 68, "trialdata": {"rt": -1000, "trial_type": "single-audio", "word": "dashboard", "stimulus": "/static/audio/wordpool/DASHBOARD.wav", "conditions": [18, 1200, "a", 18000], "internal_node_id": "0.0-50.0", "trial": 1, "time_elapsed": 343819, "serialpos": 13, "key_press": -1, "wordID": 440, "type": "PRES_AUD", "trial_index": 68}, "uniqueid": "MTK2565:3AMW0RGHOE9APHH3RPGSM8HQOH3NP5", "dateTime": 1519069018955}, {"current_trial": 69, "trialdata": {"rt": -1000, "trial_type": "single-audio", "word": "poet", "stimulus": "/static/audio/wordpool/POET.wav", "conditions": [18, 1200, "a", 18000], "internal_node_id": "0.0-51.0", "trial": 1, "time_elapsed": 346011, "serialpos": 14, "key_press": -1, "wordID": 1094, "type": "PRES_AUD", "trial_index": 69}, "uniqueid": "MTK2565:3AMW0RGHOE9APHH3RPGSM8HQOH3NP5", "dateTime": 1519069021146}, {"current_trial": 70, "trialdata": {"rt": -1000, "trial_type": "single-audio", "word": "velvet", "stimulus": "/static/audio/wordpool/VELVET.wav", "conditions": [18, 1200, "a", 18000], "internal_node_id": "0.0-52.0", "trial": 1, "time_elapsed": 348352, "serialpos": 15, "key_press": -1, "wordID": 1554, "type": "PRES_AUD", "trial_index": 70}, "uniqueid": "MTK2565:3AMW0RGHOE9APHH3RPGSM8HQOH3NP5", "dateTime": 1519069023487}, {"current_trial": 71, "trialdata": {"rt": -1000, "trial_type": "single-audio", "word": "balloon", "stimulus": "/static/audio/wordpool/BALLOON.wav", "conditions": [18, 1200, "a", 18000], "internal_node_id": "0.0-53.0", "trial": 1, "time_elapsed": 350681, "serialpos": 16, "key_press": -1, "wordID": 74, "type": "PRES_AUD", "trial_index": 71}, "uniqueid": "MTK2565:3AMW0RGHOE9APHH3RPGSM8HQOH3NP5", "dateTime": 1519069025817}, {"current_trial": 72, "trialdata": {"rt": -1000, "trial_type": "single-audio", "word": "soda", "stimulus": "/static/audio/wordpool/SODA.wav", "conditions": [18, 1200, "a", 18000], "internal_node_id": "0.0-54.0", "trial": 1, "time_elapsed": 352777, "serialpos": 17, "key_press": -1, "wordID": 1340, "type": "PRES_AUD", "trial_index": 72}, "uniqueid": "MTK2565:3AMW0RGHOE9APHH3RPGSM8HQOH3NP5", "dateTime": 1519069027912}, {"current_trial": 73, "trialdata": {"rt": -1, "trial_type": "single-stim", "stimulus": "", "internal_node_id": "0.0-55.0-0.0", "time_elapsed": 354150, "key_press": -1, "type": "PRE_RECALL_DELAY", "trial_index": 73}, "uniqueid": "MTK2565:3AMW0RGHOE9APHH3RPGSM8HQOH3NP5", "dateTime": 1519069029285}, {"current_trial": 74, "trialdata": {"rt": -1000, "trial_type": "single-audio", "stimulus": "/static/audio/400Hz.wav", "internal_node_id": "0.0-56.0", "time_elapsed": 354651, "key_press": -1, "type": "PRE_RECALL_ALERT", "trial_index": 74}, "uniqueid": "MTK2565:3AMW0RGHOE9APHH3RPGSM8HQOH3NP5", "dateTime": 1519069029786}, {"current_trial": 75, "trialdata": {"rt": [15040, 35919, 39103, 44255, 48719], "recwords": ["soda", "ballon", "husband", "dashboard", "tribe"], "key_times": [13218, 13440, 13711, 14095, 15040, 15520, 15727, 16095, 16244, 16431, 16816, 30000, 30207, 30368, 30703, 30863, 30975, 31456, 32656, 33155, 33188, 33221, 33254, 33287, 33320, 33353, 33386, 33419, 33663, 33871, 34048, 34735, 35235, 35268, 35301, 35335, 35367, 35401, 35433, 35466, 35499, 35532, 35565, 35598, 35919, 36783, 36911, 37103, 37471, 37599, 37759, 38063, 39103, 40896, 41167, 41423, 41567, 41824, 42047, 42223, 42687, 42960, 44255, 46991, 47247, 47423, 47711, 47967, 48719, 50335, 51023, 51295, 51455, 51727, 52543], "trial_type": "free-recall", "conditions": [18, 1200, "a", 18000], "internal_node_id": "0.0-57.0-0.0", "key_presses": [83, 79, 68, 65, 13, 66, 65, 76, 76, 79, 78, 72, 85, 83, 66, 65, 78, 68, 37, 37, 37, 37, 37, 37, 37, 37, 37, 37, 39, 39, 39, 46, 46, 46, 46, 46, 46, 46, 46, 46, 46, 46, 46, 46, 13, 72, 85, 83, 66, 65, 78, 68, 13, 68, 65, 83, 72, 66, 79, 65, 82, 68, 13, 84, 82, 73, 66, 69, 13, 66, 65, 76, 76, 79, 78], "trial": 1, "time_elapsed": 414626, "type": "FREE_RECALL", "trial_index": 75}, "uniqueid": "MTK2565:3AMW0RGHOE9APHH3RPGSM8HQOH3NP5", "dateTime": 1519069089767}, {"current_trial": 76, "trialdata": {"rt": 29191, "trial_type": "text", "internal_node_id": "0.0-58.0", "time_elapsed": 445825, "key_press": 13, "type": "INSTRUCTIONS", "trial_index": 76}, "uniqueid": "MTK2565:3AMW0RGHOE9APHH3RPGSM8HQOH3NP5", "dateTime": 1519069120960}, {"current_trial": 77, "trialdata": {"rt": [2480, 4944, 6752, 8896, 11136], "trial_type": "math-distractor", "key_times": [1520, 1808, 2480, 4432, 4640, 4944, 6177, 6336, 6752, 8305, 8513, 8896, 10417, 10736, 11136], "responses": ["16", "15", "15", "21", "18"], "num2": [8, 4, 9, 8, 6, 9], "num3": [4, 7, 1, 7, 3, 7], "conditions": [24, 1600, "a", 12000], "internal_node_id": "0.0-59.0", "key_presses": [97, 102, 13, 97, 101, 13, 97, 101, 13, 98, 97, 13, 97, 104, 13], "trial": 2, "time_elapsed": 458831, "type": "DISTRACTOR", "trial_index": 77, "num1": [4, 4, 5, 6, 9, 2]}, "uniqueid": "MTK2565:3AMW0RGHOE9APHH3RPGSM8HQOH3NP5", "dateTime": 1519069133966}, {"current_trial": 78, "trialdata": {"rt": -1, "trial_type": "single-stim", "stimulus": "<p id=\"stim\">10</p>", "internal_node_id": "0.0-60.0-0.0", "time_elapsed": 461834, "key_press": -1, "trial_index": 78}, "uniqueid": "MTK2565:3AMW0RGHOE9APHH3RPGSM8HQOH3NP5", "dateTime": 1519069136969}, {"current_trial": 79, "trialdata": {"rt": -1, "trial_type": "single-stim", "stimulus": "<p id=\"stim\">9</p>", "internal_node_id": "0.0-60.0-1.0", "time_elapsed": 462839, "key_press": -1, "trial_index": 79}, "uniqueid": "MTK2565:3AMW0RGHOE9APHH3RPGSM8HQOH3NP5", "dateTime": 1519069137974}, {"current_trial": 80, "trialdata": {"rt": -1, "trial_type": "single-stim", "stimulus": "<p id=\"stim\">8</p>", "internal_node_id": "0.0-60.0-2.0", "time_elapsed": 463840, "key_press": -1, "trial_index": 80}, "uniqueid": "MTK2565:3AMW0RGHOE9APHH3RPGSM8HQOH3NP5", "dateTime": 1519069138975}, {"current_trial": 81, "trialdata": {"rt": -1, "trial_type": "single-stim", "stimulus": "<p id=\"stim\">7</p>", "internal_node_id": "0.0-60.0-3.0", "time_elapsed": 464841, "key_press": -1, "trial_index": 81}, "uniqueid": "MTK2565:3AMW0RGHOE9APHH3RPGSM8HQOH3NP5", "dateTime": 1519069139976}, {"current_trial": 82, "trialdata": {"rt": -1, "trial_type": "single-stim", "stimulus": "<p id=\"stim\">6</p>", "internal_node_id": "0.0-60.0-4.0", "time_elapsed": 465842, "key_press": -1, "trial_index": 82}, "uniqueid": "MTK2565:3AMW0RGHOE9APHH3RPGSM8HQOH3NP5", "dateTime": 1519069140977}, {"current_trial": 83, "trialdata": {"rt": -1, "trial_type": "single-stim", "stimulus": "<p id=\"stim\">5</p>", "internal_node_id": "0.0-60.0-5.0", "time_elapsed": 466843, "key_press": -1, "trial_index": 83}, "uniqueid": "MTK2565:3AMW0RGHOE9APHH3RPGSM8HQOH3NP5", "dateTime": 1519069141978}, {"current_trial": 84, "trialdata": {"rt": -1, "trial_type": "single-stim", "stimulus": "<p id=\"stim\">4</p>", "internal_node_id": "0.0-60.0-6.0", "time_elapsed": 467844, "key_press": -1, "trial_index": 84}, "uniqueid": "MTK2565:3AMW0RGHOE9APHH3RPGSM8HQOH3NP5", "dateTime": 1519069142979}, {"current_trial": 85, "trialdata": {"rt": -1, "trial_type": "single-stim", "stimulus": "<p id=\"stim\">3</p>", "internal_node_id": "0.0-60.0-7.0", "time_elapsed": 468845, "key_press": -1, "trial_index": 85}, "uniqueid": "MTK2565:3AMW0RGHOE9APHH3RPGSM8HQOH3NP5", "dateTime": 1519069143980}, {"current_trial": 86, "trialdata": {"rt": -1, "trial_type": "single-stim", "stimulus": "<p id=\"stim\">2</p>", "internal_node_id": "0.0-60.0-8.0", "time_elapsed": 469846, "key_press": -1, "trial_index": 86}, "uniqueid": "MTK2565:3AMW0RGHOE9APHH3RPGSM8HQOH3NP5", "dateTime": 1519069144981}, {"current_trial": 87, "trialdata": {"rt": -1, "trial_type": "single-stim", "stimulus": "<p id=\"stim\">1</p>", "internal_node_id": "0.0-60.0-9.0", "time_elapsed": 470847, "key_press": -1, "trial_index": 87}, "uniqueid": "MTK2565:3AMW0RGHOE9APHH3RPGSM8HQOH3NP5", "dateTime": 1519069145983}, {"current_trial": 88, "trialdata": {"rt": -1, "trial_type": "single-stim", "stimulus": "<p id=\"stim\">+</p>", "internal_node_id": "0.0-61.0-0.0", "time_elapsed": 472348, "key_press": -1, "type": "FIXATION", "trial_index": 88}, "uniqueid": "MTK2565:3AMW0RGHOE9APHH3RPGSM8HQOH3NP5", "dateTime": 1519069147484}, {"current_trial": 89, "trialdata": {"rt": -1000, "trial_type": "single-audio", "word": "bank", "stimulus": "/static/audio/wordpool/BANK.wav", "conditions": [24, 1600, "a", 12000], "internal_node_id": "0.0-62.0", "trial": 2, "time_elapsed": 474978, "serialpos": 0, "key_press": -1, "wordID": 82, "type": "PRES_AUD", "trial_index": 89}, "uniqueid": "MTK2565:3AMW0RGHOE9APHH3RPGSM8HQOH3NP5", "dateTime": 1519069150114}, {"current_trial": 90, "trialdata": {"rt": -1000, "trial_type": "single-audio", "word": "wrist", "stimulus": "/static/audio/wordpool/WRIST.wav", "conditions": [24, 1600, "a", 12000], "internal_node_id": "0.0-63.0", "trial": 2, "time_elapsed": 477592, "serialpos": 1, "key_press": -1, "wordID": 1625, "type": "PRES_AUD", "trial_index": 90}, "uniqueid": "MTK2565:3AMW0RGHOE9APHH3RPGSM8HQOH3NP5", "dateTime": 1519069152727}, {"current_trial": 91, "trialdata": {"rt": -1000, "trial_type": "single-audio", "word": "elbow", "stimulus": "/static/audio/wordpool/ELBOW.wav", "conditions": [24, 1600, "a", 12000], "internal_node_id": "0.0-64.0", "trial": 2, "time_elapsed": 480336, "serialpos": 2, "key_press": -1, "wordID": 519, "type": "PRES_AUD", "trial_index": 91}, "uniqueid": "MTK2565:3AMW0RGHOE9APHH3RPGSM8HQOH3NP5", "dateTime": 1519069155471}, {"current_trial": 92, "trialdata": {"rt": -1000, "trial_type": "single-audio", "word": "ox", "stimulus": "/static/audio/wordpool/OX.wav", "conditions": [24, 1600, "a", 12000], "internal_node_id": "0.0-65.0", "trial": 2, "time_elapsed": 482967, "serialpos": 3, "key_press": -1, "wordID": 993, "type": "PRES_AUD", "trial_index": 92}, "uniqueid": "MTK2565:3AMW0RGHOE9APHH3RPGSM8HQOH3NP5", "dateTime": 1519069158102}, {"current_trial": 93, "trialdata": {"rt": -1000, "trial_type": "single-audio", "word": "champagne", "stimulus": "/static/audio/wordpool/CHAMPAGNE.wav", "conditions": [24, 1600, "a", 12000], "internal_node_id": "0.0-66.0", "trial": 2, "time_elapsed": 485543, "serialpos": 4, "key_press": -1, "wordID": 277, "type": "PRES_AUD", "trial_index": 93}, "uniqueid": "MTK2565:3AMW0RGHOE9APHH3RPGSM8HQOH3NP5", "dateTime": 1519069160678}, {"current_trial": 94, "trialdata": {"rt": -1000, "trial_type": "single-audio", "word": "banker", "stimulus": "/static/audio/wordpool/BANKER.wav", "conditions": [24, 1600, "a", 12000], "internal_node_id": "0.0-67.0", "trial": 2, "time_elapsed": 488270, "serialpos": 5, "key_press": -1, "wordID": 83, "type": "PRES_AUD", "trial_index": 94}, "uniqueid": "MTK2565:3AMW0RGHOE9APHH3RPGSM8HQOH3NP5", "dateTime": 1519069163405}, {"current_trial": 95, "trialdata": {"rt": -1000, "trial_type": "single-audio", "word": "mop", "stimulus": "/static/audio/wordpool/MOP.wav", "conditions": [24, 1600, "a", 12000], "internal_node_id": "0.0-68.0", "trial": 2, "time_elapsed": 490793, "serialpos": 6, "key_press": -1, "wordID": 915, "type": "PRES_AUD", "trial_index": 95}, "uniqueid": "MTK2565:3AMW0RGHOE9APHH3RPGSM8HQOH3NP5", "dateTime": 1519069165929}, {"current_trial": 96, "trialdata": {"rt": -1000, "trial_type": "single-audio", "word": "plaster", "stimulus": "/static/audio/wordpool/PLASTER.wav", "conditions": [24, 1600, "a", 12000], "internal_node_id": "0.0-69.0", "trial": 2, "time_elapsed": 493244, "serialpos": 7, "key_press": -1, "wordID": 1084, "type": "PRES_AUD", "trial_index": 96}, "uniqueid": "MTK2565:3AMW0RGHOE9APHH3RPGSM8HQOH3NP5", "dateTime": 1519069168380}, {"current_trial": 97, "trialdata": {"rt": -1000, "trial_type": "single-audio", "word": "fungus", "stimulus": "/static/audio/wordpool/FUNGUS.wav", "conditions": [24, 1600, "a", 12000], "internal_node_id": "0.0-70.0", "trial": 2, "time_elapsed": 495964, "serialpos": 8, "key_press": -1, "wordID": 613, "type": "PRES_AUD", "trial_index": 97}, "uniqueid": "MTK2565:3AMW0RGHOE9APHH3RPGSM8HQOH3NP5", "dateTime": 1519069171099}, {"current_trial": 98, "trialdata": {"rt": -1000, "trial_type": "single-audio", "word": "flask", "stimulus": "/static/audio/wordpool/FLASK.wav", "conditions": [24, 1600, "a", 12000], "internal_node_id": "0.0-71.0", "trial": 2, "time_elapsed": 498654, "serialpos": 9, "key_press": -1, "wordID": 575, "type": "PRES_AUD", "trial_index": 98}, "uniqueid": "MTK2565:3AMW0RGHOE9APHH3RPGSM8HQOH3NP5", "dateTime": 1519069173790}, {"current_trial": 99, "trialdata": {"rt": -1000, "trial_type": "single-audio", "word": "shelf", "stimulus": "/static/audio/wordpool/SHELF.wav", "conditions": [24, 1600, "a", 12000], "internal_node_id": "0.0-72.0", "trial": 2, "time_elapsed": 501269, "serialpos": 10, "key_press": -1, "wordID": 1279, "type": "PRES_AUD", "trial_index": 99}, "uniqueid": "MTK2565:3AMW0RGHOE9APHH3RPGSM8HQOH3NP5", "dateTime": 1519069176404}, {"current_trial": 100, "trialdata": {"rt": -1000, "trial_type": "single-audio", "word": "preacher", "stimulus": "/static/audio/wordpool/PREACHER.wav", "conditions": [24, 1600, "a", 12000], "internal_node_id": "0.0-73.0", "trial": 2, "time_elapsed": 503752, "serialpos": 11, "key_press": -1, "wordID": 1118, "type": "PRES_AUD", "trial_index": 100}, "uniqueid": "MTK2565:3AMW0RGHOE9APHH3RPGSM8HQOH3NP5", "dateTime": 1519069178887}, {"current_trial": 101, "trialdata": {"rt": -1000, "trial_type": "single-audio", "word": "stove", "stimulus": "/static/audio/wordpool/STOVE.wav", "conditions": [24, 1600, "a", 12000], "internal_node_id": "0.0-74.0", "trial": 2, "time_elapsed": 506370, "serialpos": 12, "key_press": -1, "wordID": 1387, "type": "PRES_AUD", "trial_index": 101}, "uniqueid": "MTK2565:3AMW0RGHOE9APHH3RPGSM8HQOH3NP5", "dateTime": 1519069181505}, {"current_trial": 102, "trialdata": {"rt": -1000, "trial_type": "single-audio", "word": "dress", "stimulus": "/static/audio/wordpool/DRESS.wav", "conditions": [24, 1600, "a", 12000], "internal_node_id": "0.0-75.0", "trial": 2, "time_elapsed": 509119, "serialpos": 13, "key_press": -1, "wordID": 494, "type": "PRES_AUD", "trial_index": 102}, "uniqueid": "MTK2565:3AMW0RGHOE9APHH3RPGSM8HQOH3NP5", "dateTime": 1519069184255}, {"current_trial": 103, "trialdata": {"rt": -1000, "trial_type": "single-audio", "word": "jury", "stimulus": "/static/audio/wordpool/JURY.wav", "conditions": [24, 1600, "a", 12000], "internal_node_id": "0.0-76.0", "trial": 2, "time_elapsed": 511612, "serialpos": 14, "key_press": -1, "wordID": 765, "type": "PRES_AUD", "trial_index": 103}, "uniqueid": "MTK2565:3AMW0RGHOE9APHH3RPGSM8HQOH3NP5", "dateTime": 1519069186748}, {"current_trial": 104, "trialdata": {"rt": -1000, "trial_type": "single-audio", "word": "rooster", "stimulus": "/static/audio/wordpool/ROOSTER.wav", "conditions": [24, 1600, "a", 12000], "internal_node_id": "0.0-77.0", "trial": 2, "time_elapsed": 514205, "serialpos": 15, "key_press": -1, "wordID": 1208, "type": "PRES_AUD", "trial_index": 104}, "uniqueid": "MTK2565:3AMW0RGHOE9APHH3RPGSM8HQOH3NP5", "dateTime": 1519069189340}, {"current_trial": 105, "trialdata": {"rt": -1000, "trial_type": "single-audio", "word": "onion", "stimulus": "/static/audio/wordpool/ONION.wav", "conditions": [24, 1600, "a", 12000], "internal_node_id": "0.0-78.0", "trial": 2, "time_elapsed": 516691, "serialpos": 16, "key_press": -1, "wordID": 976, "type": "PRES_AUD", "trial_index": 105}, "uniqueid": "MTK2565:3AMW0RGHOE9APHH3RPGSM8HQOH3NP5", "dateTime": 1519069191826}, {"current_trial": 106, "trialdata": {"rt": -1000, "trial_type": "single-audio", "word": "pepper", "stimulus": "/static/audio/wordpool/PEPPER.wav", "conditions": [24, 1600, "a", 12000], "internal_node_id": "0.0-79.0", "trial": 2, "time_elapsed": 519241, "serialpos": 17, "key_press": -1, "wordID": 1046, "type": "PRES_AUD", "trial_index": 106}, "uniqueid": "MTK2565:3AMW0RGHOE9APHH3RPGSM8HQOH3NP5", "dateTime": 1519069194376}, {"current_trial": 107, "trialdata": {"rt": -1000, "trial_type": "single-audio", "word": "hood", "stimulus": "/static/audio/wordpool/HOOD.wav", "conditions": [24, 1600, "a", 12000], "internal_node_id": "0.0-80.0", "trial": 2, "time_elapsed": 521923, "serialpos": 18, "key_press": -1, "wordID": 713, "type": "PRES_AUD", "trial_index": 107}, "uniqueid": "MTK2565:3AMW0RGHOE9APHH3RPGSM8HQOH3NP5", "dateTime": 1519069197058}, {"current_trial": 108, "trialdata": {"rt": -1000, "trial_type": "single-audio", "word": "widow", "stimulus": "/static/audio/wordpool/WIDOW.wav", "conditions": [24, 1600, "a", 12000], "internal_node_id": "0.0-81.0", "trial": 2, "time_elapsed": 524325, "serialpos": 19, "key_press": -1, "wordID": 1607, "type": "PRES_AUD", "trial_index": 108}, "uniqueid": "MTK2565:3AMW0RGHOE9APHH3RPGSM8HQOH3NP5", "dateTime": 1519069199460}, {"current_trial": 109, "trialdata": {"rt": -1000, "trial_type": "single-audio", "word": "switch", "stimulus": "/static/audio/wordpool/SWITCH.wav", "conditions": [24, 1600, "a", 12000], "internal_node_id": "0.0-82.0", "trial": 2, "time_elapsed": 527003, "serialpos": 20, "key_press": -1, "wordID": 1421, "type": "PRES_AUD", "trial_index": 109}, "uniqueid": "MTK2565:3AMW0RGHOE9APHH3RPGSM8HQOH3NP5", "dateTime": 1519069202138}, {"current_trial": 110, "trialdata": {"rt": -1000, "trial_type": "single-audio", "word": "clamp", "stimulus": "/static/audio/wordpool/CLAMP.wav", "conditions": [24, 1600, "a", 12000], "internal_node_id": "0.0-83.0", "trial": 2, "time_elapsed": 529676, "serialpos": 21, "key_press": -1, "wordID": 315, "type": "PRES_AUD", "trial_index": 110}, "uniqueid": "MTK2565:3AMW0RGHOE9APHH3RPGSM8HQOH3NP5", "dateTime": 1519069204811}, {"current_trial": 111, "trialdata": {"rt": -1000, "trial_type": "single-audio", "word": "judge", "stimulus": "/static/audio/wordpool/JUDGE.wav", "conditions": [24, 1600, "a", 12000], "internal_node_id": "0.0-84.0", "trial": 2, "time_elapsed": 532266, "serialpos": 22, "key_press": -1, "wordID": 760, "type": "PRES_AUD", "trial_index": 111}, "uniqueid": "MTK2565:3AMW0RGHOE9APHH3RPGSM8HQOH3NP5", "dateTime": 1519069207402}, {"current_trial": 112, "trialdata": {"rt": -1000, "trial_type": "single-audio", "word": "dresser", "stimulus": "/static/audio/wordpool/DRESSER.wav", "conditions": [24, 1600, "a", 12000], "internal_node_id": "0.0-85.0", "trial": 2, "time_elapsed": 534750, "serialpos": 23, "key_press": -1, "wordID": 495, "type": "PRES_AUD", "trial_index": 112}, "uniqueid": "MTK2565:3AMW0RGHOE9APHH3RPGSM8HQOH3NP5", "dateTime": 1519069209886}, {"current_trial": 113, "trialdata": {"rt": -1, "trial_type": "single-stim", "stimulus": "", "internal_node_id": "0.0-86.0-0.0", "time_elapsed": 535992, "key_press": -1, "type": "PRE_RECALL_DELAY", "trial_index": 113}, "uniqueid": "MTK2565:3AMW0RGHOE9APHH3RPGSM8HQOH3NP5", "dateTime": 1519069211127}, {"current_trial": 114, "trialdata": {"rt": -1000, "trial_type": "single-audio", "stimulus": "/static/audio/400Hz.wav", "internal_node_id": "0.0-87.0", "time_elapsed": 536493, "key_press": -1, "type": "PRE_RECALL_ALERT", "trial_index": 114}, "uniqueid": "MTK2565:3AMW0RGHOE9APHH3RPGSM8HQOH3NP5", "dateTime": 1519069211629}, {"current_trial": 115, "trialdata": {"rt": [2520, 4680, 7000, 15849, 25256, 28104, 32057, 44105, 59081], "recwords": ["onion", "wrist", "elbow", "ox", "elbow", "bank", "dresser", "fungus", "banker"], "key_times": [1081, 1433, 1576, 1785, 2072, 2520, 3080, 3384, 3624, 3768, 4099, 4680, 5368, 5640, 6056, 6281, 6568, 7000, 9080, 10904, 15849, 20104, 20456, 20968, 22121, 22264, 25256, 26936, 27080, 27192, 27465, 28104, 29576, 29800, 29992, 30264, 30440, 30648, 30920, 32057, 42138, 42392, 42713, 42936, 43112, 43256, 44105, 57855, 58000, 58089, 58490, 58650, 58858, 59081], "trial_type": "free-recall", "conditions": [24, 1600, "a", 12000], "internal_node_id": "0.0-88.0-0.0", "key_presses": [79, 78, 73, 79, 78, 13, 87, 82, 73, 83, 84, 13, 69, 76, 66, 79, 87, 13, 79, 88, 13, 69, 76, 66, 79, 87, 13, 66, 65, 78, 75, 13, 68, 82, 69, 83, 83, 69, 82, 13, 70, 85, 78, 71, 85, 83, 13, 66, 65, 78, 75, 69, 82, 13], "trial": 2, "time_elapsed": 596505, "type": "FREE_RECALL", "trial_index": 115}, "uniqueid": "MTK2565:3AMW0RGHOE9APHH3RPGSM8HQOH3NP5", "dateTime": 1519069271656}, {"current_trial": 116, "trialdata": {"rt": 8832, "trial_type": "text", "internal_node_id": "0.0-89.0", "time_elapsed": 607361, "key_press": 32, "type": "INSTRUCTIONS", "trial_index": 116}, "uniqueid": "MTK2565:3AMW0RGHOE9APHH3RPGSM8HQOH3NP5", "dateTime": 1519069282496}, {"current_trial": 117, "trialdata": {"rt": [3061, 4885, 7590, 9925, 11957], "trial_type": "math-distractor", "key_times": [2365, 2581, 3061, 4230, 4421, 4885, 6790, 7030, 7590, 9189, 9541, 9925, 11237, 11509, 11957], "responses": ["18", "18", "14", "13", "13"], "num2": [9, 5, 4, 5, 3, 9], "num3": [2, 5, 3, 2, 8, 1], "conditions": [12, 1600, "a", 12000], "internal_node_id": "0.0-90.0", "key_presses": [97, 104, 13, 97, 104, 13, 97, 100, 13, 97, 99, 13, 97, 99, 13], "trial": 3, "time_elapsed": 621372, "type": "DISTRACTOR", "trial_index": 117, "num1": [7, 8, 7, 6, 2, 9]}, "uniqueid": "MTK2565:3AMW0RGHOE9APHH3RPGSM8HQOH3NP5", "dateTime": 1519069296508}, {"current_trial": 118, "trialdata": {"rt": -1, "trial_type": "single-stim", "stimulus": "<p id=\"stim\">10</p>", "internal_node_id": "0.0-91.0-0.0", "time_elapsed": 624376, "key_press": -1, "trial_index": 118}, "uniqueid": "MTK2565:3AMW0RGHOE9APHH3RPGSM8HQOH3NP5", "dateTime": 1519069299511}, {"current_trial": 119, "trialdata": {"rt": -1, "trial_type": "single-stim", "stimulus": "<p id=\"stim\">9</p>", "internal_node_id": "0.0-91.0-1.0", "time_elapsed": 625377, "key_press": -1, "trial_index": 119}, "uniqueid": "MTK2565:3AMW0RGHOE9APHH3RPGSM8HQOH3NP5", "dateTime": 1519069300512}, {"current_trial": 120, "trialdata": {"rt": -1, "trial_type": "single-stim", "stimulus": "<p id=\"stim\">8</p>", "internal_node_id": "0.0-91.0-2.0", "time_elapsed": 626378, "key_press": -1, "trial_index": 120}, "uniqueid": "MTK2565:3AMW0RGHOE9APHH3RPGSM8HQOH3NP5", "dateTime": 1519069301514}, {"current_trial": 121, "trialdata": {"rt": -1, "trial_type": "single-stim", "stimulus": "<p id=\"stim\">7</p>", "internal_node_id": "0.0-91.0-3.0", "time_elapsed": 627379, "key_press": -1, "trial_index": 121}, "uniqueid": "MTK2565:3AMW0RGHOE9APHH3RPGSM8HQOH3NP5", "dateTime": 1519069302515}, {"current_trial": 122, "trialdata": {"rt": -1, "trial_type": "single-stim", "stimulus": "<p id=\"stim\">6</p>", "internal_node_id": "0.0-91.0-4.0", "time_elapsed": 628381, "key_press": -1, "trial_index": 122}, "uniqueid": "MTK2565:3AMW0RGHOE9APHH3RPGSM8HQOH3NP5", "dateTime": 1519069303516}, {"current_trial": 123, "trialdata": {"rt": -1, "trial_type": "single-stim", "stimulus": "<p id=\"stim\">5</p>", "internal_node_id": "0.0-91.0-5.0", "time_elapsed": 629382, "key_press": -1, "trial_index": 123}, "uniqueid": "MTK2565:3AMW0RGHOE9APHH3RPGSM8HQOH3NP5", "dateTime": 1519069304518}, {"current_trial": 124, "trialdata": {"rt": -1, "trial_type": "single-stim", "stimulus": "<p id=\"stim\">4</p>", "internal_node_id": "0.0-91.0-6.0", "time_elapsed": 630384, "key_press": -1, "trial_index": 124}, "uniqueid": "MTK2565:3AMW0RGHOE9APHH3RPGSM8HQOH3NP5", "dateTime": 1519069305519}, {"current_trial": 125, "trialdata": {"rt": -1, "trial_type": "single-stim", "stimulus": "<p id=\"stim\">3</p>", "internal_node_id": "0.0-91.0-7.0", "time_elapsed": 631386, "key_press": -1, "trial_index": 125}, "uniqueid": "MTK2565:3AMW0RGHOE9APHH3RPGSM8HQOH3NP5", "dateTime": 1519069306533}, {"current_trial": 126, "trialdata": {"rt": -1, "trial_type": "single-stim", "stimulus": "<p id=\"stim\">2</p>", "internal_node_id": "0.0-91.0-8.0", "time_elapsed": 632400, "key_press": -1, "trial_index": 126}, "uniqueid": "MTK2565:3AMW0RGHOE9APHH3RPGSM8HQOH3NP5", "dateTime": 1519069307536}, {"current_trial": 127, "trialdata": {"rt": -1, "trial_type": "single-stim", "stimulus": "<p id=\"stim\">1</p>", "internal_node_id": "0.0-91.0-9.0", "time_elapsed": 633402, "key_press": -1, "trial_index": 127}, "uniqueid": "MTK2565:3AMW0RGHOE9APHH3RPGSM8HQOH3NP5", "dateTime": 1519069308537}, {"current_trial": 128, "trialdata": {"rt": -1, "trial_type": "single-stim", "stimulus": "<p id=\"stim\">+</p>", "internal_node_id": "0.0-92.0-0.0", "time_elapsed": 634904, "key_press": -1, "type": "FIXATION", "trial_index": 128}, "uniqueid": "MTK2565:3AMW0RGHOE9APHH3RPGSM8HQOH3NP5", "dateTime": 1519069310039}, {"current_trial": 129, "trialdata": {"rt": -1000, "trial_type": "single-audio", "word": "hero", "stimulus": "/static/audio/wordpool/HERO.wav", "conditions": [12, 1600, "a", 12000], "internal_node_id": "0.0-93.0", "trial": 3, "time_elapsed": 637330, "serialpos": 0, "key_press": -1, "wordID": 705, "type": "PRES_AUD", "trial_index": 129}, "uniqueid": "MTK2565:3AMW0RGHOE9APHH3RPGSM8HQOH3NP5", "dateTime": 1519069312465}, {"current_trial": 130, "trialdata": {"rt": -1000, "trial_type": "single-audio", "word": "softball", "stimulus": "/static/audio/wordpool/SOFTBALL.wav", "conditions": [12, 1600, "a", 12000], "internal_node_id": "0.0-94.0", "trial": 3, "time_elapsed": 639864, "serialpos": 1, "key_press": -1, "wordID": 1342, "type": "PRES_AUD", "trial_index": 130}, "uniqueid": "MTK2565:3AMW0RGHOE9APHH3RPGSM8HQOH3NP5", "dateTime": 1519069315000}, {"current_trial": 131, "trialdata": {"rt": -1000, "trial_type": "single-audio", "word": "banquet", "stimulus": "/static/audio/wordpool/BANQUET.wav", "conditions": [12, 1600, "a", 12000], "internal_node_id": "0.0-95.0", "trial": 3, "time_elapsed": 642644, "serialpos": 2, "key_press": -1, "wordID": 85, "type": "PRES_AUD", "trial_index": 131}, "uniqueid": "MTK2565:3AMW0RGHOE9APHH3RPGSM8HQOH3NP5", "dateTime": 1519069317780}, {"current_trial": 132, "trialdata": {"rt": -1000, "trial_type": "single-audio", "word": "milk", "stimulus": "/static/audio/wordpool/MILK.wav", "conditions": [12, 1600, "a", 12000], "internal_node_id": "0.0-96.0", "trial": 3, "time_elapsed": 645369, "serialpos": 3, "key_press": -1, "wordID": 894, "type": "PRES_AUD", "trial_index": 132}, "uniqueid": "MTK2565:3AMW0RGHOE9APHH3RPGSM8HQOH3NP5", "dateTime": 1519069320505}, {"current_trial": 133, "trialdata": {"rt": -1000, "trial_type": "single-audio", "word": "student", "stimulus": "/static/audio/wordpool/STUDENT.wav", "conditions": [12, 1600, "a", 12000], "internal_node_id": "0.0-97.0", "trial": 3, "time_elapsed": 647834, "serialpos": 4, "key_press": -1, "wordID": 1394, "type": "PRES_AUD", "trial_index": 133}, "uniqueid": "MTK2565:3AMW0RGHOE9APHH3RPGSM8HQOH3NP5", "dateTime": 1519069322970}, {"current_trial": 134, "trialdata": {"rt": -1000, "trial_type": "single-audio", "word": "teacher", "stimulus": "/static/audio/wordpool/TEACHER.wav", "conditions": [12, 1600, "a", 12000], "internal_node_id": "0.0-98.0", "trial": 3, "time_elapsed": 650500, "serialpos": 5, "key_press": -1, "wordID": 1439, "type": "PRES_AUD", "trial_index": 134}, "uniqueid": "MTK2565:3AMW0RGHOE9APHH3RPGSM8HQOH3NP5", "dateTime": 1519069325635}, {"current_trial": 135, "trialdata": {"rt": -1000, "trial_type": "single-audio", "word": "world", "stimulus": "/static/audio/wordpool/WORLD.wav", "conditions": [12, 1600, "a", 12000], "internal_node_id": "0.0-99.0", "trial": 3, "time_elapsed": 653090, "serialpos": 6, "key_press": -1, "wordID": 1621, "type": "PRES_AUD", "trial_index": 135}, "uniqueid": "MTK2565:3AMW0RGHOE9APHH3RPGSM8HQOH3NP5", "dateTime": 1519069328225}, {"current_trial": 136, "trialdata": {"rt": -1000, "trial_type": "single-audio", "word": "shark", "stimulus": "/static/audio/wordpool/SHARK.wav", "conditions": [12, 1600, "a", 12000], "internal_node_id": "0.0-100.0", "trial": 3, "time_elapsed": 655700, "serialpos": 7, "key_press": -1, "wordID": 1274, "type": "PRES_AUD", "trial_index": 136}, "uniqueid": "MTK2565:3AMW0RGHOE9APHH3RPGSM8HQOH3NP5", "dateTime": 1519069330835}, {"current_trial": 137, "trialdata": {"rt": -1000, "trial_type": "single-audio", "word": "poison", "stimulus": "/static/audio/wordpool/POISON.wav", "conditions": [12, 1600, "a", 12000], "internal_node_id": "0.0-101.0", "trial": 3, "time_elapsed": 658329, "serialpos": 8, "key_press": -1, "wordID": 1095, "type": "PRES_AUD", "trial_index": 137}, "uniqueid": "MTK2565:3AMW0RGHOE9APHH3RPGSM8HQOH3NP5", "dateTime": 1519069333464}, {"current_trial": 138, "trialdata": {"rt": -1000, "trial_type": "single-audio", "word": "crayon", "stimulus": "/static/audio/wordpool/CRAYON.wav", "conditions": [12, 1600, "a", 12000], "internal_node_id": "0.0-102.0", "trial": 3, "time_elapsed": 661039, "serialpos": 9, "key_press": -1, "wordID": 400, "type": "PRES_AUD", "trial_index": 138}, "uniqueid": "MTK2565:3AMW0RGHOE9APHH3RPGSM8HQOH3NP5", "dateTime": 1519069336174}, {"current_trial": 139, "trialdata": {"rt": -1000, "trial_type": "single-audio", "word": "london", "stimulus": "/static/audio/wordpool/LONDON.wav", "conditions": [12, 1600, "a", 12000], "internal_node_id": "0.0-103.0", "trial": 3, "time_elapsed": 663554, "serialpos": 10, "key_press": -1, "wordID": 842, "type": "PRES_AUD", "trial_index": 139}, "uniqueid": "MTK2565:3AMW0RGHOE9APHH3RPGSM8HQOH3NP5", "dateTime": 1519069338689}, {"current_trial": 140, "trialdata": {"rt": -1000, "trial_type": "single-audio", "word": "globe", "stimulus": "/static/audio/wordpool/GLOBE.wav", "conditions": [12, 1600, "a", 12000], "internal_node_id": "0.0-104.0", "trial": 3, "time_elapsed": 666072, "serialpos": 11, "key_press": -1, "wordID": 640, "type": "PRES_AUD", "trial_index": 140}, "uniqueid": "MTK2565:3AMW0RGHOE9APHH3RPGSM8HQOH3NP5", "dateTime": 1519069341208}, {"current_trial": 141, "trialdata": {"rt": -1, "trial_type": "single-stim", "stimulus": "", "internal_node_id": "0.0-105.0-0.0", "time_elapsed": 667378, "key_press": -1, "type": "PRE_RECALL_DELAY", "trial_index": 141}, "uniqueid": "MTK2565:3AMW0RGHOE9APHH3RPGSM8HQOH3NP5", "dateTime": 1519069342514}, {"current_trial": 142, "trialdata": {"rt": -1000, "trial_type": "single-audio", "stimulus": "/static/audio/400Hz.wav", "internal_node_id": "0.0-106.0", "time_elapsed": 667879, "key_press": -1, "type": "PRE_RECALL_ALERT", "trial_index": 142}, "uniqueid": "MTK2565:3AMW0RGHOE9APHH3RPGSM8HQOH3NP5", "dateTime": 1519069343015}, {"current_trial": 143, "trialdata": {"rt": [5619, 8563, 13572, 23251, 27283, 46195, 49428], "recwords": ["globe", "student", "teacher", "milk", "ball", "poision", "sharp"], "key_times": [676, 1059, 1555, 1828, 3156, 3332, 3492, 5043, 5619, 6260, 6660, 6900, 7524, 7715, 7875, 8067, 8563, 9316, 9524, 9764, 10036, 10212, 10357, 10627, 11460, 11667, 11812, 12116, 13108, 13572, 14435, 14564, 14804, 15236, 18052, 18596, 23251, 26228, 26515, 26707, 26851, 27283, 41396, 41603, 41731, 42131, 42979, 43155, 43331, 43491, 44259, 44468, 44675, 44867, 45123, 45300, 45555, 46195, 46995, 47284, 47443, 47795, 48067, 49428], "trial_type": "free-recall", "conditions": [12, 1600, "a", 12000], "internal_node_id": "0.0-107.0-0.0", "key_presses": [71, 79, 66, 69, 37, 37, 37, 76, 13, 83, 84, 85, 68, 69, 78, 84, 13, 84, 69, 65, 67, 74, 69, 82, 37, 37, 37, 46, 72, 13, 77, 73, 76, 69, 8, 75, 13, 66, 65, 76, 76, 13, 83, 72, 65, 82, 8, 8, 8, 8, 80, 79, 73, 83, 73, 79, 78, 13, 83, 72, 65, 82, 80, 13], "trial": 3, "time_elapsed": 727885, "type": "FREE_RECALL", "trial_index": 143}, "uniqueid": "MTK2565:3AMW0RGHOE9APHH3RPGSM8HQOH3NP5", "dateTime": 1519069403026}, {"current_trial": 144, "trialdata": {"rt": 6348, "trial_type": "text", "internal_node_id": "0.0-108.0", "time_elapsed": 736239, "key_press": 32, "type": "INSTRUCTIONS", "trial_index": 144}, "uniqueid": "MTK2565:3AMW0RGHOE9APHH3RPGSM8HQOH3NP5", "dateTime": 1519069411374}, {"current_trial": 145, "trialdata": {"rt": [2248, 4969, 8184, 10728, 12696, 15913, 17417, 19400, 21128, 23753], "trial_type": "math-distractor", "key_times": [1752, 1928, 2248, 4232, 4440, 4969, 7528, 7736, 8184, 9769, 10313, 10728, 12137, 12361, 12696, 14025, 15464, 15913, 17049, 17417, 18780, 19033, 19400, 20489, 20728, 21128, 23062, 23305, 23753], "responses": ["11", "21", "14", "19", "13", "23", "6", "13", "15", "14"], "num2": [1, 8, 7, 8, 8, 7, 2, 5, 2, 4, 6], "num3": [1, 7, 5, 9, 1, 9, 2, 1, 5, 1, 1], "conditions": [24, 800, "a", 24000], "internal_node_id": "0.0-109.0", "key_presses": [97, 97, 13, 98, 97, 13, 97, 100, 13, 97, 105, 13, 97, 99, 13, 98, 99, 13, 102, 13, 97, 99, 13, 97, 101, 13, 97, 100, 13], "trial": 4, "time_elapsed": 762249, "type": "DISTRACTOR", "trial_index": 145, "num1": [9, 7, 2, 2, 4, 7, 2, 7, 8, 9, 3]}, "uniqueid": "MTK2565:3AMW0RGHOE9APHH3RPGSM8HQOH3NP5", "dateTime": 1519069437385}, {"current_trial": 146, "trialdata": {"rt": -1, "trial_type": "single-stim", "stimulus": "<p id=\"stim\">10</p>", "internal_node_id": "0.0-110.0-0.0", "time_elapsed": 765253, "key_press": -1, "trial_index": 146}, "uniqueid": "MTK2565:3AMW0RGHOE9APHH3RPGSM8HQOH3NP5", "dateTime": 1519069440389}, {"current_trial": 147, "trialdata": {"rt": -1, "trial_type": "single-stim", "stimulus": "<p id=\"stim\">9</p>", "internal_node_id": "0.0-110.0-1.0", "time_elapsed": 766257, "key_press": -1, "trial_index": 147}, "uniqueid": "MTK2565:3AMW0RGHOE9APHH3RPGSM8HQOH3NP5", "dateTime": 1519069441393}, {"current_trial": 148, "trialdata": {"rt": -1, "trial_type": "single-stim", "stimulus": "<p id=\"stim\">8</p>", "internal_node_id": "0.0-110.0-2.0", "time_elapsed": 767261, "key_press": -1, "trial_index": 148}, "uniqueid": "MTK2565:3AMW0RGHOE9APHH3RPGSM8HQOH3NP5", "dateTime": 1519069442398}, {"current_trial": 149, "trialdata": {"rt": -1, "trial_type": "single-stim", "stimulus": "<p id=\"stim\">7</p>", "internal_node_id": "0.0-110.0-3.0", "time_elapsed": 768267, "key_press": -1, "trial_index": 149}, "uniqueid": "MTK2565:3AMW0RGHOE9APHH3RPGSM8HQOH3NP5", "dateTime": 1519069443403}, {"current_trial": 150, "trialdata": {"rt": -1, "trial_type": "single-stim", "stimulus": "<p id=\"stim\">6</p>", "internal_node_id": "0.0-110.0-4.0", "time_elapsed": 769270, "key_press": -1, "trial_index": 150}, "uniqueid": "MTK2565:3AMW0RGHOE9APHH3RPGSM8HQOH3NP5", "dateTime": 1519069444406}, {"current_trial": 151, "trialdata": {"rt": -1, "trial_type": "single-stim", "stimulus": "<p id=\"stim\">5</p>", "internal_node_id": "0.0-110.0-5.0", "time_elapsed": 770276, "key_press": -1, "trial_index": 151}, "uniqueid": "MTK2565:3AMW0RGHOE9APHH3RPGSM8HQOH3NP5", "dateTime": 1519069445412}, {"current_trial": 152, "trialdata": {"rt": -1, "trial_type": "single-stim", "stimulus": "<p id=\"stim\">4</p>", "internal_node_id": "0.0-110.0-6.0", "time_elapsed": 771279, "key_press": -1, "trial_index": 152}, "uniqueid": "MTK2565:3AMW0RGHOE9APHH3RPGSM8HQOH3NP5", "dateTime": 1519069446414}, {"current_trial": 153, "trialdata": {"rt": -1, "trial_type": "single-stim", "stimulus": "<p id=\"stim\">3</p>", "internal_node_id": "0.0-110.0-7.0", "time_elapsed": 772281, "key_press": -1, "trial_index": 153}, "uniqueid": "MTK2565:3AMW0RGHOE9APHH3RPGSM8HQOH3NP5", "dateTime": 1519069447416}, {"current_trial": 154, "trialdata": {"rt": -1, "trial_type": "single-stim", "stimulus": "<p id=\"stim\">2</p>", "internal_node_id": "0.0-110.0-8.0", "time_elapsed": 773283, "key_press": -1, "trial_index": 154}, "uniqueid": "MTK2565:3AMW0RGHOE9APHH3RPGSM8HQOH3NP5", "dateTime": 1519069448418}, {"current_trial": 155, "trialdata": {"rt": -1, "trial_type": "single-stim", "stimulus": "<p id=\"stim\">1</p>", "internal_node_id": "0.0-110.0-9.0", "time_elapsed": 774287, "key_press": -1, "trial_index": 155}, "uniqueid": "MTK2565:3AMW0RGHOE9APHH3RPGSM8HQOH3NP5", "dateTime": 1519069449425}, {"current_trial": 156, "trialdata": {"rt": -1, "trial_type": "single-stim", "stimulus": "<p id=\"stim\">+</p>", "internal_node_id": "0.0-111.0-0.0", "time_elapsed": 775793, "key_press": -1, "type": "FIXATION", "trial_index": 156}, "uniqueid": "MTK2565:3AMW0RGHOE9APHH3RPGSM8HQOH3NP5", "dateTime": 1519069450929}, {"current_trial": 157, "trialdata": {"rt": -1000, "trial_type": "single-audio", "word": "peach", "stimulus": "/static/audio/wordpool/PEACH.wav", "conditions": [24, 800, "a", 24000], "internal_node_id": "0.0-112.0", "trial": 4, "time_elapsed": 777433, "serialpos": 0, "key_press": -1, "wordID": 1030, "type": "PRES_AUD", "trial_index": 157}, "uniqueid": "MTK2565:3AMW0RGHOE9APHH3RPGSM8HQOH3NP5", "dateTime": 1519069452568}, {"current_trial": 158, "trialdata": {"rt": -1000, "trial_type": "single-audio", "word": "grape", "stimulus": "/static/audio/wordpool/GRAPE.wav", "conditions": [24, 800, "a", 24000], "internal_node_id": "0.0-113.0", "trial": 4, "time_elapsed": 779326, "serialpos": 1, "key_press": -1, "wordID": 653, "type": "PRES_AUD", "trial_index": 158}, "uniqueid": "MTK2565:3AMW0RGHOE9APHH3RPGSM8HQOH3NP5", "dateTime": 1519069454461}, {"current_trial": 159, "trialdata": {"rt": -1000, "trial_type": "single-audio", "word": "shrub", "stimulus": "/static/audio/wordpool/SHRUB.wav", "conditions": [24, 800, "a", 24000], "internal_node_id": "0.0-114.0", "trial": 4, "time_elapsed": 780967, "serialpos": 2, "key_press": -1, "wordID": 1298, "type": "PRES_AUD", "trial_index": 159}, "uniqueid": "MTK2565:3AMW0RGHOE9APHH3RPGSM8HQOH3NP5", "dateTime": 1519069456102}, {"current_trial": 160, "trialdata": {"rt": -1000, "trial_type": "single-audio", "word": "grill", "stimulus": "/static/audio/wordpool/GRILL.wav", "conditions": [24, 800, "a", 24000], "internal_node_id": "0.0-115.0", "trial": 4, "time_elapsed": 782866, "serialpos": 3, "key_press": -1, "wordID": 660, "type": "PRES_AUD", "trial_index": 160}, "uniqueid": "MTK2565:3AMW0RGHOE9APHH3RPGSM8HQOH3NP5", "dateTime": 1519069458001}, {"current_trial": 161, "trialdata": {"rt": -1000, "trial_type": "single-audio", "word": "crown", "stimulus": "/static/audio/wordpool/CROWN.wav", "conditions": [24, 800, "a", 24000], "internal_node_id": "0.0-116.0", "trial": 4, "time_elapsed": 784605, "serialpos": 4, "key_press": -1, "wordID": 414, "type": "PRES_AUD", "trial_index": 161}, "uniqueid": "MTK2565:3AMW0RGHOE9APHH3RPGSM8HQOH3NP5", "dateTime": 1519069459740}, {"current_trial": 162, "trialdata": {"rt": -1000, "trial_type": "single-audio", "word": "parrot", "stimulus": "/static/audio/wordpool/PARROT.wav", "conditions": [24, 800, "a", 24000], "internal_node_id": "0.0-117.0", "trial": 4, "time_elapsed": 786577, "serialpos": 5, "key_press": -1, "wordID": 1014, "type": "PRES_AUD", "trial_index": 162}, "uniqueid": "MTK2565:3AMW0RGHOE9APHH3RPGSM8HQOH3NP5", "dateTime": 1519069461713}, {"current_trial": 163, "trialdata": {"rt": -1000, "trial_type": "single-audio", "word": "clothes", "stimulus": "/static/audio/wordpool/CLOTHES.wav", "conditions": [24, 800, "a", 24000], "internal_node_id": "0.0-118.0", "trial": 4, "time_elapsed": 788469, "serialpos": 6, "key_press": -1, "wordID": 326, "type": "PRES_AUD", "trial_index": 163}, "uniqueid": "MTK2565:3AMW0RGHOE9APHH3RPGSM8HQOH3NP5", "dateTime": 1519069463605}, {"current_trial": 164, "trialdata": {"rt": -1000, "trial_type": "single-audio", "word": "outlaw", "stimulus": "/static/audio/wordpool/OUTLAW.wav", "conditions": [24, 800, "a", 24000], "internal_node_id": "0.0-119.0", "trial": 4, "time_elapsed": 790409, "serialpos": 7, "key_press": -1, "wordID": 988, "type": "PRES_AUD", "trial_index": 164}, "uniqueid": "MTK2565:3AMW0RGHOE9APHH3RPGSM8HQOH3NP5", "dateTime": 1519069465544}, {"current_trial": 165, "trialdata": {"rt": -1000, "trial_type": "single-audio", "word": "cook", "stimulus": "/static/audio/wordpool/COOK.wav", "conditions": [24, 800, "a", 24000], "internal_node_id": "0.0-120.0", "trial": 4, "time_elapsed": 792160, "serialpos": 8, "key_press": -1, "wordID": 371, "type": "PRES_AUD", "trial_index": 165}, "uniqueid": "MTK2565:3AMW0RGHOE9APHH3RPGSM8HQOH3NP5", "dateTime": 1519069467295}, {"current_trial": 166, "trialdata": {"rt": -1000, "trial_type": "single-audio", "word": "lace", "stimulus": "/static/audio/wordpool/LACE.wav", "conditions": [24, 800, "a", 24000], "internal_node_id": "0.0-121.0", "trial": 4, "time_elapsed": 794005, "serialpos": 9, "key_press": -1, "wordID": 791, "type": "PRES_AUD", "trial_index": 166}, "uniqueid": "MTK2565:3AMW0RGHOE9APHH3RPGSM8HQOH3NP5", "dateTime": 1519069469140}, {"current_trial": 167, "trialdata": {"rt": -1000, "trial_type": "single-audio", "word": "bacon", "stimulus": "/static/audio/wordpool/BACON.wav", "conditions": [24, 800, "a", 24000], "internal_node_id": "0.0-122.0", "trial": 4, "time_elapsed": 795822, "serialpos": 10, "key_press": -1, "wordID": 66, "type": "PRES_AUD", "trial_index": 167}, "uniqueid": "MTK2565:3AMW0RGHOE9APHH3RPGSM8HQOH3NP5", "dateTime": 1519069470958}, {"current_trial": 168, "trialdata": {"rt": -1000, "trial_type": "single-audio", "word": "snack", "stimulus": "/static/audio/wordpool/SNACK.wav", "conditions": [24, 800, "a", 24000], "internal_node_id": "0.0-123.0", "trial": 4, "time_elapsed": 797725, "serialpos": 11, "key_press": -1, "wordID": 1330, "type": "PRES_AUD", "trial_index": 168}, "uniqueid": "MTK2565:3AMW0RGHOE9APHH3RPGSM8HQOH3NP5", "dateTime": 1519069472860}, {"current_trial": 169, "trialdata": {"rt": -1000, "trial_type": "single-audio", "word": "beaver", "stimulus": "/static/audio/wordpool/BEAVER.wav", "conditions": [24, 800, "a", 24000], "internal_node_id": "0.0-124.0", "trial": 4, "time_elapsed": 799569, "serialpos": 12, "key_press": -1, "wordID": 108, "type": "PRES_AUD", "trial_index": 169}, "uniqueid": "MTK2565:3AMW0RGHOE9APHH3RPGSM8HQOH3NP5", "dateTime": 1519069474704}, {"current_trial": 170, "trialdata": {"rt": -1000, "trial_type": "single-audio", "word": "pasta", "stimulus": "/static/audio/wordpool/PASTA.wav", "conditions": [24, 800, "a", 24000], "internal_node_id": "0.0-125.0", "trial": 4, "time_elapsed": 801291, "serialpos": 13, "key_press": -1, "wordID": 1020, "type": "PRES_AUD", "trial_index": 170}, "uniqueid": "MTK2565:3AMW0RGHOE9APHH3RPGSM8HQOH3NP5", "dateTime": 1519069476426}, {"current_trial": 171, "trialdata": {"rt": -1000, "trial_type": "single-audio", "word": "wardrobe", "stimulus": "/static/audio/wordpool/WARDROBE.wav", "conditions": [24, 800, "a", 24000], "internal_node_id": "0.0-126.0", "trial": 4, "time_elapsed": 802976, "serialpos": 14, "key_press": -1, "wordID": 1586, "type": "PRES_AUD", "trial_index": 171}, "uniqueid": "MTK2565:3AMW0RGHOE9APHH3RPGSM8HQOH3NP5", "dateTime": 1519069478112}, {"current_trial": 172, "trialdata": {"rt": -1000, "trial_type": "single-audio", "word": "leader", "stimulus": "/static/audio/wordpool/LEADER.wav", "conditions": [24, 800, "a", 24000], "internal_node_id": "0.0-127.0", "trial": 4, "time_elapsed": 804957, "serialpos": 15, "key_press": -1, "wordID": 806, "type": "PRES_AUD", "trial_index": 172}, "uniqueid": "MTK2565:3AMW0RGHOE9APHH3RPGSM8HQOH3NP5", "dateTime": 1519069480092}, {"current_trial": 173, "trialdata": {"rt": -1000, "trial_type": "single-audio", "word": "basement", "stimulus": "/static/audio/wordpool/BASEMENT.wav", "conditions": [24, 800, "a", 24000], "internal_node_id": "0.0-128.0", "trial": 4, "time_elapsed": 806758, "serialpos": 16, "key_press": -1, "wordID": 93, "type": "PRES_AUD", "trial_index": 173}, "uniqueid": "MTK2565:3AMW0RGHOE9APHH3RPGSM8HQOH3NP5", "dateTime": 1519069481894}, {"current_trial": 174, "trialdata": {"rt": -1000, "trial_type": "single-audio", "word": "kitchen", "stimulus": "/static/audio/wordpool/KITCHEN.wav", "conditions": [24, 800, "a", 24000], "internal_node_id": "0.0-129.0", "trial": 4, "time_elapsed": 808700, "serialpos": 17, "key_press": -1, "wordID": 777, "type": "PRES_AUD", "trial_index": 174}, "uniqueid": "MTK2565:3AMW0RGHOE9APHH3RPGSM8HQOH3NP5", "dateTime": 1519069483835}, {"current_trial": 175, "trialdata": {"rt": -1000, "trial_type": "single-audio", "word": "rabbit", "stimulus": "/static/audio/wordpool/RABBIT.wav", "conditions": [24, 800, "a", 24000], "internal_node_id": "0.0-130.0", "trial": 4, "time_elapsed": 810630, "serialpos": 18, "key_press": -1, "wordID": 1151, "type": "PRES_AUD", "trial_index": 175}, "uniqueid": "MTK2565:3AMW0RGHOE9APHH3RPGSM8HQOH3NP5", "dateTime": 1519069485765}, {"current_trial": 176, "trialdata": {"rt": -1000, "trial_type": "single-audio", "word": "neutron", "stimulus": "/static/audio/wordpool/NEUTRON.wav", "conditions": [24, 800, "a", 24000], "internal_node_id": "0.0-131.0", "trial": 4, "time_elapsed": 812534, "serialpos": 19, "key_press": -1, "wordID": 946, "type": "PRES_AUD", "trial_index": 176}, "uniqueid": "MTK2565:3AMW0RGHOE9APHH3RPGSM8HQOH3NP5", "dateTime": 1519069487670}, {"current_trial": 177, "trialdata": {"rt": -1000, "trial_type": "single-audio", "word": "tweezers", "stimulus": "/static/audio/wordpool/TWEEZERS.wav", "conditions": [24, 800, "a", 24000], "internal_node_id": "0.0-132.0", "trial": 4, "time_elapsed": 814443, "serialpos": 20, "key_press": -1, "wordID": 1525, "type": "PRES_AUD", "trial_index": 177}, "uniqueid": "MTK2565:3AMW0RGHOE9APHH3RPGSM8HQOH3NP5", "dateTime": 1519069489578}, {"current_trial": 178, "trialdata": {"rt": -1000, "trial_type": "single-audio", "word": "muffin", "stimulus": "/static/audio/wordpool/MUFFIN.wav", "conditions": [24, 800, "a", 24000], "internal_node_id": "0.0-133.0", "trial": 4, "time_elapsed": 816289, "serialpos": 21, "key_press": -1, "wordID": 928, "type": "PRES_AUD", "trial_index": 178}, "uniqueid": "MTK2565:3AMW0RGHOE9APHH3RPGSM8HQOH3NP5", "dateTime": 1519069491425}, {"current_trial": 179, "trialdata": {"rt": -1000, "trial_type": "single-audio", "word": "lava", "stimulus": "/static/audio/wordpool/LAVA.wav", "conditions": [24, 800, "a", 24000], "internal_node_id": "0.0-134.0", "trial": 4, "time_elapsed": 818077, "serialpos": 22, "key_press": -1, "wordID": 803, "type": "PRES_AUD", "trial_index": 179}, "uniqueid": "MTK2565:3AMW0RGHOE9APHH3RPGSM8HQOH3NP5", "dateTime": 1519069493213}, {"current_trial": 180, "trialdata": {"rt": -1000, "trial_type": "single-audio", "word": "hatchet", "stimulus": "/static/audio/wordpool/HATCHET.wav", "conditions": [24, 800, "a", 24000], "internal_node_id": "0.0-135.0", "trial": 4, "time_elapsed": 819882, "serialpos": 23, "key_press": -1, "wordID": 690, "type": "PRES_AUD", "trial_index": 180}, "uniqueid": "MTK2565:3AMW0RGHOE9APHH3RPGSM8HQOH3NP5", "dateTime": 1519069495019}, {"current_trial": 181, "trialdata": {"rt": -1, "trial_type": "single-stim", "stimulus": "", "internal_node_id": "0.0-136.0-0.0", "time_elapsed": 821092, "key_press": -1, "type": "PRE_RECALL_DELAY", "trial_index": 181}, "uniqueid": "MTK2565:3AMW0RGHOE9APHH3RPGSM8HQOH3NP5", "dateTime": 1519069496227}, {"current_trial": 182, "trialdata": {"rt": -1000, "trial_type": "single-audio", "stimulus": "/static/audio/400Hz.wav", "internal_node_id": "0.0-137.0", "time_elapsed": 821595, "key_press": -1, "type": "PRE_RECALL_ALERT", "trial_index": 182}, "uniqueid": "MTK2565:3AMW0RGHOE9APHH3RPGSM8HQOH3NP5", "dateTime": 1519069496730}, {"current_trial": 183, "trialdata": {"rt": [2030, 4303, 6333, 15245, 18253, 21933, 26814, 33437, 42093, 48429], "recwords": ["peach", "grape", "grill", "kitchen", "muffin", "bacon", "pasta", "beaver", "tweezer", "hatchet"], "key_times": [738, 880, 1164, 1437, 1693, 2030, 2429, 2637, 2909, 3054, 3262, 4303, 5038, 5245, 5501, 5758, 5965, 6333, 12621, 12830, 13101, 13405, 13565, 13821, 14189, 15245, 16157, 16445, 16813, 16958, 17261, 17597, 18253, 20029, 20205, 20765, 20989, 21341, 21933, 25165, 25341, 25565, 25933, 26285, 26814, 30222, 30349, 30574, 31693, 31885, 32222, 32445, 32653, 33437, 38222, 38654, 38925, 39054, 39949, 40189, 40430, 42093, 46205, 46333, 46733, 46989, 47181, 47389, 47645, 48429, 58925], "trial_type": "free-recall", "conditions": [24, 800, "a", 24000], "internal_node_id": "0.0-138.0-0.0", "key_presses": [80, 69, 65, 67, 72, 13, 71, 82, 65, 80, 69, 13, 71, 82, 73, 76, 76, 13, 75, 73, 84, 67, 72, 69, 78, 13, 77, 85, 70, 70, 73, 78, 13, 66, 65, 67, 79, 78, 13, 80, 65, 83, 84, 65, 13, 66, 69, 81, 8, 65, 86, 69, 82, 13, 84, 87, 69, 69, 90, 69, 82, 13, 72, 65, 84, 67, 72, 69, 84, 13, 77], "trial": 4, "time_elapsed": 881602, "type": "FREE_RECALL", "trial_index": 183}, "uniqueid": "MTK2565:3AMW0RGHOE9APHH3RPGSM8HQOH3NP5", "dateTime": 1519069556749}, {"current_trial": 184, "trialdata": {"rt": 3146, "trial_type": "text", "internal_node_id": "0.0-139.0", "time_elapsed": 886800, "key_press": 32, "type": "INSTRUCTIONS", "trial_index": 184}, "uniqueid": "MTK2565:3AMW0RGHOE9APHH3RPGSM8HQOH3NP5", "dateTime": 1519069561936}, {"current_trial": 185, "trialdata": {"rt": [2327, 4423, 6152, 8440, 10887], "trial_type": "math-distractor", "key_times": [1910, 2327, 3768, 4007, 4423, 5591, 5847, 6152, 7943, 8168, 8440, 10425, 10647, 10887], "responses": ["7", "24", "16", "13", "10"], "num2": [1, 8, 7, 3, 3, 7], "num3": [2, 8, 7, 1, 4, 5], "conditions": [12, 1600, "a", 12000], "internal_node_id": "0.0-140.0", "key_presses": [103, 13, 98, 100, 13, 97, 102, 13, 97, 99, 13, 97, 96, 13], "trial": 5, "time_elapsed": 900782, "type": "DISTRACTOR", "trial_index": 185, "num1": [4, 8, 2, 9, 3, 7]}, "uniqueid": "MTK2565:3AMW0RGHOE9APHH3RPGSM8HQOH3NP5", "dateTime": 1519069575919}, {"current_trial": 186, "trialdata": {"rt": -1, "trial_type": "single-stim", "stimulus": "<p id=\"stim\">10</p>", "internal_node_id": "0.0-141.0-0.0", "time_elapsed": 903789, "key_press": -1, "trial_index": 186}, "uniqueid": "MTK2565:3AMW0RGHOE9APHH3RPGSM8HQOH3NP5", "dateTime": 1519069578925}, {"current_trial": 187, "trialdata": {"rt": -1, "trial_type": "single-stim", "stimulus": "<p id=\"stim\">9</p>", "internal_node_id": "0.0-141.0-1.0", "time_elapsed": 904792, "key_press": -1, "trial_index": 187}, "uniqueid": "MTK2565:3AMW0RGHOE9APHH3RPGSM8HQOH3NP5", "dateTime": 1519069579927}, {"current_trial": 188, "trialdata": {"rt": -1, "trial_type": "single-stim", "stimulus": "<p id=\"stim\">8</p>", "internal_node_id": "0.0-141.0-2.0", "time_elapsed": 905794, "key_press": -1, "trial_index": 188}, "uniqueid": "MTK2565:3AMW0RGHOE9APHH3RPGSM8HQOH3NP5", "dateTime": 1519069580930}, {"current_trial": 189, "trialdata": {"rt": -1, "trial_type": "single-stim", "stimulus": "<p id=\"stim\">7</p>", "internal_node_id": "0.0-141.0-3.0", "time_elapsed": 906796, "key_press": -1, "trial_index": 189}, "uniqueid": "MTK2565:3AMW0RGHOE9APHH3RPGSM8HQOH3NP5", "dateTime": 1519069581932}, {"current_trial": 190, "trialdata": {"rt": -1, "trial_type": "single-stim", "stimulus": "<p id=\"stim\">6</p>", "internal_node_id": "0.0-141.0-4.0", "time_elapsed": 907799, "key_press": -1, "trial_index": 190}, "uniqueid": "MTK2565:3AMW0RGHOE9APHH3RPGSM8HQOH3NP5", "dateTime": 1519069582935}, {"current_trial": 191, "trialdata": {"rt": -1, "trial_type": "single-stim", "stimulus": "<p id=\"stim\">5</p>", "internal_node_id": "0.0-141.0-5.0", "time_elapsed": 908802, "key_press": -1, "trial_index": 191}, "uniqueid": "MTK2565:3AMW0RGHOE9APHH3RPGSM8HQOH3NP5", "dateTime": 1519069583938}, {"current_trial": 192, "trialdata": {"rt": -1, "trial_type": "single-stim", "stimulus": "<p id=\"stim\">4</p>", "internal_node_id": "0.0-141.0-6.0", "time_elapsed": 909805, "key_press": -1, "trial_index": 192}, "uniqueid": "MTK2565:3AMW0RGHOE9APHH3RPGSM8HQOH3NP5", "dateTime": 1519069584941}, {"current_trial": 193, "trialdata": {"rt": -1, "trial_type": "single-stim", "stimulus": "<p id=\"stim\">3</p>", "internal_node_id": "0.0-141.0-7.0", "time_elapsed": 910810, "key_press": -1, "trial_index": 193}, "uniqueid": "MTK2565:3AMW0RGHOE9APHH3RPGSM8HQOH3NP5", "dateTime": 1519069585948}, {"current_trial": 194, "trialdata": {"rt": -1, "trial_type": "single-stim", "stimulus": "<p id=\"stim\">2</p>", "internal_node_id": "0.0-141.0-8.0", "time_elapsed": 911818, "key_press": -1, "trial_index": 194}, "uniqueid": "MTK2565:3AMW0RGHOE9APHH3RPGSM8HQOH3NP5", "dateTime": 1519069586955}, {"current_trial": 195, "trialdata": {"rt": -1, "trial_type": "single-stim", "stimulus": "<p id=\"stim\">1</p>", "internal_node_id": "0.0-141.0-9.0", "time_elapsed": 912822, "key_press": -1, "trial_index": 195}, "uniqueid": "MTK2565:3AMW0RGHOE9APHH3RPGSM8HQOH3NP5", "dateTime": 1519069587958}, {"current_trial": 196, "trialdata": {"rt": -1, "trial_type": "single-stim", "stimulus": "<p id=\"stim\">+</p>", "internal_node_id": "0.0-142.0-0.0", "time_elapsed": 914327, "key_press": -1, "type": "FIXATION", "trial_index": 196}, "uniqueid": "MTK2565:3AMW0RGHOE9APHH3RPGSM8HQOH3NP5", "dateTime": 1519069589462}, {"current_trial": 197, "trialdata": {"rt": -1000, "trial_type": "single-audio", "word": "plaza", "stimulus": "/static/audio/wordpool/PLAZA.wav", "conditions": [12, 1600, "a", 12000], "internal_node_id": "0.0-143.0", "trial": 5, "time_elapsed": 916983, "serialpos": 0, "key_press": -1, "wordID": 1087, "type": "PRES_AUD", "trial_index": 197}, "uniqueid": "MTK2565:3AMW0RGHOE9APHH3RPGSM8HQOH3NP5", "dateTime": 1519069592119}, {"current_trial": 198, "trialdata": {"rt": -1000, "trial_type": "single-audio", "word": "mammal", "stimulus": "/static/audio/wordpool/MAMMAL.wav", "conditions": [12, 1600, "a", 12000], "internal_node_id": "0.0-144.0", "trial": 5, "time_elapsed": 919584, "serialpos": 1, "key_press": -1, "wordID": 860, "type": "PRES_AUD", "trial_index": 198}, "uniqueid": "MTK2565:3AMW0RGHOE9APHH3RPGSM8HQOH3NP5", "dateTime": 1519069594720}, {"current_trial": 199, "trialdata": {"rt": -1000, "trial_type": "single-audio", "word": "highway", "stimulus": "/static/audio/wordpool/HIGHWAY.wav", "conditions": [12, 1600, "a", 12000], "internal_node_id": "0.0-145.0", "trial": 5, "time_elapsed": 922277, "serialpos": 2, "key_press": -1, "wordID": 706, "type": "PRES_AUD", "trial_index": 199}, "uniqueid": "MTK2565:3AMW0RGHOE9APHH3RPGSM8HQOH3NP5", "dateTime": 1519069597412}, {"current_trial": 200, "trialdata": {"rt": -1000, "trial_type": "single-audio", "word": "forehead", "stimulus": "/static/audio/wordpool/FOREHEAD.wav", "conditions": [12, 1600, "a", 12000], "internal_node_id": "0.0-146.0", "trial": 5, "time_elapsed": 925014, "serialpos": 3, "key_press": -1, "wordID": 591, "type": "PRES_AUD", "trial_index": 200}, "uniqueid": "MTK2565:3AMW0RGHOE9APHH3RPGSM8HQOH3NP5", "dateTime": 1519069600149}, {"current_trial": 201, "trialdata": {"rt": -1000, "trial_type": "single-audio", "word": "friend", "stimulus": "/static/audio/wordpool/FRIEND.wav", "conditions": [12, 1600, "a", 12000], "internal_node_id": "0.0-147.0", "trial": 5, "time_elapsed": 927792, "serialpos": 4, "key_press": -1, "wordID": 605, "type": "PRES_AUD", "trial_index": 201}, "uniqueid": "MTK2565:3AMW0RGHOE9APHH3RPGSM8HQOH3NP5", "dateTime": 1519069602927}, {"current_trial": 202, "trialdata": {"rt": -1000, "trial_type": "single-audio", "word": "orchid", "stimulus": "/static/audio/wordpool/ORCHID.wav", "conditions": [12, 1600, "a", 12000], "internal_node_id": "0.0-148.0", "trial": 5, "time_elapsed": 930582, "serialpos": 5, "key_press": -1, "wordID": 981, "type": "PRES_AUD", "trial_index": 202}, "uniqueid": "MTK2565:3AMW0RGHOE9APHH3RPGSM8HQOH3NP5", "dateTime": 1519069605718}, {"current_trial": 203, "trialdata": {"rt": -1000, "trial_type": "single-audio", "word": "ozone", "stimulus": "/static/audio/wordpool/OZONE.wav", "conditions": [12, 1600, "a", 12000], "internal_node_id": "0.0-149.0", "trial": 5, "time_elapsed": 933271, "serialpos": 6, "key_press": -1, "wordID": 995, "type": "PRES_AUD", "trial_index": 203}, "uniqueid": "MTK2565:3AMW0RGHOE9APHH3RPGSM8HQOH3NP5", "dateTime": 1519069608406}, {"current_trial": 204, "trialdata": {"rt": -1000, "trial_type": "single-audio", "word": "smog", "stimulus": "/static/audio/wordpool/SMOG.wav", "conditions": [12, 1600, "a", 12000], "internal_node_id": "0.0-150.0", "trial": 5, "time_elapsed": 935683, "serialpos": 7, "key_press": -1, "wordID": 1329, "type": "PRES_AUD", "trial_index": 204}, "uniqueid": "MTK2565:3AMW0RGHOE9APHH3RPGSM8HQOH3NP5", "dateTime": 1519069610818}, {"current_trial": 205, "trialdata": {"rt": -1000, "trial_type": "single-audio", "word": "primate", "stimulus": "/static/audio/wordpool/PRIMATE.wav", "conditions": [12, 1600, "a", 12000], "internal_node_id": "0.0-151.0", "trial": 5, "time_elapsed": 938405, "serialpos": 8, "key_press": -1, "wordID": 1122, "type": "PRES_AUD", "trial_index": 205}, "uniqueid": "MTK2565:3AMW0RGHOE9APHH3RPGSM8HQOH3NP5", "dateTime": 1519069613540}, {"current_trial": 206, "trialdata": {"rt": -1000, "trial_type": "single-audio", "word": "bucket", "stimulus": "/static/audio/wordpool/BUCKET.wav", "conditions": [12, 1600, "a", 12000], "internal_node_id": "0.0-152.0", "trial": 5, "time_elapsed": 940985, "serialpos": 9, "key_press": -1, "wordID": 183, "type": "PRES_AUD", "trial_index": 206}, "uniqueid": "MTK2565:3AMW0RGHOE9APHH3RPGSM8HQOH3NP5", "dateTime": 1519069616120}, {"current_trial": 207, "trialdata": {"rt": -1000, "trial_type": "single-audio", "word": "creature", "stimulus": "/static/audio/wordpool/CREATURE.wav", "conditions": [12, 1600, "a", 12000], "internal_node_id": "0.0-153.0", "trial": 5, "time_elapsed": 943455, "serialpos": 10, "key_press": -1, "wordID": 402, "type": "PRES_AUD", "trial_index": 207}, "uniqueid": "MTK2565:3AMW0RGHOE9APHH3RPGSM8HQOH3NP5", "dateTime": 1519069618591}, {"current_trial": 208, "trialdata": {"rt": -1000, "trial_type": "single-audio", "word": "picnic", "stimulus": "/static/audio/wordpool/PICNIC.wav", "conditions": [12, 1600, "a", 12000], "internal_node_id": "0.0-154.0", "trial": 5, "time_elapsed": 945946, "serialpos": 11, "key_press": -1, "wordID": 1059, "type": "PRES_AUD", "trial_index": 208}, "uniqueid": "MTK2565:3AMW0RGHOE9APHH3RPGSM8HQOH3NP5", "dateTime": 1519069621081}, {"current_trial": 209, "trialdata": {"rt": -1, "trial_type": "single-stim", "stimulus": "", "internal_node_id": "0.0-155.0-0.0", "time_elapsed": 947171, "key_press": -1, "type": "PRE_RECALL_DELAY", "trial_index": 209}, "uniqueid": "MTK2565:3AMW0RGHOE9APHH3RPGSM8HQOH3NP5", "dateTime": 1519069622307}, {"current_trial": 210, "trialdata": {"rt": -1000, "trial_type": "single-audio", "stimulus": "/static/audio/400Hz.wav", "internal_node_id": "0.0-156.0", "time_elapsed": 947673, "key_press": -1, "type": "PRE_RECALL_ALERT", "trial_index": 210}, "uniqueid": "MTK2565:3AMW0RGHOE9APHH3RPGSM8HQOH3NP5", "dateTime": 1519069622809}, {"current_trial": 211, "trialdata": {"rt": [4691, 7251, 10051, 16355, 21955, 35747, 59027], "recwords": ["picnic", "mammal", "plaza", "forehead", "picnic", "orchid", "bucket"], "key_times": [1188, 1443, 1715, 3060, 3187, 4196, 4691, 5363, 5507, 5827, 5987, 6211, 6355, 7251, 7843, 8067, 8211, 8531, 9251, 10051, 13715, 13892, 14020, 14403, 14675, 14771, 15012, 15251, 16355, 17907, 18163, 18403, 18771, 18915, 20899, 21955, 33988, 34164, 34467, 34723, 34851, 35107, 35747, 45684, 45860, 46131, 46451, 46787, 47827, 48019, 48179, 49155, 50068, 50963, 57635, 57795, 58211, 59027], "trial_type": "free-recall", "conditions": [12, 1600, "a", 12000], "internal_node_id": "0.0-157.0-0.0", "key_presses": [80, 73, 67, 78, 73, 67, 13, 77, 65, 77, 77, 65, 76, 13, 80, 76, 65, 90, 65, 13, 70, 79, 82, 69, 72, 69, 65, 68, 13, 80, 73, 67, 78, 73, 67, 13, 79, 82, 67, 72, 73, 68, 13, 66, 85, 75, 69, 84, 37, 37, 37, 86, 8, 67, 39, 39, 39, 13], "trial": 5, "time_elapsed": 1007678, "type": "FREE_RECALL", "trial_index": 211}, "uniqueid": "MTK2565:3AMW0RGHOE9APHH3RPGSM8HQOH3NP5", "dateTime": 1519069682823}, {"current_trial": 212, "trialdata": {"rt": 1687, "trial_type": "text", "internal_node_id": "0.0-158.0", "time_elapsed": 1011377, "key_press": 32, "type": "INSTRUCTIONS", "trial_index": 212}, "uniqueid": "MTK2565:3AMW0RGHOE9APHH3RPGSM8HQOH3NP5", "dateTime": 1519069686513}, {"current_trial": 213, "trialdata": {"rt": [2313, 4458, 6489, 8249, 11402, 13545, 15289, 18297, 20505], "trial_type": "math-distractor", "key_times": [1337, 1689, 2313, 3993, 4217, 4458, 6026, 6249, 6489, 7801, 7993, 8249, 10937, 11113, 11402, 12937, 13177, 13545, 14762, 14953, 15289, 17385, 17689, 18297, 20041, 20217, 20505], "responses": ["19", "13", "10", "21", "14", "19", "16", "26", "16"], "num2": [6, 1, 1, 8, 4, 9, 6, 8, 5, 9], "num3": [4, 6, 2, 7, 6, 5, 3, 8, 9, 9], "conditions": [24, 800, "a", 24000], "internal_node_id": "0.0-159.0", "key_presses": [97, 105, 13, 97, 99, 13, 97, 96, 13, 98, 97, 13, 97, 100, 13, 97, 105, 13, 97, 102, 13, 98, 102, 13, 97, 102, 13], "trial": 6, "time_elapsed": 1037385, "type": "DISTRACTOR", "trial_index": 213, "num1": [9, 6, 7, 6, 4, 5, 7, 9, 2, 6]}, "uniqueid": "MTK2565:3AMW0RGHOE9APHH3RPGSM8HQOH3NP5", "dateTime": 1519069712520}, {"current_trial": 214, "trialdata": {"rt": -1, "trial_type": "single-stim", "stimulus": "<p id=\"stim\">10</p>", "internal_node_id": "0.0-160.0-0.0", "time_elapsed": 1040388, "key_press": -1, "trial_index": 214}, "uniqueid": "MTK2565:3AMW0RGHOE9APHH3RPGSM8HQOH3NP5", "dateTime": 1519069715523}, {"current_trial": 215, "trialdata": {"rt": -1, "trial_type": "single-stim", "stimulus": "<p id=\"stim\">9</p>", "internal_node_id": "0.0-160.0-1.0", "time_elapsed": 1041389, "key_press": -1, "trial_index": 215}, "uniqueid": "MTK2565:3AMW0RGHOE9APHH3RPGSM8HQOH3NP5", "dateTime": 1519069716524}, {"current_trial": 216, "trialdata": {"rt": -1, "trial_type": "single-stim", "stimulus": "<p id=\"stim\">8</p>", "internal_node_id": "0.0-160.0-2.0", "time_elapsed": 1042391, "key_press": -1, "trial_index": 216}, "uniqueid": "MTK2565:3AMW0RGHOE9APHH3RPGSM8HQOH3NP5", "dateTime": 1519069717526}, {"current_trial": 217, "trialdata": {"rt": -1, "trial_type": "single-stim", "stimulus": "<p id=\"stim\">7</p>", "internal_node_id": "0.0-160.0-3.0", "time_elapsed": 1043392, "key_press": -1, "trial_index": 217}, "uniqueid": "MTK2565:3AMW0RGHOE9APHH3RPGSM8HQOH3NP5", "dateTime": 1519069718527}, {"current_trial": 218, "trialdata": {"rt": -1, "trial_type": "single-stim", "stimulus": "<p id=\"stim\">6</p>", "internal_node_id": "0.0-160.0-4.0", "time_elapsed": 1044394, "key_press": -1, "trial_index": 218}, "uniqueid": "MTK2565:3AMW0RGHOE9APHH3RPGSM8HQOH3NP5", "dateTime": 1519069719530}, {"current_trial": 219, "trialdata": {"rt": -1, "trial_type": "single-stim", "stimulus": "<p id=\"stim\">5</p>", "internal_node_id": "0.0-160.0-5.0", "time_elapsed": 1045396, "key_press": -1, "trial_index": 219}, "uniqueid": "MTK2565:3AMW0RGHOE9APHH3RPGSM8HQOH3NP5", "dateTime": 1519069720531}, {"current_trial": 220, "trialdata": {"rt": -1, "trial_type": "single-stim", "stimulus": "<p id=\"stim\">4</p>", "internal_node_id": "0.0-160.0-6.0", "time_elapsed": 1046397, "key_press": -1, "trial_index": 220}, "uniqueid": "MTK2565:3AMW0RGHOE9APHH3RPGSM8HQOH3NP5", "dateTime": 1519069721532}, {"current_trial": 221, "trialdata": {"rt": -1, "trial_type": "single-stim", "stimulus": "<p id=\"stim\">3</p>", "internal_node_id": "0.0-160.0-7.0", "time_elapsed": 1047398, "key_press": -1, "trial_index": 221}, "uniqueid": "MTK2565:3AMW0RGHOE9APHH3RPGSM8HQOH3NP5", "dateTime": 1519069722534}, {"current_trial": 222, "trialdata": {"rt": -1, "trial_type": "single-stim", "stimulus": "<p id=\"stim\">2</p>", "internal_node_id": "0.0-160.0-8.0", "time_elapsed": 1048401, "key_press": -1, "trial_index": 222}, "uniqueid": "MTK2565:3AMW0RGHOE9APHH3RPGSM8HQOH3NP5", "dateTime": 1519069723537}, {"current_trial": 223, "trialdata": {"rt": -1, "trial_type": "single-stim", "stimulus": "<p id=\"stim\">1</p>", "internal_node_id": "0.0-160.0-9.0", "time_elapsed": 1049403, "key_press": -1, "trial_index": 223}, "uniqueid": "MTK2565:3AMW0RGHOE9APHH3RPGSM8HQOH3NP5", "dateTime": 1519069724539}, {"current_trial": 224, "trialdata": {"rt": -1, "trial_type": "single-stim", "stimulus": "<p id=\"stim\">+</p>", "internal_node_id": "0.0-161.0-0.0", "time_elapsed": 1050904, "key_press": -1, "type": "FIXATION", "trial_index": 224}, "uniqueid": "MTK2565:3AMW0RGHOE9APHH3RPGSM8HQOH3NP5", "dateTime": 1519069726040}, {"current_trial": 225, "trialdata": {"rt": -1000, "trial_type": "single-audio", "word": "asia", "stimulus": "/static/audio/wordpool/ASIA.wav", "conditions": [24, 800, "a", 24000], "internal_node_id": "0.0-162.0", "trial": 6, "time_elapsed": 1052841, "serialpos": 0, "key_press": -1, "wordID": 45, "type": "PRES_AUD", "trial_index": 225}, "uniqueid": "MTK2565:3AMW0RGHOE9APHH3RPGSM8HQOH3NP5", "dateTime": 1519069727977}, {"current_trial": 226, "trialdata": {"rt": -1000, "trial_type": "single-audio", "word": "lizard", "stimulus": "/static/audio/wordpool/LIZARD.wav", "conditions": [24, 800, "a", 24000], "internal_node_id": "0.0-163.0", "trial": 6, "time_elapsed": 1054482, "serialpos": 1, "key_press": -1, "wordID": 833, "type": "PRES_AUD", "trial_index": 226}, "uniqueid": "MTK2565:3AMW0RGHOE9APHH3RPGSM8HQOH3NP5", "dateTime": 1519069729618}, {"current_trial": 227, "trialdata": {"rt": -1000, "trial_type": "single-audio", "word": "penguin", "stimulus": "/static/audio/wordpool/PENGUIN.wav", "conditions": [24, 800, "a", 24000], "internal_node_id": "0.0-164.0", "trial": 6, "time_elapsed": 1056444, "serialpos": 2, "key_press": -1, "wordID": 1043, "type": "PRES_AUD", "trial_index": 227}, "uniqueid": "MTK2565:3AMW0RGHOE9APHH3RPGSM8HQOH3NP5", "dateTime": 1519069731580}, {"current_trial": 228, "trialdata": {"rt": -1000, "trial_type": "single-audio", "word": "church", "stimulus": "/static/audio/wordpool/CHURCH.wav", "conditions": [24, 800, "a", 24000], "internal_node_id": "0.0-165.0", "trial": 6, "time_elapsed": 1058174, "serialpos": 3, "key_press": -1, "wordID": 306, "type": "PRES_AUD", "trial_index": 228}, "uniqueid": "MTK2565:3AMW0RGHOE9APHH3RPGSM8HQOH3NP5", "dateTime": 1519069733309}, {"current_trial": 229, "trialdata": {"rt": -1000, "trial_type": "single-audio", "word": "sausage", "stimulus": "/static/audio/wordpool/SAUSAGE.wav", "conditions": [24, 800, "a", 24000], "internal_node_id": "0.0-166.0", "trial": 6, "time_elapsed": 1060098, "serialpos": 4, "key_press": -1, "wordID": 1237, "type": "PRES_AUD", "trial_index": 229}, "uniqueid": "MTK2565:3AMW0RGHOE9APHH3RPGSM8HQOH3NP5", "dateTime": 1519069735233}, {"current_trial": 230, "trialdata": {"rt": -1000, "trial_type": "single-audio", "word": "scarecrow", "stimulus": "/static/audio/wordpool/SCARECROW.wav", "conditions": [24, 800, "a", 24000], "internal_node_id": "0.0-167.0", "trial": 6, "time_elapsed": 1061833, "serialpos": 5, "key_press": -1, "wordID": 1244, "type": "PRES_AUD", "trial_index": 230}, "uniqueid": "MTK2565:3AMW0RGHOE9APHH3RPGSM8HQOH3NP5", "dateTime": 1519069736968}, {"current_trial": 231, "trialdata": {"rt": -1000, "trial_type": "single-audio", "word": "blender", "stimulus": "/static/audio/wordpool/BLENDER.wav", "conditions": [24, 800, "a", 24000], "internal_node_id": "0.0-168.0", "trial": 6, "time_elapsed": 1063471, "serialpos": 6, "key_press": -1, "wordID": 135, "type": "PRES_AUD", "trial_index": 231}, "uniqueid": "MTK2565:3AMW0RGHOE9APHH3RPGSM8HQOH3NP5", "dateTime": 1519069738606}, {"current_trial": 232, "trialdata": {"rt": -1000, "trial_type": "single-audio", "word": "convict", "stimulus": "/static/audio/wordpool/CONVICT.wav", "conditions": [24, 800, "a", 24000], "internal_node_id": "0.0-169.0", "trial": 6, "time_elapsed": 1065348, "serialpos": 7, "key_press": -1, "wordID": 370, "type": "PRES_AUD", "trial_index": 232}, "uniqueid": "MTK2565:3AMW0RGHOE9APHH3RPGSM8HQOH3NP5", "dateTime": 1519069740484}, {"current_trial": 233, "trialdata": {"rt": -1000, "trial_type": "single-audio", "word": "gymnast", "stimulus": "/static/audio/wordpool/GYMNAST.wav", "conditions": [24, 800, "a", 24000], "internal_node_id": "0.0-170.0", "trial": 6, "time_elapsed": 1067099, "serialpos": 8, "key_press": -1, "wordID": 674, "type": "PRES_AUD", "trial_index": 233}, "uniqueid": "MTK2565:3AMW0RGHOE9APHH3RPGSM8HQOH3NP5", "dateTime": 1519069742234}, {"current_trial": 234, "trialdata": {"rt": -1000, "trial_type": "single-audio", "word": "mailman", "stimulus": "/static/audio/wordpool/MAILMAN.wav", "conditions": [24, 800, "a", 24000], "internal_node_id": "0.0-171.0", "trial": 6, "time_elapsed": 1069040, "serialpos": 9, "key_press": -1, "wordID": 857, "type": "PRES_AUD", "trial_index": 234}, "uniqueid": "MTK2565:3AMW0RGHOE9APHH3RPGSM8HQOH3NP5", "dateTime": 1519069744175}, {"current_trial": 235, "trialdata": {"rt": -1000, "trial_type": "single-audio", "word": "japan", "stimulus": "/static/audio/wordpool/JAPAN.wav", "conditions": [24, 800, "a", 24000], "internal_node_id": "0.0-172.0", "trial": 6, "time_elapsed": 1070669, "serialpos": 10, "key_press": -1, "wordID": 748, "type": "PRES_AUD", "trial_index": 235}, "uniqueid": "MTK2565:3AMW0RGHOE9APHH3RPGSM8HQOH3NP5", "dateTime": 1519069745805}, {"current_trial": 236, "trialdata": {"rt": -1000, "trial_type": "single-audio", "word": "scotch", "stimulus": "/static/audio/wordpool/SCOTCH.wav", "conditions": [24, 800, "a", 24000], "internal_node_id": "0.0-173.0", "trial": 6, "time_elapsed": 1072434, "serialpos": 11, "key_press": -1, "wordID": 1250, "type": "PRES_AUD", "trial_index": 236}, "uniqueid": "MTK2565:3AMW0RGHOE9APHH3RPGSM8HQOH3NP5", "dateTime": 1519069747570}, {"current_trial": 237, "trialdata": {"rt": -1000, "trial_type": "single-audio", "word": "girl", "stimulus": "/static/audio/wordpool/GIRL.wav", "conditions": [24, 800, "a", 24000], "internal_node_id": "0.0-174.0", "trial": 6, "time_elapsed": 1074215, "serialpos": 12, "key_press": -1, "wordID": 636, "type": "PRES_AUD", "trial_index": 237}, "uniqueid": "MTK2565:3AMW0RGHOE9APHH3RPGSM8HQOH3NP5", "dateTime": 1519069749351}, {"current_trial": 238, "trialdata": {"rt": -1000, "trial_type": "single-audio", "word": "seagull", "stimulus": "/static/audio/wordpool/SEAGULL.wav", "conditions": [24, 800, "a", 24000], "internal_node_id": "0.0-175.0", "trial": 6, "time_elapsed": 1076081, "serialpos": 13, "key_press": -1, "wordID": 1260, "type": "PRES_AUD", "trial_index": 238}, "uniqueid": "MTK2565:3AMW0RGHOE9APHH3RPGSM8HQOH3NP5", "dateTime": 1519069751217}, {"current_trial": 239, "trialdata": {"rt": -1000, "trial_type": "single-audio", "word": "swimmer", "stimulus": "/static/audio/wordpool/SWIMMER.wav", "conditions": [24, 800, "a", 24000], "internal_node_id": "0.0-176.0", "trial": 6, "time_elapsed": 1077857, "serialpos": 14, "key_press": -1, "wordID": 1419, "type": "PRES_AUD", "trial_index": 239}, "uniqueid": "MTK2565:3AMW0RGHOE9APHH3RPGSM8HQOH3NP5", "dateTime": 1519069752992}, {"current_trial": 240, "trialdata": {"rt": -1000, "trial_type": "single-audio", "word": "pork", "stimulus": "/static/audio/wordpool/PORK.wav", "conditions": [24, 800, "a", 24000], "internal_node_id": "0.0-177.0", "trial": 6, "time_elapsed": 1079815, "serialpos": 15, "key_press": -1, "wordID": 1107, "type": "PRES_AUD", "trial_index": 240}, "uniqueid": "MTK2565:3AMW0RGHOE9APHH3RPGSM8HQOH3NP5", "dateTime": 1519069754950}, {"current_trial": 241, "trialdata": {"rt": -1000, "trial_type": "single-audio", "word": "sister", "stimulus": "/static/audio/wordpool/SISTER.wav", "conditions": [24, 800, "a", 24000], "internal_node_id": "0.0-178.0", "trial": 6, "time_elapsed": 1081814, "serialpos": 16, "key_press": -1, "wordID": 1311, "type": "PRES_AUD", "trial_index": 241}, "uniqueid": "MTK2565:3AMW0RGHOE9APHH3RPGSM8HQOH3NP5", "dateTime": 1519069756949}, {"current_trial": 242, "trialdata": {"rt": -1000, "trial_type": "single-audio", "word": "stone", "stimulus": "/static/audio/wordpool/STONE.wav", "conditions": [24, 800, "a", 24000], "internal_node_id": "0.0-179.0", "trial": 6, "time_elapsed": 1083444, "serialpos": 17, "key_press": -1, "wordID": 1384, "type": "PRES_AUD", "trial_index": 242}, "uniqueid": "MTK2565:3AMW0RGHOE9APHH3RPGSM8HQOH3NP5", "dateTime": 1519069758579}, {"current_trial": 243, "trialdata": {"rt": -1000, "trial_type": "single-audio", "word": "bouquet", "stimulus": "/static/audio/wordpool/BOUQUET.wav", "conditions": [24, 800, "a", 24000], "internal_node_id": "0.0-180.0", "trial": 6, "time_elapsed": 1085355, "serialpos": 18, "key_press": -1, "wordID": 156, "type": "PRES_AUD", "trial_index": 243}, "uniqueid": "MTK2565:3AMW0RGHOE9APHH3RPGSM8HQOH3NP5", "dateTime": 1519069760490}, {"current_trial": 244, "trialdata": {"rt": -1000, "trial_type": "single-audio", "word": "notebook", "stimulus": "/static/audio/wordpool/NOTEBOOK.wav", "conditions": [24, 800, "a", 24000], "internal_node_id": "0.0-181.0", "trial": 6, "time_elapsed": 1087352, "serialpos": 19, "key_press": -1, "wordID": 958, "type": "PRES_AUD", "trial_index": 244}, "uniqueid": "MTK2565:3AMW0RGHOE9APHH3RPGSM8HQOH3NP5", "dateTime": 1519069762488}, {"current_trial": 245, "trialdata": {"rt": -1000, "trial_type": "single-audio", "word": "princess", "stimulus": "/static/audio/wordpool/PRINCESS.wav", "conditions": [24, 800, "a", 24000], "internal_node_id": "0.0-182.0", "trial": 6, "time_elapsed": 1089242, "serialpos": 20, "key_press": -1, "wordID": 1124, "type": "PRES_AUD", "trial_index": 245}, "uniqueid": "MTK2565:3AMW0RGHOE9APHH3RPGSM8HQOH3NP5", "dateTime": 1519069764378}, {"current_trial": 246, "trialdata": {"rt": -1000, "trial_type": "single-audio", "word": "actress", "stimulus": "/static/audio/wordpool/ACTRESS.wav", "conditions": [24, 800, "a", 24000], "internal_node_id": "0.0-183.0", "trial": 6, "time_elapsed": 1091141, "serialpos": 21, "key_press": -1, "wordID": 5, "type": "PRES_AUD", "trial_index": 246}, "uniqueid": "MTK2565:3AMW0RGHOE9APHH3RPGSM8HQOH3NP5", "dateTime": 1519069766277}, {"current_trial": 247, "trialdata": {"rt": -1000, "trial_type": "single-audio", "word": "seafood", "stimulus": "/static/audio/wordpool/SEAFOOD.wav", "conditions": [24, 800, "a", 24000], "internal_node_id": "0.0-184.0", "trial": 6, "time_elapsed": 1092916, "serialpos": 22, "key_press": -1, "wordID": 1259, "type": "PRES_AUD", "trial_index"