{"assignmentId": "388U7OUMF88SGY5B3BIJGRLSFTY0RP", "workerId": "MTK2046", "questiondata": {"origin": "United States", "strat-rehearsal": "93", "marital": "Married/Domestic Partnership", "education": "Associate degree", "ethnicity": "Not Hispanic", "color_depth": 24, "distracted": "No", "wrote-notes": "Yes", "strat-other": "", "screen_width": 1366, "avail_screen_width": 1366, "avail_screen_height": 720, "strat-image": "42", "language": "english", "gender": "Female", "age": "26", "gender_other": "", "race": ["White"], "strat-categorize": "97", "pixel_depth": 24, "strat-spatial": "14", "strat-story": "81", "race_other": "", "screen_height": 768}, "bonus": 0, "hitId": "3C8QQOM6JP8QXBTKCF5RBZG5DFWILT", "counterbalance": 63, "useragent": "Mozilla/5.0 (X11; CrOS x86_64 10032.86.0) AppleWebKit/537.36 (KHTML, like Gecko) Chrome/63.0.3239.140 Safari/537.36", "eventdata": [{"eventtype": "initialized", "interval": 0, "value": null, "timestamp": 1516656006487}, {"eventtype": "window_resize", "interval": 1, "value": [1366, 656], "timestamp": 1516656006488}, {"eventtype": "focus", "interval": 1632784, "value": "off", "timestamp": 1516657639272}, {"eventtype": "focus", "interval": 9272, "value": "on", "timestamp": 1516657648544}, {"eventtype": "focus", "interval": 134600, "value": "off", "timestamp": 1516657783144}, {"eventtype": "focus", "interval": 6829, "value": "on", "timestamp": 1516657789973}, {"eventtype": "focus", "interval": 992257, "value": "off", "timestamp": 1516658782230}, {"eventtype": "focus", "interval": 1553, "value": "on", "timestamp": 1516658783783}, {"eventtype": "focus", "interval": 628901, "value": "off", "timestamp": 1516659412684}, {"eventtype": "focus", "interval": 1349, "value": "on", "timestamp": 1516659414033}, {"eventtype": "focus", "interval": 53839, "value": "off", "timestamp": 1516659467872}, {"eventtype": "focus", "interval": 2789, "value": "on", "timestamp": 1516659470661}], "data": [{"current_trial": 0, "trialdata": {"rt": 1769, "trial_type": "text", "internal_node_id": "0.0-0.0", "time_elapsed": 1775, "key_press": 32, "type": "INSTRUCTIONS", "trial_index": 0}, "uniqueid": "MTK2046:388U7OUMF88SGY5B3BIJGRLSFTY0RP", "dateTime": 1516656008761}, {"current_trial": 1, "trialdata": {"rt": 376466, "trial_type": "text", "internal_node_id": "0.0-1.0", "time_elapsed": 378247, "key_press": 32, "type": "INSTRUCTIONS", "trial_index": 1}, "uniqueid": "MTK2046:388U7OUMF88SGY5B3BIJGRLSFTY0RP", "dateTime": 1516656385231}, {"current_trial": 2, "trialdata": {"rt": [50280], "trial_type": "audio-test", "responses": ["ocean"], "internal_node_id": "0.0-2.0", "time_elapsed": 428571, "type": "AUDIO_TEST", "trial_index": 2}, "uniqueid": "MTK2046:388U7OUMF88SGY5B3BIJGRLSFTY0RP", "dateTime": 1516656435555}, {"current_trial": 3, "trialdata": {"rt": [10669], "trial_type": "audio-test", "responses": ["crystal"], "internal_node_id": "0.0-3.0", "time_elapsed": 439260, "type": "AUDIO_TEST", "trial_index": 3}, "uniqueid": "MTK2046:388U7OUMF88SGY5B3BIJGRLSFTY0RP", "dateTime": 1516656446243}, {"current_trial": 4, "trialdata": {"rt": [5557], "trial_type": "audio-test", "responses": ["spice"], "internal_node_id": "0.0-4.0", "time_elapsed": 444828, "type": "AUDIO_TEST", "trial_index": 4}, "uniqueid": "MTK2046:388U7OUMF88SGY5B3BIJGRLSFTY0RP", "dateTime": 1516656451811}, {"current_trial": 5, "trialdata": {"rt": 24725, "trial_type": "survey-text", "responses": "{\"Q0\":\"1:30 Am\",\"Q1\":\"6:45 am\",\"Q2\":\"5\"}", "internal_node_id": "0.0-5.0", "time_elapsed": 470314, "type": "SLEEP_SURVEY", "trial_index": 5}, "uniqueid": "MTK2046:388U7OUMF88SGY5B3BIJGRLSFTY0RP", "dateTime": 1516656477297}, {"current_trial": 6, "trialdata": {"rt": 13281, "trial_type": "text", "internal_node_id": "0.0-6.0", "time_elapsed": 484599, "key_press": 40, "type": "INSTRUCTIONS", "trial_index": 6}, "uniqueid": "MTK2046:388U7OUMF88SGY5B3BIJGRLSFTY0RP", "dateTime": 1516656491583}, {"current_trial": 7, "trialdata": {"rt": 18484, "trial_type": "text", "internal_node_id": "0.0-7.0", "time_elapsed": 503590, "key_press": 32, "type": "INSTRUCTIONS", "trial_index": 7}, "uniqueid": "MTK2046:388U7OUMF88SGY5B3BIJGRLSFTY0RP", "dateTime": 1516656510574}, {"current_trial": 8, "trialdata": {"rt": 24335, "trial_type": "text", "internal_node_id": "0.0-8.0", "time_elapsed": 528428, "key_press": 32, "type": "INSTRUCTIONS", "trial_index": 8}, "uniqueid": "MTK2046:388U7OUMF88SGY5B3BIJGRLSFTY0RP", "dateTime": 1516656535412}, {"current_trial": 9, "trialdata": {"rt": [4359, 8384, 15491], "trial_type": "math-distractor", "key_times": [2682, 2882, 3538, 4359, 7648, 7833, 8384, 14083, 14939, 15491], "responses": ["15 ", "19", "18"], "num2": [5, 8, 2, 3], "num3": [4, 7, 7, 7], "conditions": [18, 1200, "v", 18000], "internal_node_id": "0.0-9.0", "key_presses": [49, 53, 32, 13, 49, 57, 13, 49, 56, 13], "trial": 0, "time_elapsed": 547460, "type": "DISTRACTOR", "trial_index": 9, "num1": [6, 4, 9, 6]}, "uniqueid": "MTK2046:388U7OUMF88SGY5B3BIJGRLSFTY0RP", "dateTime": 1516656554444}, {"current_trial": 10, "trialdata": {"rt": -1, "trial_type": "single-stim", "stimulus": "<p id=\"stim\">10</p>", "internal_node_id": "0.0-10.0-0.0", "time_elapsed": 550464, "key_press": -1, "trial_index": 10}, "uniqueid": "MTK2046:388U7OUMF88SGY5B3BIJGRLSFTY0RP", "dateTime": 1516656557448}, {"current_trial": 11, "trialdata": {"rt": -1, "trial_type": "single-stim", "stimulus": "<p id=\"stim\">9</p>", "internal_node_id": "0.0-10.0-1.0", "time_elapsed": 551466, "key_press": -1, "trial_index": 11}, "uniqueid": "MTK2046:388U7OUMF88SGY5B3BIJGRLSFTY0RP", "dateTime": 1516656558450}, {"current_trial": 12, "trialdata": {"rt": -1, "trial_type": "single-stim", "stimulus": "<p id=\"stim\">8</p>", "internal_node_id": "0.0-10.0-2.0", "time_elapsed": 552469, "key_press": -1, "trial_index": 12}, "uniqueid": "MTK2046:388U7OUMF88SGY5B3BIJGRLSFTY0RP", "dateTime": 1516656559452}, {"current_trial": 13, "trialdata": {"rt": -1, "trial_type": "single-stim", "stimulus": "<p id=\"stim\">7</p>", "internal_node_id": "0.0-10.0-3.0", "time_elapsed": 553477, "key_press": -1, "trial_index": 13}, "uniqueid": "MTK2046:388U7OUMF88SGY5B3BIJGRLSFTY0RP", "dateTime": 1516656560461}, {"current_trial": 14, "trialdata": {"rt": -1, "trial_type": "single-stim", "stimulus": "<p id=\"stim\">6</p>", "internal_node_id": "0.0-10.0-4.0", "time_elapsed": 554480, "key_press": -1, "trial_index": 14}, "uniqueid": "MTK2046:388U7OUMF88SGY5B3BIJGRLSFTY0RP", "dateTime": 1516656561463}, {"current_trial": 15, "trialdata": {"rt": -1, "trial_type": "single-stim", "stimulus": "<p id=\"stim\">5</p>", "internal_node_id": "0.0-10.0-5.0", "time_elapsed": 555483, "key_press": -1, "trial_index": 15}, "uniqueid": "MTK2046:388U7OUMF88SGY5B3BIJGRLSFTY0RP", "dateTime": 1516656562466}, {"current_trial": 16, "trialdata": {"rt": -1, "trial_type": "single-stim", "stimulus": "<p id=\"stim\">4</p>", "internal_node_id": "0.0-10.0-6.0", "time_elapsed": 556486, "key_press": -1, "trial_index": 16}, "uniqueid": "MTK2046:388U7OUMF88SGY5B3BIJGRLSFTY0RP", "dateTime": 1516656563469}, {"current_trial": 17, "trialdata": {"rt": -1, "trial_type": "single-stim", "stimulus": "<p id=\"stim\">3</p>", "internal_node_id": "0.0-10.0-7.0", "time_elapsed": 557497, "key_press": -1, "trial_index": 17}, "uniqueid": "MTK2046:388U7OUMF88SGY5B3BIJGRLSFTY0RP", "dateTime": 1516656564480}, {"current_trial": 18, "trialdata": {"rt": -1, "trial_type": "single-stim", "stimulus": "<p id=\"stim\">2</p>", "internal_node_id": "0.0-10.0-8.0", "time_elapsed": 558500, "key_press": -1, "trial_index": 18}, "uniqueid": "MTK2046:388U7OUMF88SGY5B3BIJGRLSFTY0RP", "dateTime": 1516656565483}, {"current_trial": 19, "trialdata": {"rt": -1, "trial_type": "single-stim", "stimulus": "<p id=\"stim\">1</p>", "internal_node_id": "0.0-10.0-9.0", "time_elapsed": 559507, "key_press": -1, "trial_index": 19}, "uniqueid": "MTK2046:388U7OUMF88SGY5B3BIJGRLSFTY0RP", "dateTime": 1516656566490}, {"current_trial": 20, "trialdata": {"rt": -1, "trial_type": "single-stim", "stimulus": "<p id=\"stim\">+</p>", "internal_node_id": "0.0-11.0-0.0", "time_elapsed": 561010, "key_press": -1, "type": "FIXATION", "trial_index": 20}, "uniqueid": "MTK2046:388U7OUMF88SGY5B3BIJGRLSFTY0RP", "dateTime": 1516656567993}, {"current_trial": 21, "trialdata": {"rt": -1, "trial_type": "single-stim", "word": "window", "stimulus": "<p id=\"stim\">WINDOW</p>", "conditions": [18, 1200, "v", 18000], "internal_node_id": "0.0-12.0", "trial": 0, "time_elapsed": 562213, "serialpos": 0, "key_press": -1, "wordID": 1610, "type": "PRES_VIS", "trial_index": 21}, "uniqueid": "MTK2046:388U7OUMF88SGY5B3BIJGRLSFTY0RP", "dateTime": 1516656569196}, {"current_trial": 22, "trialdata": {"rt": -1, "trial_type": "single-stim", "word": "diver", "stimulus": "<p id=\"stim\">DIVER</p>", "conditions": [18, 1200, "v", 18000], "internal_node_id": "0.0-13.0", "trial": 0, "time_elapsed": 564473, "serialpos": 1, "key_press": -1, "wordID": 475, "type": "PRES_VIS", "trial_index": 22}, "uniqueid": "MTK2046:388U7OUMF88SGY5B3BIJGRLSFTY0RP", "dateTime": 1516656571456}, {"current_trial": 23, "trialdata": {"rt": -1, "trial_type": "single-stim", "word": "lightning", "stimulus": "<p id=\"stim\">LIGHTNING</p>", "conditions": [18, 1200, "v", 18000], "internal_node_id": "0.0-14.0", "trial": 0, "time_elapsed": 566652, "serialpos": 2, "key_press": -1, "wordID": 819, "type": "PRES_VIS", "trial_index": 23}, "uniqueid": "MTK2046:388U7OUMF88SGY5B3BIJGRLSFTY0RP", "dateTime": 1516656573636}, {"current_trial": 24, "trialdata": {"rt": -1, "trial_type": "single-stim", "word": "box", "stimulus": "<p id=\"stim\">BOX</p>", "conditions": [18, 1200, "v", 18000], "internal_node_id": "0.0-15.0", "trial": 0, "time_elapsed": 568901, "serialpos": 3, "key_press": -1, "wordID": 158, "type": "PRES_VIS", "trial_index": 24}, "uniqueid": "MTK2046:388U7OUMF88SGY5B3BIJGRLSFTY0RP", "dateTime": 1516656575885}, {"current_trial": 25, "trialdata": {"rt": -1, "trial_type": "single-stim", "word": "label", "stimulus": "<p id=\"stim\">LABEL</p>", "conditions": [18, 1200, "v", 18000], "internal_node_id": "0.0-16.0", "trial": 0, "time_elapsed": 571137, "serialpos": 4, "key_press": -1, "wordID": 789, "type": "PRES_VIS", "trial_index": 25}, "uniqueid": "MTK2046:388U7OUMF88SGY5B3BIJGRLSFTY0RP", "dateTime": 1516656578121}, {"current_trial": 26, "trialdata": {"rt": -1, "trial_type": "single-stim", "word": "goblin", "stimulus": "<p id=\"stim\">GOBLIN</p>", "conditions": [18, 1200, "v", 18000], "internal_node_id": "0.0-17.0", "trial": 0, "time_elapsed": 573292, "serialpos": 5, "key_press": -1, "wordID": 644, "type": "PRES_VIS", "trial_index": 26}, "uniqueid": "MTK2046:388U7OUMF88SGY5B3BIJGRLSFTY0RP", "dateTime": 1516656580276}, {"current_trial": 27, "trialdata": {"rt": -1, "trial_type": "single-stim", "word": "beaver", "stimulus": "<p id=\"stim\">BEAVER</p>", "conditions": [18, 1200, "v", 18000], "internal_node_id": "0.0-18.0", "trial": 0, "time_elapsed": 575355, "serialpos": 6, "key_press": -1, "wordID": 108, "type": "PRES_VIS", "trial_index": 27}, "uniqueid": "MTK2046:388U7OUMF88SGY5B3BIJGRLSFTY0RP", "dateTime": 1516656582338}, {"current_trial": 28, "trialdata": {"rt": -1, "trial_type": "single-stim", "word": "thread", "stimulus": "<p id=\"stim\">THREAD</p>", "conditions": [18, 1200, "v", 18000], "internal_node_id": "0.0-19.0", "trial": 0, "time_elapsed": 577535, "serialpos": 7, "key_press": -1, "wordID": 1459, "type": "PRES_VIS", "trial_index": 28}, "uniqueid": "MTK2046:388U7OUMF88SGY5B3BIJGRLSFTY0RP", "dateTime": 1516656584518}, {"current_trial": 29, "trialdata": {"rt": -1, "trial_type": "single-stim", "word": "sunrise", "stimulus": "<p id=\"stim\">SUNRISE</p>", "conditions": [18, 1200, "v", 18000], "internal_node_id": "0.0-20.0", "trial": 0, "time_elapsed": 579555, "serialpos": 8, "key_press": -1, "wordID": 1406, "type": "PRES_VIS", "trial_index": 29}, "uniqueid": "MTK2046:388U7OUMF88SGY5B3BIJGRLSFTY0RP", "dateTime": 1516656586538}, {"current_trial": 30, "trialdata": {"rt": -1, "trial_type": "single-stim", "word": "dragon", "stimulus": "<p id=\"stim\">DRAGON</p>", "conditions": [18, 1200, "v", 18000], "internal_node_id": "0.0-21.0", "trial": 0, "time_elapsed": 581769, "serialpos": 9, "key_press": -1, "wordID": 491, "type": "PRES_VIS", "trial_index": 30}, "uniqueid": "MTK2046:388U7OUMF88SGY5B3BIJGRLSFTY0RP", "dateTime": 1516656588752}, {"current_trial": 31, "trialdata": {"rt": -1, "trial_type": "single-stim", "word": "backbone", "stimulus": "<p id=\"stim\">BACKBONE</p>", "conditions": [18, 1200, "v", 18000], "internal_node_id": "0.0-22.0", "trial": 0, "time_elapsed": 584169, "serialpos": 10, "key_press": -1, "wordID": 65, "type": "PRES_VIS", "trial_index": 31}, "uniqueid": "MTK2046:388U7OUMF88SGY5B3BIJGRLSFTY0RP", "dateTime": 1516656591152}, {"current_trial": 32, "trialdata": {"rt": -1, "trial_type": "single-stim", "word": "blade", "stimulus": "<p id=\"stim\">BLADE</p>", "conditions": [18, 1200, "v", 18000], "internal_node_id": "0.0-23.0", "trial": 0, "time_elapsed": 586413, "serialpos": 11, "key_press": -1, "wordID": 133, "type": "PRES_VIS", "trial_index": 32}, "uniqueid": "MTK2046:388U7OUMF88SGY5B3BIJGRLSFTY0RP", "dateTime": 1516656593396}, {"current_trial": 33, "trialdata": {"rt": -1, "trial_type": "single-stim", "word": "patrol", "stimulus": "<p id=\"stim\">PATROL</p>", "conditions": [18, 1200, "v", 18000], "internal_node_id": "0.0-24.0", "trial": 0, "time_elapsed": 588434, "serialpos": 12, "key_press": -1, "wordID": 1026, "type": "PRES_VIS", "trial_index": 33}, "uniqueid": "MTK2046:388U7OUMF88SGY5B3BIJGRLSFTY0RP", "dateTime": 1516656595417}, {"current_trial": 34, "trialdata": {"rt": -1, "trial_type": "single-stim", "word": "pliers", "stimulus": "<p id=\"stim\">PLIERS</p>", "conditions": [18, 1200, "v", 18000], "internal_node_id": "0.0-25.0", "trial": 0, "time_elapsed": 590458, "serialpos": 13, "key_press": -1, "wordID": 1088, "type": "PRES_VIS", "trial_index": 34}, "uniqueid": "MTK2046:388U7OUMF88SGY5B3BIJGRLSFTY0RP", "dateTime": 1516656597441}, {"current_trial": 35, "trialdata": {"rt": -1, "trial_type": "single-stim", "word": "tablet", "stimulus": "<p id=\"stim\">TABLET</p>", "conditions": [18, 1200, "v", 18000], "internal_node_id": "0.0-26.0", "trial": 0, "time_elapsed": 592597, "serialpos": 14, "key_press": -1, "wordID": 1426, "type": "PRES_VIS", "trial_index": 35}, "uniqueid": "MTK2046:388U7OUMF88SGY5B3BIJGRLSFTY0RP", "dateTime": 1516656599581}, {"current_trial": 36, "trialdata": {"rt": -1, "trial_type": "single-stim", "word": "beef", "stimulus": "<p id=\"stim\">BEEF</p>", "conditions": [18, 1200, "v", 18000], "internal_node_id": "0.0-27.0", "trial": 0, "time_elapsed": 594754, "serialpos": 15, "key_press": -1, "wordID": 112, "type": "PRES_VIS", "trial_index": 36}, "uniqueid": "MTK2046:388U7OUMF88SGY5B3BIJGRLSFTY0RP", "dateTime": 1516656601737}, {"current_trial": 37, "trialdata": {"rt": -1, "trial_type": "single-stim", "word": "outfit", "stimulus": "<p id=\"stim\">OUTFIT</p>", "conditions": [18, 1200, "v", 18000], "internal_node_id": "0.0-28.0", "trial": 0, "time_elapsed": 597000, "serialpos": 16, "key_press": -1, "wordID": 987, "type": "PRES_VIS", "trial_index": 37}, "uniqueid": "MTK2046:388U7OUMF88SGY5B3BIJGRLSFTY0RP", "dateTime": 1516656603984}, {"current_trial": 38, "trialdata": {"rt": -1, "trial_type": "single-stim", "word": "panther", "stimulus": "<p id=\"stim\">PANTHER</p>", "conditions": [18, 1200, "v", 18000], "internal_node_id": "0.0-29.0", "trial": 0, "time_elapsed": 599241, "serialpos": 17, "key_press": -1, "wordID": 1008, "type": "PRES_VIS", "trial_index": 38}, "uniqueid": "MTK2046:388U7OUMF88SGY5B3BIJGRLSFTY0RP", "dateTime": 1516656606224}, {"current_trial": 39, "trialdata": {"rt": -1, "trial_type": "single-stim", "stimulus": "", "internal_node_id": "0.0-30.0-0.0", "time_elapsed": 601768, "key_press": -1, "type": "PRE_RECALL_DELAY", "trial_index": 39}, "uniqueid": "MTK2046:388U7OUMF88SGY5B3BIJGRLSFTY0RP", "dateTime": 1516656608751}, {"current_trial": 40, "trialdata": {"rt": -1000, "trial_type": "single-audio", "stimulus": "/static/audio/400Hz.wav", "internal_node_id": "0.0-31.0", "time_elapsed": 602273, "key_press": -1, "type": "PRE_RECALL_ALERT", "trial_index": 40}, "uniqueid": "MTK2046:388U7OUMF88SGY5B3BIJGRLSFTY0RP", "dateTime": 1516656609256}, {"current_trial": 41, "trialdata": {"rt": [7405, 11655, 15483, 35463, 36971, 40140, 47303, 56288, 57154, 59186], "recwords": ["panther", "beef", "tablet", "box", "label", "goblin", "beaver", "", "", "*"], "key_times": [5771, 5861, 5995, 6064, 6525, 6986, 7066, 7177, 7267, 7405, 10754, 10963, 11128, 11285, 11655, 13490, 13666, 13725, 13962, 14386, 14866, 14962, 15058, 15483, 34063, 34441, 34600, 35463, 36005, 36102, 36213, 36341, 36449, 36971, 38629, 38810, 39353, 39496, 39690, 39925, 40140, 46566, 46687, 46832, 46948, 47044, 47165, 47303, 48912, 49762, 56288, 57154, 58695, 58879, 59186], "trial_type": "free-recall", "conditions": [18, 1200, "v", 18000], "internal_node_id": "0.0-32.0-0.0", "key_presses": [80, 65, 78, 84, 8, 84, 72, 69, 82, 13, 66, 69, 69, 70, 13, 84, 65, 66, 69, 8, 76, 69, 84, 13, 66, 79, 88, 13, 76, 65, 66, 69, 76, 13, 71, 79, 66, 76, 73, 78, 13, 66, 69, 65, 86, 69, 82, 13, 66, 8, 32, 13, 16, 56, 13], "trial": 0, "time_elapsed": 662283, "type": "FREE_RECALL", "trial_index": 41}, "uniqueid": "MTK2046:388U7OUMF88SGY5B3BIJGRLSFTY0RP", "dateTime": 1516656669272}, {"current_trial": 42, "trialdata": {"rt": 4157, "trial_type": "text", "internal_node_id": "0.0-33.0", "time_elapsed": 668448, "key_press": 32, "type": "INSTRUCTIONS", "trial_index": 42}, "uniqueid": "MTK2046:388U7OUMF88SGY5B3BIJGRLSFTY0RP", "dateTime": 1516656675431}, {"current_trial": 43, "trialdata": {"rt": [8798, 12394, 15013], "trial_type": "math-distractor", "key_times": [8042, 8124, 8798, 12024, 12124, 12394, 14690, 14805, 15013], "responses": ["23", "16", "10"], "num2": [6, 5, 5, 5], "num3": [8, 7, 1, 6], "conditions": [18, 1200, "v", 18000], "internal_node_id": "0.0-34.0", "key_presses": [50, 51, 13, 49, 54, 13, 49, 48, 13], "trial": 1, "time_elapsed": 688461, "type": "DISTRACTOR", "trial_index": 43, "num1": [9, 4, 4, 3]}, "uniqueid": "MTK2046:388U7OUMF88SGY5B3BIJGRLSFTY0RP", "dateTime": 1516656695445}, {"current_trial": 44, "trialdata": {"rt": -1, "trial_type": "single-stim", "stimulus": "<p id=\"stim\">10</p>", "internal_node_id": "0.0-35.0-0.0", "time_elapsed": 691467, "key_press": -1, "trial_index": 44}, "uniqueid": "MTK2046:388U7OUMF88SGY5B3BIJGRLSFTY0RP", "dateTime": 1516656698450}, {"current_trial": 45, "trialdata": {"rt": -1, "trial_type": "single-stim", "stimulus": "<p id=\"stim\">9</p>", "internal_node_id": "0.0-35.0-1.0", "time_elapsed": 692470, "key_press": -1, "trial_index": 45}, "uniqueid": "MTK2046:388U7OUMF88SGY5B3BIJGRLSFTY0RP", "dateTime": 1516656699454}, {"current_trial": 46, "trialdata": {"rt": -1, "trial_type": "single-stim", "stimulus": "<p id=\"stim\">8</p>", "internal_node_id": "0.0-35.0-2.0", "time_elapsed": 693473, "key_press": -1, "trial_index": 46}, "uniqueid": "MTK2046:388U7OUMF88SGY5B3BIJGRLSFTY0RP", "dateTime": 1516656700457}, {"current_trial": 47, "trialdata": {"rt": -1, "trial_type": "single-stim", "stimulus": "<p id=\"stim\">7</p>", "internal_node_id": "0.0-35.0-3.0", "time_elapsed": 694476, "key_press": -1, "trial_index": 47}, "uniqueid": "MTK2046:388U7OUMF88SGY5B3BIJGRLSFTY0RP", "dateTime": 1516656701459}, {"current_trial": 48, "trialdata": {"rt": -1, "trial_type": "single-stim", "stimulus": "<p id=\"stim\">6</p>", "internal_node_id": "0.0-35.0-4.0", "time_elapsed": 695478, "key_press": -1, "trial_index": 48}, "uniqueid": "MTK2046:388U7OUMF88SGY5B3BIJGRLSFTY0RP", "dateTime": 1516656702462}, {"current_trial": 49, "trialdata": {"rt": -1, "trial_type": "single-stim", "stimulus": "<p id=\"stim\">5</p>", "internal_node_id": "0.0-35.0-5.0", "time_elapsed": 696481, "key_press": -1, "trial_index": 49}, "uniqueid": "MTK2046:388U7OUMF88SGY5B3BIJGRLSFTY0RP", "dateTime": 1516656703465}, {"current_trial": 50, "trialdata": {"rt": -1, "trial_type": "single-stim", "stimulus": "<p id=\"stim\">4</p>", "internal_node_id": "0.0-35.0-6.0", "time_elapsed": 697484, "key_press": -1, "trial_index": 50}, "uniqueid": "MTK2046:388U7OUMF88SGY5B3BIJGRLSFTY0RP", "dateTime": 1516656704467}, {"current_trial": 51, "trialdata": {"rt": -1, "trial_type": "single-stim", "stimulus": "<p id=\"stim\">3</p>", "internal_node_id": "0.0-35.0-7.0", "time_elapsed": 698486, "key_press": -1, "trial_index": 51}, "uniqueid": "MTK2046:388U7OUMF88SGY5B3BIJGRLSFTY0RP", "dateTime": 1516656705470}, {"current_trial": 52, "trialdata": {"rt": -1, "trial_type": "single-stim", "stimulus": "<p id=\"stim\">2</p>", "internal_node_id": "0.0-35.0-8.0", "time_elapsed": 699489, "key_press": -1, "trial_index": 52}, "uniqueid": "MTK2046:388U7OUMF88SGY5B3BIJGRLSFTY0RP", "dateTime": 1516656706473}, {"current_trial": 53, "trialdata": {"rt": -1, "trial_type": "single-stim", "stimulus": "<p id=\"stim\">1</p>", "internal_node_id": "0.0-35.0-9.0", "time_elapsed": 700492, "key_press": -1, "trial_index": 53}, "uniqueid": "MTK2046:388U7OUMF88SGY5B3BIJGRLSFTY0RP", "dateTime": 1516656707475}, {"current_trial": 54, "trialdata": {"rt": -1, "trial_type": "single-stim", "stimulus": "<p id=\"stim\">+</p>", "internal_node_id": "0.0-36.0-0.0", "time_elapsed": 701994, "key_press": -1, "type": "FIXATION", "trial_index": 54}, "uniqueid": "MTK2046:388U7OUMF88SGY5B3BIJGRLSFTY0RP", "dateTime": 1516656708978}, {"current_trial": 55, "trialdata": {"rt": -1, "trial_type": "single-stim", "word": "bathtub", "stimulus": "<p id=\"stim\">BATHTUB</p>", "conditions": [18, 1200, "v", 18000], "internal_node_id": "0.0-37.0", "trial": 1, "time_elapsed": 703198, "serialpos": 0, "key_press": -1, "wordID": 99, "type": "PRES_VIS", "trial_index": 55}, "uniqueid": "MTK2046:388U7OUMF88SGY5B3BIJGRLSFTY0RP", "dateTime": 1516656710181}, {"current_trial": 56, "trialdata": {"rt": -1, "trial_type": "single-stim", "word": "radish", "stimulus": "<p id=\"stim\">RADISH</p>", "conditions": [18, 1200, "v", 18000], "internal_node_id": "0.0-38.0", "trial": 1, "time_elapsed": 705501, "serialpos": 1, "key_press": -1, "wordID": 1157, "type": "PRES_VIS", "trial_index": 56}, "uniqueid": "MTK2046:388U7OUMF88SGY5B3BIJGRLSFTY0RP", "dateTime": 1516656712484}, {"current_trial": 57, "trialdata": {"rt": -1, "trial_type": "single-stim", "word": "liver", "stimulus": "<p id=\"stim\">LIVER</p>", "conditions": [18, 1200, "v", 18000], "internal_node_id": "0.0-39.0", "trial": 1, "time_elapsed": 707514, "serialpos": 2, "key_press": -1, "wordID": 832, "type": "PRES_VIS", "trial_index": 57}, "uniqueid": "MTK2046:388U7OUMF88SGY5B3BIJGRLSFTY0RP", "dateTime": 1516656714498}, {"current_trial": 58, "trialdata": {"rt": -1, "trial_type": "single-stim", "word": "belly", "stimulus": "<p id=\"stim\">BELLY</p>", "conditions": [18, 1200, "v", 18000], "internal_node_id": "0.0-40.0", "trial": 1, "time_elapsed": 709711, "serialpos": 3, "key_press": -1, "wordID": 118, "type": "PRES_VIS", "trial_index": 58}, "uniqueid": "MTK2046:388U7OUMF88SGY5B3BIJGRLSFTY0RP", "dateTime": 1516656716694}, {"current_trial": 59, "trialdata": {"rt": -1, "trial_type": "single-stim", "word": "freckle", "stimulus": "<p id=\"stim\">FRECKLE</p>", "conditions": [18, 1200, "v", 18000], "internal_node_id": "0.0-41.0", "trial": 1, "time_elapsed": 711914, "serialpos": 4, "key_press": -1, "wordID": 601, "type": "PRES_VIS", "trial_index": 59}, "uniqueid": "MTK2046:388U7OUMF88SGY5B3BIJGRLSFTY0RP", "dateTime": 1516656718897}, {"current_trial": 60, "trialdata": {"rt": -1, "trial_type": "single-stim", "word": "sibling", "stimulus": "<p id=\"stim\">SIBLING</p>", "conditions": [18, 1200, "v", 18000], "internal_node_id": "0.0-42.0", "trial": 1, "time_elapsed": 713969, "serialpos": 5, "key_press": -1, "wordID": 1300, "type": "PRES_VIS", "trial_index": 60}, "uniqueid": "MTK2046:388U7OUMF88SGY5B3BIJGRLSFTY0RP", "dateTime": 1516656720953}, {"current_trial": 61, "trialdata": {"rt": -1, "trial_type": "single-stim", "word": "rust", "stimulus": "<p id=\"stim\">RUST</p>", "conditions": [18, 1200, "v", 18000], "internal_node_id": "0.0-43.0", "trial": 1, "time_elapsed": 716221, "serialpos": 6, "key_press": -1, "wordID": 1218, "type": "PRES_VIS", "trial_index": 61}, "uniqueid": "MTK2046:388U7OUMF88SGY5B3BIJGRLSFTY0RP", "dateTime": 1516656723204}, {"current_trial": 62, "trialdata": {"rt": -1, "trial_type": "single-stim", "word": "umpire", "stimulus": "<p id=\"stim\">UMPIRE</p>", "conditions": [18, 1200, "v", 18000], "internal_node_id": "0.0-44.0", "trial": 1, "time_elapsed": 718517, "serialpos": 7, "key_press": -1, "wordID": 1534, "type": "PRES_VIS", "trial_index": 62}, "uniqueid": "MTK2046:388U7OUMF88SGY5B3BIJGRLSFTY0RP", "dateTime": 1516656725501}, {"current_trial": 63, "trialdata": {"rt": -1, "trial_type": "single-stim", "word": "piano", "stimulus": "<p id=\"stim\">PIANO</p>", "conditions": [18, 1200, "v", 18000], "internal_node_id": "0.0-45.0", "trial": 1, "time_elapsed": 720815, "serialpos": 8, "key_press": -1, "wordID": 1056, "type": "PRES_VIS", "trial_index": 63}, "uniqueid": "MTK2046:388U7OUMF88SGY5B3BIJGRLSFTY0RP", "dateTime": 1516656727799}, {"current_trial": 64, "trialdata": {"rt": -1, "trial_type": "single-stim", "word": "plaster", "stimulus": "<p id=\"stim\">PLASTER</p>", "conditions": [18, 1200, "v", 18000], "internal_node_id": "0.0-46.0", "trial": 1, "time_elapsed": 722878, "serialpos": 9, "key_press": -1, "wordID": 1084, "type": "PRES_VIS", "trial_index": 64}, "uniqueid": "MTK2046:388U7OUMF88SGY5B3BIJGRLSFTY0RP", "dateTime": 1516656729861}, {"current_trial": 65, "trialdata": {"rt": -1, "trial_type": "single-stim", "word": "pocket", "stimulus": "<p id=\"stim\">POCKET</p>", "conditions": [18, 1200, "v", 18000], "internal_node_id": "0.0-47.0", "trial": 1, "time_elapsed": 725234, "serialpos": 10, "key_press": -1, "wordID": 1092, "type": "PRES_VIS", "trial_index": 65}, "uniqueid": "MTK2046:388U7OUMF88SGY5B3BIJGRLSFTY0RP", "dateTime": 1516656732217}, {"current_trial": 66, "trialdata": {"rt": -1, "trial_type": "single-stim", "word": "lodge", "stimulus": "<p id=\"stim\">LODGE</p>", "conditions": [18, 1200, "v", 18000], "internal_node_id": "0.0-48.0", "trial": 1, "time_elapsed": 727548, "serialpos": 11, "key_press": -1, "wordID": 838, "type": "PRES_VIS", "trial_index": 66}, "uniqueid": "MTK2046:388U7OUMF88SGY5B3BIJGRLSFTY0RP", "dateTime": 1516656734531}, {"current_trial": 67, "trialdata": {"rt": -1, "trial_type": "single-stim", "word": "stomach", "stimulus": "<p id=\"stim\">STOMACH</p>", "conditions": [18, 1200, "v", 18000], "internal_node_id": "0.0-49.0", "trial": 1, "time_elapsed": 729812, "serialpos": 12, "key_press": -1, "wordID": 1383, "type": "PRES_VIS", "trial_index": 67}, "uniqueid": "MTK2046:388U7OUMF88SGY5B3BIJGRLSFTY0RP", "dateTime": 1516656736796}, {"current_trial": 68, "trialdata": {"rt": -1, "trial_type": "single-stim", "word": "rifle", "stimulus": "<p id=\"stim\">RIFLE</p>", "conditions": [18, 1200, "v", 18000], "internal_node_id": "0.0-50.0", "trial": 1, "time_elapsed": 732174, "serialpos": 13, "key_press": -1, "wordID": 1191, "type": "PRES_VIS", "trial_index": 68}, "uniqueid": "MTK2046:388U7OUMF88SGY5B3BIJGRLSFTY0RP", "dateTime": 1516656739157}, {"current_trial": 69, "trialdata": {"rt": -1, "trial_type": "single-stim", "word": "softball", "stimulus": "<p id=\"stim\">SOFTBALL</p>", "conditions": [18, 1200, "v", 18000], "internal_node_id": "0.0-51.0", "trial": 1, "time_elapsed": 734515, "serialpos": 14, "key_press": -1, "wordID": 1342, "type": "PRES_VIS", "trial_index": 69}, "uniqueid": "MTK2046:388U7OUMF88SGY5B3BIJGRLSFTY0RP", "dateTime": 1516656741498}, {"current_trial": 70, "trialdata": {"rt": -1, "trial_type": "single-stim", "word": "brandy", "stimulus": "<p id=\"stim\">BRANDY</p>", "conditions": [18, 1200, "v", 18000], "internal_node_id": "0.0-52.0", "trial": 1, "time_elapsed": 736579, "serialpos": 15, "key_press": -1, "wordID": 168, "type": "PRES_VIS", "trial_index": 70}, "uniqueid": "MTK2046:388U7OUMF88SGY5B3BIJGRLSFTY0RP", "dateTime": 1516656743562}, {"current_trial": 71, "trialdata": {"rt": -1, "trial_type": "single-stim", "word": "crib", "stimulus": "<p id=\"stim\">CRIB</p>", "conditions": [18, 1200, "v", 18000], "internal_node_id": "0.0-53.0", "trial": 1, "time_elapsed": 738846, "serialpos": 16, "key_press": -1, "wordID": 406, "type": "PRES_VIS", "trial_index": 71}, "uniqueid": "MTK2046:388U7OUMF88SGY5B3BIJGRLSFTY0RP", "dateTime": 1516656745829}, {"current_trial": 72, "trialdata": {"rt": -1, "trial_type": "single-stim", "word": "napkin", "stimulus": "<p id=\"stim\">NAPKIN</p>", "conditions": [18, 1200, "v", 18000], "internal_node_id": "0.0-54.0", "trial": 1, "time_elapsed": 741000, "serialpos": 17, "key_press": -1, "wordID": 936, "type": "PRES_VIS", "trial_index": 72}, "uniqueid": "MTK2046:388U7OUMF88SGY5B3BIJGRLSFTY0RP", "dateTime": 1516656747983}, {"current_trial": 73, "trialdata": {"rt": -1, "trial_type": "single-stim", "stimulus": "", "internal_node_id": "0.0-55.0-0.0", "time_elapsed": 743372, "key_press": -1, "type": "PRE_RECALL_DELAY", "trial_index": 73}, "uniqueid": "MTK2046:388U7OUMF88SGY5B3BIJGRLSFTY0RP", "dateTime": 1516656750355}, {"current_trial": 74, "trialdata": {"rt": -1000, "trial_type": "single-audio", "stimulus": "/static/audio/400Hz.wav", "internal_node_id": "0.0-56.0", "time_elapsed": 743877, "key_press": -1, "type": "PRE_RECALL_ALERT", "trial_index": 74}, "uniqueid": "MTK2046:388U7OUMF88SGY5B3BIJGRLSFTY0RP", "dateTime": 1516656750861}, {"current_trial": 75, "trialdata": {"rt": [3690, 6152, 8195, 29479, 31739, 35231, 39929, 45768, 47228], "recwords": ["napkin", "crib", "brandy", "rust", "pocket", "stomach", "belly", "radish", "*"], "key_times": [2151, 2391, 2549, 3172, 3346, 3487, 3690, 5545, 5740, 5865, 5965, 6152, 7424, 7480, 7618, 7715, 7824, 7948, 8195, 13135, 13324, 13925, 14074, 14217, 28906, 29056, 29186, 29365, 29479, 30963, 31063, 31180, 31295, 31422, 31542, 31739, 34288, 34439, 34572, 34703, 34776, 34907, 35032, 35231, 38956, 39074, 39223, 39370, 39596, 39929, 42691, 42921, 43089, 43256, 45247, 45409, 45768, 46748, 46894, 47228], "trial_type": "free-recall", "conditions": [18, 1200, "v", 18000], "internal_node_id": "0.0-57.0-0.0", "key_presses": [78, 65, 80, 75, 73, 78, 13, 67, 82, 73, 66, 13, 66, 82, 65, 78, 68, 89, 13, 83, 84, 8, 8, 8, 82, 85, 83, 84, 13, 80, 79, 67, 75, 69, 84, 13, 83, 84, 79, 77, 65, 67, 72, 13, 66, 69, 76, 76, 89, 13, 82, 65, 68, 73, 83, 72, 13, 16, 56, 13], "trial": 1, "time_elapsed": 803885, "type": "FREE_RECALL", "trial_index": 75}, "uniqueid": "MTK2046:388U7OUMF88SGY5B3BIJGRLSFTY0RP", "dateTime": 1516656810873}, {"current_trial": 76, "trialdata": {"rt": 4397, "trial_type": "text", "internal_node_id": "0.0-58.0", "time_elapsed": 810294, "key_press": 32, "type": "INSTRUCTIONS", "trial_index": 76}, "uniqueid": "MTK2046:388U7OUMF88SGY5B3BIJGRLSFTY0RP", "dateTime": 1516656817277}, {"current_trial": 77, "trialdata": {"rt": [3705, 8789, 11173], "trial_type": "math-distractor", "key_times": [3080, 3193, 3705, 8240, 8466, 8789, 10287, 10580, 11173], "responses": ["12", "17", "15"], "num2": [1, 8, 7, 4], "num3": [3, 5, 3, 7], "conditions": [24, 1600, "v", 12000], "internal_node_id": "0.0-59.0", "key_presses": [49, 50, 13, 49, 55, 13, 49, 53, 13], "trial": 2, "time_elapsed": 823303, "type": "DISTRACTOR", "trial_index": 77, "num1": [8, 4, 5, 3]}, "uniqueid": "MTK2046:388U7OUMF88SGY5B3BIJGRLSFTY0RP", "dateTime": 1516656830287}, {"current_trial": 78, "trialdata": {"rt": -1, "trial_type": "single-stim", "stimulus": "<p id=\"stim\">10</p>", "internal_node_id": "0.0-60.0-0.0", "time_elapsed": 826309, "key_press": -1, "trial_index": 78}, "uniqueid": "MTK2046:388U7OUMF88SGY5B3BIJGRLSFTY0RP", "dateTime": 1516656833293}, {"current_trial": 79, "trialdata": {"rt": -1, "trial_type": "single-stim", "stimulus": "<p id=\"stim\">9</p>", "internal_node_id": "0.0-60.0-1.0", "time_elapsed": 827313, "key_press": -1, "trial_index": 79}, "uniqueid": "MTK2046:388U7OUMF88SGY5B3BIJGRLSFTY0RP", "dateTime": 1516656834296}, {"current_trial": 80, "trialdata": {"rt": -1, "trial_type": "single-stim", "stimulus": "<p id=\"stim\">8</p>", "internal_node_id": "0.0-60.0-2.0", "time_elapsed": 828316, "key_press": -1, "trial_index": 80}, "uniqueid": "MTK2046:388U7OUMF88SGY5B3BIJGRLSFTY0RP", "dateTime": 1516656835301}, {"current_trial": 81, "trialdata": {"rt": -1, "trial_type": "single-stim", "stimulus": "<p id=\"stim\">7</p>", "internal_node_id": "0.0-60.0-3.0", "time_elapsed": 829320, "key_press": -1, "trial_index": 81}, "uniqueid": "MTK2046:388U7OUMF88SGY5B3BIJGRLSFTY0RP", "dateTime": 1516656836303}, {"current_trial": 82, "trialdata": {"rt": -1, "trial_type": "single-stim", "stimulus": "<p id=\"stim\">6</p>", "internal_node_id": "0.0-60.0-4.0", "time_elapsed": 830322, "key_press": -1, "trial_index": 82}, "uniqueid": "MTK2046:388U7OUMF88SGY5B3BIJGRLSFTY0RP", "dateTime": 1516656837305}, {"current_trial": 83, "trialdata": {"rt": -1, "trial_type": "single-stim", "stimulus": "<p id=\"stim\">5</p>", "internal_node_id": "0.0-60.0-5.0", "time_elapsed": 831325, "key_press": -1, "trial_index": 83}, "uniqueid": "MTK2046:388U7OUMF88SGY5B3BIJGRLSFTY0RP", "dateTime": 1516656838308}, {"current_trial": 84, "trialdata": {"rt": -1, "trial_type": "single-stim", "stimulus": "<p id=\"stim\">4</p>", "internal_node_id": "0.0-60.0-6.0", "time_elapsed": 832328, "key_press": -1, "trial_index": 84}, "uniqueid": "MTK2046:388U7OUMF88SGY5B3BIJGRLSFTY0RP", "dateTime": 1516656839311}, {"current_trial": 85, "trialdata": {"rt": -1, "trial_type": "single-stim", "stimulus": "<p id=\"stim\">3</p>", "internal_node_id": "0.0-60.0-7.0", "time_elapsed": 833331, "key_press": -1, "trial_index": 85}, "uniqueid": "MTK2046:388U7OUMF88SGY5B3BIJGRLSFTY0RP", "dateTime": 1516656840314}, {"current_trial": 86, "trialdata": {"rt": -1, "trial_type": "single-stim", "stimulus": "<p id=\"stim\">2</p>", "internal_node_id": "0.0-60.0-8.0", "time_elapsed": 834372, "key_press": -1, "trial_index": 86}, "uniqueid": "MTK2046:388U7OUMF88SGY5B3BIJGRLSFTY0RP", "dateTime": 1516656841355}, {"current_trial": 87, "trialdata": {"rt": -1, "trial_type": "single-stim", "stimulus": "<p id=\"stim\">1</p>", "internal_node_id": "0.0-60.0-9.0", "time_elapsed": 835375, "key_press": -1, "trial_index": 87}, "uniqueid": "MTK2046:388U7OUMF88SGY5B3BIJGRLSFTY0RP", "dateTime": 1516656842358}, {"current_trial": 88, "trialdata": {"rt": -1, "trial_type": "single-stim", "stimulus": "<p id=\"stim\">+</p>", "internal_node_id": "0.0-61.0-0.0", "time_elapsed": 836878, "key_press": -1, "type": "FIXATION", "trial_index": 88}, "uniqueid": "MTK2046:388U7OUMF88SGY5B3BIJGRLSFTY0RP", "dateTime": 1516656843861}, {"current_trial": 89, "trialdata": {"rt": -1, "trial_type": "single-stim", "word": "scallop", "stimulus": "<p id=\"stim\">SCALLOP</p>", "conditions": [24, 1600, "v", 12000], "internal_node_id": "0.0-62.0", "trial": 2, "time_elapsed": 838481, "serialpos": 0, "key_press": -1, "wordID": 1241, "type": "PRES_VIS", "trial_index": 89}, "uniqueid": "MTK2046:388U7OUMF88SGY5B3BIJGRLSFTY0RP", "dateTime": 1516656845465}, {"current_trial": 90, "trialdata": {"rt": -1, "trial_type": "single-stim", "word": "market", "stimulus": "<p id=\"stim\">MARKET</p>", "conditions": [24, 1600, "v", 12000], "internal_node_id": "0.0-63.0", "trial": 2, "time_elapsed": 841068, "serialpos": 1, "key_press": -1, "wordID": 870, "type": "PRES_VIS", "trial_index": 90}, "uniqueid": "MTK2046:388U7OUMF88SGY5B3BIJGRLSFTY0RP", "dateTime": 1516656848051}, {"current_trial": 91, "trialdata": {"rt": -1, "trial_type": "single-stim", "word": "country", "stimulus": "<p id=\"stim\">COUNTRY</p>", "conditions": [24, 1600, "v", 12000], "internal_node_id": "0.0-64.0", "trial": 2, "time_elapsed": 843517, "serialpos": 2, "key_press": -1, "wordID": 387, "type": "PRES_VIS", "trial_index": 91}, "uniqueid": "MTK2046:388U7OUMF88SGY5B3BIJGRLSFTY0RP", "dateTime": 1516656850500}, {"current_trial": 92, "trialdata": {"rt": -1, "trial_type": "single-stim", "word": "europe", "stimulus": "<p id=\"stim\">EUROPE</p>", "conditions": [24, 1600, "v", 12000], "internal_node_id": "0.0-65.0", "trial": 2, "time_elapsed": 846193, "serialpos": 3, "key_press": -1, "wordID": 540, "type": "PRES_VIS", "trial_index": 92}, "uniqueid": "MTK2046:388U7OUMF88SGY5B3BIJGRLSFTY0RP", "dateTime": 1516656853177}, {"current_trial": 93, "trialdata": {"rt": -1, "trial_type": "single-stim", "word": "japan", "stimulus": "<p id=\"stim\">JAPAN</p>", "conditions": [24, 1600, "v", 12000], "internal_node_id": "0.0-66.0", "trial": 2, "time_elapsed": 848836, "serialpos": 4, "key_press": -1, "wordID": 748, "type": "PRES_VIS", "trial_index": 93}, "uniqueid": "MTK2046:388U7OUMF88SGY5B3BIJGRLSFTY0RP", "dateTime": 1516656855820}, {"current_trial": 94, "trialdata": {"rt": -1, "trial_type": "single-stim", "word": "scarecrow", "stimulus": "<p id=\"stim\">SCARECROW</p>", "conditions": [24, 1600, "v", 12000], "internal_node_id": "0.0-67.0", "trial": 2, "time_elapsed": 851535, "serialpos": 5, "key_press": -1, "wordID": 1244, "type": "PRES_VIS", "trial_index": 94}, "uniqueid": "MTK2046:388U7OUMF88SGY5B3BIJGRLSFTY0RP", "dateTime": 1516656858518}, {"current_trial": 95, "trialdata": {"rt": -1, "trial_type": "single-stim", "word": "mattress", "stimulus": "<p id=\"stim\">MATTRESS</p>", "conditions": [24, 1600, "v", 12000], "internal_node_id": "0.0-68.0", "trial": 2, "time_elapsed": 854213, "serialpos": 6, "key_press": -1, "wordID": 878, "type": "PRES_VIS", "trial_index": 95}, "uniqueid": "MTK2046:388U7OUMF88SGY5B3BIJGRLSFTY0RP", "dateTime": 1516656861196}, {"current_trial": 96, "trialdata": {"rt": -1, "trial_type": "single-stim", "word": "pigeon", "stimulus": "<p id=\"stim\">PIGEON</p>", "conditions": [24, 1600, "v", 12000], "internal_node_id": "0.0-69.0", "trial": 2, "time_elapsed": 856989, "serialpos": 7, "key_press": -1, "wordID": 1064, "type": "PRES_VIS", "trial_index": 96}, "uniqueid": "MTK2046:388U7OUMF88SGY5B3BIJGRLSFTY0RP", "dateTime": 1516656863972}, {"current_trial": 97, "trialdata": {"rt": -1, "trial_type": "single-stim", "word": "shelf", "stimulus": "<p id=\"stim\">SHELF</p>", "conditions": [24, 1600, "v", 12000], "internal_node_id": "0.0-70.0", "trial": 2, "time_elapsed": 859606, "serialpos": 8, "key_press": -1, "wordID": 1279, "type": "PRES_VIS", "trial_index": 97}, "uniqueid": "MTK2046:388U7OUMF88SGY5B3BIJGRLSFTY0RP", "dateTime": 1516656866589}, {"current_trial": 98, "trialdata": {"rt": -1, "trial_type": "single-stim", "word": "crab", "stimulus": "<p id=\"stim\">CRAB</p>", "conditions": [24, 1600, "v", 12000], "internal_node_id": "0.0-71.0", "trial": 2, "time_elapsed": 862047, "serialpos": 9, "key_press": -1, "wordID": 396, "type": "PRES_VIS", "trial_index": 98}, "uniqueid": "MTK2046:388U7OUMF88SGY5B3BIJGRLSFTY0RP", "dateTime": 1516656869030}, {"current_trial": 99, "trialdata": {"rt": -1, "trial_type": "single-stim", "word": "farmer", "stimulus": "<p id=\"stim\">FARMER</p>", "conditions": [24, 1600, "v", 12000], "internal_node_id": "0.0-72.0", "trial": 2, "time_elapsed": 864788, "serialpos": 10, "key_press": -1, "wordID": 552, "type": "PRES_VIS", "trial_index": 99}, "uniqueid": "MTK2046:388U7OUMF88SGY5B3BIJGRLSFTY0RP", "dateTime": 1516656871771}, {"current_trial": 100, "trialdata": {"rt": -1, "trial_type": "single-stim", "word": "shoulder", "stimulus": "<p id=\"stim\">SHOULDER</p>", "conditions": [24, 1600, "v", 12000], "internal_node_id": "0.0-73.0", "trial": 2, "time_elapsed": 867218, "serialpos": 11, "key_press": -1, "wordID": 1293, "type": "PRES_VIS", "trial_index": 100}, "uniqueid": "MTK2046:388U7OUMF88SGY5B3BIJGRLSFTY0RP", "dateTime": 1516656874201}, {"current_trial": 101, "trialdata": {"rt": -1, "trial_type": "single-stim", "word": "valley", "stimulus": "<p id=\"stim\">VALLEY</p>", "conditions": [24, 1600, "v", 12000], "internal_node_id": "0.0-74.0", "trial": 2, "time_elapsed": 869653, "serialpos": 12, "key_press": -1, "wordID": 1544, "type": "PRES_VIS", "trial_index": 101}, "uniqueid": "MTK2046:388U7OUMF88SGY5B3BIJGRLSFTY0RP", "dateTime": 1516656876636}, {"current_trial": 102, "trialdata": {"rt": -1, "trial_type": "single-stim", "word": "canyon", "stimulus": "<p id=\"stim\">CANYON</p>", "conditions": [24, 1600, "v", 12000], "internal_node_id": "0.0-75.0", "trial": 2, "time_elapsed": 872260, "serialpos": 13, "key_press": -1, "wordID": 234, "type": "PRES_VIS", "trial_index": 102}, "uniqueid": "MTK2046:388U7OUMF88SGY5B3BIJGRLSFTY0RP", "dateTime": 1516656879244}, {"current_trial": 103, "trialdata": {"rt": -1, "trial_type": "single-stim", "word": "suspect", "stimulus": "<p id=\"stim\">SUSPECT</p>", "conditions": [24, 1600, "v", 12000], "internal_node_id": "0.0-76.0", "trial": 2, "time_elapsed": 874895, "serialpos": 14, "key_press": -1, "wordID": 1414, "type": "PRES_VIS", "trial_index": 103}, "uniqueid": "MTK2046:388U7OUMF88SGY5B3BIJGRLSFTY0RP", "dateTime": 1516656881878}, {"current_trial": 104, "trialdata": {"rt": -1, "trial_type": "single-stim", "word": "space", "stimulus": "<p id=\"stim\">SPACE</p>", "conditions": [24, 1600, "v", 12000], "internal_node_id": "0.0-77.0", "trial": 2, "time_elapsed": 877612, "serialpos": 15, "key_press": -1, "wordID": 1344, "type": "PRES_VIS", "trial_index": 104}, "uniqueid": "MTK2046:388U7OUMF88SGY5B3BIJGRLSFTY0RP", "dateTime": 1516656884595}, {"current_trial": 105, "trialdata": {"rt": -1, "trial_type": "single-stim", "word": "rocket", "stimulus": "<p id=\"stim\">ROCKET</p>", "conditions": [24, 1600, "v", 12000], "internal_node_id": "0.0-78.0", "trial": 2, "time_elapsed": 880215, "serialpos": 16, "key_press": -1, "wordID": 1201, "type": "PRES_VIS", "trial_index": 105}, "uniqueid": "MTK2046:388U7OUMF88SGY5B3BIJGRLSFTY0RP", "dateTime": 1516656887199}, {"current_trial": 106, "trialdata": {"rt": -1, "trial_type": "single-stim", "word": "church", "stimulus": "<p id=\"stim\">CHURCH</p>", "conditions": [24, 1600, "v", 12000], "internal_node_id": "0.0-79.0", "trial": 2, "time_elapsed": 882824, "serialpos": 17, "key_press": -1, "wordID": 306, "type": "PRES_VIS", "trial_index": 106}, "uniqueid": "MTK2046:388U7OUMF88SGY5B3BIJGRLSFTY0RP", "dateTime": 1516656889808}, {"current_trial": 107, "trialdata": {"rt": -1, "trial_type": "single-stim", "word": "onion", "stimulus": "<p id=\"stim\">ONION</p>", "conditions": [24, 1600, "v", 12000], "internal_node_id": "0.0-80.0", "trial": 2, "time_elapsed": 885580, "serialpos": 18, "key_press": -1, "wordID": 976, "type": "PRES_VIS", "trial_index": 107}, "uniqueid": "MTK2046:388U7OUMF88SGY5B3BIJGRLSFTY0RP", "dateTime": 1516656892563}, {"current_trial": 108, "trialdata": {"rt": -1, "trial_type": "single-stim", "word": "passage", "stimulus": "<p id=\"stim\">PASSAGE</p>", "conditions": [24, 1600, "v", 12000], "internal_node_id": "0.0-81.0", "trial": 2, "time_elapsed": 888338, "serialpos": 19, "key_press": -1, "wordID": 1018, "type": "PRES_VIS", "trial_index": 108}, "uniqueid": "MTK2046:388U7OUMF88SGY5B3BIJGRLSFTY0RP", "dateTime": 1516656895321}, {"current_trial": 109, "trialdata": {"rt": -1, "trial_type": "single-stim", "word": "scarf", "stimulus": "<p id=\"stim\">SCARF</p>", "conditions": [24, 1600, "v", 12000], "internal_node_id": "0.0-82.0", "trial": 2, "time_elapsed": 891049, "serialpos": 20, "key_press": -1, "wordID": 1245, "type": "PRES_VIS", "trial_index": 109}, "uniqueid": "MTK2046:388U7OUMF88SGY5B3BIJGRLSFTY0RP", "dateTime": 1516656898032}, {"current_trial": 110, "trialdata": {"rt": -1, "trial_type": "single-stim", "word": "chapel", "stimulus": "<p id=\"stim\">CHAPEL</p>", "conditions": [24, 1600, "v", 12000], "internal_node_id": "0.0-83.0", "trial": 2, "time_elapsed": 893487, "serialpos": 21, "key_press": -1, "wordID": 279, "type": "PRES_VIS", "trial_index": 110}, "uniqueid": "MTK2046:388U7OUMF88SGY5B3BIJGRLSFTY0RP", "dateTime": 1516656900471}, {"current_trial": 111, "trialdata": {"rt": -1, "trial_type": "single-stim", "word": "chest", "stimulus": "<p id=\"stim\">CHEST</p>", "conditions": [24, 1600, "v", 12000], "internal_node_id": "0.0-84.0", "trial": 2, "time_elapsed": 896234, "serialpos": 22, "key_press": -1, "wordID": 294, "type": "PRES_VIS", "trial_index": 111}, "uniqueid": "MTK2046:388U7OUMF88SGY5B3BIJGRLSFTY0RP", "dateTime": 1516656903218}, {"current_trial": 112, "trialdata": {"rt": -1, "trial_type": "single-stim", "word": "hiker", "stimulus": "<p id=\"stim\">HIKER</p>", "conditions": [24, 1600, "v", 12000], "internal_node_id": "0.0-85.0", "trial": 2, "time_elapsed": 898885, "serialpos": 23, "key_press": -1, "wordID": 707, "type": "PRES_VIS", "trial_index": 112}, "uniqueid": "MTK2046:388U7OUMF88SGY5B3BIJGRLSFTY0RP", "dateTime": 1516656905868}, {"current_trial": 113, "trialdata": {"rt": -1, "trial_type": "single-stim", "stimulus": "", "internal_node_id": "0.0-86.0-0.0", "time_elapsed": 900985, "key_press": -1, "type": "PRE_RECALL_DELAY", "trial_index": 113}, "uniqueid": "MTK2046:388U7OUMF88SGY5B3BIJGRLSFTY0RP", "dateTime": 1516656907969}, {"current_trial": 114, "trialdata": {"rt": -1000, "trial_type": "single-audio", "stimulus": "/static/audio/400Hz.wav", "internal_node_id": "0.0-87.0", "time_elapsed": 901488, "key_press": -1, "type": "PRE_RECALL_ALERT", "trial_index": 114}, "uniqueid": "MTK2046:388U7OUMF88SGY5B3BIJGRLSFTY0RP", "dateTime": 1516656908472}, {"current_trial": 115, "trialdata": {"rt": [3220, 14031, 15850, 18457, 23392, 24414, 25465, 31242, 35050, 39264], "recwords": ["hiker", "chest", "chapel", "scarf", "space", "rocket", "church", "valley", "crab", "canyon"], "key_times": [2435, 2622, 2821, 2969, 3074, 3220, 13341, 13447, 13552, 13697, 13863, 14031, 15071, 15183, 15292, 15417, 15526, 15647, 15850, 17250, 17426, 17587, 17726, 17948, 18457, 22760, 22896, 22970, 23113, 23268, 23392, 23594, 23734, 23832, 23976, 24075, 24232, 24414, 24591, 24731, 24855, 24917, 25112, 25234, 25465, 28932, 29580, 30316, 30505, 30616, 30752, 30886, 31007, 31242, 34272, 34484, 34677, 34792, 35050, 38062, 38215, 38379, 38604, 38770, 38935, 39264, 40557, 42107], "trial_type": "free-recall", "conditions": [24, 1600, "v", 12000], "internal_node_id": "0.0-88.0-0.0", "key_presses": [72, 73, 75, 69, 82, 13, 67, 72, 69, 83, 84, 13, 67, 72, 65, 80, 69, 76, 13, 83, 67, 65, 82, 70, 13, 83, 80, 65, 67, 69, 13, 82, 79, 67, 75, 69, 84, 13, 67, 72, 85, 82, 67, 72, 13, 86, 8, 86, 65, 76, 76, 69, 89, 13, 67, 82, 65, 66, 13, 67, 65, 78, 89, 79, 78, 13, 70, 8], "trial": 2, "time_elapsed": 961496, "type": "FREE_RECALL", "trial_index": 115}, "uniqueid": "MTK2046:388U7OUMF88SGY5B3BIJGRLSFTY0RP", "dateTime": 1516656968483}, {"current_trial": 116, "trialdata": {"rt": 1945, "trial_type": "text", "internal_node_id": "0.0-89.0", "time_elapsed": 965448, "key_press": 32, "type": "INSTRUCTIONS", "trial_index": 116}, "uniqueid": "MTK2046:388U7OUMF88SGY5B3BIJGRLSFTY0RP", "dateTime": 1516656972431}, {"current_trial": 117, "trialdata": {"rt": [3231, 5940, 8777, 10397, 16460, 18807, 20935], "trial_type": "math-distractor", "key_times": [2598, 2763, 3231, 5227, 5438, 5940, 7991, 8542, 8777, 10097, 10397, 15465, 15600, 16460, 18630, 18807, 20511, 20771, 20935], "responses": ["16", "15", "13", "9", "23", "6", "15"], "num2": [8, 8, 7, 4, 9, 3, 3, 9], "num3": [6, 5, 4, 1, 7, 1, 3, 7], "conditions": [24, 1600, "v", 24000], "internal_node_id": "0.0-90.0", "key_presses": [49, 54, 13, 49, 53, 13, 49, 51, 13, 57, 13, 50, 51, 13, 54, 13, 49, 53, 13], "trial": 3, "time_elapsed": 991461, "type": "DISTRACTOR", "trial_index": 117, "num1": [2, 2, 2, 4, 7, 2, 9, 2]}, "uniqueid": "MTK2046:388U7OUMF88SGY5B3BIJGRLSFTY0RP", "dateTime": 1516656998445}, {"current_trial": 118, "trialdata": {"rt": -1, "trial_type": "single-stim", "stimulus": "<p id=\"stim\">10</p>", "internal_node_id": "0.0-91.0-0.0", "time_elapsed": 994466, "key_press": -1, "trial_index": 118}, "uniqueid": "MTK2046:388U7OUMF88SGY5B3BIJGRLSFTY0RP", "dateTime": 1516657001449}, {"current_trial": 119, "trialdata": {"rt": -1, "trial_type": "single-stim", "stimulus": "<p id=\"stim\">9</p>", "internal_node_id": "0.0-91.0-1.0", "time_elapsed": 995469, "key_press": -1, "trial_index": 119}, "uniqueid": "MTK2046:388U7OUMF88SGY5B3BIJGRLSFTY0RP", "dateTime": 1516657002452}, {"current_trial": 120, "trialdata": {"rt": -1, "trial_type": "single-stim", "stimulus": "<p id=\"stim\">8</p>", "internal_node_id": "0.0-91.0-2.0", "time_elapsed": 996471, "key_press": -1, "trial_index": 120}, "uniqueid": "MTK2046:388U7OUMF88SGY5B3BIJGRLSFTY0RP", "dateTime": 1516657003455}, {"current_trial": 121, "trialdata": {"rt": -1, "trial_type": "single-stim", "stimulus": "<p id=\"stim\">7</p>", "internal_node_id": "0.0-91.0-3.0", "time_elapsed": 997475, "key_press": -1, "trial_index": 121}, "uniqueid": "MTK2046:388U7OUMF88SGY5B3BIJGRLSFTY0RP", "dateTime": 1516657004458}, {"current_trial": 122, "trialdata": {"rt": -1, "trial_type": "single-stim", "stimulus": "<p id=\"stim\">6</p>", "internal_node_id": "0.0-91.0-4.0", "time_elapsed": 998501, "key_press": -1, "trial_index": 122}, "uniqueid": "MTK2046:388U7OUMF88SGY5B3BIJGRLSFTY0RP", "dateTime": 1516657005484}, {"current_trial": 123, "trialdata": {"rt": -1, "trial_type": "single-stim", "stimulus": "<p id=\"stim\">5</p>", "internal_node_id": "0.0-91.0-5.0", "time_elapsed": 999505, "key_press": -1, "trial_index": 123}, "uniqueid": "MTK2046:388U7OUMF88SGY5B3BIJGRLSFTY0RP", "dateTime": 1516657006488}, {"current_trial": 124, "trialdata": {"rt": -1, "trial_type": "single-stim", "stimulus": "<p id=\"stim\">4</p>", "internal_node_id": "0.0-91.0-6.0", "time_elapsed": 1000508, "key_press": -1, "trial_index": 124}, "uniqueid": "MTK2046:388U7OUMF88SGY5B3BIJGRLSFTY0RP", "dateTime": 1516657007491}, {"current_trial": 125, "trialdata": {"rt": -1, "trial_type": "single-stim", "stimulus": "<p id=\"stim\">3</p>", "internal_node_id": "0.0-91.0-7.0", "time_elapsed": 1001511, "key_press": -1, "trial_index": 125}, "uniqueid": "MTK2046:388U7OUMF88SGY5B3BIJGRLSFTY0RP", "dateTime": 1516657008494}, {"current_trial": 126, "trialdata": {"rt": -1, "trial_type": "single-stim", "stimulus": "<p id=\"stim\">2</p>", "internal_node_id": "0.0-91.0-8.0", "time_elapsed": 1002514, "key_press": -1, "trial_index": 126}, "uniqueid": "MTK2046:388U7OUMF88SGY5B3BIJGRLSFTY0RP", "dateTime": 1516657009498}, {"current_trial": 127, "trialdata": {"rt": -1, "trial_type": "single-stim", "stimulus": "<p id=\"stim\">1</p>", "internal_node_id": "0.0-91.0-9.0", "time_elapsed": 1003516, "key_press": -1, "trial_index": 127}, "uniqueid": "MTK2046:388U7OUMF88SGY5B3BIJGRLSFTY0RP", "dateTime": 1516657010500}, {"current_trial": 128, "trialdata": {"rt": -1, "trial_type": "single-stim", "stimulus": "<p id=\"stim\">+</p>", "internal_node_id": "0.0-92.0-0.0", "time_elapsed": 1005019, "key_press": -1, "type": "FIXATION", "trial_index": 128}, "uniqueid": "MTK2046:388U7OUMF88SGY5B3BIJGRLSFTY0RP", "dateTime": 1516657012002}, {"current_trial": 129, "trialdata": {"rt": -1, "trial_type": "single-stim", "word": "yacht", "stimulus": "<p id=\"stim\">YACHT</p>", "conditions": [24, 1600, "v", 24000], "internal_node_id": "0.0-93.0", "trial": 3, "time_elapsed": 1006622, "serialpos": 0, "key_press": -1, "wordID": 1628, "type": "PRES_VIS", "trial_index": 129}, "uniqueid": "MTK2046:388U7OUMF88SGY5B3BIJGRLSFTY0RP", "dateTime": 1516657013606}, {"current_trial": 130, "trialdata": {"rt": -1, "trial_type": "single-stim", "word": "creature", "stimulus": "<p id=\"stim\">CREATURE</p>", "conditions": [24, 1600, "v", 24000], "internal_node_id": "0.0-94.0", "trial": 3, "time_elapsed": 1009412, "serialpos": 1, "key_press": -1, "wordID": 402, "type": "PRES_VIS", "trial_index": 130}, "uniqueid": "MTK2046:388U7OUMF88SGY5B3BIJGRLSFTY0RP", "dateTime": 1516657016395}, {"current_trial": 131, "trialdata": {"rt": -1, "trial_type": "single-stim", "word": "spider", "stimulus": "<p id=\"stim\">SPIDER</p>", "conditions": [24, 1600, "v", 24000], "internal_node_id": "0.0-95.0", "trial": 3, "time_elapsed": 1011838, "serialpos": 2, "key_press": -1, "wordID": 1350, "type": "PRES_VIS", "trial_index": 131}, "uniqueid": "MTK2046:388U7OUMF88SGY5B3BIJGRLSFTY0RP", "dateTime": 1516657018822}, {"current_trial": 132, "trialdata": {"rt": -1, "trial_type": "single-stim", "word": "report", "stimulus": "<p id=\"stim\">REPORT</p>", "conditions": [24, 1600, "v", 24000], "internal_node_id": "0.0-96.0", "trial": 3, "time_elapsed": 1014489, "serialpos": 3, "key_press": -1, "wordID": 1183, "type": "PRES_VIS", "trial_index": 132}, "uniqueid": "MTK2046:388U7OUMF88SGY5B3BIJGRLSFTY0RP", "dateTime": 1516657021473}, {"current_trial": 133, "trialdata": {"rt": -1, "trial_type": "single-stim", "word": "soda", "stimulus": "<p id=\"stim\">SODA</p>", "conditions": [24, 1600, "v", 24000], "internal_node_id": "0.0-97.0", "trial": 3, "time_elapsed": 1017002, "serialpos": 4, "key_press": -1, "wordID": 1340, "type": "PRES_VIS", "trial_index": 133}, "uniqueid": "MTK2046:388U7OUMF88SGY5B3BIJGRLSFTY0RP", "dateTime": 1516657023986}, {"current_trial": 134, "trialdata": {"rt": -1, "trial_type": "single-stim", "word": "forehead", "stimulus": "<p id=\"stim\">FOREHEAD</p>", "conditions": [24, 1600, "v", 24000], "internal_node_id": "0.0-98.0", "trial": 3, "time_elapsed": 1019748, "serialpos": 5, "key_press": -1, "wordID": 591, "type": "PRES_VIS", "trial_index": 134}, "uniqueid": "MTK2046:388U7OUMF88SGY5B3BIJGRLSFTY0RP", "dateTime": 1516657026731}, {"current_trial": 135, "trialdata": {"rt": -1, "trial_type": "single-stim", "word": "keeper", "stimulus": "<p id=\"stim\">KEEPER</p>", "conditions": [24, 1600, "v", 24000], "internal_node_id": "0.0-99.0", "trial": 3, "time_elapsed": 1022319, "serialpos": 6, "key_press": -1, "wordID": 768, "type": "PRES_VIS", "trial_index": 135}, "uniqueid": "MTK2046:388U7OUMF88SGY5B3BIJGRLSFTY0RP", "dateTime": 1516657029302}, {"current_trial": 136, "trialdata": {"rt": -1, "trial_type": "single-stim", "word": "scissors", "stimulus": "<p id=\"stim\">SCISSORS</p>", "conditions": [24, 1600, "v", 24000], "internal_node_id": "0.0-100.0", "trial": 3, "time_elapsed": 1024786, "serialpos": 7, "key_press": -1, "wordID": 1249, "type": "PRES_VIS", "trial_index": 136}, "uniqueid": "MTK2046:388U7OUMF88SGY5B3BIJGRLSFTY0RP", "dateTime": 1516657031770}, {"current_trial": 137, "trialdata": {"rt": -1, "trial_type": "single-stim", "word": "lady", "stimulus": "<p id=\"stim\">LADY</p>", "conditions": [24, 1600, "v", 24000], "internal_node_id": "0.0-101.0", "trial": 3, "time_elapsed": 1027308, "serialpos": 8, "key_press": -1, "wordID": 793, "type": "PRES_VIS", "trial_index": 137}, "uniqueid": "MTK2046:388U7OUMF88SGY5B3BIJGRLSFTY0RP", "dateTime": 1516657034291}, {"current_trial": 138, "trialdata": {"rt": -1, "trial_type": "single-stim", "word": "hero", "stimulus": "<p id=\"stim\">HERO</p>", "conditions": [24, 1600, "v", 24000], "internal_node_id": "0.0-102.0", "trial": 3, "time_elapsed": 1029930, "serialpos": 9, "key_press": -1, "wordID": 705, "type": "PRES_VIS", "trial_index": 138}, "uniqueid": "MTK2046:388U7OUMF88SGY5B3BIJGRLSFTY0RP", "dateTime": 1516657036914}, {"current_trial": 139, "trialdata": {"rt": -1, "trial_type": "single-stim", "word": "survey", "stimulus": "<p id=\"stim\">SURVEY</p>", "conditions": [24, 1600, "v", 24000], "internal_node_id": "0.0-103.0", "trial": 3, "time_elapsed": 1032482, "serialpos": 10, "key_press": -1, "wordID": 1413, "type": "PRES_VIS", "trial_index": 139}, "uniqueid": "MTK2046:388U7OUMF88SGY5B3BIJGRLSFTY0RP", "dateTime": 1516657039466}, {"current_trial": 140, "trialdata": {"rt": -1, "trial_type": "single-stim", "word": "silk", "stimulus": "<p id=\"stim\">SILK</p>", "conditions": [24, 1600, "v", 24000], "internal_node_id": "0.0-104.0", "trial": 3, "time_elapsed": 1035178, "serialpos": 11, "key_press": -1, "wordID": 1306, "type": "PRES_VIS", "trial_index": 140}, "uniqueid": "MTK2046:388U7OUMF88SGY5B3BIJGRLSFTY0RP", "dateTime": 1516657042162}, {"current_trial": 141, "trialdata": {"rt": -1, "trial_type": "single-stim", "word": "jury", "stimulus": "<p id=\"stim\">JURY</p>", "conditions": [24, 1600, "v", 24000], "internal_node_id": "0.0-105.0", "trial": 3, "time_elapsed": 1037779, "serialpos": 12, "key_press": -1, "wordID": 765, "type": "PRES_VIS", "trial_index": 141}, "uniqueid": "MTK2046:388U7OUMF88SGY5B3BIJGRLSFTY0RP", "dateTime": 1516657044762}, {"current_trial": 142, "trialdata": {"rt": -1, "trial_type": "single-stim", "word": "apple", "stimulus": "<p id=\"stim\">APPLE</p>", "conditions": [24, 1600, "v", 24000], "internal_node_id": "0.0-106.0", "trial": 3, "time_elapsed": 1040211, "serialpos": 13, "key_press": -1, "wordID": 32, "type": "PRES_VIS", "trial_index": 142}, "uniqueid": "MTK2046:388U7OUMF88SGY5B3BIJGRLSFTY0RP", "dateTime": 1516657047195}, {"current_trial": 143, "trialdata": {"rt": -1, "trial_type": "single-stim", "word": "peach", "stimulus": "<p id=\"stim\">PEACH</p>", "conditions": [24, 1600, "v", 24000], "internal_node_id": "0.0-107.0", "trial": 3, "time_elapsed": 1042888, "serialpos": 14, "key_press": -1, "wordID": 1030, "type": "PRES_VIS", "trial_index": 143}, "uniqueid": "MTK2046:388U7OUMF88SGY5B3BIJGRLSFTY0RP", "dateTime": 1516657049871}, {"current_trial": 144, "trialdata": {"rt": -1, "trial_type": "single-stim", "word": "luggage", "stimulus": "<p id=\"stim\">LUGGAGE</p>", "conditions": [24, 1600, "v", 24000], "internal_node_id": "0.0-108.0", "trial": 3, "time_elapsed": 1045455, "serialpos": 15, "key_press": -1, "wordID": 846, "type": "PRES_VIS", "trial_index": 144}, "uniqueid": "MTK2046:388U7OUMF88SGY5B3BIJGRLSFTY0RP", "dateTime": 1516657052439}, {"current_trial": 145, "trialdata": {"rt": -1, "trial_type": "single-stim", "word": "jelly", "stimulus": "<p id=\"stim\">JELLY</p>", "conditions": [24, 1600, "v", 24000], "internal_node_id": "0.0-109.0", "trial": 3, "time_elapsed": 1048037, "serialpos": 16, "key_press": -1, "wordID": 754, "type": "PRES_VIS", "trial_index": 145}, "uniqueid": "MTK2046:388U7OUMF88SGY5B3BIJGRLSFTY0RP", "dateTime": 1516657055020}, {"current_trial": 146, "trialdata": {"rt": -1, "trial_type": "single-stim", "word": "mister", "stimulus": "<p id=\"stim\">MISTER</p>", "conditions": [24, 1600, "v", 24000], "internal_node_id": "0.0-110.0", "trial": 3, "time_elapsed": 1050645, "serialpos": 17, "key_press": -1, "wordID": 900, "type": "PRES_VIS", "trial_index": 146}, "uniqueid": "MTK2046:388U7OUMF88SGY5B3BIJGRLSFTY0RP", "dateTime": 1516657057629}, {"current_trial": 147, "trialdata": {"rt": -1, "trial_type": "single-stim", "word": "glove", "stimulus": "<p id=\"stim\">GLOVE</p>", "conditions": [24, 1600, "v", 24000], "internal_node_id": "0.0-111.0", "trial": 3, "time_elapsed": 1053439, "serialpos": 18, "key_press": -1, "wordID": 641, "type": "PRES_VIS", "trial_index": 147}, "uniqueid": "MTK2046:388U7OUMF88SGY5B3BIJGRLSFTY0RP", "dateTime": 1516657060422}, {"current_trial": 148, "trialdata": {"rt": -1, "trial_type": "single-stim", "word": "actress", "stimulus": "<p id=\"stim\">ACTRESS</p>", "conditions": [24, 1600, "v", 24000], "internal_node_id": "0.0-112.0", "trial": 3, "time_elapsed": 1055996, "serialpos": 19, "key_press": -1, "wordID": 5, "type": "PRES_VIS", "trial_index": 148}, "uniqueid": "MTK2046:388U7OUMF88SGY5B3BIJGRLSFTY0RP", "dateTime": 1516657062980}, {"current_trial": 149, "trialdata": {"rt": -1, "trial_type": "single-stim", "word": "friend", "stimulus": "<p id=\"stim\">FRIEND</p>", "conditions": [24, 1600, "v", 24000], "internal_node_id": "0.0-113.0", "trial": 3, "time_elapsed": 1058519, "serialpos": 20, "key_press": -1, "wordID": 605, "type": "PRES_VIS", "trial_index": 149}, "uniqueid": "MTK2046:388U7OUMF88SGY5B3BIJGRLSFTY0RP", "dateTime": 1516657065502}, {"current_trial": 150, "trialdata": {"rt": -1, "trial_type": "single-stim", "word": "jello", "stimulus": "<p id=\"stim\">JELLO</p>", "conditions": [24, 1600, "v", 24000], "internal_node_id": "0.0-114.0", "trial": 3, "time_elapsed": 1060997, "serialpos": 21, "key_press": -1, "wordID": 753, "type": "PRES_VIS", "trial_index": 150}, "uniqueid": "MTK2046:388U7OUMF88SGY5B3BIJGRLSFTY0RP", "dateTime": 1516657067980}, {"current_trial": 151, "trialdata": {"rt": -1, "trial_type": "single-stim", "word": "fireplace", "stimulus": "<p id=\"stim\">FIREPLACE</p>", "conditions": [24, 1600, "v", 24000], "internal_node_id": "0.0-115.0", "trial": 3, "time_elapsed": 1063681, "serialpos": 22, "key_press": -1, "wordID": 569, "type": "PRES_VIS", "trial_index": 151}, "uniqueid": "MTK2046:388U7OUMF88SGY5B3BIJGRLSFTY0RP", "dateTime": 1516657070664}, {"current_trial": 152, "trialdata": {"rt": -1, "trial_type": "single-stim", "word": "skirt", "stimulus": "<p id=\"stim\">SKIRT</p>", "conditions": [24, 1600, "v", 24000], "internal_node_id": "0.0-116.0", "trial": 3, "time_elapsed": 1066192, "serialpos": 23, "key_press": -1, "wordID": 1318, "type": "PRES_VIS", "trial_index": 152}, "uniqueid": "MTK2046:388U7OUMF88SGY5B3BIJGRLSFTY0RP", "dateTime": 1516657073175}, {"current_trial": 153, "trialdata": {"rt": -1, "trial_type": "single-stim", "stimulus": "", "internal_node_id": "0.0-117.0-0.0", "time_elapsed": 1068711, "key_press": -1, "type": "PRE_RECALL_DELAY", "trial_index": 153}, "uniqueid": "MTK2046:388U7OUMF88SGY5B3BIJGRLSFTY0RP", "dateTime": 1516657075695}, {"current_trial": 154, "trialdata": {"rt": -1000, "trial_type": "single-audio", "stimulus": "/static/audio/400Hz.wav", "internal_node_id": "0.0-118.0", "time_elapsed": 1069215, "key_press": -1, "type": "PRE_RECALL_ALERT", "trial_index": 154}, "uniqueid": "MTK2046:388U7OUMF88SGY5B3BIJGRLSFTY0RP", "dateTime": 1516657076199}, {"current_trial": 155, "trialdata": {"rt": [2930, 4676, 5910, 13097, 17802, 23279, 25982, 32843, 34919, 39594, 41618], "recwords": ["survey", "actress", "friend", "jello", "fireplace", "peach", "jury", "ladu", "hero", "spider", "soda"], "key_times": [1686, 1787, 1923, 2513, 2621, 2757, 2930, 3092, 3203, 3418, 3519, 3626, 3806, 4258, 4395, 4563, 4676, 4850, 5015, 5141, 5241, 5379, 5518, 5910, 12449, 12517, 12663, 12811, 12936, 13097, 14981, 15087, 15173, 15262, 15376, 15522, 15562, 15663, 15823, 17802, 22439, 22521, 22697, 22804, 22998, 23279, 25224, 25455, 25569, 25713, 25982, 32185, 32324, 32474, 32618, 32843, 33615, 33719, 33853, 34658, 34919, 38616, 38777, 38930, 39012, 39195, 39418, 39594, 40080, 40249, 40341, 40501, 40877, 41026, 41119, 41248, 41618], "trial_type": "free-recall", "conditions": [24, 1600, "v", 24000], "internal_node_id": "0.0-119.0-0.0", "key_presses": [83, 85, 82, 86, 69, 89, 13, 65, 67, 84, 82, 69, 69, 8, 83, 83, 13, 70, 82, 73, 69, 78, 68, 13, 74, 69, 76, 76, 79, 13, 70, 73, 82, 69, 80, 76, 65, 67, 69, 13, 80, 69, 65, 67, 72, 13, 74, 85, 82, 89, 13, 76, 65, 68, 85, 13, 72, 69, 82, 79, 13, 83, 80, 73, 68, 69, 82, 13, 83, 79, 65, 68, 8, 8, 68, 65, 13], "trial": 3, "time_elapsed": 1129222, "type": "FREE_RECALL", "trial_index": 155}, "uniqueid": "MTK2046:388U7OUMF88SGY5B3BIJGRLSFTY0RP", "dateTime": 1516657136217}, {"current_trial": 156, "trialdata": {"rt": 1651, "trial_type": "text", "internal_node_id": "0.0-120.0", "time_elapsed": 1132890, "key_press": 32, "type": "INSTRUCTIONS", "trial_index": 156}, "uniqueid": "MTK2046:388U7OUMF88SGY5B3BIJGRLSFTY0RP", "dateTime": 1516657139873}, {"current_trial": 157, "trialdata": {"rt": [3177, 5317, 8626, 11938], "trial_type": "math-distractor", "key_times": [2593, 2858, 3177, 4949, 5112, 5317, 8233, 8413, 8626, 11072, 11496, 11938], "responses": ["12", "11", "11", "15"], "num2": [2, 2, 7, 4, 3], "num3": [1, 4, 2, 9, 2], "conditions": [24, 800, "v", 12000], "internal_node_id": "0.0-121.0", "key_presses": [49, 50, 13, 49, 49, 13, 49, 49, 13, 49, 53, 13], "trial": 4, "time_elapsed": 1146897, "type": "DISTRACTOR", "trial_index": 157, "num1": [9, 5, 2, 2, 3]}, "uniqueid": "MTK2046:388U7OUMF88SGY5B3BIJGRLSFTY0RP", "dateTime": 1516657153881}, {"current_trial": 158, "trialdata": {"rt": -1, "trial_type": "single-stim", "stimulus": "<p id=\"stim\">10</p>", "internal_node_id": "0.0-122.0-0.0", "time_elapsed": 1149901, "key_press": -1, "trial_index": 158}, "uniqueid": "MTK2046:388U7OUMF88SGY5B3BIJGRLSFTY0RP", "dateTime": 1516657156884}, {"current_trial": 159, "trialdata": {"rt": -1, "trial_type": "single-stim", "stimulus": "<p id=\"stim\">9</p>", "internal_node_id": "0.0-122.0-1.0", "time_elapsed": 1150903, "key_press": -1, "trial_index": 159}, "uniqueid": "MTK2046:388U7OUMF88SGY5B3BIJGRLSFTY0RP", "dateTime": 1516657157887}, {"current_trial": 160, "trialdata": {"rt": -1, "trial_type": "single-stim", "stimulus": "<p id=\"stim\">8</p>", "internal_node_id": "0.0-122.0-2.0", "time_elapsed": 1151907, "key_press": -1, "trial_index": 160}, "uniqueid": "MTK2046:388U7OUMF88SGY5B3BIJGRLSFTY0RP", "dateTime": 1516657158890}, {"current_trial": 161, "trialdata": {"rt": -1, "trial_type": "single-stim", "stimulus": "<p id=\"stim\">7</p>", "internal_node_id": "0.0-122.0-3.0", "time_elapsed": 1152911, "key_press": -1, "trial_index": 161}, "uniqueid": "MTK2046:388U7OUMF88SGY5B3BIJGRLSFTY0RP", "dateTime": 1516657159894}, {"current_trial": 162, "trialdata": {"rt": -1, "trial_type": "single-stim", "stimulus": "<p id=\"stim\">6</p>", "internal_node_id": "0.0-122.0-4.0", "time_elapsed": 1153914, "key_press": -1, "trial_index": 162}, "uniqueid": "MTK2046:388U7OUMF88SGY5B3BIJGRLSFTY0RP", "dateTime": 1516657160898}, {"current_trial": 163, "trialdata": {"rt": -1, "trial_type": "single-stim", "stimulus": "<p id=\"stim\">5</p>", "internal_node_id": "0.0-122.0-5.0", "time_elapsed": 1154929, "key_press": -1, "trial_index": 163}, "uniqueid": "MTK2046:388U7OUMF88SGY5B3BIJGRLSFTY0RP", "dateTime": 1516657161912}, {"current_trial": 164, "trialdata": {"rt": -1, "trial_type": "single-stim", "stimulus": "<p id=\"stim\">4</p>", "internal_node_id": "0.0-122.0-6.0", "time_elapsed": 1155934, "key_press": -1, "trial_index": 164}, "uniqueid": "MTK2046:388U7OUMF88SGY5B3BIJGRLSFTY0RP", "dateTime": 1516657162917}, {"current_trial": 165, "trialdata": {"rt": -1, "trial_type": "single-stim", "stimulus": "<p id=\"stim\">3</p>", "internal_node_id": "0.0-122.0-7.0", "time_elapsed": 1156937, "key_press": -1, "trial_index": 165}, "uniqueid": "MTK2046:388U7OUMF88SGY5B3BIJGRLSFTY0RP", "dateTime": 1516657163921}, {"current_trial": 166, "trialdata": {"rt": -1, "trial_type": "single-stim", "stimulus": "<p id=\"stim\">2</p>", "internal_node_id": "0.0-122.0-8.0", "time_elapsed": 1157941, "key_press": -1, "trial_index": 166}, "uniqueid": "MTK2046:388U7OUMF88SGY5B3BIJGRLSFTY0RP", "dateTime": 1516657164925}, {"current_trial": 167, "trialdata": {"rt": -1, "trial_type": "single-stim", "stimulus": "<p id=\"stim\">1</p>", "internal_node_id": "0.0-122.0-9.0", "time_elapsed": 1158944, "key_press": -1, "trial_index": 167}, "uniqueid": "MTK2046:388U7OUMF88SGY5B3BIJGRLSFTY0RP", "dateTime": 1516657165927}, {"current_trial": 168, "trialdata": {"rt": -1, "trial_type": "single-stim", "stimulus": "<p id=\"stim\">+</p>", "internal_node_id": "0.0-123.0-0.0", "time_elapsed": 1160447, "key_press": -1, "type": "FIXATION", "trial_index": 168}, "uniqueid": "MTK2046:388U7OUMF88SGY5B3BIJGRLSFTY0RP", "dateTime": 1516657167431}, {"current_trial": 169, "trialdata": {"rt": -1, "trial_type": "single-stim", "word": "body", "stimulus": "<p id=\"stim\">BODY</p>", "conditions": [24, 800, "v", 12000], "internal_node_id": "0.0-124.0", "trial": 4, "time_elapsed": 1161250, "serialpos": 0, "key_press": -1, "wordID": 144, "type": "PRES_VIS", "trial_index": 169}, "uniqueid": "MTK2046:388U7OUMF88SGY5B3BIJGRLSFTY0RP", "dateTime": 1516657168234}, {"current_trial": 170, "trialdata": {"rt": -1, "trial_type": "single-stim", "word": "daisy", "stimulus": "<p id=\"stim\">DAISY</p>", "conditions": [24, 800, "v", 12000], "internal_node_id": "0.0-125.0", "trial": 4, "time_elapsed": 1162884, "serialpos": 1, "key_press": -1, "wordID": 434, "type": "PRES_VIS", "trial_index": 170}, "uniqueid": "MTK2046:388U7OUMF88SGY5B3BIJGRLSFTY0RP", "dateTime": 1516657169868}, {"current_trial": 171, "trialdata": {"rt": -1, "trial_type": "single-stim", "word": "picnic", "stimulus": "<p id=\"stim\">PICNIC</p>", "conditions": [24, 800, "v", 12000], "internal_node_id": "0.0-126.0", "trial": 4, "time_elapsed": 1164690, "serialpos": 2, "key_press": -1, "wordID": 1059, "type": "PRES_VIS", "trial_index": 171}, "uniqueid": "MTK2046:388U7OUMF88SGY5B3BIJGRLSFTY0RP", "dateTime": 1516657171674}, {"current_trial": 172, "trialdata": {"rt": -1, "trial_type": "single-stim", "word": "item", "stimulus": "<p id=\"stim\">ITEM</p>", "conditions": [24, 800, "v", 12000], "internal_node_id": "0.0-127.0", "trial": 4, "time_elapsed": 1166308, "serialpos": 3, "key_press": -1, "wordID": 745, "type": "PRES_VIS", "trial_index": 172}, "uniqueid": "MTK2046:388U7OUMF88SGY5B3BIJGRLSFTY0RP", "dateTime": 1516657173291}, {"current_trial": 173, "trialdata": {"rt": -1, "trial_type": "single-stim", "word": "clothes", "stimulus": "<p id=\"stim\">CLOTHES</p>", "conditions": [24, 800, "v", 12000], "internal_node_id": "0.0-128.0", "trial": 4, "time_elapsed": 1168129, "serialpos": 4, "key_press": -1, "wordID": 326, "type": "PRES_VIS", "trial_index": 173}, "uniqueid": "MTK2046:388U7OUMF88SGY5B3BIJGRLSFTY0RP", "dateTime": 1516657175113}, {"current_trial": 174, "trialdata": {"rt": -1, "trial_type": "single-stim", "word": "nightgown", "stimulus": "<p id=\"stim\">NIGHTGOWN</p>", "conditions": [24, 800, "v", 12000], "internal_node_id": "0.0-129.0", "trial": 4, "time_elapsed": 1169744, "serialpos": 5, "key_press": -1, "wordID": 952, "type": "PRES_VIS", "trial_index": 174}, "uniqueid": "MTK2046:388U7OUMF88SGY5B3BIJGRLSFTY0RP", "dateTime": 1516657176728}, {"current_trial": 175, "trialdata": {"rt": -1, "trial_type": "single-stim", "word": "pizza", "stimulus": "<p id=\"stim\">PIZZA</p>", "conditions": [24, 800, "v", 12000], "internal_node_id": "0.0-130.0", "trial": 4, "time_elapsed": 1171608, "serialpos": 6, "key_press": -1, "wordID": 1078, "type": "PRES_VIS", "trial_index": 175}, "uniqueid": "MTK2046:388U7OUMF88SGY5B3BIJGRLSFTY0RP", "dateTime": 1516657178591}, {"current_trial": 176, "trialdata": {"rt": -1, "trial_type": "single-stim", "word": "spool", "stimulus": "<p id=\"stim\">SPOOL</p>", "conditions": [24, 800, "v", 12000], "internal_node_id": "0.0-131.0", "trial": 4, "time_elapsed": 1173450, "serialpos": 7, "key_press": -1, "wordID": 1355, "type": "PRES_VIS", "trial_index": 176}, "uniqueid": "MTK2046:388U7OUMF88SGY5B3BIJGRLSFTY0RP", "dateTime": 1516657180433}, {"current_trial": 177, "trialdata": {"rt": -1, "trial_type": "single-stim", "word": "shirt", "stimulus": "<p id=\"stim\">SHIRT</p>", "conditions": [24, 800, "v", 12000], "internal_node_id": "0.0-132.0", "trial": 4, "time_elapsed": 1175094, "serialpos": 8, "key_press": -1, "wordID": 1286, "type": "PRES_VIS", "trial_index": 177}, "uniqueid": "MTK2046:388U7OUMF88SGY5B3BIJGRLSFTY0RP", "dateTime": 1516657182078}, {"current_trial": 178, "trialdata": {"rt": -1, "trial_type": "single-stim", "word": "apron", "stimulus": "<p id=\"stim\">APRON</p>", "conditions": [24, 800, "v", 12000], "internal_node_id": "0.0-133.0", "trial": 4, "time_elapsed": 1176741, "serialpos": 9, "key_press": -1, "wordID": 34, "type": "PRES_VIS", "trial_index": 178}, "uniqueid": "MTK2046:388U7OUMF88SGY5B3BIJGRLSFTY0RP", "dateTime": 1516657183724}, {"current_trial": 179, "trialdata": {"rt": -1, "trial_type": "single-stim", "word": "dolphin", "stimulus": "<p id=\"stim\">DOLPHIN</p>", "conditions": [24, 800, "v", 12000], "internal_node_id": "0.0-134.0", "trial": 4, "time_elapsed": 1178359, "serialpos": 10, "key_press": -1, "wordID": 482, "type": "PRES_VIS", "trial_index": 179}, "uniqueid": "MTK2046:388U7OUMF88SGY5B3BIJGRLSFTY0RP", "dateTime": 1516657185342}, {"current_trial": 180, "trialdata": {"rt": -1, "trial_type": "single-stim", "word": "pasta", "stimulus": "<p id=\"stim\">PASTA</p>", "conditions": [24, 800, "v", 12000], "internal_node_id": "0.0-135.0", "trial": 4, "time_elapsed": 1179965, "serialpos": 11, "key_press": -1, "wordID": 1020, "type": "PRES_VIS", "trial_index": 180}, "uniqueid": "MTK2046:388U7OUMF88SGY5B3BIJGRLSFTY0RP", "dateTime": 1516657186949}, {"current_trial": 181, "trialdata": {"rt": -1, "trial_type": "single-stim", "word": "truck", "stimulus": "<p id=\"stim\">TRUCK</p>", "conditions": [24, 800, "v", 12000], "internal_node_id": "0.0-136.0", "trial": 4, "time_elapsed": 1181830, "serialpos": 12, "key_press": -1, "wordID": 1511, "type": "PRES_VIS", "trial_index": 181}, "uniqueid": "MTK2046:388U7OUMF88SGY5B3BIJGRLSFTY0RP", "dateTime": 1516657188814}, {"current_trial": 182, "trialdata": {"rt": -1, "trial_type": "single-stim", "word": "salmon", "stimulus": "<p id=\"stim\">SALMON</p>", "conditions": [24, 800, "v", 12000], "internal_node_id": "0.0-137.0", "trial": 4, "time_elapsed": 1183669, "serialpos": 13, "key_press": -1, "wordID": 1226, "type": "PRES_VIS", "trial_index": 182}, "uniqueid": "MTK2046:388U7OUMF88SGY5B3BIJGRLSFTY0RP", "dateTime": 1516657190653}, {"current_trial": 183, "trialdata": {"rt": -1, "trial_type": "single-stim", "word": "barrel", "stimulus": "<p id=\"stim\">BARREL</p>", "conditions": [24, 800, "v", 12000], "internal_node_id": "0.0-138.0", "trial": 4, "time_elapsed": 1185356, "serialpos": 14, "key_press": -1, "wordID": 90, "type": "PRES_VIS", "trial_index": 183}, "uniqueid": "MTK2046:388U7OUMF88SGY5B3BIJGRLSFTY0RP", "dateTime": 1516657192340}, {"current_trial": 184, "trialdata": {"rt": -1, "trial_type": "single-stim", "word": "mars", "stimulus": "<p id=\"stim\">MARS</p>", "conditions": [24, 800, "v", 12000], "internal_node_id": "0.0-139.0", "trial": 4, "time_elapsed": 1187101, "serialpos": 15, "key_press": -1, "wordID": 872, "type": "PRES_VIS", "trial_index": 184}, "uniqueid": "MTK2046:388U7OUMF88SGY5B3BIJGRLSFTY0RP", "dateTime": 1516657194085}, {"current_trial": 185, "trialdata": {"rt": -1, "trial_type": "single-stim", "word": "mask", "stimulus": "<p id=\"stim\">MASK</p>", "conditions": [24, 800, "v", 12000], "internal_node_id": "0.0-140.0", "trial": 4, "time_elapsed": 1189061, "serialpos": 16, "key_press": -1, "wordID": 875, "type": "PRES_VIS", "trial_index": 185}, "uniqueid": "MTK2046:388U7OUMF88SGY5B3BIJGRLSFTY0RP", "dateTime": 1516657196044}, {"current_trial": 186, "trialdata": {"rt": -1, "trial_type": "single-stim", "word": "pigment", "stimulus": "<p id=\"stim\">PIGMENT</p>", "conditions": [24, 800, "v", 12000], "internal_node_id": "0.0-141.0", "trial": 4, "time_elapsed": 1190768, "serialpos": 17, "key_press": -1, "wordID": 1065, "type": "PRES_VIS", "trial_index": 186}, "uniqueid": "MTK2046:388U7OUMF88SGY5B3BIJGRLSFTY0RP", "dateTime": 1516657197751}, {"current_trial": 187, "trialdata": {"rt": -1, "trial_type": "single-stim", "word": "carrot", "stimulus": "<p id=\"stim\">CARROT</p>", "conditions": [24, 800, "v", 12000], "internal_node_id": "0.0-142.0", "trial": 4, "time_elapsed": 1192644, "serialpos": 18, "key_press": -1, "wordID": 248, "type": "PRES_VIS", "trial_index": 187}, "uniqueid": "MTK2046:388U7OUMF88SGY5B3BIJGRLSFTY0RP", "dateTime": 1516657199627}, {"current_trial": 188, "trialdata": {"rt": -1, "trial_type": "single-stim", "word": "picture", "stimulus": "<p id=\"stim\">PICTURE</p>", "conditions": [24, 800, "v", 12000], "internal_node_id": "0.0-143.0", "trial": 4, "time_elapsed": 1194509, "serialpos": 19, "key_press": -1, "wordID": 1060, "type": "PRES_VIS", "trial_index": 188}, "uniqueid": "MTK2046:388U7OUMF88SGY5B3BIJGRLSFTY0RP", "dateTime": 1516657201492}, {"current_trial": 189, "trialdata": {"rt": -1, "trial_type": "single-stim", "word": "portrait", "stimulus": "<p id=\"stim\">PORTRAIT</p>", "conditions": [24, 800, "v", 12000], "internal_node_id": "0.0-144.0", "trial": 4, "time_elapsed": 1196438, "serialpos": 20, "key_press": -1, "wordID": 1110, "type": "PRES_VIS", "trial_index": 189}, "uniqueid": "MTK2046:388U7OUMF88SGY5B3BIJGRLSFTY0RP", "dateTime": 1516657203421}, {"current_trial": 190, "trialdata": {"rt": -1, "trial_type": "single-stim", "word": "diner", "stimulus": "<p id=\"stim\">DINER</p>", "conditions": [24, 800, "v", 12000], "internal_node_id": "0.0-145.0", "trial": 4, "time_elapsed": 1198131, "serialpos": 21, "key_press": -1, "wordID": 466, "type": "PRES_VIS", "trial_index": 190}, "uniqueid": "MTK2046:388U7OUMF88SGY5B3BIJGRLSFTY0RP", "dateTime": 1516657205114}, {"current_trial": 191, "trialdata": {"rt": -1, "trial_type": "single-stim", "word": "gallon", "stimulus": "<p id=\"stim\">GALLON</p>", "conditions": [24, 800, "v", 12000], "internal_node_id": "0.0-146.0", "trial": 4, "time_elapsed": 1199948, "serialpos": 22, "key_press": -1, "wordID": 617, "type": "PRES_VIS", "trial_index": 191}, "uniqueid": "MTK2046:388U7OUMF88SGY5B3BIJGRLSFTY0RP", "dateTime": 1516657206932}, {"current_trial": 192, "trialdata": {"rt": -1, "trial_type": "single-stim", "word": "ox", "stimulus": "<p id=\"stim\">OX</p>", "conditions": [24, 800, "v", 12000], "internal_node_id": "0.0-147.0", "trial": 4, "time_elapsed": 1201651, "serialpos": 23, "key_press": -1, "wordID": 993, "type": "PRES_VIS", "trial_index": 192}, "uniqueid": "MTK2046:388U7OUMF88SGY5B3BIJGRLSFTY0RP", "dateTime": 1516657208635}, {"current_trial": 193, "trialdata": {"rt": -1, "trial_type": "single-stim", "stimulus": "", "internal_node_id": "0.0-148.0-0.0", "time_elapsed": 1203952, "key_press": -1, "type": "PRE_RECALL_DELAY", "trial_index": 193}, "uniqueid": "MTK2046:388U7OUMF88SGY5B3BIJGRLSFTY0RP", "dateTime": 1516657210936}, {"current_trial": 194, "trialdata": {"rt": -1000, "trial_type": "single-audio", "stimulus": "/static/audio/400Hz.wav", "internal_node_id": "0.0-149.0", "time_elapsed": 1204456, "key_press": -1, "type": "PRE_RECALL_ALERT", "trial_index": 194}, "uniqueid": "MTK2046:388U7OUMF88SGY5B3BIJGRLSFTY0RP", "dateTime": 1516657211440}, {"current_trial": 195, "trialdata": {"rt": [2027, 3427, 9073, 11767, 15714, 16564, 21205, 22995, 26882, 28134, 35016, 40352], "recwords": ["ox", "picture", "diner", "carrot", "mars", "mask", "truck", "dolphin", "pasta", "apron", "item", "body"], "key_times": [1662, 1894, 2027, 2507, 2652, 2735, 2884, 3042, 3163, 3219, 3427, 8504, 8592, 8728, 8841, 8901, 9073, 10955, 11122, 11252, 11394, 11522, 11616, 11767, 14817, 14918, 15264, 15459, 15714, 15972, 16047, 16160, 16307, 16564, 20388, 20488, 20680, 20767, 20948, 21205, 21639, 21742, 22108, 22294, 22547, 22642, 22841, 22995, 26013, 26226, 26381, 26524, 26655, 26882, 27256, 27389, 27498, 27607, 27790, 28134, 33913, 34048, 34248, 34705, 35016, 39151, 39264, 39500, 39979, 40352, 41126, 41343, 41576, 41812, 42202, 43053, 43224, 43478, 46073, 46272, 47121, 48155, 48700, 49000, 50093, 51570], "trial_type": "free-recall", "conditions": [24, 800, "v", 12000], "internal_node_id": "0.0-150.0-0.0", "key_presses": [79, 88, 13, 80, 73, 67, 84, 85, 82, 69, 13, 68, 73, 78, 69, 82, 13, 67, 65, 82, 82, 79, 84, 13, 77, 65, 82, 83, 13, 77, 65, 83, 75, 13, 84, 82, 85, 67, 75, 13, 68, 79, 76, 80, 72, 73, 78, 13, 80, 65, 83, 84, 65, 13, 65, 80, 82, 79, 78, 13, 73, 84, 69, 77, 13, 66, 79, 68, 89, 13, 80, 73, 78, 73, 67, 8, 8, 8, 8, 8, 74, 8, 80, 73, 67, 8], "trial": 4, "time_elapsed": 1264464, "type": "FREE_RECALL", "trial_index": 195}, "uniqueid": "MTK2046:388U7OUMF88SGY5B3BIJGRLSFTY0RP", "dateTime": 1516657271453}, {"current_trial": 196, "trialdata": {"rt": 1460, "trial_type": "text", "internal_node_id": "0.0-151.0", "time_elapsed": 1267932, "key_press": 32, "type": "INSTRUCTIONS", "trial_index": 196}, "uniqueid": "MTK2046:388U7OUMF88SGY5B3BIJGRLSFTY0RP", "dateTime": 1516657274916}, {"current_trial": 197, "trialdata": {"rt": [5710, 8300, 10487], "trial_type": "math-distractor", "key_times": [5120, 5246, 5710, 7914, 8021, 8300, 10243, 10487], "responses": ["25", "16", "9"], "num2": [8, 7, 4, 7], "num3": [8, 1, 2, 5], "conditions": [12, 1600, "v", 12000], "internal_node_id": "0.0-152.0", "key_presses": [50, 53, 13, 49, 54, 13, 57, 13], "trial": 5, "time_elapsed": 1281942, "type": "DISTRACTOR", "trial_index": 197, "num1": [9, 8, 3, 1]}, "uniqueid": "MTK2046:388U7OUMF88SGY5B3BIJGRLSFTY0RP", "dateTime": 1516657288926}, {"current_trial": 198, "trialdata": {"rt": -1, "trial_type": "single-stim", "stimulus": "<p id=\"stim\">10</p>", "internal_node_id": "0.0-153.0-0.0", "time_elapsed": 1284947, "key_press": -1, "trial_index": 198}, "uniqueid": "MTK2046:388U7OUMF88SGY5B3BIJGRLSFTY0RP", "dateTime": 1516657291930}, {"current_trial": 199, "trialdata": {"rt": -1, "trial_type": "single-stim", "stimulus": "<p id=\"stim\">9</p>", "internal_node_id": "0.0-153.0-1.0", "time_elapsed": 1285950, "key_press": -1, "trial_index": 199}, "uniqueid": "MTK2046:388U7OUMF88SGY5B3BIJGRLSFTY0RP", "dateTime": 1516657292933}, {"current_trial": 200, "trialdata": {"rt": -1, "trial_type": "single-stim", "stimulus": "<p id=\"stim\">8</p>", "internal_node_id": "0.0-153.0-2.0", "time_elapsed": 1286954, "key_press": -1, "trial_index": 200}, "uniqueid": "MTK2046:388U7OUMF88SGY5B3BIJGRLSFTY0RP", "dateTime": 1516657293937}, {"current_trial": 201, "trialdata": {"rt": -1, "trial_type": "single-stim", "stimulus": "<p id=\"stim\">7</p>", "internal_node_id": "0.0-153.0-3.0", "time_elapsed": 1287958, "key_press": -1, "trial_index": 201}, "uniqueid": "MTK2046:388U7OUMF88SGY5B3BIJGRLSFTY0RP", "dateTime": 1516657294941}, {"current_trial": 202, "trialdata": {"rt": -1, "trial_type": "single-stim", "stimulus": "<p id=\"stim\">6</p>", "internal_node_id": "0.0-153.0-4.0", "time_elapsed": 1288960, "key_press": -1, "trial_index": 202}, "uniqueid": "MTK2046:388U7OUMF88SGY5B3BIJGRLSFTY0RP", "dateTime": 1516657295944}, {"current_trial": 203, "trialdata": {"rt": -1, "trial_type": "single-stim", "stimulus": "<p id=\"stim\">5</p>", "internal_node_id": "0.0-153.0-5.0", "time_elapsed": 1289965, "key_press": -1, "trial_index": 203}, "uniqueid": "MTK2046:388U7OUMF88SGY5B3BIJGRLSFTY0RP", "dateTime": 1516657296949}, {"current_trial": 204, "trialdata": {"rt": -1, "trial_type": "single-stim", "stimulus": "<p id=\"stim\">4</p>", "internal_node_id": "0.0-153.0-6.0", "time_elapsed": 1290967, "key_press": -1, "trial_index": 204}, "uniqueid": "MTK2046:388U7OUMF88SGY5B3BIJGRLSFTY0RP", "dateTime": 1516657297951}, {"current_trial": 205, "trialdata": {"rt": -1, "trial_type": "single-stim", "stimulus": "<p id=\"stim\">3</p>", "internal_node_id": "0.0-153.0-7.0", "time_elapsed": 1291971, "key_press": -1, "trial_index": 205}, "uniqueid": "MTK2046:388U7OUMF88SGY5B3BIJGRLSFTY0RP", "dateTime": 1516657298954}, {"current_trial": 206, "trialdata": {"rt": -1, "trial_type": "single-stim", "stimulus": "<p id=\"stim\">2</p>", "internal_node_id": "0.0-153.0-8.0", "time_elapsed": 1292973, "key_press": -1, "trial_index": 206}, "uniqueid": "MTK2046:388U7OUMF88SGY5B3BIJGRLSFTY0RP", "dateTime": 1516657299956}, {"current_trial": 207, "trialdata": {"rt": -1, "trial_type": "single-stim", "stimulus": "<p id=\"stim\">1</p>", "internal_node_id": "0.0-153.0-9.0", "time_elapsed": 1293989, "key_press": -1, "trial_index": 207}, "uniqueid": "MTK2046:388U7OUMF88SGY5B3BIJGRLSFTY0RP", "dateTime": 1516657300972}, {"current_trial": 208, "trialdata": {"rt": -1, "trial_type": "single-stim", "stimulus": "<p id=\"stim\">+</p>", "internal_node_id": "0.0-154.0-0.0", "time_elapsed": 1295492, "key_press": -1, "type": "FIXATION", "trial_index": 208}, "uniqueid": "MTK2046:388U7OUMF88SGY5B3BIJGRLSFTY0RP", "dateTime": 1516657302475}, {"current_trial": 209, "trialdata": {"rt": -1, "trial_type": "single-stim", "word": "razor", "stimulus": "<p id=\"stim\">RAZOR</p>", "conditions": [12, 1600, "v", 12000], "internal_node_id": "0.0-155.0", "trial": 5, "time_elapsed": 1297094, "serialpos": 0, "key_press": -1, "wordID": 1170, "type": "PRES_VIS", "trial_index": 209}, "uniqueid": "MTK2046:388U7OUMF88SGY5B3BIJGRLSFTY0RP", "dateTime": 1516657304078}, {"current_trial": 210, "trialdata": {"rt": -1, "trial_type": "single-stim", "word": "headband", "stimulus": "<p id=\"stim\">HEADBAND</p>", "conditions": [12, 1600, "v", 12000], "internal_node_id": "0.0-156.0", "trial": 5, "time_elapsed": 1299754, "serialpos": 1, "key_press": -1, "wordID": 695, "type": "PRES_VIS", "trial_index": 210}, "uniqueid": "MTK2046:388U7OUMF88SGY5B3BIJGRLSFTY0RP", "dateTime": 1516657306737}, {"current_trial": 211, "trialdata": {"rt": -1, "trial_type": "single-stim", "word": "cousin", "stimulus": "<p id=\"stim\">COUSIN</p>", "conditions": [12, 1600, "v", 12000], "internal_node_id": "0.0-157.0", "trial": 5, "time_elapsed": 1302391, "serialpos": 2, "key_press": -1, "wordID": 391, "type": "PRES_VIS", "trial_index": 211}, "uniqueid": "MTK2046:388U7OUMF88SGY5B3BIJGRLSFTY0RP", "dateTime": 1516657309374}, {"current_trial": 212, "trialdata": {"rt": -1, "trial_type": "single-stim", "word": "scalpel", "stimulus": "<p id=\"stim\">SCALPEL</p>", "conditions": [12, 1600, "v", 12000], "internal_node_id": "0.0-158.0", "trial": 5, "time_elapsed": 1305125, "serialpos": 3, "key_press": -1, "wordID": 1242, "type": "PRES_VIS", "trial_index": 212}, "uniqueid": "MTK2046:388U7OUMF88SGY5B3BIJGRLSFTY0RP", "dateTime": 1516657312109}, {"current_trial": 213, "trialdata": {"rt": -1, "trial_type": "single-stim", "word": "statue", "stimulus": "<p id=\"stim\">STATUE</p>", "conditions": [12, 1600, "v", 12000], "internal_node_id": "0.0-159.0", "trial": 5, "time_elapsed": 1307599, "serialpos": 4, "key_press": -1, "wordID": 1373, "type": "PRES_VIS", "trial_index": 213}, "uniqueid": "MTK2046:388U7OUMF88SGY5B3BIJGRLSFTY0RP", "dateTime": 1516657314583}, {"current_trial": 214, "trialdata": {"rt": -1, "trial_type": "single-stim", "word": "robot", "stimulus": "<p id=\"stim\">ROBOT</p>", "conditions": [12, 1600, "v", 12000], "internal_node_id": "0.0-160.0", "trial": 5, "time_elapsed": 1310222, "serialpos": 5, "key_press": -1, "wordID": 1199, "type": "PRES_VIS", "trial_index": 214}, "uniqueid": "MTK2046:388U7OUMF88SGY5B3BIJGRLSFTY0RP", "dateTime": 1516657317206}, {"current_trial": 215, "trialdata": {"rt": -1, "trial_type": "single-stim", "word": "wardrobe", "stimulus": "<p id=\"stim\">WARDROBE</p>", "conditions": [12, 1600, "v", 12000], "internal_node_id": "0.0-161.0", "trial": 5, "time_elapsed": 1312983, "serialpos": 6, "key_press": -1, "wordID": 1586, "type": "PRES_VIS", "trial_index": 215}, "uniqueid": "MTK2046:388U7OUMF88SGY5B3BIJGRLSFTY0RP", "dateTime": 1516657319967}, {"current_trial": 216, "trialdata": {"rt": -1, "trial_type": "single-stim", "word": "breast", "stimulus": "<p id=\"stim\">BREAST</p>", "conditions": [12, 1600, "v", 12000], "internal_node_id": "0.0-162.0", "trial": 5, "time_elapsed": 1315656, "serialpos": 7, "key_press": -1, "wordID": 170, "type": "PRES_VIS", "trial_index": 216}, "uniqueid": "MTK2046:388U7OUMF88SGY5B3BIJGRLSFTY0RP", "dateTime": 1516657322640}, {"current_trial": 217, "trialdata": {"rt": -1, "trial_type": "single-stim", "word": "racket", "stimulus": "<p id=\"stim\">RACKET</p>", "conditions": [12, 1600, "v", 12000], "internal_node_id": "0.0-163.0", "trial": 5, "time_elapsed": 1318281, "serialpos": 8, "key_press": -1, "wordID": 1154, "type": "PRES_VIS", "trial_index": 217}, "uniqueid": "MTK2046:388U7OUMF88SGY5B3BIJGRLSFTY0RP", "dateTime": 1516657325265}, {"current_trial": 218, "trialdata": {"rt": -1, "trial_type": "single-stim", "word": "piston", "stimulus": "<p id=\"stim\">PISTON</p>", "conditions": [12, 1600, "v", 12000], "internal_node_id": "0.0-164.0", "trial": 5, "time_elapsed": 1320904, "serialpos": 9, "key_press": -1, "wordID": 1075, "type": "PRES_VIS", "trial_index": 218}, "uniqueid": "MTK2046:388U7OUMF88SGY5B3BIJGRLSFTY0RP", "dateTime": 1516657327888}, {"current_trial": 219, "trialdata": {"rt": -1, "trial_type": "single-stim", "word": "valve", "stimulus": "<p id=\"stim\">VALVE</p>", "conditions": [12, 1600, "v", 12000], "internal_node_id": "0.0-165.0", "trial": 5, "time_elapsed": 1323438, "serialpos": 10, "key_press": -1, "wordID": 1545, "type": "PRES_VIS", "trial_index": 219}, "uniqueid": "MTK2046:388U7OUMF88SGY5B3BIJGRLSFTY0RP", "dateTime": 1516657330422}, {"current_trial": 220, "trialdata": {"rt": -1, "trial_type": "single-stim", "word": "velvet", "stimulus": "<p id=\"stim\">VELVET</p>", "conditions": [12, 1600, "v", 12000], "internal_node_id": "0.0-166.0", "trial": 5, "time_elapsed": 1326077, "serialpos": 11, "key_press": -1, "wordID": 1554, "type": "PRES_VIS", "trial_index": 220}, "uniqueid": "MTK2046:388U7OUMF88SGY5B3BIJGRLSFTY0RP", "dateTime": 1516657333060}, {"current_trial": 221, "trialdata": {"rt": -1, "trial_type": "single-stim", "stimulus": "", "internal_node_id": "0.0-167.0-0.0", "time_elapsed": 1328540, "key_press": -1, "type": "PRE_RECALL_DELAY", "trial_index": 221}, "uniqueid": "MTK2046:388U7OUMF88SGY5B3BIJGRLSFTY0RP", "dateTime": 1516657335524}, {"current_trial": 222, "trialdata": {"rt": -1000, "trial_type": "single-audio", "stimulus": "/static/audio/400Hz.wav", "internal_node_id": "0.0-168.0", "time_elapsed": 1329049, "key_press": -1, "type": "PRE_RECALL_ALERT", "trial_index": 222}, "uniqueid": "MTK2046:388U7OUMF88SGY5B3BIJGRLSFTY0RP", "dateTime": 1516657336033}, {"current_trial": 223, "trialdata": {"rt": [2990, 4439, 9350, 14146, 17566], "recwords": ["piston", "valve", "velvet", "robot", "cousin"], "key_times": [1337, 1966, 2060, 2316, 2362, 2437, 2990, 3600, 3732, 3853, 3993, 4185, 4439, 7434, 7830, 8229, 8393, 8505, 8778, 8875, 9061, 9350, 13472, 13553, 13728, 13839, 13983, 14146, 16726, 16826, 16947, 17086, 17143, 17284, 17566, 20963, 21638], "trial_type": "free-recall", "conditions": [12, 1600, "v", 12000], "internal_node_id": "0.0-169.0-0.0", "key_presses": [80, 73, 83, 84, 79, 78, 13, 86, 65, 76, 86, 69, 13, 86, 76, 8, 69, 76, 86, 69, 84, 13, 82, 79, 66, 79, 84, 13, 67, 79, 85, 83, 73, 78, 13, 70, 8], "trial": 5, "time_elapsed": 1389056, "type": "FREE_RECALL", "trial_index": 223}, "uniqueid": "MTK2046:388U7OUMF88SGY5B3BIJGRLSFTY0RP", "dateTime": 1516657396045}, {"current_trial": 224, "trialdata": {"rt": 1162, "trial_type": "text", "internal_node_id": "0.0-170.0", "time_elapsed": 1392229, "key_press": 32, "type": "INSTRUCTIONS", "trial_index": 224}, "uniqueid": "MTK2046:388U7OUMF88SGY5B3BIJGRLSFTY0RP", "dateTime": 1516657399212}, {"current_trial": 225, "trialdata": {"rt": [3470, 5829, 10471, 12555, 16848, 21368, 23686], "trial_type": "math-distractor", "key_times": [3067, 3215, 3470, 5084, 5577, 5829, 9416, 9990, 10160, 10287, 10471, 12214, 12337, 12555, 16461, 16620, 16848, 21043, 21198, 21368, 23070, 23446, 23686], "responses": ["18", "10", "21", "19", "21", "22", "15"], "num2": [4, 5, 8, 1, 9, 8, 1, 8], "num3": [8, 2, 4, 9, 9, 7, 8, 8], "conditions": [24, 800, "v", 24000], "internal_node_id": "0.0-171.0", "key_presses": [49, 56, 13, 49, 48, 13, 51, 8, 50, 49, 13, 49, 57, 13, 50, 49, 13, 50, 50, 13, 49, 53, 13], "trial": 6, "time_elapsed": 1418237, "type": "DISTRACTOR", "trial_index": 225, "num1": [6, 3, 9, 9, 3, 7, 6, 4]}, "uniqueid": "MTK2046:388U7OUMF88SGY5B3BIJGRLSFTY0RP", "dateTime": 1516657425221}, {"current_trial": 226, "trialdata": {"rt": -1, "trial_type": "single-stim", "stimulus": "<p id=\"stim\">10</p>", "internal_node_id": "0.0-172.0-0.0", "time_elapsed": 1421243, "key_press": -1, "trial_index": 226}, "uniqueid": "MTK2046:388U7OUMF88SGY5B3BIJGRLSFTY0RP", "dateTime": 1516657428226}, {"current_trial": 227, "trialdata": {"rt": -1, "trial_type": "single-stim", "stimulus": "<p id=\"stim\">9</p>", "internal_node_id": "0.0-172.0-1.0", "time_elapsed": 1422246, "key_press": -1, "trial_index": 227}, "uniqueid": "MTK2046:388U7OUMF88SGY5B3BIJGRLSFTY0RP", "dateTime": 1516657429229}, {"current_trial": 228, "trialdata": {"rt": -1, "trial_type": "single-stim", "stimulus": "<p id=\"stim\">8</p>", "internal_node_id": "0.0-172.0-2.0", "time_elapsed": 1423248, "key_press": -1, "trial_index": 228}, "uniqueid": "MTK2046:388U7OUMF88SGY5B3BIJGRLSFTY0RP", "dateTime": 1516657430232}, {"current_trial": 229, "trialdata": {"rt": -1, "trial_type": "single-stim", "stimulus": "<p id=\"stim\">7</p>", "internal_node_id": "0.0-172.0-3.0", "time_elapsed": 1424250, "key_press": -1, "trial_index": 229}, "uniqueid": "MTK2046:388U7OUMF88SGY5B3BIJGRLSFTY0RP", "dateTime": 1516657431234}, {"current_trial": 230, "trialdata": {"rt": -1, "trial_type": "single-stim", "stimulus": "<p id=\"stim\">6</p>", "internal_node_id": "0.0-172.0-4.0", "time_elapsed": 1425253, "key_press": -1, "trial_index": 230}, "uniqueid": "MTK2046:388U7OUMF88SGY5B3BIJGRLSFTY0RP", "dateTime": 1516657432236}, {"current_trial": 231, "trialdata": {"rt": -1, "trial_type": "single-stim", "stimulus": "<p id=\"stim\">5</p>", "internal_node_id": "0.0-172.0-5.0", "time_elapsed": 1426256, "key_press": -1, "trial_index": 231}, "uniqueid": "MTK2046:388U7OUMF88SGY5B3BIJGRLSFTY0RP", "dateTime": 1516657433239}, {"current_trial": 232, "trialdata": {"rt": -1, "trial_type": "single-stim", "stimulus": "<p id=\"stim\">4</p>", "internal_node_id": "0.0-172.0-6.0", "time_elapsed": 1427259, "key_press": -1, "trial_index": 232}, "uniqueid": "MTK2046:388U7OUMF88SGY5B3BIJGRLSFTY0RP", "dateTime": 1516657434243}, {"current_trial": 233, "trialdata": {"rt": -1, "trial_type": "single-stim", "stimulus": "<p id=\"stim\">3</p>", "internal_node_id": "0.0-172.0-7.0", "time_elapsed": 1428262, "key_press": -1, "trial_index": 233}, "uniqueid": "MTK2046:388U7OUMF88SGY5B3BIJGRLSFTY0RP", "dateTime": 1516657435246}, {"current_trial": 234, "trialdata": {"rt": -1, "trial_type": "single-stim", "stimulus": "<p id=\"stim\">2</p>", "internal_node_id": "0.0-172.0-8.0", "time_elapsed": 1429265, "key_press": -1, "trial_index": 234}, "uniqueid": "MTK2046:388U7OUMF88SGY5B3BIJGRLSFTY0RP", "dateTime": 1516657436248}, {"current_trial": 235, "trialdata": {"rt": -1, "trial_type": "single-stim", "stimulus": "<p id=\"stim\">1</p>", "internal_node_id": "0.0-172.0-9.0", "time_elapsed": 1430268, "key_press": -1, "trial_index": 235}, "uniqueid": "MTK2046:388U7OUMF88SGY5B3BIJGRLSFTY0RP", "dateTime": 1516657437251}, {"current_trial": 236, "trialdata": {"rt": -1, "trial_type": "single-stim", "stimulus": "<p id=\"stim\">+</p>", "internal_node_id": "0.0-173.0-0.0", "time_elapsed": 1431771, "key_press": -1, "type": "FIXATION", "trial_index": 236}, "uniqueid": "MTK2046:388U7OUMF88SGY5B3BIJGRLSFTY0RP", "dateTime": 1516657438755}, {"current_trial": 237, "trialdata": {"rt": -1, "trial_type": "single-stim", "word": "girl", "stimulus": "<p id=\"stim\">GIRL</p>", "conditions": [24, 800, "v", 24000], "internal_node_id": "0.0-174.0", "trial": 6, "time_elapsed": 1432574, "serialpos": 0, "key_press": -1, "wordID": 636, "type": "PRES_VIS", "trial_index": 237}, "uniqueid": "MTK2046:388U7OUMF88SGY5B3BIJGRLSFTY0RP", "dateTime": 1516657439558}, {"current_trial": 238, "trialdata": {"rt": -1, "trial_type": "single-stim", "word": "daughter", "stimulus": "<p id=\"stim\">DAUGHTER</p>", "conditions": [24, 800, "v", 24000], "internal_node_id": "0.0-175.0", "trial": 6, "time_elapsed": 1434360, "serialpos": 1, "key_press": -1, "wordID": 441, "type": "PRES_VIS", "trial_index": 238}, "uniqueid": "MTK2046:388U7OUMF88SGY5B3BIJGRLSFTY0RP", "dateTime": 1516657441344}, {"current_trial": 239, "trialdata": {"rt": -1, "trial_type": "single-stim", "word": "rabbit", "stimulus": "<p id=\"stim\">RABBIT</p>", "conditions": [24, 800, "v", 24000], "internal_node_id": "0.0-176.0", "trial": 6, "time_elapsed": 1436027, "serialpos": 2, "key_press": -1, "wordID": 1151, "type": "PRES_VIS", "trial_index": 239}, "uniqueid": "MTK2046:388U7OUMF88SGY5B3BIJGRLSFTY0RP", "dateTime": 1516657443010}, {"current_trial": 240, "trialdata": {"rt": -1, "trial_type": "single-stim", "word": "globe", "stimulus": "<p id=\"stim\">GLOBE</p>", "conditions": [24, 800, "v", 24000], "internal_node_id": "0.0-177.0", "trial": 6, "time_elapsed": 1437999, "serialpos": 3, "key_press": -1, "wordID": 640, "type": "PRES_VIS", "trial_index": 240}, "uniqueid": "MTK2046:388U7OUMF88SGY5B3BIJGRLSFTY0RP", "dateTime": 1516657444985}, {"current_trial": 241, "trialdata": {"rt": -1, "trial_type": "single-stim", "word": "treat", "stimulus": "<p id=\"stim\">TREAT</p>", "conditions": [24, 800, "v", 24000], "internal_node_id": "0.0-178.0", "trial": 6, "time_elapsed": 1439854, "serialpos": 4, "key_press": -1, "wordID": 1500, "type": "PRES_VIS", "trial_index": 241}, "uniqueid": "MTK2046:388U7OUMF88SGY5B3BIJGRLSFTY0RP", "dateTime": 1516657446837}, {"current_trial": 242, "trialdata": {"rt": -1, "trial_type": "single-stim", "word": "quail", "stimulus": "<p id=\"stim\">QUAIL</p>", "conditions": [24, 800, "v", 24000], "internal_node_id": "0.0-179.0", "trial": 6, "time_elapsed": 1441516, "serialpos": 5, "key_press": -1, "wordID": 1146, "type": "PRES_VIS", "trial_index": 242}, "uniqueid": "MTK2046:388U7OUMF88SGY5B3BIJGRLSFTY0RP", "dateTime": 1516657448499}, {"current_trial": 243, "trialdata": {"rt": -1, "trial_type": "single-stim", "word": "cellar", "stimulus": "<p id=\"stim\">CELLAR</p>", "conditions": [24, 800, "v", 24000], "internal_node_id": "0.0-180.0", "trial": 6, "time_elapsed": 1443313, "serialpos": 6, "key_press": -1, "wordID": 266, "type": "PRES_VIS", "trial_index": 243}, "uniqueid": "MTK2046:388U7OUMF88SGY5B3BIJGRLSFTY0RP", "dateTime": 1516657450296}, {"current_trial": 244, "trialdata": {"rt": -1, "trial_type": "single-stim", "word": "garlic", "stimulus": "<p id=\"stim\">GARLIC</p>", "conditions": [24, 800, "v", 24000], "internal_node_id": "0.0-181.0", "trial": 6, "time_elapsed": 1445264, "serialpos": 7, "key_press": -1, "wordID": 623, "type": "PRES_VIS", "trial_index": 244}, "uniqueid": "MTK2046:388U7OUMF88SGY5B3BIJGRLSFTY0RP", "dateTime": 1516657452248}, {"current_trial": 245, "trialdata": {"rt": -1, "trial_type": "single-stim", "word": "world", "stimulus": "<p id=\"stim\">WORLD</p>", "conditions": [24, 800, "v", 24000], "internal_node_id": "0.0-182.0", "trial": 6, "time_elapsed": 1447044, "serialpos": 8, "key_press": -1, "wordID": 1621, "type": "PRES_VIS", "trial_index": 245}, "uniqueid": "MTK2046:388U7OUMF88SGY5B3BIJGRLSFTY0RP", "dateTime": 1516657454027}, {"current_trial": 246, "trialdata": {"rt": -1, "trial_type": "single-stim", "word": "concert", "stimulus": "<p id=\"stim\">CONCERT</p>", "conditions": [24, 800, "v", 24000], "internal_node_id": "0.0-183.0", "trial": 6, "time_elapsed": 1448914, "serialpos": 9, "key_press": -1, "wordID": 359, "type": "PRES_VIS", "trial_index": 246}, "uniqueid": "MTK2046:388U7OUMF88SGY5B3BIJGRLSFTY0RP", "dateTime": 1516657455897}, {"current_trial": 247, "trialdata": {"rt": -1, "trial_type": "single-stim", "word": "preacher", "stimulus": "<p id=\"stim\">PREACHER</p>", "conditions": [24, 800, "v", 24000], "internal_node_id": "0.0-184.0", "trial": 6, "time_elapsed": 1450910, "serialpos": 10, "key_press": -1, "wordID": 1118, "type": "PRES_VIS", "trial_index": 247}, "uniqueid": "MTK2046:388U7OUMF88SGY5B3BIJGRLSFTY0RP", "dateTime": 1516657457894}, {"current_trial": 248, "trialdata": {"rt": -1, "trial_type": "single-stim", "word": "antler", "stimulus": "<p id=\"stim\">ANTLER</p>", "conditions": [24, 800, "v", 24000], "internal_node_id": "0.0-185.0", "trial": 6, "time_elapsed": 1452711, "serialpos": 11, "key_press": -1, "wordID": 28, "type": "PRES_VIS", "trial_index": 248}, "uniqueid": "MTK2046:388U7OUMF88SGY5B3BIJGRLSFTY0RP", "dateTime": 1516657459694}, {"current_trial": 249, "trialdata": {"rt": -1, "trial_type": "single-stim", "word": "rod", "stimulus": "<p id=\"stim\">ROD</p>", "conditions": [24, 800, "v", 24000], "internal_node_id": "0.0-186.0", "trial": 6, "time_elapsed": 1454353, "serialpos": 12, "key_press": -1, "wordID": 1202, "type": "PRES_VIS", "trial_index": 249}, "uniqueid": "MTK2046:388U7OUMF88SGY5B3BIJGRLSFTY0RP", "dateTime": 1516657461337}, {"current_trial": 250, "trialdata": {"rt": -1, "trial_type": "single-stim", "word": "sunset", "stimulus": "<p id=\"stim\">SUNSET</p>", "conditions": [24, 800, "v", 24000], "internal_node_id": "0.0-187.0", "trial": 6, "time_elapsed": 1456153, "serialpos": 13, "key_press": -1, "wordID": 1407, "type": "PRES_VIS", "trial_index": 250}, "uniqueid": "MTK2046:388U7OUMF88SGY5B3BIJGRLSFTY0RP", "dateTime": 1516657463137}, {"current_trial": 251, "trialdata": {"rt": -1, "trial_type": "single-stim", "word": "banjo", "stimulus": "<p id=\"stim\">BANJO</p>", "conditions": [24, 800, "v", 24000], "internal_node_id": "0.0-188.0", "trial": 6, "time_elapsed": 1458071, "serialpos": 14, "key_press": -1, "wordID": 81, "type": "PRES_VIS", "trial_index": 251}, "uniqueid": "MTK2046:388U7OUMF88SGY5B3BIJGRLSFTY0RP", "dateTime": 1516657465055}, {"current_trial": 252, "trialdata": {"rt": -1, "trial_type": "single-stim", "word": "trombone", "stimulus": "<p id=\"stim\">TROMBONE</p>", "conditions": [24, 800, "v", 24000], "internal_node_id": "0.0-189.0", "trial": 6, "time_elapsed": 1459769, "serialpos": 15, "key_press": -1, "wordID": 1507, "type": "PRES_VIS", "trial_index": 252}, "uniqueid": "MTK2046:388U7OUMF88SGY5B3BIJGR