{"assignmentId": "3L4D84MIL0ZMTASUTEGVKSYIT89HJF", "workerId": "MTK2615", "questiondata": {"avail_screen_height": 727, "color_depth": 24, "screen_width": 1280, "pixel_depth": 24, "avail_screen_width": 1280, "screen_height": 800}, "bonus": 0, "hitId": "3IZPORCT1FG14EDDBHK2XZOPJKLRHU", "counterbalance": 2203, "useragent": "Mozilla/5.0 (Macintosh; Intel Mac OS X 10_11_1) AppleWebKit/537.36 (KHTML, like Gecko) Chrome/61.0.3163.91 Safari/537.36", "eventdata": [{"eventtype": "initialized", "interval": 0, "value": null, "timestamp": 1519153249604}, {"eventtype": "window_resize", "interval": 0, "value": [1280, 676], "timestamp": 1519153249604}, {"eventtype": "focus", "interval": 237841, "value": "off", "timestamp": 1519153487445}, {"eventtype": "focus", "interval": 21717, "value": "on", "timestamp": 1519153509162}, {"eventtype": "focus", "interval": 2217481, "value": "off", "timestamp": 1519155726643}, {"eventtype": "focus", "interval": 28090, "value": "on", "timestamp": 1519155754733}, {"eventtype": "focus", "interval": 110654, "value": "off", "timestamp": 1519155865387}, {"eventtype": "focus", "interval": 7847, "value": "on", "timestamp": 1519155873234}, {"eventtype": "focus", "interval": 116800, "value": "off", "timestamp": 1519155990034}, {"eventtype": "focus", "interval": 25390, "value": "on", "timestamp": 1519156015424}, {"eventtype": "focus", "interval": 26707, "value": "off", "timestamp": 1519156042131}, {"eventtype": "focus", "interval": 7044, "value": "on", "timestamp": 1519156049175}, {"eventtype": "focus", "interval": 114247, "value": "off", "timestamp": 1519156163422}, {"eventtype": "focus", "interval": 3426, "value": "on", "timestamp": 1519156166848}, {"eventtype": "focus", "interval": 2573, "value": "off", "timestamp": 1519156169421}, {"eventtype": "focus", "interval": 25208, "value": "on", "timestamp": 1519156194629}], "data": [{"current_trial": 0, "trialdata": {"rt": 1598, "trial_type": "text", "internal_node_id": "0.0-0.0", "time_elapsed": 1600, "key_press": 32, "type": "INSTRUCTIONS", "trial_index": 0}, "uniqueid": "MTK2615:3L4D84MIL0ZMTASUTEGVKSYIT89HJF", "dateTime": 1519153253878}, {"current_trial": 1, "trialdata": {"rt": 14325, "trial_type": "text", "internal_node_id": "0.0-1.0", "time_elapsed": 15927, "key_press": 32, "type": "INSTRUCTIONS", "trial_index": 1}, "uniqueid": "MTK2615:3L4D84MIL0ZMTASUTEGVKSYIT89HJF", "dateTime": 1519153268204}, {"current_trial": 2, "trialdata": {"rt": [7166], "trial_type": "audio-test", "responses": ["ocean"], "internal_node_id": "0.0-2.0", "time_elapsed": 23103, "type": "AUDIO_TEST", "trial_index": 2}, "uniqueid": "MTK2615:3L4D84MIL0ZMTASUTEGVKSYIT89HJF", "dateTime": 1519153275380}, {"current_trial": 3, "trialdata": {"rt": [9499], "trial_type": "audio-test", "responses": ["crystal"], "internal_node_id": "0.0-3.0", "time_elapsed": 32607, "type": "AUDIO_TEST", "trial_index": 3}, "uniqueid": "MTK2615:3L4D84MIL0ZMTASUTEGVKSYIT89HJF", "dateTime": 1519153284884}, {"current_trial": 4, "trialdata": {"rt": [8939], "trial_type": "audio-test", "responses": ["spice"], "internal_node_id": "0.0-4.0", "time_elapsed": 41550, "type": "AUDIO_TEST", "trial_index": 4}, "uniqueid": "MTK2615:3L4D84MIL0ZMTASUTEGVKSYIT89HJF", "dateTime": 1519153293827}, {"current_trial": 5, "trialdata": {"rt": 20470, "trial_type": "survey-text", "responses": "{\"Q0\":\"10:30 pm\",\"Q1\":\"6:30 pm\",\"Q2\":\"4\"}", "internal_node_id": "0.0-5.0", "time_elapsed": 62773, "type": "SLEEP_SURVEY", "trial_index": 5}, "uniqueid": "MTK2615:3L4D84MIL0ZMTASUTEGVKSYIT89HJF", "dateTime": 1519153315050}, {"current_trial": 6, "trialdata": {"rt": 26737, "trial_type": "text", "internal_node_id": "0.0-6.0", "time_elapsed": 90513, "key_press": 32, "type": "INSTRUCTIONS", "trial_index": 6}, "uniqueid": "MTK2615:3L4D84MIL0ZMTASUTEGVKSYIT89HJF", "dateTime": 1519153342790}, {"current_trial": 7, "trialdata": {"rt": 10899, "trial_type": "text", "internal_node_id": "0.0-7.0", "time_elapsed": 101914, "key_press": 32, "type": "INSTRUCTIONS", "trial_index": 7}, "uniqueid": "MTK2615:3L4D84MIL0ZMTASUTEGVKSYIT89HJF", "dateTime": 1519153354191}, {"current_trial": 8, "trialdata": {"rt": 8684, "trial_type": "text", "internal_node_id": "0.0-8.0", "time_elapsed": 111102, "key_press": 32, "type": "INSTRUCTIONS", "trial_index": 8}, "uniqueid": "MTK2615:3L4D84MIL0ZMTASUTEGVKSYIT89HJF", "dateTime": 1519153363379}, {"current_trial": 9, "trialdata": {"rt": [3378, 6730, 10754], "trial_type": "math-distractor", "key_times": [2498, 2962, 3378, 5754, 5834, 6730, 9083, 9802, 10754, 16942, 17317], "responses": ["10", "10", "15"], "num2": [1, 3, 8, 6], "num3": [6, 6, 3, 6], "conditions": [18, 1200, "v", 18000], "internal_node_id": "0.0-9.0", "key_presses": [49, 48, 13, 49, 48, 13, 49, 53, 13, 50, 48], "trial": 0, "time_elapsed": 130113, "type": "DISTRACTOR", "trial_index": 9, "num1": [3, 1, 4, 8]}, "uniqueid": "MTK2615:3L4D84MIL0ZMTASUTEGVKSYIT89HJF", "dateTime": 1519153382390}, {"current_trial": 10, "trialdata": {"rt": -1, "trial_type": "single-stim", "stimulus": "<p id=\"stim\">10</p>", "internal_node_id": "0.0-10.0-0.0", "time_elapsed": 133122, "key_press": -1, "trial_index": 10}, "uniqueid": "MTK2615:3L4D84MIL0ZMTASUTEGVKSYIT89HJF", "dateTime": 1519153385399}, {"current_trial": 11, "trialdata": {"rt": -1, "trial_type": "single-stim", "stimulus": "<p id=\"stim\">9</p>", "internal_node_id": "0.0-10.0-1.0", "time_elapsed": 134125, "key_press": -1, "trial_index": 11}, "uniqueid": "MTK2615:3L4D84MIL0ZMTASUTEGVKSYIT89HJF", "dateTime": 1519153386402}, {"current_trial": 12, "trialdata": {"rt": -1, "trial_type": "single-stim", "stimulus": "<p id=\"stim\">8</p>", "internal_node_id": "0.0-10.0-2.0", "time_elapsed": 135131, "key_press": -1, "trial_index": 12}, "uniqueid": "MTK2615:3L4D84MIL0ZMTASUTEGVKSYIT89HJF", "dateTime": 1519153387408}, {"current_trial": 13, "trialdata": {"rt": -1, "trial_type": "single-stim", "stimulus": "<p id=\"stim\">7</p>", "internal_node_id": "0.0-10.0-3.0", "time_elapsed": 136133, "key_press": -1, "trial_index": 13}, "uniqueid": "MTK2615:3L4D84MIL0ZMTASUTEGVKSYIT89HJF", "dateTime": 1519153388411}, {"current_trial": 14, "trialdata": {"rt": -1, "trial_type": "single-stim", "stimulus": "<p id=\"stim\">6</p>", "internal_node_id": "0.0-10.0-4.0", "time_elapsed": 137137, "key_press": -1, "trial_index": 14}, "uniqueid": "MTK2615:3L4D84MIL0ZMTASUTEGVKSYIT89HJF", "dateTime": 1519153389414}, {"current_trial": 15, "trialdata": {"rt": -1, "trial_type": "single-stim", "stimulus": "<p id=\"stim\">5</p>", "internal_node_id": "0.0-10.0-5.0", "time_elapsed": 138141, "key_press": -1, "trial_index": 15}, "uniqueid": "MTK2615:3L4D84MIL0ZMTASUTEGVKSYIT89HJF", "dateTime": 1519153390418}, {"current_trial": 16, "trialdata": {"rt": -1, "trial_type": "single-stim", "stimulus": "<p id=\"stim\">4</p>", "internal_node_id": "0.0-10.0-6.0", "time_elapsed": 139146, "key_press": -1, "trial_index": 16}, "uniqueid": "MTK2615:3L4D84MIL0ZMTASUTEGVKSYIT89HJF", "dateTime": 1519153391423}, {"current_trial": 17, "trialdata": {"rt": -1, "trial_type": "single-stim", "stimulus": "<p id=\"stim\">3</p>", "internal_node_id": "0.0-10.0-7.0", "time_elapsed": 140150, "key_press": -1, "trial_index": 17}, "uniqueid": "MTK2615:3L4D84MIL0ZMTASUTEGVKSYIT89HJF", "dateTime": 1519153392427}, {"current_trial": 18, "trialdata": {"rt": -1, "trial_type": "single-stim", "stimulus": "<p id=\"stim\">2</p>", "internal_node_id": "0.0-10.0-8.0", "time_elapsed": 141154, "key_press": -1, "trial_index": 18}, "uniqueid": "MTK2615:3L4D84MIL0ZMTASUTEGVKSYIT89HJF", "dateTime": 1519153393431}, {"current_trial": 19, "trialdata": {"rt": -1, "trial_type": "single-stim", "stimulus": "<p id=\"stim\">1</p>", "internal_node_id": "0.0-10.0-9.0", "time_elapsed": 142158, "key_press": -1, "trial_index": 19}, "uniqueid": "MTK2615:3L4D84MIL0ZMTASUTEGVKSYIT89HJF", "dateTime": 1519153394435}, {"current_trial": 20, "trialdata": {"rt": -1, "trial_type": "single-stim", "stimulus": "<p id=\"stim\">+</p>", "internal_node_id": "0.0-11.0-0.0", "time_elapsed": 143661, "key_press": -1, "type": "FIXATION", "trial_index": 20}, "uniqueid": "MTK2615:3L4D84MIL0ZMTASUTEGVKSYIT89HJF", "dateTime": 1519153395938}, {"current_trial": 21, "trialdata": {"rt": -1, "trial_type": "single-stim", "word": "student", "stimulus": "<p id=\"stim\">STUDENT</p>", "conditions": [18, 1200, "v", 18000], "internal_node_id": "0.0-12.0", "trial": 0, "time_elapsed": 144863, "serialpos": 0, "key_press": -1, "wordID": 1394, "type": "PRES_VIS", "trial_index": 21}, "uniqueid": "MTK2615:3L4D84MIL0ZMTASUTEGVKSYIT89HJF", "dateTime": 1519153397140}, {"current_trial": 22, "trialdata": {"rt": -1, "trial_type": "single-stim", "word": "outlaw", "stimulus": "<p id=\"stim\">OUTLAW</p>", "conditions": [18, 1200, "v", 18000], "internal_node_id": "0.0-13.0", "trial": 0, "time_elapsed": 147242, "serialpos": 1, "key_press": -1, "wordID": 988, "type": "PRES_VIS", "trial_index": 22}, "uniqueid": "MTK2615:3L4D84MIL0ZMTASUTEGVKSYIT89HJF", "dateTime": 1519153399519}, {"current_trial": 23, "trialdata": {"rt": -1, "trial_type": "single-stim", "word": "binder", "stimulus": "<p id=\"stim\">BINDER</p>", "conditions": [18, 1200, "v", 18000], "internal_node_id": "0.0-14.0", "trial": 0, "time_elapsed": 149268, "serialpos": 2, "key_press": -1, "wordID": 126, "type": "PRES_VIS", "trial_index": 23}, "uniqueid": "MTK2615:3L4D84MIL0ZMTASUTEGVKSYIT89HJF", "dateTime": 1519153401545}, {"current_trial": 24, "trialdata": {"rt": -1, "trial_type": "single-stim", "word": "trout", "stimulus": "<p id=\"stim\">TROUT</p>", "conditions": [18, 1200, "v", 18000], "internal_node_id": "0.0-15.0", "trial": 0, "time_elapsed": 151293, "serialpos": 3, "key_press": -1, "wordID": 1510, "type": "PRES_VIS", "trial_index": 24}, "uniqueid": "MTK2615:3L4D84MIL0ZMTASUTEGVKSYIT89HJF", "dateTime": 1519153403570}, {"current_trial": 25, "trialdata": {"rt": -1, "trial_type": "single-stim", "word": "treat", "stimulus": "<p id=\"stim\">TREAT</p>", "conditions": [18, 1200, "v", 18000], "internal_node_id": "0.0-16.0", "trial": 0, "time_elapsed": 153598, "serialpos": 4, "key_press": -1, "wordID": 1500, "type": "PRES_VIS", "trial_index": 25}, "uniqueid": "MTK2615:3L4D84MIL0ZMTASUTEGVKSYIT89HJF", "dateTime": 1519153405875}, {"current_trial": 26, "trialdata": {"rt": -1, "trial_type": "single-stim", "word": "taxi", "stimulus": "<p id=\"stim\">TAXI</p>", "conditions": [18, 1200, "v", 18000], "internal_node_id": "0.0-17.0", "trial": 0, "time_elapsed": 155698, "serialpos": 5, "key_press": -1, "wordID": 1437, "type": "PRES_VIS", "trial_index": 26}, "uniqueid": "MTK2615:3L4D84MIL0ZMTASUTEGVKSYIT89HJF", "dateTime": 1519153407975}, {"current_trial": 27, "trialdata": {"rt": -1, "trial_type": "single-stim", "word": "shelf", "stimulus": "<p id=\"stim\">SHELF</p>", "conditions": [18, 1200, "v", 18000], "internal_node_id": "0.0-18.0", "trial": 0, "time_elapsed": 158049, "serialpos": 6, "key_press": -1, "wordID": 1279, "type": "PRES_VIS", "trial_index": 27}, "uniqueid": "MTK2615:3L4D84MIL0ZMTASUTEGVKSYIT89HJF", "dateTime": 1519153410326}, {"current_trial": 28, "trialdata": {"rt": -1, "trial_type": "single-stim", "word": "actor", "stimulus": "<p id=\"stim\">ACTOR</p>", "conditions": [18, 1200, "v", 18000], "internal_node_id": "0.0-19.0", "trial": 0, "time_elapsed": 160092, "serialpos": 7, "key_press": -1, "wordID": 4, "type": "PRES_VIS", "trial_index": 28}, "uniqueid": "MTK2615:3L4D84MIL0ZMTASUTEGVKSYIT89HJF", "dateTime": 1519153412369}, {"current_trial": 29, "trialdata": {"rt": -1, "trial_type": "single-stim", "word": "donkey", "stimulus": "<p id=\"stim\">DONKEY</p>", "conditions": [18, 1200, "v", 18000], "internal_node_id": "0.0-20.0", "trial": 0, "time_elapsed": 162158, "serialpos": 8, "key_press": -1, "wordID": 483, "type": "PRES_VIS", "trial_index": 29}, "uniqueid": "MTK2615:3L4D84MIL0ZMTASUTEGVKSYIT89HJF", "dateTime": 1519153414435}, {"current_trial": 30, "trialdata": {"rt": -1, "trial_type": "single-stim", "word": "braces", "stimulus": "<p id=\"stim\">BRACES</p>", "conditions": [18, 1200, "v", 18000], "internal_node_id": "0.0-21.0", "trial": 0, "time_elapsed": 164319, "serialpos": 9, "key_press": -1, "wordID": 163, "type": "PRES_VIS", "trial_index": 30}, "uniqueid": "MTK2615:3L4D84MIL0ZMTASUTEGVKSYIT89HJF", "dateTime": 1519153416596}, {"current_trial": 31, "trialdata": {"rt": -1, "trial_type": "single-stim", "word": "mildew", "stimulus": "<p id=\"stim\">MILDEW</p>", "conditions": [18, 1200, "v", 18000], "internal_node_id": "0.0-22.0", "trial": 0, "time_elapsed": 166668, "serialpos": 10, "key_press": -1, "wordID": 892, "type": "PRES_VIS", "trial_index": 31}, "uniqueid": "MTK2615:3L4D84MIL0ZMTASUTEGVKSYIT89HJF", "dateTime": 1519153418945}, {"current_trial": 32, "trialdata": {"rt": -1, "trial_type": "single-stim", "word": "forehead", "stimulus": "<p id=\"stim\">FOREHEAD</p>", "conditions": [18, 1200, "v", 18000], "internal_node_id": "0.0-23.0", "trial": 0, "time_elapsed": 168920, "serialpos": 11, "key_press": -1, "wordID": 591, "type": "PRES_VIS", "trial_index": 32}, "uniqueid": "MTK2615:3L4D84MIL0ZMTASUTEGVKSYIT89HJF", "dateTime": 1519153421197}, {"current_trial": 33, "trialdata": {"rt": -1, "trial_type": "single-stim", "word": "server", "stimulus": "<p id=\"stim\">SERVER</p>", "conditions": [18, 1200, "v", 18000], "internal_node_id": "0.0-24.0", "trial": 0, "time_elapsed": 170962, "serialpos": 12, "key_press": -1, "wordID": 1271, "type": "PRES_VIS", "trial_index": 33}, "uniqueid": "MTK2615:3L4D84MIL0ZMTASUTEGVKSYIT89HJF", "dateTime": 1519153423240}, {"current_trial": 34, "trialdata": {"rt": -1, "trial_type": "single-stim", "word": "honey", "stimulus": "<p id=\"stim\">HONEY</p>", "conditions": [18, 1200, "v", 18000], "internal_node_id": "0.0-25.0", "trial": 0, "time_elapsed": 173267, "serialpos": 13, "key_press": -1, "wordID": 712, "type": "PRES_VIS", "trial_index": 34}, "uniqueid": "MTK2615:3L4D84MIL0ZMTASUTEGVKSYIT89HJF", "dateTime": 1519153425544}, {"current_trial": 35, "trialdata": {"rt": -1, "trial_type": "single-stim", "word": "spouse", "stimulus": "<p id=\"stim\">SPOUSE</p>", "conditions": [18, 1200, "v", 18000], "internal_node_id": "0.0-26.0", "trial": 0, "time_elapsed": 175617, "serialpos": 14, "key_press": -1, "wordID": 1357, "type": "PRES_VIS", "trial_index": 35}, "uniqueid": "MTK2615:3L4D84MIL0ZMTASUTEGVKSYIT89HJF", "dateTime": 1519153427894}, {"current_trial": 36, "trialdata": {"rt": -1, "trial_type": "single-stim", "word": "woman", "stimulus": "<p id=\"stim\">WOMAN</p>", "conditions": [18, 1200, "v", 18000], "internal_node_id": "0.0-27.0", "trial": 0, "time_elapsed": 177904, "serialpos": 15, "key_press": -1, "wordID": 1619, "type": "PRES_VIS", "trial_index": 36}, "uniqueid": "MTK2615:3L4D84MIL0ZMTASUTEGVKSYIT89HJF", "dateTime": 1519153430181}, {"current_trial": 37, "trialdata": {"rt": -1, "trial_type": "single-stim", "word": "patrol", "stimulus": "<p id=\"stim\">PATROL</p>", "conditions": [18, 1200, "v", 18000], "internal_node_id": "0.0-28.0", "trial": 0, "time_elapsed": 180086, "serialpos": 16, "key_press": -1, "wordID": 1026, "type": "PRES_VIS", "trial_index": 37}, "uniqueid": "MTK2615:3L4D84MIL0ZMTASUTEGVKSYIT89HJF", "dateTime": 1519153432363}, {"current_trial": 38, "trialdata": {"rt": -1, "trial_type": "single-stim", "word": "shoulder", "stimulus": "<p id=\"stim\">SHOULDER</p>", "conditions": [18, 1200, "v", 18000], "internal_node_id": "0.0-29.0", "trial": 0, "time_elapsed": 182472, "serialpos": 17, "key_press": -1, "wordID": 1293, "type": "PRES_VIS", "trial_index": 38}, "uniqueid": "MTK2615:3L4D84MIL0ZMTASUTEGVKSYIT89HJF", "dateTime": 1519153434749}, {"current_trial": 39, "trialdata": {"rt": -1, "trial_type": "single-stim", "stimulus": "", "internal_node_id": "0.0-30.0-0.0", "time_elapsed": 184799, "key_press": -1, "type": "PRE_RECALL_DELAY", "trial_index": 39}, "uniqueid": "MTK2615:3L4D84MIL0ZMTASUTEGVKSYIT89HJF", "dateTime": 1519153437076}, {"current_trial": 40, "trialdata": {"rt": -1000, "trial_type": "single-audio", "stimulus": "/static/audio/400Hz.wav", "internal_node_id": "0.0-31.0", "time_elapsed": 185301, "key_press": -1, "type": "PRE_RECALL_ALERT", "trial_index": 40}, "uniqueid": "MTK2615:3L4D84MIL0ZMTASUTEGVKSYIT89HJF", "dateTime": 1519153437578}, {"current_trial": 41, "trialdata": {"rt": [2918, 4919, 6263, 7327, 9262, 10958, 17638, 20223, 21646, 29123, 31547], "recwords": ["woman", "shoulder", "student", "shelf", "outlaw", "donkey", "mildew", "trout", "treat", "hone", "spouse"], "key_times": [2351, 2399, 2479, 2598, 2711, 2918, 3711, 3792, 3919, 3999, 4111, 4231, 4414, 4494, 4919, 5263, 5455, 5551, 5702, 5839, 5990, 6095, 6263, 6560, 6742, 6879, 6991, 7143, 7327, 7710, 7799, 7944, 8495, 8607, 8710, 9262, 10000, 10063, 10135, 10287, 10423, 10583, 10958, 16168, 16247, 16456, 16551, 16919, 17031, 17638, 19510, 19582, 19686, 19751, 19894, 20223, 20487, 20687, 20774, 21086, 21360, 21646, 28500, 28668, 28716, 28796, 29123, 30467, 30715, 30899, 31108, 31252, 31339, 31547], "trial_type": "free-recall", "conditions": [18, 1200, "v", 18000], "internal_node_id": "0.0-32.0-0.0", "key_presses": [87, 79, 77, 65, 78, 13, 83, 72, 79, 85, 76, 68, 69, 82, 13, 83, 84, 85, 68, 69, 78, 84, 13, 83, 72, 69, 76, 70, 13, 79, 85, 84, 76, 65, 87, 13, 68, 79, 78, 75, 69, 89, 13, 77, 73, 76, 68, 69, 87, 13, 84, 82, 79, 85, 84, 13, 84, 82, 69, 65, 84, 13, 72, 79, 78, 69, 13, 83, 80, 79, 85, 83, 69, 13], "trial": 0, "time_elapsed": 245304, "type": "FREE_RECALL", "trial_index": 41}, "uniqueid": "MTK2615:3L4D84MIL0ZMTASUTEGVKSYIT89HJF", "dateTime": 1519153497583}, {"current_trial": 42, "trialdata": {"rt": 11383, "trial_type": "text", "internal_node_id": "0.0-33.0", "time_elapsed": 258691, "key_press": 32, "type": "INSTRUCTIONS", "trial_index": 42}, "uniqueid": "MTK2615:3L4D84MIL0ZMTASUTEGVKSYIT89HJF", "dateTime": 1519153510968}, {"current_trial": 43, "trialdata": {"rt": [2521, 4786, 6889, 11818, 14721, 17570], "trial_type": "math-distractor", "key_times": [1907, 2194, 2521, 3962, 4378, 4786, 6658, 6889, 11194, 11553, 11818, 14001, 14497, 14721, 17105, 17393, 17570], "responses": ["12", "13", "9", "16", "16", "13"], "num2": [4, 2, 2, 5, 3, 1, 3], "num3": [6, 3, 1, 4, 8, 8, 4], "conditions": [18, 1200, "v", 18000], "internal_node_id": "0.0-34.0", "key_presses": [49, 50, 13, 49, 51, 13, 57, 13, 49, 54, 13, 49, 54, 13, 49, 51, 13], "trial": 1, "time_elapsed": 278702, "type": "DISTRACTOR", "trial_index": 43, "num1": [2, 8, 6, 7, 5, 4, 7]}, "uniqueid": "MTK2615:3L4D84MIL0ZMTASUTEGVKSYIT89HJF", "dateTime": 1519153530979}, {"current_trial": 44, "trialdata": {"rt": -1, "trial_type": "single-stim", "stimulus": "<p id=\"stim\">10</p>", "internal_node_id": "0.0-35.0-0.0", "time_elapsed": 281707, "key_press": -1, "trial_index": 44}, "uniqueid": "MTK2615:3L4D84MIL0ZMTASUTEGVKSYIT89HJF", "dateTime": 1519153533984}, {"current_trial": 45, "trialdata": {"rt": -1, "trial_type": "single-stim", "stimulus": "<p id=\"stim\">9</p>", "internal_node_id": "0.0-35.0-1.0", "time_elapsed": 282711, "key_press": -1, "trial_index": 45}, "uniqueid": "MTK2615:3L4D84MIL0ZMTASUTEGVKSYIT89HJF", "dateTime": 1519153534988}, {"current_trial": 46, "trialdata": {"rt": -1, "trial_type": "single-stim", "stimulus": "<p id=\"stim\">8</p>", "internal_node_id": "0.0-35.0-2.0", "time_elapsed": 283716, "key_press": -1, "trial_index": 46}, "uniqueid": "MTK2615:3L4D84MIL0ZMTASUTEGVKSYIT89HJF", "dateTime": 1519153535993}, {"current_trial": 47, "trialdata": {"rt": -1, "trial_type": "single-stim", "stimulus": "<p id=\"stim\">7</p>", "internal_node_id": "0.0-35.0-3.0", "time_elapsed": 284719, "key_press": -1, "trial_index": 47}, "uniqueid": "MTK2615:3L4D84MIL0ZMTASUTEGVKSYIT89HJF", "dateTime": 1519153536996}, {"current_trial": 48, "trialdata": {"rt": -1, "trial_type": "single-stim", "stimulus": "<p id=\"stim\">6</p>", "internal_node_id": "0.0-35.0-4.0", "time_elapsed": 285724, "key_press": -1, "trial_index": 48}, "uniqueid": "MTK2615:3L4D84MIL0ZMTASUTEGVKSYIT89HJF", "dateTime": 1519153538001}, {"current_trial": 49, "trialdata": {"rt": -1, "trial_type": "single-stim", "stimulus": "<p id=\"stim\">5</p>", "internal_node_id": "0.0-35.0-5.0", "time_elapsed": 286728, "key_press": -1, "trial_index": 49}, "uniqueid": "MTK2615:3L4D84MIL0ZMTASUTEGVKSYIT89HJF", "dateTime": 1519153539005}, {"current_trial": 50, "trialdata": {"rt": -1, "trial_type": "single-stim", "stimulus": "<p id=\"stim\">4</p>", "internal_node_id": "0.0-35.0-6.0", "time_elapsed": 287734, "key_press": -1, "trial_index": 50}, "uniqueid": "MTK2615:3L4D84MIL0ZMTASUTEGVKSYIT89HJF", "dateTime": 1519153540011}, {"current_trial": 51, "trialdata": {"rt": -1, "trial_type": "single-stim", "stimulus": "<p id=\"stim\">3</p>", "internal_node_id": "0.0-35.0-7.0", "time_elapsed": 288739, "key_press": -1, "trial_index": 51}, "uniqueid": "MTK2615:3L4D84MIL0ZMTASUTEGVKSYIT89HJF", "dateTime": 1519153541017}, {"current_trial": 52, "trialdata": {"rt": -1, "trial_type": "single-stim", "stimulus": "<p id=\"stim\">2</p>", "internal_node_id": "0.0-35.0-8.0", "time_elapsed": 289745, "key_press": -1, "trial_index": 52}, "uniqueid": "MTK2615:3L4D84MIL0ZMTASUTEGVKSYIT89HJF", "dateTime": 1519153542023}, {"current_trial": 53, "trialdata": {"rt": -1, "trial_type": "single-stim", "stimulus": "<p id=\"stim\">1</p>", "internal_node_id": "0.0-35.0-9.0", "time_elapsed": 290750, "key_press": -1, "trial_index": 53}, "uniqueid": "MTK2615:3L4D84MIL0ZMTASUTEGVKSYIT89HJF", "dateTime": 1519153543027}, {"current_trial": 54, "trialdata": {"rt": -1, "trial_type": "single-stim", "stimulus": "<p id=\"stim\">+</p>", "internal_node_id": "0.0-36.0-0.0", "time_elapsed": 292253, "key_press": -1, "type": "FIXATION", "trial_index": 54}, "uniqueid": "MTK2615:3L4D84MIL0ZMTASUTEGVKSYIT89HJF", "dateTime": 1519153544531}, {"current_trial": 55, "trialdata": {"rt": -1, "trial_type": "single-stim", "word": "sword", "stimulus": "<p id=\"stim\">SWORD</p>", "conditions": [18, 1200, "v", 18000], "internal_node_id": "0.0-37.0", "trial": 1, "time_elapsed": 293455, "serialpos": 0, "key_press": -1, "wordID": 1422, "type": "PRES_VIS", "trial_index": 55}, "uniqueid": "MTK2615:3L4D84MIL0ZMTASUTEGVKSYIT89HJF", "dateTime": 1519153545732}, {"current_trial": 56, "trialdata": {"rt": -1, "trial_type": "single-stim", "word": "office", "stimulus": "<p id=\"stim\">OFFICE</p>", "conditions": [18, 1200, "v", 18000], "internal_node_id": "0.0-38.0", "trial": 1, "time_elapsed": 295799, "serialpos": 1, "key_press": -1, "wordID": 971, "type": "PRES_VIS", "trial_index": 56}, "uniqueid": "MTK2615:3L4D84MIL0ZMTASUTEGVKSYIT89HJF", "dateTime": 1519153548076}, {"current_trial": 57, "trialdata": {"rt": -1, "trial_type": "single-stim", "word": "skirt", "stimulus": "<p id=\"stim\">SKIRT</p>", "conditions": [18, 1200, "v", 18000], "internal_node_id": "0.0-39.0", "trial": 1, "time_elapsed": 298186, "serialpos": 2, "key_press": -1, "wordID": 1318, "type": "PRES_VIS", "trial_index": 57}, "uniqueid": "MTK2615:3L4D84MIL0ZMTASUTEGVKSYIT89HJF", "dateTime": 1519153550463}, {"current_trial": 58, "trialdata": {"rt": -1, "trial_type": "single-stim", "word": "knife", "stimulus": "<p id=\"stim\">KNIFE</p>", "conditions": [18, 1200, "v", 18000], "internal_node_id": "0.0-40.0", "trial": 1, "time_elapsed": 300506, "serialpos": 3, "key_press": -1, "wordID": 784, "type": "PRES_VIS", "trial_index": 58}, "uniqueid": "MTK2615:3L4D84MIL0ZMTASUTEGVKSYIT89HJF", "dateTime": 1519153552784}, {"current_trial": 59, "trialdata": {"rt": -1, "trial_type": "single-stim", "word": "relish", "stimulus": "<p id=\"stim\">RELISH</p>", "conditions": [18, 1200, "v", 18000], "internal_node_id": "0.0-41.0", "trial": 1, "time_elapsed": 302602, "serialpos": 4, "key_press": -1, "wordID": 1182, "type": "PRES_VIS", "trial_index": 59}, "uniqueid": "MTK2615:3L4D84MIL0ZMTASUTEGVKSYIT89HJF", "dateTime": 1519153554879}, {"current_trial": 60, "trialdata": {"rt": -1, "trial_type": "single-stim", "word": "yarn", "stimulus": "<p id=\"stim\">YARN</p>", "conditions": [18, 1200, "v", 18000], "internal_node_id": "0.0-42.0", "trial": 1, "time_elapsed": 304947, "serialpos": 5, "key_press": -1, "wordID": 1630, "type": "PRES_VIS", "trial_index": 60}, "uniqueid": "MTK2615:3L4D84MIL0ZMTASUTEGVKSYIT89HJF", "dateTime": 1519153557224}, {"current_trial": 61, "trialdata": {"rt": -1, "trial_type": "single-stim", "word": "mask", "stimulus": "<p id=\"stim\">MASK</p>", "conditions": [18, 1200, "v", 18000], "internal_node_id": "0.0-43.0", "trial": 1, "time_elapsed": 307001, "serialpos": 6, "key_press": -1, "wordID": 875, "type": "PRES_VIS", "trial_index": 61}, "uniqueid": "MTK2615:3L4D84MIL0ZMTASUTEGVKSYIT89HJF", "dateTime": 1519153559278}, {"current_trial": 62, "trialdata": {"rt": -1, "trial_type": "single-stim", "word": "powder", "stimulus": "<p id=\"stim\">POWDER</p>", "conditions": [18, 1200, "v", 18000], "internal_node_id": "0.0-44.0", "trial": 1, "time_elapsed": 309387, "serialpos": 7, "key_press": -1, "wordID": 1116, "type": "PRES_VIS", "trial_index": 62}, "uniqueid": "MTK2615:3L4D84MIL0ZMTASUTEGVKSYIT89HJF", "dateTime": 1519153561664}, {"current_trial": 63, "trialdata": {"rt": -1, "trial_type": "single-stim", "word": "waiter", "stimulus": "<p id=\"stim\">WAITER</p>", "conditions": [18, 1200, "v", 18000], "internal_node_id": "0.0-45.0", "trial": 1, "time_elapsed": 311522, "serialpos": 8, "key_press": -1, "wordID": 1579, "type": "PRES_VIS", "trial_index": 63}, "uniqueid": "MTK2615:3L4D84MIL0ZMTASUTEGVKSYIT89HJF", "dateTime": 1519153563799}, {"current_trial": 64, "trialdata": {"rt": -1, "trial_type": "single-stim", "word": "contract", "stimulus": "<p id=\"stim\">CONTRACT</p>", "conditions": [18, 1200, "v", 18000], "internal_node_id": "0.0-46.0", "trial": 1, "time_elapsed": 313815, "serialpos": 9, "key_press": -1, "wordID": 367, "type": "PRES_VIS", "trial_index": 64}, "uniqueid": "MTK2615:3L4D84MIL0ZMTASUTEGVKSYIT89HJF", "dateTime": 1519153566092}, {"current_trial": 65, "trialdata": {"rt": -1, "trial_type": "single-stim", "word": "pluto", "stimulus": "<p id=\"stim\">PLUTO</p>", "conditions": [18, 1200, "v", 18000], "internal_node_id": "0.0-47.0", "trial": 1, "time_elapsed": 316026, "serialpos": 10, "key_press": -1, "wordID": 1091, "type": "PRES_VIS", "trial_index": 65}, "uniqueid": "MTK2615:3L4D84MIL0ZMTASUTEGVKSYIT89HJF", "dateTime": 1519153568303}, {"current_trial": 66, "trialdata": {"rt": -1, "trial_type": "single-stim", "word": "popcorn", "stimulus": "<p id=\"stim\">POPCORN</p>", "conditions": [18, 1200, "v", 18000], "internal_node_id": "0.0-48.0", "trial": 1, "time_elapsed": 318186, "serialpos": 11, "key_press": -1, "wordID": 1103, "type": "PRES_VIS", "trial_index": 66}, "uniqueid": "MTK2615:3L4D84MIL0ZMTASUTEGVKSYIT89HJF", "dateTime": 1519153570463}, {"current_trial": 67, "trialdata": {"rt": -1, "trial_type": "single-stim", "word": "clamp", "stimulus": "<p id=\"stim\">CLAMP</p>", "conditions": [18, 1200, "v", 18000], "internal_node_id": "0.0-49.0", "trial": 1, "time_elapsed": 320559, "serialpos": 12, "key_press": -1, "wordID": 315, "type": "PRES_VIS", "trial_index": 67}, "uniqueid": "MTK2615:3L4D84MIL0ZMTASUTEGVKSYIT89HJF", "dateTime": 1519153572836}, {"current_trial": 68, "trialdata": {"rt": -1, "trial_type": "single-stim", "word": "foot", "stimulus": "<p id=\"stim\">FOOT</p>", "conditions": [18, 1200, "v", 18000], "internal_node_id": "0.0-50.0", "trial": 1, "time_elapsed": 322962, "serialpos": 13, "key_press": -1, "wordID": 589, "type": "PRES_VIS", "trial_index": 68}, "uniqueid": "MTK2615:3L4D84MIL0ZMTASUTEGVKSYIT89HJF", "dateTime": 1519153575242}, {"current_trial": 69, "trialdata": {"rt": -1, "trial_type": "single-stim", "word": "rifle", "stimulus": "<p id=\"stim\">RIFLE</p>", "conditions": [18, 1200, "v", 18000], "internal_node_id": "0.0-51.0", "trial": 1, "time_elapsed": 325245, "serialpos": 14, "key_press": -1, "wordID": 1191, "type": "PRES_VIS", "trial_index": 69}, "uniqueid": "MTK2615:3L4D84MIL0ZMTASUTEGVKSYIT89HJF", "dateTime": 1519153577523}, {"current_trial": 70, "trialdata": {"rt": -1, "trial_type": "single-stim", "word": "napkin", "stimulus": "<p id=\"stim\">NAPKIN</p>", "conditions": [18, 1200, "v", 18000], "internal_node_id": "0.0-52.0", "trial": 1, "time_elapsed": 327616, "serialpos": 15, "key_press": -1, "wordID": 936, "type": "PRES_VIS", "trial_index": 70}, "uniqueid": "MTK2615:3L4D84MIL0ZMTASUTEGVKSYIT89HJF", "dateTime": 1519153579893}, {"current_trial": 71, "trialdata": {"rt": -1, "trial_type": "single-stim", "word": "stove", "stimulus": "<p id=\"stim\">STOVE</p>", "conditions": [18, 1200, "v", 18000], "internal_node_id": "0.0-53.0", "trial": 1, "time_elapsed": 329903, "serialpos": 16, "key_press": -1, "wordID": 1387, "type": "PRES_VIS", "trial_index": 71}, "uniqueid": "MTK2615:3L4D84MIL0ZMTASUTEGVKSYIT89HJF", "dateTime": 1519153582180}, {"current_trial": 72, "trialdata": {"rt": -1, "trial_type": "single-stim", "word": "fireplace", "stimulus": "<p id=\"stim\">FIREPLACE</p>", "conditions": [18, 1200, "v", 18000], "internal_node_id": "0.0-54.0", "trial": 1, "time_elapsed": 332288, "serialpos": 17, "key_press": -1, "wordID": 569, "type": "PRES_VIS", "trial_index": 72}, "uniqueid": "MTK2615:3L4D84MIL0ZMTASUTEGVKSYIT89HJF", "dateTime": 1519153584565}, {"current_trial": 73, "trialdata": {"rt": -1, "trial_type": "single-stim", "stimulus": "", "internal_node_id": "0.0-55.0-0.0", "time_elapsed": 334669, "key_press": -1, "type": "PRE_RECALL_DELAY", "trial_index": 73}, "uniqueid": "MTK2615:3L4D84MIL0ZMTASUTEGVKSYIT89HJF", "dateTime": 1519153586946}, {"current_trial": 74, "trialdata": {"rt": -1000, "trial_type": "single-audio", "stimulus": "/static/audio/400Hz.wav", "internal_node_id": "0.0-56.0", "time_elapsed": 335171, "key_press": -1, "type": "PRE_RECALL_ALERT", "trial_index": 74}, "uniqueid": "MTK2615:3L4D84MIL0ZMTASUTEGVKSYIT89HJF", "dateTime": 1519153587448}, {"current_trial": 75, "trialdata": {"rt": [2945, 5417, 6969, 9154, 11121, 13328, 15904, 20040, 22640], "recwords": ["stove", "fireplace", "sword", "knife", "skirt", "mask", "powder", "office", "pluto"], "key_times": [1153, 1370, 1514, 2217, 2360, 2945, 3226, 3352, 3528, 3592, 4248, 4480, 4672, 4840, 5016, 5417, 5938, 6193, 6345, 6488, 6720, 6969, 7945, 8089, 8232, 8784, 8936, 9154, 10257, 10456, 10617, 10728, 10936, 11121, 11578, 11928, 12128, 12344, 13328, 14112, 14288, 14576, 14888, 15136, 15192, 15904, 18520, 18776, 18969, 19104, 19472, 19608, 20040, 21529, 21785, 22000, 22200, 22329, 22640], "trial_type": "free-recall", "conditions": [18, 1200, "v", 18000], "internal_node_id": "0.0-57.0-0.0", "key_presses": [83, 84, 79, 86, 69, 13, 70, 73, 82, 69, 80, 76, 65, 67, 69, 13, 83, 87, 79, 82, 68, 13, 75, 78, 73, 70, 69, 13, 83, 75, 73, 82, 84, 13, 77, 65, 83, 75, 13, 80, 79, 87, 68, 69, 82, 13, 79, 70, 70, 73, 67, 69, 13, 80, 76, 85, 84, 79, 13], "trial": 1, "time_elapsed": 395175, "type": "FREE_RECALL", "trial_index": 75}, "uniqueid": "MTK2615:3L4D84MIL0ZMTASUTEGVKSYIT89HJF", "dateTime": 1519153647455}, {"current_trial": 76, "trialdata": {"rt": 3496, "trial_type": "text", "internal_node_id": "0.0-58.0", "time_elapsed": 400679, "key_press": 32, "type": "INSTRUCTIONS", "trial_index": 76}, "uniqueid": "MTK2615:3L4D84MIL0ZMTASUTEGVKSYIT89HJF", "dateTime": 1519153652956}, {"current_trial": 77, "trialdata": {"rt": [4236, 7147, 10651, 13275, 16530, 19300, 21826], "trial_type": "math-distractor", "key_times": [3091, 4091, 4236, 6387, 6963, 7147, 9708, 10275, 10651, 12422, 12908, 13275, 16108, 16403, 16530, 19004, 19188, 19300, 21390, 21684, 21826], "responses": ["14", "19", "17", "16", "13", "23", "13"], "num2": [6, 8, 5, 6, 4, 7, 5, 9], "num3": [1, 8, 4, 9, 8, 9, 6, 5], "conditions": [12, 1600, "v", 24000], "internal_node_id": "0.0-59.0", "key_presses": [49, 52, 13, 49, 57, 13, 49, 55, 13, 49, 54, 13, 49, 51, 13, 50, 51, 13, 49, 51, 13], "trial": 2, "time_elapsed": 425691, "type": "DISTRACTOR", "trial_index": 77, "num1": [7, 3, 8, 1, 1, 7, 2, 3]}, "uniqueid": "MTK2615:3L4D84MIL0ZMTASUTEGVKSYIT89HJF", "dateTime": 1519153677969}, {"current_trial": 78, "trialdata": {"rt": -1, "trial_type": "single-stim", "stimulus": "<p id=\"stim\">10</p>", "internal_node_id": "0.0-60.0-0.0", "time_elapsed": 428698, "key_press": -1, "trial_index": 78}, "uniqueid": "MTK2615:3L4D84MIL0ZMTASUTEGVKSYIT89HJF", "dateTime": 1519153680975}, {"current_trial": 79, "trialdata": {"rt": -1, "trial_type": "single-stim", "stimulus": "<p id=\"stim\">9</p>", "internal_node_id": "0.0-60.0-1.0", "time_elapsed": 429703, "key_press": -1, "trial_index": 79}, "uniqueid": "MTK2615:3L4D84MIL0ZMTASUTEGVKSYIT89HJF", "dateTime": 1519153681980}, {"current_trial": 80, "trialdata": {"rt": -1, "trial_type": "single-stim", "stimulus": "<p id=\"stim\">8</p>", "internal_node_id": "0.0-60.0-2.0", "time_elapsed": 430709, "key_press": -1, "trial_index": 80}, "uniqueid": "MTK2615:3L4D84MIL0ZMTASUTEGVKSYIT89HJF", "dateTime": 1519153682986}, {"current_trial": 81, "trialdata": {"rt": -1, "trial_type": "single-stim", "stimulus": "<p id=\"stim\">7</p>", "internal_node_id": "0.0-60.0-3.0", "time_elapsed": 431711, "key_press": -1, "trial_index": 81}, "uniqueid": "MTK2615:3L4D84MIL0ZMTASUTEGVKSYIT89HJF", "dateTime": 1519153683989}, {"current_trial": 82, "trialdata": {"rt": -1, "trial_type": "single-stim", "stimulus": "<p id=\"stim\">6</p>", "internal_node_id": "0.0-60.0-4.0", "time_elapsed": 432714, "key_press": -1, "trial_index": 82}, "uniqueid": "MTK2615:3L4D84MIL0ZMTASUTEGVKSYIT89HJF", "dateTime": 1519153684991}, {"current_trial": 83, "trialdata": {"rt": -1, "trial_type": "single-stim", "stimulus": "<p id=\"stim\">5</p>", "internal_node_id": "0.0-60.0-5.0", "time_elapsed": 433719, "key_press": -1, "trial_index": 83}, "uniqueid": "MTK2615:3L4D84MIL0ZMTASUTEGVKSYIT89HJF", "dateTime": 1519153685996}, {"current_trial": 84, "trialdata": {"rt": -1, "trial_type": "single-stim", "stimulus": "<p id=\"stim\">4</p>", "internal_node_id": "0.0-60.0-6.0", "time_elapsed": 434723, "key_press": -1, "trial_index": 84}, "uniqueid": "MTK2615:3L4D84MIL0ZMTASUTEGVKSYIT89HJF", "dateTime": 1519153687000}, {"current_trial": 85, "trialdata": {"rt": -1, "trial_type": "single-stim", "stimulus": "<p id=\"stim\">3</p>", "internal_node_id": "0.0-60.0-7.0", "time_elapsed": 435727, "key_press": -1, "trial_index": 85}, "uniqueid": "MTK2615:3L4D84MIL0ZMTASUTEGVKSYIT89HJF", "dateTime": 1519153688004}, {"current_trial": 86, "trialdata": {"rt": -1, "trial_type": "single-stim", "stimulus": "<p id=\"stim\">2</p>", "internal_node_id": "0.0-60.0-8.0", "time_elapsed": 436732, "key_press": -1, "trial_index": 86}, "uniqueid": "MTK2615:3L4D84MIL0ZMTASUTEGVKSYIT89HJF", "dateTime": 1519153689009}, {"current_trial": 87, "trialdata": {"rt": -1, "trial_type": "single-stim", "stimulus": "<p id=\"stim\">1</p>", "internal_node_id": "0.0-60.0-9.0", "time_elapsed": 437735, "key_press": -1, "trial_index": 87}, "uniqueid": "MTK2615:3L4D84MIL0ZMTASUTEGVKSYIT89HJF", "dateTime": 1519153690012}, {"current_trial": 88, "trialdata": {"rt": -1, "trial_type": "single-stim", "stimulus": "<p id=\"stim\">+</p>", "internal_node_id": "0.0-61.0-0.0", "time_elapsed": 439239, "key_press": -1, "type": "FIXATION", "trial_index": 88}, "uniqueid": "MTK2615:3L4D84MIL0ZMTASUTEGVKSYIT89HJF", "dateTime": 1519153691516}, {"current_trial": 89, "trialdata": {"rt": -1, "trial_type": "single-stim", "word": "omelet", "stimulus": "<p id=\"stim\">OMELET</p>", "conditions": [12, 1600, "v", 24000], "internal_node_id": "0.0-62.0", "trial": 2, "time_elapsed": 440843, "serialpos": 0, "key_press": -1, "wordID": 975, "type": "PRES_VIS", "trial_index": 89}, "uniqueid": "MTK2615:3L4D84MIL0ZMTASUTEGVKSYIT89HJF", "dateTime": 1519153693120}, {"current_trial": 90, "trialdata": {"rt": -1, "trial_type": "single-stim", "word": "tablet", "stimulus": "<p id=\"stim\">TABLET</p>", "conditions": [12, 1600, "v", 24000], "internal_node_id": "0.0-63.0", "trial": 2, "time_elapsed": 443249, "serialpos": 1, "key_press": -1, "wordID": 1426, "type": "PRES_VIS", "trial_index": 90}, "uniqueid": "MTK2615:3L4D84MIL0ZMTASUTEGVKSYIT89HJF", "dateTime": 1519153695527}, {"current_trial": 91, "trialdata": {"rt": -1, "trial_type": "single-stim", "word": "daisy", "stimulus": "<p id=\"stim\">DAISY</p>", "conditions": [12, 1600, "v", 24000], "internal_node_id": "0.0-64.0", "trial": 2, "time_elapsed": 445794, "serialpos": 2, "key_press": -1, "wordID": 434, "type": "PRES_VIS", "trial_index": 91}, "uniqueid": "MTK2615:3L4D84MIL0ZMTASUTEGVKSYIT89HJF", "dateTime": 1519153698071}, {"current_trial": 92, "trialdata": {"rt": -1, "trial_type": "single-stim", "word": "zipper", "stimulus": "<p id=\"stim\">ZIPPER</p>", "conditions": [12, 1600, "v", 24000], "internal_node_id": "0.0-65.0", "trial": 2, "time_elapsed": 448330, "serialpos": 3, "key_press": -1, "wordID": 1635, "type": "PRES_VIS", "trial_index": 92}, "uniqueid": "MTK2615:3L4D84MIL0ZMTASUTEGVKSYIT89HJF", "dateTime": 1519153700607}, {"current_trial": 93, "trialdata": {"rt": -1, "trial_type": "single-stim", "word": "widow", "stimulus": "<p id=\"stim\">WIDOW</p>", "conditions": [12, 1600, "v", 24000], "internal_node_id": "0.0-66.0", "trial": 2, "time_elapsed": 450902, "serialpos": 4, "key_press": -1, "wordID": 1607, "type": "PRES_VIS", "trial_index": 93}, "uniqueid": "MTK2615:3L4D84MIL0ZMTASUTEGVKSYIT89HJF", "dateTime": 1519153703179}, {"current_trial": 94, "trialdata": {"rt": -1, "trial_type": "single-stim", "word": "shortcake", "stimulus": "<p id=\"stim\">SHORTCAKE</p>", "conditions": [12, 1600, "v", 24000], "internal_node_id": "0.0-67.0", "trial": 2, "time_elapsed": 453620, "serialpos": 5, "key_press": -1, "wordID": 1291, "type": "PRES_VIS", "trial_index": 94}, "uniqueid": "MTK2615:3L4D84MIL0ZMTASUTEGVKSYIT89HJF", "dateTime": 1519153705897}, {"current_trial": 95, "trialdata": {"rt": -1, "trial_type": "single-stim", "word": "crab", "stimulus": "<p id=\"stim\">CRAB</p>", "conditions": [12, 1600, "v", 24000], "internal_node_id": "0.0-68.0", "trial": 2, "time_elapsed": 456130, "serialpos": 6, "key_press": -1, "wordID": 396, "type": "PRES_VIS", "trial_index": 95}, "uniqueid": "MTK2615:3L4D84MIL0ZMTASUTEGVKSYIT89HJF", "dateTime": 1519153708407}, {"current_trial": 96, "trialdata": {"rt": -1, "trial_type": "single-stim", "word": "cod", "stimulus": "<p id=\"stim\">COD</p>", "conditions": [12, 1600, "v", 24000], "internal_node_id": "0.0-69.0", "trial": 2, "time_elapsed": 458817, "serialpos": 7, "key_press": -1, "wordID": 339, "type": "PRES_VIS", "trial_index": 96}, "uniqueid": "MTK2615:3L4D84MIL0ZMTASUTEGVKSYIT89HJF", "dateTime": 1519153711094}, {"current_trial": 97, "trialdata": {"rt": -1, "trial_type": "single-stim", "word": "mustard", "stimulus": "<p id=\"stim\">MUSTARD</p>", "conditions": [12, 1600, "v", 24000], "internal_node_id": "0.0-70.0", "trial": 2, "time_elapsed": 461398, "serialpos": 8, "key_press": -1, "wordID": 934, "type": "PRES_VIS", "trial_index": 97}, "uniqueid": "MTK2615:3L4D84MIL0ZMTASUTEGVKSYIT89HJF", "dateTime": 1519153713675}, {"current_trial": 98, "trialdata": {"rt": -1, "trial_type": "single-stim", "word": "bank", "stimulus": "<p id=\"stim\">BANK</p>", "conditions": [12, 1600, "v", 24000], "internal_node_id": "0.0-71.0", "trial": 2, "time_elapsed": 463943, "serialpos": 9, "key_press": -1, "wordID": 82, "type": "PRES_VIS", "trial_index": 98}, "uniqueid": "MTK2615:3L4D84MIL0ZMTASUTEGVKSYIT89HJF", "dateTime": 1519153716221}, {"current_trial": 99, "trialdata": {"rt": -1, "trial_type": "single-stim", "word": "diner", "stimulus": "<p id=\"stim\">DINER</p>", "conditions": [12, 1600, "v", 24000], "internal_node_id": "0.0-72.0", "trial": 2, "time_elapsed": 466424, "serialpos": 10, "key_press": -1, "wordID": 466, "type": "PRES_VIS", "trial_index": 99}, "uniqueid": "MTK2615:3L4D84MIL0ZMTASUTEGVKSYIT89HJF", "dateTime": 1519153718702}, {"current_trial": 100, "trialdata": {"rt": -1, "trial_type": "single-stim", "word": "puddle", "stimulus": "<p id=\"stim\">PUDDLE</p>", "conditions": [12, 1600, "v", 24000], "internal_node_id": "0.0-73.0", "trial": 2, "time_elapsed": 469134, "serialpos": 11, "key_press": -1, "wordID": 1139, "type": "PRES_VIS", "trial_index": 100}, "uniqueid": "MTK2615:3L4D84MIL0ZMTASUTEGVKSYIT89HJF", "dateTime": 1519153721411}, {"current_trial": 101, "trialdata": {"rt": -1, "trial_type": "single-stim", "stimulus": "", "internal_node_id": "0.0-74.0-0.0", "time_elapsed": 471495, "key_press": -1, "type": "PRE_RECALL_DELAY", "trial_index": 101}, "uniqueid": "MTK2615:3L4D84MIL0ZMTASUTEGVKSYIT89HJF", "dateTime": 1519153723772}, {"current_trial": 102, "trialdata": {"rt": -1000, "trial_type": "single-audio", "stimulus": "/static/audio/400Hz.wav", "internal_node_id": "0.0-75.0", "time_elapsed": 471997, "key_press": -1, "type": "PRE_RECALL_ALERT", "trial_index": 102}, "uniqueid": "MTK2615:3L4D84MIL0ZMTASUTEGVKSYIT89HJF", "dateTime": 1519153724274}, {"current_trial": 103, "trialdata": {"rt": [2882, 4403, 7779, 12364], "recwords": ["puddle", "widow", "shortcake", "omelette"], "key_times": [1524, 1650, 1938, 2163, 2443, 2636, 2882, 3659, 3787, 3914, 4068, 4299, 4403, 4850, 5019, 5147, 5410, 5723, 5827, 5898, 6595, 6820, 6972, 7075, 7779, 8859, 8955, 9867, 10003, 10147, 10324, 10962, 11210, 11403, 11540, 11675, 12011, 12364], "trial_type": "free-recall", "conditions": [12, 1600, "v", 24000], "internal_node_id": "0.0-76.0-0.0", "key_presses": [80, 85, 68, 68, 76, 69, 13, 87, 73, 68, 79, 87, 13, 83, 72, 79, 84, 8, 82, 84, 67, 65, 75, 69, 13, 79, 77, 69, 76, 76, 69, 8, 8, 69, 84, 84, 69, 13], "trial": 2, "time_elapsed": 532000, "type": "FREE_RECALL", "trial_index": 103}, "uniqueid": "MTK2615:3L4D84MIL0ZMTASUTEGVKSYIT89HJF", "dateTime": 1519153784282}, {"current_trial": 104, "trialdata": {"rt": 3118, "trial_type": "text", "internal_node_id": "0.0-77.0", "time_elapsed": 537124, "key_press": 32, "type": "INSTRUCTIONS", "trial_index": 104}, "uniqueid": "MTK2615:3L4D84MIL0ZMTASUTEGVKSYIT89HJF", "dateTime": 1519153789401}, {"current_trial": 105, "trialdata": {"rt": [4799, 12780, 16164, 18677], "trial_type": "math-distractor", "key_times": [3656, 4264, 4799, 11005, 11724, 12780, 15429, 15820, 16164, 18124, 18516, 18677], "responses": ["26", "18", "18", "15"], "num2": [9, 7, 6, 3, 4], "num3": [8, 6, 3, 7, 4], "conditions": [12, 800, "v", 24000], "internal_node_id": "0.0-78.0", "key_presses": [50, 54, 13, 49, 56, 13, 49, 56, 13, 49, 53, 13], "trial": 3, "time_elapsed": 563135, "type": "DISTRACTOR", "trial_index": 105, "num1": [9, 5, 9, 5, 6]}, "uniqueid": "MTK2615:3L4D84MIL0ZMTASUTEGVKSYIT89HJF", "dateTime": 1519153815412}, {"current_trial": 106, "trialdata": {"rt": -1, "trial_type": "single-stim", "stimulus": "<p id=\"stim\">10</p>", "internal_node_id": "0.0-79.0-0.0", "time_elapsed": 566144, "key_press": -1, "trial_index": 106}, "uniqueid": "MTK2615:3L4D84MIL0ZMTASUTEGVKSYIT89HJF", "dateTime": 1519153818421}, {"current_trial": 107, "trialdata": {"rt": -1, "trial_type": "single-stim", "stimulus": "<p id=\"stim\">9</p>", "internal_node_id": "0.0-79.0-1.0", "time_elapsed": 567148, "key_press": -1, "trial_index": 107}, "uniqueid": "MTK2615:3L4D84MIL0ZMTASUTEGVKSYIT89HJF", "dateTime": 1519153819425}, {"current_trial": 108, "trialdata": {"rt": -1, "trial_type": "single-stim", "stimulus": "<p id=\"stim\">8</p>", "internal_node_id": "0.0-79.0-2.0", "time_elapsed": 568152, "key_press": -1, "trial_index": 108}, "uniqueid": "MTK2615:3L4D84MIL0ZMTASUTEGVKSYIT89HJF", "dateTime": 1519153820430}, {"current_trial": 109, "trialdata": {"rt": -1, "trial_type": "single-stim", "stimulus": "<p id=\"stim\">7</p>", "internal_node_id": "0.0-79.0-3.0", "time_elapsed": 569156, "key_press": -1, "trial_index": 109}, "uniqueid": "MTK2615:3L4D84MIL0ZMTASUTEGVKSYIT89HJF", "dateTime": 1519153821433}, {"current_trial": 110, "trialdata": {"rt": -1, "trial_type": "single-stim", "stimulus": "<p id=\"stim\">6</p>", "internal_node_id": "0.0-79.0-4.0", "time_elapsed": 570160, "key_press": -1, "trial_index": 110}, "uniqueid": "MTK2615:3L4D84MIL0ZMTASUTEGVKSYIT89HJF", "dateTime": 1519153822437}, {"current_trial": 111, "trialdata": {"rt": -1, "trial_type": "single-stim", "stimulus": "<p id=\"stim\">5</p>", "internal_node_id": "0.0-79.0-5.0", "time_elapsed": 571164, "key_press": -1, "trial_index": 111}, "uniqueid": "MTK2615:3L4D84MIL0ZMTASUTEGVKSYIT89HJF", "dateTime": 1519153823441}, {"current_trial": 112, "trialdata": {"rt": -1, "trial_type": "single-stim", "stimulus": "<p id=\"stim\">4</p>", "internal_node_id": "0.0-79.0-6.0", "time_elapsed": 572169, "key_press": -1, "trial_index": 112}, "uniqueid": "MTK2615:3L4D84MIL0ZMTASUTEGVKSYIT89HJF", "dateTime": 1519153824446}, {"current_trial": 113, "trialdata": {"rt": -1, "trial_type": "single-stim", "stimulus": "<p id=\"stim\">3</p>", "internal_node_id": "0.0-79.0-7.0", "time_elapsed": 573173, "key_press": -1, "trial_index": 113}, "uniqueid": "MTK2615:3L4D84MIL0ZMTASUTEGVKSYIT89HJF", "dateTime": 1519153825450}, {"current_trial": 114, "trialdata": {"rt": -1, "trial_type": "single-stim", "stimulus": "<p id=\"stim\">2</p>", "internal_node_id": "0.0-79.0-8.0", "time_elapsed": 574176, "key_press": -1, "trial_index": 114}, "uniqueid": "MTK2615:3L4D84MIL0ZMTASUTEGVKSYIT89HJF", "dateTime": 1519153826453}, {"current_trial": 115, "trialdata": {"rt": -1, "trial_type": "single-stim", "stimulus": "<p id=\"stim\">1</p>", "internal_node_id": "0.0-79.0-9.0", "time_elapsed": 575181, "key_press": -1, "trial_index": 115}, "uniqueid": "MTK2615:3L4D84MIL0ZMTASUTEGVKSYIT89HJF", "dateTime": 1519153827458}, {"current_trial": 116, "trialdata": {"rt": -1, "trial_type": "single-stim", "stimulus": "<p id=\"stim\">+</p>", "internal_node_id": "0.0-80.0-0.0", "time_elapsed": 576684, "key_press": -1, "type": "FIXATION", "trial_index": 116}, "uniqueid": "MTK2615:3L4D84MIL0ZMTASUTEGVKSYIT89HJF", "dateTime": 1519153828961}, {"current_trial": 117, "trialdata": {"rt": -1, "trial_type": "single-stim", "word": "piston", "stimulus": "<p id=\"stim\">PISTON</p>", "conditions": [12, 800, "v", 24000], "internal_node_id": "0.0-81.0", "trial": 3, "time_elapsed": 577486, "serialpos": 0, "key_press": -1, "wordID": 1075, "type": "PRES_VIS", "trial_index": 117}, "uniqueid": "MTK2615:3L4D84MIL0ZMTASUTEGVKSYIT89HJF", "dateTime": 1519153829763}, {"current_trial": 118, "trialdata": {"rt": -1, "trial_type": "single-stim", "word": "skillet", "stimulus": "<p id=\"stim\">SKILLET</p>", "conditions": [12, 800, "v", 24000], "internal_node_id": "0.0-82.0", "trial": 3, "time_elapsed": 579331, "serialpos": 1, "key_press": -1, "wordID": 1316, "type": "PRES_VIS", "trial_index": 118}, "uniqueid": "MTK2615:3L4D84MIL0ZMTASUTEGVKSYIT89HJF", "dateTime": 1519153831608}, {"current_trial": 119, "trialdata": {"rt": -1, "trial_type": "single-stim", "word": "spoon", "stimulus": "<p id=\"stim\">SPOON</p>", "conditions": [12, 800, "v", 24000], "internal_node_id": "0.0-83.0", "trial": 3, "time_elapsed": 581122, "serialpos": 2, "key_press": -1, "wordID": 1356, "type": "PRES_VIS", "trial_index": 119}, "uniqueid": "MTK2615:3L4D84MIL0ZMTASUTEGVKSYIT89HJF", "dateTime": 1519153833400}, {"current_trial": 120, "trialdata": {"rt": -1, "trial_type": "single-stim", "word": "hornet", "stimulus": "<p id=\"stim\">HORNET</p>", "conditions": [12, 800, "v", 24000], "internal_node_id": "0.0-84.0", "trial": 3, "time_elapsed": 582865, "serialpos": 3, "key_press": -1, "wordID": 717, "type": "PRES_VIS", "trial_index": 120}, "uniqueid": "MTK2615:3L4D84MIL0ZMTASUTEGVKSYIT89HJF", "dateTime": 1519153835142}, {"current_trial": 121, "trialdata": {"rt": -1, "trial_type": "single-stim", "word": "ketchup", "stimulus": "<p id=\"stim\">KETCHUP</p>", "conditions": [12, 800, "v", 24000], "internal_node_id": "0.0-85.0", "trial": 3, "time_elapsed": 584867, "serialpos": 4, "key_press": -1, "wordID": 770, "type": "PRES_VIS", "trial_index": 121}, "uniqueid": "MTK2615:3L4D84MIL0ZMTASUTEGVKSYIT89HJF", "dateTime": 1519153837144}, {"current_trial": 122, "trialdata": {"rt": -1, "trial_type": "single-stim", "word": "kidney", "stimulus": "<p id=\"stim\">KIDNEY</p>", "conditions": [12, 800, "v", 24000], "internal_node_id": "0.0-86.0", "trial": 3, "time_elapsed": 586719, "serialpos": 5, "key_press": -1, "wordID": 775, "type": "PRES_VIS", "trial_index": 122}, "uniqueid": "MTK2615:3L4D84MIL0ZMTASUTEGVKSYIT89HJF", "dateTime": 1519153838996}, {"current_trial": 123, "trialdata": {"rt": -1, "trial_type": "single-stim", "word": "portrait", "stimulus": "<p id=\"stim\">PORTRAIT</p>", "conditions": [12, 800, "v", 24000], "internal_node_id": "0.0-87.0", "trial": 3, "time_elapsed": 588642, "serialpos": 6, "key_press": -1, "wordID": 1110, "type": "PRES_VIS", "trial_index": 123}, "uniqueid": "MTK2615:3L4D84MIL0ZMTASUTEGVKSYIT89HJF", "dateTime": 1519153840919}, {"current_trial": 124, "trialdata": {"rt": -1, "trial_type": "single-stim", "word": "snack", "stimulus": "<p id=\"stim\">SNACK</p>", "conditions": [12, 800, "v", 24000], "internal_node_id": "0.0-88.0", "trial": 3, "time_elapsed": 590294, "serialpos": 7, "key_press": -1, "wordID": 1330, "type": "PRES_VIS", "trial_index": 124}, "uniqueid": "MTK2615:3L4D84MIL0ZMTASUTEGVKSYIT89HJF", "dateTime": 1519153842571}, {"current_trial": 125, "trialdata": {"rt": -1, "trial_type": "single-stim", "word": "cabbage", "stimulus": "<p id=\"stim\">CABBAGE</p>", "conditions": [12, 800, "v", 24000], "internal_node_id": "0.0-89.0", "trial": 3, "time_elapsed": 591981, "serialpos": 8, "key_press": -1, "wordID": 209, "type": "PRES_VIS", "trial_index": 125}, "uniqueid": "MTK2615:3L4D84MIL0ZMTASUTEGVKSYIT89HJF", "dateTime": 1519153844258}, {"current_trial": 126, "trialdata": {"rt": -1, "trial_type": "single-stim", "word": "clam", "stimulus": "<p id=\"stim\">CLAM</p>", "conditions": [12, 800, "v", 24000], "internal_node_id": "0.0-90.0", "trial": 3, "time_elapsed": 593976, "serialpos": 9, "key_press": -1, "wordID": 314, "type": "PRES_VIS", "trial_index": 126}, "uniqueid": "MTK2615:3L4D84MIL0ZMTASUTEGVKSYIT89HJF", "dateTime": 1519153846253}, {"current_trial": 127, "trialdata": {"rt": -1, "trial_type": "single-stim", "word": "picture", "stimulus": "<p id=\"stim\">PICTURE</p>", "conditions": [12, 800, "v", 24000], "internal_node_id": "0.0-91.0", "trial": 3, "time_elapsed": 595657, "serialpos": 10, "key_press": -1, "wordID": 1060, "type": "PRES_VIS", "trial_index": 127}, "uniqueid": "MTK2615:3L4D84MIL0ZMTASUTEGVKSYIT89HJF", "dateTime": 1519153847934}, {"current_trial": 128, "trialdata": {"rt": -1, "trial_type": "single-stim", "word": "cocoon", "stimulus": "<p id=\"stim\">COCOON</p>", "conditions": [12, 800, "v", 24000], "internal_node_id": "0.0-92.0", "trial": 3, "time_elapsed": 597276, "serialpos": 11, "key_press": -1, "wordID": 338, "type": "PRES_VIS", "trial_index": 128}, "uniqueid": "MTK2615:3L4D84MIL0ZMTASUTEGVKSYIT89HJF", "dateTime": 1519153849553}, {"current_trial": 129, "trialdata": {"rt": -1, "trial_type": "single-stim", "stimulus": "", "internal_node_id": "0.0-93.0-0.0", "time_elapsed": 599488, "key_press": -1, "type": "PRE_RECALL_DELAY", "trial_index": 129}, "uniqueid": "MTK2615:3L4D84MIL0ZMTASUTEGVKSYIT89HJF", "dateTime": 1519153851765}, {"current_trial": 130, "trialdata": {"rt": -1000, "trial_type": "single-audio", "stimulus": "/static/audio/400Hz.wav", "internal_node_id": "0.0-94.0", "time_elapsed": 599990, "key_press": -1, "type": "PRE_RECALL_ALERT", "trial_index": 130}, "uniqueid": "MTK2615:3L4D84MIL0ZMTASUTEGVKSYIT89HJF", "dateTime": 1519153852267}, {"current_trial": 131, "trialdata": {"rt": [2482, 4738, 7314], "recwords": ["picture", "cocoon", "piston"], "key_times": [1354, 1402, 1538, 1770, 1866, 1996, 2090, 2482, 2826, 2930, 3562, 3722, 3867, 4354, 4738, 5698, 5922, 6066, 6274, 6371, 6450, 7314], "trial_type": "free-recall", "conditions": [12, 800, "v", 24000], "internal_node_id": "0.0-95.0-0.0", "key_presses": [80, 73, 67, 84, 85, 82, 69, 13, 67, 79, 67, 79, 79, 78, 13, 80, 73, 83, 84, 79, 78, 13], "trial": 3, "time_elapsed": 659993, "type": "FREE_RECALL", "trial_index": 131}, "uniqueid": "MTK2615:3L4D84MIL0ZMTASUTEGVKSYIT89HJF", "dateTime": 1519153912272}, {"current_trial": 132, "trialdata": {"rt": 1715, "trial_type": "text", "internal_node_id": "0.0-96.0", "time_elapsed": 663714, "key_press": 32, "type": "INSTRUCTIONS", "trial_index": 132}, "uniqueid": "MTK2615:3L4D84MIL0ZMTASUTEGVKSYIT89HJF", "dateTime": 1519153915991}, {"current_trial": 133, "trialdata": {"rt": [3051, 5323], "trial_type": "math-distractor", "key_times": [2323, 2459, 3051, 4467, 5164, 5323, 7227], "responses": ["16", "14"], "num2": [2, 1, 8], "num3": [5, 4, 8], "conditions": [24, 1600, "v", 12000], "internal_node_id": "0.0-97.0", "key_presses": [49, 54, 13, 49, 52, 13, 50], "trial": 4, "time_elapsed": 677719, "type": "DISTRACTOR", "trial_index": 133, "num1": [9, 9, 6]}, "uniqueid": "MTK2615:3L4D84MIL0ZMTASUTEGVKSYIT89HJF", "dateTime": 1519153929996}, {"current_trial": 134, "trialdata": {"rt": -1, "trial_type": "single-stim", "stimulus": "<p id=\"stim\">10</p>", "internal_node_id": "0.0-98.0-0.0", "time_elapsed": 680724, "key_press": -1, "trial_index": 134}, "uniqueid": "MTK2615:3L4D84MIL0ZMTASUTEGVKSYIT89HJF", "dateTime": 1519153933001}, {"current_trial": 135, "trialdata": {"rt": -1, "trial_type": "single-stim", "stimulus": "<p id=\"stim\">9</p>", "internal_node_id": "0.0-98.0-1.0", "time_elapsed": 681727, "key_press": -1, "trial_index": 135}, "uniqueid": "MTK2615:3L4D84MIL0ZMTASUTEGVKSYIT89HJF", "dateTime": 1519153934004}, {"current_trial": 136, "trialdata": {"rt": -1, "trial_type": "single-stim", "stimulus": "<p id=\"stim\">8</p>", "internal_node_id": "0.0-98.0-2.0", "time_elapsed": 682732, "key_press": -1, "trial_index": 136}, "uniqueid": "MTK2615:3L4D84MIL0ZMTASUTEGVKSYIT89HJF", "dateTime": 1519153935009}, {"current_trial": 137, "trialdata": {"rt": -1, "trial_type": "single-stim", "stimulus": "<p id=\"stim\">7</p>", "internal_node_id": "0.0-98.0-3.0", "time_elapsed": 683736, "key_press": -1, "trial_index": 137}, "uniqueid": "MTK2615:3L4D84MIL0ZMTASUTEGVKSYIT89HJF", "dateTime": 1519153936014}, {"current_trial": 138, "trialdata": {"rt": -1, "trial_type": "single-stim", "stimulus": "<p id=\"stim\">6</p>", "internal_node_id": "0.0-98.0-4.0", "time_elapsed": 684740, "key_press": -1, "trial_index": 138}, "uniqueid": "MTK2615:3L4D84MIL0ZMTASUTEGVKSYIT89HJF", "dateTime": 1519153937017}, {"current_trial": 139, "trialdata": {"rt": -1, "trial_type": "single-stim", "stimulus": "<p id=\"stim\">5</p>", "internal_node_id": "0.0-98.0-5.0", "time_elapsed": 685744, "key_press": -1, "trial_index": 139}, "uniqueid": "MTK2615:3L4D84MIL0ZMTASUTEGVKSYIT89HJF", "dateTime": 1519153938021}, {"current_trial": 140, "trialdata": {"rt": -1, "trial_type": "single-stim", "stimulus": "<p id=\"stim\">4</p>", "internal_node_id": "0.0-98.0-6.0", "time_elapsed": 686748, "key_press": -1, "trial_index": 140}, "uniqueid": "MTK2615:3L4D84MIL0ZMTASUTEGVKSYIT89HJF", "dateTime": 1519153939025}, {"current_trial": 141, "trialdata": {"rt": -1, "trial_type": "single-stim", "stimulus": "<p id=\"stim\">3</p>", "internal_node_id": "0.0-98.0-7.0", "time_elapsed": 687752, "key_press": -1, "trial_index": 141}, "uniqueid": "MTK2615:3L4D84MIL0ZMTASUTEGVKSYIT89HJF", "dateTime": 1519153940029}, {"current_trial": 142, "trialdata": {"rt": -1, "trial_type": "single-stim", "stimulus": "<p id=\"stim\">2</p>", "internal_node_id": "0.0-98.0-8.0", "time_elapsed": 688757, "key_press": -1, "trial_index": 142}, "uniqueid": "MTK2615:3L4D84MIL0ZMTASUTEGVKSYIT89HJF", "dateTime": 1519153941034}, {"current_trial": 143, "trialdata": {"rt": -1, "trial_type": "single-stim", "stimulus": "<p id=\"stim\">1</p>", "internal_node_id": "0.0-98.0-9.0", "time_elapsed": 689760, "key_press": -1, "trial_index": 143}, "uniqueid": "MTK2615:3L4D84MIL0ZMTASUTEGVKSYIT89HJF", "dateTime": 1519153942038}, {"current_trial": 144, "trialdata": {"rt": -1, "trial_type": "single-stim", "stimulus": "<p id=\"stim\">+</p>", "internal_node_id": "0.0-99.0-0.0", "time_elapsed": 691264, "key_press": -1, "type": "FIXATION", "trial_index": 144}, "uniqueid": "MTK2615:3L4D84MIL0ZMTASUTEGVKSYIT89HJF", "dateTime": 1519153943541}, {"current_trial": 145, "trialdata": {"rt": -1, "trial_type": "single-stim", "word": "space", "stimulus": "<p id=\"stim\">SPACE</p>", "conditions": [24, 1600, "v", 12000], "internal_node_id": "0.0-100.0", "trial": 4, "time_elapsed": 692867, "serialpos": 0, "key_press": -1, "wordID": 1344, "type": "PRES_VIS", "trial_index": 145}, "uniqueid": "MTK2615:3L4D84MIL0ZMTASUTEGVKSYIT89HJF", "dateTime": 1519153945144}, {"current_trial": 146, "trialdata": {"rt": -1, "trial_type": "single-stim", "word": "crib", "stimulus": "<p id=\"stim\">CRIB</p>", "conditions": [24, 1600, "v", 12000], "internal_node_id": "0.0-101.0", "trial": 4, "time_elapsed": 695634, "serialpos": 1, "key_press": -1, "wordID": 406, "type": "PRES_VIS", "trial_index": 146}, "uniqueid": "MTK2615:3L4D84MIL0ZMTASUTEGVKSYIT89HJF", "dateTime": 1519153947911}, {"current_trial": 147, "trialdata": {"rt": -1, "trial_type": "single-stim", "word": "infant", "stimulus": "<p id=\"stim\">INFANT</p>", "conditions": [24, 1600, "v", 12000], "internal_node_id": "0.0-102.0", "trial": 4, "time_elapsed": 698229, "serialpos": 2, "key_press": -1, "wordID": 736, "type": "PRES_VIS", "trial_index": 147}, "uniqueid": "MTK2615:3L4D84MIL0ZMTASUTEGVKSYIT89HJF", "dateTime": 1519153950506}, {"current_trial": 148, "trialdata": {"rt": -1, "trial_type": "single-stim", "word": "london", "stimulus": "<p id=\"stim\">LONDON</p>", "conditions": [24, 1600, "v", 12000], "internal_node_id": "0.0-103.0", "trial": 4, "time_elapsed": 700984, "serialpos": 3, "key_press": -1, "wordID": 842, "type": "PRES_VIS", "trial_index": 148}, "uniqueid": "MTK2615:3L4D84MIL0ZMTASUTEGVKSYIT89HJF", "dateTime": 1519153953261}, {"current_trial": 149, "trialdata": {"rt": -1, "trial_type": "single-stim", "word": "wife", "stimulus": "<p id=\"stim\">WIFE</p>", "conditions": [24, 1600, "v", 12000], "internal_node_id": "0.0-104.0", "trial": 4, "time_elapsed": 703504, "serialpos": 4, "key_press": -1, "wordID": 1608, "type": "PRES_VIS", "trial_index": 149}, "uniqueid": "MTK2615:3L4D84MIL0ZMTASUTEGVKSYIT89HJF", "dateTime": 1519153955781}, {"current_trial": 150, "trialdata": {"rt": -1, "trial_type": "single-stim", "word": "crown", "stimulus": "<p id=\"stim\">CROWN</p>", "conditions": [24, 1600, "v", 12000], "internal_node_id": "0.0-105.0", "trial": 4, "time_elapsed": 706115, "serialpos": 5, "key_press": -1, "wordID": 414, "type": "PRES_VIS", "trial_index": 150}, "uniqueid": "MTK2615:3L4D84MIL0ZMTASUTEGVKSYIT89HJF", "dateTime": 1519153958393}, {"current_trial": 151, "trialdata": {"rt": -1, "trial_type": "single-stim", "word": "wardrobe", "stimulus": "<p id=\"stim\">WARDROBE</p>", "conditions": [24, 1600, "v", 12000], "internal_node_id": "0.0-106.0", "trial": 4, "time_elapsed": 708745, "serialpos": 6, "key_press": -1, "wordID": 1586, "type": "PRES_VIS", "trial_index": 151}, "uniqueid": "MTK2615:3L4D84MIL0ZMTASUTEGVKSYIT89HJF", "dateTime": 1519153961022}, {"current_trial": 152, "trialdata": {"rt": -1, "trial_type": "single-stim", "word": "france", "stimulus": "<p id=\"stim\">FRANCE</p>", "conditions": [24, 1600, "v", 12000], "internal_node_id": "0.0-107.0", "trial": 4, "time_elapsed": 711414, "serialpos": 7, "key_press": -1, "wordID": 600, "type": "PRES_VIS", "trial_index": 152}, "uniqueid": "MTK2615:3L4D84MIL0ZMTASUTEGVKSYIT89HJF", "dateTime": 1519153963692}, {"current_trial": 153, "trialdata": {"rt": -1, "trial_type": "single-stim", "word": "radish", "stimulus": "<p id=\"stim\">RADISH</p>", "conditions": [24, 1600, "v", 12000], "internal_node_id": "0.0-108.0", "trial": 4, "time_elapsed": 714057, "serialpos": 8, "key_press": -1, "wordID": 1157, "type": "PRES_VIS", "trial_index": 153}, "uniqueid": "MTK2615:3L4D84MIL0ZMTASUTEGVKSYIT89HJF", "dateTime": 1519153966335}, {"current_trial": 154, "trialdata": {"rt": -1, "trial_type": "single-stim", "word": "cottage", "stimulus": "<p id=\"stim\">COTTAGE</p>", "conditions": [24, 1600, "v", 12000], "internal_node_id": "0.0-109.0", "trial": 4, "time_elapsed": 716490, "serialpos": 9, "key_press": -1, "wordID": 383, "type": "PRES_VIS", "trial_index": 154}, "uniqueid": "MTK2615:3L4D84MIL0ZMTASUTEGVKSYIT89HJF", "dateTime": 1519153968767}, {"current_trial": 155, "trialdata": {"rt": -1, "trial_type": "single-stim", "word": "market", "stimulus": "<p id=\"stim\">MARKET</p>", "conditions": [24, 1600, "v", 12000], "internal_node_id": "0.0-110.0", "trial": 4, "time_elapsed": 719285, "serialpos": 10, "key_press": -1, "wordID": 870, "type": "PRES_VIS", "trial_index": 155}, "uniqueid": "MTK2615:3L4D84MIL0ZMTASUTEGVKSYIT89HJF", "dateTime": 1519153971562}, {"current_trial": 156, "trialdata": {"rt": -1, "trial_type": "single-stim", "word": "quarter", "stimulus": "<p id=\"stim\">QUARTER</p>", "conditions": [24, 1600, "v", 12000], "internal_node_id": "0.0-111.0", "trial": 4, "time_elapsed": 721783, "serialpos": 11, "key_press": -1, "wordID": 1147, "type": "PRES_VIS", "trial_index": 156}, "uniqueid": "MTK2615:3L4D84MIL0ZMTASUTEGVKSYIT89HJF", "dateTime": 1519153974060}, {"current_trial": 157, "trialdata": {"rt": -1, "trial_type": "single-stim", "word": "marsh", "stimulus": "<p id=\"stim\">MARSH</p>", "conditions": [24, 1600, "v", 12000], "internal_node_id": "0.0-112.0", "trial": 4, "time_elapsed": 724237, "serialpos": 12, "key_press": -1, "wordID": 873, "type": "PRES_VIS", "trial_index": 157}, "uniqueid": "MTK2615:3L4D84MIL0ZMTASUTEGVKSYIT89HJF", "dateTime": 1519153976514}, {"current_trial": 158, "trialdata": {"rt": -1, "trial_type": "single-stim", "word": "muffin", "stimulus": "<p id=\"stim\">MUFFIN</p>", "conditions": [24, 1600, "v", 12000], "internal_node_id": "0.0-113.0", "trial": 4, "time_elapsed": 726840, "serialpos": 13, "key_press": -1, "wordID": 928, "type": "PRES_VIS", "trial_index": 158}, "uniqueid": "MTK2615:3L4D84MIL0ZMTASUTEGVKSYIT89HJF", "dateTime": 1519153979117}, {"current_trial": 159, "trialdata": {"rt": -1, "trial_type": "single-stim", "word": "apple", "stimulus": "<p id=\"stim\">APPLE</p>", "conditions": [24, 1600, "v", 12000], "internal_node_id": "0.0-114.0", "trial": 4, "time_elapsed": 729635, "serialpos": 14, "key_press": -1, "wordID": 32, "type": "PRES_VIS", "trial_index": 159}, "uniqueid": "MTK2615:3L4D84MIL0ZMTASUTEGVKSYIT89HJF", "dateTime": 1519153981912}, {"current_trial": 160, "trialdata": {"rt": -1, "trial_type": "single-stim", "word": "lagoon", "stimulus": "<p id=\"stim\">LAGOON</p>", "conditions": [24, 1600, "v", 12000], "internal_node_id": "0.0-115.0", "trial": 4, "time_elapsed": 732413, "serialpos": 15, "key_press": -1, "wordID": 794, "type": "PRES_VIS", "trial_index": 160}, "uniqueid": "MTK2615:3L4D84MIL0ZMTASUTEGVKSYIT89HJF", "dateTime": 1519153984690}, {"current_trial": 161, "trialdata": {"rt": -1, "trial_type": "single-stim", "word": "tart", "stimulus": "<p id=\"stim\">TART</p>", "conditions": [24, 1600, "v", 12000], "internal_node_id": "0.0-116.0", "trial": 4, "time_elapsed": 734857, "serialpos": 16, "key_press": -1, "wordID": 1435, "type": "PRES_VIS", "trial_index": 161}, "uniqueid": "MTK2615:3L4D84MIL0ZMTASUTEGVKSYIT89HJF", "dateTime": 1519153987134}, {"current_trial": 162, "trialdata": {"rt": -1, "trial_type": "single-stim", "word": "thief", "stimulus": "<p id=\"stim\">THIEF</p>", "conditions": [24, 1600, "v", 12000], "internal_node_id": "0.0-117.0", "trial": 4, "time_elapsed": 737521, "serialpos": 17, "key_press": -1, "wordID": 1455, "type": "PRES_VIS", "trial_index": 162}, "uniqueid": "MTK2615:3L4D84MIL0ZMTASUTEGVKSYIT89HJF", "dateTime": 1519153989798}, {"current_trial": 163, "trialdata": {"rt": -1, "trial_type": "single-stim", "word": "suspect", "stimulus": "<p id=\"stim\">SUSPECT</p>", "conditions": [24, 1600, "v", 12000], "internal_node_id": "0.0-118.0", "trial": 4, "time_elapsed": 740011, "serialpos": 18, "key_press": -1, "wordID": 1414, "type": "PRES_VIS", "trial_index": 163}, "uniqueid": "MTK2615:3L4D84MIL0ZMTASUTEGVKSYIT89HJF", "dateTime": 1519153992288}, {"current_trial": 164, "trialdata": {"rt": -1, "trial_type": "single-stim", "word": "robber", "stimulus": "<p id=\"stim\">ROBBER</p>", "conditions": [24, 1600, "v", 12000], "internal_node_id": "0.0-119.0", "trial": 4, "time_elapsed": 742485, "serialpos": 19, "key_press": -1, "wordID": 1196, "type": "PRES_VIS", "trial_index": 164}, "uniqueid": "MTK2615:3L4D84MIL0ZMTASUTEGVKSYIT89HJF", "dateTime": 1519153994762}, {"current_trial": 165, "trialdata": {"rt": -1, "trial_type": "single-stim", "word": "beast", "stimulus": "<p id=\"stim\">BEAST</p>", "conditions": [24, 1600, "v", 12000], "internal_node_id": "0.0-120.0", "trial": 4, "time_elapsed": 744893, "serialpos": 20, "key_press": -1, "wordID": 107, "type": "PRES_VIS", "trial_index": 165}, "uniqueid": "MTK2615:3L4D84MIL0ZMTASUTEGVKSYIT89HJF", "dateTime": 1519153997171}, {"current_trial": 166, "trialdata": {"rt": -1, "trial_type": "single-stim", "word": "body", "stimulus": "<p id=\"stim\">BODY</p>", "conditions": [24, 1600, "v", 12000], "internal_node_id": "0.0-121.0", "trial": 4, "time_elapsed": 747390, "serialpos": 21, "key_press": -1, "wordID": 144, "type": "PRES_VIS", "trial_index": 166}, "uniqueid": "MTK2615:3L4D84MIL0ZMTASUTEGVKSYIT89HJF", "dateTime": 1519153999668}, {"current_trial": 167, "trialdata": {"rt": -1, "trial_type": "single-stim", "word": "shorts", "stimulus": "<p id=\"stim\">SHORTS</p>", "conditions": [24, 1600, "v", 12000], "internal_node_id": "0.0-122.0", "trial": 4, "time_elapsed": 749860, "serialpos": 22, "key_press": -1, "wordID": 1292, "type": "PRES_VIS", "trial_index": 167}, "uniqueid": "MTK2615:3L4D84MIL0ZMTASUTEGVKSYIT89HJF", "dateTime": 1519154002137}, {"current_trial": 168, "trialdata": {"rt": -1, "trial_type": "single-stim", "word": "palace", "stimulus": "<p id=\"stim\">PALACE</p>", "conditions": [24, 1600, "v", 12000], "internal_node_id": "0.0-123.0", "trial": 4, "time_elapsed": 752552, "serialpos": 23, "key_press": -1, "wordID": 1005, "type": "PRES_VIS", "trial_index": 168}, "uniqueid": "MTK2615:3L4D84MIL0ZMTASUTEGVKSYIT89HJF", "dateTime": 1519154004829}, {"current_trial": 169, "trialdata": {"rt": -1, "trial_type": "single-stim", "stimulus": "", "internal_node_id": "0.0-124.0-0.0", "time_elapsed": 754799, "key_press": -1, "type": "PRE_RECALL_DELAY", "trial_index": 169}, "uniqueid": "MTK2615:3L4D84MIL0ZMTASUTEGVKSYIT89HJF", "dateTime": 1519154007076}, {"current_trial": 170, "trialdata": {"rt": -1000, "trial_type": "single-audio", "stimulus": "/static/audio/400Hz.wav", "internal_node_id": "0.0-125.0", "time_elapsed": 755301, "key_press": -1, "type": "PRE_RECALL_ALERT", "trial_index": 170}, "uniqueid": "MTK2615:3L4D84MIL0ZMTASUTEGVKSYIT89HJF", "dateTime": 1519154007578}, {"current_trial": 171, "trialdata": {"rt": [2168, 3856, 5360, 7217, 8400, 9569, 11656, 13537, 15361, 19384, 21120, 22993, 24600, 27097], "recwords": ["theif", "suspect", "body", "france", "london", "wife", "crib", "infant", "space", "tart", "muffin", "market", "marsh", "quarter"], "key_times": [929, 1041, 1473, 1617, 1713, 2168, 2592, 2721, 2849, 3001, 3088, 3297, 3529, 3856, 4305, 4488, 4689, 4816, 5360, 6208, 6385, 6649, 6801, 6936, 7049, 7217, 7425, 7600, 7697, 8009, 8129, 8184, 8400, 8625, 8776, 9064, 9192, 9569, 10656, 10856, 11322, 11417, 11656, 12336, 12425, 12544, 12777, 12912, 13208, 13537, 13928, 14168, 14320, 14656, 14808, 15361, 18041, 18248, 18544, 18753, 19384, 19841, 19976, 20169, 20352, 20416, 20520, 21120, 21497, 21624, 21992, 22144, 22289, 22496, 22993, 23208, 23368, 23600, 23864, 24016, 24600, 25464, 25696, 25824, 26080, 26360, 26632, 26832, 27097], "trial_type": "free-recall", "conditions": [24, 1600, "v", 12000], "internal_node_id": "0.0-126.0-0.0", "key_presses": [84, 72, 69, 73, 70, 13, 83, 85, 83, 80, 69, 67, 84, 13, 66, 79, 68, 89, 13, 70, 82, 65, 78, 67, 69, 13, 76, 79, 78, 68, 79, 78, 13, 87, 73, 70, 69, 13, 67, 82, 73, 66, 13, 73, 78, 70, 65, 78, 84, 13, 83, 80, 65, 67, 69, 13, 84, 65, 82, 84, 13, 77, 85, 70, 70, 73, 78, 13, 77, 65, 82, 75, 69, 84, 13, 77, 65, 82, 83, 72, 13, 81, 85, 65, 82, 84, 69, 82, 13], "trial": 4, "time_elapsed": 815304, "type": "FREE_RECALL", "trial_index": 171}, "uniqueid": "MTK2615:3L4D84MIL0ZMTASUTEGVKSYIT89HJF", "dateTime": 1519154067583}, {"current_trial": 172, "trialdata": {"rt": 1599, "trial_type": "text", "internal_node_id": "0.0-127.0", "time_elapsed": 818910, "key_press": 32, "type": "INSTRUCTIONS", "trial_index": 172}, "uniqueid": "MTK2615:3L4D84MIL0ZMTASUTEGVKSYIT89HJF", "dateTime": 1519154071187}, {"current_trial": 173, "trialdata": {"rt": [2993, 6833, 9105, 11241], "trial_type": "math-distractor", "key_times": [2513, 2993, 5930, 6210, 6833, 8370, 8506, 9105, 10865, 11025, 11241], "responses": ["7", "12", "19", "11"], "num2": [3, 2, 1, 2, 8], "num3": [2, 7, 9, 8, 5], "conditions": [24, 800, "v", 12000], "internal_node_id": "0.0-128.0", "key_presses": [55, 13, 49, 50, 13, 49, 57, 13, 49, 49, 13], "trial": 5, "time_elapsed": 832917, "type": "DISTRACTOR", "trial_index": 173, "num1": [2, 3, 9, 1, 3]}, "uniqueid": "MTK2615:3L4D84MIL0ZMTASUTEGVKSYIT89HJF", "dateTime": 1519154085194}, {"current_trial": 174, "trialdata": {"rt": -1, "trial_type": "single-stim", "stimulus": "<p id=\"stim\">10</p>", "internal_node_id": "0.0-129.0-0.0", "time_elapsed": 835923, "key_press": -1, "trial_index": 174}, "uniqueid": "MTK2615:3L4D84MIL0ZMTASUTEGVKSYIT89HJF", "dateTime": 1519154088200}, {"current_trial": 175, "trialdata": {"rt": -1, "trial_type": "single-stim", "stimulus": "<p id=\"stim\">9</p>", "internal_node_id": "0.0-129.0-1.0", "time_elapsed": 836928, "key_press": -1, "trial_index": 175}, "uniqueid": "MTK2615:3L4D84MIL0ZMTASUTEGVKSYIT89HJF", "dateTime": 1519154089205}, {"current_trial": 176, "trialdata": {"rt": -1, "trial_type": "single-stim", "stimulus": "<p id=\"stim\">8</p>", "internal_node_id": "0.0-129.0-2.0", "time_elapsed": 837932, "key_press": -1, "trial_index": 176}, "uniqueid": "MTK2615:3L4D84MIL0ZMTASUTEGVKSYIT89HJF", "dateTime": 1519154090209}, {"current_trial": 177, "trialdata": {"rt": -1, "trial_type": "single-stim", "stimulus": "<p id=\"stim\">7</p>", "internal_node_id": "0.0-129.0-3.0", "time_elapsed": 838936, "key_press": -1, "trial_index": 177}, "uniqueid": "MTK2615:3L4D84MIL0ZMTASUTEGVKSYIT89HJF", "dateTime": 1519154091213}, {"current_trial": 178, "trialdata": {"rt": -1, "trial_type": "single-stim", "stimulus": "<p id=\"stim\">6</p>", "internal_node_id": "0.0-129.0-4.0", "time_elapsed": 839940, "key_press": -1, "trial_index": 178}, "uniqueid": "MTK2615:3L4D84MIL0ZMTASUTEGVKSYIT89HJF", "dateTime": 1519154092217}, {"current_trial": 179, "trialdata": {"rt": -1, "trial_type": "single-stim", "stimulus": "<p id=\"stim\">5</p>", "internal_node_id": "0.0-129.0-5.0", "time_elapsed": 840944, "key_press": -1, "trial_index": 179}, "uniqueid": "MTK2615:3L4D84MIL0ZMTASUTEGVKSYIT89HJF", "dateTime": 1519154093221}, {"current_trial": 180, "trialdata": {"rt": -1, "trial_type": "single-stim", "stimulus": "<p id=\"stim\">4</p>", "internal_node_id": "0.0-129.0-6.0", "time_elapsed": 841950, "key_press": -1, "trial_index": 180}, "uniqueid": "MTK2615:3L4D84MIL0ZMTASUTEGVKSYIT89HJF", "dateTime": 1519154094227}, {"current_trial": 181, "trialdata": {"rt": -1, "trial_type": "single-stim", "stimulus": "<p id=\"stim\">3</p>", "internal_node_id": "0.0-129.0-7.0", "time_elapsed": 842954, "key_press": -1, "trial_index": 181}, "uniqueid": "MTK2615:3L4D84MIL0ZMTASUTEGVKSYIT89HJF", "dateTime": 1519154095231}, {"current_trial": 182, "trialdata": {"rt": -1, "trial_type": "single-stim", "stimulus": "<p id=\"stim\">2</p>", "internal_node_id": "0.0-129.0-8.0", "time_elapsed": 843956, "key_press": -1, "trial_index": 182}, "uniqueid": "MTK2615:3L4D84MIL0ZMTASUTEGVKSYIT89HJF", "dateTime": 1519154096234}, {"current_trial": 183, "trialdata": {"rt": -1, "trial_type": "single-stim", "stimulus": "<p id=\"stim\">1</p>", "internal_node_id": "0.0-129.0-9.0", "time_elapsed": 844960, "key_press": -1, "trial_index": 183}, "uniqueid": "MTK2615:3L4D84MIL0ZMTASUTEGVKSYIT89HJF", "dateTime": 1519154097238}, {"current_trial": 184, "trialdata": {"rt": -1, "trial_type": "single-stim", "stimulus": "<p id=\"stim\">+</p>", "internal_node_id": "0.0-130.0-0.0", "time_elapsed": 846464, "key_press": -1, "type": "FIXATION", "trial_index": 184}, "uniqueid": "MTK2615:3L4D84MIL0ZMTASUTEGVKSYIT89HJF", "dateTime": 1519154098741}, {"current_trial": 185, "trialdata": {"rt": -1, "trial_type": "single-stim", "word": "bug", "stimulus": "<p id=\"stim\">BUG</p>", "conditions": [24, 800, "v", 12000], "internal_node_id": "0.0-131.0", "trial": 5, "time_elapsed": 847266, "serialpos": 0, "key_press": -1, "wordID": 186, "type": "PRES_VIS", "trial_index": 185}, "uniqueid": "MTK2615:3L4D84MIL0ZMTASUTEGVKSYIT89HJF", "dateTime": 1519154099543}, {"current_trial": 186, "trialdata": {"rt": -1, "trial_type": "single-stim", "word": "novel", "stimulus": "<p id=\"stim\">NOVEL</p>", "conditions": [24, 800, "v", 12000], "internal_node_id": "0.0-132.0", "trial": 5, "time_elapsed": 848974, "serialpos": 1, "key_press": -1, "wordID": 959, "type": "PRES_VIS", "trial_index": 186}, "uniqueid": "MTK2615:3L4D84MIL0ZMTASUTEGVKSYIT89HJF", "dateTime": 1519154101251}, {"current_trial": 187, "trialdata": {"rt": -1, "trial_type": "single-stim", "word": "film", "stimulus": "<p id=\"stim\">FILM</p>", "conditions": [24, 800, "v", 12000], "internal_node_id": "0.0-133.0", "trial": 5, "time_elapsed": 850594, "serialpos": 2, "key_press": -1, "wordID": 564, "type": "PRES_VIS", "trial_index": 187}, "uniqueid": "MTK2615:3L4D84MIL0ZMTASUTEGVKSYIT89HJF", "dateTime": 1519154102871}, {"current_trial": 188, "trialdata": {"rt": -1, "trial_type": "single-stim", "word": "worker", "stimulus": "<p id=\"stim\">WORKER</p>", "conditions": [24, 800, "v", 12000], "internal_node_id": "0.0-134.0", "trial": 5, "time_elapsed": 852426, "serialpos": 3, "key_press": -1, "wordID": 1620, "type": "PRES_VIS", "trial_index": 188}, "uniqueid": "MTK2615:3L4D84MIL0ZMTASUTEGVKSYIT89HJF", "dateTime": 1519154104704}, {"current_trial": 189, "trialdata": {"rt": -1, "trial_type": "single-stim", "word": "jelly", "stimulus": "<p id=\"stim\">JELLY</p>", "conditions": [24, 800, "v", 12000], "internal_node_id": "0.0-135.0", "trial": 5, "time_elapsed": 854288, "serialpos": 4, "key_press": -1, "wordID": 754, "type": "PRES_VIS", "trial_index": 189}, "uniqueid": "MTK2615:3L4D84MIL0ZMTASUTEGVKSYIT89HJF", "dateTime": 1519154106565}, {"current_trial": 190, "trialdata": {"rt": -1, "trial_type": "single-stim", "word": "lizard", "stimulus": "<p id=\"stim\">LIZARD</p>", "conditions": [24, 800, "v", 12000], "internal_node_id": "0.0-136.0", "trial": 5, "time_elapsed": 855994, "serialpos": 5, "key_press": -1, "wordID": 833, "type": "PRES_VIS", "trial_index": 190}, "uniqueid": "MTK2615:3L4D84MIL0ZMTASUTEGVKSYIT89HJF", "dateTime": 1519154108271}, {"current_trial": 191, "trialdata": {"rt": -1, "trial_type": "single-stim", "word": "chipmunk", "stimulus": "<p id=\"stim\">CHIPMUNK</p>", "conditions": [24, 800, "v", 12000], "internal_node_id": "0.0-137.0", "trial": 5, "time_elapsed": 857840, "serialpos": 6, "key_press": -1, "wordID": 303, "type": "PRES_VIS", "trial_index": 191}, "uniqueid": "MTK2615:3L4D84MIL0ZMTASUTEGVKSYIT89HJF", "dateTime": 1519154110117}, {"current_trial": 192, "trialdata": {"rt": -1, "trial_type": "single-stim", "word": "clothes", "stimulus": "<p id=\"stim\">CLOTHES</p>", "conditions": [24, 800, "v", 12000], "internal_node_id": "0.0-138.0", "trial": 5, "time_elapsed": 859563, "serialpos": 7, "key_press": -1, "wordID": 326, "type": "PRES_VIS", "trial_index": 192}, "uniqueid": "MTK2615:3L4D84MIL0ZMTASUTEGVKSYIT89HJF", "dateTime": 1519154111841}, {"current_trial": 193, "trialdata": {"rt": -1, "trial_type": "single-stim", "word": "custard", "stimulus": "<p id=\"stim\">CUSTARD</p>", "conditions": [24, 800, "v", 12000], "internal_node_id": "0.0-139.0", "trial": 5, "time_elapsed": 861252, "serialpos": 8, "key_press": -1, "wordID": 428, "type": "PRES_VIS", "trial_index": 193}, "uniqueid": "MTK2615:3L4D84MIL0ZMTASUTEGVKSYIT89HJF", "dateTime": 1519154113529}, {"current_trial": 194, "trialdata": {"rt": -1, "trial_type": "single-stim", "word": "elbow", "stimulus": "<p id=\"stim\">ELBOW</p>", "conditions": [24, 800, "v", 12000], "internal_node_id": "0.0-140.0", "trial": 5, "time_elapsed": 863156, "serialpos": 9, "key_press": -1, "wordID": 519, "type": "PRES_VIS", "trial_index": 194}, "uniqueid": "MTK2615:3L4D84MIL0ZMTASUTEGVKSYIT89HJF", "dateTime": 1519154115433}, {"current_trial": 195, "trialdata": {"rt": -1, "trial_type": "single-stim", "word": "cashier", "stimulus": "<p id=\"stim\">CASHIER</p>", "conditions": [24, 800, "v", 12000], "internal_node_id": "0.0-141.0", "trial": 5, "time_elapsed": 864990, "serialpos": 10, "key_press": -1, "wordID": 253, "type": "PRES_VIS", "trial_index": 195}, "uniqueid": "MTK2615:3L4D84MIL0ZMTASUTEGVKSYIT89HJF", "dateTime": 1519154117267}, {"current_trial": 196, "trialdata": {"rt": -1, "trial_type": "single-stim", "word": "spider", "stimulus": "<p id=\"stim\">SPIDER</p>", "conditions": [24, 800, "v", 12000], "internal_node_id": "0.0-142.0", "trial": 5, "time_elapsed": 866719, "serialpos": 11, "key_press": -1, "wordID": 1350, "type": "PRES_VIS", "trial_index": 196}, "uniqueid": "MTK2615:3L4D84MIL0ZMTASUTEGVKSYIT89HJF", "dateTime": 1519154118996}, {"current_trial": 197, "trialdata": {"rt": -1, "trial_type": "single-stim", "word": "child", "stimulus": "<p id=\"stim\">CHILD</p>", "conditions": [24, 800, "v", 12000], "internal_node_id": "0.0-143.0", "trial": 5, "time_elapsed": 868590, "serialpos": 12, "key_press": -1, "wordID": 298, "type": "PRES_VIS", "trial_index": 197}, "uniqueid": "MTK2615:3L4D84MIL0ZMTASUTEGVKSYIT89HJF", "dateTime": 1519154120867}, {"current_trial": 198, "trialdata": {"rt": -1, "trial_type": "single-stim", "word": "umpire", "stimulus": "<p id=\"stim\">UMPIRE</p>", "conditions": [24, 800, "v", 12000], "internal_node_id": "0.0-144.0", "trial": 5, "time_elapsed": 870420, "serialpos": 13, "key_press": -1, "wordID": 1534, "type": "PRES_VIS", "trial_index": 198}, "uniqueid": "MTK2615:3L4D84MIL0ZMTASUTEGVKSYIT89HJF", "dateTime": 1519154122698}, {"current_trial": 199, "trialdata": {"rt": -1, "trial_type": "single-stim", "word": "glass", "stimulus": "<p id=\"stim\">GLASS</p>", "conditions": [24, 800, "v", 12000], "internal_node_id": "0.0-145.0", "trial": 5, "time_elapsed": 872355, "serialpos": 14, "key_press": -1, "wordID": 638, "type": "PRES_VIS", "trial_index": 199}, "uniqueid": "MTK2615:3L4D84MIL0ZMTASUTEGVKSYIT89HJF", "dateTime": 1519154124632}, {"current_trial": 200, "trialdata": {"rt": -1, "trial_type": "single-stim", "word": "headband", "stimulus": "<p id=\"stim\">HEADBAND</p>", "conditions": [24, 800, "v", 12000], "internal_node_id": "0.0-146.0", "trial": 5, "time_elapsed": 874038, "serialpos": 15, "key_press": -1, "wordID": 695, "type": "PRES_VIS", "trial_index": 200}, "uniqueid": "MTK2615:3L4D84MIL0ZMTASUTEGVKSYIT89HJF", "dateTime": 1519154126315}, {"current_trial": 201, "trialdata": {"rt": -1, "trial_type": "single-stim", "word": "fragrance", "stimulus": "<p id=\"stim\">FRAGRANCE</p>", "conditions": [24, 800, "v", 12000], "internal_node_id": "0.0-147.0", "trial": 5, "time_elapsed": 875704, "serialpos": 16, "key_press": -1, "wordID": 598, "type": "PRES_VIS", "trial_index": 201}, "uniqueid": "MTK2615:3L4D84MIL0ZMTASUTEGVKSYIT89HJF", "dateTime": 1519154127981}, {"current_trial": 202, "trialdata": {"rt": -1, "trial_type": "single-stim", "word": "pepper", "stimulus": "<p id=\"stim\">PEPPER</p>", "conditions": [24, 800, "v", 12000], "internal_node_id": "0.0-148.0", "trial": 5, "time_elapsed": 877349, "serialpos": 17, "key_press": -1, "wordID": 1046, "type": "PRES_VIS", "trial_index": 202}, "uniqueid": "MTK2615:3L4D84MIL0ZMTASUTEGVKSYIT89HJF", "dateTime": 1519154129626}, {"current_trial": 203, "trialdata": {"rt": -1, "trial_type": "single-stim", "word": "garlic", "stimulus": "<p id=\"stim\">GARLIC</p>", "conditions": [24, 800, "v", 12000], "internal_node_id": "0.0-149.0", "trial": 5, "time_elapsed": 879314, "serialpos": 18, "key_press": -1, "wordID": 623, "type": "PRES_VIS", "trial_index": 203}, "uniqueid": "MTK2615:3L4D84MIL0ZMTASUTEGVKSYIT89HJF", "dateTime": 1519154131591}, {"current_trial": 204, "trialdata": {"rt": -1, "trial_type": "single-stim", "word": "marker", "stimulus": "<p id=\"stim\">MARKER</p>", "conditions": [24, 800, "v", 12000], "internal_node_id": "0.0-150.0", "trial": 5, "time_elapsed": 881305, "serialpos": 19, "key_press": -1, "wordID": 869, "type": "PRES_VIS", "trial_index": 204}, "uniqueid": "MTK2615:3L4D84MIL0ZMTASUTEGVKSYIT89HJF", "dateTime": 1519154133583}, {"current_trial": 205, "trialdata": {"rt": -1, "trial_type": "single-stim", "word": "shirt", "stimulus": "<p id=\"stim\">SHIRT</p>", "conditions": [24, 800, "v", 12000], "internal_node_id": "0.0-151.0", "trial": 5, "time_elapsed": 883167, "serialpos": 20, "key_press": -1, "wordID": 1286, "type": "PRES_VIS", "trial_index": 205}, "uniqueid": "MTK2615:3L4D84MIL0ZMTASUTEGVKSYIT89HJF", "dateTime": 1519154135445}, {"current_trial": 206, "trialdata": {"rt": -1, "trial_type": "single-stim", "word": "hiker", "stimulus": "<p id=\"stim\">HIKER</p>", "conditions": [24, 800, "v", 12000], "internal_node_id": "0.0-152.0", "trial": 5, "time_elapsed": 884816, "serialpos": 21, "key_press": -1, "wordID": 707, "type": "PRES_VIS", "trial_index": 206}, "uniqueid": "MTK2615:3L4D84MIL0ZMTASUTEGVKSYIT89HJF", "dateTime": 1519154137093}, {"current_trial": 207, "trialdata": {"rt": -1, "trial_type": "single-stim", "word": "blockade", "stimulus": "<p id=\"stim\">BLOCKADE</p>", "conditions": [24, 800, "v", 12000], "internal_node_id": "0.0-153.0", "trial": 5, "time_elapsed": 886588, "serialpos": 22, "key_press": -1, "wordID": 136, "type": "PRES_VIS", "trial_index": 207}, "uniqueid": "MTK2615:3L4D84MIL0ZMTASUTEGVKSYIT89HJF", "dateTime": 1519154138865}, {"current_trial": 208, "trialdata": {"rt": -1, "trial_type": "single-stim", "word": "army", "stimulus": "<p id=\"stim\">ARMY</p>", "conditions": [24, 800, "v", 12000], "internal_node_id": "0.0-154.0", "trial": 5, "time_elapsed": 888432, "serialpos": 23, "key_press": -1, "wordID": 38, "type": "PRES_VIS", "trial_index": 208}, "uniqueid": "MTK2615:3L4D84MIL0ZMTASUTEGVKSYIT89HJF", "dateTime": 1519154140709}, {"current_trial": 209, "trialdata": {"rt": -1, "trial_type": "single-stim", "stimulus": "", "internal_node_id": "0.0-155.0-0.0", "time_elapsed": 890681, "key_press": -1, "type": "PRE_RECALL_DELAY", "trial_index": 209}, "uniqueid": "MTK2615:3L4D84MIL0ZMTASUTEGVKSYIT89HJF", "dateTime": 1519154142958}, {"current_trial": 210, "trialdata": {"rt": -1000, "trial_type": "single-audio", "stimulus": "/static/audio/400Hz.wav", "internal_node_id": "0.0-156.0", "time_elapsed": 891183, "key_press": -1, "type": "PRE_RECALL_ALERT", "trial_index": 210}, "uniqueid": "MTK2615:3L4D84MIL0ZMTASUTEGVKSYIT89HJF", "dateTime": 1519154143461}, {"current_trial": 211, "trialdata": {"rt": [2955, 4700, 6331, 7915, 9995, 11627], "recwords": ["blockade", "army", "worker", "child", "bug", "novel"], "key_times": [796, 1260, 1404, 1547, 1731, 1859, 2419, 2483, 2955, 3267, 3540, 3675, 4499, 4700, 5227, 5347, 5548, 5691, 5835, 5915, 6331, 7171, 7307, 7396, 7595, 7748, 7915, 9132, 9236, 9436, 9995, 10419, 10532, 10859, 11107, 11242, 11627], "trial_type": "free-recall", "conditions": [24, 800, "v", 12000], "internal_node_id": "0.0-157.0-0.0", "key_presses": [66, 76, 79, 67, 75, 65, 68, 69, 13, 65, 82, 77, 89, 13, 87, 79, 82, 75, 69, 82, 13, 67, 72, 73, 76, 68, 13, 66, 85, 71, 13, 78, 79, 86, 69, 76, 13], "trial": 5, "time_elapsed": 951191, "type": "FREE_RECALL", "trial_index": 211}, "uniqueid": "MTK2615:3L4D84MIL0ZMTASUTEGVKSYIT89HJF", "dateTime": 1519154203470}, {"current_trial": 212, "trialdata": {"rt": 824, "trial_type": "text", "internal_node_id": "0.0-158.0", "time_elapsed": 954023, "key_press": 32, "type": "INSTRUCTIONS", "trial_index": 212}, "uniqueid": "MTK2615:3L4D84MIL0ZMTASUTEGVKSYIT89HJF", "dateTime": 1519154206300}, {"current_trial": 213, "trialdata": {"rt": [2316, 4484, 7763, 9770], "trial_type": "math-distractor", "key_times": [2092, 2316, 4075, 4275, 4484, 7227, 7563, 7763, 9588, 9770, 11708], "responses": ["8", "18", "20", "8"], "num2": [2, 8, 6, 3, 5], "num3": [1, 1, 7, 3, 6], "conditions": [24, 1600, "v", 12000], "internal_node_id": "0.0-159.0", "key_presses": [56, 13, 49, 56, 13, 50, 48, 13, 56, 13, 49], "trial": 6, "time_elapsed": 968029, "type": "DISTRACTOR", "trial_index": 213, "num1": [5, 9, 7, 2, 6]}, "uniqueid": "MTK2615:3L4D84MIL0ZMTASUTEGVKSYIT89HJF", "dateTime": 1519154220307}, {"current_trial": 214, "trialdata": {"rt": -1, "trial_type": "single-stim", "stimulus": "<p id=\"stim\">10</p>", "internal_node_id": "0.0-160.0-0.0", "time_elapsed": 971039, "key_press": -1, "trial_index": 214}, "uniqueid": "MTK2615:3L4D84MIL0ZMTASUTEGVKSYIT89HJF", "dateTime": 1519154223317}, {"current_trial": 215, "trialdata": {"rt": -1, "trial_type": "single-stim", "stimulus": "<p id=\"stim\">9</p>", "internal_node_id": "0.0-160.0-1.0", "time_elapsed": 972041, "key_press": -1, "trial_index": 215}, "uniqueid": "MTK2615:3L4D84MIL0ZMTASUTEGVKSYIT89HJF", "dateTime": 1519154224318}, {"current_trial": 216, "trialdata": {"rt": -1, "trial_type": "single-stim", "stimulus": "<p id=\"stim\">8</p>", "internal_node_id": "0.0-160.0-2.0", "time_elapsed": 973042, "key_press": -1, "trial_index": 216}, "uniqueid": "MTK2615:3L4D84MIL0ZMTASUTEGVKSYIT89HJF", "dateTime": 1519154225319}, {"current_trial": 217, "trialdata": {"rt": -1, "trial_type": "single-stim", "stimulus": "<p id=\"stim\">7</p>", "internal_node_id": "0.0-160.0-3.0", "time_elapsed": 974044, "key_press": -1, "trial_index": 217}, "uniqueid": "MTK2615:3L4D84MIL0ZMTASUTEGVKSYIT89HJF", "dateTime": 1519154226321}, {"current_trial": 218, "trialdata": {"rt": -1, "trial_type": "single-stim", "stimulus": "<p id=\"stim\">6</p>", "internal_node_id": "0.0-160.0-4.0", "time_elapsed": 975046, "key_press": -1, "trial_index": 218}, "uniqueid": "MTK2615:3L4D84MIL0ZMTASUTEGVKSYIT89HJF", "dateTime": 1519154227323}, {"current_trial": 219, "trialdata": {"rt": -1, "trial_type": "single-stim", "stimulus": "<p id=\"stim\">5</p>", "internal_node_id": "0.0-160.0-5.0", "time_elapsed": 976048, "key_press": -1, "trial_index": 219}, "uniqueid": "MTK2615:3L4D84MIL0ZMTASUTEGVKSYIT89HJF", "dateTime": 1519154228325}, {"current_trial": 220, "trialdata": {"rt": -1, "trial_type": "single-stim", "stimulus": "<p id=\"stim\">4</p>", "internal_node_id": "0.0-160.0-6.0", "time_elapsed": 977049, "key_press": -1, "trial_index": 220}, "uniqueid": "MTK2615:3L4D84MIL0ZMTASUTEGVKSYIT89HJF", "dateTime": 1519154229327}, {"current_trial": 221, "trialdata": {"rt": -1, "trial_type": "single-stim", "stimulus": "<p id=\"stim\">3</p>", "internal_node_id": "0.0-160.0-7.0", "time_elapsed": 978051, "key_press": -1, "trial_index": 221}, "uniqueid": "MTK2615:3L4D84MIL0ZMTASUTEGVKSYIT89HJF", "dateTime": 1519154230328}, {"current_trial": 222, "trialdata": {"rt": -1, "trial_type": "single-stim", "stimulus": "<p id=\"stim\">2</p>", "internal_node_id": "0.0-160.0-8.0", "time_elapsed": 979055, "key_press": -1, "trial_index": 222}, "uniqueid": "MTK2615:3L4D84MIL0ZMTASUTEGVKSYIT89HJF", "dateTime": 1519154231332}, {"current_trial": 223, "trialdata": {"rt": -1, "trial_type": "single-stim", "stimulus": "<p id=\"stim\">1</p>", "internal_node_id": "0.0-160.0-9.0", "time_elapsed": 980058, "key_press": -1, "trial_index": 223}, "uniqueid": "MTK2615:3L4D84MIL0ZMTASUTEGVKSYIT89HJF", "dateTime": 1519154232335}, {"current_trial": 224, "trialdata": {"rt": -1, "trial_type": "single-stim", "stimulus": "<p id=\"stim\">+</p>", "internal_node_id": "0.0-161.0-0.0", "time_elapsed": 981562, "key_press": -1, "type": "FIXATION", "trial_index": 224}, "uniqueid": "MTK2615:3L4D84MIL0ZMTASUTEGVKSYIT89HJF", "dateTime": 1519154233839}, {"current_trial": 225, "trialdata": {"rt": -1, "trial_type": "single-stim", "word": "pimple", "stimulus": "<p id=\"stim\">PIMPLE</p>", "conditions": [24, 1600, "v", 12000], "internal_node_id": "0.0-162.0", "trial": 6, "time_elapsed": 983163, "serialpos": 0, "key_press": -1, "wordID": 1070, "type": "PRES_VIS", "trial_index": 225}, "uniqueid": "MTK2615:3L4D84MIL0ZMTASUTEGVKSYIT89HJF", "dateTime": 1519154235441}, {"current_trial": 226, "trialdata": {"rt": -1, "trial_type": "single-stim", "word": "knapsack", "stimulus": "<p id=\"stim\">KNAPSACK</p>", "conditions": [24, 1600, "v", 12000], "internal_node_id": "0.0-163.0", "trial": 6, "time_elapsed": 985804, "serialpos": 1, "key_press": -1, "wordID": 782, "type": "PRES_VIS", "trial_index": 226}, "uniqueid": "MTK2615:3L4D84MIL0ZMTASUTEGVKSYIT89HJF", "dateTime": 1519154238081}, {"current_trial": 227, "trialdata": {"rt": -1, "trial_type": "single-stim", "word": "truck", "stimulus": "<p id=\"stim\">TRUCK</p>", "conditions": [24, 1600, "v", 12000], "internal_node_id": "0.0-164.0", "trial": 6, "time_elapsed": 988352, "serialpos": 2, "key_press": -1, "wordID": 1511, "type": "PRES_VIS", "trial_index": 227}, "uniqueid": "MTK2615:3L4D84MIL0ZMTASUTEGVKSYIT89HJF", "dateTime": 1519154240629}, {"current_trial": 228, "trialdata": {"rt": -1, "trial_type": "single-stim", "word": "dashboard", "stimulus": "<p id=\"stim\">DASHBOARD</p>", "conditions": [24, 1600, "v", 12000], "internal_node_id": "0.0-165.0", "trial": 6, "time_elapsed": 990920, "serialpos": 3, "key_press": -1, "wordID": 440, "type": "PRES_VIS", "trial_index": 228}, "uniqueid": "MTK2615:3L4D84MIL0ZMTASUTEGVKSYIT89HJF", "dateTime": 1519154243197}, {"current_trial": 229, "trialdata": {"rt": -1, "trial_type": "single-stim", "word": "pigment", "stimulus": "<p id=\"stim\">PIGMENT</p>", "conditions": [24, 1600, "v", 12000], "internal_node_id": "0.0-166.0", "trial": 6, "time_elapsed": 993703, "serialpos": 4, "key_press": -1, "wordID": 1065, "type": "PRES_VIS", "trial_index": 229}, "uniqueid": "MTK2615:3L4D84MIL0ZMTASUTEGVKSYIT89HJF", "dateTime": 1519154245981}, {"current_trial": 230, "trialdata": {"rt": -1, "trial_type": "single-stim", "word": "freckle", "stimulus": "<p id=\"stim\">FRECKLE</p>", "conditions": [24, 1600, "v", 12000], "internal_node_id": "0.0-167.0", "trial": 6, "time_elapsed": 996461, "serialpos": 5, "key_press": -1, "wordID": 601, "type": "PRES_VIS", "trial_index": 230}, "uniqueid": "MTK2615:3L4D84MIL0ZMTASUTEGVKSYIT89HJF", "dateTime": 1519154248738}, {"current_trial": 231, "trialdata": {"rt": -1, "trial_type": "single-stim", "word": "valve", "stimulus": "<p id=\"stim\">VALVE</p>", "conditions": [24, 1600, "v", 12000], "internal_node_id": "0.0-168.0", "trial": 6, "time_elapsed": 999038, "serialpos": 6, "key_press": -1, "wordID": 1545, "type": "PRES_VIS", "trial_index": 231}, "uniqueid": "MTK2615:3L4D84MIL0ZMTASUTEGVKSYIT89HJF", "dateTime": 1519154251315}, {"current_trial": 232, "trialdata": {"rt": -1, "trial_type": "single-stim", "word": "brother", "stimulus": "<p id=\"stim\">BROTHER</p>", "conditions": [24, 1600, "v", 12000], "internal_node_id": "0.0-169.0", "trial": 6, "time_elapsed": 1001765, "serialpos": 7, "key_press": -1, "wordID": 178, "type": "PRES_VIS", "trial_index": 232}, "uniqueid": "MTK2615:3L4D84MIL0ZMTASUTEGVKSYIT89HJF", "dateTime": 1519154254042}, {"current_trial": 233, "trialdata": {"rt": -1, "trial_type": "single-stim", "word": "uncle", "stimulus": "<p id=\"stim\">UNCLE</p>", "conditions": [24, 1600, "v", 12000], "internal_node_id": "0.0-170.0", "trial": 6, "time_elapsed": 1004313, "serialpos": 8, "key_press": -1, "wordID": 1535, "type": "PRES_VIS", "trial_index": 233}, "uniqueid": "MTK2615:3L4D84MIL0ZMTASUTEGVKSYIT89HJF", "dateTime": 1519154256590}, {"current_trial": 234, "trialdata": {"rt": -1, "trial_type": "single-stim", "word": "gavel", "stimulus": "<p id=\"stim\">GAVEL</p>", "conditions": [24, 1600, "v", 12000], "internal_node_id": "0.0-171.0", "trial": 6, "time_elapsed": 1007070, "serialpos": 9, "key_press": -1, "wordID": 626, "type": "PRES_VIS", "trial_index": 234}, "uniqueid": "MTK2615:3L4D84MIL0ZMTASUTEGVKSYIT89HJF", "dateTime": 1519154259347}, {"current_trial": 235, "trialdata": {"rt": -1, "trial_type": "single-stim", "word": "beaver", "stimulus": "<p id=\"stim\">BEAVER</p>", "conditions": [24, 1600, "v", 12000], "internal_node_id": "0.0-172.0", "trial": 6, "time_elapsed": 1009839, "serialpos": 10, "key_press": -1, "wordID": 108, "type": "PRES_VIS", "trial_index": 235}, "uniqueid": "MTK2615:3L4D84MIL0ZMTASUTEGVKSYIT89HJF", "dateTime": 1519154262116}, {"current_trial": 236, "trialdata": {"rt": -1, "trial_type": "single-stim", "word": "hedge", "stimulus": "<p id=\"stim\">HEDGE</p>", "conditions": [24, 1600, "v", 12000], "internal_node_id": "0.0-173.0", "trial": 6, "time_elapsed": 1012375, "serialpos": 11, "key_press": -1, "wordID": 698, "type": "PRES_VIS", "trial_index": 236}, "uniqueid": "MTK2615:3L4D84MIL0ZMTASUTEGVKSYIT89HJF", "dateTime": 1519154264652}, {"current_trial": 237, "trialdata": {"rt": -1, "trial_type": "single-stim", "word": "cookbook", "stimulus": "<p id=\"stim\">COOKBOOK</p>", "conditions": [24, 1600, "v", 12000], "internal_node_id": "0.0-174.0", "trial": 6, "time_elapsed": 1015132, "serialpos": 12, "key_press": -1, "wordID": 372, "type": "PRES_VIS", "trial_index": 237}, "uniqueid": "MTK2615:3L4D84MIL0ZMTASUTEGVKSYIT89HJF", "dateTime": 1519154267409}, {"current_trial": 238, "trialdata": {"rt": -1, "trial_type": "single-stim", "word": "pizza", "stimulus": "<p id=\"stim\">PIZZA</p>", "conditions": [24, 1600, "v", 12000], "internal_node_id": "0.0-175.0", "trial": 6, "time_elapsed": 1017836, "serialpos": 13, "key_press": -1, "wordID": 1078, "type": "PRES_VIS", "trial_index": 238}, "uniqueid": "MTK2615:3L4D84MIL0ZMTASUTEGVKSYIT89HJF", "dateTime": 1519154270113}, {"current_trial": 239, "trialdata": {"rt": -1, "trial_type": "single-stim", "word": "tombstone", "stimulus": "<p id=\"stim\">TOMBSTONE</p>", "conditions": [24, 1600, "v", 12000], "internal_node_id": "0.0-176.0", "trial": 6, "time_elapsed": 1020315, "serialpos": 14, "key_press": -1, "wordID": 1477, "type": "PRES_VIS", "trial_index": 239}, "uniqueid": "MTK2615:3L4D84MIL0ZMTASUTEGVKSYIT89HJF", "dateTime": 1519154272592}, {"current_trial": 240, "trialdata": {"rt": -1, "trial_type": "single-stim", "word": "lover", "stimulus": "<p id=\"stim\">LOVER</p>", "conditions": [24, 1600, "v", 12000], "internal_node_id": "0.0-177.0", "trial": 6, "time_elapsed": 1022796, "serialpos": 15, "key_press": -1, "wordID": 845, "type": "PRES_VIS", "trial_index": 240}, "uniqueid": "MTK2615:3L4D84MIL0ZMTASUTEGVKSYIT89HJF", "dateTime": 1519154275073}, {"current_trial": 241, "trialdata": {"rt": -1, "trial_type": "single-stim", "word": "hawk", "stimulus": "<p id=\"stim\">HAWK</p>", "conditions": [24, 1600, "v", 12000], "internal_node_id": "0.0-178.0", "trial": 6, "time_elapsed": 1025323, "serialpos": 16, "key_press": -1, "wordID": 691, "type": "PRES_VIS", "trial_index": 241}, "uniqueid": "MTK2615:3L4D84MIL0ZMTASUTEGVKSYIT89HJF", "dateTime": 1519154277600}, {"current_trial": 242, "trialdata": {"rt": -1, "trial_type": "single-stim", "word": "sandwich", "stimulus": "<p id=\"stim\">SANDWICH</p>", "conditions": [24, 1600, "v", 12000], "internal_node_id": "0.0-179.0", "trial": 6, "time_elapsed": 1028121, "serialpos": 17, "key_press": -1, "wordID": 1231, "type": "PRES_VIS", "trial_index": 242}, "uniqueid": "MTK2615:3L4D84MIL0ZMTASUTEGVKSYIT89HJF", "dateTime": 1519154280399}, {"current_trial": 243, "trialdata": {"rt": -1, "trial_type": "single-stim", "word": "judge", "stimulus": "<p id=\"stim\">JUDGE</p>", "conditions": [24, 1600, "v", 12000], "internal_node_id": "0.0-180.0", "trial": 6, "time_elapsed": 1030583, "serialpos": 18, "key_press": -1, "wordID": 760, "type": "PRES_VIS", "trial_index": 243}, "uniqueid": "MTK2615:3L4D84MIL0ZMTASUTEGVKSYIT89HJF", "dateTime": 1519154282860}, {"current_trial": 244, "trialdata": {"rt": -1, "trial_type": "single-stim", "word": "jury", "stimulus": "<p id=\"stim\">JURY</p>", "conditions": [24, 1600, "v", 12000], "internal_node_id": "0.0-181.0", "trial": 6, "time_elapsed": 1033228, "serialpos": 19, "key_press": -1, "wordID": 765, "type": "PRES_VIS", "trial_index": 244}, "uniqueid": "MTK2615:3L4D84MIL0ZMTASUTEGVKSYIT89HJF", "dateTime": 1519154285506}, {"current_trial": 245, "trialdata": {"rt": -1, "trial_type": "single-stim", "word": "concert", "stimulus": "<p id=\"stim\">CONCERT</p>", "conditions": [24, 1600, "v", 12000], "internal_node_id": "0.0-182.0", "trial": 6, "time_elapsed": 1035666, "serialpos": 20, "key_press": -1, "wordID": 359, "type": "PRES_VIS", "trial_index": 245}, "uniqueid": "MTK2615:3L4D84MIL0ZMTASUTEGVKSYIT89HJF", "dateTime": 1519154287943}, {"current_trial": 246, "trialdata": {"rt": -1, "trial_type": "single-stim", "word": "scribble", "stimulus": "<p id=\"stim\">SCRIBBLE</p>", "conditions": [24, 1600, "v", 12000], "internal_node_id": "0.0-183.0", "trial": 6, "time_elapsed": 1038325, "serialpos": 21, "key_press": -1, "wordID": 1255, "type": "PRES_VIS", "trial_index": 246}, "uniqueid": "MTK2615:3L4D84MIL0ZMTASUTEGVKSYIT89HJF", "dateTime": 1519154290602}, {"current_trial": 247, "trialdata": {"rt": -1, "trial_type": "single-stim", "word": "waitress", "stimulus": "<p id=\"stim\">WAITRESS</p>", "conditions": [24, 1600, "v", 12000], "internal_node_id": "0.0-184.0", "trial": 6, "time_elapsed": 1040959, "serialpos": 22, "key_press": -1, "wordID": 1580, "type": "PRES_VIS", "trial_index": 247}, "uniqueid": "MTK2615:3L4D84MIL0ZMTASUTEGVKSYIT89HJF", "dateTime": 1519154293236}, {"current_trial": 248, "trialdata": {"rt": -1, "trial_type": "single-stim", "word": "salt", "stimulus": "<p id=\"stim\">SALT</p>", "conditions": [24, 1600, "v", 12000], "internal_node_id": "0.0-185.0", "trial": 6, "time_elapsed": 1043675, "serialpos": 23, "key_press": -1, "wordID": 1228, "type": "PRES_VIS", "trial_index": 248}, "uniqueid": "MTK2615:3L4D84MIL0ZMTASUTEGVKSYIT89HJF", "dateTime": 1519154295952}, {"current_trial": 249, "trialdata": {"rt": -1, "trial_type": "single-stim", "stimulus": "", "internal_node_id": "0.0-186.0-0.0", "time_elapsed": 1046118, "key_press": -1, "type": "PRE_RECALL_DELAY", "trial_index": 249}, "uniqueid": "MTK2615:3L4D84MIL0ZMTASUTEGVKSYIT89HJF", "dateTime": 1519154298396}, {"current_trial": 250, "trialdata": {"rt": -1000, "trial_type": "single-audio", "stimulus": "/static/audio/400Hz.wav", "internal_node_id": "0.0-187.0", "time_elapsed": 1046621, "key_press": -1, "type": "PRE_RECALL_ALERT", "trial_index": 250}, "uniqueid": "MTK2615:3L4D84MIL0ZMTASUTEGVKSYIT89HJF", "dateTime": 1519154298898}, {"current_trial": 251, "trialdata": {"rt": [1824, 4947, 7072, 9777, 12680, 15337, 17497, 21968, 24280, 25481, 26640, 34128, 36584, 38552], "recwords": ["judge", "jury", "waitress", "salt", "pimple", "pigment", "freckle", "dashboard", "truck", "uncle", "brother", "tomstone", "pizza", "lover"], "key_times": [512, 689, 825, 1020, 1201, 1824, 2304, 2424, 2600, 2721, 3170, 3329, 3457, 3577, 4161, 4320, 4464, 4585, 4947, 5369, 5642, 5816, 6033, 6328, 6449, 6713, 6888, 7072, 7640, 8169, 8353, 8736, 9128, 9569, 9777, 11753, 11865, 12097, 12176, 12384, 12528, 12680, 12936, 13169, 13617, 14537, 14704, 14864, 14928, 15337, 15793, 15977, 16033, 16240, 16352, 16648, 16984, 17208, 17328, 17497, 18000, 18072, 18200, 18425, 18552, 18648, 18840, 19032, 19288, 19789, 19873, 19957, 20041, 20125, 20210, 20294, 20377, 20461, 20728, 20880, 20952, 21072, 21264, 21424, 21496, 21632, 21816, 21968, 22520, 22608, 22808, 22960, 23993, 24280, 24792, 24896, 25032, 25144, 25298, 25481, 25784, 25912, 26000, 26152, 26232, 26336, 26402, 26640, 32000, 32088, 32184, 32384, 32792, 33657, 33728, 33864, 34128, 35464, 35538, 35872, 36056, 36264, 36584, 37104, 37256, 37488, 37696, 37752, 38552], "trial_type": "free-recall", "conditions": [24, 1600, "v", 12000], "internal_node_id": "0.0-188.0-0.0", "key_presses": [74, 85, 68, 71, 69, 13, 72, 85, 82, 89, 8, 8, 8, 8, 74, 85, 82, 89, 13, 87, 65, 73, 84, 82, 69, 83, 83, 13, 83, 65, 76, 89, 8, 84, 13, 80, 73, 77, 80, 76, 69, 13, 80, 73, 71, 77, 69, 78, 84, 13, 70, 82, 69, 67, 75, 69, 8, 76, 69, 13, 83, 65, 72, 66, 79, 65, 82, 68, 8, 8, 8, 8, 8, 8, 8, 8, 8, 8, 68, 65, 83, 72, 66, 79, 65, 82, 68, 13, 84, 82, 85, 67, 75, 13, 85, 78, 67, 76, 69, 13, 66, 82, 79, 84, 72, 69, 82, 13, 84, 79, 77, 83, 84, 79, 78, 69, 32, 80, 73, 90, 90, 65, 13, 76, 79, 86, 69, 82, 13], "trial": 6, "time_elapsed": 1106624, "type": "FREE_RECALL", "trial_index": 251}, "uniqueid": "MTK2615:3L4D84MIL0ZMTASUTEGVKSYIT89HJF", "dateTime": 1519154358904}, {"current_trial": 252, "trialdata": {"rt": 1574, "trial_type": "text", "internal_node_id": "0.0-189.0", "time_elapsed": 1110203, "key_press": 32, "