{"assignmentId": "3OONKJ5DKDQQ38G59ZY46DC6YZMBO5", "workerId": "MTK2869", "questiondata": {"origin": "United States", "strat-rehearsal": "88", "marital": "Married/Domestic Partnership", "education": "Some college", "ethnicity": "Not Hispanic", "color_depth": 24, "distracted": "No", "wrote-notes": "Yes", "strat-other": "", "screen_width": 1600, "avail_screen_width": 1600, "avail_screen_height": 860, "strat-image": "29", "language": "English", "gender": "Male", "age": "45", "gender_other": "", "race": ["White"], "strat-categorize": "75", "pixel_depth": 24, "strat-spatial": "13", "strat-story": "29", "race_other": "", "screen_height": 900}, "bonus": 0, "hitId": "3Y7LTZE0YTTFBR5OLXLE2HFEMBJZUD", "counterbalance": 910, "useragent": "Mozilla/5.0 (Windows NT 6.1; Win64; x64) AppleWebKit/537.36 (KHTML, like Gecko) Chrome/64.0.3282.186 Safari/537.36", "eventdata": [{"eventtype": "initialized", "interval": 0, "value": null, "timestamp": 1519420513144}, {"eventtype": "window_resize", "interval": 0, "value": [1600, 810], "timestamp": 1519420513144}, {"eventtype": "window_resize", "interval": 44391, "value": [1600, 900], "timestamp": 1519420557535}, {"eventtype": "window_resize", "interval": 200004, "value": [1600, 810], "timestamp": 1519420757539}], "data": [{"current_trial": 0, "trialdata": {"rt": 2265, "trial_type": "text", "internal_node_id": "0.0-0.0", "time_elapsed": 2267, "key_press": 78, "type": "INSTRUCTIONS", "trial_index": 0}, "uniqueid": "MTK2869:3OONKJ5DKDQQ38G59ZY46DC6YZMBO5", "dateTime": 1519420525554}, {"current_trial": 1, "trialdata": {"rt": 12775, "trial_type": "text", "internal_node_id": "0.0-1.0", "time_elapsed": 15044, "key_press": 75, "type": "INSTRUCTIONS", "trial_index": 1}, "uniqueid": "MTK2869:3OONKJ5DKDQQ38G59ZY46DC6YZMBO5", "dateTime": 1519420538330}, {"current_trial": 2, "trialdata": {"rt": [23589], "trial_type": "audio-test", "responses": ["ocean"], "internal_node_id": "0.0-2.0", "time_elapsed": 38644, "type": "AUDIO_TEST", "trial_index": 2}, "uniqueid": "MTK2869:3OONKJ5DKDQQ38G59ZY46DC6YZMBO5", "dateTime": 1519420561930}, {"current_trial": 3, "trialdata": {"rt": [5735], "trial_type": "audio-test", "responses": ["crystal"], "internal_node_id": "0.0-3.0", "time_elapsed": 44383, "type": "AUDIO_TEST", "trial_index": 3}, "uniqueid": "MTK2869:3OONKJ5DKDQQ38G59ZY46DC6YZMBO5", "dateTime": 1519420567669}, {"current_trial": 4, "trialdata": {"rt": [4696], "trial_type": "audio-test", "responses": ["spice"], "internal_node_id": "0.0-4.0", "time_elapsed": 49083, "type": "AUDIO_TEST", "trial_index": 4}, "uniqueid": "MTK2869:3OONKJ5DKDQQ38G59ZY46DC6YZMBO5", "dateTime": 1519420572369}, {"current_trial": 5, "trialdata": {"rt": 15466, "trial_type": "survey-text", "responses": "{\"Q0\":\"1245am\",\"Q1\":\"715am\",\"Q2\":\"5\"}", "internal_node_id": "0.0-5.0", "time_elapsed": 65302, "type": "SLEEP_SURVEY", "trial_index": 5}, "uniqueid": "MTK2869:3OONKJ5DKDQQ38G59ZY46DC6YZMBO5", "dateTime": 1519420588588}, {"current_trial": 6, "trialdata": {"rt": 28746, "trial_type": "text", "internal_node_id": "0.0-6.0", "time_elapsed": 95051, "key_press": 32, "type": "INSTRUCTIONS", "trial_index": 6}, "uniqueid": "MTK2869:3OONKJ5DKDQQ38G59ZY46DC6YZMBO5", "dateTime": 1519420618337}, {"current_trial": 7, "trialdata": {"rt": 23533, "trial_type": "text", "internal_node_id": "0.0-7.0", "time_elapsed": 119084, "key_press": 32, "type": "INSTRUCTIONS", "trial_index": 7}, "uniqueid": "MTK2869:3OONKJ5DKDQQ38G59ZY46DC6YZMBO5", "dateTime": 1519420642370}, {"current_trial": 8, "trialdata": {"rt": 7851, "trial_type": "text", "internal_node_id": "0.0-8.0", "time_elapsed": 127436, "key_press": 32, "type": "INSTRUCTIONS", "trial_index": 8}, "uniqueid": "MTK2869:3OONKJ5DKDQQ38G59ZY46DC6YZMBO5", "dateTime": 1519420650722}, {"current_trial": 9, "trialdata": {"rt": [2963, 4704, 7894, 9507, 11080, 12545, 14939, 16404], "trial_type": "math-distractor", "key_times": [1894, 1983, 2963, 4368, 4430, 4704, 7577, 7640, 7894, 9071, 9279, 9507, 10922, 11080, 12209, 12337, 12545, 14603, 14692, 14939, 16048, 16216, 16404, 17978], "responses": ["16", "15", "12", "17", "5", "10", "19", "13"], "num2": [9, 1, 1, 1, 1, 6, 6, 2, 6], "num3": [6, 8, 7, 9, 3, 3, 4, 3, 5], "conditions": [18, 1200, "a", 18000], "internal_node_id": "0.0-9.0", "key_presses": [97, 102, 13, 97, 101, 13, 97, 98, 13, 97, 103, 13, 101, 13, 97, 96, 13, 97, 105, 13, 97, 99, 13, 97], "trial": 0, "time_elapsed": 146445, "type": "DISTRACTOR", "trial_index": 9, "num1": [1, 6, 4, 7, 1, 1, 9, 8, 5]}, "uniqueid": "MTK2869:3OONKJ5DKDQQ38G59ZY46DC6YZMBO5", "dateTime": 1519420669731}, {"current_trial": 10, "trialdata": {"rt": -1, "trial_type": "single-stim", "stimulus": "<p id=\"stim\">10</p>", "internal_node_id": "0.0-10.0-0.0", "time_elapsed": 149448, "key_press": -1, "trial_index": 10}, "uniqueid": "MTK2869:3OONKJ5DKDQQ38G59ZY46DC6YZMBO5", "dateTime": 1519420672734}, {"current_trial": 11, "trialdata": {"rt": -1, "trial_type": "single-stim", "stimulus": "<p id=\"stim\">9</p>", "internal_node_id": "0.0-10.0-1.0", "time_elapsed": 150449, "key_press": -1, "trial_index": 11}, "uniqueid": "MTK2869:3OONKJ5DKDQQ38G59ZY46DC6YZMBO5", "dateTime": 1519420673735}, {"current_trial": 12, "trialdata": {"rt": -1, "trial_type": "single-stim", "stimulus": "<p id=\"stim\">8</p>", "internal_node_id": "0.0-10.0-2.0", "time_elapsed": 151450, "key_press": -1, "trial_index": 12}, "uniqueid": "MTK2869:3OONKJ5DKDQQ38G59ZY46DC6YZMBO5", "dateTime": 1519420674736}, {"current_trial": 13, "trialdata": {"rt": -1, "trial_type": "single-stim", "stimulus": "<p id=\"stim\">7</p>", "internal_node_id": "0.0-10.0-3.0", "time_elapsed": 152452, "key_press": -1, "trial_index": 13}, "uniqueid": "MTK2869:3OONKJ5DKDQQ38G59ZY46DC6YZMBO5", "dateTime": 1519420675738}, {"current_trial": 14, "trialdata": {"rt": -1, "trial_type": "single-stim", "stimulus": "<p id=\"stim\">6</p>", "internal_node_id": "0.0-10.0-4.0", "time_elapsed": 153453, "key_press": -1, "trial_index": 14}, "uniqueid": "MTK2869:3OONKJ5DKDQQ38G59ZY46DC6YZMBO5", "dateTime": 1519420676739}, {"current_trial": 15, "trialdata": {"rt": -1, "trial_type": "single-stim", "stimulus": "<p id=\"stim\">5</p>", "internal_node_id": "0.0-10.0-5.0", "time_elapsed": 154454, "key_press": -1, "trial_index": 15}, "uniqueid": "MTK2869:3OONKJ5DKDQQ38G59ZY46DC6YZMBO5", "dateTime": 1519420677740}, {"current_trial": 16, "trialdata": {"rt": -1, "trial_type": "single-stim", "stimulus": "<p id=\"stim\">4</p>", "internal_node_id": "0.0-10.0-6.0", "time_elapsed": 155455, "key_press": -1, "trial_index": 16}, "uniqueid": "MTK2869:3OONKJ5DKDQQ38G59ZY46DC6YZMBO5", "dateTime": 1519420678741}, {"current_trial": 17, "trialdata": {"rt": -1, "trial_type": "single-stim", "stimulus": "<p id=\"stim\">3</p>", "internal_node_id": "0.0-10.0-7.0", "time_elapsed": 156456, "key_press": -1, "trial_index": 17}, "uniqueid": "MTK2869:3OONKJ5DKDQQ38G59ZY46DC6YZMBO5", "dateTime": 1519420679742}, {"current_trial": 18, "trialdata": {"rt": -1, "trial_type": "single-stim", "stimulus": "<p id=\"stim\">2</p>", "internal_node_id": "0.0-10.0-8.0", "time_elapsed": 157457, "key_press": -1, "trial_index": 18}, "uniqueid": "MTK2869:3OONKJ5DKDQQ38G59ZY46DC6YZMBO5", "dateTime": 1519420680743}, {"current_trial": 19, "trialdata": {"rt": -1, "trial_type": "single-stim", "stimulus": "<p id=\"stim\">1</p>", "internal_node_id": "0.0-10.0-9.0", "time_elapsed": 158459, "key_press": -1, "trial_index": 19}, "uniqueid": "MTK2869:3OONKJ5DKDQQ38G59ZY46DC6YZMBO5", "dateTime": 1519420681745}, {"current_trial": 20, "trialdata": {"rt": -1, "trial_type": "single-stim", "stimulus": "<p id=\"stim\">+</p>", "internal_node_id": "0.0-11.0-0.0", "time_elapsed": 159959, "key_press": -1, "type": "FIXATION", "trial_index": 20}, "uniqueid": "MTK2869:3OONKJ5DKDQQ38G59ZY46DC6YZMBO5", "dateTime": 1519420683245}, {"current_trial": 21, "trialdata": {"rt": -1000, "trial_type": "single-audio", "word": "lumber", "stimulus": "/static/audio/wordpool/LUMBER.wav", "conditions": [18, 1200, "a", 18000], "internal_node_id": "0.0-12.0", "trial": 0, "time_elapsed": 162139, "serialpos": 0, "key_press": -1, "wordID": 847, "type": "PRES_AUD", "trial_index": 21}, "uniqueid": "MTK2869:3OONKJ5DKDQQ38G59ZY46DC6YZMBO5", "dateTime": 1519420685426}, {"current_trial": 22, "trialdata": {"rt": -1000, "trial_type": "single-audio", "word": "cyclone", "stimulus": "/static/audio/wordpool/CYCLONE.wav", "conditions": [18, 1200, "a", 18000], "internal_node_id": "0.0-13.0", "trial": 0, "time_elapsed": 164409, "serialpos": 1, "key_press": -1, "wordID": 430, "type": "PRES_AUD", "trial_index": 22}, "uniqueid": "MTK2869:3OONKJ5DKDQQ38G59ZY46DC6YZMBO5", "dateTime": 1519420687695}, {"current_trial": 23, "trialdata": {"rt": -1000, "trial_type": "single-audio", "word": "machine", "stimulus": "/static/audio/wordpool/MACHINE.wav", "conditions": [18, 1200, "a", 18000], "internal_node_id": "0.0-14.0", "trial": 0, "time_elapsed": 166486, "serialpos": 2, "key_press": -1, "wordID": 851, "type": "PRES_AUD", "trial_index": 23}, "uniqueid": "MTK2869:3OONKJ5DKDQQ38G59ZY46DC6YZMBO5", "dateTime": 1519420689772}, {"current_trial": 24, "trialdata": {"rt": -1000, "trial_type": "single-audio", "word": "lake", "stimulus": "/static/audio/wordpool/LAKE.wav", "conditions": [18, 1200, "a", 18000], "internal_node_id": "0.0-15.0", "trial": 0, "time_elapsed": 168570, "serialpos": 3, "key_press": -1, "wordID": 795, "type": "PRES_AUD", "trial_index": 24}, "uniqueid": "MTK2869:3OONKJ5DKDQQ38G59ZY46DC6YZMBO5", "dateTime": 1519420691856}, {"current_trial": 25, "trialdata": {"rt": -1000, "trial_type": "single-audio", "word": "cocktail", "stimulus": "/static/audio/wordpool/COCKTAIL.wav", "conditions": [18, 1200, "a", 18000], "internal_node_id": "0.0-16.0", "trial": 0, "time_elapsed": 170798, "serialpos": 4, "key_press": -1, "wordID": 337, "type": "PRES_AUD", "trial_index": 25}, "uniqueid": "MTK2869:3OONKJ5DKDQQ38G59ZY46DC6YZMBO5", "dateTime": 1519420694084}, {"current_trial": 26, "trialdata": {"rt": -1000, "trial_type": "single-audio", "word": "sparrow", "stimulus": "/static/audio/wordpool/SPARROW.wav", "conditions": [18, 1200, "a", 18000], "internal_node_id": "0.0-17.0", "trial": 0, "time_elapsed": 173069, "serialpos": 5, "key_press": -1, "wordID": 1346, "type": "PRES_AUD", "trial_index": 26}, "uniqueid": "MTK2869:3OONKJ5DKDQQ38G59ZY46DC6YZMBO5", "dateTime": 1519420696355}, {"current_trial": 27, "trialdata": {"rt": -1000, "trial_type": "single-audio", "word": "lava", "stimulus": "/static/audio/wordpool/LAVA.wav", "conditions": [18, 1200, "a", 18000], "internal_node_id": "0.0-18.0", "trial": 0, "time_elapsed": 175218, "serialpos": 6, "key_press": -1, "wordID": 803, "type": "PRES_AUD", "trial_index": 27}, "uniqueid": "MTK2869:3OONKJ5DKDQQ38G59ZY46DC6YZMBO5", "dateTime": 1519420698504}, {"current_trial": 28, "trialdata": {"rt": -1000, "trial_type": "single-audio", "word": "drawing", "stimulus": "/static/audio/wordpool/DRAWING.wav", "conditions": [18, 1200, "a", 18000], "internal_node_id": "0.0-19.0", "trial": 0, "time_elapsed": 177533, "serialpos": 7, "key_press": -1, "wordID": 493, "type": "PRES_AUD", "trial_index": 28}, "uniqueid": "MTK2869:3OONKJ5DKDQQ38G59ZY46DC6YZMBO5", "dateTime": 1519420700819}, {"current_trial": 29, "trialdata": {"rt": -1000, "trial_type": "single-audio", "word": "kleenex", "stimulus": "/static/audio/wordpool/KLEENEX.wav", "conditions": [18, 1200, "a", 18000], "internal_node_id": "0.0-20.0", "trial": 0, "time_elapsed": 179860, "serialpos": 8, "key_press": -1, "wordID": 781, "type": "PRES_AUD", "trial_index": 29}, "uniqueid": "MTK2869:3OONKJ5DKDQQ38G59ZY46DC6YZMBO5", "dateTime": 1519420703147}, {"current_trial": 30, "trialdata": {"rt": -1000, "trial_type": "single-audio", "word": "record", "stimulus": "/static/audio/wordpool/RECORD.wav", "conditions": [18, 1200, "a", 18000], "internal_node_id": "0.0-21.0", "trial": 0, "time_elapsed": 182043, "serialpos": 9, "key_press": -1, "wordID": 1175, "type": "PRES_AUD", "trial_index": 30}, "uniqueid": "MTK2869:3OONKJ5DKDQQ38G59ZY46DC6YZMBO5", "dateTime": 1519420705329}, {"current_trial": 31, "trialdata": {"rt": -1000, "trial_type": "single-audio", "word": "antler", "stimulus": "/static/audio/wordpool/ANTLER.wav", "conditions": [18, 1200, "a", 18000], "internal_node_id": "0.0-22.0", "trial": 0, "time_elapsed": 184289, "serialpos": 10, "key_press": -1, "wordID": 28, "type": "PRES_AUD", "trial_index": 31}, "uniqueid": "MTK2869:3OONKJ5DKDQQ38G59ZY46DC6YZMBO5", "dateTime": 1519420707575}, {"current_trial": 32, "trialdata": {"rt": -1000, "trial_type": "single-audio", "word": "pocket", "stimulus": "/static/audio/wordpool/POCKET.wav", "conditions": [18, 1200, "a", 18000], "internal_node_id": "0.0-23.0", "trial": 0, "time_elapsed": 186346, "serialpos": 11, "key_press": -1, "wordID": 1092, "type": "PRES_AUD", "trial_index": 32}, "uniqueid": "MTK2869:3OONKJ5DKDQQ38G59ZY46DC6YZMBO5", "dateTime": 1519420709632}, {"current_trial": 33, "trialdata": {"rt": -1000, "trial_type": "single-audio", "word": "seafood", "stimulus": "/static/audio/wordpool/SEAFOOD.wav", "conditions": [18, 1200, "a", 18000], "internal_node_id": "0.0-24.0", "trial": 0, "time_elapsed": 188487, "serialpos": 12, "key_press": -1, "wordID": 1259, "type": "PRES_AUD", "trial_index": 33}, "uniqueid": "MTK2869:3OONKJ5DKDQQ38G59ZY46DC6YZMBO5", "dateTime": 1519420711773}, {"current_trial": 34, "trialdata": {"rt": -1000, "trial_type": "single-audio", "word": "france", "stimulus": "/static/audio/wordpool/FRANCE.wav", "conditions": [18, 1200, "a", 18000], "internal_node_id": "0.0-25.0", "trial": 0, "time_elapsed": 190580, "serialpos": 13, "key_press": -1, "wordID": 600, "type": "PRES_AUD", "trial_index": 34}, "uniqueid": "MTK2869:3OONKJ5DKDQQ38G59ZY46DC6YZMBO5", "dateTime": 1519420713866}, {"current_trial": 35, "trialdata": {"rt": -1000, "trial_type": "single-audio", "word": "rebel", "stimulus": "/static/audio/wordpool/REBEL.wav", "conditions": [18, 1200, "a", 18000], "internal_node_id": "0.0-26.0", "trial": 0, "time_elapsed": 192843, "serialpos": 14, "key_press": -1, "wordID": 1171, "type": "PRES_AUD", "trial_index": 35}, "uniqueid": "MTK2869:3OONKJ5DKDQQ38G59ZY46DC6YZMBO5", "dateTime": 1519420716129}, {"current_trial": 36, "trialdata": {"rt": -1000, "trial_type": "single-audio", "word": "bug", "stimulus": "/static/audio/wordpool/BUG.wav", "conditions": [18, 1200, "a", 18000], "internal_node_id": "0.0-27.0", "trial": 0, "time_elapsed": 195222, "serialpos": 15, "key_press": -1, "wordID": 186, "type": "PRES_AUD", "trial_index": 36}, "uniqueid": "MTK2869:3OONKJ5DKDQQ38G59ZY46DC6YZMBO5", "dateTime": 1519420718508}, {"current_trial": 37, "trialdata": {"rt": -1000, "trial_type": "single-audio", "word": "brook", "stimulus": "/static/audio/wordpool/BROOK.wav", "conditions": [18, 1200, "a", 18000], "internal_node_id": "0.0-28.0", "trial": 0, "time_elapsed": 197462, "serialpos": 16, "key_press": -1, "wordID": 176, "type": "PRES_AUD", "trial_index": 37}, "uniqueid": "MTK2869:3OONKJ5DKDQQ38G59ZY46DC6YZMBO5", "dateTime": 1519420720748}, {"current_trial": 38, "trialdata": {"rt": -1000, "trial_type": "single-audio", "word": "chest", "stimulus": "/static/audio/wordpool/CHEST.wav", "conditions": [18, 1200, "a", 18000], "internal_node_id": "0.0-29.0", "trial": 0, "time_elapsed": 199746, "serialpos": 17, "key_press": -1, "wordID": 294, "type": "PRES_AUD", "trial_index": 38}, "uniqueid": "MTK2869:3OONKJ5DKDQQ38G59ZY46DC6YZMBO5", "dateTime": 1519420723032}, {"current_trial": 39, "trialdata": {"rt": -1, "trial_type": "single-stim", "stimulus": "", "internal_node_id": "0.0-30.0-0.0", "time_elapsed": 200991, "key_press": -1, "type": "PRE_RECALL_DELAY", "trial_index": 39}, "uniqueid": "MTK2869:3OONKJ5DKDQQ38G59ZY46DC6YZMBO5", "dateTime": 1519420724277}, {"current_trial": 40, "trialdata": {"rt": -1000, "trial_type": "single-audio", "stimulus": "/static/audio/400Hz.wav", "internal_node_id": "0.0-31.0", "time_elapsed": 201495, "key_press": -1, "type": "PRE_RECALL_ALERT", "trial_index": 40}, "uniqueid": "MTK2869:3OONKJ5DKDQQ38G59ZY46DC6YZMBO5", "dateTime": 1519420724781}, {"current_trial": 41, "trialdata": {"rt": [3343, 4866, 7601, 9201, 10606, 20650, 29547, 46418], "recwords": ["lumber", "lava", "seafood", "drawing", "chest", "cyclone", "elbow", ""], "key_times": [1601, 1779, 2086, 2274, 2522, 2600, 3343, 4134, 4224, 4352, 4569, 4866, 5193, 5362, 5471, 5707, 5857, 6005, 6104, 7601, 8093, 8231, 8321, 8489, 8591, 8697, 8786, 9201, 9518, 9597, 9795, 9993, 10142, 10606, 19483, 19621, 19770, 19879, 20067, 20166, 20285, 20650, 28646, 28765, 29002, 29141, 29280, 29547, 46418], "trial_type": "free-recall", "conditions": [18, 1200, "a", 18000], "internal_node_id": "0.0-32.0-0.0", "key_presses": [76, 85, 77, 66, 69, 82, 32, 76, 65, 86, 65, 13, 83, 69, 65, 70, 79, 79, 68, 13, 68, 82, 65, 87, 73, 78, 71, 13, 67, 72, 69, 83, 84, 13, 67, 89, 67, 76, 79, 78, 69, 13, 69, 76, 66, 79, 87, 13, 13], "trial": 0, "time_elapsed": 261503, "type": "FREE_RECALL", "trial_index": 41}, "uniqueid": "MTK2869:3OONKJ5DKDQQ38G59ZY46DC6YZMBO5", "dateTime": 1519420784791}, {"current_trial": 42, "trialdata": {"rt": 1756, "trial_type": "text", "internal_node_id": "0.0-33.0", "time_elapsed": 265263, "key_press": 32, "type": "INSTRUCTIONS", "trial_index": 42}, "uniqueid": "MTK2869:3OONKJ5DKDQQ38G59ZY46DC6YZMBO5", "dateTime": 1519420788550}, {"current_trial": 43, "trialdata": {"rt": [1856, 4408, 6922, 8515, 10464, 12078, 13978, 16134], "trial_type": "math-distractor", "key_times": [1450, 1856, 4023, 4161, 4408, 6536, 6734, 6922, 8218, 8515, 10049, 10237, 10464, 11721, 11899, 12078, 13493, 13759, 13978, 15540, 15887, 16134, 17866], "responses": ["9", "10", "21", "9", "14", "11", "17", "13"], "num2": [6, 6, 5, 7, 2, 1, 3, 2, 3], "num3": [2, 3, 8, 1, 5, 8, 6, 5, 9], "conditions": [18, 1200, "a", 18000], "internal_node_id": "0.0-34.0", "key_presses": [105, 13, 97, 96, 13, 98, 97, 13, 105, 13, 97, 100, 13, 97, 97, 13, 97, 103, 13, 97, 99, 13, 97], "trial": 1, "time_elapsed": 285267, "type": "DISTRACTOR", "trial_index": 43, "num1": [1, 1, 8, 1, 7, 2, 8, 6, 4]}, "uniqueid": "MTK2869:3OONKJ5DKDQQ38G59ZY46DC6YZMBO5", "dateTime": 1519420808553}, {"current_trial": 44, "trialdata": {"rt": -1, "trial_type": "single-stim", "stimulus": "<p id=\"stim\">10</p>", "internal_node_id": "0.0-35.0-0.0", "time_elapsed": 288270, "key_press": -1, "trial_index": 44}, "uniqueid": "MTK2869:3OONKJ5DKDQQ38G59ZY46DC6YZMBO5", "dateTime": 1519420811556}, {"current_trial": 45, "trialdata": {"rt": -1, "trial_type": "single-stim", "stimulus": "<p id=\"stim\">9</p>", "internal_node_id": "0.0-35.0-1.0", "time_elapsed": 289271, "key_press": -1, "trial_index": 45}, "uniqueid": "MTK2869:3OONKJ5DKDQQ38G59ZY46DC6YZMBO5", "dateTime": 1519420812557}, {"current_trial": 46, "trialdata": {"rt": -1, "trial_type": "single-stim", "stimulus": "<p id=\"stim\">8</p>", "internal_node_id": "0.0-35.0-2.0", "time_elapsed": 290272, "key_press": -1, "trial_index": 46}, "uniqueid": "MTK2869:3OONKJ5DKDQQ38G59ZY46DC6YZMBO5", "dateTime": 1519420813558}, {"current_trial": 47, "trialdata": {"rt": -1, "trial_type": "single-stim", "stimulus": "<p id=\"stim\">7</p>", "internal_node_id": "0.0-35.0-3.0", "time_elapsed": 291273, "key_press": -1, "trial_index": 47}, "uniqueid": "MTK2869:3OONKJ5DKDQQ38G59ZY46DC6YZMBO5", "dateTime": 1519420814559}, {"current_trial": 48, "trialdata": {"rt": -1, "trial_type": "single-stim", "stimulus": "<p id=\"stim\">6</p>", "internal_node_id": "0.0-35.0-4.0", "time_elapsed": 292274, "key_press": -1, "trial_index": 48}, "uniqueid": "MTK2869:3OONKJ5DKDQQ38G59ZY46DC6YZMBO5", "dateTime": 1519420815560}, {"current_trial": 49, "trialdata": {"rt": -1, "trial_type": "single-stim", "stimulus": "<p id=\"stim\">5</p>", "internal_node_id": "0.0-35.0-5.0", "time_elapsed": 293275, "key_press": -1, "trial_index": 49}, "uniqueid": "MTK2869:3OONKJ5DKDQQ38G59ZY46DC6YZMBO5", "dateTime": 1519420816562}, {"current_trial": 50, "trialdata": {"rt": -1, "trial_type": "single-stim", "stimulus": "<p id=\"stim\">4</p>", "internal_node_id": "0.0-35.0-6.0", "time_elapsed": 294276, "key_press": -1, "trial_index": 50}, "uniqueid": "MTK2869:3OONKJ5DKDQQ38G59ZY46DC6YZMBO5", "dateTime": 1519420817562}, {"current_trial": 51, "trialdata": {"rt": -1, "trial_type": "single-stim", "stimulus": "<p id=\"stim\">3</p>", "internal_node_id": "0.0-35.0-7.0", "time_elapsed": 295278, "key_press": -1, "trial_index": 51}, "uniqueid": "MTK2869:3OONKJ5DKDQQ38G59ZY46DC6YZMBO5", "dateTime": 1519420818564}, {"current_trial": 52, "trialdata": {"rt": -1, "trial_type": "single-stim", "stimulus": "<p id=\"stim\">2</p>", "internal_node_id": "0.0-35.0-8.0", "time_elapsed": 296278, "key_press": -1, "trial_index": 52}, "uniqueid": "MTK2869:3OONKJ5DKDQQ38G59ZY46DC6YZMBO5", "dateTime": 1519420819565}, {"current_trial": 53, "trialdata": {"rt": -1, "trial_type": "single-stim", "stimulus": "<p id=\"stim\">1</p>", "internal_node_id": "0.0-35.0-9.0", "time_elapsed": 297280, "key_press": -1, "trial_index": 53}, "uniqueid": "MTK2869:3OONKJ5DKDQQ38G59ZY46DC6YZMBO5", "dateTime": 1519420820566}, {"current_trial": 54, "trialdata": {"rt": -1, "trial_type": "single-stim", "stimulus": "<p id=\"stim\">+</p>", "internal_node_id": "0.0-36.0-0.0", "time_elapsed": 298780, "key_press": -1, "type": "FIXATION", "trial_index": 54}, "uniqueid": "MTK2869:3OONKJ5DKDQQ38G59ZY46DC6YZMBO5", "dateTime": 1519420822066}, {"current_trial": 55, "trialdata": {"rt": -1000, "trial_type": "single-audio", "word": "robot", "stimulus": "/static/audio/wordpool/ROBOT.wav", "conditions": [18, 1200, "a", 18000], "internal_node_id": "0.0-37.0", "trial": 1, "time_elapsed": 301163, "serialpos": 0, "key_press": -1, "wordID": 1199, "type": "PRES_AUD", "trial_index": 55}, "uniqueid": "MTK2869:3OONKJ5DKDQQ38G59ZY46DC6YZMBO5", "dateTime": 1519420824450}, {"current_trial": 56, "trialdata": {"rt": -1000, "trial_type": "single-audio", "word": "custard", "stimulus": "/static/audio/wordpool/CUSTARD.wav", "conditions": [18, 1200, "a", 18000], "internal_node_id": "0.0-38.0", "trial": 1, "time_elapsed": 303541, "serialpos": 1, "key_press": -1, "wordID": 428, "type": "PRES_AUD", "trial_index": 56}, "uniqueid": "MTK2869:3OONKJ5DKDQQ38G59ZY46DC6YZMBO5", "dateTime": 1519420826827}, {"current_trial": 57, "trialdata": {"rt": -1000, "trial_type": "single-audio", "word": "fox", "stimulus": "/static/audio/wordpool/FOX.wav", "conditions": [18, 1200, "a", 18000], "internal_node_id": "0.0-39.0", "trial": 1, "time_elapsed": 305929, "serialpos": 2, "key_press": -1, "wordID": 597, "type": "PRES_AUD", "trial_index": 57}, "uniqueid": "MTK2869:3OONKJ5DKDQQ38G59ZY46DC6YZMBO5", "dateTime": 1519420829216}, {"current_trial": 58, "trialdata": {"rt": -1000, "trial_type": "single-audio", "word": "europe", "stimulus": "/static/audio/wordpool/EUROPE.wav", "conditions": [18, 1200, "a", 18000], "internal_node_id": "0.0-40.0", "trial": 1, "time_elapsed": 308050, "serialpos": 3, "key_press": -1, "wordID": 540, "type": "PRES_AUD", "trial_index": 58}, "uniqueid": "MTK2869:3OONKJ5DKDQQ38G59ZY46DC6YZMBO5", "dateTime": 1519420831336}, {"current_trial": 59, "trialdata": {"rt": -1000, "trial_type": "single-audio", "word": "office", "stimulus": "/static/audio/wordpool/OFFICE.wav", "conditions": [18, 1200, "a", 18000], "internal_node_id": "0.0-41.0", "trial": 1, "time_elapsed": 310251, "serialpos": 4, "key_press": -1, "wordID": 971, "type": "PRES_AUD", "trial_index": 59}, "uniqueid": "MTK2869:3OONKJ5DKDQQ38G59ZY46DC6YZMBO5", "dateTime": 1519420833537}, {"current_trial": 60, "trialdata": {"rt": -1000, "trial_type": "single-audio", "word": "scarecrow", "stimulus": "/static/audio/wordpool/SCARECROW.wav", "conditions": [18, 1200, "a", 18000], "internal_node_id": "0.0-42.0", "trial": 1, "time_elapsed": 312295, "serialpos": 5, "key_press": -1, "wordID": 1244, "type": "PRES_AUD", "trial_index": 60}, "uniqueid": "MTK2869:3OONKJ5DKDQQ38G59ZY46DC6YZMBO5", "dateTime": 1519420835582}, {"current_trial": 61, "trialdata": {"rt": -1000, "trial_type": "single-audio", "word": "valve", "stimulus": "/static/audio/wordpool/VALVE.wav", "conditions": [18, 1200, "a", 18000], "internal_node_id": "0.0-43.0", "trial": 1, "time_elapsed": 314539, "serialpos": 6, "key_press": -1, "wordID": 1545, "type": "PRES_AUD", "trial_index": 61}, "uniqueid": "MTK2869:3OONKJ5DKDQQ38G59ZY46DC6YZMBO5", "dateTime": 1519420837825}, {"current_trial": 62, "trialdata": {"rt": -1000, "trial_type": "single-audio", "word": "bathtub", "stimulus": "/static/audio/wordpool/BATHTUB.wav", "conditions": [18, 1200, "a", 18000], "internal_node_id": "0.0-44.0", "trial": 1, "time_elapsed": 316621, "serialpos": 7, "key_press": -1, "wordID": 99, "type": "PRES_AUD", "trial_index": 62}, "uniqueid": "MTK2869:3OONKJ5DKDQQ38G59ZY46DC6YZMBO5", "dateTime": 1519420839907}, {"current_trial": 63, "trialdata": {"rt": -1000, "trial_type": "single-audio", "word": "compass", "stimulus": "/static/audio/wordpool/COMPASS.wav", "conditions": [18, 1200, "a", 18000], "internal_node_id": "0.0-45.0", "trial": 1, "time_elapsed": 318673, "serialpos": 8, "key_press": -1, "wordID": 357, "type": "PRES_AUD", "trial_index": 63}, "uniqueid": "MTK2869:3OONKJ5DKDQQ38G59ZY46DC6YZMBO5", "dateTime": 1519420841959}, {"current_trial": 64, "trialdata": {"rt": -1000, "trial_type": "single-audio", "word": "daughter", "stimulus": "/static/audio/wordpool/DAUGHTER.wav", "conditions": [18, 1200, "a", 18000], "internal_node_id": "0.0-46.0", "trial": 1, "time_elapsed": 321064, "serialpos": 9, "key_press": -1, "wordID": 441, "type": "PRES_AUD", "trial_index": 64}, "uniqueid": "MTK2869:3OONKJ5DKDQQ38G59ZY46DC6YZMBO5", "dateTime": 1519420844350}, {"current_trial": 65, "trialdata": {"rt": -1000, "trial_type": "single-audio", "word": "robin", "stimulus": "/static/audio/wordpool/ROBIN.wav", "conditions": [18, 1200, "a", 18000], "internal_node_id": "0.0-47.0", "trial": 1, "time_elapsed": 323448, "serialpos": 10, "key_press": -1, "wordID": 1198, "type": "PRES_AUD", "trial_index": 65}, "uniqueid": "MTK2869:3OONKJ5DKDQQ38G59ZY46DC6YZMBO5", "dateTime": 1519420846734}, {"current_trial": 66, "trialdata": {"rt": -1000, "trial_type": "single-audio", "word": "tombstone", "stimulus": "/static/audio/wordpool/TOMBSTONE.wav", "conditions": [18, 1200, "a", 18000], "internal_node_id": "0.0-48.0", "trial": 1, "time_elapsed": 325849, "serialpos": 11, "key_press": -1, "wordID": 1477, "type": "PRES_AUD", "trial_index": 66}, "uniqueid": "MTK2869:3OONKJ5DKDQQ38G59ZY46DC6YZMBO5", "dateTime": 1519420849135}, {"current_trial": 67, "trialdata": {"rt": -1000, "trial_type": "single-audio", "word": "shelter", "stimulus": "/static/audio/wordpool/SHELTER.wav", "conditions": [18, 1200, "a", 18000], "internal_node_id": "0.0-49.0", "trial": 1, "time_elapsed": 328101, "serialpos": 12, "key_press": -1, "wordID": 1281, "type": "PRES_AUD", "trial_index": 67}, "uniqueid": "MTK2869:3OONKJ5DKDQQ38G59ZY46DC6YZMBO5", "dateTime": 1519420851387}, {"current_trial": 68, "trialdata": {"rt": -1000, "trial_type": "single-audio", "word": "missile", "stimulus": "/static/audio/wordpool/MISSILE.wav", "conditions": [18, 1200, "a", 18000], "internal_node_id": "0.0-50.0", "trial": 1, "time_elapsed": 330447, "serialpos": 13, "key_press": -1, "wordID": 899, "type": "PRES_AUD", "trial_index": 68}, "uniqueid": "MTK2869:3OONKJ5DKDQQ38G59ZY46DC6YZMBO5", "dateTime": 1519420853733}, {"current_trial": 69, "trialdata": {"rt": -1000, "trial_type": "single-audio", "word": "mars", "stimulus": "/static/audio/wordpool/MARS.wav", "conditions": [18, 1200, "a", 18000], "internal_node_id": "0.0-51.0", "trial": 1, "time_elapsed": 332516, "serialpos": 14, "key_press": -1, "wordID": 872, "type": "PRES_AUD", "trial_index": 69}, "uniqueid": "MTK2869:3OONKJ5DKDQQ38G59ZY46DC6YZMBO5", "dateTime": 1519420855802}, {"current_trial": 70, "trialdata": {"rt": -1000, "trial_type": "single-audio", "word": "breast", "stimulus": "/static/audio/wordpool/BREAST.wav", "conditions": [18, 1200, "a", 18000], "internal_node_id": "0.0-52.0", "trial": 1, "time_elapsed": 334677, "serialpos": 15, "key_press": -1, "wordID": 170, "type": "PRES_AUD", "trial_index": 70}, "uniqueid": "MTK2869:3OONKJ5DKDQQ38G59ZY46DC6YZMBO5", "dateTime": 1519420857963}, {"current_trial": 71, "trialdata": {"rt": -1000, "trial_type": "single-audio", "word": "frame", "stimulus": "/static/audio/wordpool/FRAME.wav", "conditions": [18, 1200, "a", 18000], "internal_node_id": "0.0-53.0", "trial": 1, "time_elapsed": 336772, "serialpos": 16, "key_press": -1, "wordID": 599, "type": "PRES_AUD", "trial_index": 71}, "uniqueid": "MTK2869:3OONKJ5DKDQQ38G59ZY46DC6YZMBO5", "dateTime": 1519420860058}, {"current_trial": 72, "trialdata": {"rt": -1000, "trial_type": "single-audio", "word": "treat", "stimulus": "/static/audio/wordpool/TREAT.wav", "conditions": [18, 1200, "a", 18000], "internal_node_id": "0.0-54.0", "trial": 1, "time_elapsed": 338974, "serialpos": 17, "key_press": -1, "wordID": 1500, "type": "PRES_AUD", "trial_index": 72}, "uniqueid": "MTK2869:3OONKJ5DKDQQ38G59ZY46DC6YZMBO5", "dateTime": 1519420862260}, {"current_trial": 73, "trialdata": {"rt": -1, "trial_type": "single-stim", "stimulus": "", "internal_node_id": "0.0-55.0-0.0", "time_elapsed": 340259, "key_press": -1, "type": "PRE_RECALL_DELAY", "trial_index": 73}, "uniqueid": "MTK2869:3OONKJ5DKDQQ38G59ZY46DC6YZMBO5", "dateTime": 1519420863545}, {"current_trial": 74, "trialdata": {"rt": -1000, "trial_type": "single-audio", "stimulus": "/static/audio/400Hz.wav", "internal_node_id": "0.0-56.0", "time_elapsed": 340764, "key_press": -1, "type": "PRE_RECALL_ALERT", "trial_index": 74}, "uniqueid": "MTK2869:3OONKJ5DKDQQ38G59ZY46DC6YZMBO5", "dateTime": 1519420864050}, {"current_trial": 75, "trialdata": {"rt": [2380, 4963, 6814, 8447, 10119, 11326, 13434, 16779], "recwords": ["treat", "daughter", "europe", "robot", "custard", "breast", "fox", "frame"], "key_times": [930, 1588, 1697, 1856, 2015, 2380, 2677, 2756, 2895, 3023, 3134, 3271, 3321, 3924, 4073, 4192, 4330, 4429, 4963, 5517, 5675, 5804, 6111, 6270, 6428, 6814, 7763, 7872, 7992, 8149, 8229, 8447, 8714, 8783, 8931, 9021, 9307, 9654, 9835, 10119, 10436, 10624, 10693, 10812, 10941, 11079, 11326, 12879, 12998, 13127, 13434, 16115, 16264, 16363, 16452, 16560, 16779], "trial_type": "free-recall", "conditions": [18, 1200, "a", 18000], "internal_node_id": "0.0-57.0-0.0", "key_presses": [84, 82, 69, 65, 84, 13, 68, 65, 85, 71, 72, 69, 84, 8, 8, 84, 69, 82, 13, 69, 85, 82, 79, 80, 69, 13, 82, 79, 66, 79, 84, 13, 67, 85, 83, 84, 65, 82, 68, 13, 66, 82, 69, 65, 83, 84, 13, 70, 79, 88, 13, 70, 82, 65, 77, 69, 13], "trial": 1, "time_elapsed": 400770, "type": "FREE_RECALL", "trial_index": 75}, "uniqueid": "MTK2869:3OONKJ5DKDQQ38G59ZY46DC6YZMBO5", "dateTime": 1519420924058}, {"current_trial": 76, "trialdata": {"rt": 2354, "trial_type": "text", "internal_node_id": "0.0-58.0", "time_elapsed": 405127, "key_press": 32, "type": "INSTRUCTIONS", "trial_index": 76}, "uniqueid": "MTK2869:3OONKJ5DKDQQ38G59ZY46DC6YZMBO5", "dateTime": 1519420928414}, {"current_trial": 77, "trialdata": {"rt": [2104, 3439, 5468, 7892, 9189, 11049, 12513, 14403, 16887, 18955, 20944, 22615], "trial_type": "math-distractor", "key_times": [1638, 1770, 2104, 3004, 3135, 3439, 5013, 5181, 5468, 7467, 7588, 7892, 8961, 9189, 10712, 10804, 11049, 12167, 12355, 12513, 13988, 14186, 14403, 16461, 16630, 16887, 18579, 18670, 18955, 20597, 20676, 20944, 22259, 22457, 22615], "responses": ["18", "12", "16", "18", "8", "12", "14", "18", "16", "12", "19", "24"], "num2": [3, 2, 8, 7, 1, 1, 8, 3, 3, 6, 8, 7, 4], "num3": [9, 5, 3, 6, 6, 3, 5, 9, 8, 4, 9, 9, 5], "conditions": [12, 800, "a", 24000], "internal_node_id": "0.0-59.0", "key_presses": [97, 104, 13, 97, 98, 13, 97, 102, 13, 97, 104, 13, 104, 13, 97, 98, 13, 97, 100, 13, 97, 104, 13, 97, 102, 13, 97, 98, 13, 97, 105, 13, 98, 100, 13], "trial": 2, "time_elapsed": 430131, "type": "DISTRACTOR", "trial_index": 77, "num1": [6, 5, 5, 5, 1, 8, 1, 6, 5, 2, 2, 8, 2]}, "uniqueid": "MTK2869:3OONKJ5DKDQQ38G59ZY46DC6YZMBO5", "dateTime": 1519420953418}, {"current_trial": 78, "trialdata": {"rt": -1, "trial_type": "single-stim", "stimulus": "<p id=\"stim\">10</p>", "internal_node_id": "0.0-60.0-0.0", "time_elapsed": 433134, "key_press": -1, "trial_index": 78}, "uniqueid": "MTK2869:3OONKJ5DKDQQ38G59ZY46DC6YZMBO5", "dateTime": 1519420956420}, {"current_trial": 79, "trialdata": {"rt": -1, "trial_type": "single-stim", "stimulus": "<p id=\"stim\">9</p>", "internal_node_id": "0.0-60.0-1.0", "time_elapsed": 434135, "key_press": -1, "trial_index": 79}, "uniqueid": "MTK2869:3OONKJ5DKDQQ38G59ZY46DC6YZMBO5", "dateTime": 1519420957422}, {"current_trial": 80, "trialdata": {"rt": -1, "trial_type": "single-stim", "stimulus": "<p id=\"stim\">8</p>", "internal_node_id": "0.0-60.0-2.0", "time_elapsed": 435139, "key_press": -1, "trial_index": 80}, "uniqueid": "MTK2869:3OONKJ5DKDQQ38G59ZY46DC6YZMBO5", "dateTime": 1519420958425}, {"current_trial": 81, "trialdata": {"rt": -1, "trial_type": "single-stim", "stimulus": "<p id=\"stim\">7</p>", "internal_node_id": "0.0-60.0-3.0", "time_elapsed": 436140, "key_press": -1, "trial_index": 81}, "uniqueid": "MTK2869:3OONKJ5DKDQQ38G59ZY46DC6YZMBO5", "dateTime": 1519420959426}, {"current_trial": 82, "trialdata": {"rt": -1, "trial_type": "single-stim", "stimulus": "<p id=\"stim\">6</p>", "internal_node_id": "0.0-60.0-4.0", "time_elapsed": 437141, "key_press": -1, "trial_index": 82}, "uniqueid": "MTK2869:3OONKJ5DKDQQ38G59ZY46DC6YZMBO5", "dateTime": 1519420960428}, {"current_trial": 83, "trialdata": {"rt": -1, "trial_type": "single-stim", "stimulus": "<p id=\"stim\">5</p>", "internal_node_id": "0.0-60.0-5.0", "time_elapsed": 438143, "key_press": -1, "trial_index": 83}, "uniqueid": "MTK2869:3OONKJ5DKDQQ38G59ZY46DC6YZMBO5", "dateTime": 1519420961429}, {"current_trial": 84, "trialdata": {"rt": -1, "trial_type": "single-stim", "stimulus": "<p id=\"stim\">4</p>", "internal_node_id": "0.0-60.0-6.0", "time_elapsed": 439143, "key_press": -1, "trial_index": 84}, "uniqueid": "MTK2869:3OONKJ5DKDQQ38G59ZY46DC6YZMBO5", "dateTime": 1519420962429}, {"current_trial": 85, "trialdata": {"rt": -1, "trial_type": "single-stim", "stimulus": "<p id=\"stim\">3</p>", "internal_node_id": "0.0-60.0-7.0", "time_elapsed": 440144, "key_press": -1, "trial_index": 85}, "uniqueid": "MTK2869:3OONKJ5DKDQQ38G59ZY46DC6YZMBO5", "dateTime": 1519420963430}, {"current_trial": 86, "trialdata": {"rt": -1, "trial_type": "single-stim", "stimulus": "<p id=\"stim\">2</p>", "internal_node_id": "0.0-60.0-8.0", "time_elapsed": 441145, "key_press": -1, "trial_index": 86}, "uniqueid": "MTK2869:3OONKJ5DKDQQ38G59ZY46DC6YZMBO5", "dateTime": 1519420964432}, {"current_trial": 87, "trialdata": {"rt": -1, "trial_type": "single-stim", "stimulus": "<p id=\"stim\">1</p>", "internal_node_id": "0.0-60.0-9.0", "time_elapsed": 442146, "key_press": -1, "trial_index": 87}, "uniqueid": "MTK2869:3OONKJ5DKDQQ38G59ZY46DC6YZMBO5", "dateTime": 1519420965432}, {"current_trial": 88, "trialdata": {"rt": -1, "trial_type": "single-stim", "stimulus": "<p id=\"stim\">+</p>", "internal_node_id": "0.0-61.0-0.0", "time_elapsed": 443648, "key_press": -1, "type": "FIXATION", "trial_index": 88}, "uniqueid": "MTK2869:3OONKJ5DKDQQ38G59ZY46DC6YZMBO5", "dateTime": 1519420966934}, {"current_trial": 89, "trialdata": {"rt": -1000, "trial_type": "single-audio", "word": "flower", "stimulus": "/static/audio/wordpool/FLOWER.wav", "conditions": [12, 800, "a", 24000], "internal_node_id": "0.0-62.0", "trial": 2, "time_elapsed": 445322, "serialpos": 0, "key_press": -1, "wordID": 583, "type": "PRES_AUD", "trial_index": 89}, "uniqueid": "MTK2869:3OONKJ5DKDQQ38G59ZY46DC6YZMBO5", "dateTime": 1519420968608}, {"current_trial": 90, "trialdata": {"rt": -1000, "trial_type": "single-audio", "word": "crutch", "stimulus": "/static/audio/wordpool/CRUTCH.wav", "conditions": [12, 800, "a", 24000], "internal_node_id": "0.0-63.0", "trial": 2, "time_elapsed": 447299, "serialpos": 1, "key_press": -1, "wordID": 416, "type": "PRES_AUD", "trial_index": 90}, "uniqueid": "MTK2869:3OONKJ5DKDQQ38G59ZY46DC6YZMBO5", "dateTime": 1519420970585}, {"current_trial": 91, "trialdata": {"rt": -1000, "trial_type": "single-audio", "word": "liver", "stimulus": "/static/audio/wordpool/LIVER.wav", "conditions": [12, 800, "a", 24000], "internal_node_id": "0.0-64.0", "trial": 2, "time_elapsed": 449197, "serialpos": 2, "key_press": -1, "wordID": 832, "type": "PRES_AUD", "trial_index": 91}, "uniqueid": "MTK2869:3OONKJ5DKDQQ38G59ZY46DC6YZMBO5", "dateTime": 1519420972483}, {"current_trial": 92, "trialdata": {"rt": -1000, "trial_type": "single-audio", "word": "victim", "stimulus": "/static/audio/wordpool/VICTIM.wav", "conditions": [12, 800, "a", 24000], "internal_node_id": "0.0-65.0", "trial": 2, "time_elapsed": 450966, "serialpos": 3, "key_press": -1, "wordID": 1561, "type": "PRES_AUD", "trial_index": 92}, "uniqueid": "MTK2869:3OONKJ5DKDQQ38G59ZY46DC6YZMBO5", "dateTime": 1519420974252}, {"current_trial": 93, "trialdata": {"rt": -1000, "trial_type": "single-audio", "word": "costume", "stimulus": "/static/audio/wordpool/COSTUME.wav", "conditions": [12, 800, "a", 24000], "internal_node_id": "0.0-66.0", "trial": 2, "time_elapsed": 452832, "serialpos": 4, "key_press": -1, "wordID": 382, "type": "PRES_AUD", "trial_index": 93}, "uniqueid": "MTK2869:3OONKJ5DKDQQ38G59ZY46DC6YZMBO5", "dateTime": 1519420976118}, {"current_trial": 94, "trialdata": {"rt": -1000, "trial_type": "single-audio", "word": "inmate", "stimulus": "/static/audio/wordpool/INMATE.wav", "conditions": [12, 800, "a", 24000], "internal_node_id": "0.0-67.0", "trial": 2, "time_elapsed": 454597, "serialpos": 5, "key_press": -1, "wordID": 737, "type": "PRES_AUD", "trial_index": 94}, "uniqueid": "MTK2869:3OONKJ5DKDQQ38G59ZY46DC6YZMBO5", "dateTime": 1519420977883}, {"current_trial": 95, "trialdata": {"rt": -1000, "trial_type": "single-audio", "word": "badge", "stimulus": "/static/audio/wordpool/BADGE.wav", "conditions": [12, 800, "a", 24000], "internal_node_id": "0.0-68.0", "trial": 2, "time_elapsed": 456492, "serialpos": 6, "key_press": -1, "wordID": 67, "type": "PRES_AUD", "trial_index": 95}, "uniqueid": "MTK2869:3OONKJ5DKDQQ38G59ZY46DC6YZMBO5", "dateTime": 1519420979778}, {"current_trial": 96, "trialdata": {"rt": -1000, "trial_type": "single-audio", "word": "sticker", "stimulus": "/static/audio/wordpool/STICKER.wav", "conditions": [12, 800, "a", 24000], "internal_node_id": "0.0-69.0", "trial": 2, "time_elapsed": 458213, "serialpos": 7, "key_press": -1, "wordID": 1381, "type": "PRES_AUD", "trial_index": 96}, "uniqueid": "MTK2869:3OONKJ5DKDQQ38G59ZY46DC6YZMBO5", "dateTime": 1519420981499}, {"current_trial": 97, "trialdata": {"rt": -1000, "trial_type": "single-audio", "word": "marrow", "stimulus": "/static/audio/wordpool/MARROW.wav", "conditions": [12, 800, "a", 24000], "internal_node_id": "0.0-70.0", "trial": 2, "time_elapsed": 459854, "serialpos": 8, "key_press": -1, "wordID": 871, "type": "PRES_AUD", "trial_index": 97}, "uniqueid": "MTK2869:3OONKJ5DKDQQ38G59ZY46DC6YZMBO5", "dateTime": 1519420983141}, {"current_trial": 98, "trialdata": {"rt": -1000, "trial_type": "single-audio", "word": "leg", "stimulus": "/static/audio/wordpool/LEG.wav", "conditions": [12, 800, "a", 24000], "internal_node_id": "0.0-71.0", "trial": 2, "time_elapsed": 461696, "serialpos": 9, "key_press": -1, "wordID": 808, "type": "PRES_AUD", "trial_index": 98}, "uniqueid": "MTK2869:3OONKJ5DKDQQ38G59ZY46DC6YZMBO5", "dateTime": 1519420984983}, {"current_trial": 99, "trialdata": {"rt": -1000, "trial_type": "single-audio", "word": "teacher", "stimulus": "/static/audio/wordpool/TEACHER.wav", "conditions": [12, 800, "a", 24000], "internal_node_id": "0.0-72.0", "trial": 2, "time_elapsed": 463629, "serialpos": 10, "key_press": -1, "wordID": 1439, "type": "PRES_AUD", "trial_index": 99}, "uniqueid": "MTK2869:3OONKJ5DKDQQ38G59ZY46DC6YZMBO5", "dateTime": 1519420986915}, {"current_trial": 100, "trialdata": {"rt": -1000, "trial_type": "single-audio", "word": "poet", "stimulus": "/static/audio/wordpool/POET.wav", "conditions": [12, 800, "a", 24000], "internal_node_id": "0.0-73.0", "trial": 2, "time_elapsed": 465480, "serialpos": 11, "key_press": -1, "wordID": 1094, "type": "PRES_AUD", "trial_index": 100}, "uniqueid": "MTK2869:3OONKJ5DKDQQ38G59ZY46DC6YZMBO5", "dateTime": 1519420988766}, {"current_trial": 101, "trialdata": {"rt": -1, "trial_type": "single-stim", "stimulus": "", "internal_node_id": "0.0-74.0-0.0", "time_elapsed": 466830, "key_press": -1, "type": "PRE_RECALL_DELAY", "trial_index": 101}, "uniqueid": "MTK2869:3OONKJ5DKDQQ38G59ZY46DC6YZMBO5", "dateTime": 1519420990116}, {"current_trial": 102, "trialdata": {"rt": -1000, "trial_type": "single-audio", "stimulus": "/static/audio/400Hz.wav", "internal_node_id": "0.0-75.0", "time_elapsed": 467333, "key_press": -1, "type": "PRE_RECALL_ALERT", "trial_index": 102}, "uniqueid": "MTK2869:3OONKJ5DKDQQ38G59ZY46DC6YZMBO5", "dateTime": 1519420990619}, {"current_trial": 103, "trialdata": {"rt": [1556, 2743, 4515, 6415, 9809, 14925], "recwords": ["poet", "teacher", "badge", "costume", "sticker", "poet"], "key_times": [814, 1051, 1160, 1298, 1556, 1823, 1922, 2061, 2209, 2288, 2446, 2536, 2743, 3149, 3337, 3387, 3941, 4120, 4515, 5336, 5495, 5603, 5703, 5811, 6048, 6128, 6415, 9017, 9106, 9195, 9333, 9413, 9561, 9631, 9809, 14401, 14549, 14618, 14736, 14925], "trial_type": "free-recall", "conditions": [12, 800, "a", 24000], "internal_node_id": "0.0-76.0-0.0", "key_presses": [80, 79, 69, 84, 13, 84, 69, 65, 67, 72, 69, 82, 13, 66, 65, 68, 71, 69, 13, 67, 79, 83, 84, 85, 77, 69, 13, 83, 84, 73, 67, 75, 69, 82, 13, 80, 79, 69, 84, 13], "trial": 2, "time_elapsed": 527338, "type": "FREE_RECALL", "trial_index": 103}, "uniqueid": "MTK2869:3OONKJ5DKDQQ38G59ZY46DC6YZMBO5", "dateTime": 1519421050625}, {"current_trial": 104, "trialdata": {"rt": 1949, "trial_type": "text", "internal_node_id": "0.0-77.0", "time_elapsed": 531289, "key_press": 32, "type": "INSTRUCTIONS", "trial_index": 104}, "uniqueid": "MTK2869:3OONKJ5DKDQQ38G59ZY46DC6YZMBO5", "dateTime": 1519421054575}, {"current_trial": 105, "trialdata": {"rt": [2094, 4309, 6139, 7841, 10067, 11255, 12927, 15311, 17101, 19713, 21718], "trial_type": "math-distractor", "key_times": [1411, 1757, 2094, 3924, 4131, 4309, 5912, 6139, 7465, 7587, 7841, 9721, 9909, 10067, 10958, 11020, 11255, 12511, 12670, 12927, 14916, 15016, 15311, 16617, 16815, 17101, 19249, 19429, 19713, 21193, 21440, 21718, 23825], "responses": ["17", "21", "8", "18", "21", "15", "16", "18", "11", "15", "16"], "num2": [9, 9, 2, 8, 9, 2, 1, 4, 1, 3, 9, 6], "num3": [1, 5, 4, 8, 5, 5, 7, 9, 3, 4, 4, 9], "conditions": [12, 1600, "a", 24000], "internal_node_id": "0.0-78.0", "key_presses": [97, 103, 13, 98, 97, 13, 104, 13, 97, 104, 13, 98, 97, 13, 97, 101, 13, 97, 102, 13, 97, 104, 13, 97, 97, 13, 97, 101, 13, 97, 102, 13, 98], "trial": 3, "time_elapsed": 557298, "type": "DISTRACTOR", "trial_index": 105, "num1": [7, 7, 2, 2, 7, 8, 8, 5, 8, 8, 3, 9]}, "uniqueid": "MTK2869:3OONKJ5DKDQQ38G59ZY46DC6YZMBO5", "dateTime": 1519421080584}, {"current_trial": 106, "trialdata": {"rt": -1, "trial_type": "single-stim", "stimulus": "<p id=\"stim\">10</p>", "internal_node_id": "0.0-79.0-0.0", "time_elapsed": 560301, "key_press": -1, "trial_index": 106}, "uniqueid": "MTK2869:3OONKJ5DKDQQ38G59ZY46DC6YZMBO5", "dateTime": 1519421083587}, {"current_trial": 107, "trialdata": {"rt": -1, "trial_type": "single-stim", "stimulus": "<p id=\"stim\">9</p>", "internal_node_id": "0.0-79.0-1.0", "time_elapsed": 561301, "key_press": -1, "trial_index": 107}, "uniqueid": "MTK2869:3OONKJ5DKDQQ38G59ZY46DC6YZMBO5", "dateTime": 1519421084587}, {"current_trial": 108, "trialdata": {"rt": -1, "trial_type": "single-stim", "stimulus": "<p id=\"stim\">8</p>", "internal_node_id": "0.0-79.0-2.0", "time_elapsed": 562302, "key_press": -1, "trial_index": 108}, "uniqueid": "MTK2869:3OONKJ5DKDQQ38G59ZY46DC6YZMBO5", "dateTime": 1519421085589}, {"current_trial": 109, "trialdata": {"rt": -1, "trial_type": "single-stim", "stimulus": "<p id=\"stim\">7</p>", "internal_node_id": "0.0-79.0-3.0", "time_elapsed": 563303, "key_press": -1, "trial_index": 109}, "uniqueid": "MTK2869:3OONKJ5DKDQQ38G59ZY46DC6YZMBO5", "dateTime": 1519421086590}, {"current_trial": 110, "trialdata": {"rt": -1, "trial_type": "single-stim", "stimulus": "<p id=\"stim\">6</p>", "internal_node_id": "0.0-79.0-4.0", "time_elapsed": 564305, "key_press": -1, "trial_index": 110}, "uniqueid": "MTK2869:3OONKJ5DKDQQ38G59ZY46DC6YZMBO5", "dateTime": 1519421087591}, {"current_trial": 111, "trialdata": {"rt": -1, "trial_type": "single-stim", "stimulus": "<p id=\"stim\">5</p>", "internal_node_id": "0.0-79.0-5.0", "time_elapsed": 565305, "key_press": -1, "trial_index": 111}, "uniqueid": "MTK2869:3OONKJ5DKDQQ38G59ZY46DC6YZMBO5", "dateTime": 1519421088592}, {"current_trial": 112, "trialdata": {"rt": -1, "trial_type": "single-stim", "stimulus": "<p id=\"stim\">4</p>", "internal_node_id": "0.0-79.0-6.0", "time_elapsed": 566306, "key_press": -1, "trial_index": 112}, "uniqueid": "MTK2869:3OONKJ5DKDQQ38G59ZY46DC6YZMBO5", "dateTime": 1519421089592}, {"current_trial": 113, "trialdata": {"rt": -1, "trial_type": "single-stim", "stimulus": "<p id=\"stim\">3</p>", "internal_node_id": "0.0-79.0-7.0", "time_elapsed": 567308, "key_press": -1, "trial_index": 113}, "uniqueid": "MTK2869:3OONKJ5DKDQQ38G59ZY46DC6YZMBO5", "dateTime": 1519421090594}, {"current_trial": 114, "trialdata": {"rt": -1, "trial_type": "single-stim", "stimulus": "<p id=\"stim\">2</p>", "internal_node_id": "0.0-79.0-8.0", "time_elapsed": 568308, "key_press": -1, "trial_index": 114}, "uniqueid": "MTK2869:3OONKJ5DKDQQ38G59ZY46DC6YZMBO5", "dateTime": 1519421091594}, {"current_trial": 115, "trialdata": {"rt": -1, "trial_type": "single-stim", "stimulus": "<p id=\"stim\">1</p>", "internal_node_id": "0.0-79.0-9.0", "time_elapsed": 569309, "key_press": -1, "trial_index": 115}, "uniqueid": "MTK2869:3OONKJ5DKDQQ38G59ZY46DC6YZMBO5", "dateTime": 1519421092596}, {"current_trial": 116, "trialdata": {"rt": -1, "trial_type": "single-stim", "stimulus": "<p id=\"stim\">+</p>", "internal_node_id": "0.0-80.0-0.0", "time_elapsed": 570810, "key_press": -1, "type": "FIXATION", "trial_index": 116}, "uniqueid": "MTK2869:3OONKJ5DKDQQ38G59ZY46DC6YZMBO5", "dateTime": 1519421094097}, {"current_trial": 117, "trialdata": {"rt": -1000, "trial_type": "single-audio", "word": "truck", "stimulus": "/static/audio/wordpool/TRUCK.wav", "conditions": [12, 1600, "a", 24000], "internal_node_id": "0.0-81.0", "trial": 3, "time_elapsed": 573310, "serialpos": 0, "key_press": -1, "wordID": 1511, "type": "PRES_AUD", "trial_index": 117}, "uniqueid": "MTK2869:3OONKJ5DKDQQ38G59ZY46DC6YZMBO5", "dateTime": 1519421096596}, {"current_trial": 118, "trialdata": {"rt": -1000, "trial_type": "single-audio", "word": "parrot", "stimulus": "/static/audio/wordpool/PARROT.wav", "conditions": [12, 1600, "a", 24000], "internal_node_id": "0.0-82.0", "trial": 3, "time_elapsed": 576016, "serialpos": 1, "key_press": -1, "wordID": 1014, "type": "PRES_AUD", "trial_index": 118}, "uniqueid": "MTK2869:3OONKJ5DKDQQ38G59ZY46DC6YZMBO5", "dateTime": 1519421099302}, {"current_trial": 119, "trialdata": {"rt": -1000, "trial_type": "single-audio", "word": "queen", "stimulus": "/static/audio/wordpool/QUEEN.wav", "conditions": [12, 1600, "a", 24000], "internal_node_id": "0.0-83.0", "trial": 3, "time_elapsed": 578733, "serialpos": 2, "key_press": -1, "wordID": 1148, "type": "PRES_AUD", "trial_index": 119}, "uniqueid": "MTK2869:3OONKJ5DKDQQ38G59ZY46DC6YZMBO5", "dateTime": 1519421102019}, {"current_trial": 120, "trialdata": {"rt": -1000, "trial_type": "single-audio", "word": "slide", "stimulus": "/static/audio/wordpool/SLIDE.wav", "conditions": [12, 1600, "a", 24000], "internal_node_id": "0.0-84.0", "trial": 3, "time_elapsed": 581494, "serialpos": 3, "key_press": -1, "wordID": 1325, "type": "PRES_AUD", "trial_index": 120}, "uniqueid": "MTK2869:3OONKJ5DKDQQ38G59ZY46DC6YZMBO5", "dateTime": 1519421104780}, {"current_trial": 121, "trialdata": {"rt": -1000, "trial_type": "single-audio", "word": "crab", "stimulus": "/static/audio/wordpool/CRAB.wav", "conditions": [12, 1600, "a", 24000], "internal_node_id": "0.0-85.0", "trial": 3, "time_elapsed": 584076, "serialpos": 4, "key_press": -1, "wordID": 396, "type": "PRES_AUD", "trial_index": 121}, "uniqueid": "MTK2869:3OONKJ5DKDQQ38G59ZY46DC6YZMBO5", "dateTime": 1519421107362}, {"current_trial": 122, "trialdata": {"rt": -1000, "trial_type": "single-audio", "word": "cod", "stimulus": "/static/audio/wordpool/COD.wav", "conditions": [12, 1600, "a", 24000], "internal_node_id": "0.0-86.0", "trial": 3, "time_elapsed": 586724, "serialpos": 5, "key_press": -1, "wordID": 339, "type": "PRES_AUD", "trial_index": 122}, "uniqueid": "MTK2869:3OONKJ5DKDQQ38G59ZY46DC6YZMBO5", "dateTime": 1519421110010}, {"current_trial": 123, "trialdata": {"rt": -1000, "trial_type": "single-audio", "word": "cellar", "stimulus": "/static/audio/wordpool/CELLAR.wav", "conditions": [12, 1600, "a", 24000], "internal_node_id": "0.0-87.0", "trial": 3, "time_elapsed": 589218, "serialpos": 6, "key_press": -1, "wordID": 266, "type": "PRES_AUD", "trial_index": 123}, "uniqueid": "MTK2869:3OONKJ5DKDQQ38G59ZY46DC6YZMBO5", "dateTime": 1519421112504}, {"current_trial": 124, "trialdata": {"rt": -1000, "trial_type": "single-audio", "word": "driver", "stimulus": "/static/audio/wordpool/DRIVER.wav", "conditions": [12, 1600, "a", 24000], "internal_node_id": "0.0-88.0", "trial": 3, "time_elapsed": 591674, "serialpos": 7, "key_press": -1, "wordID": 498, "type": "PRES_AUD", "trial_index": 124}, "uniqueid": "MTK2869:3OONKJ5DKDQQ38G59ZY46DC6YZMBO5", "dateTime": 1519421114960}, {"current_trial": 125, "trialdata": {"rt": -1000, "trial_type": "single-audio", "word": "college", "stimulus": "/static/audio/wordpool/COLLEGE.wav", "conditions": [12, 1600, "a", 24000], "internal_node_id": "0.0-89.0", "trial": 3, "time_elapsed": 594222, "serialpos": 8, "key_press": -1, "wordID": 345, "type": "PRES_AUD", "trial_index": 125}, "uniqueid": "MTK2869:3OONKJ5DKDQQ38G59ZY46DC6YZMBO5", "dateTime": 1519421117509}, {"current_trial": 126, "trialdata": {"rt": -1000, "trial_type": "single-audio", "word": "kidney", "stimulus": "/static/audio/wordpool/KIDNEY.wav", "conditions": [12, 1600, "a", 24000], "internal_node_id": "0.0-90.0", "trial": 3, "time_elapsed": 596660, "serialpos": 9, "key_press": -1, "wordID": 775, "type": "PRES_AUD", "trial_index": 126}, "uniqueid": "MTK2869:3OONKJ5DKDQQ38G59ZY46DC6YZMBO5", "dateTime": 1519421119946}, {"current_trial": 127, "trialdata": {"rt": -1000, "trial_type": "single-audio", "word": "elbow", "stimulus": "/static/audio/wordpool/ELBOW.wav", "conditions": [12, 1600, "a", 24000], "internal_node_id": "0.0-91.0", "trial": 3, "time_elapsed": 599203, "serialpos": 10, "key_press": -1, "wordID": 519, "type": "PRES_AUD", "trial_index": 127}, "uniqueid": "MTK2869:3OONKJ5DKDQQ38G59ZY46DC6YZMBO5", "dateTime": 1519421122489}, {"current_trial": 128, "trialdata": {"rt": -1000, "trial_type": "single-audio", "word": "dorm", "stimulus": "/static/audio/wordpool/DORM.wav", "conditions": [12, 1600, "a", 24000], "internal_node_id": "0.0-92.0", "trial": 3, "time_elapsed": 601607, "serialpos": 11, "key_press": -1, "wordID": 487, "type": "PRES_AUD", "trial_index": 128}, "uniqueid": "MTK2869:3OONKJ5DKDQQ38G59ZY46DC6YZMBO5", "dateTime": 1519421124893}, {"current_trial": 129, "trialdata": {"rt": -1, "trial_type": "single-stim", "stimulus": "", "internal_node_id": "0.0-93.0-0.0", "time_elapsed": 602953, "key_press": -1, "type": "PRE_RECALL_DELAY", "trial_index": 129}, "uniqueid": "MTK2869:3OONKJ5DKDQQ38G59ZY46DC6YZMBO5", "dateTime": 1519421126239}, {"current_trial": 130, "trialdata": {"rt": -1000, "trial_type": "single-audio", "stimulus": "/static/audio/400Hz.wav", "internal_node_id": "0.0-94.0", "time_elapsed": 603456, "key_press": -1, "type": "PRE_RECALL_ALERT", "trial_index": 130}, "uniqueid": "MTK2869:3OONKJ5DKDQQ38G59ZY46DC6YZMBO5", "dateTime": 1519421126742}, {"current_trial": 131, "trialdata": {"rt": [1671, 2928, 4115, 5727, 6668, 7865, 8874], "recwords": ["truck", "parrot", "queen", "slide", "dorm", "elbow", "crab"], "key_times": [910, 1077, 1195, 1335, 1423, 1671, 2067, 2176, 2255, 2433, 2532, 2641, 2928, 3373, 3511, 3610, 3769, 3927, 4115, 5055, 5154, 5312, 5431, 5579, 5727, 6094, 6163, 6291, 6384, 6668, 6955, 7044, 7231, 7360, 7548, 7865, 8181, 8319, 8429, 8617, 8874], "trial_type": "free-recall", "conditions": [12, 1600, "a", 24000], "internal_node_id": "0.0-95.0-0.0", "key_presses": [84, 82, 85, 67, 75, 13, 80, 65, 82, 82, 79, 84, 13, 81, 85, 69, 69, 78, 32, 83, 76, 73, 68, 69, 13, 68, 79, 82, 77, 13, 69, 76, 66, 79, 87, 13, 67, 82, 65, 66, 13], "trial": 3, "time_elapsed": 663461, "type": "FREE_RECALL", "trial_index": 131}, "uniqueid": "MTK2869:3OONKJ5DKDQQ38G59ZY46DC6YZMBO5", "dateTime": 1519421186749}, {"current_trial": 132, "trialdata": {"rt": 1530, "trial_type": "text", "internal_node_id": "0.0-96.0", "time_elapsed": 666994, "key_press": 32, "type": "INSTRUCTIONS", "trial_index": 132}, "uniqueid": "MTK2869:3OONKJ5DKDQQ38G59ZY46DC6YZMBO5", "dateTime": 1519421190280}, {"current_trial": 133, "trialdata": {"rt": [2014, 6169, 9318, 10852, 12158, 13987, 16441, 18162, 20249, 22248], "trial_type": "math-distractor", "key_times": [1598, 1806, 2014, 5813, 5912, 6169, 8952, 9160, 9318, 10495, 10693, 10852, 11811, 11959, 12158, 13572, 13800, 13987, 16213, 16441, 17865, 18023, 18162, 19913, 20062, 20249, 21961, 22138, 22248, 23751], "responses": ["14", "23", "17", "14", "13", "17", "9", "22", "20", "25"], "num2": [6, 8, 1, 1, 9, 3, 1, 8, 5, 9, 2], "num3": [7, 9, 8, 9, 3, 7, 3, 6, 9, 9, 2], "conditions": [24, 1600, "a", 24000], "internal_node_id": "0.0-97.0", "key_presses": [97, 100, 13, 98, 99, 13, 97, 103, 13, 97, 100, 13, 97, 99, 13, 97, 103, 13, 105, 13, 98, 98, 13, 98, 96, 13, 98, 101, 13, 105], "trial": 4, "time_elapsed": 693000, "type": "DISTRACTOR", "trial_index": 133, "num1": [2, 6, 8, 3, 1, 7, 5, 8, 6, 7, 5]}, "uniqueid": "MTK2869:3OONKJ5DKDQQ38G59ZY46DC6YZMBO5", "dateTime": 1519421216286}, {"current_trial": 134, "trialdata": {"rt": -1, "trial_type": "single-stim", "stimulus": "<p id=\"stim\">10</p>", "internal_node_id": "0.0-98.0-0.0", "time_elapsed": 696003, "key_press": -1, "trial_index": 134}, "uniqueid": "MTK2869:3OONKJ5DKDQQ38G59ZY46DC6YZMBO5", "dateTime": 1519421219289}, {"current_trial": 135, "trialdata": {"rt": -1, "trial_type": "single-stim", "stimulus": "<p id=\"stim\">9</p>", "internal_node_id": "0.0-98.0-1.0", "time_elapsed": 697004, "key_press": -1, "trial_index": 135}, "uniqueid": "MTK2869:3OONKJ5DKDQQ38G59ZY46DC6YZMBO5", "dateTime": 1519421220290}, {"current_trial": 136, "trialdata": {"rt": -1, "trial_type": "single-stim", "stimulus": "<p id=\"stim\">8</p>", "internal_node_id": "0.0-98.0-2.0", "time_elapsed": 698006, "key_press": -1, "trial_index": 136}, "uniqueid": "MTK2869:3OONKJ5DKDQQ38G59ZY46DC6YZMBO5", "dateTime": 1519421221292}, {"current_trial": 137, "trialdata": {"rt": -1, "trial_type": "single-stim", "stimulus": "<p id=\"stim\">7</p>", "internal_node_id": "0.0-98.0-3.0", "time_elapsed": 699006, "key_press": -1, "trial_index": 137}, "uniqueid": "MTK2869:3OONKJ5DKDQQ38G59ZY46DC6YZMBO5", "dateTime": 1519421222292}, {"current_trial": 138, "trialdata": {"rt": -1, "trial_type": "single-stim", "stimulus": "<p id=\"stim\">6</p>", "internal_node_id": "0.0-98.0-4.0", "time_elapsed": 700007, "key_press": -1, "trial_index": 138}, "uniqueid": "MTK2869:3OONKJ5DKDQQ38G59ZY46DC6YZMBO5", "dateTime": 1519421223293}, {"current_trial": 139, "trialdata": {"rt": -1, "trial_type": "single-stim", "stimulus": "<p id=\"stim\">5</p>", "internal_node_id": "0.0-98.0-5.0", "time_elapsed": 701008, "key_press": -1, "trial_index": 139}, "uniqueid": "MTK2869:3OONKJ5DKDQQ38G59ZY46DC6YZMBO5", "dateTime": 1519421224294}, {"current_trial": 140, "trialdata": {"rt": -1, "trial_type": "single-stim", "stimulus": "<p id=\"stim\">4</p>", "internal_node_id": "0.0-98.0-6.0", "time_elapsed": 702009, "key_press": -1, "trial_index": 140}, "uniqueid": "MTK2869:3OONKJ5DKDQQ38G59ZY46DC6YZMBO5", "dateTime": 1519421225295}, {"current_trial": 141, "trialdata": {"rt": -1, "trial_type": "single-stim", "stimulus": "<p id=\"stim\">3</p>", "internal_node_id": "0.0-98.0-7.0", "time_elapsed": 703010, "key_press": -1, "trial_index": 141}, "uniqueid": "MTK2869:3OONKJ5DKDQQ38G59ZY46DC6YZMBO5", "dateTime": 1519421226296}, {"current_trial": 142, "trialdata": {"rt": -1, "trial_type": "single-stim", "stimulus": "<p id=\"stim\">2</p>", "internal_node_id": "0.0-98.0-8.0", "time_elapsed": 704011, "key_press": -1, "trial_index": 142}, "uniqueid": "MTK2869:3OONKJ5DKDQQ38G59ZY46DC6YZMBO5", "dateTime": 1519421227297}, {"current_trial": 143, "trialdata": {"rt": -1, "trial_type": "single-stim", "stimulus": "<p id=\"stim\">1</p>", "internal_node_id": "0.0-98.0-9.0", "time_elapsed": 705012, "key_press": -1, "trial_index": 143}, "uniqueid": "MTK2869:3OONKJ5DKDQQ38G59ZY46DC6YZMBO5", "dateTime": 1519421228299}, {"current_trial": 144, "trialdata": {"rt": -1, "trial_type": "single-stim", "stimulus": "<p id=\"stim\">+</p>", "internal_node_id": "0.0-99.0-0.0", "time_elapsed": 706514, "key_press": -1, "type": "FIXATION", "trial_index": 144}, "uniqueid": "MTK2869:3OONKJ5DKDQQ38G59ZY46DC6YZMBO5", "dateTime": 1519421229800}, {"current_trial": 145, "trialdata": {"rt": -1000, "trial_type": "single-audio", "word": "pliers", "stimulus": "/static/audio/wordpool/PLIERS.wav", "conditions": [24, 1600, "a", 24000], "internal_node_id": "0.0-100.0", "trial": 4, "time_elapsed": 709132, "serialpos": 0, "key_press": -1, "wordID": 1088, "type": "PRES_AUD", "trial_index": 145}, "uniqueid": "MTK2869:3OONKJ5DKDQQ38G59ZY46DC6YZMBO5", "dateTime": 1519421232418}, {"current_trial": 146, "trialdata": {"rt": -1000, "trial_type": "single-audio", "word": "chipmunk", "stimulus": "/static/audio/wordpool/CHIPMUNK.wav", "conditions": [24, 1600, "a", 24000], "internal_node_id": "0.0-101.0", "trial": 4, "time_elapsed": 711648, "serialpos": 1, "key_press": -1, "wordID": 303, "type": "PRES_AUD", "trial_index": 146}, "uniqueid": "MTK2869:3OONKJ5DKDQQ38G59ZY46DC6YZMBO5", "dateTime": 1519421234935}, {"current_trial": 147, "trialdata": {"rt": -1000, "trial_type": "single-audio", "word": "lizard", "stimulus": "/static/audio/wordpool/LIZARD.wav", "conditions": [24, 1600, "a", 24000], "internal_node_id": "0.0-102.0", "trial": 4, "time_elapsed": 714321, "serialpos": 2, "key_press": -1, "wordID": 833, "type": "PRES_AUD", "trial_index": 147}, "uniqueid": "MTK2869:3OONKJ5DKDQQ38G59ZY46DC6YZMBO5", "dateTime": 1519421237607}, {"current_trial": 148, "trialdata": {"rt": -1000, "trial_type": "single-audio", "word": "hook", "stimulus": "/static/audio/wordpool/HOOK.wav", "conditions": [24, 1600, "a", 24000], "internal_node_id": "0.0-103.0", "trial": 4, "time_elapsed": 716958, "serialpos": 3, "key_press": -1, "wordID": 714, "type": "PRES_AUD", "trial_index": 148}, "uniqueid": "MTK2869:3OONKJ5DKDQQ38G59ZY46DC6YZMBO5", "dateTime": 1519421240245}, {"current_trial": 149, "trialdata": {"rt": -1000, "trial_type": "single-audio", "word": "dashboard", "stimulus": "/static/audio/wordpool/DASHBOARD.wav", "conditions": [24, 1600, "a", 24000], "internal_node_id": "0.0-104.0", "trial": 4, "time_elapsed": 719649, "serialpos": 4, "key_press": -1, "wordID": 440, "type": "PRES_AUD", "trial_index": 149}, "uniqueid": "MTK2869:3OONKJ5DKDQQ38G59ZY46DC6YZMBO5", "dateTime": 1519421242935}, {"current_trial": 150, "trialdata": {"rt": -1000, "trial_type": "single-audio", "word": "dress", "stimulus": "/static/audio/wordpool/DRESS.wav", "conditions": [24, 1600, "a", 24000], "internal_node_id": "0.0-105.0", "trial": 4, "time_elapsed": 722364, "serialpos": 5, "key_press": -1, "wordID": 494, "type": "PRES_AUD", "trial_index": 150}, "uniqueid": "MTK2869:3OONKJ5DKDQQ38G59ZY46DC6YZMBO5", "dateTime": 1519421245650}, {"current_trial": 151, "trialdata": {"rt": -1000, "trial_type": "single-audio", "word": "flute", "stimulus": "/static/audio/wordpool/FLUTE.wav", "conditions": [24, 1600, "a", 24000], "internal_node_id": "0.0-106.0", "trial": 4, "time_elapsed": 724953, "serialpos": 6, "key_press": -1, "wordID": 584, "type": "PRES_AUD", "trial_index": 151}, "uniqueid": "MTK2869:3OONKJ5DKDQQ38G59ZY46DC6YZMBO5", "dateTime": 1519421248239}, {"current_trial": 152, "trialdata": {"rt": -1000, "trial_type": "single-audio", "word": "mailman", "stimulus": "/static/audio/wordpool/MAILMAN.wav", "conditions": [24, 1600, "a", 24000], "internal_node_id": "0.0-107.0", "trial": 4, "time_elapsed": 727611, "serialpos": 7, "key_press": -1, "wordID": 857, "type": "PRES_AUD", "trial_index": 152}, "uniqueid": "MTK2869:3OONKJ5DKDQQ38G59ZY46DC6YZMBO5", "dateTime": 1519421250897}, {"current_trial": 153, "trialdata": {"rt": -1000, "trial_type": "single-audio", "word": "flipper", "stimulus": "/static/audio/wordpool/FLIPPER.wav", "conditions": [24, 1600, "a", 24000], "internal_node_id": "0.0-108.0", "trial": 4, "time_elapsed": 730108, "serialpos": 8, "key_press": -1, "wordID": 579, "type": "PRES_AUD", "trial_index": 153}, "uniqueid": "MTK2869:3OONKJ5DKDQQ38G59ZY46DC6YZMBO5", "dateTime": 1519421253394}, {"current_trial": 154, "trialdata": {"rt": -1000, "trial_type": "single-audio", "word": "woman", "stimulus": "/static/audio/wordpool/WOMAN.wav", "conditions": [24, 1600, "a", 24000], "internal_node_id": "0.0-109.0", "trial": 4, "time_elapsed": 732861, "serialpos": 9, "key_press": -1, "wordID": 1619, "type": "PRES_AUD", "trial_index": 154}, "uniqueid": "MTK2869:3OONKJ5DKDQQ38G59ZY46DC6YZMBO5", "dateTime": 1519421256147}, {"current_trial": 155, "trialdata": {"rt": -1000, "trial_type": "single-audio", "word": "ointment", "stimulus": "/static/audio/wordpool/OINTMENT.wav", "conditions": [24, 1600, "a", 24000], "internal_node_id": "0.0-110.0", "trial": 4, "time_elapsed": 735397, "serialpos": 10, "key_press": -1, "wordID": 973, "type": "PRES_AUD", "trial_index": 155}, "uniqueid": "MTK2869:3OONKJ5DKDQQ38G59ZY46DC6YZMBO5", "dateTime": 1519421258683}, {"current_trial": 156, "trialdata": {"rt": -1000, "trial_type": "single-audio", "word": "mailbox", "stimulus": "/static/audio/wordpool/MAILBOX.wav", "conditions": [24, 1600, "a", 24000], "internal_node_id": "0.0-111.0", "trial": 4, "time_elapsed": 737859, "serialpos": 11, "key_press": -1, "wordID": 856, "type": "PRES_AUD", "trial_index": 156}, "uniqueid": "MTK2869:3OONKJ5DKDQQ38G59ZY46DC6YZMBO5", "dateTime": 1519421261145}, {"current_trial": 157, "trialdata": {"rt": -1000, "trial_type": "single-audio", "word": "church", "stimulus": "/static/audio/wordpool/CHURCH.wav", "conditions": [24, 1600, "a", 24000], "internal_node_id": "0.0-112.0", "trial": 4, "time_elapsed": 740422, "serialpos": 12, "key_press": -1, "wordID": 306, "type": "PRES_AUD", "trial_index": 157}, "uniqueid": "MTK2869:3OONKJ5DKDQQ38G59ZY46DC6YZMBO5", "dateTime": 1519421263708}, {"current_trial": 158, "trialdata": {"rt": -1000, "trial_type": "single-audio", "word": "sister", "stimulus": "/static/audio/wordpool/SISTER.wav", "conditions": [24, 1600, "a", 24000], "internal_node_id": "0.0-113.0", "trial": 4, "time_elapsed": 742994, "serialpos": 13, "key_press": -1, "wordID": 1311, "type": "PRES_AUD", "trial_index": 158}, "uniqueid": "MTK2869:3OONKJ5DKDQQ38G59ZY46DC6YZMBO5", "dateTime": 1519421266280}, {"current_trial": 159, "trialdata": {"rt": -1000, "trial_type": "single-audio", "word": "uncle", "stimulus": "/static/audio/wordpool/UNCLE.wav", "conditions": [24, 1600, "a", 24000], "internal_node_id": "0.0-114.0", "trial": 4, "time_elapsed": 745417, "serialpos": 14, "key_press": -1, "wordID": 1535, "type": "PRES_AUD", "trial_index": 159}, "uniqueid": "MTK2869:3OONKJ5DKDQQ38G59ZY46DC6YZMBO5", "dateTime": 1519421268703}, {"current_trial": 160, "trialdata": {"rt": -1000, "trial_type": "single-audio", "word": "suitcase", "stimulus": "/static/audio/wordpool/SUITCASE.wav", "conditions": [24, 1600, "a", 24000], "internal_node_id": "0.0-115.0", "trial": 4, "time_elapsed": 748128, "serialpos": 15, "key_press": -1, "wordID": 1402, "type": "PRES_AUD", "trial_index": 160}, "uniqueid": "MTK2869:3OONKJ5DKDQQ38G59ZY46DC6YZMBO5", "dateTime": 1519421271414}, {"current_trial": 161, "trialdata": {"rt": -1000, "trial_type": "single-audio", "word": "lagoon", "stimulus": "/static/audio/wordpool/LAGOON.wav", "conditions": [24, 1600, "a", 24000], "internal_node_id": "0.0-116.0", "trial": 4, "time_elapsed": 750821, "serialpos": 16, "key_press": -1, "wordID": 794, "type": "PRES_AUD", "trial_index": 161}, "uniqueid": "MTK2869:3OONKJ5DKDQQ38G59ZY46DC6YZMBO5", "dateTime": 1519421274107}, {"current_trial": 162, "trialdata": {"rt": -1000, "trial_type": "single-audio", "word": "apple", "stimulus": "/static/audio/wordpool/APPLE.wav", "conditions": [24, 1600, "a", 24000], "internal_node_id": "0.0-117.0", "trial": 4, "time_elapsed": 753395, "serialpos": 17, "key_press": -1, "wordID": 32, "type": "PRES_AUD", "trial_index": 162}, "uniqueid": "MTK2869:3OONKJ5DKDQQ38G59ZY46DC6YZMBO5", "dateTime": 1519421276681}, {"current_trial": 163, "trialdata": {"rt": -1000, "trial_type": "single-audio", "word": "server", "stimulus": "/static/audio/wordpool/SERVER.wav", "conditions": [24, 1600, "a", 24000], "internal_node_id": "0.0-118.0", "trial": 4, "time_elapsed": 756106, "serialpos": 18, "key_press": -1, "wordID": 1271, "type": "PRES_AUD", "trial_index": 163}, "uniqueid": "MTK2869:3OONKJ5DKDQQ38G59ZY46DC6YZMBO5", "dateTime": 1519421279393}, {"current_trial": 164, "trialdata": {"rt": -1000, "trial_type": "single-audio", "word": "luggage", "stimulus": "/static/audio/wordpool/LUGGAGE.wav", "conditions": [24, 1600, "a", 24000], "internal_node_id": "0.0-119.0", "trial": 4, "time_elapsed": 758660, "serialpos": 19, "key_press": -1, "wordID": 846, "type": "PRES_AUD", "trial_index": 164}, "uniqueid": "MTK2869:3OONKJ5DKDQQ38G59ZY46DC6YZMBO5", "dateTime": 1519421281946}, {"current_trial": 165, "trialdata": {"rt": -1000, "trial_type": "single-audio", "word": "panther", "stimulus": "/static/audio/wordpool/PANTHER.wav", "conditions": [24, 1600, "a", 24000], "internal_node_id": "0.0-120.0", "trial": 4, "time_elapsed": 761308, "serialpos": 20, "key_press": -1, "wordID": 1008, "type": "PRES_AUD", "trial_index": 165}, "uniqueid": "MTK2869:3OONKJ5DKDQQ38G59ZY46DC6YZMBO5", "dateTime": 1519421284595}, {"current_trial": 166, "trialdata": {"rt": -1000, "trial_type": "single-audio", "word": "ketchup", "stimulus": "/static/audio/wordpool/KETCHUP.wav", "conditions": [24, 1600, "a", 24000], "internal_node_id": "0.0-121.0", "trial": 4, "time_elapsed": 764007, "serialpos": 21, "key_press": -1, "wordID": 770, "type": "PRES_AUD", "trial_index": 166}, "uniqueid": "MTK2869:3OONKJ5DKDQQ38G59ZY46DC6YZMBO5", "dateTime": 1519421287293}, {"current_trial": 167, "trialdata": {"rt": -1000, "trial_type": "single-audio", "word": "ozone", "stimulus": "/static/audio/wordpool/OZONE.wav", "conditions": [24, 1600, "a", 24000], "internal_node_id": "0.0-122.0", "trial": 4, "time_elapsed": 766667, "serialpos": 22, "key_press": -1, "wordID": 995, "type": "PRES_AUD", "trial_index": 167}, "uniqueid": "MTK2869:3OONKJ5DKDQQ38G59ZY46DC6YZMBO5", "dateTime": 1519421289953}, {"current_trial": 168, "trialdata": {"rt": -1000, "trial_type": "single-audio", "word": "burglar", "stimulus": "/static/audio/wordpool/BURGLAR.wav", "conditions": [24, 1600, "a", 24000], "internal_node_id": "0.0-123.0", "trial": 4, "time_elapsed": 769277, "serialpos": 23, "key_press": -1, "wordID": 199, "type": "PRES_AUD", "trial_index": 168}, "uniqueid": "MTK2869:3OONKJ5DKDQQ38G59ZY46DC6YZMBO5", "dateTime": 1519421292563}, {"current_trial": 169, "trialdata": {"rt": -1, "trial_type": "single-stim", "stimulus": "", "internal_node_id": "0.0-124.0-0.0", "time_elapsed": 770512, "key_press": -1, "type": "PRE_RECALL_DELAY", "trial_index": 169}, "uniqueid": "MTK2869:3OONKJ5DKDQQ38G59ZY46DC6YZMBO5", "dateTime": 1519421293799}, {"current_trial": 170, "trialdata": {"rt": -1000, "trial_type": "single-audio", "stimulus": "/static/audio/400Hz.wav", "internal_node_id": "0.0-125.0", "time_elapsed": 771013, "key_press": -1, "type": "PRE_RECALL_ALERT", "trial_index": 170}, "uniqueid": "MTK2869:3OONKJ5DKDQQ38G59ZY46DC6YZMBO5", "dateTime": 1519421294300}, {"current_trial": 171, "trialdata": {"rt": [2253, 3845, 5913, 7921, 9584, 22611, 23572], "recwords": ["pliers", "lizard", "chipmunk", "burglar", "mailbox", "sister", "uncle"], "key_times": [511, 739, 1372, 1580, 1669, 1867, 2253, 2727, 2876, 3074, 3281, 3400, 3608, 3845, 4251, 4350, 4468, 4617, 4884, 5121, 5320, 5556, 5913, 6823, 6991, 7090, 7287, 7446, 7565, 7663, 7921, 8356, 8455, 8593, 8802, 8983, 9079, 9207, 9584, 21830, 21869, 22037, 22186, 22354, 22443, 22611, 22898, 23095, 23175, 23304, 23403, 23572], "trial_type": "free-recall", "conditions": [24, 1600, "a", 24000], "internal_node_id": "0.0-126.0-0.0", "key_presses": [80, 76, 73, 69, 82, 83, 13, 76, 73, 90, 65, 82, 68, 13, 67, 72, 73, 80, 77, 85, 78, 75, 13, 66, 85, 82, 71, 76, 65, 82, 13, 77, 65, 73, 76, 66, 79, 88, 13, 83, 73, 83, 84, 69, 82, 13, 85, 78, 67, 76, 69, 13], "trial": 4, "time_elapsed": 831018, "type": "FREE_RECALL", "trial_index": 171}, "uniqueid": "MTK2869:3OONKJ5DKDQQ38G59ZY46DC6YZMBO5", "dateTime": 1519421354307}, {"current_trial": 172, "trialdata": {"rt": 1430, "trial_type": "text", "internal_node_id": "0.0-127.0", "time_elapsed": 834451, "key_press": 32, "type": "INSTRUCTIONS", "trial_index": 172}, "uniqueid": "MTK2869:3OONKJ5DKDQQ38G59ZY46DC6YZMBO5", "dateTime": 1519421357737}, {"current_trial": 173, "trialdata": {"rt": [1954, 4120, 6099, 7572, 9352, 11439, 13042, 14673, 16285, 18056, 19609, 21303, 23212], "trial_type": "math-distractor", "key_times": [1756, 1954, 3773, 3856, 4120, 5801, 5960, 6099, 7136, 7363, 7572, 9005, 9154, 9352, 11083, 11194, 11439, 12665, 12823, 13042, 14426, 14673, 15939, 16011, 16285, 17690, 17867, 18056, 19272, 19450, 19609, 20908, 21039, 21303, 22856, 22965, 23212], "responses": ["8", "15", "11", "17", "20", "12", "10", "9", "12", "21", "14", "15", "19"], "num2": [6, 5, 6, 8, 5, 1, 3, 3, 2, 3, 9, 1, 8, 9], "num3": [1, 7, 3, 1, 6, 4, 3, 2, 3, 9, 4, 8, 2, 1], "conditions": [24, 800, "a", 24000], "internal_node_id": "0.0-128.0", "key_presses": [104, 13, 97, 101, 13, 97, 97, 13, 97, 103, 13, 98, 96, 13, 97, 98, 13, 97, 96, 13, 105, 13, 97, 98, 13, 98, 97, 13, 97, 100, 13, 97, 101, 13, 97, 105, 13], "trial": 5, "time_elapsed": 860458, "type": "DISTRACTOR", "trial_index": 173, "num1": [1, 3, 2, 8, 9, 7, 4, 4, 7, 9, 1, 6, 9, 4]}, "uniqueid": "MTK2869:3OONKJ5DKDQQ38G59ZY46DC6YZMBO5", "dateTime": 1519421383744}, {"current_trial": 174, "trialdata": {"rt": -1, "trial_type": "single-stim", "stimulus": "<p id=\"stim\">10</p>", "internal_node_id": "0.0-129.0-0.0", "time_elapsed": 863460, "key_press": -1, "trial_index": 174}, "uniqueid": "MTK2869:3OONKJ5DKDQQ38G59ZY46DC6YZMBO5", "dateTime": 1519421386746}, {"current_trial": 175, "trialdata": {"rt": -1, "trial_type": "single-stim", "stimulus": "<p id=\"stim\">9</p>", "internal_node_id": "0.0-129.0-1.0", "time_elapsed": 864461, "key_press": -1, "trial_index": 175}, "uniqueid": "MTK2869:3OONKJ5DKDQQ38G59ZY46DC6YZMBO5", "dateTime": 1519421387747}, {"current_trial": 176, "trialdata": {"rt": -1, "trial_type": "single-stim", "stimulus": "<p id=\"stim\">8</p>", "internal_node_id": "0.0-129.0-2.0", "time_elapsed": 865462, "key_press": -1, "trial_index": 176}, "uniqueid": "MTK2869:3OONKJ5DKDQQ38G59ZY46DC6YZMBO5", "dateTime": 1519421388748}, {"current_trial": 177, "trialdata": {"rt": -1, "trial_type": "single-stim", "stimulus": "<p id=\"stim\">7</p>", "internal_node_id": "0.0-129.0-3.0", "time_elapsed": 866463, "key_press": -1, "trial_index": 177}, "uniqueid": "MTK2869:3OONKJ5DKDQQ38G59ZY46DC6YZMBO5", "dateTime": 1519421389749}, {"current_trial": 178, "trialdata": {"rt": -1, "trial_type": "single-stim", "stimulus": "<p id=\"stim\">6</p>", "internal_node_id": "0.0-129.0-4.0", "time_elapsed": 867465, "key_press": -1, "trial_index": 178}, "uniqueid": "MTK2869:3OONKJ5DKDQQ38G59ZY46DC6YZMBO5", "dateTime": 1519421390751}, {"current_trial": 179, "trialdata": {"rt": -1, "trial_type": "single-stim", "stimulus": "<p id=\"stim\">5</p>", "internal_node_id": "0.0-129.0-5.0", "time_elapsed": 868466, "key_press": -1, "trial_index": 179}, "uniqueid": "MTK2869:3OONKJ5DKDQQ38G59ZY46DC6YZMBO5", "dateTime": 1519421391752}, {"current_trial": 180, "trialdata": {"rt": -1, "trial_type": "single-stim", "stimulus": "<p id=\"stim\">4</p>", "internal_node_id": "0.0-129.0-6.0", "time_elapsed": 869467, "key_press": -1, "trial_index": 180}, "uniqueid": "MTK2869:3OONKJ5DKDQQ38G59ZY46DC6YZMBO5", "dateTime": 1519421392753}, {"current_trial": 181, "trialdata": {"rt": -1, "trial_type": "single-stim", "stimulus": "<p id=\"stim\">3</p>", "internal_node_id": "0.0-129.0-7.0", "time_elapsed": 870468, "key_press": -1, "trial_index": 181}, "uniqueid": "MTK2869:3OONKJ5DKDQQ38G59ZY46DC6YZMBO5", "dateTime": 1519421393754}, {"current_trial": 182, "trialdata": {"rt": -1, "trial_type": "single-stim", "stimulus": "<p id=\"stim\">2</p>", "internal_node_id": "0.0-129.0-8.0", "time_elapsed": 871469, "key_press": -1, "trial_index": 182}, "uniqueid": "MTK2869:3OONKJ5DKDQQ38G59ZY46DC6YZMBO5", "dateTime": 1519421394755}, {"current_trial": 183, "trialdata": {"rt": -1, "trial_type": "single-stim", "stimulus": "<p id=\"stim\">1</p>", "internal_node_id": "0.0-129.0-9.0", "time_elapsed": 872470, "key_press": -1, "trial_index": 183}, "uniqueid": "MTK2869:3OONKJ5DKDQQ38G59ZY46DC6YZMBO5", "dateTime": 1519421395756}, {"current_trial": 184, "trialdata": {"rt": -1, "trial_type": "single-stim", "stimulus": "<p id=\"stim\">+</p>", "internal_node_id": "0.0-130.0-0.0", "time_elapsed": 873971, "key_press": -1, "type": "FIXATION", "trial_index": 184}, "uniqueid": "MTK2869:3OONKJ5DKDQQ38G59ZY46DC6YZMBO5", "dateTime": 1519421397257}, {"current_trial": 185, "trialdata": {"rt": -1000, "trial_type": "single-audio", "word": "critic", "stimulus": "/static/audio/wordpool/CRITIC.wav", "conditions": [24, 800, "a", 24000], "internal_node_id": "0.0-131.0", "trial": 5, "time_elapsed": 875799, "serialpos": 0, "key_press": -1, "wordID": 409, "type": "PRES_AUD", "trial_index": 185}, "uniqueid": "MTK2869:3OONKJ5DKDQQ38G59ZY46DC6YZMBO5", "dateTime": 1519421399085}, {"current_trial": 186, "trialdata": {"rt": -1000, "trial_type": "single-audio", "word": "camel", "stimulus": "/static/audio/wordpool/CAMEL.wav", "conditions": [24, 800, "a", 24000], "internal_node_id": "0.0-132.0", "trial": 5, "time_elapsed": 877586, "serialpos": 1, "key_press": -1, "wordID": 222, "type": "PRES_AUD", "trial_index": 186}, "uniqueid": "MTK2869:3OONKJ5DKDQQ38G59ZY46DC6YZMBO5", "dateTime": 1519421400872}, {"current_trial": 187, "trialdata": {"rt": -1000, "trial_type": "single-audio", "word": "soda", "stimulus": "/static/audio/wordpool/SODA.wav", "conditions": [24, 800, "a", 24000], "internal_node_id": "0.0-133.0", "trial": 5, "time_elapsed": 879202, "serialpos": 2, "key_press": -1, "wordID": 1340, "type": "PRES_AUD", "trial_index": 187}, "uniqueid": "MTK2869:3OONKJ5DKDQQ38G59ZY46DC6YZMBO5", "dateTime": 1519421402488}, {"current_trial": 188, "trialdata": {"rt": -1000, "trial_type": "single-audio", "word": "snail", "stimulus": "/static/audio/wordpool/SNAIL.wav", "conditions": [24, 800, "a", 24000], "internal_node_id": "0.0-134.0", "trial": 5, "time_elapsed": 880901, "serialpos": 3, "key_press": -1, "wordID": 1331, "type": "PRES_AUD", "trial_index": 188}, "uniqueid": "MTK2869:3OONKJ5DKDQQ38G59ZY46DC6YZMBO5", "dateTime": 1519421404187}, {"current_trial": 189, "trialdata": {"rt": -1000, "trial_type": "single-audio", "word": "comet", "stimulus": "/static/audio/wordpool/COMET.wav", "conditions": [24, 800, "a", 24000], "internal_node_id": "0.0-135.0", "trial": 5, "time_elapsed": 882734, "serialpos": 4, "key_press": -1, "wordID": 352, "type": "PRES_AUD", "trial_index": 189}, "uniqueid": "MTK2869:3OONKJ5DKDQQ38G59ZY46DC6YZMBO5", "dateTime": 1519421406020}, {"current_trial": 190, "trialdata": {"rt": -1000, "trial_type": "single-audio", "word": "rabbit", "stimulus": "/static/audio/wordpool/RABBIT.wav", "conditions": [24, 800, "a", 24000], "internal_node_id": "0.0-136.0", "trial": 5, "time_elapsed": 884665, "serialpos": 5, "key_press": -1, "wordID": 1151, "type": "PRES_AUD", "trial_index": 190}, "uniqueid": "MTK2869:3OONKJ5DKDQQ38G59ZY46DC6YZMBO5", "dateTime": 1519421407951}, {"current_trial": 191, "trialdata": {"rt": -1000, "trial_type": "single-audio", "word": "sausage", "stimulus": "/static/audio/wordpool/SAUSAGE.wav", "conditions": [24, 800, "a", 24000], "internal_node_id": "0.0-137.0", "trial": 5, "time_elapsed": 886547, "serialpos": 6, "key_press": -1, "wordID": 1237, "type": "PRES_AUD", "trial_index": 191}, "uniqueid": "MTK2869:3OONKJ5DKDQQ38G59ZY46DC6YZMBO5", "dateTime": 1519421409833}, {"current_trial": 192, "trialdata": {"rt": -1000, "trial_type": "single-audio", "word": "report", "stimulus": "/static/audio/wordpool/REPORT.wav", "conditions": [24, 800, "a", 24000], "internal_node_id": "0.0-138.0", "trial": 5, "time_elapsed": 888509, "serialpos": 7, "key_press": -1, "wordID": 1183, "type": "PRES_AUD", "trial_index": 192}, "uniqueid": "MTK2869:3OONKJ5DKDQQ38G59ZY46DC6YZMBO5", "dateTime": 1519421411795}, {"current_trial": 193, "trialdata": {"rt": -1000, "trial_type": "single-audio", "word": "baby", "stimulus": "/static/audio/wordpool/BABY.wav", "conditions": [24, 800, "a", 24000], "internal_node_id": "0.0-139.0", "trial": 5, "time_elapsed": 890201, "serialpos": 8, "key_press": -1, "wordID": 63, "type": "PRES_AUD", "trial_index": 193}, "uniqueid": "MTK2869:3OONKJ5DKDQQ38G59ZY46DC6YZMBO5", "dateTime": 1519421413487}, {"current_trial": 194, "trialdata": {"rt": -1000, "trial_type": "single-audio", "word": "ankle", "stimulus": "/static/audio/wordpool/ANKLE.wav", "conditions": [24, 800, "a", 24000], "internal_node_id": "0.0-140.0", "trial": 5, "time_elapsed": 891882, "serialpos": 9, "key_press": -1, "wordID": 23, "type": "PRES_AUD", "trial_index": 194}, "uniqueid": "MTK2869:3OONKJ5DKDQQ38G59ZY46DC6YZMBO5", "dateTime": 1519421415168}, {"current_trial": 195, "trialdata": {"rt": -1000, "trial_type": "single-audio", "word": "wrist", "stimulus": "/static/audio/wordpool/WRIST.wav", "conditions": [24, 800, "a", 24000], "internal_node_id": "0.0-141.0", "trial": 5, "time_elapsed": 893644, "serialpos": 10, "key_press": -1, "wordID": 1625, "type": "PRES_AUD", "trial_index": 195}, "uniqueid": "MTK2869:3OONKJ5DKDQQ38G59ZY46DC6YZMBO5", "dateTime": 1519421416931}, {"current_trial": 196, "trialdata": {"rt": -1000, "trial_type": "single-audio", "word": "pork", "stimulus": "/static/audio/wordpool/PORK.wav", "conditions": [24, 800, "a", 24000], "internal_node_id": "0.0-142.0", "trial": 5, "time_elapsed": 895566, "serialpos": 11, "key_press": -1, "wordID": 1107, "type": "PRES_AUD", "trial_index": 196}, "uniqueid": "MTK2869:3OONKJ5DKDQQ38G59ZY46DC6YZMBO5", "dateTime": 1519421418852}, {"current_trial": 197, "trialdata": {"rt": -1000, "trial_type": "single-audio", "word": "salmon", "stimulus": "/static/audio/wordpool/SALMON.wav", "conditions": [24, 800, "a", 24000], "internal_node_id": "0.0-143.0", "trial": 5, "time_elapsed": 897368, "serialpos": 12, "key_press": -1, "wordID": 1226, "type": "PRES_AUD", "trial_index": 197}, "uniqueid": "MTK2869:3OONKJ5DKDQQ38G59ZY46DC6YZMBO5", "dateTime": 1519421420654}, {"current_trial": 198, "trialdata": {"rt": -1000, "trial_type": "single-audio", "word": "couch", "stimulus": "/static/audio/wordpool/COUCH.wav", "conditions": [24, 800, "a", 24000], "internal_node_id": "0.0-144.0", "trial": 5, "time_elapsed": 899099, "serialpos": 13, "key_press": -1, "wordID": 385, "type": "PRES_AUD", "trial_index": 198}, "uniqueid": "MTK2869:3OONKJ5DKDQQ38G59ZY46DC6YZMBO5", "dateTime": 1519421422385}, {"current_trial": 199, "trialdata": {"rt": -1000, "trial_type": "single-audio", "word": "harp", "stimulus": "/static/audio/wordpool/HARP.wav", "conditions": [24, 800, "a", 24000], "internal_node_id": "0.0-145.0", "trial": 5, "time_elapsed": 900801, "serialpos": 14, "key_press": -1, "wordID": 688, "type": "PRES_AUD", "trial_index": 199}, "uniqueid": "MTK2869:3OONKJ5DKDQQ38G59ZY46DC6YZMBO5", "dateTime": 1519421424087}, {"current_trial": 200, "trialdata": {"rt": -1000, "trial_type": "single-audio", "word": "dresser", "stimulus": "/static/audio/wordpool/DRESSER.wav", "conditions": [24, 800, "a", 24000], "internal_node_id": "0.0-146.0", "trial": 5, "time_elapsed": 902783, "serialpos": 15, "key_press": -1, "wordID": 495, "type": "PRES_AUD", "trial_index": 200}, "uniqueid": "MTK2869:3OONKJ5DKDQQ38G59ZY46DC6YZMBO5", "dateTime": 1519421426069}, {"current_trial": 201, "trialdata": {"rt": -1000, "trial_type": "single-audio", "word": "body", "stimulus": "/static/audio/wordpool/BODY.wav", "conditions": [24, 800, "a", 24000], "internal_node_id": "0.0-147.0", "trial": 5, "time_elapsed": 904434, "serialpos": 16, "key_press": -1, "wordID": 144, "type": "PRES_AUD", "trial_index": 201}, "uniqueid": "MTK2869:3OONKJ5DKDQQ38G59ZY46DC6YZMBO5", "dateTime": 1519421427720}, {"current_trial": 202, "trialdata": {"rt": -1000, "trial_type": "single-audio", "word": "shoulder", "stimulus": "/static/audio/wordpool/SHOULDER.wav", "conditions": [24, 800, "a", 24000], "internal_node_id": "0.0-148.0", "trial": 5, "time_elapsed": 906136, "serialpos": 17, "key_press": -1, "wordID": 1293, "type": "PRES_AUD", "trial_index": 202}, "uniqueid": "MTK2869:3OONKJ5DKDQQ38G59ZY46DC6YZMBO5", "dateTime": 1519421429422}, {"current_trial": 203, "trialdata": {"rt": -1000, "trial_type": "single-audio", "word": "hood", "stimulus": "/static/audio/wordpool/HOOD.wav", "conditions": [24, 800, "a", 24000], "internal_node_id": "0.0-149.0", "trial": 5, "time_elapsed": 907907, "serialpos": 18, "key_press": -1, "wordID": 713, "type": "PRES_AUD", "trial_index": 203}, "uniqueid": "MTK2869:3OONKJ5DKDQQ38G59ZY46DC6YZMBO5", "dateTime": 1519421431194}, {"current_trial": 204, "trialdata": {"rt": -1000, "trial_type": "single-audio", "word": "canyon", "stimulus": "/static/audio/wordpool/CANYON.wav", "conditions": [24, 800, "a", 24000], "internal_node_id": "0.0-150.0", "trial": 5, "time_elapsed": 909880, "serialpos": 19, "key_press": -1, "wordID": 234, "type": "PRES_AUD", "trial_index": 204}, "uniqueid": "MTK2869:3OONKJ5DKDQQ38G59ZY46DC6YZMBO5", "dateTime": 1519421433166}, {"current_trial": 205, "trialdata": {"rt": -1000, "trial_type": "single-audio", "word": "gymnast", "stimulus": "/static/audio/wordpool/GYMNAST.wav", "conditions": [24, 800, "a", 24000], "internal_node_id": "0.0-151.0", "trial": 5, "time_elapsed": 911721, "serialpos": 20, "key_press": -1, "wordID": 674, "type": "PRES_AUD", "trial_index": 205}, "uniqueid": "MTK2869:3OONKJ5DKDQQ38G59ZY46DC6YZMBO5", "dateTime": 1519421435007}, {"current_trial": 206, "trialdata": {"rt": -1000, "trial_type": "single-audio", "word": "dancer", "stimulus": "/static/audio/wordpool/DANCER.wav", "conditions": [24, 800, "a", 24000], "internal_node_id": "0.0-152.0", "trial": 5, "time_elapsed": 913656, "serialpos": 21, "key_press": -1, "wordID": 436, "type": "PRES_AUD", "trial_index": 206}, "uniqueid": "MTK2869:3OONKJ5DKDQQ38G59ZY46DC6YZMBO5", "dateTime": 1519421436942}, {"current_trial": 207, "trialdata": {"rt": -1000, "trial_type": "single-audio", "word": "paddle", "stimulus": "/static/audio/wordpool/PADDLE.wav", "conditions": [24, 800, "a", 24000], "internal_node_id": "0.0-153.0", "trial": 5, "time_elapsed": 915280, "serialpos": 22, "key_press": -1, "wordID": 999, "type": "PRES_AUD", "trial_index": 207}, "uniqueid": "MTK2869:3OONKJ5DKDQQ38G59ZY46DC6YZMBO5", "dateTime": 1519421438566}, {"current_trial": 208, "trialdata": {"rt": -1000, "trial_type": "single-audio", "word": "trout", "stimulus": "/static/audio/wordpool/TROUT.wav", "conditions": [24, 800, "a", 24000], "internal_node_id": "0.0-154.0", "trial": 5, "time_elapsed": 917268, "serialpos": 23, "key_press": -1, "wordID": 1510, "type": "PRES_AUD", "trial_index": 208}, "uniqueid": "MTK2869:3OONKJ5DKDQQ38G59ZY46DC6YZMBO5", "dateTime": 1519421440555}, {"current_trial": 209, "trialdata": {"rt": -1, "trial_type": "single-stim", "stimulus": "", "internal_node_id": "0.0-155.0-0.0", "time_elapsed": 918582, "key_press": -1, "type": "PRE_RECALL_DELAY", "trial_index": 209}, "uniqueid": "MTK2869:3OONKJ5DKDQQ38G59ZY46DC6YZMBO5", "dateTime": 1519421441869}, {"current_trial": 210, "trialdata": {"rt": -1000, "trial_type": "single-audio", "stimulus": "/static/audio/400Hz.wav", "internal_node_id": "0.0-156.0", "time_elapsed": 919090, "key_press": -1, "type": "PRE_RECALL_ALERT", "trial_index": 210}, "uniqueid": "MTK2869:3OONKJ5DKDQQ38G59ZY46DC6YZMBO5", "dateTime": 1519421442376}, {"current_trial": 211, "trialdata": {"rt": [2618, 3973, 5723, 7238, 8692, 14686, 15783, 22618], "recwords": ["ankle", "wrist", "pork", "shoulder", "trout", "gymnast", "dancer", "shoulder"], "key_times": [551, 659, 995, 1135, 1263, 1896, 2073, 2311, 2430, 2618, 2885, 3073, 3270, 3379, 3448, 3973, 4269, 4467, 5150, 5289, 5723, 6000, 6100, 6287, 6396, 6584, 6733, 6931, 7010, 7238, 7623, 7782, 7870, 7979, 8147, 8692, 12955, 13112, 13349, 13835, 13983, 14131, 14280, 14686, 14942, 15041, 15213, 15318, 15546, 15625, 15783, 20185, 20254, 20432, 20531, 21006, 21148, 21352, 21431, 22618], "trial_type": "free-recall", "conditions": [24, 800, "a", 24000], "internal_node_id": "0.0-157.0-0.0", "key_presses": [65, 78, 75, 69, 76, 8, 8, 76, 69, 13, 87, 82, 73, 83, 84, 13, 80, 79, 82, 75, 13, 83, 72, 79, 85, 76, 68, 69, 82, 13, 84, 82, 79, 85, 84, 13, 71, 89, 77, 78, 65, 83, 84, 13, 68, 65, 78, 67, 69, 82, 13, 83, 72, 79, 85, 76, 68, 69, 82, 13], "trial": 5, "time_elapsed": 979096, "type": "FREE_RECALL", "trial_index": 211}, "uniqueid": "MTK2869:3OONKJ5DKDQQ38G59ZY46DC6YZMBO5", "dateTime": 1519421502385}, {"current_trial": 212, "trialdata": {"rt": 973, "trial_type": "text", "internal_node_id": "0.0-158.0", "time_elapsed": 982073, "key_press": 32, "type": "INSTRUCTIONS", "trial_index": 212}, "uniqueid": "MTK2869:3OONKJ5DKDQQ38G59ZY46DC6YZMBO5", "dateTime": 1519421505359}, {"current_trial": 213, "trialdata": {"rt": [2270, 4526, 5900, 7581, 9747], "trial_type": "math-distractor", "key_times": [1815, 2052, 2270, 4229, 4397, 4526, 5593, 5752, 5900, 7245, 7443, 7581, 9313, 9440, 9747], "responses": ["13", "22", "11", "14", "19"], "num2": [3, 7, 2, 2, 7, 1], "num3": [8, 9, 6, 6, 6, 6], "conditions": [24, 1600, "a", 12000], "internal_node_id": "0.0-159.0", "key_presses": [97, 99, 13, 98, 98, 13, 97, 97, 13, 97, 100, 13, 97, 105, 13], "trial": 6, "time_elapsed": 996076, "type": "DISTRACTOR", "trial_index": 213, "num1": [2, 6, 3, 6, 6, 7]}, "uniqueid": "MTK2869:3OONKJ5DKDQQ38G59ZY46DC6YZMBO5", "dateTime": 1519421519362}, {"current_trial": 214, "trialdata": {"rt": -1, "trial_type": "single-stim", "stimulus": "<p id=\"stim\">10</p>", "internal_node_id": "0.0-160.0-0.0", "time_elapsed": 999078, "key_press": -1, "trial_index": 214}, "uniqueid": "MTK2869:3OONKJ5DKDQQ38G59ZY46DC6YZMBO5", "dateTime": 1519421522365}, {"current_trial": 215, "trialdata": {"rt": -1, "trial_type": "single-stim", "stimulus": "<p id=\"stim\">9</p>", "internal_node_id": "0.0-160.0-1.0", "time_elapsed": 1000080, "key_press": -1, "trial_index": 215}, "uniqueid": "MTK2869:3OONKJ5DKDQQ38G59ZY46DC6YZMBO5", "dateTime": 1519421523367}, {"current_trial": 216, "trialdata": {"rt": -1, "trial_type": "single-stim", "stimulus": "<p id=\"stim\">8</p>", "internal_node_id": "0.0-160.0-2.0", "time_elapsed": 1001082, "key_press": -1, "trial_index": 216}, "uniqueid": "MTK2869:3OONKJ5DKDQQ38G59ZY46DC6YZMBO5", "dateTime": 1519421524368}, {"current_trial": 217, "trialdata": {"rt": -1, "trial_type": "single-stim", "stimulus": "<p id=\"stim\">7</p>", "internal_node_id": "0.0-160.0-3.0", "time_elapsed": 1002083, "key_press": -1, "trial_index": 217}, "uniqueid": "MTK2869:3OONKJ5DKDQQ38G59ZY46DC6YZMBO5", "dateTime": 1519421525369}, {"current_trial": 218, "trialdata": {"rt": -1, "trial_type": "single-stim", "stimulus": "<p id=\"stim\">6</p>", "internal_node_id": "0.0-160.0-4.0", "time_elapsed": 1003084, "key_press": -1, "trial_index": 218}, "uniqueid": "MTK2869:3OONKJ5DKDQQ38G59ZY46DC6YZMBO5", "dateTime": 1519421526370}, {"current_trial": 219, "trialdata": {"rt": -1, "trial_type": "single-stim", "stimulus": "<p id=\"stim\">5</p>", "internal_node_id": "0.0-160.0-5.0", "time_elapsed": 1004085, "key_press": -1, "trial_index": 219}, "uniqueid": "MTK2869:3OONKJ5DKDQQ38G59ZY46DC6YZMBO5", "dateTime": 1519421527371}, {"current_trial": 220, "trialdata": {"rt": -1, "trial_type": "single-stim", "stimulus": "<p id=\"stim\">4</p>", "internal_node_id": "0.0-160.0-6.0", "time_elapsed": 1005086, "key_press": -1, "trial_index": 220}, "uniqueid": "MTK2869:3OONKJ5DKDQQ38G59ZY46DC6YZMBO5", "dateTime": 1519421528372}, {"current_trial": 221, "trialdata": {"rt": -1, "trial_type": "single-stim", "stimulus": "<p id=\"stim\">3</p>", "internal_node_id": "0.0-160.0-7.0", "time_elapsed": 1006087, "key_press": -1, "trial_index": 221}, "uniqueid": "MTK2869:3OONKJ5DKDQQ38G59ZY46DC6YZMBO5", "dateTime": 1519421529373}, {"current_trial": 222, "trialdata": {"rt": -1, "trial_type": "single-stim", "stimulus": "<p id=\"stim\">2</p>", "internal_node_id": "0.0-160.0-8.0", "time_elapsed": 1007087, "key_press": -1, "trial_index": 222}, "uniqueid": "MTK2869:3OONKJ5DKDQQ38G59ZY46DC6YZMBO5", "dateTime": 1519421530373}, {"current_trial": 223, "trialdata": {"rt": -1, "trial_type": "single-stim", "stimulus": "<p id=\"stim\">1</p>", "internal_node_id": "0.0-160.0-9.0", "time_elapsed": 1008089, "key_press": -1, "trial_index": 223}, "uniqueid": "MTK2869:3OONKJ5DKDQQ38G59ZY46DC6YZMBO5", "dateTime": 1519421531375}, {"current_trial": 224, "trialdata": {"rt": -1, "trial_type": "single-stim", "stimulus": "<p id=\"stim\">+</p>", "internal_node_id": "0.0-161.0-0.0", "time_elapsed": 1009590, "key_press": -1, "type": "FIXATION", "trial_index": 224}, "uniqueid": "MTK2869:3OONKJ5DKDQQ38G59ZY46DC6YZMBO5", "dateTime": 1519421532876}, {"current_trial": 225, "trialdata": {"rt": -1000, "trial_type": "single-audio", "word": "quarter", "stimulus": "/static/audio/wordpool/QUARTER.wav", "conditions": [24, 1600, "a", 12000], "internal_node_id": "0.0-162.0", "trial": 6, "time_elapsed": 1012231, "serialpos": 0, "key_press": -1, "wordID": 1147, "type": "PRES_AUD", "trial_index": 225}, "uniqueid": "MTK2869:3OONKJ5DKDQQ38G59ZY46DC6YZMBO5", "dateTime": 1519421535517}, {"current_trial": 226, "trialdata": {"rt": -1000, "trial_type": "single-audio", "word": "rattle", "stimulus": "/static/audio/wordpool/RATTLE.wav", "conditions": [24, 1600, "a", 12000], "internal_node_id": "0.0-163.0", "trial": 6, "time_elapsed": 1014800, "serialpos": 1, "key_press": -1, "wordID": 1169, "type": "PRES_AUD", "trial_index": 226}, "uniqueid": "MTK2869:3OONKJ5DKDQQ38G59ZY46DC6YZMBO5", "dateTime": 1519421538086}, {"current_trial": 227, "trialdata": {"rt": -1000, "trial_type": "single-audio", "word": "mister", "stimulus": "/static/audio/wordpool/MISTER.wav", "conditions": [24, 1600, "a", 12000], "internal_node_id": "0.0-164.0", "trial": 6, "time_elapsed": 1017602, "serialpos": 2, "key_press": -1, "wordID": 900, "type": "PRES_AUD", "trial_index": 227}, "uniqueid": "MTK2869:3OONKJ5DKDQQ38G59ZY46DC6YZMBO5", "dateTime": 1519421540888}, {"current_trial": 228, "trialdata": {"rt": -1000, "trial_type": "single-audio", "word": "belly", "stimulus": "/static/audio/wordpool/BELLY.wav", "conditions": [24, 1600, "a", 12000], "internal_node_id": "0.0-165.0", "trial": 6, "time_elapsed": 1020275, "serialpos": 3, "key_press": -1, "wordID": 118, "type": "PRES_AUD", "trial_index": 228}, "uniqueid": "MTK2869:3OONKJ5DKDQQ38G59ZY46DC6YZMBO5", "dateTime": 1519421543561}, {"current_trial": 229, "trialdata": {"rt": -1000, "trial_type": "single-audio", "word": "lover", "stimulus": "/static/audio/wordpool/LOVER.wav", "conditions": [24, 1600, "a", 12000], "internal_node_id": "0.0-166.0", "trial": 6, "time_elapsed": 1022901, "serialpos": 4, "key_press": -1, "wordID": 845, "type": "PRES_AUD", "trial_index": 229}, "uniqueid": "MTK2869:3OONKJ5DKDQQ38G59ZY46DC6YZMBO5", "dateTime": 1519421546187}, {"current_trial": 230, "trialdata": {"rt": -1000, "trial_type": "single-audio", "word": "omelet", "stimulus": "/static/audio/wordpool/OMELET.wav", "conditions": [24, 1600, "a", 12000], "internal_node_id": "0.0-167.0", "trial": 6, "time_elapsed": 1025335, "serialpos": 5, "key_press": -1, "wordID": 975, "type": "PRES_AUD", "trial_index": 230}, "uniqueid": "MTK2869:3OONKJ5DKDQQ38G59ZY46DC6YZMBO5", "dateTime": 1519421548621}, {"current_trial": 231, "trialdata": {"rt": -1000, "trial_type": "single-audio", "word": "bacon", "stimulus": "/static/audio/wordpool/BACON.wav", "conditions": [24, 1600, "a", 12000], "internal_node_id": "0.0-168.0", "trial": 6, "time_elapsed": 1027973, "serialpos": 6, "key_press": -1, "wordID": 66, "type": "PRES_AUD", "trial_index": 231}, "uniqueid": "MTK2869:3OONKJ5DKDQQ38G59ZY46DC6YZMBO5", "dateTime": 1519421551259}, {"current_trial": 232, "trialdata": {"rt": -1000, "trial_type": "single-audio", "word": "pizza", "stimulus": "/static/audio/wordpool/PIZZA.wav", "conditions": [24, 1600, "a", 12000], "internal_node_id": "0.0-169.0", "trial": 6, "time_elapsed": 1030657, "serialpos": 7, "key_press": -1, "wordID": 1078, "type": "PRES_AUD", "trial_index": 232}, "uniqueid": "MTK2869:3OONKJ5DKDQQ38G59ZY46DC6YZMBO5", "dateTime": 1519421553943}, {"current_trial": 233, "trialdata": {"rt": -1000, "trial_type": "single-audio", "word": "lily", "stimulus": "/static/audio/wordpool/LILY.wav", "conditions": [24, 1600, "a", 12000], "internal_node_id": "0.0-170.0", "trial": 6, "time_elapsed": 1033373, "serialpos": 8, "key_press": -1, "wordID": 820, "type": "PRES_AUD", "trial_index": 233}, "uniqueid": "MTK2869:3OONKJ5DKDQQ38G59ZY46DC6YZMBO5", "dateTime": 1519421556659}, {"current_trial": 234, "trialdata": {"rt": -1000, "trial_type": "single-audio", "word": "onion", "stimulus": "/static/audio/wordpool/ONION.wav", "conditions": [24, 1600, "a", 12000], "internal_node_id": "0.0-171.0", "trial": 6, "time_elapsed": 1036000, "serialpos": 9, "key_press": -1, "wordID": 976, "type": "PRES_AUD", "trial_index": 234}, "uniqueid": "MTK2869:3OONKJ5DKDQQ38G59ZY46DC6YZMBO5", "dateTime": 1519421559286}, {"current_trial": 235, "trialdata": {"rt": -1000, "trial_type": "single-audio", "word": "pasta", "stimulus": "/static/audio/wordpool/PASTA.wav", "conditions": [24, 1600, "a", 12000], "internal_node_id": "0.0-172.0", "trial": 6, "time_elapsed": 1038669, "serialpos": 10, "key_press": -1, "wordID": 1020, "type": "PRES_AUD", "trial_index": 235}, "uniqueid": "MTK2869:3OONKJ5DKDQQ38G59ZY46DC6YZMBO5", "dateTime": 1519421561955}, {"current_trial": 236, "trialdata": {"rt": -1000, "trial_type": "single-audio", "word": "creature", "stimulus": "/static/audio/wordpool/CREATURE.wav", "conditions": [24, 1600, "a", 12000], "internal_node_id": "0.0-173.0", "trial": 6, "time_elapsed": 1041087, "serialpos": 11, "key_press": -1, "wordID": 402, "type": "PRES_AUD", "trial_index": 236}, "uniqueid": "MTK2869:3OONKJ5DKDQQ38G59ZY46DC6YZMBO5", "dateTime": 1519421564374}, {"current_trial": 237, "trialdata": {"rt": -1000, "trial_type": "single-audio", "word": "diver", "stimulus": "/static/audio/wordpool/DIVER.wav", "conditions": [24, 1600, "a", 12000], "internal_node_id": "0.0-174.0", "trial": 6, "time_elapsed": 1043867, "serialpos": 12, "key_press": -1, "wordID": 475, "type": "PRES_AUD", "trial_index": 237}, "uniqueid": "MTK2869:3OONKJ5DKDQQ38G59ZY46DC6YZMBO5", "dateTime": 1519421567153}, {"current_trial": 238, "trialdata": {"rt": -1000, "trial_type": "single-audio", "word": "turnip", "stimulus": "/static/audio/wordpool/TURNIP.wav", "conditions": [24, 1600, "a", 12000], "internal_node_id": "0.0-175.0", "trial": 6, "time_elapsed": 1046612, "serialpos": 13, "key_press": -1, "wordID": 1520, "type": "PRES_AUD", "trial_index": 238}, "uniqueid": "MTK2869:3OONKJ5DKDQQ38G59ZY46DC6YZMBO5", "dateTime": 1519421569898}, {"current_trial": 239, "trialdata": {"rt": -1000, "trial_type": "single-audio", "word": "blender", "stimulus": "/static/audio/wordpool/BLENDER.wav", "conditions": [24, 1600, "a", 12000], "internal_node_id": "0.0-176.0", "trial": 6, "time_elapsed": 1049163, "serialpos": 14, "key_press": -1, "wordID": 135, "type": "PRES_AUD", "trial_index": 239}, "uniqueid": "MTK2869:3OONKJ5DKDQQ38G59ZY46DC6YZMBO5", "dateTime": 1519421572449}, {"current_trial": 240, "trialdata": {"rt": -1000, "trial_type": "single-audio", "word": "skillet", "stimulus": "/static/audio/wordpool/SKILLET.wav", "conditions": [24, 1600, "a", 12000], "internal_node_id": "0.0-177.0", "trial": 6, "time_elapsed": 1051677, "serialpos": 15, "key_press": -1, "wordID": 1316, "type": "PRES_AUD", "trial_index": 240}, "uniqueid": "MTK2869:3OONKJ5DKDQQ38G59ZY46DC6YZMBO5", "dateTime": 1519421574963}, {"current_trial": 241, "trialdata": {"rt": -1000, "trial_type": "single-audio", "word": "patient", "stimulus": "/static/audio/wordpool/PATIENT.wav", "conditions": [24, 1600, "a", 12000], "internal_node_id": "0.0-178.0", "trial": 6, "time_elapsed": 1054373, "serialpos": 16, "key_press": -1, "wordID": 1023, "type": "PRES_AUD", "trial_index": 241}, "uniqueid": "MTK2869:3OONKJ5DKDQQ38G59ZY46DC6YZMBO5", "dateTime": 1519421577660}, {"current_trial": 242, "trialdata": {"rt": -1000, "trial_type": "single-audio", "word": "stomach", "stimulus": "/static/audio/wordpool/STOMACH.wav", "conditions": [24, 1600, "a", 12000], "internal_node_id": "0.0-179.0", "trial": 6, "time_elapsed": 1056820, "serialpos": 17, "key_press": -1, "wordID": 1383, "type": "PRES_AUD", "trial_index": 242}, "uniqueid": "MTK2869:3OONKJ5DKDQQ38G59ZY46DC6YZMBO5", "dateTime": 1519421580106}, {"current_trial": 243, "trialdata": {"rt": -1000, "trial_type": "single-audio", "word": "scalpel", "stimulus": "/static/audio/wordpool/SCALPEL.wav", "conditions": [24, 1600, "a", 12000], "internal_node_id": "0.0-180.0", "trial": 6, "time_elapsed": 1059528, "serialpos": 18, "key_press": -1, "wordID": 1242, "type": "PRES_AUD", "trial_index": 243}, "uniqueid": "MTK2869:3OONKJ5DKDQQ38G59ZY46DC6YZMBO5", "dateTime": 1519421582814}, {"current_trial": 244, "trialdata": {"rt": -1000, "trial_type": "single-audio", "word": "fireman", "stimulus": "/static/audio/wordpool/FIREMAN.wav", "conditions": [24, 1600, "a", 12000], "internal_node_id": "0.0-181.0", "trial": 6, "time_elapsed": 1062325, "serialpos": 19, "key_press": -1, "wordID": 568, "type": "PRES_AUD", "trial_index": 244}, "uniqueid": "MTK2869:3OONKJ5DKDQQ38G59ZY46DC6YZMBO5", "dateTime": 1519421585611}, {"current_trial": 245, "trialdata": {"rt": -1000, "trial_type": "single-audio", "word": "scissors", "stimulus": "/static/audio/wordpool/SCISSORS.wav", "conditions": [24, 1600, "a", 12000], "internal_node_id": "0.0-182.0", "trial": 6, "time_elapsed": 1064993, "serialpos": 20, "key_press": -1, "wordID": 1249, "type": "PRES_AUD", "trial_index": 245}, "uniqueid": "MTK2869:3OONKJ5DKDQQ38G59ZY46DC6YZMBO5", "dateTime": 1519421588279}, {"current_trial": 246, "trialdata": {"rt": -1000, "trial_type": "single-audio", "word": "asia", "stimulus": "/static/audio/wordpool/ASIA.wav", "conditions": [24, 1600, "a", 12000], "internal_node_id": "0.0-183.0", "trial": 6, "time_elapsed": 1067658, "serialpos": 21, "key_press": -1, "wordID": 45, "type": "PRES_AUD", "trial_index": 246}, "uniqueid": "MTK2869:3OONKJ5DKDQQ38G59ZY46DC6YZMBO5", "dateTime": 1519421590944}, {"current_trial": 247, "trialdata": {"rt": -1000, "trial_type": "single-audio", "word": "apron", "stimulus": "/static/audio/wordpool/APRON.wav", "conditions": [24, 1600, "a", 12000], "internal_node_id": "0.0-184.0", "trial": 6, "time_elapsed": 1070343, "serialpos": 22, "key_press": -1, "wordID": 34, "type": "PRES_AUD", "trial_index": 247}, "uniqueid": "MTK2869:3OONKJ5DKDQQ38G59ZY46DC6YZMBO5", "dateTime": 1519421593629}, {"current_trial": 248, "trialdata": {"rt": -1000, "trial_type": "single-audio", "word": "swimmer", "stimulus": "/static/audio/wordpool/SWIMMER.wav", "conditions": [24, 1600, "a", 12000], "internal_node_id": "0.0-185.0", "trial": 6, "time_elapsed": 1073096, "serialpos": 23, "key_press": -1, "wordID": 1419, "type": "PRES_AUD", "trial_index": 248}, "uniqueid": "MTK2869:3OONKJ5DKDQQ38G59ZY46DC6YZMBO5", "dateTime": 1519421596382}, {"current_trial": 249, "trialdata": {"rt": -1, "trial_type": "single-stim", "stimulus": "", 