{"assignmentId": "3IHR8NYAM88O397X9K1WNZBQY7RP4A", "workerId": "MTK2735", "questiondata": {"avail_screen_height": 824, "color_depth": 24, "screen_width": 1536, "pixel_depth": 24, "avail_screen_width": 1536, "screen_height": 864}, "bonus": 0, "hitId": "33IXYHIZB5P8GK5Q6QXVBOJ4FDQE21", "counterbalance": 2288, "useragent": "Mozilla/5.0 (Windows NT 10.0; Win64; x64) AppleWebKit/537.36 (KHTML, like Gecko) Chrome/64.0.3282.167 Safari/537.36", "eventdata": [{"eventtype": "initialized", "interval": 0, "value": null, "timestamp": 1519317885781}, {"eventtype": "window_resize", "interval": 1, "value": [1540, 816], "timestamp": 1519317885782}, {"eventtype": "window_resize", "interval": 3319, "value": [1536, 774], "timestamp": 1519317889101}, {"eventtype": "window_resize", "interval": 1143, "value": [1540, 816], "timestamp": 1519317890244}, {"eventtype": "window_resize", "interval": 122929, "value": [1334, 816], "timestamp": 1519318013173}, {"eventtype": "focus", "interval": 1281, "value": "off", "timestamp": 1519318014454}, {"eventtype": "focus", "interval": 5853, "value": "on", "timestamp": 1519318020307}, {"eventtype": "focus", "interval": 2447, "value": "off", "timestamp": 1519318022754}, {"eventtype": "focus", "interval": 5400, "value": "on", "timestamp": 1519318028154}, {"eventtype": "window_resize", "interval": 256, "value": [1334, 766], "timestamp": 1519318028410}, {"eventtype": "window_resize", "interval": 1135, "value": [1536, 774], "timestamp": 1519318029545}, {"eventtype": "window_resize", "interval": 2462805, "value": [1334, 816], "timestamp": 1519320492350}, {"eventtype": "window_resize", "interval": 8641, "value": [1536, 774], "timestamp": 1519320500991}], "data": [{"current_trial": 0, "trialdata": {"rt": 5340, "trial_type": "text", "internal_node_id": "0.0-0.0", "time_elapsed": 5346, "key_press": 75, "type": "INSTRUCTIONS", "trial_index": 0}, "uniqueid": "MTK2735:3IHR8NYAM88O397X9K1WNZBQY7RP4A", "dateTime": 1519317892258}, {"current_trial": 1, "trialdata": {"rt": 5240, "trial_type": "text", "internal_node_id": "0.0-1.0", "time_elapsed": 10589, "key_press": 175, "type": "INSTRUCTIONS", "trial_index": 1}, "uniqueid": "MTK2735:3IHR8NYAM88O397X9K1WNZBQY7RP4A", "dateTime": 1519317897501}, {"current_trial": 2, "trialdata": {"rt": [22477], "trial_type": "audio-test", "responses": ["ocean"], "internal_node_id": "0.0-2.0", "time_elapsed": 33089, "type": "AUDIO_TEST", "trial_index": 2}, "uniqueid": "MTK2735:3IHR8NYAM88O397X9K1WNZBQY7RP4A", "dateTime": 1519317920000}, {"current_trial": 3, "trialdata": {"rt": [10769], "trial_type": "audio-test", "responses": ["crystal"], "internal_node_id": "0.0-3.0", "time_elapsed": 43864, "type": "AUDIO_TEST", "trial_index": 3}, "uniqueid": "MTK2735:3IHR8NYAM88O397X9K1WNZBQY7RP4A", "dateTime": 1519317930775}, {"current_trial": 4, "trialdata": {"rt": [4929], "trial_type": "audio-test", "responses": ["spice"], "internal_node_id": "0.0-4.0", "time_elapsed": 48797, "type": "AUDIO_TEST", "trial_index": 4}, "uniqueid": "MTK2735:3IHR8NYAM88O397X9K1WNZBQY7RP4A", "dateTime": 1519317935708}, {"current_trial": 5, "trialdata": {"rt": 22319, "trial_type": "survey-text", "responses": "{\"Q0\":\"2:30 AM\",\"Q1\":\"6:15 AM\",\"Q2\":\"4\"}", "internal_node_id": "0.0-5.0", "time_elapsed": 71871, "type": "SLEEP_SURVEY", "trial_index": 5}, "uniqueid": "MTK2735:3IHR8NYAM88O397X9K1WNZBQY7RP4A", "dateTime": 1519317958782}, {"current_trial": 6, "trialdata": {"rt": 71746, "trial_type": "text", "internal_node_id": "0.0-6.0", "time_elapsed": 144623, "key_press": 40, "type": "INSTRUCTIONS", "trial_index": 6}, "uniqueid": "MTK2735:3IHR8NYAM88O397X9K1WNZBQY7RP4A", "dateTime": 1519318031534}, {"current_trial": 7, "trialdata": {"rt": 23543, "trial_type": "text", "internal_node_id": "0.0-7.0", "time_elapsed": 168671, "key_press": 32, "type": "INSTRUCTIONS", "trial_index": 7}, "uniqueid": "MTK2735:3IHR8NYAM88O397X9K1WNZBQY7RP4A", "dateTime": 1519318055582}, {"current_trial": 8, "trialdata": {"rt": 15450, "trial_type": "text", "internal_node_id": "0.0-8.0", "time_elapsed": 184623, "key_press": 32, "type": "INSTRUCTIONS", "trial_index": 8}, "uniqueid": "MTK2735:3IHR8NYAM88O397X9K1WNZBQY7RP4A", "dateTime": 1519318071534}, {"current_trial": 9, "trialdata": {"rt": [5959, 18002], "trial_type": "math-distractor", "key_times": [4830, 5103, 5959, 16804, 16975, 18002], "responses": ["13", "20"], "num2": [3, 8, 8], "num3": [8, 8, 7], "conditions": [18, 1200, "v", 18000], "internal_node_id": "0.0-9.0", "key_presses": [49, 51, 13, 50, 48, 13], "trial": 0, "time_elapsed": 203637, "type": "DISTRACTOR", "trial_index": 9, "num1": [2, 4, 5]}, "uniqueid": "MTK2735:3IHR8NYAM88O397X9K1WNZBQY7RP4A", "dateTime": 1519318090548}, {"current_trial": 10, "trialdata": {"rt": -1, "trial_type": "single-stim", "stimulus": "<p id=\"stim\">10</p>", "internal_node_id": "0.0-10.0-0.0", "time_elapsed": 206645, "key_press": -1, "trial_index": 10}, "uniqueid": "MTK2735:3IHR8NYAM88O397X9K1WNZBQY7RP4A", "dateTime": 1519318093556}, {"current_trial": 11, "trialdata": {"rt": -1, "trial_type": "single-stim", "stimulus": "<p id=\"stim\">9</p>", "internal_node_id": "0.0-10.0-1.0", "time_elapsed": 207646, "key_press": -1, "trial_index": 11}, "uniqueid": "MTK2735:3IHR8NYAM88O397X9K1WNZBQY7RP4A", "dateTime": 1519318094558}, {"current_trial": 12, "trialdata": {"rt": -1, "trial_type": "single-stim", "stimulus": "<p id=\"stim\">8</p>", "internal_node_id": "0.0-10.0-2.0", "time_elapsed": 208649, "key_press": -1, "trial_index": 12}, "uniqueid": "MTK2735:3IHR8NYAM88O397X9K1WNZBQY7RP4A", "dateTime": 1519318095560}, {"current_trial": 13, "trialdata": {"rt": -1, "trial_type": "single-stim", "stimulus": "<p id=\"stim\">7</p>", "internal_node_id": "0.0-10.0-3.0", "time_elapsed": 209656, "key_press": -1, "trial_index": 13}, "uniqueid": "MTK2735:3IHR8NYAM88O397X9K1WNZBQY7RP4A", "dateTime": 1519318096567}, {"current_trial": 14, "trialdata": {"rt": -1, "trial_type": "single-stim", "stimulus": "<p id=\"stim\">6</p>", "internal_node_id": "0.0-10.0-4.0", "time_elapsed": 210661, "key_press": -1, "trial_index": 14}, "uniqueid": "MTK2735:3IHR8NYAM88O397X9K1WNZBQY7RP4A", "dateTime": 1519318097572}, {"current_trial": 15, "trialdata": {"rt": -1, "trial_type": "single-stim", "stimulus": "<p id=\"stim\">5</p>", "internal_node_id": "0.0-10.0-5.0", "time_elapsed": 211666, "key_press": -1, "trial_index": 15}, "uniqueid": "MTK2735:3IHR8NYAM88O397X9K1WNZBQY7RP4A", "dateTime": 1519318098577}, {"current_trial": 16, "trialdata": {"rt": -1, "trial_type": "single-stim", "stimulus": "<p id=\"stim\">4</p>", "internal_node_id": "0.0-10.0-6.0", "time_elapsed": 212667, "key_press": -1, "trial_index": 16}, "uniqueid": "MTK2735:3IHR8NYAM88O397X9K1WNZBQY7RP4A", "dateTime": 1519318099578}, {"current_trial": 17, "trialdata": {"rt": -1, "trial_type": "single-stim", "stimulus": "<p id=\"stim\">3</p>", "internal_node_id": "0.0-10.0-7.0", "time_elapsed": 213670, "key_press": -1, "trial_index": 17}, "uniqueid": "MTK2735:3IHR8NYAM88O397X9K1WNZBQY7RP4A", "dateTime": 1519318100581}, {"current_trial": 18, "trialdata": {"rt": -1, "trial_type": "single-stim", "stimulus": "<p id=\"stim\">2</p>", "internal_node_id": "0.0-10.0-8.0", "time_elapsed": 214675, "key_press": -1, "trial_index": 18}, "uniqueid": "MTK2735:3IHR8NYAM88O397X9K1WNZBQY7RP4A", "dateTime": 1519318101586}, {"current_trial": 19, "trialdata": {"rt": -1, "trial_type": "single-stim", "stimulus": "<p id=\"stim\">1</p>", "internal_node_id": "0.0-10.0-9.0", "time_elapsed": 215680, "key_press": -1, "trial_index": 19}, "uniqueid": "MTK2735:3IHR8NYAM88O397X9K1WNZBQY7RP4A", "dateTime": 1519318102591}, {"current_trial": 20, "trialdata": {"rt": -1, "trial_type": "single-stim", "stimulus": "<p id=\"stim\">+</p>", "internal_node_id": "0.0-11.0-0.0", "time_elapsed": 217185, "key_press": -1, "type": "FIXATION", "trial_index": 20}, "uniqueid": "MTK2735:3IHR8NYAM88O397X9K1WNZBQY7RP4A", "dateTime": 1519318104096}, {"current_trial": 21, "trialdata": {"rt": -1, "trial_type": "single-stim", "word": "grill", "stimulus": "<p id=\"stim\">GRILL</p>", "conditions": [18, 1200, "v", 18000], "internal_node_id": "0.0-12.0", "trial": 0, "time_elapsed": 218388, "serialpos": 0, "key_press": -1, "wordID": 660, "type": "PRES_VIS", "trial_index": 21}, "uniqueid": "MTK2735:3IHR8NYAM88O397X9K1WNZBQY7RP4A", "dateTime": 1519318105299}, {"current_trial": 22, "trialdata": {"rt": -1, "trial_type": "single-stim", "word": "rocket", "stimulus": "<p id=\"stim\">ROCKET</p>", "conditions": [18, 1200, "v", 18000], "internal_node_id": "0.0-13.0", "trial": 0, "time_elapsed": 220602, "serialpos": 1, "key_press": -1, "wordID": 1201, "type": "PRES_VIS", "trial_index": 22}, "uniqueid": "MTK2735:3IHR8NYAM88O397X9K1WNZBQY7RP4A", "dateTime": 1519318107513}, {"current_trial": 23, "trialdata": {"rt": -1, "trial_type": "single-stim", "word": "creature", "stimulus": "<p id=\"stim\">CREATURE</p>", "conditions": [18, 1200, "v", 18000], "internal_node_id": "0.0-14.0", "trial": 0, "time_elapsed": 222943, "serialpos": 2, "key_press": -1, "wordID": 402, "type": "PRES_VIS", "trial_index": 23}, "uniqueid": "MTK2735:3IHR8NYAM88O397X9K1WNZBQY7RP4A", "dateTime": 1519318109854}, {"current_trial": 24, "trialdata": {"rt": -1, "trial_type": "single-stim", "word": "stone", "stimulus": "<p id=\"stim\">STONE</p>", "conditions": [18, 1200, "v", 18000], "internal_node_id": "0.0-15.0", "trial": 0, "time_elapsed": 225199, "serialpos": 3, "key_press": -1, "wordID": 1384, "type": "PRES_VIS", "trial_index": 24}, "uniqueid": "MTK2735:3IHR8NYAM88O397X9K1WNZBQY7RP4A", "dateTime": 1519318112111}, {"current_trial": 25, "trialdata": {"rt": -1, "trial_type": "single-stim", "word": "salt", "stimulus": "<p id=\"stim\">SALT</p>", "conditions": [18, 1200, "v", 18000], "internal_node_id": "0.0-16.0", "trial": 0, "time_elapsed": 227318, "serialpos": 4, "key_press": -1, "wordID": 1228, "type": "PRES_VIS", "trial_index": 25}, "uniqueid": "MTK2735:3IHR8NYAM88O397X9K1WNZBQY7RP4A", "dateTime": 1519318114229}, {"current_trial": 26, "trialdata": {"rt": -1, "trial_type": "single-stim", "word": "tweezers", "stimulus": "<p id=\"stim\">TWEEZERS</p>", "conditions": [18, 1200, "v", 18000], "internal_node_id": "0.0-17.0", "trial": 0, "time_elapsed": 229430, "serialpos": 5, "key_press": -1, "wordID": 1525, "type": "PRES_VIS", "trial_index": 26}, "uniqueid": "MTK2735:3IHR8NYAM88O397X9K1WNZBQY7RP4A", "dateTime": 1519318116341}, {"current_trial": 27, "trialdata": {"rt": -1, "trial_type": "single-stim", "word": "briefcase", "stimulus": "<p id=\"stim\">BRIEFCASE</p>", "conditions": [18, 1200, "v", 18000], "internal_node_id": "0.0-18.0", "trial": 0, "time_elapsed": 231495, "serialpos": 6, "key_press": -1, "wordID": 174, "type": "PRES_VIS", "trial_index": 27}, "uniqueid": "MTK2735:3IHR8NYAM88O397X9K1WNZBQY7RP4A", "dateTime": 1519318118406}, {"current_trial": 28, "trialdata": {"rt": -1, "trial_type": "single-stim", "word": "badge", "stimulus": "<p id=\"stim\">BADGE</p>", "conditions": [18, 1200, "v", 18000], "internal_node_id": "0.0-19.0", "trial": 0, "time_elapsed": 233901, "serialpos": 7, "key_press": -1, "wordID": 67, "type": "PRES_VIS", "trial_index": 28}, "uniqueid": "MTK2735:3IHR8NYAM88O397X9K1WNZBQY7RP4A", "dateTime": 1519318120812}, {"current_trial": 29, "trialdata": {"rt": -1, "trial_type": "single-stim", "word": "basement", "stimulus": "<p id=\"stim\">BASEMENT</p>", "conditions": [18, 1200, "v", 18000], "internal_node_id": "0.0-20.0", "trial": 0, "time_elapsed": 236137, "serialpos": 8, "key_press": -1, "wordID": 93, "type": "PRES_VIS", "trial_index": 29}, "uniqueid": "MTK2735:3IHR8NYAM88O397X9K1WNZBQY7RP4A", "dateTime": 1519318123049}, {"current_trial": 30, "trialdata": {"rt": -1, "trial_type": "single-stim", "word": "marker", "stimulus": "<p id=\"stim\">MARKER</p>", "conditions": [18, 1200, "v", 18000], "internal_node_id": "0.0-21.0", "trial": 0, "time_elapsed": 238312, "serialpos": 9, "key_press": -1, "wordID": 869, "type": "PRES_VIS", "trial_index": 30}, "uniqueid": "MTK2735:3IHR8NYAM88O397X9K1WNZBQY7RP4A", "dateTime": 1519318125223}, {"current_trial": 31, "trialdata": {"rt": -1, "trial_type": "single-stim", "word": "dust", "stimulus": "<p id=\"stim\">DUST</p>", "conditions": [18, 1200, "v", 18000], "internal_node_id": "0.0-22.0", "trial": 0, "time_elapsed": 240557, "serialpos": 10, "key_press": -1, "wordID": 507, "type": "PRES_VIS", "trial_index": 31}, "uniqueid": "MTK2735:3IHR8NYAM88O397X9K1WNZBQY7RP4A", "dateTime": 1519318127468}, {"current_trial": 32, "trialdata": {"rt": -1, "trial_type": "single-stim", "word": "spouse", "stimulus": "<p id=\"stim\">SPOUSE</p>", "conditions": [18, 1200, "v", 18000], "internal_node_id": "0.0-23.0", "trial": 0, "time_elapsed": 242800, "serialpos": 11, "key_press": -1, "wordID": 1357, "type": "PRES_VIS", "trial_index": 32}, "uniqueid": "MTK2735:3IHR8NYAM88O397X9K1WNZBQY7RP4A", "dateTime": 1519318129711}, {"current_trial": 33, "trialdata": {"rt": -1, "trial_type": "single-stim", "word": "taxi", "stimulus": "<p id=\"stim\">TAXI</p>", "conditions": [18, 1200, "v", 18000], "internal_node_id": "0.0-24.0", "trial": 0, "time_elapsed": 244963, "serialpos": 12, "key_press": -1, "wordID": 1437, "type": "PRES_VIS", "trial_index": 33}, "uniqueid": "MTK2735:3IHR8NYAM88O397X9K1WNZBQY7RP4A", "dateTime": 1519318131875}, {"current_trial": 34, "trialdata": {"rt": -1, "trial_type": "single-stim", "word": "hatchet", "stimulus": "<p id=\"stim\">HATCHET</p>", "conditions": [18, 1200, "v", 18000], "internal_node_id": "0.0-25.0", "trial": 0, "time_elapsed": 247350, "serialpos": 13, "key_press": -1, "wordID": 690, "type": "PRES_VIS", "trial_index": 34}, "uniqueid": "MTK2735:3IHR8NYAM88O397X9K1WNZBQY7RP4A", "dateTime": 1519318134262}, {"current_trial": 35, "trialdata": {"rt": -1, "trial_type": "single-stim", "word": "frame", "stimulus": "<p id=\"stim\">FRAME</p>", "conditions": [18, 1200, "v", 18000], "internal_node_id": "0.0-26.0", "trial": 0, "time_elapsed": 249508, "serialpos": 14, "key_press": -1, "wordID": 599, "type": "PRES_VIS", "trial_index": 35}, "uniqueid": "MTK2735:3IHR8NYAM88O397X9K1WNZBQY7RP4A", "dateTime": 1519318136420}, {"current_trial": 36, "trialdata": {"rt": -1, "trial_type": "single-stim", "word": "uncle", "stimulus": "<p id=\"stim\">UNCLE</p>", "conditions": [18, 1200, "v", 18000], "internal_node_id": "0.0-27.0", "trial": 0, "time_elapsed": 251859, "serialpos": 15, "key_press": -1, "wordID": 1535, "type": "PRES_VIS", "trial_index": 36}, "uniqueid": "MTK2735:3IHR8NYAM88O397X9K1WNZBQY7RP4A", "dateTime": 1519318138770}, {"current_trial": 37, "trialdata": {"rt": -1, "trial_type": "single-stim", "word": "france", "stimulus": "<p id=\"stim\">FRANCE</p>", "conditions": [18, 1200, "v", 18000], "internal_node_id": "0.0-28.0", "trial": 0, "time_elapsed": 253984, "serialpos": 16, "key_press": -1, "wordID": 600, "type": "PRES_VIS", "trial_index": 37}, "uniqueid": "MTK2735:3IHR8NYAM88O397X9K1WNZBQY7RP4A", "dateTime": 1519318140895}, {"current_trial": 38, "trialdata": {"rt": -1, "trial_type": "single-stim", "word": "xerox", "stimulus": "<p id=\"stim\">XEROX</p>", "conditions": [18, 1200, "v", 18000], "internal_node_id": "0.0-29.0", "trial": 0, "time_elapsed": 256262, "serialpos": 17, "key_press": -1, "wordID": 1627, "type": "PRES_VIS", "trial_index": 38}, "uniqueid": "MTK2735:3IHR8NYAM88O397X9K1WNZBQY7RP4A", "dateTime": 1519318143173}, {"current_trial": 39, "trialdata": {"rt": -1, "trial_type": "single-stim", "stimulus": "", "internal_node_id": "0.0-30.0-0.0", "time_elapsed": 258440, "key_press": -1, "type": "PRE_RECALL_DELAY", "trial_index": 39}, "uniqueid": "MTK2735:3IHR8NYAM88O397X9K1WNZBQY7RP4A", "dateTime": 1519318145351}, {"current_trial": 40, "trialdata": {"rt": -1000, "trial_type": "single-audio", "stimulus": "/static/audio/400Hz.wav", "internal_node_id": "0.0-31.0", "time_elapsed": 258951, "key_press": -1, "type": "PRE_RECALL_ALERT", "trial_index": 40}, "uniqueid": "MTK2735:3IHR8NYAM88O397X9K1WNZBQY7RP4A", "dateTime": 1519318145862}, {"current_trial": 41, "trialdata": {"rt": [4860, 6198, 9136, 9751, 14168, 16665, 33029, 50308], "recwords": ["xerox", "spouse", "hatchet", "dust", "grill", "tweezers", "france", "uncle"], "key_times": [2817, 3247, 3423, 3686, 4143, 4860, 5201, 5336, 5471, 5660, 5859, 5997, 6198, 6455, 6566, 6712, 6893, 7022, 7144, 7343, 9136, 9309, 9429, 9494, 9632, 9751, 12998, 13173, 13247, 13409, 13980, 14168, 15354, 15501, 15712, 15855, 16049, 16261, 16358, 16504, 16665, 31809, 31997, 32098, 32259, 32406, 32789, 33029, 49583, 49793, 49934, 50030, 50174, 50308], "trial_type": "free-recall", "conditions": [18, 1200, "v", 18000], "internal_node_id": "0.0-32.0-0.0", "key_presses": [88, 69, 82, 79, 88, 13, 83, 80, 79, 85, 83, 69, 13, 72, 65, 84, 67, 72, 69, 84, 13, 68, 85, 83, 84, 13, 71, 82, 73, 76, 76, 13, 84, 87, 69, 69, 90, 69, 82, 83, 13, 70, 82, 65, 78, 67, 69, 13, 85, 78, 67, 76, 69, 13], "trial": 0, "time_elapsed": 318960, "type": "FREE_RECALL", "trial_index": 41}, "uniqueid": "MTK2735:3IHR8NYAM88O397X9K1WNZBQY7RP4A", "dateTime": 1519318205873}, {"current_trial": 42, "trialdata": {"rt": 1227, "trial_type": "text", "internal_node_id": "0.0-33.0", "time_elapsed": 322193, "key_press": 74, "type": "INSTRUCTIONS", "trial_index": 42}, "uniqueid": "MTK2735:3IHR8NYAM88O397X9K1WNZBQY7RP4A", "dateTime": 1519318209104}, {"current_trial": 43, "trialdata": {"rt": [2244, 6301, 8979, 13042, 16130], "trial_type": "math-distractor", "key_times": [1582, 1727, 2244, 5768, 5877, 6301, 8625, 8821, 8979, 11909, 12182, 13042, 14547, 14781, 15342, 15881, 16130], "responses": ["13", "17", "11", "20", "16"], "num2": [3, 9, 7, 7, 1, 2], "num3": [5, 3, 3, 6, 8, 7], "conditions": [18, 1200, "v", 18000], "internal_node_id": "0.0-34.0", "key_presses": [49, 51, 13, 49, 55, 13, 49, 49, 13, 50, 48, 13, 49, 55, 8, 54, 13], "trial": 1, "time_elapsed": 342200, "type": "DISTRACTOR", "trial_index": 43, "num1": [5, 5, 1, 7, 7, 9]}, "uniqueid": "MTK2735:3IHR8NYAM88O397X9K1WNZBQY7RP4A", "dateTime": 1519318229111}, {"current_trial": 44, "trialdata": {"rt": -1, "trial_type": "single-stim", "stimulus": "<p id=\"stim\">10</p>", "internal_node_id": "0.0-35.0-0.0", "time_elapsed": 345207, "key_press": -1, "trial_index": 44}, "uniqueid": "MTK2735:3IHR8NYAM88O397X9K1WNZBQY7RP4A", "dateTime": 1519318232118}, {"current_trial": 45, "trialdata": {"rt": -1, "trial_type": "single-stim", "stimulus": "<p id=\"stim\">9</p>", "internal_node_id": "0.0-35.0-1.0", "time_elapsed": 346209, "key_press": -1, "trial_index": 45}, "uniqueid": "MTK2735:3IHR8NYAM88O397X9K1WNZBQY7RP4A", "dateTime": 1519318233120}, {"current_trial": 46, "trialdata": {"rt": -1, "trial_type": "single-stim", "stimulus": "<p id=\"stim\">8</p>", "internal_node_id": "0.0-35.0-2.0", "time_elapsed": 347212, "key_press": -1, "trial_index": 46}, "uniqueid": "MTK2735:3IHR8NYAM88O397X9K1WNZBQY7RP4A", "dateTime": 1519318234124}, {"current_trial": 47, "trialdata": {"rt": -1, "trial_type": "single-stim", "stimulus": "<p id=\"stim\">7</p>", "internal_node_id": "0.0-35.0-3.0", "time_elapsed": 348214, "key_press": -1, "trial_index": 47}, "uniqueid": "MTK2735:3IHR8NYAM88O397X9K1WNZBQY7RP4A", "dateTime": 1519318235125}, {"current_trial": 48, "trialdata": {"rt": -1, "trial_type": "single-stim", "stimulus": "<p id=\"stim\">6</p>", "internal_node_id": "0.0-35.0-4.0", "time_elapsed": 349216, "key_press": -1, "trial_index": 48}, "uniqueid": "MTK2735:3IHR8NYAM88O397X9K1WNZBQY7RP4A", "dateTime": 1519318236128}, {"current_trial": 49, "trialdata": {"rt": -1, "trial_type": "single-stim", "stimulus": "<p id=\"stim\">5</p>", "internal_node_id": "0.0-35.0-5.0", "time_elapsed": 350218, "key_press": -1, "trial_index": 49}, "uniqueid": "MTK2735:3IHR8NYAM88O397X9K1WNZBQY7RP4A", "dateTime": 1519318237129}, {"current_trial": 50, "trialdata": {"rt": -1, "trial_type": "single-stim", "stimulus": "<p id=\"stim\">4</p>", "internal_node_id": "0.0-35.0-6.0", "time_elapsed": 351220, "key_press": -1, "trial_index": 50}, "uniqueid": "MTK2735:3IHR8NYAM88O397X9K1WNZBQY7RP4A", "dateTime": 1519318238131}, {"current_trial": 51, "trialdata": {"rt": -1, "trial_type": "single-stim", "stimulus": "<p id=\"stim\">3</p>", "internal_node_id": "0.0-35.0-7.0", "time_elapsed": 352224, "key_press": -1, "trial_index": 51}, "uniqueid": "MTK2735:3IHR8NYAM88O397X9K1WNZBQY7RP4A", "dateTime": 1519318239135}, {"current_trial": 52, "trialdata": {"rt": -1, "trial_type": "single-stim", "stimulus": "<p id=\"stim\">2</p>", "internal_node_id": "0.0-35.0-8.0", "time_elapsed": 353226, "key_press": -1, "trial_index": 52}, "uniqueid": "MTK2735:3IHR8NYAM88O397X9K1WNZBQY7RP4A", "dateTime": 1519318240137}, {"current_trial": 53, "trialdata": {"rt": -1, "trial_type": "single-stim", "stimulus": "<p id=\"stim\">1</p>", "internal_node_id": "0.0-35.0-9.0", "time_elapsed": 354230, "key_press": -1, "trial_index": 53}, "uniqueid": "MTK2735:3IHR8NYAM88O397X9K1WNZBQY7RP4A", "dateTime": 1519318241142}, {"current_trial": 54, "trialdata": {"rt": -1, "trial_type": "single-stim", "stimulus": "<p id=\"stim\">+</p>", "internal_node_id": "0.0-36.0-0.0", "time_elapsed": 355736, "key_press": -1, "type": "FIXATION", "trial_index": 54}, "uniqueid": "MTK2735:3IHR8NYAM88O397X9K1WNZBQY7RP4A", "dateTime": 1519318242647}, {"current_trial": 55, "trialdata": {"rt": -1, "trial_type": "single-stim", "word": "report", "stimulus": "<p id=\"stim\">REPORT</p>", "conditions": [18, 1200, "v", 18000], "internal_node_id": "0.0-37.0", "trial": 1, "time_elapsed": 356941, "serialpos": 0, "key_press": -1, "wordID": 1183, "type": "PRES_VIS", "trial_index": 55}, "uniqueid": "MTK2735:3IHR8NYAM88O397X9K1WNZBQY7RP4A", "dateTime": 1519318243852}, {"current_trial": 56, "trialdata": {"rt": -1, "trial_type": "single-stim", "word": "football", "stimulus": "<p id=\"stim\">FOOTBALL</p>", "conditions": [18, 1200, "v", 18000], "internal_node_id": "0.0-38.0", "trial": 1, "time_elapsed": 359306, "serialpos": 1, "key_press": -1, "wordID": 590, "type": "PRES_VIS", "trial_index": 56}, "uniqueid": "MTK2735:3IHR8NYAM88O397X9K1WNZBQY7RP4A", "dateTime": 1519318246217}, {"current_trial": 57, "trialdata": {"rt": -1, "trial_type": "single-stim", "word": "typist", "stimulus": "<p id=\"stim\">TYPIST</p>", "conditions": [18, 1200, "v", 18000], "internal_node_id": "0.0-39.0", "trial": 1, "time_elapsed": 361398, "serialpos": 2, "key_press": -1, "wordID": 1531, "type": "PRES_VIS", "trial_index": 57}, "uniqueid": "MTK2735:3IHR8NYAM88O397X9K1WNZBQY7RP4A", "dateTime": 1519318248309}, {"current_trial": 58, "trialdata": {"rt": -1, "trial_type": "single-stim", "word": "pastry", "stimulus": "<p id=\"stim\">PASTRY</p>", "conditions": [18, 1200, "v", 18000], "internal_node_id": "0.0-40.0", "trial": 1, "time_elapsed": 363792, "serialpos": 3, "key_press": -1, "wordID": 1021, "type": "PRES_VIS", "trial_index": 58}, "uniqueid": "MTK2735:3IHR8NYAM88O397X9K1WNZBQY7RP4A", "dateTime": 1519318250703}, {"current_trial": 59, "trialdata": {"rt": -1, "trial_type": "single-stim", "word": "princess", "stimulus": "<p id=\"stim\">PRINCESS</p>", "conditions": [18, 1200, "v", 18000], "internal_node_id": "0.0-41.0", "trial": 1, "time_elapsed": 365929, "serialpos": 4, "key_press": -1, "wordID": 1124, "type": "PRES_VIS", "trial_index": 59}, "uniqueid": "MTK2735:3IHR8NYAM88O397X9K1WNZBQY7RP4A", "dateTime": 1519318252840}, {"current_trial": 60, "trialdata": {"rt": -1, "trial_type": "single-stim", "word": "fragrance", "stimulus": "<p id=\"stim\">FRAGRANCE</p>", "conditions": [18, 1200, "v", 18000], "internal_node_id": "0.0-42.0", "trial": 1, "time_elapsed": 368080, "serialpos": 5, "key_press": -1, "wordID": 598, "type": "PRES_VIS", "trial_index": 60}, "uniqueid": "MTK2735:3IHR8NYAM88O397X9K1WNZBQY7RP4A", "dateTime": 1519318254991}, {"current_trial": 61, "trialdata": {"rt": -1, "trial_type": "single-stim", "word": "tuba", "stimulus": "<p id=\"stim\">TUBA</p>", "conditions": [18, 1200, "v", 18000], "internal_node_id": "0.0-43.0", "trial": 1, "time_elapsed": 370135, "serialpos": 6, "key_press": -1, "wordID": 1514, "type": "PRES_VIS", "trial_index": 61}, "uniqueid": "MTK2735:3IHR8NYAM88O397X9K1WNZBQY7RP4A", "dateTime": 1519318257046}, {"current_trial": 62, "trialdata": {"rt": -1, "trial_type": "single-stim", "word": "rebel", "stimulus": "<p id=\"stim\">REBEL</p>", "conditions": [18, 1200, "v", 18000], "internal_node_id": "0.0-44.0", "trial": 1, "time_elapsed": 372472, "serialpos": 7, "key_press": -1, "wordID": 1171, "type": "PRES_VIS", "trial_index": 62}, "uniqueid": "MTK2735:3IHR8NYAM88O397X9K1WNZBQY7RP4A", "dateTime": 1519318259383}, {"current_trial": 63, "trialdata": {"rt": -1, "trial_type": "single-stim", "word": "pepper", "stimulus": "<p id=\"stim\">PEPPER</p>", "conditions": [18, 1200, "v", 18000], "internal_node_id": "0.0-45.0", "trial": 1, "time_elapsed": 374613, "serialpos": 8, "key_press": -1, "wordID": 1046, "type": "PRES_VIS", "trial_index": 63}, "uniqueid": "MTK2735:3IHR8NYAM88O397X9K1WNZBQY7RP4A", "dateTime": 1519318261524}, {"current_trial": 64, "trialdata": {"rt": -1, "trial_type": "single-stim", "word": "table", "stimulus": "<p id=\"stim\">TABLE</p>", "conditions": [18, 1200, "v", 18000], "internal_node_id": "0.0-46.0", "trial": 1, "time_elapsed": 376732, "serialpos": 9, "key_press": -1, "wordID": 1425, "type": "PRES_VIS", "trial_index": 64}, "uniqueid": "MTK2735:3IHR8NYAM88O397X9K1WNZBQY7RP4A", "dateTime": 1519318263643}, {"current_trial": 65, "trialdata": {"rt": -1, "trial_type": "single-stim", "word": "sword", "stimulus": "<p id=\"stim\">SWORD</p>", "conditions": [18, 1200, "v", 18000], "internal_node_id": "0.0-47.0", "trial": 1, "time_elapsed": 378896, "serialpos": 10, "key_press": -1, "wordID": 1422, "type": "PRES_VIS", "trial_index": 65}, "uniqueid": "MTK2735:3IHR8NYAM88O397X9K1WNZBQY7RP4A", "dateTime": 1519318265808}, {"current_trial": 66, "trialdata": {"rt": -1, "trial_type": "single-stim", "word": "seafood", "stimulus": "<p id=\"stim\">SEAFOOD</p>", "conditions": [18, 1200, "v", 18000], "internal_node_id": "0.0-48.0", "trial": 1, "time_elapsed": 381065, "serialpos": 11, "key_press": -1, "wordID": 1259, "type": "PRES_VIS", "trial_index": 66}, "uniqueid": "MTK2735:3IHR8NYAM88O397X9K1WNZBQY7RP4A", "dateTime": 1519318267976}, {"current_trial": 67, "trialdata": {"rt": -1, "trial_type": "single-stim", "word": "expert", "stimulus": "<p id=\"stim\">EXPERT</p>", "conditions": [18, 1200, "v", 18000], "internal_node_id": "0.0-49.0", "trial": 1, "time_elapsed": 383330, "serialpos": 12, "key_press": -1, "wordID": 542, "type": "PRES_VIS", "trial_index": 67}, "uniqueid": "MTK2735:3IHR8NYAM88O397X9K1WNZBQY7RP4A", "dateTime": 1519318270241}, {"current_trial": 68, "trialdata": {"rt": -1, "trial_type": "single-stim", "word": "convict", "stimulus": "<p id=\"stim\">CONVICT</p>", "conditions": [18, 1200, "v", 18000], "internal_node_id": "0.0-50.0", "trial": 1, "time_elapsed": 385496, "serialpos": 13, "key_press": -1, "wordID": 370, "type": "PRES_VIS", "trial_index": 68}, "uniqueid": "MTK2735:3IHR8NYAM88O397X9K1WNZBQY7RP4A", "dateTime": 1519318272410}, {"current_trial": 69, "trialdata": {"rt": -1, "trial_type": "single-stim", "word": "message", "stimulus": "<p id=\"stim\">MESSAGE</p>", "conditions": [18, 1200, "v", 18000], "internal_node_id": "0.0-51.0", "trial": 1, "time_elapsed": 387549, "serialpos": 14, "key_press": -1, "wordID": 887, "type": "PRES_VIS", "trial_index": 69}, "uniqueid": "MTK2735:3IHR8NYAM88O397X9K1WNZBQY7RP4A", "dateTime": 1519318274460}, {"current_trial": 70, "trialdata": {"rt": -1, "trial_type": "single-stim", "word": "mister", "stimulus": "<p id=\"stim\">MISTER</p>", "conditions": [18, 1200, "v", 18000], "internal_node_id": "0.0-52.0", "trial": 1, "time_elapsed": 389820, "serialpos": 15, "key_press": -1, "wordID": 900, "type": "PRES_VIS", "trial_index": 70}, "uniqueid": "MTK2735:3IHR8NYAM88O397X9K1WNZBQY7RP4A", "dateTime": 1519318276731}, {"current_trial": 71, "trialdata": {"rt": -1, "trial_type": "single-stim", "word": "hero", "stimulus": "<p id=\"stim\">HERO</p>", "conditions": [18, 1200, "v", 18000], "internal_node_id": "0.0-53.0", "trial": 1, "time_elapsed": 391997, "serialpos": 16, "key_press": -1, "wordID": 705, "type": "PRES_VIS", "trial_index": 71}, "uniqueid": "MTK2735:3IHR8NYAM88O397X9K1WNZBQY7RP4A", "dateTime": 1519318278908}, {"current_trial": 72, "trialdata": {"rt": -1, "trial_type": "single-stim", "word": "lover", "stimulus": "<p id=\"stim\">LOVER</p>", "conditions": [18, 1200, "v", 18000], "internal_node_id": "0.0-54.0", "trial": 1, "time_elapsed": 394315, "serialpos": 17, "key_press": -1, "wordID": 845, "type": "PRES_VIS", "trial_index": 72}, "uniqueid": "MTK2735:3IHR8NYAM88O397X9K1WNZBQY7RP4A", "dateTime": 1519318281226}, {"current_trial": 73, "trialdata": {"rt": -1, "trial_type": "single-stim", "stimulus": "", "internal_node_id": "0.0-55.0-0.0", "time_elapsed": 396388, "key_press": -1, "type": "PRE_RECALL_DELAY", "trial_index": 73}, "uniqueid": "MTK2735:3IHR8NYAM88O397X9K1WNZBQY7RP4A", "dateTime": 1519318283299}, {"current_trial": 74, "trialdata": {"rt": -1000, "trial_type": "single-audio", "stimulus": "/static/audio/400Hz.wav", "internal_node_id": "0.0-56.0", "time_elapsed": 396891, "key_press": -1, "type": "PRE_RECALL_ALERT", "trial_index": 74}, "uniqueid": "MTK2735:3IHR8NYAM88O397X9K1WNZBQY7RP4A", "dateTime": 1519318283802}, {"current_trial": 75, "trialdata": {"rt": [2636, 4011, 5321, 6942, 9366, 10655, 21978, 26407], "recwords": ["lover", "typist", "expert", "football", "message", "lover", "sword", "hero"], "key_times": [941, 1117, 2015, 2191, 2302, 2636, 2917, 2999, 3164, 3354, 3456, 3641, 4011, 4207, 4394, 4505, 4660, 4788, 4968, 5321, 5839, 5898, 6038, 6120, 6356, 6429, 6550, 6678, 6942, 8292, 8551, 8737, 8908, 9010, 9121, 9190, 9366, 9934, 10080, 10237, 10438, 10521, 10655, 21148, 21349, 21423, 21660, 21834, 21978, 25811, 25934, 26040, 26165, 26407], "trial_type": "free-recall", "conditions": [18, 1200, "v", 18000], "internal_node_id": "0.0-57.0-0.0", "key_presses": [76, 79, 86, 69, 82, 13, 84, 89, 80, 73, 83, 84, 13, 69, 88, 80, 69, 82, 84, 13, 70, 79, 79, 84, 66, 65, 76, 76, 13, 77, 69, 83, 83, 65, 71, 69, 13, 76, 79, 86, 69, 82, 13, 83, 87, 79, 82, 68, 13, 72, 69, 82, 79, 13], "trial": 1, "time_elapsed": 456899, "type": "FREE_RECALL", "trial_index": 75}, "uniqueid": "MTK2735:3IHR8NYAM88O397X9K1WNZBQY7RP4A", "dateTime": 1519318343813}, {"current_trial": 76, "trialdata": {"rt": 1692, "trial_type": "text", "internal_node_id": "0.0-58.0", "time_elapsed": 460596, "key_press": 13, "type": "INSTRUCTIONS", "trial_index": 76}, "uniqueid": "MTK2735:3IHR8NYAM88O397X9K1WNZBQY7RP4A", "dateTime": 1519318347507}, {"current_trial": 77, "trialdata": {"rt": [3337, 8823, 10918, 13536, 17144, 21376, 23332], "trial_type": "math-distractor", "key_times": [2981, 3087, 3337, 7783, 7919, 8823, 10548, 10717, 10918, 13207, 13368, 13536, 16753, 16957, 17144, 20855, 21081, 21376, 22659, 22967, 23332], "responses": ["18", "18", "12", "11", "14", "23", "16"], "num2": [1, 5, 2, 1, 4, 9, 1, 4], "num3": [9, 6, 1, 7, 2, 5, 8, 9], "conditions": [12, 1600, "v", 24000], "internal_node_id": "0.0-59.0", "key_presses": [49, 56, 13, 49, 56, 13, 49, 50, 13, 49, 49, 13, 49, 52, 13, 50, 51, 13, 49, 54, 13], "trial": 2, "time_elapsed": 485604, "type": "DISTRACTOR", "trial_index": 77, "num1": [8, 7, 9, 3, 8, 9, 7, 3]}, "uniqueid": "MTK2735:3IHR8NYAM88O397X9K1WNZBQY7RP4A", "dateTime": 1519318372515}, {"current_trial": 78, "trialdata": {"rt": -1, "trial_type": "single-stim", "stimulus": "<p id=\"stim\">10</p>", "internal_node_id": "0.0-60.0-0.0", "time_elapsed": 488609, "key_press": -1, "trial_index": 78}, "uniqueid": "MTK2735:3IHR8NYAM88O397X9K1WNZBQY7RP4A", "dateTime": 1519318375520}, {"current_trial": 79, "trialdata": {"rt": -1, "trial_type": "single-stim", "stimulus": "<p id=\"stim\">9</p>", "internal_node_id": "0.0-60.0-1.0", "time_elapsed": 489614, "key_press": -1, "trial_index": 79}, "uniqueid": "MTK2735:3IHR8NYAM88O397X9K1WNZBQY7RP4A", "dateTime": 1519318376526}, {"current_trial": 80, "trialdata": {"rt": -1, "trial_type": "single-stim", "stimulus": "<p id=\"stim\">8</p>", "internal_node_id": "0.0-60.0-2.0", "time_elapsed": 490616, "key_press": -1, "trial_index": 80}, "uniqueid": "MTK2735:3IHR8NYAM88O397X9K1WNZBQY7RP4A", "dateTime": 1519318377528}, {"current_trial": 81, "trialdata": {"rt": -1, "trial_type": "single-stim", "stimulus": "<p id=\"stim\">7</p>", "internal_node_id": "0.0-60.0-3.0", "time_elapsed": 491621, "key_press": -1, "trial_index": 81}, "uniqueid": "MTK2735:3IHR8NYAM88O397X9K1WNZBQY7RP4A", "dateTime": 1519318378532}, {"current_trial": 82, "trialdata": {"rt": -1, "trial_type": "single-stim", "stimulus": "<p id=\"stim\">6</p>", "internal_node_id": "0.0-60.0-4.0", "time_elapsed": 492624, "key_press": -1, "trial_index": 82}, "uniqueid": "MTK2735:3IHR8NYAM88O397X9K1WNZBQY7RP4A", "dateTime": 1519318379535}, {"current_trial": 83, "trialdata": {"rt": -1, "trial_type": "single-stim", "stimulus": "<p id=\"stim\">5</p>", "internal_node_id": "0.0-60.0-5.0", "time_elapsed": 493629, "key_press": -1, "trial_index": 83}, "uniqueid": "MTK2735:3IHR8NYAM88O397X9K1WNZBQY7RP4A", "dateTime": 1519318380540}, {"current_trial": 84, "trialdata": {"rt": -1, "trial_type": "single-stim", "stimulus": "<p id=\"stim\">4</p>", "internal_node_id": "0.0-60.0-6.0", "time_elapsed": 494632, "key_press": -1, "trial_index": 84}, "uniqueid": "MTK2735:3IHR8NYAM88O397X9K1WNZBQY7RP4A", "dateTime": 1519318381543}, {"current_trial": 85, "trialdata": {"rt": -1, "trial_type": "single-stim", "stimulus": "<p id=\"stim\">3</p>", "internal_node_id": "0.0-60.0-7.0", "time_elapsed": 495635, "key_press": -1, "trial_index": 85}, "uniqueid": "MTK2735:3IHR8NYAM88O397X9K1WNZBQY7RP4A", "dateTime": 1519318382546}, {"current_trial": 86, "trialdata": {"rt": -1, "trial_type": "single-stim", "stimulus": "<p id=\"stim\">2</p>", "internal_node_id": "0.0-60.0-8.0", "time_elapsed": 496636, "key_press": -1, "trial_index": 86}, "uniqueid": "MTK2735:3IHR8NYAM88O397X9K1WNZBQY7RP4A", "dateTime": 1519318383548}, {"current_trial": 87, "trialdata": {"rt": -1, "trial_type": "single-stim", "stimulus": "<p id=\"stim\">1</p>", "internal_node_id": "0.0-60.0-9.0", "time_elapsed": 497640, "key_press": -1, "trial_index": 87}, "uniqueid": "MTK2735:3IHR8NYAM88O397X9K1WNZBQY7RP4A", "dateTime": 1519318384551}, {"current_trial": 88, "trialdata": {"rt": -1, "trial_type": "single-stim", "stimulus": "<p id=\"stim\">+</p>", "internal_node_id": "0.0-61.0-0.0", "time_elapsed": 499141, "key_press": -1, "type": "FIXATION", "trial_index": 88}, "uniqueid": "MTK2735:3IHR8NYAM88O397X9K1WNZBQY7RP4A", "dateTime": 1519318386053}, {"current_trial": 89, "trialdata": {"rt": -1, "trial_type": "single-stim", "word": "peach", "stimulus": "<p id=\"stim\">PEACH</p>", "conditions": [12, 1600, "v", 24000], "internal_node_id": "0.0-62.0", "trial": 2, "time_elapsed": 500745, "serialpos": 0, "key_press": -1, "wordID": 1030, "type": "PRES_VIS", "trial_index": 89}, "uniqueid": "MTK2735:3IHR8NYAM88O397X9K1WNZBQY7RP4A", "dateTime": 1519318387656}, {"current_trial": 90, "trialdata": {"rt": -1, "trial_type": "single-stim", "word": "lightning", "stimulus": "<p id=\"stim\">LIGHTNING</p>", "conditions": [12, 1600, "v", 24000], "internal_node_id": "0.0-63.0", "trial": 2, "time_elapsed": 503516, "serialpos": 1, "key_press": -1, "wordID": 819, "type": "PRES_VIS", "trial_index": 90}, "uniqueid": "MTK2735:3IHR8NYAM88O397X9K1WNZBQY7RP4A", "dateTime": 1519318390427}, {"current_trial": 91, "trialdata": {"rt": -1, "trial_type": "single-stim", "word": "bunny", "stimulus": "<p id=\"stim\">BUNNY</p>", "conditions": [12, 1600, "v", 24000], "internal_node_id": "0.0-64.0", "trial": 2, "time_elapsed": 506184, "serialpos": 2, "key_press": -1, "wordID": 197, "type": "PRES_VIS", "trial_index": 91}, "uniqueid": "MTK2735:3IHR8NYAM88O397X9K1WNZBQY7RP4A", "dateTime": 1519318393096}, {"current_trial": 92, "trialdata": {"rt": -1, "trial_type": "single-stim", "word": "salad", "stimulus": "<p id=\"stim\">SALAD</p>", "conditions": [12, 1600, "v", 24000], "internal_node_id": "0.0-65.0", "trial": 2, "time_elapsed": 508862, "serialpos": 3, "key_press": -1, "wordID": 1223, "type": "PRES_VIS", "trial_index": 92}, "uniqueid": "MTK2735:3IHR8NYAM88O397X9K1WNZBQY7RP4A", "dateTime": 1519318395774}, {"current_trial": 93, "trialdata": {"rt": -1, "trial_type": "single-stim", "word": "pasta", "stimulus": "<p id=\"stim\">PASTA</p>", "conditions": [12, 1600, "v", 24000], "internal_node_id": "0.0-66.0", "trial": 2, "time_elapsed": 511377, "serialpos": 4, "key_press": -1, "wordID": 1020, "type": "PRES_VIS", "trial_index": 93}, "uniqueid": "MTK2735:3IHR8NYAM88O397X9K1WNZBQY7RP4A", "dateTime": 1519318398288}, {"current_trial": 94, "trialdata": {"rt": -1, "trial_type": "single-stim", "word": "primate", "stimulus": "<p id=\"stim\">PRIMATE</p>", "conditions": [12, 1600, "v", 24000], "internal_node_id": "0.0-67.0", "trial": 2, "time_elapsed": 514060, "serialpos": 5, "key_press": -1, "wordID": 1122, "type": "PRES_VIS", "trial_index": 94}, "uniqueid": "MTK2735:3IHR8NYAM88O397X9K1WNZBQY7RP4A", "dateTime": 1519318400971}, {"current_trial": 95, "trialdata": {"rt": -1, "trial_type": "single-stim", "word": "swamp", "stimulus": "<p id=\"stim\">SWAMP</p>", "conditions": [12, 1600, "v", 24000], "internal_node_id": "0.0-68.0", "trial": 2, "time_elapsed": 516601, "serialpos": 6, "key_press": -1, "wordID": 1415, "type": "PRES_VIS", "trial_index": 95}, "uniqueid": "MTK2735:3IHR8NYAM88O397X9K1WNZBQY7RP4A", "dateTime": 1519318403512}, {"current_trial": 96, "trialdata": {"rt": -1, "trial_type": "single-stim", "word": "freezer", "stimulus": "<p id=\"stim\">FREEZER</p>", "conditions": [12, 1600, "v", 24000], "internal_node_id": "0.0-69.0", "trial": 2, "time_elapsed": 519085, "serialpos": 7, "key_press": -1, "wordID": 603, "type": "PRES_VIS", "trial_index": 96}, "uniqueid": "MTK2735:3IHR8NYAM88O397X9K1WNZBQY7RP4A", "dateTime": 1519318405997}, {"current_trial": 97, "trialdata": {"rt": -1, "trial_type": "single-stim", "word": "lettuce", "stimulus": "<p id=\"stim\">LETTUCE</p>", "conditions": [12, 1600, "v", 24000], "internal_node_id": "0.0-70.0", "trial": 2, "time_elapsed": 521627, "serialpos": 8, "key_press": -1, "wordID": 813, "type": "PRES_VIS", "trial_index": 97}, "uniqueid": "MTK2735:3IHR8NYAM88O397X9K1WNZBQY7RP4A", "dateTime": 1519318408538}, {"current_trial": 98, "trialdata": {"rt": -1, "trial_type": "single-stim", "word": "garbage", "stimulus": "<p id=\"stim\">GARBAGE</p>", "conditions": [12, 1600, "v", 24000], "internal_node_id": "0.0-71.0", "trial": 2, "time_elapsed": 524269, "serialpos": 9, "key_press": -1, "wordID": 621, "type": "PRES_VIS", "trial_index": 98}, "uniqueid": "MTK2735:3IHR8NYAM88O397X9K1WNZBQY7RP4A", "dateTime": 1519318411180}, {"current_trial": 99, "trialdata": {"rt": -1, "trial_type": "single-stim", "word": "puppy", "stimulus": "<p id=\"stim\">PUPPY</p>", "conditions": [12, 1600, "v", 24000], "internal_node_id": "0.0-72.0", "trial": 2, "time_elapsed": 526674, "serialpos": 10, "key_press": -1, "wordID": 1143, "type": "PRES_VIS", "trial_index": 99}, "uniqueid": "MTK2735:3IHR8NYAM88O397X9K1WNZBQY7RP4A", "dateTime": 1519318413585}, {"current_trial": 100, "trialdata": {"rt": -1, "trial_type": "single-stim", "word": "seagull", "stimulus": "<p id=\"stim\">SEAGULL</p>", "conditions": [12, 1600, "v", 24000], "internal_node_id": "0.0-73.0", "trial": 2, "time_elapsed": 529313, "serialpos": 11, "key_press": -1, "wordID": 1260, "type": "PRES_VIS", "trial_index": 100}, "uniqueid": "MTK2735:3IHR8NYAM88O397X9K1WNZBQY7RP4A", "dateTime": 1519318416224}, {"current_trial": 101, "trialdata": {"rt": -1, "trial_type": "single-stim", "stimulus": "", "internal_node_id": "0.0-74.0-0.0", "time_elapsed": 531725, "key_press": -1, "type": "PRE_RECALL_DELAY", "trial_index": 101}, "uniqueid": "MTK2735:3IHR8NYAM88O397X9K1WNZBQY7RP4A", "dateTime": 1519318418636}, {"current_trial": 102, "trialdata": {"rt": -1000, "trial_type": "single-audio", "stimulus": "/static/audio/400Hz.wav", "internal_node_id": "0.0-75.0", "time_elapsed": 532231, "key_press": -1, "type": "PRE_RECALL_ALERT", "trial_index": 102}, "uniqueid": "MTK2735:3IHR8NYAM88O397X9K1WNZBQY7RP4A", "dateTime": 1519318419143}, {"current_trial": 103, "trialdata": {"rt": [2748, 4254, 5727, 6820, 8632, 12769, 29319], "recwords": ["puppy", "seagull", "pasta", "salad", "freezer", "peach", "bunny"], "key_times": [820, 999, 1914, 2303, 2523, 2748, 2974, 3170, 3235, 3615, 3712, 3914, 4047, 4254, 4938, 5079, 5160, 5368, 5462, 5727, 6022, 6123, 6281, 6473, 6634, 6820, 7329, 7508, 7634, 7773, 7989, 8203, 8290, 8632, 11835, 11954, 11982, 12179, 12308, 12769, 27981, 28083, 28339, 28457, 28712, 29319], "trial_type": "free-recall", "conditions": [12, 1600, "v", 24000], "internal_node_id": "0.0-76.0-0.0", "key_presses": [80, 85, 80, 80, 89, 13, 83, 69, 65, 71, 85, 76, 76, 13, 80, 65, 83, 84, 65, 13, 83, 65, 76, 65, 68, 13, 70, 82, 69, 69, 90, 69, 82, 13, 80, 69, 65, 67, 72, 13, 66, 85, 78, 78, 89, 13], "trial": 2, "time_elapsed": 592238, "type": "FREE_RECALL", "trial_index": 103}, "uniqueid": "MTK2735:3IHR8NYAM88O397X9K1WNZBQY7RP4A", "dateTime": 1519318479152}, {"current_trial": 104, "trialdata": {"rt": 1606, "trial_type": "text", "internal_node_id": "0.0-77.0", "time_elapsed": 595848, "key_press": 13, "type": "INSTRUCTIONS", "trial_index": 104}, "uniqueid": "MTK2735:3IHR8NYAM88O397X9K1WNZBQY7RP4A", "dateTime": 1519318482759}, {"current_trial": 105, "trialdata": {"rt": [3092, 6901, 10803, 13194, 14852, 18784, 23433], "trial_type": "math-distractor", "key_times": [2899, 3092, 6480, 6703, 6901, 10490, 10628, 10803, 12887, 12983, 13194, 14390, 14852, 18014, 18494, 18784, 22806, 23231, 23433], "responses": ["8", "14", "15", "15", "5", "15", "20"], "num2": [2, 6, 3, 5, 1, 3, 8, 6], "num3": [3, 5, 9, 9, 1, 9, 3, 1], "conditions": [24, 800, "v", 24000], "internal_node_id": "0.0-78.0", "key_presses": [56, 13, 49, 52, 13, 49, 53, 13, 49, 53, 13, 53, 13, 49, 53, 13, 50, 48, 13], "trial": 3, "time_elapsed": 621858, "type": "DISTRACTOR", "trial_index": 105, "num1": [3, 3, 3, 1, 3, 3, 9, 9]}, "uniqueid": "MTK2735:3IHR8NYAM88O397X9K1WNZBQY7RP4A", "dateTime": 1519318508769}, {"current_trial": 106, "trialdata": {"rt": -1, "trial_type": "single-stim", "stimulus": "<p id=\"stim\">10</p>", "internal_node_id": "0.0-79.0-0.0", "time_elapsed": 624864, "key_press": -1, "trial_index": 106}, "uniqueid": "MTK2735:3IHR8NYAM88O397X9K1WNZBQY7RP4A", "dateTime": 1519318511775}, {"current_trial": 107, "trialdata": {"rt": -1, "trial_type": "single-stim", "stimulus": "<p id=\"stim\">9</p>", "internal_node_id": "0.0-79.0-1.0", "time_elapsed": 625867, "key_press": -1, "trial_index": 107}, "uniqueid": "MTK2735:3IHR8NYAM88O397X9K1WNZBQY7RP4A", "dateTime": 1519318512779}, {"current_trial": 108, "trialdata": {"rt": -1, "trial_type": "single-stim", "stimulus": "<p id=\"stim\">8</p>", "internal_node_id": "0.0-79.0-2.0", "time_elapsed": 626872, "key_press": -1, "trial_index": 108}, "uniqueid": "MTK2735:3IHR8NYAM88O397X9K1WNZBQY7RP4A", "dateTime": 1519318513783}, {"current_trial": 109, "trialdata": {"rt": -1, "trial_type": "single-stim", "stimulus": "<p id=\"stim\">7</p>", "internal_node_id": "0.0-79.0-3.0", "time_elapsed": 627876, "key_press": -1, "trial_index": 109}, "uniqueid": "MTK2735:3IHR8NYAM88O397X9K1WNZBQY7RP4A", "dateTime": 1519318514787}, {"current_trial": 110, "trialdata": {"rt": -1, "trial_type": "single-stim", "stimulus": "<p id=\"stim\">6</p>", "internal_node_id": "0.0-79.0-4.0", "time_elapsed": 628879, "key_press": -1, "trial_index": 110}, "uniqueid": "MTK2735:3IHR8NYAM88O397X9K1WNZBQY7RP4A", "dateTime": 1519318515790}, {"current_trial": 111, "trialdata": {"rt": -1, "trial_type": "single-stim", "stimulus": "<p id=\"stim\">5</p>", "internal_node_id": "0.0-79.0-5.0", "time_elapsed": 629883, "key_press": -1, "trial_index": 111}, "uniqueid": "MTK2735:3IHR8NYAM88O397X9K1WNZBQY7RP4A", "dateTime": 1519318516795}, {"current_trial": 112, "trialdata": {"rt": -1, "trial_type": "single-stim", "stimulus": "<p id=\"stim\">4</p>", "internal_node_id": "0.0-79.0-6.0", "time_elapsed": 630886, "key_press": -1, "trial_index": 112}, "uniqueid": "MTK2735:3IHR8NYAM88O397X9K1WNZBQY7RP4A", "dateTime": 1519318517797}, {"current_trial": 113, "trialdata": {"rt": -1, "trial_type": "single-stim", "stimulus": "<p id=\"stim\">3</p>", "internal_node_id": "0.0-79.0-7.0", "time_elapsed": 631891, "key_press": -1, "trial_index": 113}, "uniqueid": "MTK2735:3IHR8NYAM88O397X9K1WNZBQY7RP4A", "dateTime": 1519318518802}, {"current_trial": 114, "trialdata": {"rt": -1, "trial_type": "single-stim", "stimulus": "<p id=\"stim\">2</p>", "internal_node_id": "0.0-79.0-8.0", "time_elapsed": 632896, "key_press": -1, "trial_index": 114}, "uniqueid": "MTK2735:3IHR8NYAM88O397X9K1WNZBQY7RP4A", "dateTime": 1519318519807}, {"current_trial": 115, "trialdata": {"rt": -1, "trial_type": "single-stim", "stimulus": "<p id=\"stim\">1</p>", "internal_node_id": "0.0-79.0-9.0", "time_elapsed": 633898, "key_press": -1, "trial_index": 115}, "uniqueid": "MTK2735:3IHR8NYAM88O397X9K1WNZBQY7RP4A", "dateTime": 1519318520809}, {"current_trial": 116, "trialdata": {"rt": -1, "trial_type": "single-stim", "stimulus": "<p id=\"stim\">+</p>", "internal_node_id": "0.0-80.0-0.0", "time_elapsed": 635404, "key_press": -1, "type": "FIXATION", "trial_index": 116}, "uniqueid": "MTK2735:3IHR8NYAM88O397X9K1WNZBQY7RP4A", "dateTime": 1519318522315}, {"current_trial": 117, "trialdata": {"rt": -1, "trial_type": "single-stim", "word": "grave", "stimulus": "<p id=\"stim\">GRAVE</p>", "conditions": [24, 800, "v", 24000], "internal_node_id": "0.0-81.0", "trial": 3, "time_elapsed": 636208, "serialpos": 0, "key_press": -1, "wordID": 657, "type": "PRES_VIS", "trial_index": 117}, "uniqueid": "MTK2735:3IHR8NYAM88O397X9K1WNZBQY7RP4A", "dateTime": 1519318523119}, {"current_trial": 118, "trialdata": {"rt": -1, "trial_type": "single-stim", "word": "waitress", "stimulus": "<p id=\"stim\">WAITRESS</p>", "conditions": [24, 800, "v", 24000], "internal_node_id": "0.0-82.0", "trial": 3, "time_elapsed": 637967, "serialpos": 1, "key_press": -1, "wordID": 1580, "type": "PRES_VIS", "trial_index": 118}, "uniqueid": "MTK2735:3IHR8NYAM88O397X9K1WNZBQY7RP4A", "dateTime": 1519318524878}, {"current_trial": 119, "trialdata": {"rt": -1, "trial_type": "single-stim", "word": "muffin", "stimulus": "<p id=\"stim\">MUFFIN</p>", "conditions": [24, 800, "v", 24000], "internal_node_id": "0.0-83.0", "trial": 3, "time_elapsed": 639681, "serialpos": 2, "key_press": -1, "wordID": 928, "type": "PRES_VIS", "trial_index": 119}, "uniqueid": "MTK2735:3IHR8NYAM88O397X9K1WNZBQY7RP4A", "dateTime": 1519318526592}, {"current_trial": 120, "trialdata": {"rt": -1, "trial_type": "single-stim", "word": "wrist", "stimulus": "<p id=\"stim\">WRIST</p>", "conditions": [24, 800, "v", 24000], "internal_node_id": "0.0-84.0", "trial": 3, "time_elapsed": 641519, "serialpos": 3, "key_press": -1, "wordID": 1625, "type": "PRES_VIS", "trial_index": 120}, "uniqueid": "MTK2735:3IHR8NYAM88O397X9K1WNZBQY7RP4A", "dateTime": 1519318528430}, {"current_trial": 121, "trialdata": {"rt": -1, "trial_type": "single-stim", "word": "finger", "stimulus": "<p id=\"stim\">FINGER</p>", "conditions": [24, 800, "v", 24000], "internal_node_id": "0.0-85.0", "trial": 3, "time_elapsed": 643391, "serialpos": 4, "key_press": -1, "wordID": 566, "type": "PRES_VIS", "trial_index": 121}, "uniqueid": "MTK2735:3IHR8NYAM88O397X9K1WNZBQY7RP4A", "dateTime": 1519318530302}, {"current_trial": 122, "trialdata": {"rt": -1, "trial_type": "single-stim", "word": "cashew", "stimulus": "<p id=\"stim\">CASHEW</p>", "conditions": [24, 800, "v", 24000], "internal_node_id": "0.0-86.0", "trial": 3, "time_elapsed": 645255, "serialpos": 5, "key_press": -1, "wordID": 252, "type": "PRES_VIS", "trial_index": 122}, "uniqueid": "MTK2735:3IHR8NYAM88O397X9K1WNZBQY7RP4A", "dateTime": 1519318532166}, {"current_trial": 123, "trialdata": {"rt": -1, "trial_type": "single-stim", "word": "clam", "stimulus": "<p id=\"stim\">CLAM</p>", "conditions": [24, 800, "v", 24000], "internal_node_id": "0.0-87.0", "trial": 3, "time_elapsed": 647017, "serialpos": 6, "key_press": -1, "wordID": 314, "type": "PRES_VIS", "trial_index": 123}, "uniqueid": "MTK2735:3IHR8NYAM88O397X9K1WNZBQY7RP4A", "dateTime": 1519318533929}, {"current_trial": 124, "trialdata": {"rt": -1, "trial_type": "single-stim", "word": "slide", "stimulus": "<p id=\"stim\">SLIDE</p>", "conditions": [24, 800, "v", 24000], "internal_node_id": "0.0-88.0", "trial": 3, "time_elapsed": 648635, "serialpos": 7, "key_press": -1, "wordID": 1325, "type": "PRES_VIS", "trial_index": 124}, "uniqueid": "MTK2735:3IHR8NYAM88O397X9K1WNZBQY7RP4A", "dateTime": 1519318535546}, {"current_trial": 125, "trialdata": {"rt": -1, "trial_type": "single-stim", "word": "motel", "stimulus": "<p id=\"stim\">MOTEL</p>", "conditions": [24, 800, "v", 24000], "internal_node_id": "0.0-89.0", "trial": 3, "time_elapsed": 650620, "serialpos": 8, "key_press": -1, "wordID": 918, "type": "PRES_VIS", "trial_index": 125}, "uniqueid": "MTK2735:3IHR8NYAM88O397X9K1WNZBQY7RP4A", "dateTime": 1519318537531}, {"current_trial": 126, "trialdata": {"rt": -1, "trial_type": "single-stim", "word": "goblin", "stimulus": "<p id=\"stim\">GOBLIN</p>", "conditions": [24, 800, "v", 24000], "internal_node_id": "0.0-90.0", "trial": 3, "time_elapsed": 652524, "serialpos": 9, "key_press": -1, "wordID": 644, "type": "PRES_VIS", "trial_index": 126}, "uniqueid": "MTK2735:3IHR8NYAM88O397X9K1WNZBQY7RP4A", "dateTime": 1519318539435}, {"current_trial": 127, "trialdata": {"rt": -1, "trial_type": "single-stim", "word": "shortcake", "stimulus": "<p id=\"stim\">SHORTCAKE</p>", "conditions": [24, 800, "v", 24000], "internal_node_id": "0.0-91.0", "trial": 3, "time_elapsed": 654229, "serialpos": 10, "key_press": -1, "wordID": 1291, "type": "PRES_VIS", "trial_index": 127}, "uniqueid": "MTK2735:3IHR8NYAM88O397X9K1WNZBQY7RP4A", "dateTime": 1519318541141}, {"current_trial": 128, "trialdata": {"rt": -1, "trial_type": "single-stim", "word": "farmer", "stimulus": "<p id=\"stim\">FARMER</p>", "conditions": [24, 800, "v", 24000], "internal_node_id": "0.0-92.0", "trial": 3, "time_elapsed": 655882, "serialpos": 11, "key_press": -1, "wordID": 552, "type": "PRES_VIS", "trial_index": 128}, "uniqueid": "MTK2735:3IHR8NYAM88O397X9K1WNZBQY7RP4A", "dateTime": 1519318542793}, {"current_trial": 129, "trialdata": {"rt": -1, "trial_type": "single-stim", "word": "transplant", "stimulus": "<p id=\"stim\">TRANSPLANT</p>", "conditions": [24, 800, "v", 24000], "internal_node_id": "0.0-93.0", "trial": 3, "time_elapsed": 657613, "serialpos": 12, "key_press": -1, "wordID": 1495, "type": "PRES_VIS", "trial_index": 129}, "uniqueid": "MTK2735:3IHR8NYAM88O397X9K1WNZBQY7RP4A", "dateTime": 1519318544524}, {"current_trial": 130, "trialdata": {"rt": -1, "trial_type": "single-stim", "word": "plaid", "stimulus": "<p id=\"stim\">PLAID</p>", "conditions": [24, 800, "v", 24000], "internal_node_id": "0.0-94.0", "trial": 3, "time_elapsed": 659455, "serialpos": 13, "key_press": -1, "wordID": 1079, "type": "PRES_VIS", "trial_index": 130}, "uniqueid": "MTK2735:3IHR8NYAM88O397X9K1WNZBQY7RP4A", "dateTime": 1519318546366}, {"current_trial": 131, "trialdata": {"rt": -1, "trial_type": "single-stim", "word": "tortoise", "stimulus": "<p id=\"stim\">TORTOISE</p>", "conditions": [24, 800, "v", 24000], "internal_node_id": "0.0-95.0", "trial": 3, "time_elapsed": 661102, "serialpos": 14, "key_press": -1, "wordID": 1485, "type": "PRES_VIS", "trial_index": 131}, "uniqueid": "MTK2735:3IHR8NYAM88O397X9K1WNZBQY7RP4A", "dateTime": 1519318548013}, {"current_trial": 132, "trialdata": {"rt": -1, "trial_type": "single-stim", "word": "mammal", "stimulus": "<p id=\"stim\">MAMMAL</p>", "conditions": [24, 800, "v", 24000], "internal_node_id": "0.0-96.0", "trial": 3, "time_elapsed": 662718, "serialpos": 15, "key_press": -1, "wordID": 860, "type": "PRES_VIS", "trial_index": 132}, "uniqueid": "MTK2735:3IHR8NYAM88O397X9K1WNZBQY7RP4A", "dateTime": 1519318549629}, {"current_trial": 133, "trialdata": {"rt": -1, "trial_type": "single-stim", "word": "river", "stimulus": "<p id=\"stim\">RIVER</p>", "conditions": [24, 800, "v", 24000], "internal_node_id": "0.0-97.0", "trial": 3, "time_elapsed": 664648, "serialpos": 16, "key_press": -1, "wordID": 1193, "type": "PRES_VIS", "trial_index": 133}, "uniqueid": "MTK2735:3IHR8NYAM88O397X9K1WNZBQY7RP4A", "dateTime": 1519318551559}, {"current_trial": 134, "trialdata": {"rt": -1, "trial_type": "single-stim", "word": "breast", "stimulus": "<p id=\"stim\">BREAST</p>", "conditions": [24, 800, "v", 24000], "internal_node_id": "0.0-98.0", "trial": 3, "time_elapsed": 666613, "serialpos": 17, "key_press": -1, "wordID": 170, "type": "PRES_VIS", "trial_index": 134}, "uniqueid": "MTK2735:3IHR8NYAM88O397X9K1WNZBQY7RP4A", "dateTime": 1519318553524}, {"current_trial": 135, "trialdata": {"rt": -1, "trial_type": "single-stim", "word": "passage", "stimulus": "<p id=\"stim\">PASSAGE</p>", "conditions": [24, 800, "v", 24000], "internal_node_id": "0.0-99.0", "trial": 3, "time_elapsed": 668592, "serialpos": 18, "key_press": -1, "wordID": 1018, "type": "PRES_VIS", "trial_index": 135}, "uniqueid": "MTK2735:3IHR8NYAM88O397X9K1WNZBQY7RP4A", "dateTime": 1519318555503}, {"current_trial": 136, "trialdata": {"rt": -1, "trial_type": "single-stim", "word": "box", "stimulus": "<p id=\"stim\">BOX</p>", "conditions": [24, 800, "v", 24000], "internal_node_id": "0.0-100.0", "trial": 3, "time_elapsed": 670301, "serialpos": 19, "key_press": -1, "wordID": 158, "type": "PRES_VIS", "trial_index": 136}, "uniqueid": "MTK2735:3IHR8NYAM88O397X9K1WNZBQY7RP4A", "dateTime": 1519318557212}, {"current_trial": 137, "trialdata": {"rt": -1, "trial_type": "single-stim", "word": "space", "stimulus": "<p id=\"stim\">SPACE</p>", "conditions": [24, 800, "v", 24000], "internal_node_id": "0.0-101.0", "trial": 3, "time_elapsed": 672101, "serialpos": 20, "key_press": -1, "wordID": 1344, "type": "PRES_VIS", "trial_index": 137}, "uniqueid": "MTK2735:3IHR8NYAM88O397X9K1WNZBQY7RP4A", "dateTime": 1519318559013}, {"current_trial": 138, "trialdata": {"rt": -1, "trial_type": "single-stim", "word": "pigment", "stimulus": "<p id=\"stim\">PIGMENT</p>", "conditions": [24, 800, "v", 24000], "internal_node_id": "0.0-102.0", "trial": 3, "time_elapsed": 673800, "serialpos": 21, "key_press": -1, "wordID": 1065, "type": "PRES_VIS", "trial_index": 138}, "uniqueid": "MTK2735:3IHR8NYAM88O397X9K1WNZBQY7RP4A", "dateTime": 1519318560711}, {"current_trial": 139, "trialdata": {"rt": -1, "trial_type": "single-stim", "word": "dresser", "stimulus": "<p id=\"stim\">DRESSER</p>", "conditions": [24, 800, "v", 24000], "internal_node_id": "0.0-103.0", "trial": 3, "time_elapsed": 675491, "serialpos": 22, "key_press": -1, "wordID": 495, "type": "PRES_VIS", "trial_index": 139}, "uniqueid": "MTK2735:3IHR8NYAM88O397X9K1WNZBQY7RP4A", "dateTime": 1519318562402}, {"current_trial": 140, "trialdata": {"rt": -1, "trial_type": "single-stim", "word": "brook", "stimulus": "<p id=\"stim\">BROOK</p>", "conditions": [24, 800, "v", 24000], "internal_node_id": "0.0-104.0", "trial": 3, "time_elapsed": 677255, "serialpos": 23, "key_press": -1, "wordID": 176, "type": "PRES_VIS", "trial_index": 140}, "uniqueid": "MTK2735:3IHR8NYAM88O397X9K1WNZBQY7RP4A", "dateTime": 1519318564166}, {"current_trial": 141, "trialdata": {"rt": -1, "trial_type": "single-stim", "stimulus": "", "internal_node_id": "0.0-105.0-0.0", "time_elapsed": 679595, "key_press": -1, "type": "PRE_RECALL_DELAY", "trial_index": 141}, "uniqueid": "MTK2735:3IHR8NYAM88O397X9K1WNZBQY7RP4A", "dateTime": 1519318566506}, {"current_trial": 142, "trialdata": {"rt": -1000, "trial_type": "single-audio", "stimulus": "/static/audio/400Hz.wav", "internal_node_id": "0.0-106.0", "time_elapsed": 680098, "key_press": -1, "type": "PRE_RECALL_ALERT", "trial_index": 142}, "uniqueid": "MTK2735:3IHR8NYAM88O397X9K1WNZBQY7RP4A", "dateTime": 1519318567009}, {"current_trial": 143, "trialdata": {"rt": [2183, 3582, 5008, 12650, 15534, 18792, 20754, 25906, 31895], "recwords": ["brook", "pigment", "breast", "transplant", "cashew", "grave", "waitress", "wrist", "brook"], "key_times": [1229, 1504, 1636, 1769, 1876, 2183, 2439, 2568, 2851, 3093, 3215, 3303, 3429, 3582, 3966, 4144, 4236, 4332, 4494, 4748, 5008, 6014, 6187, 6256, 6942, 7156, 7458, 7669, 7804, 7974, 8202, 9950, 10460, 10491, 10525, 10558, 10590, 10678, 10842, 11541, 11660, 11766, 12004, 12162, 12259, 12380, 12499, 12650, 13533, 13910, 13954, 14085, 14266, 14722, 15079, 15170, 15534, 17929, 18162, 18249, 18440, 18617, 18792, 19110, 19230, 19387, 19582, 19834, 19926, 20142, 20318, 20754, 25271, 25446, 25557, 25650, 25784, 25906, 31071, 31336, 31423, 31558, 31659, 31895, 53380, 53801], "trial_type": "free-recall", "conditions": [24, 800, "v", 24000], "internal_node_id": "0.0-107.0-0.0", "key_presses": [66, 82, 79, 79, 75, 13, 80, 73, 71, 77, 69, 78, 84, 13, 66, 82, 69, 65, 83, 84, 13, 84, 82, 65, 83, 78, 80, 76, 65, 78, 84, 8, 8, 8, 8, 8, 8, 8, 8, 65, 78, 83, 80, 76, 65, 78, 84, 13, 65, 8, 67, 65, 83, 72, 69, 87, 13, 71, 82, 65, 86, 69, 13, 87, 65, 73, 84, 82, 69, 83, 83, 13, 87, 82, 73, 83, 84, 13, 66, 82, 79, 79, 75, 13, 175, 175], "trial": 3, "time_elapsed": 740104, "type": "FREE_RECALL", "trial_index": 143}, "uniqueid": "MTK2735:3IHR8NYAM88O397X9K1WNZBQY7RP4A", "dateTime": 1519318627019}, {"current_trial": 144, "trialdata": {"rt": 3943, "trial_type": "text", "internal_node_id": "0.0-108.0", "time_elapsed": 746053, "key_press": 13, "type": "INSTRUCTIONS", "trial_index": 144}, "uniqueid": "MTK2735:3IHR8NYAM88O397X9K1WNZBQY7RP4A", "dateTime": 1519318632964}, {"current_trial": 145, "trialdata": {"rt": [2380, 4068, 6638, 8584, 13188, 18464, 21589], "trial_type": "math-distractor", "key_times": [2049, 2169, 2380, 3725, 3827, 4068, 6324, 6495, 6638, 8284, 8448, 8584, 12831, 12961, 13188, 17092, 17255, 17853, 17970, 18081, 18223, 18464, 21065, 21275, 21589], "responses": ["16", "10", "15", "11", "20", "19", "19"], "num2": [1, 1, 9, 1, 9, 9, 5, 4], "num3": [8, 7, 2, 4, 5, 4, 7, 5], "conditions": [24, 1600, "v", 24000], "internal_node_id": "0.0-109.0", "key_presses": [49, 54, 13, 49, 48, 13, 49, 53, 13, 49, 49, 13, 50, 48, 13, 50, 57, 8, 8, 49, 57, 13, 49, 57, 13], "trial": 4, "time_elapsed": 772060, "type": "DISTRACTOR", "trial_index": 145, "num1": [7, 1, 4, 6, 6, 6, 7, 9]}, "uniqueid": "MTK2735:3IHR8NYAM88O397X9K1WNZBQY7RP4A", "dateTime": 1519318658972}, {"current_trial": 146, "trialdata": {"rt": -1, "trial_type": "single-stim", "stimulus": "<p id=\"stim\">10</p>", "internal_node_id": "0.0-110.0-0.0", "time_elapsed": 775069, "key_press": -1, "trial_index": 146}, "uniqueid": "MTK2735:3IHR8NYAM88O397X9K1WNZBQY7RP4A", "dateTime": 1519318661981}, {"current_trial": 147, "trialdata": {"rt": -1, "trial_type": "single-stim", "stimulus": "<p id=\"stim\">9</p>", "internal_node_id": "0.0-110.0-1.0", "time_elapsed": 776075, "key_press": -1, "trial_index": 147}, "uniqueid": "MTK2735:3IHR8NYAM88O397X9K1WNZBQY7RP4A", "dateTime": 1519318662986}, {"current_trial": 148, "trialdata": {"rt": -1, "trial_type": "single-stim", "stimulus": "<p id=\"stim\">8</p>", "internal_node_id": "0.0-110.0-2.0", "time_elapsed": 777079, "key_press": -1, "trial_index": 148}, "uniqueid": "MTK2735:3IHR8NYAM88O397X9K1WNZBQY7RP4A", "dateTime": 1519318663990}, {"current_trial": 149, "trialdata": {"rt": -1, "trial_type": "single-stim", "stimulus": "<p id=\"stim\">7</p>", "internal_node_id": "0.0-110.0-3.0", "time_elapsed": 778083, "key_press": -1, "trial_index": 149}, "uniqueid": "MTK2735:3IHR8NYAM88O397X9K1WNZBQY7RP4A", "dateTime": 1519318664994}, {"current_trial": 150, "trialdata": {"rt": -1, "trial_type": "single-stim", "stimulus": "<p id=\"stim\">6</p>", "internal_node_id": "0.0-110.0-4.0", "time_elapsed": 779086, "key_press": -1, "trial_index": 150}, "uniqueid": "MTK2735:3IHR8NYAM88O397X9K1WNZBQY7RP4A", "dateTime": 1519318665998}, {"current_trial": 151, "trialdata": {"rt": -1, "trial_type": "single-stim", "stimulus": "<p id=\"stim\">5</p>", "internal_node_id": "0.0-110.0-5.0", "time_elapsed": 780088, "key_press": -1, "trial_index": 151}, "uniqueid": "MTK2735:3IHR8NYAM88O397X9K1WNZBQY7RP4A", "dateTime": 1519318667000}, {"current_trial": 152, "trialdata": {"rt": -1, "trial_type": "single-stim", "stimulus": "<p id=\"stim\">4</p>", "internal_node_id": "0.0-110.0-6.0", "time_elapsed": 781092, "key_press": -1, "trial_index": 152}, "uniqueid": "MTK2735:3IHR8NYAM88O397X9K1WNZBQY7RP4A", "dateTime": 1519318668003}, {"current_trial": 153, "trialdata": {"rt": -1, "trial_type": "single-stim", "stimulus": "<p id=\"stim\">3</p>", "internal_node_id": "0.0-110.0-7.0", "time_elapsed": 782095, "key_press": -1, "trial_index": 153}, "uniqueid": "MTK2735:3IHR8NYAM88O397X9K1WNZBQY7RP4A", "dateTime": 1519318669006}, {"current_trial": 154, "trialdata": {"rt": -1, "trial_type": "single-stim", "stimulus": "<p id=\"stim\">2</p>", "internal_node_id": "0.0-110.0-8.0", "time_elapsed": 783097, "key_press": -1, "trial_index": 154}, "uniqueid": "MTK2735:3IHR8NYAM88O397X9K1WNZBQY7RP4A", "dateTime": 1519318670008}, {"current_trial": 155, "trialdata": {"rt": -1, "trial_type": "single-stim", "stimulus": "<p id=\"stim\">1</p>", "internal_node_id": "0.0-110.0-9.0", "time_elapsed": 784102, "key_press": -1, "trial_index": 155}, "uniqueid": "MTK2735:3IHR8NYAM88O397X9K1WNZBQY7RP4A", "dateTime": 1519318671013}, {"current_trial": 156, "trialdata": {"rt": -1, "trial_type": "single-stim", "stimulus": "<p id=\"stim\">+</p>", "internal_node_id": "0.0-111.0-0.0", "time_elapsed": 785605, "key_press": -1, "type": "FIXATION", "trial_index": 156}, "uniqueid": "MTK2735:3IHR8NYAM88O397X9K1WNZBQY7RP4A", "dateTime": 1519318672516}, {"current_trial": 157, "trialdata": {"rt": -1, "trial_type": "single-stim", "word": "glass", "stimulus": "<p id=\"stim\">GLASS</p>", "conditions": [24, 1600, "v", 24000], "internal_node_id": "0.0-112.0", "trial": 4, "time_elapsed": 787210, "serialpos": 0, "key_press": -1, "wordID": 638, "type": "PRES_VIS", "trial_index": 157}, "uniqueid": "MTK2735:3IHR8NYAM88O397X9K1WNZBQY7RP4A", "dateTime": 1519318674121}, {"current_trial": 158, "trialdata": {"rt": -1, "trial_type": "single-stim", "word": "ointment", "stimulus": "<p id=\"stim\">OINTMENT</p>", "conditions": [24, 1600, "v", 24000], "internal_node_id": "0.0-113.0", "trial": 4, "time_elapsed": 789851, "serialpos": 1, "key_press": -1, "wordID": 973, "type": "PRES_VIS", "trial_index": 158}, "uniqueid": "MTK2735:3IHR8NYAM88O397X9K1WNZBQY7RP4A", "dateTime": 1519318676762}, {"current_trial": 159, "trialdata": {"rt": -1, "trial_type": "single-stim", "word": "sponge", "stimulus": "<p id=\"stim\">SPONGE</p>", "conditions": [24, 1600, "v", 24000], "internal_node_id": "0.0-114.0", "trial": 4, "time_elapsed": 792354, "serialpos": 2, "key_press": -1, "wordID": 1354, "type": "PRES_VIS", "trial_index": 159}, "uniqueid": "MTK2735:3IHR8NYAM88O397X9K1WNZBQY7RP4A", "dateTime": 1519318679265}, {"current_trial": 160, "trialdata": {"rt": -1, "trial_type": "single-stim", "word": "beef", "stimulus": "<p id=\"stim\">BEEF</p>", "conditions": [24, 1600, "v", 24000], "internal_node_id": "0.0-115.0", "trial": 4, "time_elapsed": 794999, "serialpos": 3, "key_press": -1, "wordID": 112, "type": "PRES_VIS", "trial_index": 160}, "uniqueid": "MTK2735:3IHR8NYAM88O397X9K1WNZBQY7RP4A", "dateTime": 1519318681911}, {"current_trial": 161, "trialdata": {"rt": -1, "trial_type": "single-stim", "word": "dentist", "stimulus": "<p id=\"stim\">DENTIST</p>", "conditions": [24, 1600, "v", 24000], "internal_node_id": "0.0-116.0", "trial": 4, "time_elapsed": 797512, "serialpos": 4, "key_press": -1, "wordID": 446, "type": "PRES_VIS", "trial_index": 161}, "uniqueid": "MTK2735:3IHR8NYAM88O397X9K1WNZBQY7RP4A", "dateTime": 1519318684423}, {"current_trial": 162, "trialdata": {"rt": -1, "trial_type": "single-stim", "word": "scissors", "stimulus": "<p id=\"stim\">SCISSORS</p>", "conditions": [24, 1600, "v", 24000], "internal_node_id": "0.0-117.0", "trial": 4, "time_elapsed": 799934, "serialpos": 5, "key_press": -1, "wordID": 1249, "type": "PRES_VIS", "trial_index": 162}, "uniqueid": "MTK2735:3IHR8NYAM88O397X9K1WNZBQY7RP4A", "dateTime": 1519318686846}, {"current_trial": 163, "trialdata": {"rt": -1, "trial_type": "single-stim", "word": "pliers", "stimulus": "<p id=\"stim\">PLIERS</p>", "conditions": [24, 1600, "v", 24000], "internal_node_id": "0.0-118.0", "trial": 4, "time_elapsed": 802368, "serialpos": 6, "key_press": -1, "wordID": 1088, "type": "PRES_VIS", "trial_index": 163}, "uniqueid": "MTK2735:3IHR8NYAM88O397X9K1WNZBQY7RP4A", "dateTime": 1519318689279}, {"current_trial": 164, "trialdata": {"rt": -1, "trial_type": "single-stim", "word": "cashier", "stimulus": "<p id=\"stim\">CASHIER</p>", "conditions": [24, 1600, "v", 24000], "internal_node_id": "0.0-119.0", "trial": 4, "time_elapsed": 805033, "serialpos": 7, "key_press": -1, "wordID": 253, "type": "PRES_VIS", "trial_index": 164}, "uniqueid": "MTK2735:3IHR8NYAM88O397X9K1WNZBQY7RP4A", "dateTime": 1519318691944}, {"current_trial": 165, "trialdata": {"rt": -1, "trial_type": "single-stim", "word": "cattle", "stimulus": "<p id=\"stim\">CATTLE</p>", "conditions": [24, 1600, "v", 24000], "internal_node_id": "0.0-120.0", "trial": 4, "time_elapsed": 807464, "serialpos": 8, "key_press": -1, "wordID": 260, "type": "PRES_VIS", "trial_index": 165}, "uniqueid": "MTK2735:3IHR8NYAM88O397X9K1WNZBQY7RP4A", "dateTime": 1519318694375}, {"current_trial": 166, "trialdata": {"rt": -1, "trial_type": "single-stim", "word": "poet", "stimulus": "<p id=\"stim\">POET</p>", "conditions": [24, 1600, "v", 24000], "internal_node_id": "0.0-121.0", "trial": 4, "time_elapsed": 810229, "serialpos": 9, "key_press": -1, "wordID": 1094, "type": "PRES_VIS", "trial_index": 166}, "uniqueid": "MTK2735:3IHR8NYAM88O397X9K1WNZBQY7RP4A", "dateTime": 1519318697140}, {"current_trial": 167, "trialdata": {"rt": -1, "trial_type": "single-stim", "word": "flashlight", "stimulus": "<p id=\"stim\">FLASHLIGHT</p>", "conditions": [24, 1600, "v", 24000], "internal_node_id": "0.0-122.0", "trial": 4, "time_elapsed": 812990, "serialpos": 10, "key_press": -1, "wordID": 574, "type": "PRES_VIS", "trial_index": 167}, "uniqueid": "MTK2735:3IHR8NYAM88O397X9K1WNZBQY7RP4A", "dateTime": 1519318699901}, {"current_trial": 168, "trialdata": {"rt": -1, "trial_type": "single-stim", "word": "shark", "stimulus": "<p id=\"stim\">SHARK</p>", "conditions": [24, 1600, "v", 24000], "internal_node_id": "0.0-123.0", "trial": 4, "time_elapsed": 815722, "serialpos": 11, "key_press": -1, "wordID": 1274, "type": "PRES_VIS", "trial_index": 168}, "uniqueid": "MTK2735:3IHR8NYAM88O397X9K1WNZBQY7RP4A", "dateTime": 1519318702633}, {"current_trial": 169, "trialdata": {"rt": -1, "trial_type": "single-stim", "word": "dragon", "stimulus": "<p id=\"stim\">DRAGON</p>", "conditions": [24, 1600, "v", 24000], "internal_node_id": "0.0-124.0", "trial": 4, "time_elapsed": 818509, "serialpos": 12, "key_press": -1, "wordID": 491, "type": "PRES_VIS", "trial_index": 169}, "uniqueid": "MTK2735:3IHR8NYAM88O397X9K1WNZBQY7RP4A", "dateTime": 1519318705420}, {"current_trial": 170, "trialdata": {"rt": -1, "trial_type": "single-stim", "word": "flipper", "stimulus": "<p id=\"stim\">FLIPPER</p>", "conditions": [24, 1600, "v", 24000], "internal_node_id": "0.0-125.0", "trial": 4, "time_elapsed": 820992, "serialpos": 13, "key_press": -1, "wordID": 579, "type": "PRES_VIS", "trial_index": 170}, "uniqueid": "MTK2735:3IHR8NYAM88O397X9K1WNZBQY7RP4A", "dateTime": 1519318707903}, {"current_trial": 171, "trialdata": {"rt": -1, "trial_type": "single-stim", "word": "perfume", "stimulus": "<p id=\"stim\">PERFUME</p>", "conditions": [24, 1600, "v", 24000], "internal_node_id": "0.0-126.0", "trial": 4, "time_elapsed": 823792, "serialpos": 14, "key_press": -1, "wordID": 1048, "type": "PRES_VIS", "trial_index": 171}, "uniqueid": "MTK2735:3IHR8NYAM88O397X9K1WNZBQY7RP4A", "dateTime": 1519318710704}, {"current_trial": 172, "trialdata": {"rt": -1, "trial_type": "single-stim", "word": "hornet", "stimulus": "<p id=\"stim\">HORNET</p>", "conditions": [24, 1600, "v", 24000], "internal_node_id": "0.0-127.0", "trial": 4, "time_elapsed": 826471, "serialpos": 15, "key_press": -1, "wordID": 717, "type": "PRES_VIS", "trial_index": 172}, "uniqueid": "MTK2735:3IHR8NYAM88O397X9K1WNZBQY7RP4A", "dateTime": 1519318713383}, {"current_trial": 173, "trialdata": {"rt": -1, "trial_type": "single-stim", "word": "fungus", "stimulus": "<p id=\"stim\">FUNGUS</p>", "conditions": [24, 1600, "v", 24000], "internal_node_id": "0.0-128.0", "trial": 4, "time_elapsed": 829166, "serialpos": 16, "key_press": -1, "wordID": 613, "type": "PRES_VIS", "trial_index": 173}, "uniqueid": "MTK2735:3IHR8NYAM88O397X9K1WNZBQY7RP4A", "dateTime": 1519318716077}, {"current_trial": 174, "trialdata": {"rt": -1, "trial_type": "single-stim", "word": "necklace", "stimulus": "<p id=\"stim\">NECKLACE</p>", "conditions": [24, 1600, "v", 24000], "internal_node_id": "0.0-129.0", "trial": 4, "time_elapsed": 831836, "serialpos": 17, "key_press": -1, "wordID": 939, "type": "PRES_VIS", "trial_index": 174}, "uniqueid": "MTK2735:3IHR8NYAM88O397X9K1WNZBQY7RP4A", "dateTime": 1519318718747}, {"current_trial": 175, "trialdata": {"rt": -1, "trial_type": "single-stim", "word": "handbag", "stimulus": "<p id=\"stim\">HANDBAG</p>", "conditions": [24, 1600, "v", 24000], "internal_node_id": "0.0-130.0", "trial": 4, "time_elapsed": 834588, "serialpos": 18, "key_press": -1, "wordID": 683, "type": "PRES_VIS", "trial_index": 175}, "uniqueid": "MTK2735:3IHR8NYAM88O397X9K1WNZBQY7RP4A", "dateTime": 1519318721499}, {"current_trial": 176, "trialdata": {"rt": -1, "trial_type": "single-stim", "word": "forest", "stimulus": "<p id=\"stim\">FOREST</p>", "conditions": [24, 1600, "v", 24000], "internal_node_id": "0.0-131.0", "trial": 4, "time_elapsed": 837064, "serialpos": 19, "key_press": -1, "wordID": 592, "type": "PRES_VIS", "trial_index": 176}, "uniqueid": "MTK2735:3IHR8NYAM88O397X9K1WNZBQY7RP4A", "dateTime": 1519318723975}, {"current_trial": 177, "trialdata": {"rt": -1, "trial_type": "single-stim", "word": "gymnast", "stimulus": "<p id=\"stim\">GYMNAST</p>", "conditions": [24, 1600, "v", 24000], "internal_node_id": "0.0-132.0", "trial": 4, "time_elapsed": 839660, "serialpos": 20, "key_press": -1, "wordID": 674, "type": "PRES_VIS", "trial_index": 177}, "uniqueid": "MTK2735:3IHR8NYAM88O397X9K1WNZBQY7RP4A", "dateTime": 1519318726571}, {"current_trial": 178, "trialdata": {"rt": -1, "trial_type": "single-stim", "word": "skirt", "stimulus": "<p id=\"stim\">SKIRT</p>", "conditions": [24, 1600, "v", 24000], "internal_node_id": "0.0-133.0", "trial": 4, "time_elapsed": 842386, "serialpos": 21, "key_press": -1, "wordID": 1318, "type": "PRES_VIS", "trial_index": 178}, "uniqueid": "MTK2735:3IHR8NYAM88O397X9K1WNZBQY7RP4A", "dateTime": 1519318729297}, {"current_trial": 179, "trialdata": {"rt": -1, "trial_type": "single-stim", "word": "outdoors", "stimulus": "<p id=\"stim\">OUTDOORS</p>", "conditions": [24, 1600, "v", 24000], "internal_node_id": "0.0-134.0", "trial": 4, "time_elapsed": 844994, "serialpos": 22, "key_press": -1, "wordID": 986, "type": "PRES_VIS", "trial_index": 179}, "uniqueid": "MTK2735:3IHR8NYAM88O397X9K1WNZBQY7RP4A", "dateTime": 1519318731905}, {"current_trial": 180, "trialdata": {"rt": -1, "trial_type": "single-stim", "word": "dancer", "stimulus": "<p id=\"stim\">DANCER</p>", "conditions": [24, 1600, "v", 24000], "internal_node_id": "0.0-135.0", "trial": 4, "time_elapsed": 847460, "serialpos": 23, "key_press": -1, "wordID": 436, "type": "PRES_VIS", "trial_index": 180}, "uniqueid": "MTK2735:3IHR8NYAM88O397X9K1WNZBQY7RP4A", "dateTime": 1519318734371}, {"current_trial": 181, "trialdata": {"rt": -1, "trial_type": "single-stim", "stimulus": "", "internal_node_id": "0.0-136.0-0.0", "time_elapsed": 849938, "key_press": -1, "type": "PRE_RECALL_DELAY", "trial_index": 181}, "uniqueid": "MTK2735:3IHR8NYAM88O397X9K1WNZBQY7RP4A", "dateTime": 1519318736850}, {"current_trial": 182, "trialdata": {"rt": -1000, "trial_type": "single-audio", "stimulus": "/static/audio/400Hz.wav", "internal_node_id": "0.0-137.0", "time_elapsed": 850451, "key_press": -1, "type": "PRE_RECALL_ALERT", "trial_index": 182}, "uniqueid": "MTK2735:3IHR8NYAM88O397X9K1WNZBQY7RP4A", "dateTime": 1519318737362}, {"current_trial": 183, "trialdata": {"rt": [2139, 4811, 6534, 8492, 18712, 19853, 21281, 30666, 38194, 55667], "recwords": ["dancer", "hornet", "purse", "pefume", "scissors", "beef", "cattle", "poet", "skirt", "glass"], "key_times": [683, 1429, 1573, 1721, 1925, 2033, 2139, 2393, 2489, 2695, 3226, 3355, 3518, 4811, 5109, 5423, 5641, 5871, 6193, 6534, 6870, 7044, 7662, 8017, 8214, 8310, 8492, 17252, 17310, 17585, 18074, 18224, 18278, 18408, 18558, 18712, 19079, 19292, 19445, 19671, 19853, 20089, 20206, 20419, 20545, 21041, 21134, 21281, 29346, 29466, 29686, 29950, 30666, 37463, 37601, 37770, 37919, 38091, 38194, 54549, 54816, 54964, 55130, 55281, 55667], "trial_type": "free-recall", "conditions": [24, 1600, "v", 24000], "internal_node_id": "0.0-138.0-0.0", "key_presses": [68, 65, 78, 67, 69, 82, 13, 72, 79, 82, 78, 69, 84, 13, 80, 85, 82, 83, 69, 13, 80, 69, 70, 85, 77, 69, 13, 83, 67, 73, 83, 83, 79, 82, 83, 13, 66, 69, 69, 70, 13, 67, 65, 84, 84, 76, 69, 13, 80, 79, 69, 84, 13, 83, 75, 73, 82, 84, 13, 71, 76, 65, 83, 83, 13], "trial": 4, "time_elapsed": 910461, "type": "FREE_RECALL", "trial_index": 183}, "uniqueid": "MTK2735:3IHR8NYAM88O397X9K1WNZBQY7RP4A", "dateTime": 1519318797374}, {"current_trial": 184, "trialdata": {"rt": 41121, "trial_type": "text", "internal_node_id": "0.0-139.0", "time_elapsed": 953589, "key_press": 13, "type": "INSTRUCTIONS", "trial_index": 184}, "uniqueid": "MTK2735:3IHR8NYAM88O397X9K1WNZBQY7RP4A", "dateTime": 1519318840500}, {"current_trial": 185, "trialdata": {"rt": [4499, 7660, 9404, 11351, 14969, 18109, 22220], "trial_type": "math-distractor", "key_times": [4146, 4248, 4499, 7190, 7401, 7660, 8964, 9136, 9404, 10850, 11135, 11351, 14643, 14749, 14969, 17388, 17826, 18109, 21751, 22067, 22220, 23899], "responses": ["17", "14", "17", "16", "17", "16", "13"], "num2": [3, 2, 9, 4, 8, 8, 5, 2], "num3": [8, 5, 7, 4, 6, 4, 1, 1], "conditions": [12, 800, "v", 24000], "internal_node_id": "0.0-140.0", "key_presses": [49, 55, 13, 49, 52, 13, 49, 55, 13, 49, 54, 13, 49, 55, 13, 49, 54, 13, 49, 51, 13, 54], "trial": 5, "time_elapsed": 979595, "type": "DISTRACTOR", "trial_index": 185, "num1": [6, 7, 1, 8, 3, 4, 7, 3]}, "uniqueid": "MTK2735:3IHR8NYAM88O397X9K1WNZBQY7RP4A", "dateTime": 1519318866506}, {"current_trial": 186, "trialdata": {"rt": -1, "trial_type": "single-stim", "stimulus": "<p id=\"stim\">10</p>", "internal_node_id": "0.0-141.0-0.0", "time_elapsed": 982602, "key_press": -1, "trial_index": 186}, "uniqueid": "MTK2735:3IHR8NYAM88O397X9K1WNZBQY7RP4A", "dateTime": 1519318869513}, {"current_trial": 187, "trialdata": {"rt": -1, "trial_type": "single-stim", "stimulus": "<p id=\"stim\">9</p>", "internal_node_id": "0.0-141.0-1.0", "time_elapsed": 983606, "key_press": -1, "trial_index": 187}, "uniqueid": "MTK2735:3IHR8NYAM88O397X9K1WNZBQY7RP4A", "dateTime": 1519318870517}, {"current_trial": 188, "trialdata": {"rt": -1, "trial_type": "single-stim", "stimulus": "<p id=\"stim\">8</p>", "internal_node_id": "0.0-141.0-2.0", "time_elapsed": 984608, "key_press": -1, "trial_index": 188}, "uniqueid": "MTK2735:3IHR8NYAM88O397X9K1WNZBQY7RP4A", "dateTime": 1519318871519}, {"current_trial": 189, "trialdata": {"rt": -1, "trial_type": "single-stim", "stimulus": "<p id=\"stim\">7</p>", "internal_node_id": "0.0-141.0-3.0", "time_elapsed": 985610, "key_press": -1, "trial_index": 189}, "uniqueid": "MTK2735:3IHR8NYAM88O397X9K1WNZBQY7RP4A", "dateTime": 1519318872521}, {"current_trial": 190, "trialdata": {"rt": -1, "trial_type": "single-stim", "stimulus": "<p id=\"stim\">6</p>", "internal_node_id": "0.0-141.0-4.0", "time_elapsed": 986615, "key_press": -1, "trial_index": 190}, "uniqueid": "MTK2735:3IHR8NYAM88O397X9K1WNZBQY7RP4A", "dateTime": 1519318873526}, {"current_trial": 191, "trialdata": {"rt": -1, "trial_type": "single-stim", "stimulus": "<p id=\"stim\">5</p>", "internal_node_id": "0.0-141.0-5.0", "time_elapsed": 987619, "key_press": -1, "trial_index": 191}, "uniqueid": "MTK2735:3IHR8NYAM88O397X9K1WNZBQY7RP4A", "dateTime": 1519318874530}, {"current_trial": 192, "trialdata": {"rt": -1, "trial_type": "single-stim", "stimulus": "<p id=\"stim\">4</p>", "internal_node_id": "0.0-141.0-6.0", "time_elapsed": 988624, "key_press": -1, "trial_index": 192}, "uniqueid": "MTK2735:3IHR8NYAM88O397X9K1WNZBQY7RP4A", "dateTime": 1519318875535}, {"current_trial": 193, "trialdata": {"rt": -1, "trial_type": "single-stim", "stimulus": "<p id=\"stim\">3</p>", "internal_node_id": "0.0-141.0-7.0", "time_elapsed": 989626, "key_press": -1, "trial_index": 193}, "uniqueid": "MTK2735:3IHR8NYAM88O397X9K1WNZBQY7RP4A", "dateTime": 1519318876538}, {"current_trial": 194, "trialdata": {"rt": -1, "trial_type": "single-stim", "stimulus": "<p id=\"stim\">2</p>", "internal_node_id": "0.0-141.0-8.0", "time_elapsed": 990632, "key_press": -1, "trial_index": 194}, "uniqueid": "MTK2735:3IHR8NYAM88O397X9K1WNZBQY7RP4A", "dateTime": 1519318877543}, {"current_trial": 195, "trialdata": {"rt": -1, "trial_type": "single-stim", "stimulus": "<p id=\"stim\">1</p>", "internal_node_id": "0.0-141.0-9.0", "time_elapsed": 991634, "key_press": -1, "trial_index": 195}, "uniqueid": "MTK2735:3IHR8NYAM88O397X9K1WNZBQY7RP4A", "dateTime": 1519318878545}, {"current_trial": 196, "trialdata": {"rt": -1, "trial_type": "single-stim", "stimulus": "<p id=\"stim\">+</p>", "internal_node_id": "0.0-142.0-0.0", "time_elapsed": 993136, "key_press": -1, "type": "FIXATION", "trial_index": 196}, "uniqueid": "MTK2735:3IHR8NYAM88O397X9K1WNZBQY7RP4A", "dateTime": 1519318880047}, {"current_trial": 197, "trialdata": {"rt": -1, "trial_type": "single-stim", "word": "twig", "stimulus": "<p id=\"stim\">TWIG</p>", "conditions": [12, 800, "v", 24000], "internal_node_id": "0.0-143.0", "trial": 5, "time_elapsed": 993939, "serialpos": 0, "key_press": -1, "wordID": 1526, "type": "PRES_VIS", "trial_index": 197}, "uniqueid": "MTK2735:3IHR8NYAM88O397X9K1WNZBQY7RP4A", "dateTime": 1519318880850}, {"current_trial": 198, "trialdata": {"rt": -1, "trial_type": "single-stim", "word": "shelf", "stimulus": "<p id=\"stim\">SHELF</p>", "conditions": [12, 800, "v", 24000], "internal_node_id": "0.0-144.0", "trial": 5, "time_elapsed": 995821, "serialpos": 1, "key_press": -1, "wordID": 1279, "type": "PRES_VIS", "trial_index": 198}, "uniqueid": "MTK2735:3IHR8NYAM88O397X9K1WNZBQY7RP4A", "dateTime": 1519318882732}, {"current_trial": 199, "trialdata": {"rt": -1, "trial_type": "single-stim", "word": "ankle", "stimulus": "<p id=\"stim\">ANKLE</p>", "conditions": [12, 800, "v", 24000], "internal_node_id": "0.0-145.0", "trial": 5, "time_elapsed": 997768, "serialpos": 2, "key_press": -1, "wordID": 23, "type": "PRES_VIS", "trial_index": 199}, "uniqueid": "MTK2735:3IHR8NYAM88O397X9K1WNZBQY7RP4A", "dateTime": 1519318884679}, {"current_trial": 200, "trialdata": {"rt": -1, "trial_type": "single-stim", "word": "wife", "stimulus": "<p id=\"stim\">WIFE</p>", "conditions": [12, 800, "v", 24000], "internal_node_id": "0.0-146.0", "trial": 5, "time_elapsed": 999538, "serialpos": 3, "key_press": -1, "wordID": 1608, "type": "PRES_VIS", "trial_index": 200}, "uniqueid": "MTK2735:3IHR8NYAM88O397X9K1WNZBQY7RP4A", "dateTime": 1519318886449}, {"current_trial": 201, "trialdata": {"rt": -1, "trial_type": "single-stim", "word": "rifle", "stimulus": "<p id=\"stim\">RIFLE</p>", "conditions": [12, 800, "v", 24000], "internal_node_id": "0.0-147.0", "trial": 5, "time_elapsed": 1001318, "serialpos": 4, "key_press": -1, "wordID": 1191, "type": "PRES_VIS", "trial_index": 201}, "uniqueid": "MTK2735:3IHR8NYAM88O397X9K1WNZBQY7RP4A", "dateTime": 1519318888229}, {"current_trial": 202, "trialdata": {"rt": -1, "trial_type": "single-stim", "word": "tourist", "stimulus": "<p id=\"stim\">TOURIST</p>", "conditions": [12, 800, "v", 24000], "internal_node_id": "0.0-148.0", "trial": 5, "time_elapsed": 1003077, "serialpos": 5, "key_press": -1, "wordID": 1487, "type": "PRES_VIS", "trial_index": 202}, "uniqueid": "MTK2735:3IHR8NYAM88O397X9K1WNZBQY7RP4A", "dateTime": 1519318889988}, {"current_trial": 203, "trialdata": {"rt": -1, "trial_type": "single-stim", "word": "bureau", "stimulus": "<p id=\"stim\">BUREAU</p>", "conditions": [12, 800, "v", 24000], "internal_node_id": "0.0-149.0", "trial": 5, "time_elapsed": 1004881, "serialpos": 6, "key_press": -1, "wordID": 198, "type": "PRES_VIS", "trial_index": 203}, "uniqueid": "MTK2735:3IHR8NYAM88O397X9K1WNZBQY7RP4A", "dateTime": 1519318891792}, {"current_trial": 204, "trialdata": {"rt": -1, "trial_type": "single-stim", "word": "stove", "stimulus": "<p id=\"stim\">STOVE</p>", "conditions": [12, 800, "v", 24000], "internal_node_id": "0.0-150.0", "trial": 5, "time_elapsed": 1006884, "serialpos": 7, "key_press": -1, "wordID": 1387, "type": "PRES_VIS", "trial_index": 204}, "uniqueid": "MTK2735:3IHR8NYAM88O397X9K1WNZBQY7RP4A", "dateTime": 1519318893795}, {"current_trial": 205, "trialdata": {"rt": -1, "trial_type": "single-stim", "word": "plaza", "stimulus": "<p id=\"stim\">PLAZA</p>", "conditions": [12, 800, "v", 24000], "internal_node_id": "0.0-151.0", "trial": 5, "time_elapsed": 1008649, "serialpos": 8, "key_press": -1, "wordID": 1087, "type": "PRES_VIS", "trial_index": 205}, "uniqueid": "MTK2735:3IHR8NYAM88O397X9K1WNZBQY7RP4A", "dateTime": 1519318895560}, {"current_trial": 206, "trialdata": {"rt": -1, "trial_type": "single-stim", "word": "sidewalk", "stimulus": "<p id=\"stim\">SIDEWALK</p>", "conditions": [12, 800, "v", 24000], "internal_node_id": "0.0-152.0", "trial": 5, "time_elapsed": 1010304, "serialpos": 9, "key_press": -1, "wordID": 1302, "type": "PRES_VIS", "trial_index": 206}, "uniqueid": "MTK2735:3IHR8NYAM88O397X9K1WNZBQY7RP4A", "dateTime": 1519318897215}, {"current_trial": 207, "trialdata": {"rt": -1, "trial_type": "single-stim", "word": "cottage", "stimulus": "<p id=\"stim\">COTTAGE</p>", "conditions": [12, 800, "v", 24000], "internal_node_id": "0.0-153.0", "trial": 5, "time_elapsed": 1012006, "serialpos": 10, "key_press": -1, "wordID": 383, "type": "PRES_VIS", "trial_index": 207}, "uniqueid": "MTK2735:3IHR8NYAM88O397X9K1WNZBQY7RP4A", "dateTime": 1519318898919}, {"current_trial": 208, "trialdata": {"rt": -1, "trial_type": "single-stim", "word": "leg", "stimulus": "<p id=\"stim\">LEG</p>", "conditions": [12, 800, "v", 24000], "internal_node_id": "0.0-154.0", "trial": 5, "time_elapsed": 1013781, "serialpos": 11, "key_press": -1, "wordID": 808, "type": "PRES_VIS", "trial_index": 208}, "uniqueid": "MTK2735:3IHR8NYAM88O397X9K1WNZBQY7RP4A", "dateTime": 1519318900692}, {"current_trial": 209, "trialdata": {"rt": -1, "trial_type": "single-stim", "stimulus": "", "internal_node_id": "0.0-155.0-0.0", "time_elapsed": 1016202, "key_press": -1, "type": "PRE_RECALL_DELAY", "trial_index": 209}, "uniqueid": "MTK2735:3IHR8NYAM88O397X9K1WNZBQY7RP4A", "dateTime": 1519318903113}, {"current_trial": 210, "trialdata": {"rt": -1000, "trial_type": "single-audio", "stimulus": "/static/audio/400Hz.wav", "internal_node_id": "0.0-156.0", "time_elapsed": 1016711, "key_press": -1, "type": "PRE_RECALL_ALERT", "trial_index": 210}, "uniqueid": "MTK2735:3IHR8NYAM88O397X9K1WNZBQY7RP4A", "dateTime": 1519318903622}, {"current_trial": 211, "trialdata": {"rt": [1971, 3196, 4453, 5625, 8791], "recwords": ["leg", "ankle", "cottage", "wife", "rifle"], "key_times": [1292, 1679, 1887, 1971, 2246, 2365, 2508, 2679, 2799, 3196, 3503, 3668, 3836, 3981, 4060, 4209, 4299, 4453, 5213, 5299, 5412, 5538, 5625, 8192, 8270, 8408, 8574, 8676, 8791], "trial_type": "free-recall", "conditions": [12, 800, "v", 24000], "internal_node_id": "0.0-157.0-0.0", "key_presses": [76, 69, 71, 13, 65, 78, 75, 76, 69, 13, 67, 79, 84, 84, 65, 71, 69, 13, 87, 73, 70, 69, 13, 82, 73, 70, 76, 69, 13], "trial": 5, "time_elapsed": 1076720, "type": "FREE_RECALL", "trial_index": 211}, "uniqueid": "MTK2735:3IHR8NYAM88O397X9K1WNZBQY7RP4A", "dateTime": 1519318963633}, {"current_trial": 212, "trialdata": {"rt": 10331, "trial_type": "text", "internal_node_id": "0.0-158.0", "time_elapsed": 1089055, "key_press": 13, "type": "INSTRUCTIONS", "trial_index": 212}, "uniqueid": "MTK2735:3IHR8NYAM88O397X9K1WNZBQY7RP4A", "dateTime": 1519318975967}, {"current_trial": 213, "trialdata": {"rt": [2673, 5350, 9800, 11667], "trial_type": "math-distractor", "key_times": [2347, 2534, 2673, 4940, 5162, 5350, 9367, 9643, 9800, 11470, 11667], "responses": ["12", "15", "14", "8"], "num2": [3, 2, 1, 1, 6], "num3": [1, 9, 8, 5, 9], "conditions": [12, 800, "v", 12000], "internal_node_id": "0.0-159.0", "key_presses": [49, 50, 13, 49, 53, 13, 49, 52, 13, 56, 13], "trial": 6, "time_elapsed": 1103066, "type": "DISTRACTOR", "trial_index": 213, "num1": [8, 4, 5, 3, 3]}, "uniqueid": "MTK2735:3IHR8NYAM88O397X9K1WNZBQY7RP4A", "dateTime": 1519318989977}, {"current_trial": 214, "trialdata": {"rt": -1, "trial_type": "single-stim", "stimulus": "<p id=\"stim\">10</p>", "internal_node_id": "0.0-160.0-0.0", "time_elapsed": 1106071, "key_press": -1, "trial_index": 214}, "uniqueid": "MTK2735:3IHR8NYAM88O397X9K1WNZBQY7RP4A", "dateTime": 1519318992982}, {"current_trial": 215, "trialdata": {"rt": -1, "trial_type": "single-stim", "stimulus": "<p id=\"stim\">9</p>", "internal_node_id": "0.0-160.0-1.0", "time_elapsed": 1107074, "key_press": -1, "trial_index": 215}, "uniqueid": "MTK2735:3IHR8NYAM88O397X9K1WNZBQY7RP4A", "dateTime": 1519318993985}, {"current_trial": 216, "trialdata": {"rt": -1, "trial_type": "single-stim", "stimulus": "<p id=\"stim\">8</p>", "internal_node_id": "0.0-160.0-2.0", "time_elapsed": 1108079, "key_press": -1, "trial_index": 216}, "uniqueid": "MTK2735:3IHR8NYAM88O397X9K1WNZBQY7RP4A", "dateTime": 1519318994990}, {"current_trial": 217, "trialdata": {"rt": -1, "trial_type": "single-stim", "stimulus": "<p id=\"stim\">7</p>", "internal_node_id": "0.0-160.0-3.0", "time_elapsed": 1109081, "key_press": -1, "trial_index": 217}, "uniqueid": "MTK2735:3IHR8NYAM88O397X9K1WNZBQY7RP4A", "dateTime": 1519318995993}, {"current_trial": 218, "trialdata": {"rt": -1, "trial_type": "single-stim", "stimulus": "<p id=\"stim\">6</p>", "internal_node_id": "0.0-160.0-4.0", "time_elapsed": 1110083, "key_press": -1, "trial_index": 218}, "uniqueid": "MTK2735:3IHR8NYAM88O397X9K1WNZBQY7RP4A", "dateTime": 1519318996994}, {"current_trial": 219, "trialdata": {"rt": -1, "trial_type": "single-stim", "stimulus": "<p id=\"stim\">5</p>", "internal_node_id": "0.0-160.0-5.0", "time_elapsed": 1111086, "key_press": -1, "trial_index": 219}, "uniqueid": "MTK2735:3IHR8NYAM88O397X9K1WNZBQY7RP4A", "dateTime": 1519318997997}, {"current_trial": 220, "trialdata": {"rt": -1, "trial_type": "single-stim", "stimulus": "<p id=\"stim\">4</p>", "internal_node_id": "0.0-160.0-6.0", "time_elapsed": 1112091, "key_press": -1, "trial_index": 220}, "uniqueid": "MTK2735:3IHR8NYAM88O397X9K1WNZBQY7RP4A", "dateTime": 1519318999002}, {"current_trial": 221, "trialdata": {"rt": -1, "trial_type": "single-stim", "stimulus": "<p id=\"stim\">3</p>", "internal_node_id": "0.0-160.0-7.0", "time_elapsed": 1113095, "key_press": -1, "trial_index": 221}, "uniqueid": "MTK2735:3IHR8NYAM88O397X9K1WNZBQY7RP4A", "dateTime": 1519319000007}, {"current_trial": 222, "trialdata": {"rt": -1, "trial_type": "single-stim", "stimulus": "<p id=\"stim\">2</p>", "internal_node_id": "0.0-160.0-8.0", "time_elapsed": 1114099, "key_press": -1, "trial_index": 222}, "uniqueid": "MTK2735:3IHR8NYAM88O397X9K1WNZBQY7RP4A", "dateTime": 1519319001010}, {"current_trial": 223, "trialdata": {"rt": -1, "trial_type": "single-stim", "stimulus": "<p id=\"stim\">1</p>", "internal_node_id": "0.0-160.0-9.0", "time_elapsed": 1115101, "key_press": -1, "trial_index": 223}, "uniqueid": "MTK2735:3IHR8NYAM88O397X9K1WNZBQY7RP4A", "dateTime": 1519319002012}, {"current_trial": 224, "trialdata": {"rt": -1, "trial_type": "single-stim", "stimulus": "<p id=\"stim\">+</p>", "internal_node_id": "0.0-161.0-0.0", "time_elapsed": 1116604, "key_press": -1, "type": "FIXATION", "trial_index": 224}, "uniqueid": "MTK2735:3IHR8NYAM88O397X9K1WNZBQY7RP4A", "dateTime": 1519319003516}, {"current_trial": 225, "trialdata": {"rt": -1, "trial_type": "single-stim", "word": "waiter", "stimulus": "<p id=\"stim\">WAITER</p>", "conditions": [12, 800, "v", 12000], "internal_node_id": "0.0-162.0", "trial": 6, "time_elapsed": 1117407, "serialpos": 0, "key_press": -1, "wordID": 1579, "type": "PRES_VIS", "trial_index": 225}, "uniqueid": "MTK2735:3IHR8NYAM88O397X9K1WNZBQY7RP4A", "dateTime": 1519319004318}, {"current_trial": 226, "trialdata": {"rt": -1, "trial_type": "single-stim", "word": "crib", "stimulus": "<p id=\"stim\">CRIB</p>", "conditions": [12, 800, "v", 12000], "internal_node_id": "0.0-163.0", "trial": 6, "time_elapsed": 1119406, "serialpos": 1, "key_press": -1, "wordID": 406, "type": "PRES_VIS", "trial_index": 226}, "uniqueid": "MTK2735:3IHR8NYAM88O397X9K1WNZBQY7RP4A", "dateTime": 1519319006317}, {"current_trial": 227, "trialdata": {"rt": -1, "trial_type": "single-stim", "word": "money", "stimulus": "<p id=\"stim\">MONEY</p>", "conditions": [12, 800, "v", 12000], "internal_node_id": "0.0-164.0", "trial": 6, "time_elapsed": 1121097, "serialpos": 2, "key_press": -1, "wordID": 907, "type": "PRES_VIS", "trial_index": 227}, "uniqueid": "MTK2735:3IHR8NYAM88O397X9K1WNZBQY7RP4A", "dateTime": 1519319008008}, {"current_trial": 228, "trialdata": {"rt": -1, "trial_type": "single-stim", "word": "rooster", "stimulus": "<p id=\"stim\">ROOSTER</p>", "conditions": [12, 800, "v", 12000], "internal_node_id": "0.0-165.0", "trial": 6, "time_elapsed": 1122722, "serialpos": 3, "key_press": -1, "wordID": 1208, "type": "PRES_VIS", "trial_index": 228}, "uniqueid": "MTK2735:3IHR8NYAM88O397X9K1WNZBQY7RP4A", "dateTime": 1519319009633}, {"current_trial": 229, "trialdata": {"rt": -1, "trial_type": "single-stim", "word": "carriage", "stimulus": "<p id=\"stim\">CARRIAGE</p>", "conditions": [12, 800, "v", 12000], "internal_node_id": "0.0-166.0", "trial": 6, "time_elapsed": 1124516, "serialpos": 4, "key_press": -1, "wordID": 247, "type": "PRES_VIS", "trial_index": 229}, "uniqueid": "MTK2735:3IHR8NYAM88O397X9K1WNZBQY7RP4A", "dateTime": 1519319011427}, {"current_trial": 230, "trialdata": {"rt": -1, "trial_type": "single-stim", "word": "knife", "stimulus": "<p id=\"stim\">KNIFE</p>", "conditions": [12, 800, "v", 12000], "internal_node_id": "0.0-167.0", "trial": 6, "time_elapsed": 1126367, "serialpos": 5, "key_press": -1, "wordID": 784, "type": "PRES_VIS", "trial_index": 230}, "uniqueid": "MTK2735:3IHR8NYAM88O397X9K1WNZBQY7RP4A", "dateTime": 1519319013278}, {"current_trial": 231, "trialdata": {"rt": -1, "trial_type": "single-stim", "word": "pistol", "stimulus": "<p id=\"stim\">PISTOL</p>", "conditions": [12, 800, "v", 12000], "internal_node_id": "0.0-168.0", "trial": 6, "time_elapsed": 1128288, "serialpos": 6, "key_press": -1, "wordID": 1074, "type": "PRES_VIS", "trial_index": 231}, "uniqueid": "MTK2735:3IHR8NYAM88O397X9K1WNZBQY7RP4A", "dateTime": 1519319015199}, {"current_trial": 232, "trialdata": {"rt": -1, "trial_type": "single-stim", "word": "gallon", "stimulus": "<p id=\"stim\">GALLON</p>", "conditions": [12, 800, "v", 12000], "internal_node_id": "0.0-169.0", "trial": 6, "time_elapsed": 1130002, "serialpos": 7, "key_press": -1, "wordID": 617, "type": "PRES_VIS", "trial_index": 232}, "uniqueid": "MTK2735:3IHR8NYAM88O397X9K1WNZBQY7RP4A", "dateTime": 1519319016913}, {"current_trial": 233, "trialdata": {"rt": -1, "trial_type": "single-stim", "word": "body", "stimulus": "<p id=\"stim\">BODY</p>", "conditions": [12, 800, "v", 12000], "internal_node_id": "0.0-170.0", "trial": 6, "time_elapsed": 1131663, "serialpos": 8, "key_press": -1, "wordID": 144, "type": "PRES_VIS", "trial_index": 233}, "uniqueid": "MTK2735:3IHR8NYAM88O397X9K1WNZBQY7RP4A", "dateTime": 1519319018574}, {"current_trial": 234, "trialdata": {"rt": -1, "trial_type": "single-stim", "word": "heart", "stimulus": "<p id=\"stim\">HEART</p>", "conditions": [12, 800, "v", 12000], "internal_node_id": "0.0-171.0", "trial": 6, "time_elapsed": 1133568, "serialpos": 9, "key_press": -1, "wordID": 696, "type": "PRES_VIS", "trial_index": 234}, "uniqueid": "MTK2735:3IHR8NYAM88O397X9K1WNZBQY7RP4A", "dateTime": 1519319020479}, {"current_trial": 235, "trialdata": {"rt": -1, "trial_type": "single-stim", "word": "barrel", "stimulus": "<p id=\"stim\">BARREL</p>", "conditions": [12, 800, "v", 12000], "internal_node_id": "0.0-172.0", "trial": 6, "time_elapsed": 1135270, "serialpos": 10, "key_press": -1, "wordID": 90, "type": "PRES_VIS", "trial_index": 235}, "uniqueid": "MTK2735:3IHR8NYAM88O397X9K1WNZBQY7RP4A", "dateTime": 1519319022181}, {"current_trial": 236, "trialdata": {"rt": -1, "trial_type": "single-stim", "word": "atlas", "stimulus": "<p id=\"stim\">ATLAS</p>", "conditions": [12, 800, "v", 12000], "internal_node_id": "0.0-173.0", "trial": 6, "time_elapsed": 1137165, "serialpos": 11, "key_press": -1, "wordID": 52, "type": "PRES_VIS", "trial_index": 236}, "uniqueid": "MTK2735:3IHR8NYAM88O397X9K1WNZBQY7RP4A", "dateTime": 1519319024076}, {"current_trial": 237, "trialdata": {"rt": -1, "trial_type": "single-stim", "stimulus": "", "internal_node_id": "0.0-174.0-0.0", "time_elapsed": 1139413, "key_press": -1, "type": "PRE_RECALL_DELAY", "trial_index": 237}, "uniqueid": "MTK2735:3IHR8NYAM88O397X9K1WNZBQY7RP4A", "dateTime": 1519319026324}, {"current_trial": 238, "trialdata": {"rt": -1000, "trial_type": "single-audio", "stimulus": "/static/audio/400Hz.wav", "internal_node_id": "0.0-175.0", "time_elapsed": 1139916, "key_press": -1, "type": "PRE_RECALL_ALERT", "trial_index": 238}, "uniqueid": "MTK2735:3IHR8NYAM88O397X9K1WNZBQY7RP4A", "dateTime": 1519319026827}, {"current_trial": 239, "trialdata": {"rt": [2228, 5708, 7185], "recwords": ["atlas", "knife", "pistol"], "key_times": [683, 820, 1799, 2026, 2072, 2228, 3659, 3905, 4374, 4769, 4887, 5134, 5268, 5359, 5476, 5708, 6071, 6200, 6316, 6529, 6618, 6925, 7185], "trial_type": "free-recall", "conditions": [12, 800, "v", 12000], "internal_node_id": "0.0-176.0-0.0", "key_presses": [65, 84, 76, 65, 83, 13, 75, 73, 70, 8, 8, 78, 73, 70, 69, 13, 80, 73, 83, 84, 79, 76, 13], "trial": 6, "time_elapsed": 1199922, "type": "FREE_RECALL", "trial_index": 239}, "uniqueid": "MTK2735:3IHR8NYAM88O397X9K1WNZBQY7RP4A", "dateTime": 1519319086837}, {"current_trial": 240, "trialdata": {"rt": 196260, "trial_type": "text", "internal_node_id": "0.0-177.0", "time_elapsed": 1398190, "key_press": 13, "type": "INSTRUCTIONS", "trial_index": 240}, "uniqueid": "MTK2735:3IHR8NYAM88O397X9K1WNZBQY7RP4A", "dateTime": 1519319285101}, {"current_trial": 241, "trialdata": {"rt": [2246, 5374, 7048, 8718, 11368, 13855, 16855, 19834, 21851], "trial_type": "math-distractor", "key_times": [2054, 2246, 5030, 5235, 5374, 6756, 6836, 7048, 8415, 8593, 8718, 11048, 11149, 11368, 13582, 13725, 13855, 16505, 16672, 16855, 19513, 19572, 19834, 21545, 21745, 21851], "responses": ["8", "21", "10", "12", "16", "14", "18", "18", "11"], "num2": [2, 9, 4, 3, 6, 4, 9, 9, 5, 6], "num3": [5, 3, 1, 6, 9, 9, 3, 5, 5, 2], "conditions": [12, 1600, "v", 24000], "internal_node_id": "0.0-178.0", "key_presses": [56, 13, 50, 49, 13, 49, 48, 13, 49, 50, 13, 49, 54, 13, 49, 52, 13, 49, 56, 13, 49, 56, 13, 49, 49, 13], "trial": 7, "time_elapsed": 1424198, "type": "DISTRACTOR", "trial_index": 241, "num1": [1, 9, 5, 3, 1, 2, 6, 4, 1, 5]}, "uniqueid": "MTK2735:3IHR8NYAM88O397X9K1WNZBQY7RP4A", "dateTime": 1519319311109}, {"current_trial": 242, "trialdata": {"rt": -1, "trial_type": "single-stim", "stimulus": "<p id=\"stim\">10</p>", "internal_node_id": "0.0-179.0-0.0", "time_elapsed": 1427202, "key_press": -1, "trial_index": 242}, "uniqueid": "MTK2735:3IHR8NYAM88O397X9K1WNZBQY7RP4A", "dateTime": 1519319314113}, {"current_trial": 243, "trialdata": {"rt": -1, "trial_type": "single-stim", "stimulus": "<p id=\"stim\">9</p>", "internal_node_id": "0.0-179.0-1.0", "time_elapsed": 1428204, "key_press": -1, "trial_index": 243}, "uniqueid": "MTK2735:3IHR8NYAM88O397X9K1WNZBQY7RP4A", "dateTime": 1519319315115}, {"current_trial": 244, "trialdata": {"rt": -1, "trial_type": "single-stim", "stimulus": "<p id=\"stim\">8</p>", "internal_node_id": "0.0-179.0-2.0", "time_elapsed": 1429210, "key_press": -1, "trial_index": 244}, "uniqueid": "MTK2735:3IHR8NYAM88O397X9K1WNZBQY7RP4A", "dateTime": 1519319316121}, {"current_trial": 245, "trialdata": {"rt": -1, "trial_type": "single-stim", "stimulus": "<p id=\"stim\">7</p>", "internal_node_id": "0.0-179.0-3.0", "time_elapsed": 1430212, "key_press": -1, "trial_index": 245}, "uniqueid": "MTK2735:3IHR8NYAM88O397X9K1WNZBQY7RP4A", "dateTime": 1519319317123}, {"current_trial": 246, "trialdata": {"rt": -1, "trial_type": "single-stim", "stimulus": "<p id=\"stim\">6</p>", "internal_node_id": "0.0-179.0-4.0", "time_elapsed": 1431218, "key_press": -1, "trial_index": 246}, "uniqueid": "MTK2735:3IHR8NYAM88O397X9K1WNZBQY7RP4A", "dateTime": 1519319318129}, {"current_trial": 247, "trialdata": {"rt": -1, "trial_type": "single-stim", "stimulus": "<p id=\"stim\">5</p>", "internal_node_id": "0.0-179.0-5.0", "time_elapsed": 1432222, "key_press": -1, "trial_index": 247}, "uniqueid": "MTK2735:3IHR8NYAM88O397X9K1WNZBQY7RP4A", "dateTime": 1519319319133}, {"current_trial": 248, "trialdata": {"rt": -1, "trial_type": "single-stim", "stimulus": "<p id=\"stim\">4</p>", "internal_node_id": "0.0-179.0-6.0", "time_elapsed": 1433224, "key_press": -1, "trial_index": 248}, "uniqueid": "MTK2735:3IHR8NYAM88O397X9K1WNZBQY7RP4A", "dateTime": 1519319320135}, {"current_trial": 249, "trialdata": {"rt": 620, "trial_type": "single-stim", "stimulus": "<p id=\"stim\">3</p>", "internal_node_id": "0.0-179.0-7.0", "time_elapsed": 1434228, "key_press": 175, "trial_index": 249}, "uniqueid": "MTK2735:3IHR8NYAM88O397X9K1WNZBQY7RP4A", "dateTime": 1519319321139}, {"current_trial": 250, "trialdata": {"rt": 129, "trial_type": "single-stim", "stimulus": "<p id=\"stim\">2</p>", "internal_node_id": "0.0-179.0-8.0", "time_elapsed": 1435233, "key_press": 175, "trial_index": 250}, "uniqueid": "MTK2735:3IHR8NYAM88O397X9K1WNZBQY7RP4A", "dateTime": 1519319322144}, {"current_trial": 251, "trialdata": {"rt": 255, "trial_type": "single-stim", "stimulus": "<p id=\"stim\">1</p>", "internal_node_id": "0.0-179.0-9.0", "time_elapsed": 1436236, "key_press": 174, "trial_index": 251}, "uniqueid": "MTK2735:3IHR8NYAM88O397X9K1WNZBQY7RP4A", "dateTime": 1519319323147}, {"current_trial": 252, "trialdata": {"rt": 160, "trial_type": "single-stim", "stimulus": "<p id=\"stim\">+</p>", "internal_node_id": "0.0-180.0-0.0", "time_elapsed": 1437738, "key_press": 174, "type": "FIXATION", "trial_index": 252}, "uniqueid": "MTK2735:3IHR8NYAM88O397X9K1WNZBQY7RP4A", "dateTime": 1519319324651}, {"current_trial": 253, "trialdata": {"rt": 909, "trial_type": "single-stim", "word": "college", "stimulus": "<p id=\"stim\">COLLEGE</p>", "conditions": [12, 1600, "v", 24000], "internal_node_id": "0.0-181.0", "trial": 7, "time_elapsed": 1439344, "serialpos": 0, "key_press": 174, "wordID": 345, "type": "PRES_VIS", "trial_index": 253}, "uniqueid": "MTK2735:3IHR8NYAM88O397X9K1WNZBQY7RP4A", "dateTime": 1519319326255}, {"current_trial": 254, "trialdata": {"rt": -1, "trial_type": "single-stim", "word": "brick", "stimulus": "<p id=\"stim\">BRICK</p>", "conditions": [12, 1600, "v", 24000], "internal_node_id": "0.0-182.0", "trial": 7, "time_elapsed": 1441996, "serialpos": 1, "key_press": -1, "wordID": 171, "type": "PRES_VIS", "trial_index": 254}, "uniqueid": "MTK2735:3IHR8NYAM88O397X9K1WNZBQY7RP4A", "dateTime": 1519319328907}, {"current_trial": 255, "trialdata": {"rt": -1, "trial_type": "single-stim", "word": "bike", "stimulus": "<p id=\"stim\">BIKE</p>", "conditions": [12, 1600, "v", 24000], "internal_node_id": "0.0-183.0", "trial": 7, "time_elapsed": 1444711, "serialpos": 2, "key_press": -1, "wordID": 124, "type": "PRES_VIS", "trial_index": 255}, "uniqueid": "MTK2735:3IHR8NYAM88O397X9K1WNZBQY7RP4A", "dateTime": 1519319331622}, {"current_trial": 256, "trialdata": {"rt": -1, "trial_type": "single-stim", "word": "canyon", "stimulus": "<p id=\"stim\">CANYON</p>", "conditions": [12, 1600, "v", 24000], "internal_node_id": "0.0-184.0", "trial": 7, "time_el