{"assignmentId": "3FK0YFF9P0N026N8FSBI2H0LXMVVVX", "workerId": "MTK2959", "questiondata": {"origin": "United States", "strat-rehearsal": "88", "marital": "Married/Domestic Partnership", "education": "Master's degree", "ethnicity": "Not Hispanic", "color_depth": 24, "distracted": "No", "wrote-notes": "No", "strat-other": "", "screen_width": 1536, "avail_screen_width": 1536, "avail_screen_height": 826, "strat-image": "56", "language": "english", "gender": "Female", "age": "39", "gender_other": "", "race": ["White"], "strat-categorize": "35", "pixel_depth": 24, "strat-spatial": "9", "strat-story": "30", "race_other": "", "screen_height": 864}, "bonus": 0, "hitId": "366FYU4PTGW3X09GVW3ZBK5YWH7KEW", "counterbalance": 1661, "useragent": "Mozilla/5.0 (Windows NT 6.3; Win64; x64) AppleWebKit/537.36 (KHTML, like Gecko) Chrome/63.0.3239.132 Safari/537.36", "eventdata": [{"eventtype": "initialized", "interval": 0, "value": null, "timestamp": 1519597865075}, {"eventtype": "window_resize", "interval": 1, "value": [1532, 808], "timestamp": 1519597865076}, {"eventtype": "focus", "interval": 42231, "value": "off", "timestamp": 1519597907307}, {"eventtype": "focus", "interval": 1, "value": "on", "timestamp": 1519597907308}, {"eventtype": "focus", "interval": 1714286, "value": "off", "timestamp": 1519599621594}, {"eventtype": "focus", "interval": 1906, "value": "on", "timestamp": 1519599623500}], "data": [{"current_trial": 0, "trialdata": {"rt": 1452, "trial_type": "text", "internal_node_id": "0.0-0.0", "time_elapsed": 1454, "key_press": 32, "type": "INSTRUCTIONS", "trial_index": 0}, "uniqueid": "MTK2959:3FK0YFF9P0N026N8FSBI2H0LXMVVVX", "dateTime": 1519597866985}, {"current_trial": 1, "trialdata": {"rt": 20648, "trial_type": "text", "internal_node_id": "0.0-1.0", "time_elapsed": 22104, "key_press": 13, "type": "INSTRUCTIONS", "trial_index": 1}, "uniqueid": "MTK2959:3FK0YFF9P0N026N8FSBI2H0LXMVVVX", "dateTime": 1519597887634}, {"current_trial": 2, "trialdata": {"rt": [7822], "trial_type": "audio-test", "responses": ["ocean"], "internal_node_id": "0.0-2.0", "time_elapsed": 29934, "type": "AUDIO_TEST", "trial_index": 2}, "uniqueid": "MTK2959:3FK0YFF9P0N026N8FSBI2H0LXMVVVX", "dateTime": 1519597895464}, {"current_trial": 3, "trialdata": {"rt": [5381], "trial_type": "audio-test", "responses": ["crystal"], "internal_node_id": "0.0-3.0", "time_elapsed": 35318, "type": "AUDIO_TEST", "trial_index": 3}, "uniqueid": "MTK2959:3FK0YFF9P0N026N8FSBI2H0LXMVVVX", "dateTime": 1519597900848}, {"current_trial": 4, "trialdata": {"rt": [4581, 11434], "trial_type": "audio-test", "responses": ["spite", "spice"], "internal_node_id": "0.0-4.0", "time_elapsed": 46756, "type": "AUDIO_TEST", "trial_index": 4}, "uniqueid": "MTK2959:3FK0YFF9P0N026N8FSBI2H0LXMVVVX", "dateTime": 1519597912286}, {"current_trial": 5, "trialdata": {"rt": 15103, "trial_type": "survey-text", "responses": "{\"Q0\":\"11 pm\",\"Q1\":\"7 am\",\"Q2\":\"5\"}", "internal_node_id": "0.0-5.0", "time_elapsed": 62613, "type": "SLEEP_SURVEY", "trial_index": 5}, "uniqueid": "MTK2959:3FK0YFF9P0N026N8FSBI2H0LXMVVVX", "dateTime": 1519597928143}, {"current_trial": 6, "trialdata": {"rt": 54109, "trial_type": "text", "internal_node_id": "0.0-6.0", "time_elapsed": 117723, "key_press": 13, "type": "INSTRUCTIONS", "trial_index": 6}, "uniqueid": "MTK2959:3FK0YFF9P0N026N8FSBI2H0LXMVVVX", "dateTime": 1519597983253}, {"current_trial": 7, "trialdata": {"rt": 14908, "trial_type": "text", "internal_node_id": "0.0-7.0", "time_elapsed": 133133, "key_press": 13, "type": "INSTRUCTIONS", "trial_index": 7}, "uniqueid": "MTK2959:3FK0YFF9P0N026N8FSBI2H0LXMVVVX", "dateTime": 1519597998663}, {"current_trial": 8, "trialdata": {"rt": 56646, "trial_type": "text", "internal_node_id": "0.0-8.0", "time_elapsed": 190281, "key_press": 75, "type": "INSTRUCTIONS", "trial_index": 8}, "uniqueid": "MTK2959:3FK0YFF9P0N026N8FSBI2H0LXMVVVX", "dateTime": 1519598055811}, {"current_trial": 9, "trialdata": {"rt": [2082, 3832, 5041, 6912, 8333, 9921, 11349, 12889, 14351, 15833, 17072], "trial_type": "math-distractor", "key_times": [1730, 1826, 2082, 3488, 3674, 3832, 4814, 4851, 5041, 6566, 6714, 6912, 8155, 8333, 9575, 9742, 9921, 11083, 11226, 11349, 12615, 12740, 12889, 14048, 14196, 14351, 15474, 15622, 15833, 16904, 17072], "responses": ["23", "17", "12", "18", "8", "19", "20", "11", "21", "18", "8"], "num2": [7, 9, 4, 4, 2, 7, 2, 1, 8, 8, 3, 9], "num3": [8, 6, 1, 8, 5, 8, 9, 2, 5, 2, 1, 2], "conditions": [18, 1200, "v", 18000], "internal_node_id": "0.0-9.0", "key_presses": [98, 99, 13, 97, 103, 13, 97, 98, 13, 97, 104, 13, 104, 13, 97, 105, 13, 98, 96, 13, 97, 97, 13, 98, 97, 13, 97, 104, 13, 104, 13], "trial": 0, "time_elapsed": 209293, "type": "DISTRACTOR", "trial_index": 9, "num1": [8, 2, 7, 6, 1, 4, 9, 8, 8, 8, 4, 9]}, "uniqueid": "MTK2959:3FK0YFF9P0N026N8FSBI2H0LXMVVVX", "dateTime": 1519598074823}, {"current_trial": 10, "trialdata": {"rt": -1, "trial_type": "single-stim", "stimulus": "<p id=\"stim\">10</p>", "internal_node_id": "0.0-10.0-0.0", "time_elapsed": 212297, "key_press": -1, "trial_index": 10}, "uniqueid": "MTK2959:3FK0YFF9P0N026N8FSBI2H0LXMVVVX", "dateTime": 1519598077827}, {"current_trial": 11, "trialdata": {"rt": -1, "trial_type": "single-stim", "stimulus": "<p id=\"stim\">9</p>", "internal_node_id": "0.0-10.0-1.0", "time_elapsed": 213300, "key_press": -1, "trial_index": 11}, "uniqueid": "MTK2959:3FK0YFF9P0N026N8FSBI2H0LXMVVVX", "dateTime": 1519598078830}, {"current_trial": 12, "trialdata": {"rt": -1, "trial_type": "single-stim", "stimulus": "<p id=\"stim\">8</p>", "internal_node_id": "0.0-10.0-2.0", "time_elapsed": 214302, "key_press": -1, "trial_index": 12}, "uniqueid": "MTK2959:3FK0YFF9P0N026N8FSBI2H0LXMVVVX", "dateTime": 1519598079832}, {"current_trial": 13, "trialdata": {"rt": -1, "trial_type": "single-stim", "stimulus": "<p id=\"stim\">7</p>", "internal_node_id": "0.0-10.0-3.0", "time_elapsed": 215304, "key_press": -1, "trial_index": 13}, "uniqueid": "MTK2959:3FK0YFF9P0N026N8FSBI2H0LXMVVVX", "dateTime": 1519598080834}, {"current_trial": 14, "trialdata": {"rt": -1, "trial_type": "single-stim", "stimulus": "<p id=\"stim\">6</p>", "internal_node_id": "0.0-10.0-4.0", "time_elapsed": 216306, "key_press": -1, "trial_index": 14}, "uniqueid": "MTK2959:3FK0YFF9P0N026N8FSBI2H0LXMVVVX", "dateTime": 1519598081837}, {"current_trial": 15, "trialdata": {"rt": -1, "trial_type": "single-stim", "stimulus": "<p id=\"stim\">5</p>", "internal_node_id": "0.0-10.0-5.0", "time_elapsed": 217311, "key_press": -1, "trial_index": 15}, "uniqueid": "MTK2959:3FK0YFF9P0N026N8FSBI2H0LXMVVVX", "dateTime": 1519598082841}, {"current_trial": 16, "trialdata": {"rt": -1, "trial_type": "single-stim", "stimulus": "<p id=\"stim\">4</p>", "internal_node_id": "0.0-10.0-6.0", "time_elapsed": 218314, "key_press": -1, "trial_index": 16}, "uniqueid": "MTK2959:3FK0YFF9P0N026N8FSBI2H0LXMVVVX", "dateTime": 1519598083844}, {"current_trial": 17, "trialdata": {"rt": -1, "trial_type": "single-stim", "stimulus": "<p id=\"stim\">3</p>", "internal_node_id": "0.0-10.0-7.0", "time_elapsed": 219316, "key_press": -1, "trial_index": 17}, "uniqueid": "MTK2959:3FK0YFF9P0N026N8FSBI2H0LXMVVVX", "dateTime": 1519598084846}, {"current_trial": 18, "trialdata": {"rt": -1, "trial_type": "single-stim", "stimulus": "<p id=\"stim\">2</p>", "internal_node_id": "0.0-10.0-8.0", "time_elapsed": 220317, "key_press": -1, "trial_index": 18}, "uniqueid": "MTK2959:3FK0YFF9P0N026N8FSBI2H0LXMVVVX", "dateTime": 1519598085847}, {"current_trial": 19, "trialdata": {"rt": -1, "trial_type": "single-stim", "stimulus": "<p id=\"stim\">1</p>", "internal_node_id": "0.0-10.0-9.0", "time_elapsed": 221319, "key_press": -1, "trial_index": 19}, "uniqueid": "MTK2959:3FK0YFF9P0N026N8FSBI2H0LXMVVVX", "dateTime": 1519598086849}, {"current_trial": 20, "trialdata": {"rt": -1, "trial_type": "single-stim", "stimulus": "<p id=\"stim\">+</p>", "internal_node_id": "0.0-11.0-0.0", "time_elapsed": 222822, "key_press": -1, "type": "FIXATION", "trial_index": 20}, "uniqueid": "MTK2959:3FK0YFF9P0N026N8FSBI2H0LXMVVVX", "dateTime": 1519598088352}, {"current_trial": 21, "trialdata": {"rt": -1, "trial_type": "single-stim", "word": "kleenex", "stimulus": "<p id=\"stim\">KLEENEX</p>", "conditions": [18, 1200, "v", 18000], "internal_node_id": "0.0-12.0", "trial": 0, "time_elapsed": 224024, "serialpos": 0, "key_press": -1, "wordID": 781, "type": "PRES_VIS", "trial_index": 21}, "uniqueid": "MTK2959:3FK0YFF9P0N026N8FSBI2H0LXMVVVX", "dateTime": 1519598089554}, {"current_trial": 22, "trialdata": {"rt": -1, "trial_type": "single-stim", "word": "journal", "stimulus": "<p id=\"stim\">JOURNAL</p>", "conditions": [18, 1200, "v", 18000], "internal_node_id": "0.0-13.0", "trial": 0, "time_elapsed": 226311, "serialpos": 1, "key_press": -1, "wordID": 759, "type": "PRES_VIS", "trial_index": 22}, "uniqueid": "MTK2959:3FK0YFF9P0N026N8FSBI2H0LXMVVVX", "dateTime": 1519598091841}, {"current_trial": 23, "trialdata": {"rt": -1, "trial_type": "single-stim", "word": "canyon", "stimulus": "<p id=\"stim\">CANYON</p>", "conditions": [18, 1200, "v", 18000], "internal_node_id": "0.0-14.0", "trial": 0, "time_elapsed": 228312, "serialpos": 2, "key_press": -1, "wordID": 234, "type": "PRES_VIS", "trial_index": 23}, "uniqueid": "MTK2959:3FK0YFF9P0N026N8FSBI2H0LXMVVVX", "dateTime": 1519598093842}, {"current_trial": 24, "trialdata": {"rt": -1, "trial_type": "single-stim", "word": "mummy", "stimulus": "<p id=\"stim\">MUMMY</p>", "conditions": [18, 1200, "v", 18000], "internal_node_id": "0.0-15.0", "trial": 0, "time_elapsed": 230375, "serialpos": 3, "key_press": -1, "wordID": 931, "type": "PRES_VIS", "trial_index": 24}, "uniqueid": "MTK2959:3FK0YFF9P0N026N8FSBI2H0LXMVVVX", "dateTime": 1519598095905}, {"current_trial": 25, "trialdata": {"rt": -1, "trial_type": "single-stim", "word": "penguin", "stimulus": "<p id=\"stim\">PENGUIN</p>", "conditions": [18, 1200, "v", 18000], "internal_node_id": "0.0-16.0", "trial": 0, "time_elapsed": 232417, "serialpos": 4, "key_press": -1, "wordID": 1043, "type": "PRES_VIS", "trial_index": 25}, "uniqueid": "MTK2959:3FK0YFF9P0N026N8FSBI2H0LXMVVVX", "dateTime": 1519598097947}, {"current_trial": 26, "trialdata": {"rt": -1, "trial_type": "single-stim", "word": "racket", "stimulus": "<p id=\"stim\">RACKET</p>", "conditions": [18, 1200, "v", 18000], "internal_node_id": "0.0-17.0", "trial": 0, "time_elapsed": 234461, "serialpos": 5, "key_press": -1, "wordID": 1154, "type": "PRES_VIS", "trial_index": 26}, "uniqueid": "MTK2959:3FK0YFF9P0N026N8FSBI2H0LXMVVVX", "dateTime": 1519598099992}, {"current_trial": 27, "trialdata": {"rt": -1, "trial_type": "single-stim", "word": "teacher", "stimulus": "<p id=\"stim\">TEACHER</p>", "conditions": [18, 1200, "v", 18000], "internal_node_id": "0.0-18.0", "trial": 0, "time_elapsed": 236620, "serialpos": 6, "key_press": -1, "wordID": 1439, "type": "PRES_VIS", "trial_index": 27}, "uniqueid": "MTK2959:3FK0YFF9P0N026N8FSBI2H0LXMVVVX", "dateTime": 1519598102151}, {"current_trial": 28, "trialdata": {"rt": -1, "trial_type": "single-stim", "word": "country", "stimulus": "<p id=\"stim\">COUNTRY</p>", "conditions": [18, 1200, "v", 18000], "internal_node_id": "0.0-19.0", "trial": 0, "time_elapsed": 239007, "serialpos": 7, "key_press": -1, "wordID": 387, "type": "PRES_VIS", "trial_index": 28}, "uniqueid": "MTK2959:3FK0YFF9P0N026N8FSBI2H0LXMVVVX", "dateTime": 1519598104537}, {"current_trial": 29, "trialdata": {"rt": -1, "trial_type": "single-stim", "word": "leader", "stimulus": "<p id=\"stim\">LEADER</p>", "conditions": [18, 1200, "v", 18000], "internal_node_id": "0.0-20.0", "trial": 0, "time_elapsed": 241058, "serialpos": 8, "key_press": -1, "wordID": 806, "type": "PRES_VIS", "trial_index": 29}, "uniqueid": "MTK2959:3FK0YFF9P0N026N8FSBI2H0LXMVVVX", "dateTime": 1519598106588}, {"current_trial": 30, "trialdata": {"rt": -1, "trial_type": "single-stim", "word": "bouquet", "stimulus": "<p id=\"stim\">BOUQUET</p>", "conditions": [18, 1200, "v", 18000], "internal_node_id": "0.0-21.0", "trial": 0, "time_elapsed": 243280, "serialpos": 9, "key_press": -1, "wordID": 156, "type": "PRES_VIS", "trial_index": 30}, "uniqueid": "MTK2959:3FK0YFF9P0N026N8FSBI2H0LXMVVVX", "dateTime": 1519598108810}, {"current_trial": 31, "trialdata": {"rt": -1, "trial_type": "single-stim", "word": "jungle", "stimulus": "<p id=\"stim\">JUNGLE</p>", "conditions": [18, 1200, "v", 18000], "internal_node_id": "0.0-22.0", "trial": 0, "time_elapsed": 245443, "serialpos": 10, "key_press": -1, "wordID": 763, "type": "PRES_VIS", "trial_index": 31}, "uniqueid": "MTK2959:3FK0YFF9P0N026N8FSBI2H0LXMVVVX", "dateTime": 1519598110973}, {"current_trial": 32, "trialdata": {"rt": -1, "trial_type": "single-stim", "word": "catcher", "stimulus": "<p id=\"stim\">CATCHER</p>", "conditions": [18, 1200, "v", 18000], "internal_node_id": "0.0-23.0", "trial": 0, "time_elapsed": 247652, "serialpos": 11, "key_press": -1, "wordID": 257, "type": "PRES_VIS", "trial_index": 32}, "uniqueid": "MTK2959:3FK0YFF9P0N026N8FSBI2H0LXMVVVX", "dateTime": 1519598113182}, {"current_trial": 33, "trialdata": {"rt": -1, "trial_type": "single-stim", "word": "clothes", "stimulus": "<p id=\"stim\">CLOTHES</p>", "conditions": [18, 1200, "v", 18000], "internal_node_id": "0.0-24.0", "trial": 0, "time_elapsed": 249991, "serialpos": 12, "key_press": -1, "wordID": 326, "type": "PRES_VIS", "trial_index": 33}, "uniqueid": "MTK2959:3FK0YFF9P0N026N8FSBI2H0LXMVVVX", "dateTime": 1519598115521}, {"current_trial": 34, "trialdata": {"rt": -1, "trial_type": "single-stim", "word": "curtain", "stimulus": "<p id=\"stim\">CURTAIN</p>", "conditions": [18, 1200, "v", 18000], "internal_node_id": "0.0-25.0", "trial": 0, "time_elapsed": 252090, "serialpos": 13, "key_press": -1, "wordID": 426, "type": "PRES_VIS", "trial_index": 34}, "uniqueid": "MTK2959:3FK0YFF9P0N026N8FSBI2H0LXMVVVX", "dateTime": 1519598117620}, {"current_trial": 35, "trialdata": {"rt": -1, "trial_type": "single-stim", "word": "mailbox", "stimulus": "<p id=\"stim\">MAILBOX</p>", "conditions": [18, 1200, "v", 18000], "internal_node_id": "0.0-26.0", "trial": 0, "time_elapsed": 254092, "serialpos": 14, "key_press": -1, "wordID": 856, "type": "PRES_VIS", "trial_index": 35}, "uniqueid": "MTK2959:3FK0YFF9P0N026N8FSBI2H0LXMVVVX", "dateTime": 1519598119623}, {"current_trial": 36, "trialdata": {"rt": -1, "trial_type": "single-stim", "word": "piano", "stimulus": "<p id=\"stim\">PIANO</p>", "conditions": [18, 1200, "v", 18000], "internal_node_id": "0.0-27.0", "trial": 0, "time_elapsed": 256296, "serialpos": 15, "key_press": -1, "wordID": 1056, "type": "PRES_VIS", "trial_index": 36}, "uniqueid": "MTK2959:3FK0YFF9P0N026N8FSBI2H0LXMVVVX", "dateTime": 1519598121826}, {"current_trial": 37, "trialdata": {"rt": -1, "trial_type": "single-stim", "word": "burglar", "stimulus": "<p id=\"stim\">BURGLAR</p>", "conditions": [18, 1200, "v", 18000], "internal_node_id": "0.0-28.0", "trial": 0, "time_elapsed": 258549, "serialpos": 16, "key_press": -1, "wordID": 199, "type": "PRES_VIS", "trial_index": 37}, "uniqueid": "MTK2959:3FK0YFF9P0N026N8FSBI2H0LXMVVVX", "dateTime": 1519598124080}, {"current_trial": 38, "trialdata": {"rt": -1, "trial_type": "single-stim", "word": "cloud", "stimulus": "<p id=\"stim\">CLOUD</p>", "conditions": [18, 1200, "v", 18000], "internal_node_id": "0.0-29.0", "trial": 0, "time_elapsed": 260648, "serialpos": 17, "key_press": -1, "wordID": 327, "type": "PRES_VIS", "trial_index": 38}, "uniqueid": "MTK2959:3FK0YFF9P0N026N8FSBI2H0LXMVVVX", "dateTime": 1519598126178}, {"current_trial": 39, "trialdata": {"rt": -1, "trial_type": "single-stim", "stimulus": "", "internal_node_id": "0.0-30.0-0.0", "time_elapsed": 263067, "key_press": -1, "type": "PRE_RECALL_DELAY", "trial_index": 39}, "uniqueid": "MTK2959:3FK0YFF9P0N026N8FSBI2H0LXMVVVX", "dateTime": 1519598128597}, {"current_trial": 40, "trialdata": {"rt": -1000, "trial_type": "single-audio", "stimulus": "/static/audio/400Hz.wav", "internal_node_id": "0.0-31.0", "time_elapsed": 263571, "key_press": -1, "type": "PRE_RECALL_ALERT", "trial_index": 40}, "uniqueid": "MTK2959:3FK0YFF9P0N026N8FSBI2H0LXMVVVX", "dateTime": 1519598129101}, {"current_trial": 41, "trialdata": {"rt": [1872, 4676, 6047, 7257, 8828, 10364, 11640, 12853, 23473, 29530, 41295, 49928], "recwords": ["cloud", "burglar", "leader", "teacher", "country", "kleenex", "journal", "jungle", "bouquet", "catcher", "", "journal"], "key_times": [1063, 1214, 1398, 1489, 1663, 1872, 2807, 3159, 3508, 3559, 3702, 3897, 4025, 4195, 4351, 4676, 5016, 5099, 5277, 5494, 5636, 5760, 6047, 6325, 6389, 6562, 6758, 6874, 6984, 7144, 7257, 7406, 7555, 7628, 7810, 7893, 8054, 8170, 8828, 9298, 9462, 9569, 9711, 9831, 9938, 10188, 10364, 10621, 10758, 10804, 10963, 11123, 11257, 11419, 11640, 11945, 12107, 12262, 12390, 12514, 12664, 12853, 21549, 21757, 21835, 22623, 22909, 23058, 23165, 23473, 28489, 28717, 28890, 29008, 29135, 29300, 29466, 29530, 41295, 49032, 49091, 49198, 49310, 49444, 49583, 49709, 49928], "trial_type": "free-recall", "conditions": [18, 1200, "v", 18000], "internal_node_id": "0.0-32.0-0.0", "key_presses": [67, 76, 79, 85, 68, 13, 78, 8, 66, 85, 82, 71, 76, 65, 82, 13, 76, 69, 65, 68, 69, 82, 13, 84, 69, 65, 67, 72, 69, 82, 13, 67, 79, 85, 78, 84, 82, 89, 13, 75, 76, 69, 69, 78, 69, 88, 13, 74, 79, 85, 82, 78, 65, 76, 13, 74, 85, 78, 71, 76, 69, 13, 66, 79, 85, 81, 85, 69, 84, 13, 67, 65, 84, 67, 72, 69, 82, 13, 13, 74, 79, 85, 82, 78, 65, 76, 13], "trial": 0, "time_elapsed": 323578, "type": "FREE_RECALL", "trial_index": 41}, "uniqueid": "MTK2959:3FK0YFF9P0N026N8FSBI2H0LXMVVVX", "dateTime": 1519598189116}, {"current_trial": 42, "trialdata": {"rt": 2549, "trial_type": "text", "internal_node_id": "0.0-33.0", "time_elapsed": 328136, "key_press": 13, "type": "INSTRUCTIONS", "trial_index": 42}, "uniqueid": "MTK2959:3FK0YFF9P0N026N8FSBI2H0LXMVVVX", "dateTime": 1519598193666}, {"current_trial": 43, "trialdata": {"rt": [1741, 4300, 5708, 7283, 8924, 11751, 14081, 15379, 16825], "trial_type": "math-distractor", "key_times": [1464, 1523, 1741, 4055, 4173, 4300, 5398, 5482, 5708, 6950, 7133, 7283, 8620, 8708, 8924, 10689, 11483, 11751, 13672, 13845, 14081, 15050, 15187, 15379, 16475, 16649, 16825], "responses": ["16", "11", "13", "17", "15", "24", "17", "15", "19"], "num2": [6, 4, 8, 9, 5, 7, 6, 9, 7, 2], "num3": [4, 5, 2, 4, 6, 9, 2, 5, 9, 2], "conditions": [18, 1200, "v", 18000], "internal_node_id": "0.0-34.0", "key_presses": [97, 102, 13, 97, 97, 13, 97, 99, 13, 97, 103, 13, 97, 101, 13, 98, 100, 13, 97, 103, 13, 97, 101, 13, 97, 105, 13], "trial": 1, "time_elapsed": 348141, "type": "DISTRACTOR", "trial_index": 43, "num1": [6, 2, 3, 4, 4, 8, 9, 1, 3, 4]}, "uniqueid": "MTK2959:3FK0YFF9P0N026N8FSBI2H0LXMVVVX", "dateTime": 1519598213671}, {"current_trial": 44, "trialdata": {"rt": -1, "trial_type": "single-stim", "stimulus": "<p id=\"stim\">10</p>", "internal_node_id": "0.0-35.0-0.0", "time_elapsed": 351143, "key_press": -1, "trial_index": 44}, "uniqueid": "MTK2959:3FK0YFF9P0N026N8FSBI2H0LXMVVVX", "dateTime": 1519598216673}, {"current_trial": 45, "trialdata": {"rt": -1, "trial_type": "single-stim", "stimulus": "<p id=\"stim\">9</p>", "internal_node_id": "0.0-35.0-1.0", "time_elapsed": 352145, "key_press": -1, "trial_index": 45}, "uniqueid": "MTK2959:3FK0YFF9P0N026N8FSBI2H0LXMVVVX", "dateTime": 1519598217675}, {"current_trial": 46, "trialdata": {"rt": -1, "trial_type": "single-stim", "stimulus": "<p id=\"stim\">8</p>", "internal_node_id": "0.0-35.0-2.0", "time_elapsed": 353147, "key_press": -1, "trial_index": 46}, "uniqueid": "MTK2959:3FK0YFF9P0N026N8FSBI2H0LXMVVVX", "dateTime": 1519598218677}, {"current_trial": 47, "trialdata": {"rt": -1, "trial_type": "single-stim", "stimulus": "<p id=\"stim\">7</p>", "internal_node_id": "0.0-35.0-3.0", "time_elapsed": 354148, "key_press": -1, "trial_index": 47}, "uniqueid": "MTK2959:3FK0YFF9P0N026N8FSBI2H0LXMVVVX", "dateTime": 1519598219678}, {"current_trial": 48, "trialdata": {"rt": -1, "trial_type": "single-stim", "stimulus": "<p id=\"stim\">6</p>", "internal_node_id": "0.0-35.0-4.0", "time_elapsed": 355150, "key_press": -1, "trial_index": 48}, "uniqueid": "MTK2959:3FK0YFF9P0N026N8FSBI2H0LXMVVVX", "dateTime": 1519598220681}, {"current_trial": 49, "trialdata": {"rt": -1, "trial_type": "single-stim", "stimulus": "<p id=\"stim\">5</p>", "internal_node_id": "0.0-35.0-5.0", "time_elapsed": 356153, "key_press": -1, "trial_index": 49}, "uniqueid": "MTK2959:3FK0YFF9P0N026N8FSBI2H0LXMVVVX", "dateTime": 1519598221684}, {"current_trial": 50, "trialdata": {"rt": -1, "trial_type": "single-stim", "stimulus": "<p id=\"stim\">4</p>", "internal_node_id": "0.0-35.0-6.0", "time_elapsed": 357155, "key_press": -1, "trial_index": 50}, "uniqueid": "MTK2959:3FK0YFF9P0N026N8FSBI2H0LXMVVVX", "dateTime": 1519598222685}, {"current_trial": 51, "trialdata": {"rt": -1, "trial_type": "single-stim", "stimulus": "<p id=\"stim\">3</p>", "internal_node_id": "0.0-35.0-7.0", "time_elapsed": 358157, "key_press": -1, "trial_index": 51}, "uniqueid": "MTK2959:3FK0YFF9P0N026N8FSBI2H0LXMVVVX", "dateTime": 1519598223687}, {"current_trial": 52, "trialdata": {"rt": -1, "trial_type": "single-stim", "stimulus": "<p id=\"stim\">2</p>", "internal_node_id": "0.0-35.0-8.0", "time_elapsed": 359159, "key_press": -1, "trial_index": 52}, "uniqueid": "MTK2959:3FK0YFF9P0N026N8FSBI2H0LXMVVVX", "dateTime": 1519598224690}, {"current_trial": 53, "trialdata": {"rt": -1, "trial_type": "single-stim", "stimulus": "<p id=\"stim\">1</p>", "internal_node_id": "0.0-35.0-9.0", "time_elapsed": 360161, "key_press": -1, "trial_index": 53}, "uniqueid": "MTK2959:3FK0YFF9P0N026N8FSBI2H0LXMVVVX", "dateTime": 1519598225692}, {"current_trial": 54, "trialdata": {"rt": -1, "trial_type": "single-stim", "stimulus": "<p id=\"stim\">+</p>", "internal_node_id": "0.0-36.0-0.0", "time_elapsed": 361663, "key_press": -1, "type": "FIXATION", "trial_index": 54}, "uniqueid": "MTK2959:3FK0YFF9P0N026N8FSBI2H0LXMVVVX", "dateTime": 1519598227194}, {"current_trial": 55, "trialdata": {"rt": -1, "trial_type": "single-stim", "word": "blockade", "stimulus": "<p id=\"stim\">BLOCKADE</p>", "conditions": [18, 1200, "v", 18000], "internal_node_id": "0.0-37.0", "trial": 1, "time_elapsed": 362865, "serialpos": 0, "key_press": -1, "wordID": 136, "type": "PRES_VIS", "trial_index": 55}, "uniqueid": "MTK2959:3FK0YFF9P0N026N8FSBI2H0LXMVVVX", "dateTime": 1519598228396}, {"current_trial": 56, "trialdata": {"rt": -1, "trial_type": "single-stim", "word": "sausage", "stimulus": "<p id=\"stim\">SAUSAGE</p>", "conditions": [18, 1200, "v", 18000], "internal_node_id": "0.0-38.0", "trial": 1, "time_elapsed": 365027, "serialpos": 1, "key_press": -1, "wordID": 1237, "type": "PRES_VIS", "trial_index": 56}, "uniqueid": "MTK2959:3FK0YFF9P0N026N8FSBI2H0LXMVVVX", "dateTime": 1519598230557}, {"current_trial": 57, "trialdata": {"rt": -1, "trial_type": "single-stim", "word": "virus", "stimulus": "<p id=\"stim\">VIRUS</p>", "conditions": [18, 1200, "v", 18000], "internal_node_id": "0.0-39.0", "trial": 1, "time_elapsed": 367238, "serialpos": 2, "key_press": -1, "wordID": 1571, "type": "PRES_VIS", "trial_index": 57}, "uniqueid": "MTK2959:3FK0YFF9P0N026N8FSBI2H0LXMVVVX", "dateTime": 1519598232768}, {"current_trial": 58, "trialdata": {"rt": -1, "trial_type": "single-stim", "word": "climber", "stimulus": "<p id=\"stim\">CLIMBER</p>", "conditions": [18, 1200, "v", 18000], "internal_node_id": "0.0-40.0", "trial": 1, "time_elapsed": 369319, "serialpos": 3, "key_press": -1, "wordID": 322, "type": "PRES_VIS", "trial_index": 58}, "uniqueid": "MTK2959:3FK0YFF9P0N026N8FSBI2H0LXMVVVX", "dateTime": 1519598234849}, {"current_trial": 59, "trialdata": {"rt": -1, "trial_type": "single-stim", "word": "hound", "stimulus": "<p id=\"stim\">HOUND</p>", "conditions": [18, 1200, "v", 18000], "internal_node_id": "0.0-41.0", "trial": 1, "time_elapsed": 371637, "serialpos": 4, "key_press": -1, "wordID": 723, "type": "PRES_VIS", "trial_index": 59}, "uniqueid": "MTK2959:3FK0YFF9P0N026N8FSBI2H0LXMVVVX", "dateTime": 1519598237168}, {"current_trial": 60, "trialdata": {"rt": -1, "trial_type": "single-stim", "word": "candy", "stimulus": "<p id=\"stim\">CANDY</p>", "conditions": [18, 1200, "v", 18000], "internal_node_id": "0.0-42.0", "trial": 1, "time_elapsed": 373889, "serialpos": 5, "key_press": -1, "wordID": 229, "type": "PRES_VIS", "trial_index": 60}, "uniqueid": "MTK2959:3FK0YFF9P0N026N8FSBI2H0LXMVVVX", "dateTime": 1519598239419}, {"current_trial": 61, "trialdata": {"rt": -1, "trial_type": "single-stim", "word": "actress", "stimulus": "<p id=\"stim\">ACTRESS</p>", "conditions": [18, 1200, "v", 18000], "internal_node_id": "0.0-43.0", "trial": 1, "time_elapsed": 376212, "serialpos": 6, "key_press": -1, "wordID": 5, "type": "PRES_VIS", "trial_index": 61}, "uniqueid": "MTK2959:3FK0YFF9P0N026N8FSBI2H0LXMVVVX", "dateTime": 1519598241742}, {"current_trial": 62, "trialdata": {"rt": -1, "trial_type": "single-stim", "word": "blackboard", "stimulus": "<p id=\"stim\">BLACKBOARD</p>", "conditions": [18, 1200, "v", 18000], "internal_node_id": "0.0-44.0", "trial": 1, "time_elapsed": 378510, "serialpos": 7, "key_press": -1, "wordID": 132, "type": "PRES_VIS", "trial_index": 62}, "uniqueid": "MTK2959:3FK0YFF9P0N026N8FSBI2H0LXMVVVX", "dateTime": 1519598244041}, {"current_trial": 63, "trialdata": {"rt": -1, "trial_type": "single-stim", "word": "lamp", "stimulus": "<p id=\"stim\">LAMP</p>", "conditions": [18, 1200, "v", 18000], "internal_node_id": "0.0-45.0", "trial": 1, "time_elapsed": 380902, "serialpos": 8, "key_press": -1, "wordID": 797, "type": "PRES_VIS", "trial_index": 63}, "uniqueid": "MTK2959:3FK0YFF9P0N026N8FSBI2H0LXMVVVX", "dateTime": 1519598246433}, {"current_trial": 64, "trialdata": {"rt": -1, "trial_type": "single-stim", "word": "island", "stimulus": "<p id=\"stim\">ISLAND</p>", "conditions": [18, 1200, "v", 18000], "internal_node_id": "0.0-46.0", "trial": 1, "time_elapsed": 383188, "serialpos": 9, "key_press": -1, "wordID": 744, "type": "PRES_VIS", "trial_index": 64}, "uniqueid": "MTK2959:3FK0YFF9P0N026N8FSBI2H0LXMVVVX", "dateTime": 1519598248718}, {"current_trial": 65, "trialdata": {"rt": -1, "trial_type": "single-stim", "word": "wardrobe", "stimulus": "<p id=\"stim\">WARDROBE</p>", "conditions": [18, 1200, "v", 18000], "internal_node_id": "0.0-47.0", "trial": 1, "time_elapsed": 385561, "serialpos": 10, "key_press": -1, "wordID": 1586, "type": "PRES_VIS", "trial_index": 65}, "uniqueid": "MTK2959:3FK0YFF9P0N026N8FSBI2H0LXMVVVX", "dateTime": 1519598251091}, {"current_trial": 66, "trialdata": {"rt": -1, "trial_type": "single-stim", "word": "river", "stimulus": "<p id=\"stim\">RIVER</p>", "conditions": [18, 1200, "v", 18000], "internal_node_id": "0.0-48.0", "trial": 1, "time_elapsed": 387803, "serialpos": 11, "key_press": -1, "wordID": 1193, "type": "PRES_VIS", "trial_index": 66}, "uniqueid": "MTK2959:3FK0YFF9P0N026N8FSBI2H0LXMVVVX", "dateTime": 1519598253333}, {"current_trial": 67, "trialdata": {"rt": -1, "trial_type": "single-stim", "word": "bubble", "stimulus": "<p id=\"stim\">BUBBLE</p>", "conditions": [18, 1200, "v", 18000], "internal_node_id": "0.0-49.0", "trial": 1, "time_elapsed": 390003, "serialpos": 12, "key_press": -1, "wordID": 182, "type": "PRES_VIS", "trial_index": 67}, "uniqueid": "MTK2959:3FK0YFF9P0N026N8FSBI2H0LXMVVVX", "dateTime": 1519598255533}, {"current_trial": 68, "trialdata": {"rt": -1, "trial_type": "single-stim", "word": "fiddle", "stimulus": "<p id=\"stim\">FIDDLE</p>", "conditions": [18, 1200, "v", 18000], "internal_node_id": "0.0-50.0", "trial": 1, "time_elapsed": 392394, "serialpos": 13, "key_press": -1, "wordID": 560, "type": "PRES_VIS", "trial_index": 68}, "uniqueid": "MTK2959:3FK0YFF9P0N026N8FSBI2H0LXMVVVX", "dateTime": 1519598257928}, {"current_trial": 69, "trialdata": {"rt": -1, "trial_type": "single-stim", "word": "orange", "stimulus": "<p id=\"stim\">ORANGE</p>", "conditions": [18, 1200, "v", 18000], "internal_node_id": "0.0-51.0", "trial": 1, "time_elapsed": 394559, "serialpos": 14, "key_press": -1, "wordID": 979, "type": "PRES_VIS", "trial_index": 69}, "uniqueid": "MTK2959:3FK0YFF9P0N026N8FSBI2H0LXMVVVX", "dateTime": 1519598260090}, {"current_trial": 70, "trialdata": {"rt": -1, "trial_type": "single-stim", "word": "valve", "stimulus": "<p id=\"stim\">VALVE</p>", "conditions": [18, 1200, "v", 18000], "internal_node_id": "0.0-52.0", "trial": 1, "time_elapsed": 396877, "serialpos": 15, "key_press": -1, "wordID": 1545, "type": "PRES_VIS", "trial_index": 70}, "uniqueid": "MTK2959:3FK0YFF9P0N026N8FSBI2H0LXMVVVX", "dateTime": 1519598262407}, {"current_trial": 71, "trialdata": {"rt": -1, "trial_type": "single-stim", "word": "crevice", "stimulus": "<p id=\"stim\">CREVICE</p>", "conditions": [18, 1200, "v", 18000], "internal_node_id": "0.0-53.0", "trial": 1, "time_elapsed": 399050, "serialpos": 16, "key_press": -1, "wordID": 404, "type": "PRES_VIS", "trial_index": 71}, "uniqueid": "MTK2959:3FK0YFF9P0N026N8FSBI2H0LXMVVVX", "dateTime": 1519598264580}, {"current_trial": 72, "trialdata": {"rt": -1, "trial_type": "single-stim", "word": "eagle", "stimulus": "<p id=\"stim\">EAGLE</p>", "conditions": [18, 1200, "v", 18000], "internal_node_id": "0.0-54.0", "trial": 1, "time_elapsed": 401404, "serialpos": 17, "key_press": -1, "wordID": 511, "type": "PRES_VIS", "trial_index": 72}, "uniqueid": "MTK2959:3FK0YFF9P0N026N8FSBI2H0LXMVVVX", "dateTime": 1519598266935}, {"current_trial": 73, "trialdata": {"rt": -1, "trial_type": "single-stim", "stimulus": "", "internal_node_id": "0.0-55.0-0.0", "time_elapsed": 403555, "key_press": -1, "type": "PRE_RECALL_DELAY", "trial_index": 73}, "uniqueid": "MTK2959:3FK0YFF9P0N026N8FSBI2H0LXMVVVX", "dateTime": 1519598269085}, {"current_trial": 74, "trialdata": {"rt": -1000, "trial_type": "single-audio", "stimulus": "/static/audio/400Hz.wav", "internal_node_id": "0.0-56.0", "time_elapsed": 404057, "key_press": -1, "type": "PRE_RECALL_ALERT", "trial_index": 74}, "uniqueid": "MTK2959:3FK0YFF9P0N026N8FSBI2H0LXMVVVX", "dateTime": 1519598269587}, {"current_trial": 75, "trialdata": {"rt": [1738, 3127, 22635, 27076, 30031], "recwords": ["crevice", "eagle", "hound", "", "handle"], "key_times": [764, 818, 901, 1034, 1211, 1298, 1525, 1738, 2318, 2541, 2686, 2796, 2950, 3127, 6533, 6763, 6855, 7124, 7278, 7385, 7444, 7825, 8622, 13617, 13773, 13934, 14101, 14613, 14646, 14679, 14712, 14744, 14776, 14810, 21798, 21942, 21992, 22183, 22362, 22635, 27076, 29254, 29342, 29429, 29593, 29701, 29844, 30031], "trial_type": "free-recall", "conditions": [18, 1200, "v", 18000], "internal_node_id": "0.0-57.0-0.0", "key_presses": [67, 82, 69, 86, 73, 67, 69, 13, 69, 65, 71, 76, 69, 13, 66, 79, 77, 66, 65, 82, 68, 100, 8, 8, 8, 8, 8, 8, 8, 8, 8, 8, 8, 8, 72, 79, 85, 78, 68, 13, 13, 72, 65, 78, 68, 76, 69, 13], "trial": 1, "time_elapsed": 464062, "type": "FREE_RECALL", "trial_index": 75}, "uniqueid": "MTK2959:3FK0YFF9P0N026N8FSBI2H0LXMVVVX", "dateTime": 1519598329596}, {"current_trial": 76, "trialdata": {"rt": 3785, "trial_type": "text", "internal_node_id": "0.0-58.0", "time_elapsed": 469852, "key_press": 13, "type": "INSTRUCTIONS", "trial_index": 76}, "uniqueid": "MTK2959:3FK0YFF9P0N026N8FSBI2H0LXMVVVX", "dateTime": 1519598335382}, {"current_trial": 77, "trialdata": {"rt": [1688, 2999, 4086, 5470, 6708, 8176, 9470, 11176], "trial_type": "math-distractor", "key_times": [1299, 1495, 1688, 2700, 2830, 2999, 3786, 3920, 4086, 5318, 5470, 6454, 6597, 6708, 7887, 8028, 8176, 9130, 9282, 9470, 10810, 11024, 11176], "responses": ["19", "13", "13", "8", "11", "22", "15", "17"], "num2": [9, 3, 5, 1, 4, 8, 6, 7, 6], "num3": [5, 4, 3, 4, 2, 9, 3, 6, 5], "conditions": [12, 800, "v", 12000], "internal_node_id": "0.0-59.0", "key_presses": [97, 105, 13, 97, 99, 13, 97, 99, 13, 104, 13, 97, 97, 13, 98, 98, 13, 97, 101, 13, 97, 103, 13], "trial": 2, "time_elapsed": 482857, "type": "DISTRACTOR", "trial_index": 77, "num1": [5, 6, 5, 3, 5, 5, 6, 4, 3]}, "uniqueid": "MTK2959:3FK0YFF9P0N026N8FSBI2H0LXMVVVX", "dateTime": 1519598348387}, {"current_trial": 78, "trialdata": {"rt": -1, "trial_type": "single-stim", "stimulus": "<p id=\"stim\">10</p>", "internal_node_id": "0.0-60.0-0.0", "time_elapsed": 485860, "key_press": -1, "trial_index": 78}, "uniqueid": "MTK2959:3FK0YFF9P0N026N8FSBI2H0LXMVVVX", "dateTime": 1519598351390}, {"current_trial": 79, "trialdata": {"rt": -1, "trial_type": "single-stim", "stimulus": "<p id=\"stim\">9</p>", "internal_node_id": "0.0-60.0-1.0", "time_elapsed": 486861, "key_press": -1, "trial_index": 79}, "uniqueid": "MTK2959:3FK0YFF9P0N026N8FSBI2H0LXMVVVX", "dateTime": 1519598352392}, {"current_trial": 80, "trialdata": {"rt": -1, "trial_type": "single-stim", "stimulus": "<p id=\"stim\">8</p>", "internal_node_id": "0.0-60.0-2.0", "time_elapsed": 487863, "key_press": -1, "trial_index": 80}, "uniqueid": "MTK2959:3FK0YFF9P0N026N8FSBI2H0LXMVVVX", "dateTime": 1519598353393}, {"current_trial": 81, "trialdata": {"rt": -1, "trial_type": "single-stim", "stimulus": "<p id=\"stim\">7</p>", "internal_node_id": "0.0-60.0-3.0", "time_elapsed": 488865, "key_press": -1, "trial_index": 81}, "uniqueid": "MTK2959:3FK0YFF9P0N026N8FSBI2H0LXMVVVX", "dateTime": 1519598354395}, {"current_trial": 82, "trialdata": {"rt": -1, "trial_type": "single-stim", "stimulus": "<p id=\"stim\">6</p>", "internal_node_id": "0.0-60.0-4.0", "time_elapsed": 489866, "key_press": -1, "trial_index": 82}, "uniqueid": "MTK2959:3FK0YFF9P0N026N8FSBI2H0LXMVVVX", "dateTime": 1519598355396}, {"current_trial": 83, "trialdata": {"rt": -1, "trial_type": "single-stim", "stimulus": "<p id=\"stim\">5</p>", "internal_node_id": "0.0-60.0-5.0", "time_elapsed": 490867, "key_press": -1, "trial_index": 83}, "uniqueid": "MTK2959:3FK0YFF9P0N026N8FSBI2H0LXMVVVX", "dateTime": 1519598356398}, {"current_trial": 84, "trialdata": {"rt": -1, "trial_type": "single-stim", "stimulus": "<p id=\"stim\">4</p>", "internal_node_id": "0.0-60.0-6.0", "time_elapsed": 491869, "key_press": -1, "trial_index": 84}, "uniqueid": "MTK2959:3FK0YFF9P0N026N8FSBI2H0LXMVVVX", "dateTime": 1519598357400}, {"current_trial": 85, "trialdata": {"rt": -1, "trial_type": "single-stim", "stimulus": "<p id=\"stim\">3</p>", "internal_node_id": "0.0-60.0-7.0", "time_elapsed": 492872, "key_press": -1, "trial_index": 85}, "uniqueid": "MTK2959:3FK0YFF9P0N026N8FSBI2H0LXMVVVX", "dateTime": 1519598358402}, {"current_trial": 86, "trialdata": {"rt": -1, "trial_type": "single-stim", "stimulus": "<p id=\"stim\">2</p>", "internal_node_id": "0.0-60.0-8.0", "time_elapsed": 493874, "key_press": -1, "trial_index": 86}, "uniqueid": "MTK2959:3FK0YFF9P0N026N8FSBI2H0LXMVVVX", "dateTime": 1519598359404}, {"current_trial": 87, "trialdata": {"rt": -1, "trial_type": "single-stim", "stimulus": "<p id=\"stim\">1</p>", "internal_node_id": "0.0-60.0-9.0", "time_elapsed": 494876, "key_press": -1, "trial_index": 87}, "uniqueid": "MTK2959:3FK0YFF9P0N026N8FSBI2H0LXMVVVX", "dateTime": 1519598360406}, {"current_trial": 88, "trialdata": {"rt": -1, "trial_type": "single-stim", "stimulus": "<p id=\"stim\">+</p>", "internal_node_id": "0.0-61.0-0.0", "time_elapsed": 496378, "key_press": -1, "type": "FIXATION", "trial_index": 88}, "uniqueid": "MTK2959:3FK0YFF9P0N026N8FSBI2H0LXMVVVX", "dateTime": 1519598361909}, {"current_trial": 89, "trialdata": {"rt": -1, "trial_type": "single-stim", "word": "finger", "stimulus": "<p id=\"stim\">FINGER</p>", "conditions": [12, 800, "v", 12000], "internal_node_id": "0.0-62.0", "trial": 2, "time_elapsed": 497181, "serialpos": 0, "key_press": -1, "wordID": 566, "type": "PRES_VIS", "trial_index": 89}, "uniqueid": "MTK2959:3FK0YFF9P0N026N8FSBI2H0LXMVVVX", "dateTime": 1519598362711}, {"current_trial": 90, "trialdata": {"rt": -1, "trial_type": "single-stim", "word": "cattle", "stimulus": "<p id=\"stim\">CATTLE</p>", "conditions": [12, 800, "v", 12000], "internal_node_id": "0.0-63.0", "trial": 2, "time_elapsed": 498821, "serialpos": 1, "key_press": -1, "wordID": 260, "type": "PRES_VIS", "trial_index": 90}, "uniqueid": "MTK2959:3FK0YFF9P0N026N8FSBI2H0LXMVVVX", "dateTime": 1519598364351}, {"current_trial": 91, "trialdata": {"rt": -1, "trial_type": "single-stim", "word": "bison", "stimulus": "<p id=\"stim\">BISON</p>", "conditions": [12, 800, "v", 12000], "internal_node_id": "0.0-64.0", "trial": 2, "time_elapsed": 500755, "serialpos": 2, "key_press": -1, "wordID": 130, "type": "PRES_VIS", "trial_index": 91}, "uniqueid": "MTK2959:3FK0YFF9P0N026N8FSBI2H0LXMVVVX", "dateTime": 1519598366286}, {"current_trial": 92, "trialdata": {"rt": -1, "trial_type": "single-stim", "word": "market", "stimulus": "<p id=\"stim\">MARKET</p>", "conditions": [12, 800, "v", 12000], "internal_node_id": "0.0-65.0", "trial": 2, "time_elapsed": 502726, "serialpos": 3, "key_press": -1, "wordID": 870, "type": "PRES_VIS", "trial_index": 92}, "uniqueid": "MTK2959:3FK0YFF9P0N026N8FSBI2H0LXMVVVX", "dateTime": 1519598368256}, {"current_trial": 93, "trialdata": {"rt": -1, "trial_type": "single-stim", "word": "cod", "stimulus": "<p id=\"stim\">COD</p>", "conditions": [12, 800, "v", 12000], "internal_node_id": "0.0-66.0", "trial": 2, "time_elapsed": 504391, "serialpos": 4, "key_press": -1, "wordID": 339, "type": "PRES_VIS", "trial_index": 93}, "uniqueid": "MTK2959:3FK0YFF9P0N026N8FSBI2H0LXMVVVX", "dateTime": 1519598369922}, {"current_trial": 94, "trialdata": {"rt": -1, "trial_type": "single-stim", "word": "tablet", "stimulus": "<p id=\"stim\">TABLET</p>", "conditions": [12, 800, "v", 12000], "internal_node_id": "0.0-67.0", "trial": 2, "time_elapsed": 506191, "serialpos": 5, "key_press": -1, "wordID": 1426, "type": "PRES_VIS", "trial_index": 94}, "uniqueid": "MTK2959:3FK0YFF9P0N026N8FSBI2H0LXMVVVX", "dateTime": 1519598371722}, {"current_trial": 95, "trialdata": {"rt": -1, "trial_type": "single-stim", "word": "staple", "stimulus": "<p id=\"stim\">STAPLE</p>", "conditions": [12, 800, "v", 12000], "internal_node_id": "0.0-68.0", "trial": 2, "time_elapsed": 507932, "serialpos": 6, "key_press": -1, "wordID": 1370, "type": "PRES_VIS", "trial_index": 95}, "uniqueid": "MTK2959:3FK0YFF9P0N026N8FSBI2H0LXMVVVX", "dateTime": 1519598373462}, {"current_trial": 96, "trialdata": {"rt": -1, "trial_type": "single-stim", "word": "cabbage", "stimulus": "<p id=\"stim\">CABBAGE</p>", "conditions": [12, 800, "v", 12000], "internal_node_id": "0.0-69.0", "trial": 2, "time_elapsed": 509656, "serialpos": 7, "key_press": -1, "wordID": 209, "type": "PRES_VIS", "trial_index": 96}, "uniqueid": "MTK2959:3FK0YFF9P0N026N8FSBI2H0LXMVVVX", "dateTime": 1519598375186}, {"current_trial": 97, "trialdata": {"rt": -1, "trial_type": "single-stim", "word": "maple", "stimulus": "<p id=\"stim\">MAPLE</p>", "conditions": [12, 800, "v", 12000], "internal_node_id": "0.0-70.0", "trial": 2, "time_elapsed": 511541, "serialpos": 8, "key_press": -1, "wordID": 865, "type": "PRES_VIS", "trial_index": 97}, "uniqueid": "MTK2959:3FK0YFF9P0N026N8FSBI2H0LXMVVVX", "dateTime": 1519598377071}, {"current_trial": 98, "trialdata": {"rt": -1, "trial_type": "single-stim", "word": "quarter", "stimulus": "<p id=\"stim\">QUARTER</p>", "conditions": [12, 800, "v", 12000], "internal_node_id": "0.0-71.0", "trial": 2, "time_elapsed": 513460, "serialpos": 9, "key_press": -1, "wordID": 1147, "type": "PRES_VIS", "trial_index": 98}, "uniqueid": "MTK2959:3FK0YFF9P0N026N8FSBI2H0LXMVVVX", "dateTime": 1519598378990}, {"current_trial": 99, "trialdata": {"rt": -1, "trial_type": "single-stim", "word": "snake", "stimulus": "<p id=\"stim\">SNAKE</p>", "conditions": [12, 800, "v", 12000], "internal_node_id": "0.0-72.0", "trial": 2, "time_elapsed": 515126, "serialpos": 10, "key_press": -1, "wordID": 1332, "type": "PRES_VIS", "trial_index": 99}, "uniqueid": "MTK2959:3FK0YFF9P0N026N8FSBI2H0LXMVVVX", "dateTime": 1519598380656}, {"current_trial": 100, "trialdata": {"rt": -1, "trial_type": "single-stim", "word": "wrist", "stimulus": "<p id=\"stim\">WRIST</p>", "conditions": [12, 800, "v", 12000], "internal_node_id": "0.0-73.0", "trial": 2, "time_elapsed": 516734, "serialpos": 11, "key_press": -1, "wordID": 1625, "type": "PRES_VIS", "trial_index": 100}, "uniqueid": "MTK2959:3FK0YFF9P0N026N8FSBI2H0LXMVVVX", "dateTime": 1519598382264}, {"current_trial": 101, "trialdata": {"rt": -1, "trial_type": "single-stim", "stimulus": "", "internal_node_id": "0.0-74.0-0.0", "time_elapsed": 519032, "key_press": -1, "type": "PRE_RECALL_DELAY", "trial_index": 101}, "uniqueid": "MTK2959:3FK0YFF9P0N026N8FSBI2H0LXMVVVX", "dateTime": 1519598384562}, {"current_trial": 102, "trialdata": {"rt": -1000, "trial_type": "single-audio", "stimulus": "/static/audio/400Hz.wav", "internal_node_id": "0.0-75.0", "time_elapsed": 519534, "key_press": -1, "type": "PRE_RECALL_ALERT", "trial_index": 102}, "uniqueid": "MTK2959:3FK0YFF9P0N026N8FSBI2H0LXMVVVX", "dateTime": 1519598385064}, {"current_trial": 103, "trialdata": {"rt": [2069, 3746, 5630, 8452], "recwords": ["wrist", "cattle", "market", "finger"], "key_times": [1175, 1384, 1509, 1621, 1769, 2069, 2385, 2519, 2616, 2747, 3023, 3182, 3746, 4540, 4642, 4877, 5001, 5089, 5274, 5630, 7763, 7837, 7896, 8091, 8142, 8315, 8452], "trial_type": "free-recall", "conditions": [12, 800, "v", 12000], "internal_node_id": "0.0-76.0-0.0", "key_presses": [87, 82, 73, 83, 84, 13, 67, 65, 84, 84, 76, 69, 13, 77, 65, 82, 75, 69, 84, 13, 70, 73, 78, 71, 69, 82, 13], "trial": 2, "time_elapsed": 579538, "type": "FREE_RECALL", "trial_index": 103}, "uniqueid": "MTK2959:3FK0YFF9P0N026N8FSBI2H0LXMVVVX", "dateTime": 1519598445074}, {"current_trial": 104, "trialdata": {"rt": 1971, "trial_type": "text", "internal_node_id": "0.0-77.0", "time_elapsed": 583516, "key_press": 13, "type": "INSTRUCTIONS", "trial_index": 104}, "uniqueid": "MTK2959:3FK0YFF9P0N026N8FSBI2H0LXMVVVX", "dateTime": 1519598449047}, {"current_trial": 105, "trialdata": {"rt": [1651, 3181, 4298, 5630, 7222, 8487, 9711, 11311, 12926, 14310, 15464, 16833, 18176, 19531, 20834, 22376, 23514], "trial_type": "math-distractor", "key_times": [1365, 1513, 1651, 2944, 3181, 3967, 4104, 4298, 5352, 5496, 5630, 6940, 7075, 7222, 8274, 8487, 9476, 9612, 9711, 11032, 11311, 12550, 12751, 12926, 14000, 14178, 14310, 15207, 15351, 15464, 16579, 16630, 16833, 18018, 18176, 19327, 19531, 20443, 20622, 20834, 22034, 22167, 22376, 23364, 23514], "responses": ["11", "7", "15", "14", "13", "9", "14", "1", "16", "21", "11", "12", "7", "9", "15", "15", "7"], "num2": [8, 1, 1, 4, 3, 5, 3, 2, 4, 5, 1, 7, 3, 1, 1, 6, 1, 1], "num3": [2, 2, 7, 9, 8, 1, 6, 4, 7, 8, 4, 1, 2, 3, 7, 7, 5, 7], "conditions": [24, 1600, "v", 24000], "internal_node_id": "0.0-78.0", "key_presses": [97, 97, 13, 103, 13, 97, 101, 13, 97, 100, 13, 97, 99, 13, 105, 13, 97, 100, 13, 97, 13, 97, 102, 13, 98, 97, 13, 97, 97, 13, 97, 98, 13, 103, 13, 105, 13, 97, 101, 13, 97, 101, 13, 103, 13], "trial": 3, "time_elapsed": 609522, "type": "DISTRACTOR", "trial_index": 105, "num1": [1, 4, 7, 1, 2, 3, 5, 5, 5, 8, 6, 4, 2, 5, 7, 2, 1, 9]}, "uniqueid": "MTK2959:3FK0YFF9P0N026N8FSBI2H0LXMVVVX", "dateTime": 1519598475052}, {"current_trial": 106, "trialdata": {"rt": -1, "trial_type": "single-stim", "stimulus": "<p id=\"stim\">10</p>", "internal_node_id": "0.0-79.0-0.0", "time_elapsed": 612527, "key_press": -1, "trial_index": 106}, "uniqueid": "MTK2959:3FK0YFF9P0N026N8FSBI2H0LXMVVVX", "dateTime": 1519598478057}, {"current_trial": 107, "trialdata": {"rt": -1, "trial_type": "single-stim", "stimulus": "<p id=\"stim\">9</p>", "internal_node_id": "0.0-79.0-1.0", "time_elapsed": 613530, "key_press": -1, "trial_index": 107}, "uniqueid": "MTK2959:3FK0YFF9P0N026N8FSBI2H0LXMVVVX", "dateTime": 1519598479060}, {"current_trial": 108, "trialdata": {"rt": -1, "trial_type": "single-stim", "stimulus": "<p id=\"stim\">8</p>", "internal_node_id": "0.0-79.0-2.0", "time_elapsed": 614532, "key_press": -1, "trial_index": 108}, "uniqueid": "MTK2959:3FK0YFF9P0N026N8FSBI2H0LXMVVVX", "dateTime": 1519598480062}, {"current_trial": 109, "trialdata": {"rt": -1, "trial_type": "single-stim", "stimulus": "<p id=\"stim\">7</p>", "internal_node_id": "0.0-79.0-3.0", "time_elapsed": 615534, "key_press": -1, "trial_index": 109}, "uniqueid": "MTK2959:3FK0YFF9P0N026N8FSBI2H0LXMVVVX", "dateTime": 1519598481064}, {"current_trial": 110, "trialdata": {"rt": -1, "trial_type": "single-stim", "stimulus": "<p id=\"stim\">6</p>", "internal_node_id": "0.0-79.0-4.0", "time_elapsed": 616536, "key_press": -1, "trial_index": 110}, "uniqueid": "MTK2959:3FK0YFF9P0N026N8FSBI2H0LXMVVVX", "dateTime": 1519598482066}, {"current_trial": 111, "trialdata": {"rt": -1, "trial_type": "single-stim", "stimulus": "<p id=\"stim\">5</p>", "internal_node_id": "0.0-79.0-5.0", "time_elapsed": 617537, "key_press": -1, "trial_index": 111}, "uniqueid": "MTK2959:3FK0YFF9P0N026N8FSBI2H0LXMVVVX", "dateTime": 1519598483067}, {"current_trial": 112, "trialdata": {"rt": -1, "trial_type": "single-stim", "stimulus": "<p id=\"stim\">4</p>", "internal_node_id": "0.0-79.0-6.0", "time_elapsed": 618539, "key_press": -1, "trial_index": 112}, "uniqueid": "MTK2959:3FK0YFF9P0N026N8FSBI2H0LXMVVVX", "dateTime": 1519598484069}, {"current_trial": 113, "trialdata": {"rt": -1, "trial_type": "single-stim", "stimulus": "<p id=\"stim\">3</p>", "internal_node_id": "0.0-79.0-7.0", "time_elapsed": 619541, "key_press": -1, "trial_index": 113}, "uniqueid": "MTK2959:3FK0YFF9P0N026N8FSBI2H0LXMVVVX", "dateTime": 1519598485071}, {"current_trial": 114, "trialdata": {"rt": -1, "trial_type": "single-stim", "stimulus": "<p id=\"stim\">2</p>", "internal_node_id": "0.0-79.0-8.0", "time_elapsed": 620542, "key_press": -1, "trial_index": 114}, "uniqueid": "MTK2959:3FK0YFF9P0N026N8FSBI2H0LXMVVVX", "dateTime": 1519598486072}, {"current_trial": 115, "trialdata": {"rt": -1, "trial_type": "single-stim", "stimulus": "<p id=\"stim\">1</p>", "internal_node_id": "0.0-79.0-9.0", "time_elapsed": 621544, "key_press": -1, "trial_index": 115}, "uniqueid": "MTK2959:3FK0YFF9P0N026N8FSBI2H0LXMVVVX", "dateTime": 1519598487074}, {"current_trial": 116, "trialdata": {"rt": -1, "trial_type": "single-stim", "stimulus": "<p id=\"stim\">+</p>", "internal_node_id": "0.0-80.0-0.0", "time_elapsed": 623045, "key_press": -1, "type": "FIXATION", "trial_index": 116}, "uniqueid": "MTK2959:3FK0YFF9P0N026N8FSBI2H0LXMVVVX", "dateTime": 1519598488575}, {"current_trial": 117, "trialdata": {"rt": -1, "trial_type": "single-stim", "word": "bank", "stimulus": "<p id=\"stim\">BANK</p>", "conditions": [24, 1600, "v", 24000], "internal_node_id": "0.0-81.0", "trial": 3, "time_elapsed": 624646, "serialpos": 0, "key_press": -1, "wordID": 82, "type": "PRES_VIS", "trial_index": 117}, "uniqueid": "MTK2959:3FK0YFF9P0N026N8FSBI2H0LXMVVVX", "dateTime": 1519598490177}, {"current_trial": 118, "trialdata": {"rt": -1, "trial_type": "single-stim", "word": "freezer", "stimulus": "<p id=\"stim\">FREEZER</p>", "conditions": [24, 1600, "v", 24000], "internal_node_id": "0.0-82.0", "trial": 3, "time_elapsed": 627134, "serialpos": 1, "key_press": -1, "wordID": 603, "type": "PRES_VIS", "trial_index": 118}, "uniqueid": "MTK2959:3FK0YFF9P0N026N8FSBI2H0LXMVVVX", "dateTime": 1519598492664}, {"current_trial": 119, "trialdata": {"rt": -1, "trial_type": "single-stim", "word": "briefcase", "stimulus": "<p id=\"stim\">BRIEFCASE</p>", "conditions": [24, 1600, "v", 24000], "internal_node_id": "0.0-83.0", "trial": 3, "time_elapsed": 629676, "serialpos": 2, "key_press": -1, "wordID": 174, "type": "PRES_VIS", "trial_index": 119}, "uniqueid": "MTK2959:3FK0YFF9P0N026N8FSBI2H0LXMVVVX", "dateTime": 1519598495206}, {"current_trial": 120, "trialdata": {"rt": -1, "trial_type": "single-stim", "word": "forehead", "stimulus": "<p id=\"stim\">FOREHEAD</p>", "conditions": [24, 1600, "v", 24000], "internal_node_id": "0.0-84.0", "trial": 3, "time_elapsed": 632333, "serialpos": 3, "key_press": -1, "wordID": 591, "type": "PRES_VIS", "trial_index": 120}, "uniqueid": "MTK2959:3FK0YFF9P0N026N8FSBI2H0LXMVVVX", "dateTime": 1519598497863}, {"current_trial": 121, "trialdata": {"rt": -1, "trial_type": "single-stim", "word": "pastry", "stimulus": "<p id=\"stim\">PASTRY</p>", "conditions": [24, 1600, "v", 24000], "internal_node_id": "0.0-85.0", "trial": 3, "time_elapsed": 634917, "serialpos": 4, "key_press": -1, "wordID": 1021, "type": "PRES_VIS", "trial_index": 121}, "uniqueid": "MTK2959:3FK0YFF9P0N026N8FSBI2H0LXMVVVX", "dateTime": 1519598500448}, {"current_trial": 122, "trialdata": {"rt": -1, "trial_type": "single-stim", "word": "robin", "stimulus": "<p id=\"stim\">ROBIN</p>", "conditions": [24, 1600, "v", 24000], "internal_node_id": "0.0-86.0", "trial": 3, "time_elapsed": 637703, "serialpos": 5, "key_press": -1, "wordID": 1198, "type": "PRES_VIS", "trial_index": 122}, "uniqueid": "MTK2959:3FK0YFF9P0N026N8FSBI2H0LXMVVVX", "dateTime": 1519598503233}, {"current_trial": 123, "trialdata": {"rt": -1, "trial_type": "single-stim", "word": "sparrow", "stimulus": "<p id=\"stim\">SPARROW</p>", "conditions": [24, 1600, "v", 24000], "internal_node_id": "0.0-87.0", "trial": 3, "time_elapsed": 640162, "serialpos": 6, "key_press": -1, "wordID": 1346, "type": "PRES_VIS", "trial_index": 123}, "uniqueid": "MTK2959:3FK0YFF9P0N026N8FSBI2H0LXMVVVX", "dateTime": 1519598505692}, {"current_trial": 124, "trialdata": {"rt": -1, "trial_type": "single-stim", "word": "muffin", "stimulus": "<p id=\"stim\">MUFFIN</p>", "conditions": [24, 1600, "v", 24000], "internal_node_id": "0.0-88.0", "trial": 3, "time_elapsed": 642951, "serialpos": 7, "key_press": -1, "wordID": 928, "type": "PRES_VIS", "trial_index": 124}, "uniqueid": "MTK2959:3FK0YFF9P0N026N8FSBI2H0LXMVVVX", "dateTime": 1519598508483}, {"current_trial": 125, "trialdata": {"rt": -1, "trial_type": "single-stim", "word": "hatchet", "stimulus": "<p id=\"stim\">HATCHET</p>", "conditions": [24, 1600, "v", 24000], "internal_node_id": "0.0-89.0", "trial": 3, "time_elapsed": 645471, "serialpos": 8, "key_press": -1, "wordID": 690, "type": "PRES_VIS", "trial_index": 125}, "uniqueid": "MTK2959:3FK0YFF9P0N026N8FSBI2H0LXMVVVX", "dateTime": 1519598511002}, {"current_trial": 126, "trialdata": {"rt": -1, "trial_type": "single-stim", "word": "pork", "stimulus": "<p id=\"stim\">PORK</p>", "conditions": [24, 1600, "v", 24000], "internal_node_id": "0.0-90.0", "trial": 3, "time_elapsed": 648093, "serialpos": 9, "key_press": -1, "wordID": 1107, "type": "PRES_VIS", "trial_index": 126}, "uniqueid": "MTK2959:3FK0YFF9P0N026N8FSBI2H0LXMVVVX", "dateTime": 1519598513623}, {"current_trial": 127, "trialdata": {"rt": -1, "trial_type": "single-stim", "word": "dentist", "stimulus": "<p id=\"stim\">DENTIST</p>", "conditions": [24, 1600, "v", 24000], "internal_node_id": "0.0-91.0", "trial": 3, "time_elapsed": 650509, "serialpos": 10, "key_press": -1, "wordID": 446, "type": "PRES_VIS", "trial_index": 127}, "uniqueid": "MTK2959:3FK0YFF9P0N026N8FSBI2H0LXMVVVX", "dateTime": 1519598516039}, {"current_trial": 128, "trialdata": {"rt": -1, "trial_type": "single-stim", "word": "twig", "stimulus": "<p id=\"stim\">TWIG</p>", "conditions": [24, 1600, "v", 24000], "internal_node_id": "0.0-92.0", "trial": 3, "time_elapsed": 653071, "serialpos": 11, "key_press": -1, "wordID": 1526, "type": "PRES_VIS", "trial_index": 128}, "uniqueid": "MTK2959:3FK0YFF9P0N026N8FSBI2H0LXMVVVX", "dateTime": 1519598518601}, {"current_trial": 129, "trialdata": {"rt": -1, "trial_type": "single-stim", "word": "inmate", "stimulus": "<p id=\"stim\">INMATE</p>", "conditions": [24, 1600, "v", 24000], "internal_node_id": "0.0-93.0", "trial": 3, "time_elapsed": 655490, "serialpos": 12, "key_press": -1, "wordID": 737, "type": "PRES_VIS", "trial_index": 129}, "uniqueid": "MTK2959:3FK0YFF9P0N026N8FSBI2H0LXMVVVX", "dateTime": 1519598521020}, {"current_trial": 130, "trialdata": {"rt": -1, "trial_type": "single-stim", "word": "sandwich", "stimulus": "<p id=\"stim\">SANDWICH</p>", "conditions": [24, 1600, "v", 24000], "internal_node_id": "0.0-94.0", "trial": 3, "time_elapsed": 658115, "serialpos": 13, "key_press": -1, "wordID": 1231, "type": "PRES_VIS", "trial_index": 130}, "uniqueid": "MTK2959:3FK0YFF9P0N026N8FSBI2H0LXMVVVX", "dateTime": 1519598523645}, {"current_trial": 131, "trialdata": {"rt": -1, "trial_type": "single-stim", "word": "donkey", "stimulus": "<p id=\"stim\">DONKEY</p>", "conditions": [24, 1600, "v", 24000], "internal_node_id": "0.0-95.0", "trial": 3, "time_elapsed": 660897, "serialpos": 14, "key_press": -1, "wordID": 483, "type": "PRES_VIS", "trial_index": 131}, "uniqueid": "MTK2959:3FK0YFF9P0N026N8FSBI2H0LXMVVVX", "dateTime": 1519598526428}, {"current_trial": 132, "trialdata": {"rt": -1, "trial_type": "single-stim", "word": "cookbook", "stimulus": "<p id=\"stim\">COOKBOOK</p>", "conditions": [24, 1600, "v", 24000], "internal_node_id": "0.0-96.0", "trial": 3, "time_elapsed": 663611, "serialpos": 15, "key_press": -1, "wordID": 372, "type": "PRES_VIS", "trial_index": 132}, "uniqueid": "MTK2959:3FK0YFF9P0N026N8FSBI2H0LXMVVVX", "dateTime": 1519598529141}, {"current_trial": 133, "trialdata": {"rt": -1, "trial_type": "single-stim", "word": "banjo", "stimulus": "<p id=\"stim\">BANJO</p>", "conditions": [24, 1600, "v", 24000], "internal_node_id": "0.0-97.0", "trial": 3, "time_elapsed": 666319, "serialpos": 16, "key_press": -1, "wordID": 81, "type": "PRES_VIS", "trial_index": 133}, "uniqueid": "MTK2959:3FK0YFF9P0N026N8FSBI2H0LXMVVVX", "dateTime": 1519598531849}, {"current_trial": 134, "trialdata": {"rt": -1, "trial_type": "single-stim", "word": "icing", "stimulus": "<p id=\"stim\">ICING</p>", "conditions": [24, 1600, "v", 24000], "internal_node_id": "0.0-98.0", "trial": 3, "time_elapsed": 668818, "serialpos": 17, "key_press": -1, "wordID": 731, "type": "PRES_VIS", "trial_index": 134}, "uniqueid": "MTK2959:3FK0YFF9P0N026N8FSBI2H0LXMVVVX", "dateTime": 1519598534349}, {"current_trial": 135, "trialdata": {"rt": -1, "trial_type": "single-stim", "word": "hedge", "stimulus": "<p id=\"stim\">HEDGE</p>", "conditions": [24, 1600, "v", 24000], "internal_node_id": "0.0-99.0", "trial": 3, "time_elapsed": 671406, "serialpos": 18, "key_press": -1, "wordID": 698, "type": "PRES_VIS", "trial_index": 135}, "uniqueid": "MTK2959:3FK0YFF9P0N026N8FSBI2H0LXMVVVX", "dateTime": 1519598536936}, {"current_trial": 136, "trialdata": {"rt": -1, "trial_type": "single-stim", "word": "camel", "stimulus": "<p id=\"stim\">CAMEL</p>", "conditions": [24, 1600, "v", 24000], "internal_node_id": "0.0-100.0", "trial": 3, "time_elapsed": 674082, "serialpos": 19, "key_press": -1, "wordID": 222, "type": "PRES_VIS", "trial_index": 136}, "uniqueid": "MTK2959:3FK0YFF9P0N026N8FSBI2H0LXMVVVX", "dateTime": 1519598539612}, {"current_trial": 137, "trialdata": {"rt": -1, "trial_type": "single-stim", "word": "panther", "stimulus": "<p id=\"stim\">PANTHER</p>", "conditions": [24, 1600, "v", 24000], "internal_node_id": "0.0-101.0", "trial": 3, "time_elapsed": 676735, "serialpos": 20, "key_press": -1, "wordID": 1008, "type": "PRES_VIS", "trial_index": 137}, "uniqueid": "MTK2959:3FK0YFF9P0N026N8FSBI2H0LXMVVVX", "dateTime": 1519598542265}, {"current_trial": 138, "trialdata": {"rt": -1, "trial_type": "single-stim", "word": "turtle", "stimulus": "<p id=\"stim\">TURTLE</p>", "conditions": [24, 1600, "v", 24000], "internal_node_id": "0.0-102.0", "trial": 3, "time_elapsed": 679418, "serialpos": 21, "key_press": -1, "wordID": 1521, "type": "PRES_VIS", "trial_index": 138}, "uniqueid": "MTK2959:3FK0YFF9P0N026N8FSBI2H0LXMVVVX", "dateTime": 1519598544948}, {"current_trial": 139, "trialdata": {"rt": -1, "trial_type": "single-stim", "word": "toaster", "stimulus": "<p id=\"stim\">TOASTER</p>", "conditions": [24, 1600, "v", 24000], "internal_node_id": "0.0-103.0", "trial": 3, "time_elapsed": 681904, "serialpos": 22, "key_press": -1, "wordID": 1471, "type": "PRES_VIS", "trial_index": 139}, "uniqueid": "MTK2959:3FK0YFF9P0N026N8FSBI2H0LXMVVVX", "dateTime": 1519598547434}, {"current_trial": 140, "trialdata": {"rt": -1, "trial_type": "single-stim", "word": "hamper", "stimulus": "<p id=\"stim\">HAMPER</p>", "conditions": [24, 1600, "v", 24000], "internal_node_id": "0.0-104.0", "trial": 3, "time_elapsed": 684706, "serialpos": 23, "key_press": -1, "wordID": 681, "type": "PRES_VIS", "trial_index": 140}, "uniqueid": "MTK2959:3FK0YFF9P0N026N8FSBI2H0LXMVVVX", "dateTime": 1519598550236}, {"current_trial": 141, "trialdata": {"rt": -1, "trial_type": "single-stim", "stimulus": "", "internal_node_id": "0.0-105.0-0.0", "time_elapsed": 687027, "key_press": -1, "type": "PRE_RECALL_DELAY", "trial_index": 141}, "uniqueid": "MTK2959:3FK0YFF9P0N026N8FSBI2H0LXMVVVX", "dateTime": 1519598552558}, {"current_trial": 142, "trialdata": {"rt": -1000, "trial_type": "single-audio", "stimulus": "/static/audio/400Hz.wav", "internal_node_id": "0.0-106.0", "time_elapsed": 687529, "key_press": -1, "type": "PRE_RECALL_ALERT", "trial_index": 142}, "uniqueid": "MTK2959:3FK0YFF9P0N026N8FSBI2H0LXMVVVX", "dateTime": 1519598553059}, {"current_trial": 143, "trialdata": {"rt": [2689, 4482, 6462, 7843, 9503, 12851, 15408, 17654, 19230, 21296, 22673, 26237, 28997], "recwords": ["turtl", "toaster", "sparrow", "robin", "cokbook", "cookbook", "inmate", "sandwich", "pork", "panther", "camel", "forehead", "freezer"], "key_times": [895, 1049, 1241, 1797, 2424, 2689, 3356, 3475, 3674, 3864, 4009, 4073, 4238, 4482, 5342, 5466, 5560, 5837, 5960, 6090, 6235, 6462, 6859, 7001, 7206, 7358, 7441, 7843, 8129, 8426, 8574, 8850, 9020, 9159, 9265, 9503, 10864, 11075, 11211, 11354, 11801, 12098, 12242, 12366, 12851, 13205, 13247, 13435, 13567, 13673, 14070, 14186, 14525, 15408, 16197, 16379, 16501, 16618, 16794, 16913, 17080, 17197, 17654, 18018, 18082, 18332, 18698, 19230, 20229, 20368, 20517, 20746, 20896, 20984, 21151, 21296, 21586, 21840, 21976, 22121, 22246, 22673, 24209, 24481, 24627, 24784, 25021, 25349, 25556, 25708, 26237, 27852, 28013, 28082, 28241, 28464, 28575, 28631, 28997], "trial_type": "free-recall", "conditions": [24, 1600, "v", 24000], "internal_node_id": "0.0-107.0-0.0", "key_presses": [84, 85, 82, 84, 76, 13, 84, 79, 65, 83, 84, 69, 82, 13, 83, 80, 65, 82, 82, 79, 87, 13, 82, 79, 66, 73, 78, 13, 67, 79, 75, 66, 79, 79, 75, 13, 67, 79, 79, 75, 66, 79, 79, 75, 13, 73, 78, 77, 65, 78, 8, 84, 69, 13, 83, 65, 78, 68, 87, 73, 67, 72, 13, 80, 79, 82, 75, 13, 80, 65, 78, 84, 72, 69, 82, 13, 67, 65, 77, 69, 76, 13, 70, 79, 82, 69, 72, 69, 65, 68, 13, 70, 82, 69, 69, 90, 69, 82, 13], "trial": 3, "time_elapsed": 747536, "type": "FREE_RECALL", "trial_index": 143}, "uniqueid": "MTK2959:3FK0YFF9P0N026N8FSBI2H0LXMVVVX", "dateTime": 1519598613071}, {"current_trial": 144, "trialdata": {"rt": 1769, "trial_type": "text", "internal_node_id": "0.0-108.0", "time_elapsed": 751311, "key_press": 13, "type": "INSTRUCTIONS", "trial_index": 144}, "uniqueid": "MTK2959:3FK0YFF9P0N026N8FSBI2H0LXMVVVX", "dateTime": 1519598616841}, {"current_trial": 145, "trialdata": {"rt": [1860, 3195, 4615, 6007, 7426, 9009, 10745], "trial_type": "math-distractor", "key_times": [1581, 1717, 1860, 2939, 3073, 3195, 4348, 4498, 4615, 5672, 5778, 6007, 7150, 7219, 7426, 8666, 8809, 9009, 10411, 10534, 10745], "responses": ["22", "10", "10", "18", "12", "18", "15"], "num2": [8, 7, 1, 6, 1, 1, 7, 4], "num3": [5, 1, 7, 5, 3, 8, 4, 2], "conditions": [24, 1600, "v", 12000], "internal_node_id": "0.0-109.0", "key_presses": [98, 98, 13, 97, 96, 13, 97, 96, 13, 97, 104, 13, 97, 98, 13, 97, 104, 13, 97, 101, 13], "trial": 4, "time_elapsed": 765315, "type": "DISTRACTOR", "trial_index": 145, "num1": [9, 2, 2, 7, 8, 9, 4, 6]}, "uniqueid": "MTK2959:3FK0YFF9P0N026N8FSBI2H0LXMVVVX", "dateTime": 1519598630845}, {"current_trial": 146, "trialdata": {"rt": -1, "trial_type": "single-stim", "stimulus": "<p id=\"stim\">10</p>", "internal_node_id": "0.0-110.0-0.0", "time_elapsed": 768317, "key_press": -1, "trial_index": 146}, "uniqueid": "MTK2959:3FK0YFF9P0N026N8FSBI2H0LXMVVVX", "dateTime": 1519598633848}, {"current_trial": 147, "trialdata": {"rt": -1, "trial_type": "single-stim", "stimulus": "<p id=\"stim\">9</p>", "internal_node_id": "0.0-110.0-1.0", "time_elapsed": 769320, "key_press": -1, "trial_index": 147}, "uniqueid": "MTK2959:3FK0YFF9P0N026N8FSBI2H0LXMVVVX", "dateTime": 1519598634851}, {"current_trial": 148, "trialdata": {"rt": -1, "trial_type": "single-stim", "stimulus": "<p id=\"stim\">8</p>", "internal_node_id": "0.0-110.0-2.0", "time_elapsed": 770322, "key_press": -1, "trial_index": 148}, "uniqueid": "MTK2959:3FK0YFF9P0N026N8FSBI2H0LXMVVVX", "dateTime": 1519598635852}, {"current_trial": 149, "trialdata": {"rt": -1, "trial_type": "single-stim", "stimulus": "<p id=\"stim\">7</p>", "internal_node_id": "0.0-110.0-3.0", "time_elapsed": 771324, "key_press": -1, "trial_index": 149}, "uniqueid": "MTK2959:3FK0YFF9P0N026N8FSBI2H0LXMVVVX", "dateTime": 1519598636854}, {"current_trial": 150, "trialdata": {"rt": -1, "trial_type": "single-stim", "stimulus": "<p id=\"stim\">6</p>", "internal_node_id": "0.0-110.0-4.0", "time_elapsed": 772327, "key_press": -1, "trial_index": 150}, "uniqueid": "MTK2959:3FK0YFF9P0N026N8FSBI2H0LXMVVVX", "dateTime": 1519598637857}, {"current_trial": 151, "trialdata": {"rt": -1, "trial_type": "single-stim", "stimulus": "<p id=\"stim\">5</p>", "internal_node_id": "0.0-110.0-5.0", "time_elapsed": 773328, "key_press": -1, "trial_index": 151}, "uniqueid": "MTK2959:3FK0YFF9P0N026N8FSBI2H0LXMVVVX", "dateTime": 1519598638858}, {"current_trial": 152, "trialdata": {"rt": -1, "trial_type": "single-stim", "stimulus": "<p id=\"stim\">4</p>", "internal_node_id": "0.0-110.0-6.0", "time_elapsed": 774330, "key_press": -1, "trial_index": 152}, "uniqueid": "MTK2959:3FK0YFF9P0N026N8FSBI2H0LXMVVVX", "dateTime": 1519598639860}, {"current_trial": 153, "trialdata": {"rt": -1, "trial_type": "single-stim", "stimulus": "<p id=\"stim\">3</p>", "internal_node_id": "0.0-110.0-7.0", "time_elapsed": 775331, "key_press": -1, "trial_index": 153}, "uniqueid": "MTK2959:3FK0YFF9P0N026N8FSBI2H0LXMVVVX", "dateTime": 1519598640861}, {"current_trial": 154, "trialdata": {"rt": -1, "trial_type": "single-stim", "stimulus": "<p id=\"stim\">2</p>", "internal_node_id": "0.0-110.0-8.0", "time_elapsed": 776333, "key_press": -1, "trial_index": 154}, "uniqueid": "MTK2959:3FK0YFF9P0N026N8FSBI2H0LXMVVVX", "dateTime": 1519598641863}, {"current_trial": 155, "trialdata": {"rt": -1, "trial_type": "single-stim", "stimulus": "<p id=\"stim\">1</p>", "internal_node_id": "0.0-110.0-9.0", "time_elapsed": 777334, "key_press": -1, "trial_index": 155}, "uniqueid": "MTK2959:3FK0YFF9P0N026N8FSBI2H0LXMVVVX", "dateTime": 1519598642864}, {"current_trial": 156, "trialdata": {"rt": -1, "trial_type": "single-stim", "stimulus": "<p id=\"stim\">+</p>", "internal_node_id": "0.0-111.0-0.0", "time_elapsed": 778835, "key_press": -1, "type": "FIXATION", "trial_index": 156}, "uniqueid": "MTK2959:3FK0YFF9P0N026N8FSBI2H0LXMVVVX", "dateTime": 1519598644366}, {"current_trial": 157, "trialdata": {"rt": -1, "trial_type": "single-stim", "word": "smog", "stimulus": "<p id=\"stim\">SMOG</p>", "conditions": [24, 1600, "v", 12000], "internal_node_id": "0.0-112.0", "trial": 4, "time_elapsed": 780438, "serialpos": 0, "key_press": -1, "wordID": 1329, "type": "PRES_VIS", "trial_index": 157}, "uniqueid": "MTK2959:3FK0YFF9P0N026N8FSBI2H0LXMVVVX", "dateTime": 1519598645968}, {"current_trial": 158, "trialdata": {"rt": -1, "trial_type": "single-stim", "word": "clamp", "stimulus": "<p id=\"stim\">CLAMP</p>", "conditions": [24, 1600, "v", 12000], "internal_node_id": "0.0-113.0", "trial": 4, "time_elapsed": 783121, "serialpos": 1, "key_press": -1, "wordID": 315, "type": "PRES_VIS", "trial_index": 158}, "uniqueid": "MTK2959:3FK0YFF9P0N026N8FSBI2H0LXMVVVX", "dateTime": 1519598648651}, {"current_trial": 159, "trialdata": {"rt": -1, "trial_type": "single-stim", "word": "switch", "stimulus": "<p id=\"stim\">SWITCH</p>", "conditions": [24, 1600, "v", 12000], "internal_node_id": "0.0-114.0", "trial": 4, "time_elapsed": 785598, "serialpos": 2, "key_press": -1, "wordID": 1421, "type": "PRES_VIS", "trial_index": 159}, "uniqueid": "MTK2959:3FK0YFF9P0N026N8FSBI2H0LXMVVVX", "dateTime": 1519598651128}, {"current_trial": 160, "trialdata": {"rt": -1, "trial_type": "single-stim", "word": "spider", "stimulus": "<p id=\"stim\">SPIDER</p>", "conditions": [24, 1600, "v", 12000], "internal_node_id": "0.0-115.0", "trial": 4, "time_elapsed": 788140, "serialpos": 3, "key_press": -1, "wordID": 1350, "type": "PRES_VIS", "trial_index": 160}, "uniqueid": "MTK2959:3FK0YFF9P0N026N8FSBI2H0LXMVVVX", "dateTime": 1519598653670}, {"current_trial": 161, "trialdata": {"rt": -1, "trial_type": "single-stim", "word": "ozone", "stimulus": "<p id=\"stim\">OZONE</p>", "conditions": [24, 1600, "v", 12000], "internal_node_id": "0.0-116.0", "trial": 4, "time_elapsed": 790938, "serialpos": 4, "key_press": -1, "wordID": 995, "type": "PRES_VIS", "trial_index": 161}, "uniqueid": "MTK2959:3FK0YFF9P0N026N8FSBI2H0LXMVVVX", "dateTime": 1519598656468}, {"current_trial": 162, "trialdata": {"rt": -1, "trial_type": "single-stim", "word": "silk", "stimulus": "<p id=\"stim\">SILK</p>", "conditions": [24, 1600, "v", 12000], "internal_node_id": "0.0-117.0", "trial": 4, "time_elapsed": 793544, "serialpos": 5, "key_press": -1, "wordID": 1306, "type": "PRES_VIS", "trial_index": 162}, "uniqueid": "MTK2959:3FK0YFF9P0N026N8FSBI2H0LXMVVVX", "dateTime": 1519598659074}, {"current_trial": 163, "trialdata": {"rt": -1, "trial_type": "single-stim", "word": "dust", "stimulus": "<p id=\"stim\">DUST</p>", "conditions": [24, 1600, "v", 12000], "internal_node_id": "0.0-118.0", "trial": 4, "time_elapsed": 795976, "serialpos": 6, "key_press": -1, "wordID": 507, "type": "PRES_VIS", "trial_index": 163}, "uniqueid": "MTK2959:3FK0YFF9P0N026N8FSBI2H0LXMVVVX", "dateTime": 1519598661509}, {"current_trial": 164, "trialdata": {"rt": -1, "trial_type": "single-stim", "word": "paddle", "stimulus": "<p id=\"stim\">PADDLE</p>", "conditions": [24, 1600, "v", 12000], "internal_node_id": "0.0-119.0", "trial": 4, "time_elapsed": 798544, "serialpos": 7, "key_press": -1, "wordID": 999, "type": "PRES_VIS", "trial_index": 164}, "uniqueid": "MTK2959:3FK0YFF9P0N026N8FSBI2H0LXMVVVX", "dateTime": 1519598664074}, {"current_trial": 165, "trialdata": {"rt": -1, "trial_type": "single-stim", "word": "missile", "stimulus": "<p id=\"stim\">MISSILE</p>", "conditions": [24, 1600, "v", 12000], "internal_node_id": "0.0-120.0", "trial": 4, "time_elapsed": 801103, "serialpos": 8, "key_press": -1, "wordID": 899, "type": "PRES_VIS", "trial_index": 165}, "uniqueid": "MTK2959:3FK0YFF9P0N026N8FSBI2H0LXMVVVX", "dateTime": 1519598666633}, {"current_trial": 166, "trialdata": {"rt": -1, "trial_type": "single-stim", "word": "rocket", "stimulus": "<p id=\"stim\">ROCKET</p>", "conditions": [24, 1600, "v", 12000], "internal_node_id": "0.0-121.0", "trial": 4, "time_elapsed": 803731, "serialpos": 9, "key_press": -1, "wordID": 1201, "type": "PRES_VIS", "trial_index": 166}, "uniqueid": "MTK2959:3FK0YFF9P0N026N8FSBI2H0LXMVVVX", "dateTime": 1519598669261}, {"current_trial": 167, "trialdata": {"rt": -1, "trial_type": "single-stim", "word": "hand", "stimulus": "<p id=\"stim\">HAND</p>", "conditions": [24, 1600, "v", 12000], "internal_node_id": "0.0-122.0", "trial": 4, "time_elapsed": 806274, "serialpos": 10, "key_press": -1, "wordID": 682, "type": "PRES_VIS", "trial_index": 167}, "uniqueid": "MTK2959:3FK0YFF9P0N026N8FSBI2H0LXMVVVX", "dateTime": 1519598671804}, {"current_trial": 168, "trialdata": {"rt": -1, "trial_type": "single-stim", "word": "baby", "stimulus": "<p id=\"stim\">BABY</p>", "conditions": [24, 1600, "v", 12000], "internal_node_id": "0.0-123.0", "trial": 4, "time_elapsed": 808686, "serialpos": 11, "key_press": -1, "wordID": 63, "type": "PRES_VIS", "trial_index": 168}, "uniqueid": "MTK2959:3FK0YFF9P0N026N8FSBI2H0LXMVVVX", "dateTime": 1519598674216}, {"current_trial": 169, "trialdata": {"rt": -1, "trial_type": "single-stim", "word": "trench", "stimulus": "<p id=\"stim\">TRENCH</p>", "conditions": [24, 1600, "v", 12000], "internal_node_id": "0.0-124.0", "trial": 4, "time_elapsed": 811304, "serialpos": 12, "key_press": -1, "wordID": 1502, "type": "PRES_VIS", "trial_index": 169}, "uniqueid": "MTK2959:3FK0YFF9P0N026N8FSBI2H0LXMVVVX", "dateTime": 1519598676834}, {"current_trial": 170, "trialdata": {"rt": -1, "trial_type": "single-stim", "word": "scotch", "stimulus": "<p id=\"stim\">SCOTCH</p>", "conditions": [24, 1600, "v", 12000], "internal_node_id": "0.0-125.0", "trial": 4, "time_elapsed": 813790, "serialpos": 13, "key_press": -1, "wordID": 1250, "type": "PRES_VIS", "trial_index": 170}, "uniqueid": "MTK2959:3FK0YFF9P0N026N8FSBI2H0LXMVVVX", "dateTime": 1519598679320}, {"current_trial": 171, "trialdata": {"rt": -1, "trial_type": "single-stim", "word": "jelly", "stimulus": "<p id=\"stim\">JELLY</p>", "conditions": [24, 1600, "v", 12000], "internal_node_id": "0.0-126.0", "trial": 4, "time_elapsed": 816375, "serialpos": 14, "key_press": -1, "wordID": 754, "type": "PRES_VIS", "trial_index": 171}, "uniqueid": "MTK2959:3FK0YFF9P0N026N8FSBI2H0LXMVVVX", "dateTime": 1519598681906}, {"current_trial": 172, "trialdata": {"rt": -1, "trial_type": "single-stim", "word": "custard", "stimulus": "<p id=\"stim\">CUSTARD</p>", "conditions": [24, 1600, "v", 12000], "internal_node_id": "0.0-127.0", "trial": 4, "time_elapsed": 818859, "serialpos": 15, "key_press": -1, "wordID": 428, "type": "PRES_VIS", "trial_index": 172}, "uniqueid": "MTK2959:3FK0YFF9P0N026N8FSBI2H0LXMVVVX", "dateTime": 1519598684389}, {"current_trial": 173, "trialdata": {"rt": -1, "trial_type": "single-stim", "word": "brandy", "stimulus": "<p id=\"stim\">BRANDY</p>", "conditions": [24, 1600, "v", 12000], "internal_node_id": "0.0-128.0", "trial": 4, "time_elapsed": 821542, "serialpos": 16, "key_press": -1, "wordID": 168, "type": "PRES_VIS", "trial_index": 173}, "uniqueid": "MTK2959:3FK0YFF9P0N026N8FSBI2H0LXMVVVX", "dateTime": 1519598687073}, {"current_trial": 174, "trialdata": {"rt": -1, "trial_type": "single-stim", "word": "monster", "stimulus": "<p id=\"stim\">MONSTER</p>", "conditions": [24, 1600, "v", 12000], "internal_node_id": "0.0-129.0", "trial": 4, "time_elapsed": 824014, "serialpos": 17, "key_press": -1, "wordID": 911, "type": "PRES_VIS", "trial_index": 174}, "uniqueid": "MTK2959:3FK0YFF9P0N026N8FSBI2H0LXMVVVX", "dateTime": 1519598689544}, {"current_trial": 175, "trialdata": {"rt": -1, "trial_type": "single-stim", "word": "salt", "stimulus": "<p id=\"stim\">SALT</p>", "conditions": [24, 1600, "v", 12000], "internal_node_id": "0.0-130.0", "trial": 4, "time_elapsed": 826608, "serialpos": 18, "key_press": -1, "wordID": 1228, "type": "PRES_VIS", "trial_index": 175}, "uniqueid": "MTK2959:3FK0YFF9P0N026N8FSBI2H0LXMVVVX", "dateTime": 1519598692138}, {"current_trial": 176, "trialdata": {"rt": -1, "trial_type": "single-stim", "word": "spoon", "stimulus": "<p id=\"stim\">SPOON</p>", "conditions": [24, 1600, "v", 12000], "internal_node_id": "0.0-131.0", "trial": 4, "time_elapsed": 829385, "serialpos": 19, "key_press": -1, "wordID": 1356, "type": "PRES_VIS", "trial_index": 176}, "uniqueid": "MTK2959:3FK0YFF9P0N026N8FSBI2H0LXMVVVX", "dateTime": 1519598694915}, {"current_trial": 177, "trialdata": {"rt": -1, "trial_type": "single-stim", "word": "cobra", "stimulus": "<p id=\"stim\">COBRA</p>", "conditions": [24, 1600, "v", 12000], "internal_node_id": "0.0-132.0", "trial": 4, "time_elapsed": 831861, "serialpos": 20, "key_press": -1, "wordID": 335, "type": "PRES_VIS", "trial_index": 177}, "uniqueid": "MTK2959:3FK0YFF9P0N026N8FSBI2H0LXMVVVX", "dateTime": 1519598697391}, {"current_trial": 178, "trialdata": {"rt": -1, "trial_type": "single-stim", "word": "ointment", "stimulus": "<p id=\"stim\">OINTMENT</p>", "conditions": [24, 1600, "v", 12000], "internal_node_id": "0.0-133.0", "trial": 4, "time_elapsed": 834426, "serialpos": 21, "key_press": -1, "wordID": 973, "type": "PRES_VIS", "trial_index": 178}, "uniqueid": "MTK2959:3FK0YFF9P0N026N8FSBI2H0LXMVVVX", "dateTime": 1519598699956}, {"current_trial": 179, "trialdata": {"rt": -1, "trial_type": "single-stim", "word": "airplane", "stimulus": "<p id=\"stim\">AIRPLANE</p>", "conditions": [24, 1600, "v", 12000], "internal_node_id": "0.0-134.0", "trial": 4, "time_elapsed": 837190, "serialpos": 22, "key_press": -1, "wordID": 11, "type": "PRES_VIS", "trial_index": 179}, "uniqueid": "MTK2959:3FK0YFF9P0N026N8FSBI2H0LXMVVVX", "dateTime": 1519598702721}, {"current_trial": 180, "trialdata": {"rt": -1, "trial_type": "single-stim", "word": "peanut", "stimulus": "<p id=\"stim\">PEANUT</p>", "conditions": [24, 1600, "v", 12000], "internal_node_id": "0.0-135.0", "trial": 4, "time_elapsed": 839728, "serialpos": 23, "key_press": -1, "wordID": 1031, "type": "PRES_VIS", "trial_index": 180}, "uniqueid": "MTK2959:3FK0YFF9P0N026N8FSBI2H0LXMVVVX", "dateTime": 1519598705258}, {"current_trial": 181, "trialdata": {"rt": -1, "trial_type": "single-stim", "stimulus": "", "internal_node_id": "0.0-136.0-0.0", "time_elapsed": 841832, "key_press": -1, "type": "PRE_RECALL_DELAY", "trial_index": 181}, "uniqueid": "MTK2959:3FK0YFF9P0N026N8FSBI2H0LXMVVVX", "dateTime": 1519598707362}, {"current_trial": 182, "trialdata": {"rt": -1000, "trial_type": "single-audio", "stimulus": "/static/audio/400Hz.wav", "internal_node_id": "0.0-137.0", "time_elapsed": 842334, "key_press": -1, "type": "PRE_RECALL_ALERT", "trial_index": 182}, "uniqueid": "MTK2959:3FK0YFF9P0N026N8FSBI2H0LXMVVVX", "dateTime": 1519598707864}, {"current_trial": 183, "trialdata": {"rt": [4220, 6434, 7579, 8858, 10607, 11445, 14897, 19276, 21251, 22672, 26711], "recwords": ["airplane", "peanut", "smog", "scotch", "jelly", "hand", "spider", "clamp", "ozone", "swift", "cobra"], "key_times": [1609, 1789, 1941, 2097, 2115, 2793, 3141, 3261, 4220, 4553, 4627, 4830, 5027, 5147, 5308, 6434, 6657, 6868, 6950, 7246, 7579, 7745, 7972, 8103, 8351, 8463, 8574, 8858, 9198, 9297, 9421, 9588, 10191, 10607, 10872, 10973, 11116, 11262, 11445, 13737, 13874, 14104, 14187, 14368, 14570, 14897, 16318, 16811, 17993, 18136, 18285, 18387, 18535, 19276, 19743, 20598, 20773, 20861, 21022, 21251, 21747, 21926, 22032, 22286, 22379, 22672, 25583, 25713, 25969, 26187, 26391, 26711], "trial_type": "free-recall", "conditions": [24, 1600, "v", 12000], "internal_node_id": "0.0-138.0-0.0", "key_presses": [65, 73, 82, 80, 76, 65, 78, 69, 13, 80, 69, 65, 78, 85, 84, 13, 83, 77, 79, 71, 13, 83, 67, 79, 84, 67, 72, 13, 74, 69, 76, 76, 89, 13, 72, 65, 78, 68, 13, 83, 80, 73, 68, 69, 82, 13, 83, 8, 67, 76, 65, 77, 80, 13, 79, 90, 79, 78, 69, 13, 83, 87, 73, 70, 84, 13, 67, 79, 66, 82, 65, 13], "trial": 4, "time_elapsed": 902337, "type": "FREE_RECALL", "trial_index": 183}, "uniqueid": "MTK2959:3FK0YFF9P0N026N8FSBI2H0LXMVVVX", "dateTime": 1519598767873}, {"current_trial": 184, "trialdata": {"rt": 8826, "trial_type": "text", "internal_node_id": "0.0-139.0", "time_elapsed": 913173, "key_press": 13, "type": "INSTRUCTIONS", "trial_index": 184}, "uniqueid": "MTK2959:3FK0YFF9P0N026N8FSBI2H0LXMVVVX", "dateTime": 1519598778703}, {"current_trial": 185, "trialdata": {"rt": [2174, 4153, 5626, 7418, 8994, 10507, 11727], "trial_type": "math-distractor", "key_times": [1561, 1723, 2174, 3873, 4031, 4153, 5320, 5515, 5626, 7080, 7236, 7418, 8684, 8762, 8994, 10229, 10364, 10507, 11492, 11561, 11727], "responses": ["20", "22", "20", "13", "15", "16", "16"], "num2": [2, 8, 6, 1, 7, 7, 2, 8], "num3": [9, 6, 8, 7, 6, 3, 6, 5], "conditions": [24, 800, "v", 12000], "internal_node_id": "0.0-140.0", "key_presses": [98, 96, 13, 98, 98, 13, 98, 96, 13, 97, 99, 13, 97, 101, 13, 97, 102, 13, 97, 102, 13], "trial": 5, "time_elapsed": 927179, "type": "DISTRACTOR", "trial_index": 185, "num1": [9, 8, 6, 5, 2, 6, 8, 6]}, "uniqueid": "MTK2959:3FK0YFF9P0N026N8FSBI2H0LXMVVVX", "dateTime": 1519598792709}, {"current_trial": 186, "trialdata": {"rt": -1, "trial_type": "single-stim", "stimulus": "<p id=\"stim\">10</p>", "internal_node_id": "0.0-141.0-0.0", "time_elapsed": 930182, "key_press": -1, "trial_index": 186}, "uniqueid": "MTK2959:3FK0YFF9P0N026N8FSBI2H0LXMVVVX", "dateTime": 1519598795712}, {"current_trial": 187, "trialdata": {"rt": -1, "trial_type": "single-stim", "stimulus": "<p id=\"stim\">9</p>", "internal_node_id": "0.0-141.0-1.0", "time_elapsed": 931184, "key_press": -1, "trial_index": 187}, "uniqueid": "MTK2959:3FK0YFF9P0N026N8FSBI2H0LXMVVVX", "dateTime": 1519598796714}, {"current_trial": 188, "trialdata": {"rt": -1, "trial_type": "single-stim", "stimulus": "<p id=\"stim\">8</p>", "internal_node_id": "0.0-141.0-2.0", "time_elapsed": 932185, "key_press": -1, "trial_index": 188}, "uniqueid": "MTK2959:3FK0YFF9P0N026N8FSBI2H0LXMVVVX", "dateTime": 1519598797715}, {"current_trial": 189, "trialdata": {"rt": -1, "trial_type": "single-stim", "stimulus": "<p id=\"stim\">7</p>", "internal_node_id": "0.0-141.0-3.0", "time_elapsed": 933187, "key_press": -1, "trial_index": 189}, "uniqueid": "MTK2959:3FK0YFF9P0N026N8FSBI2H0LXMVVVX", "dateTime": 1519598798717}, {"current_trial": 190, "trialdata": {"rt": -1, "trial_type": "single-stim", "stimulus": "<p id=\"stim\">6</p>", "internal_node_id": "0.0-141.0-4.0", "time_elapsed": 934189, "key_press": -1, "trial_index": 190}, "uniqueid": "MTK2959:3FK0YFF9P0N026N8FSBI2H0LXMVVVX", "dateTime": 1519598799720}, {"current_trial": 191, "trialdata": {"rt": -1, "trial_type": "single-stim", "stimulus": "<p id=\"stim\">5</p>", "internal_node_id": "0.0-141.0-5.0", "time_elapsed": 935191, "key_press": -1, "trial_index": 191}, "uniqueid": "MTK2959:3FK0YFF9P0N026N8FSBI2H0LXMVVVX", "dateTime": 1519598800722}, {"current_trial": 192, "trialdata": {"rt": -1, "trial_type": "single-stim", "stimulus": "<p id=\"stim\">4</p>", "internal_node_id": "0.0-141.0-6.0", "time_elapsed": 936194, "key_press": -1, "trial_index": 192}, "uniqueid": "MTK2959:3FK0YFF9P0N026N8FSBI2H0LXMVVVX", "dateTime": 1519598801724}, {"current_trial": 193, "trialdata": {"rt": -1, "trial_type": "single-stim", "stimulus": "<p id=\"stim\">3</p>", "internal_node_id": "0.0-141.0-7.0", "time_elapsed": 937195, "key_press": -1, "trial_index": 193}, "uniqueid": "MTK2959:3FK0YFF9P0N026N8FSBI2H0LXMVVVX", "dateTime": 1519598802725}, {"current_trial": 194, "trialdata": {"rt": -1, "trial_type": "single-stim", "stimulus": "<p id=\"stim\">2</p>", "internal_node_id": "0.0-141.0-8.0", "time_elapsed": 938198, "key_press": -1, "trial_index": 194}, "uniqueid": "MTK2959:3FK0YFF9P0N026N8FSBI2H0LXMVVVX", "dateTime": 1519598803728}, {"current_trial": 195, "trialdata": {"rt": -1, "trial_type": "single-stim", "stimulus": "<p id=\"stim\">1</p>", "internal_node_id": "0.0-141.0-9.0", "time_elapsed": 939200, "key_press": -1, "trial_index": 195}, "uniqueid": "MTK2959:3FK0YFF9P0N026N8FSBI2H0LXMVVVX", "dateTime": 1519598804730}, {"current_trial": 196, "trialdata": {"rt": -1, "trial_type": "single-stim", "stimulus": "<p id=\"stim\">+</p>", "internal_node_id": "0.0-142.0-0.0", "time_elapsed": 940701, "key_press": -1, "type": "FIXATION", "trial_index": 196}, "uniqueid": "MTK2959:3FK0YFF9P0N026N8FSBI2H0LXMVVVX", "dateTime": 1519598806231}, {"current_trial": 197, "trialdata": {"rt": -1, "trial_type": "single-stim", "word": "handbag", "stimulus": "<p id=\"stim\">HANDBAG</p>", "conditions": [24, 800, "v", 12000], "internal_node_id": "0.0-143.0", "trial": 5, "time_elapsed": 941504, "serialpos": 0, "key_press": -1, "wordID": 683, "type": "PRES_VIS", "trial_index": 197}, "uniqueid": "MTK2959:3FK0YFF9P0N026N8FSBI2H0LXMVVVX", "dateTime": 1519598807034}, {"current_trial": 198, "trialdata": {"rt": -1, "trial_type": "single-stim", "word": "cottage", "stimulus": "<p id=\"stim\">COTTAGE</p>", "conditions": [24, 800, "v", 12000], "internal_node_id": "0.0-144.0", "trial": 5, "time_elapsed": 943342, "serialpos": 1, "key_press": -1, "wordID": 383, "type": "PRES_VIS", "trial_index": 198}, "uniqueid": "MTK2959:3FK0YFF9P0N026N8FSBI2H0LXMVVVX", "dateTime": 1519598808872}, {"current_trial": 199, "trialdata": {"rt": -1, "trial_type": "single-stim", "word": "award", "stimulus": "<p id=\"stim\">AWARD</p>", "conditions": [24, 800, "v", 12000], "internal_node_id": "0.0-145.0", "trial": 5, "time_elapsed": 945214, "serialpos": 2, "key_press": -1, "wordID": 62, "type": "PRES_VIS", "trial_index": 199}, "uniqueid": "MTK2959:3FK0YFF9P0N026N8FSBI2H0LXMVVVX", "dateTime": 1519598810746}, {"current_trial": 200, "trialdata": {"rt": -1, "trial_type": "single-stim", "word": "agent", "stimulus": "<p id=\"stim\">AGENT</p>", "conditions": [24, 800, "v", 12000], "internal_node_id": "0.0-146.0", "trial": 5, "time_elapsed": 947130, "serialpos": 3, "key_press": -1, "wordID": 9, "type": "PRES_VIS", "trial_index": 200}, "uniqueid": "MTK2959:3FK0YFF9P0N026N8FSBI2H0LXMVVVX", "dateTime": 1519598812660}, {"current_trial": 201, "trialdata": {"rt": -1, "trial_type": "single-stim", "word": "waiter", "stimulus": "<p id=\"stim\">WAITER</p>", "conditions": [24, 800, "v", 12000], "internal_node_id": "0.0-147.0", "trial": 5, "time_elapsed": 948981, "serialpos": 4, "key_press": -1, "wordID": 1579, "type": "PRES_VIS", "trial_index": 201}, "uniqueid": "MTK2959:3FK0YFF9P0N026N8FSBI2H0LXMVVVX", "dateTime": 1519598814512}, {"current_trial": 202, "trialdata": {"rt": -1, "trial_type": "single-stim", "word": "friend", "stimulus": "<p id=\"stim\">FRIEND</p>", "conditions": [24, 800, "v", 12000], "internal_node_id": "0.0-148.0", "trial": 5, "time_elapsed": 950857, "serialpos": 5, "key_press": -1, "wordID": 605, "type": "PRES_VIS", "trial_index": 202}, "uniqueid": "MTK2959:3FK0YFF9P0N026N8FSBI2H0LXMVVVX", "dateTime": 1519598816387}, {"current_trial": 203, "trialdata": {"rt": -1, "trial_type": "single-stim", "word": "egypt", "stimulus": "<p id=\"stim\">EGYPT</p>", "conditions": [24, 800, "v", 12000], "internal_node_id": "0.0-149.0", "trial": 5, "time_elapsed": 952579, "serialpos": 6, "key_press": -1, "wordID": 518, "type": "PRES_VIS", "trial_index": 203}, "uniqueid": "MTK2959:3FK0YFF9P0N026N8FSBI2H0LXMVVVX", "dateTime": 1519598818109}, {"current_trial": 204, "trialdata": {"rt": -1, "trial_type": "single-stim", "word": "balloon", "stimulus": "<p id=\"stim\">BALLOON</p>", "conditions": [24, 800, "v", 12000], "internal_node_id": "0.0-150.0", "trial": 5, "time_elapsed": 954425, "serialpos": 7, "key_press": -1, "wordID": 74, "type": "PRES_VIS", "trial_index": 204}, "uniqueid": "MTK2959:3FK0YFF9P0N026N8FSBI2H0LXMVVVX", "dateTime": 1519598819955}, {"current_trial": 205, "trialdata": {"rt": -1, "trial_type": "single-stim", "word": "patient", "stimulus": "<p id=\"stim\">PATIENT</p>", "conditions": [24, 800, "v", 12000], "internal_node_id": "0.0-151.0", "trial": 5, "time_elapsed": 956119, "serialpos": 8, "key_press": -1, "wordID": 1023, "type": "PRES_VIS", "trial_index": 205}, "uniqueid": "MTK2959:3FK0YFF9P0N026N8FSBI2H0LXMVVVX", "dateTime": 1519598821649}, {"current_trial": 206, "trialdata": {"rt": -1, "trial_type": "single-stim", "word": "nurse", "stimulus": "<p id=\"stim\">NURSE</p>", "conditions": [24, 800, "v", 12000], "internal_node_id": "0.0-152.0", "trial": 5, "time_elapsed": 957819, "serialpos": 9, "key_press": -1, "wordID": 962, "type": "PRES_VIS", "trial_index": 206}, "uniqueid": "MTK2959:3FK0YFF9P0N026N8FSBI2H0LXMVVVX", "dateTime": 1519598823349}, {"current_trial": 207, "trialdata": {"rt": -1, "trial_type": "single-stim", "word": "widow", "stimulus": "<p id=\"stim\">WIDOW</p>", "conditions": [24, 800, "v", 12000], "internal_node_id": "0.0-153.0", "trial": 5, "time_elapsed": 959787, "serialpos": 10, "key_press": -1, "wordID": 1607, "type": "PRES_VIS", "trial_index": 207}, "uniqueid": "MTK2959:3FK0YFF9P0N026N8FSBI2H0LXMVVVX", "dateTime": 1519598825317}, {"current_trial": 208, "trialdata": {"rt": -1, "trial_type": "single-stim", "word": "necklace", "stimulus": "<p id=\"stim\">NECKLACE</p>", "conditions": [24, 800, "v", 12000], "internal_node_id": "0.0-154.0", "trial": 5, "time_elapsed": 961732, "serialpos": 11, "key_press": -1, "wordID": 939, "type": "PRES_VIS", "trial_index": 208}, "uniqueid": "MTK2959:3FK0YFF9P0N026N8FSBI2H0LXMVVVX", "dateTime": 1519598827262}, {"current_trial": 209, "trialdata": {"rt": -1, "trial_type": "single-stim", "word": "peach", "stimulus": "<p id=\"stim\">PEACH</p>", "conditions": [24, 800, "v", 12000], "internal_node_id": "0.0-155.0", "trial": 5, "time_elapsed": 963391, "serialpos": 12, "key_press": -1, "wordID": 1030, "type": "PRES_VIS", "trial_index": 209}, "uniqueid": "MTK2959:3FK0YFF9P0N026N8FSBI2H0LXMVVVX", "dateTime": 1519598828922}, {"current_trial": 210, "trialdata": {"rt": -1, "trial_type": "single-stim", "word": "bucket", "stimulus": "<p id=\"stim\">BUCKET</p>", "conditions": [24, 800, "v", 12000], "internal_node_id": "0.0-156.0", "trial": 5, "time_elapsed": 965148, "serialpos": 13, "key_press": -1, "wordID": 183, "type": "PRES_VIS", "trial_index": 210}, "uniqueid": "MTK2959:3FK0YFF9P0N026N8FSBI2H0LXMVVVX", "dateTime": 1519598830678}, {"current_trial": 211, "trialdata": {"rt": -1, "trial_type": "single-stim", "word": "knapsack", "stimulus": "<p id=\"stim\">KNAPSACK</p>", "conditions": [24, 800, "v", 12000], "internal_node_id": "0.0-157.0", "trial": 5, "time_elapsed": 967055, "serialpos": 14, "key_press": -1, "wordID": 782, "type": "PRES_VIS", "trial_index": 211}, "uniqueid": "MTK2959:3FK0YFF9P0N026N8FSBI2H0LXMVVVX", "dateTime": 1519598832585}, {"current_trial": 212, "trialdata": {"rt": -1, "trial_type": "single-stim", "word": "crib", "stimulus": "<p id=\"stim\">CRIB</p>", "conditions": [24, 800, "v", 12000], "internal_node_id": "0.0-158.0", "trial": 5, "time_elapsed": 968967, "serialpos": 15, "key_press": -1, "wordID": 406, "type": "PRES_VIS", "trial_index": 212}, "uniqueid": "MTK2959:3FK0YFF9P0N026N8FSBI2H0LXMVVVX", "dateTime": 1519598834498}, {"current_trial": 213, "trialdata": {"rt": -1, "trial_type": "single-stim", "word": "pliers", "stimulus": "<p id=\"stim\">PLIERS</p>", "conditions": [24, 800, "v", 12000], "internal_node_id": "0.0-159.0", "trial": 5, "time_elapsed": 970659, "serialpos": 16, "key_press": -1, "wordID": 1088, "type": "PRES_VIS", "trial_index": 213}, "uniqueid": "MTK2959:3FK0YFF9P0N026N8FSBI2H0LXMVVVX", "dateTime": 1519598836189}, {"current_trial": 214, "trialdata": {"rt": -1, "trial_type": "single-stim", "word": "package", "stimulus": "<p id=\"stim\">PACKAGE</p>", "conditions": [24, 800, "v", 12000], "internal_node_id": "0.0-160.0", "trial": 5, "time_elapsed": 972269, "serialpos": 17, "key_press": -1, "wordID": 996, "type": "PRES_VIS", "trial_index": 214}, "uniqueid": "MTK2959:3FK0YFF9P0N026N8FSBI2H0LXMVVVX", "dateTime": 1519598837799}, {"current_trial": 215, "trialdata": {"rt": -1, "trial_type": "single-stim", "word": "pecan", "stimulus": "<p id=\"stim\">PECAN</p>", "conditions": [24, 800, "v", 12000], "internal_node_id": "0.0-161.0", "trial": 5, "time_elapsed": 974126, "serialpos": 18, "key_press": -1, "wordID": 1035, "type": "PRES_VIS", "trial_index": 215}, "uniqueid": "MTK2959:3FK0YFF9P0N026N8FSBI2H0LXMVVVX", "dateTime": 1519598839657}, {"current_trial": 216, "trialdata": {"rt": -1, "trial_type": "single-stim", "word": "champagne", "stimulus": "<p id=\"stim\">CHAMPAGNE</p>", "conditions": [24, 800, "v", 12000], "internal_node_id": "0.0-162.0", "trial": 5, "time_elapsed": 976111, "serialpos": 19, "key_press": -1, "wordID": 277, "type": "PRES_VIS", "trial_index": 216}, "uniqueid": "MTK2959:3FK0YFF9P0N026N8FSBI2H0LXMVVVX", "dateTime": 1519598841641}, {"current_trial": 217, "trialdata": {"rt": -1, "trial_type": "single-stim", "word": "star", "stimulus": "<p id=\"stim\">STAR</p>", "conditions": [24, 800, "v", 12000], "internal_node_id": "0.0-163.0", "trial": 5, "time_elapsed": 977738, "serialpos": 20, "key_press": -1, "wordID": 1372, "type": "PRES_VIS", "trial_index": 217}, "uniqueid": "MTK2959:3FK0YFF9P0N026N8FSBI2H0LXMVVVX", "dateTime": 1519598843268}, {"current_trial": 218, "trialdata": {"rt": -1, "trial_type": "single-stim", "word": "razor", "stimulus": "<p id=\"stim\">RAZOR</p>", "conditions": [24, 800, "v", 12000], "internal_node_id": "0.0-164.0", "trial": 5, "time_elapsed": 979454, "serialpos": 21, "key_press": -1, "wordID": 1170, "type": "PRES_VIS", "trial_index": 218}, "uniqueid": "MTK2959:3FK0YFF9P0N026N8FSBI2H0LXMVVVX", "dateTime": 1519598844985}, {"current_trial": 219, "trialdata": {"rt": -1, "trial_type": "single-stim", "word": "scalpel", "stimulus": "<p id=\"stim\">SCALPEL</p>", "conditions": [24, 800, "v", 12000], "internal_node_id": "0.0-165.0", "trial": 5, "time_elapsed": 981317, "serialpos": 22, "key_press": -1, "wordID": 1242, "type": "PRES_VIS", "trial_index": 219}, "uniqueid": "MTK2959:3FK0YFF9P0N026N8FSBI2H0LXMVVVX", "dateTime": 1519598846848}, {"current_trial": 220, "trialdata": {"rt": -1, "trial_type": "single-stim", "word": "beef", "stimulus": "<p id=\"stim\">BEEF</p>", "conditions": [24, 800, "v", 12000], "internal_node_id": "0.0-166.0", "trial": 5, "time_elapsed": 983288, "serialpos": 23, "key_press": -1, "wordID": 112, "type": "PRES_VIS", "trial_index": 220}, "uniqueid": "MTK2959:3FK0YFF9P0N026N8FSBI2H0LXMVVVX", "dateTime": 1519598848818}, {"current_trial": 221, "trialdata": {"rt": -1, "trial_type": "single-stim", "stimulus": "", "internal_node_id": "0.0-167.0-0.0", "time_elapsed": 985861, "key_press": -1, "type": "PRE_RECALL_DELAY", "trial_index": 221}, "uniqueid": "MTK2959:3FK0YFF9P0N026N8FSBI2H0LXMVVVX", "dateTime": 1519598851391}, {"current_trial": 222, "trialdata": {"rt": -1000, "trial_type": "single-audio", "stimulus": "/static/audio/400Hz.wav", "internal_node_id": "0.0-168.0", "time_elapsed": 986362, "key_press": -1, "type": "PRE_RECALL_ALERT", "trial_index": 222}, "uniqueid": "MTK2959:3FK0YFF9P0N026N8FSBI2H0LXMVVVX", "dateTime": 1519598851892}, {"current_trial": 223, "trialdata": {"rt": [3016, 4810, 6220, 7443, 9766, 12043, 17042, 22479, 25133, 32977], "recwords": ["razor", "scalpel", "beef", "waiter", "friend", "nurse", "package", "beef", "champagne", "egypt"], "key_times": [1176, 1277, 1464, 1754, 1967, 3016, 3140, 3337, 3528, 3682, 3771, 3910, 4077, 4810, 5154, 5257, 5431, 5707, 6220, 6486, 6662, 6740, 6956, 7015, 7189, 7443, 8270, 8430, 8923, 9113, 9256, 9407, 9766, 11108, 11215, 11415, 11621, 11822, 12043, 15004, 15369, 15738, 15803, 16104, 16338, 16469, 16647, 16757, 17042, 21811, 21898, 22051, 22183, 22479, 23886, 24002, 24124, 24226, 24363, 24460, 24659, 24846, 24995, 25133, 32101, 32297, 32478, 32565, 32771, 32977], "trial_type": "free-recall", "conditions": [24, 800, "v", 12000], "internal_node_id": "0.0-169.0-0.0", "key_presses": [82, 65, 90, 79, 82, 13, 83, 67, 65, 76, 80, 69, 76, 13, 66, 69, 69, 70, 13, 87, 65, 73, 84, 69, 82, 13, 70, 82, 73, 69, 78, 68, 13, 78, 85, 82, 83, 69, 13, 219, 8, 80, 65, 67, 75, 65, 71, 69, 13, 66, 69, 69, 70, 13, 67, 72, 65, 77, 80, 65, 71, 78, 69, 13, 69, 71, 89, 80, 84, 13], "trial": 5, "time_elapsed": 1046366, "type": "FREE_RECALL", "trial_index": 223}, "uniqueid": "MTK2959:3FK0YFF9P0N026N8FSBI2H0LXMVVVX", "dateTime": 1519598911903}, {"current_trial": 224, "trialdata": {"rt": 1198, "trial_type": "text", "internal_node_id": "0.0-170.0", "time_elapsed": 1049573, "key_press": 13, "type": "INSTRUCTIONS", "trial_index": 224}, "uniqueid": "MTK2959:3FK0YFF9P0N026N8FSBI2H0LXMVVVX", "dateTime": 1519598915103}, {"current_trial": 225, "trialdata": {"rt": [1450, 2489, 4091, 5641, 7020, 8420, 10125, 11715, 13105, 14749, 16292, 17743, 19308, 20771, 22414, 23719], "trial_type": "math-distractor", "key_times": [1180, 1319, 1450, 2237, 2316, 2489, 3780, 3867, 4091, 5314, 5456, 5641, 6697, 6817, 7020, 8179, 8317, 8420, 9819, 9978, 10125, 11441, 11521, 11715, 12719, 12946, 13105, 14371, 14552, 14749, 15918, 16126, 16292, 17544, 17743, 18932, 19138, 19308, 20421, 20581, 20771, 22068, 22263, 22414, 23434, 23597, 23719], "responses": ["20", "12", "12", "13", "15", "22", "11", "12", "17", "18", "17", "9", "17", "18", "16", "10"], "num2": [5, 3, 1, 8, 6, 7, 5, 3, 8, 8, 1, 3, 5, 8, 6, 2, 5], "num3": [9, 2, 5, 2, 7, 7, 4, 5, 8, 3, 8, 5, 8, 8, 2, 6, 3], "conditions": [12, 1600, "v", 24000], "internal_node_id": "0.0-171.0", "key_presses": [98, 96, 13, 97, 98, 13, 97, 98, 13, 97, 99, 13, 97, 101, 13, 98, 98, 13, 97, 97, 13, 97, 98, 13, 97, 103, 13, 97, 104, 13, 97, 103, 13, 105, 13, 97, 103, 13, 97, 104, 13, 97, 102, 13, 97, 96, 13], "trial": 6, "time_elapsed": 1075581, "type": "DISTRACTOR", "trial_index": 225, "num1": [6, 7, 6, 3, 2, 8, 2, 4, 1, 7, 8, 1, 4, 2, 8, 2, 8]}, "uniqueid": "MTK2959:3FK0YFF9P0N026N8FSBI2H0LXMVVVX", "dateTime": 1519598941111}, {"current_trial": 226, "trialdata": {"rt": -1, "trial_type": "single-stim", "stimulus": "<p id=\"stim\">10</p>", "internal_node_id": "0.0-172.0-0.0", "time_elapsed": 1078584, "key_press": -1, "trial_index": 226}, "uniqueid": "MTK2959:3FK0YFF9P0N026N8FSBI2H0LXMVVVX", "dateTime": 1519598944116}, {"current_trial": 227, "trialdata": {"rt": -1, "trial_type": "single-stim", "stimulus": "<p id=\"stim\">9</p>", "internal_node_id": "0.0-172.0-1.0", "time_elapsed": 1079588, "key_press": -1, "trial_index": 227}, "uniqueid": "MTK2959:3FK0YFF9P0N026N8FSBI2H0LXMVVVX", "dateTime": 1519598945118}, {"current_trial": 228, "trialdata": {"rt": -1, "trial_type": "single-stim", "stimulus": "<p id=\"stim\">8</p>", "internal_node_id": "0.0-172.0-2.0", "time_elapsed": 1080589, "key_press": -1, "trial_index": 228}, "uniqueid": "MTK2959:3FK0YFF9P0N026N8FSBI2H0LXMVVVX", "dateTime": 1519598946119}, {"current_trial": 229, "trialdata": {"rt": -1, "trial_type": "single-stim", "stimulus": "<p id=\"stim\">7</p>", "internal_node_id": "0.0-172.0-3.0", "time_elapsed": 1081591, "key_press": -1, "trial_index": 229}, "uniqueid": "MTK2959:3FK0YFF9P0N026N8FSBI2H0LXMVVVX", "dateTime": 1519598947121}, {"current_trial": 230, "trialdata": {"rt": -1, "trial_type": "single-stim", "stimulus": "<p id=\"stim\">6</p>", "internal_node_id": "0.0-172.0-4.0", "time_elapsed": 1082594, "key_press": -1, "trial_index": 230}, "uniqueid": "MTK2959:3FK0YFF9P0N026N8FSBI2H0LXMVVVX", "dateTime": 1519598948124}, {"current_trial": 231, "trialdata": {"rt": -1, "trial_type": "single-stim", "stimulus": "<p id=\"stim\">5</p>", "internal_node_id": "0.0-172.0-5.0", "time_elapsed": 1083596, "key_press": -1, "trial_index": 231}, "uniqueid": "MTK2959:3FK0YFF9P0N026N8FSBI2H0LXMVVVX", "dateTime": 1519598949126}, {"current_trial": 232, "trialdata": {"rt": -1, "trial_type": "single-stim", "stimulus": "<p id=\"stim\">4</p>", "internal_node_id": "0.0-172.0-6.0", "time_elapsed": 1084597, "key_press": -1, "trial_index": 232}, "uniqueid": "MTK2959:3FK0YFF9P0N026N8FSBI2H0LXMVVVX", "dateTime": 1519598950127}, {"current_trial": 233, "trialdata": {"rt": -1, "trial_type": "single-stim", "stimulus": "<p id=\"stim\">3</p>", "internal_node_id": "0.0-172.0-7.0", "time_elapsed": 1085600, "key_press": -1, "trial_index": 233}, "uniqueid": "MTK2959:3FK0YFF9P0N026N8FSBI2H0LXMVVVX", "dateTime": 1519598951130}, {"current_trial": 234, "trialdata": {"rt": -1, "trial_type": "single-stim", "stimulus": "<p id=\"stim\">2</p>", "internal_node_id": "0.0-172.0-8.0", "time_elapsed": 1086603, "key_press": -1, "trial_index": 234}, "uniqueid": "MTK2959:3FK0YFF9P0N026N8FSBI2H0LXMVVVX", "dateTime": 1519598952133}, {"current_trial": 235, "trialdata": {"rt": -1, "trial_type": "single-stim", "stimulus": "<p id=\"stim\">1</p>", "internal_node_id": "0.0-172.0-9.0", "time_elapsed": 1087604, "key_press": -1, "trial_index": 235}, "uniqueid": "MTK2959:3FK0YFF9P0N026N8FSBI2H0LXMVVVX", "dateTime": 1519598953134}, {"current_trial": 236, "trialdata": {"rt": -1, "trial_type": "single-stim", "stimulus": "<p id=\"stim\">+</p>", "internal_node_id": "0.0-173.0-0.0", "time_elapsed": 1089107, "key_press": -1, "type": "FIXATION", "trial_index": 236}, "uniqueid": "MTK2959:3FK0YFF9P0N026N8FSBI2H0LXMVVVX", "dateTime": 1519598954637}, {"current_trial": 237, "trialdata": {"rt": -1, "trial_type": "single-stim", "word": "motel", "stimulus": "<p id=\"stim\">MOTEL</p>", "conditions": [12, 1600, "v", 24000], "internal_node_id": "0.0-174.0", "trial": 6, "time_elapsed": 1090708, "serialpos": 0, "key_press": -1, "wordID": 918, "type": "PRES_VIS", "trial_index": 237}, "uniqueid": "MTK2959:3FK0YFF9P0N026N8FSBI2H0LXMVVVX", "dateTime": 1519598956239}, {"current_trial": 238, "trialdata": {"rt": -1, "trial_type": "single-stim", "word": "portrait", "stimulus": "<p id=\"stim\">PORTRAIT</p>", "conditions": [12, 1600, "v", 24000], "internal_node_id": "0.0-175.0", "trial": 6, "time_elapsed": 1093271, "serialpos": 1, "key_press": -1, "wordID": 1110, "type": "PRES_VIS", "trial_index": 238}, "uniqueid": "MTK2959:3FK0YFF9P0N026N8FSBI2H0LXMVVVX", "dateTime": 1519598958802}, {"current_trial": 239, "trialdata": {"rt": -1, "trial_type": "single-stim", "word": "picture", "stimulus": "<p id=\"stim\">PICTURE</p>", "conditions": [12, 1600, "v", 24000], "internal_node_id": "0.0-176.0", "trial": 6, "time_elapsed": 1095933, "serialpos": 2, "key_press": -1, "wordID": 1060, "type": "PRES_VIS", "trial_index": 239}, "uniqueid": "MTK2959:3FK0YFF9P0N026N8FSBI2H0LXMVVVX", "dateTime": 1519598961463}, {"current_trial": 240, "trialdata": {"rt": -1, "trial_type": "single-stim", "word": "office", "stimulus": "<p id=\"stim\">OFFICE</p>", "conditions": [12, 1600, "v", 24000], "internal_node_id": "0.0-177.0", "trial": 6, "time_elapsed": 1098445, "serialpos": 3, "key_press": -1, "wordID": 971, "type": "PRES_VIS", "trial_index": 240}, "uniqueid": "MTK2959:3FK0YFF9P0N026N8FSBI2H0LXMVVVX", "dateTime": 1519598963975}, {"current_trial": 241, "trialdata": {"rt": -1, "trial_type": "single-stim", "word": "lettuce", "stimulus": "<p id=\"stim\">LETTUCE</p>", "conditions": [12, 1600, "v", 24000], "internal_node_id": "0.0-178.0", "trial": 6, "time_elapsed": 1101113, "serialpos": 4, "key_press": -1, "wordID": 813, "type": "PRES_VIS", "trial_index": 241}, "uniqueid": "MTK2959:3FK0YFF9P0N026N8FSBI2H0LXMVVVX", "dateTime": 1519598966643}, {"current_trial": 242, "trialdata": {"rt": -1, "trial_type": "single-stim", "word": "valley", "stimulus": "<p id=\"stim\">VALLEY</p>", "conditions": [12, 1600, "v", 24000], "internal_node_id": "0.0-179.0", "trial": 6, "time_elapsed": 1103843, "serialpos": 5, "key_press": -1, "wordID": 1544, "type": "PRES_VIS", "trial_index": 242}, "uniqueid": "MTK2959:3FK0YFF9P0N026N8FSBI2H0LXMVVVX", "dateTime": 1519598969373}, {"current_trial": 243, "trialdata": {"rt": -1, "trial_type": "single-stim", "word": "onion", "stimulus": "<p id=\"stim\">ONION</p>", "conditions": [12, 1600, "v", 24000], "internal_node_id": "0.0-180.0", "trial": 6, "time_elapsed": 1106348, "serialpos": 6, "key_press": -1, "wordID": 976, "type": "PRES_VIS", "trial_index": 243}, "uniqueid": "MTK2959:3FK0YFF9P0N026N8FSBI2H0LXMVVVX", "dateTime": 1519598971878}, {"current_trial": 244, "trialdata": {"rt": -1, "trial_type": "single-stim", "word": "badge", "stimulus": "<p id=\"stim\">BADGE</p>", "conditions": [12, 1600, "v", 24000], "internal_node_id": "0.0-181.0", "trial": 6, "time_elapsed": 1108883, "serialpos": 7, "key_press": -1, "wordID": 67, "type": "PRES_VIS", "trial_index": 244}, "uniqueid": "MTK2959:3FK0YFF9P0N026N8FSBI2H0LXMVVVX", "dateTime": 1519598974413}, {"current_trial": 245, "trialdata": {"rt": -1, "trial_type": "single-stim", "word": "shelter", "stimulus": "<p id=\"stim\">SHELTER</p>", "conditions": [12, 1600, "v", 24000], "internal_node_id": "0.0-182.0", "trial": 6, "time_elapsed": 1111468, "serialpos": 8, "key_press": -1, "wordID": 1281, "type": "PRES_VIS", "trial_index": 245}, "uniqueid": "MTK2959:3FK0YFF9P0N026N8FSBI2H0LXMVVVX", "dateTime": 1519598976998}, {"current_trial": 246, "trialdata": {"rt": -1, "trial_type": "single-stim", "word": "fruit", "stimulus": "<p id=\"stim\">FRUIT</p>", "conditions": [12, 1600, "v", 24000], "internal_node_id": "0.0-183.0", "trial": 6, "time_elapsed": 1114039, "serialpos": 9, "key_press": -1, "wordID": 609, "type": "PRES_VIS", "trial_index": 246}, "uniqueid": "MTK2959:3FK0YFF9P0N026N8FSBI2H0LXMVVVX", "dateTime": 1519598979569}, {"current_trial": 247, "trialdata": {"rt": -1, "trial_type": "single-stim", "word": "princess", "stimulus": "<p id=\"stim\">PRINCESS</p>", "conditions": [12, 1600, "v", 24000], "internal_node_id": "0.0-184.0", "trial": 6, "time_elapsed": 1116604, "serialpos": 10, "key_press": -1, "wordID": 1124, "type": "PRES_VIS", "trial_index": 247}, "uniqueid": "MTK2959:3FK0YFF9P0N026N8FSBI2H0LXMVVVX", "dateTime": 1519598982135}, {"current_trial": 248, "trialdata": {"rt": -1, "trial_type": "single-stim", "word": "slime", "stimulus": "<p id=\"stim\">SLIME</p>", "conditions": [12, 1600, "v", 24000], "internal_node_id": "0.0-185.0",