{"assignmentId": "3ATTHHXXWBVNKP83G0DHBD7C5W6IXR", "workerId": "MTK2998", "questiondata": {"avail_screen_height": 797, "color_depth": 24, "screen_width": 1440, "pixel_depth": 24, "avail_screen_width": 1440, "screen_height": 900}, "bonus": 0, "hitId": "3HO4MYYR12VDNHLDJSO35JMJHB7U6A", "counterbalance": 1977, "useragent": "Mozilla/5.0 (Macintosh; Intel Mac OS X 10_13_3) AppleWebKit/537.36 (KHTML, like Gecko) Chrome/66.0.3355.0 Safari/537.36", "eventdata": [{"eventtype": "initialized", "interval": 0, "value": null, "timestamp": 1519661468781}, {"eventtype": "window_resize", "interval": 1, "value": [1440, 746], "timestamp": 1519661468782}, {"eventtype": "focus", "interval": 2403702, "value": "off", "timestamp": 1519663872484}, {"eventtype": "focus", "interval": 6848, "value": "on", "timestamp": 1519663879332}], "data": [{"current_trial": 0, "trialdata": {"rt": 1380, "trial_type": "text", "internal_node_id": "0.0-0.0", "time_elapsed": 1383, "key_press": 32, "type": "INSTRUCTIONS", "trial_index": 0}, "uniqueid": "MTK2998:3ATTHHXXWBVNKP83G0DHBD7C5W6IXR", "dateTime": 1519661471039}, {"current_trial": 1, "trialdata": {"rt": 15376, "trial_type": "text", "internal_node_id": "0.0-1.0", "time_elapsed": 16763, "key_press": 32, "type": "INSTRUCTIONS", "trial_index": 1}, "uniqueid": "MTK2998:3ATTHHXXWBVNKP83G0DHBD7C5W6IXR", "dateTime": 1519661486417}, {"current_trial": 2, "trialdata": {"rt": [9056], "trial_type": "audio-test", "responses": ["ocean"], "internal_node_id": "0.0-2.0", "time_elapsed": 25847, "type": "AUDIO_TEST", "trial_index": 2}, "uniqueid": "MTK2998:3ATTHHXXWBVNKP83G0DHBD7C5W6IXR", "dateTime": 1519661495501}, {"current_trial": 3, "trialdata": {"rt": [6111], "trial_type": "audio-test", "responses": ["crystal"], "internal_node_id": "0.0-3.0", "time_elapsed": 31963, "type": "AUDIO_TEST", "trial_index": 3}, "uniqueid": "MTK2998:3ATTHHXXWBVNKP83G0DHBD7C5W6IXR", "dateTime": 1519661501617}, {"current_trial": 4, "trialdata": {"rt": [4663], "trial_type": "audio-test", "responses": ["spice"], "internal_node_id": "0.0-4.0", "time_elapsed": 36632, "type": "AUDIO_TEST", "trial_index": 4}, "uniqueid": "MTK2998:3ATTHHXXWBVNKP83G0DHBD7C5W6IXR", "dateTime": 1519661506287}, {"current_trial": 5, "trialdata": {"rt": 20709, "trial_type": "survey-text", "responses": "{\"Q0\":\"8:00pm\",\"Q1\":\"5:30am\",\"Q2\":\"5\"}", "internal_node_id": "0.0-5.0", "time_elapsed": 58095, "type": "SLEEP_SURVEY", "trial_index": 5}, "uniqueid": "MTK2998:3ATTHHXXWBVNKP83G0DHBD7C5W6IXR", "dateTime": 1519661527749}, {"current_trial": 6, "trialdata": {"rt": 22780, "trial_type": "text", "internal_node_id": "0.0-6.0", "time_elapsed": 81878, "key_press": 13, "type": "INSTRUCTIONS", "trial_index": 6}, "uniqueid": "MTK2998:3ATTHHXXWBVNKP83G0DHBD7C5W6IXR", "dateTime": 1519661551532}, {"current_trial": 7, "trialdata": {"rt": 14356, "trial_type": "text", "internal_node_id": "0.0-7.0", "time_elapsed": 96736, "key_press": 13, "type": "INSTRUCTIONS", "trial_index": 7}, "uniqueid": "MTK2998:3ATTHHXXWBVNKP83G0DHBD7C5W6IXR", "dateTime": 1519661566390}, {"current_trial": 8, "trialdata": {"rt": 3173, "trial_type": "text", "internal_node_id": "0.0-8.0", "time_elapsed": 100414, "key_press": 13, "type": "INSTRUCTIONS", "trial_index": 8}, "uniqueid": "MTK2998:3ATTHHXXWBVNKP83G0DHBD7C5W6IXR", "dateTime": 1519661570068}, {"current_trial": 9, "trialdata": {"rt": [4129, 6794, 9386, 11709, 13909, 16964], "trial_type": "math-distractor", "key_times": [3566, 4129, 6429, 6663, 6794, 9198, 9269, 9386, 11412, 11584, 11709, 13713, 13813, 13909, 16700, 16798, 16964], "responses": ["6", "17", "21", "13", "13", "15"], "num2": [1, 5, 6, 3, 7, 8, 3], "num3": [3, 7, 9, 8, 3, 5, 1], "conditions": [18, 1200, "v", 18000], "internal_node_id": "0.0-9.0", "key_presses": [54, 13, 49, 55, 13, 50, 49, 13, 49, 51, 13, 49, 51, 13, 49, 53, 13], "trial": 0, "time_elapsed": 119425, "type": "DISTRACTOR", "trial_index": 9, "num1": [2, 5, 6, 2, 3, 3, 6]}, "uniqueid": "MTK2998:3ATTHHXXWBVNKP83G0DHBD7C5W6IXR", "dateTime": 1519661589079}, {"current_trial": 10, "trialdata": {"rt": -1, "trial_type": "single-stim", "stimulus": "<p id=\"stim\">10</p>", "internal_node_id": "0.0-10.0-0.0", "time_elapsed": 122434, "key_press": -1, "trial_index": 10}, "uniqueid": "MTK2998:3ATTHHXXWBVNKP83G0DHBD7C5W6IXR", "dateTime": 1519661592088}, {"current_trial": 11, "trialdata": {"rt": -1, "trial_type": "single-stim", "stimulus": "<p id=\"stim\">9</p>", "internal_node_id": "0.0-10.0-1.0", "time_elapsed": 123440, "key_press": -1, "trial_index": 11}, "uniqueid": "MTK2998:3ATTHHXXWBVNKP83G0DHBD7C5W6IXR", "dateTime": 1519661593094}, {"current_trial": 12, "trialdata": {"rt": -1, "trial_type": "single-stim", "stimulus": "<p id=\"stim\">8</p>", "internal_node_id": "0.0-10.0-2.0", "time_elapsed": 124444, "key_press": -1, "trial_index": 12}, "uniqueid": "MTK2998:3ATTHHXXWBVNKP83G0DHBD7C5W6IXR", "dateTime": 1519661594098}, {"current_trial": 13, "trialdata": {"rt": -1, "trial_type": "single-stim", "stimulus": "<p id=\"stim\">7</p>", "internal_node_id": "0.0-10.0-3.0", "time_elapsed": 125448, "key_press": -1, "trial_index": 13}, "uniqueid": "MTK2998:3ATTHHXXWBVNKP83G0DHBD7C5W6IXR", "dateTime": 1519661595102}, {"current_trial": 14, "trialdata": {"rt": -1, "trial_type": "single-stim", "stimulus": "<p id=\"stim\">6</p>", "internal_node_id": "0.0-10.0-4.0", "time_elapsed": 126450, "key_press": -1, "trial_index": 14}, "uniqueid": "MTK2998:3ATTHHXXWBVNKP83G0DHBD7C5W6IXR", "dateTime": 1519661596105}, {"current_trial": 15, "trialdata": {"rt": -1, "trial_type": "single-stim", "stimulus": "<p id=\"stim\">5</p>", "internal_node_id": "0.0-10.0-5.0", "time_elapsed": 127455, "key_press": -1, "trial_index": 15}, "uniqueid": "MTK2998:3ATTHHXXWBVNKP83G0DHBD7C5W6IXR", "dateTime": 1519661597109}, {"current_trial": 16, "trialdata": {"rt": -1, "trial_type": "single-stim", "stimulus": "<p id=\"stim\">4</p>", "internal_node_id": "0.0-10.0-6.0", "time_elapsed": 128461, "key_press": -1, "trial_index": 16}, "uniqueid": "MTK2998:3ATTHHXXWBVNKP83G0DHBD7C5W6IXR", "dateTime": 1519661598116}, {"current_trial": 17, "trialdata": {"rt": -1, "trial_type": "single-stim", "stimulus": "<p id=\"stim\">3</p>", "internal_node_id": "0.0-10.0-7.0", "time_elapsed": 129467, "key_press": -1, "trial_index": 17}, "uniqueid": "MTK2998:3ATTHHXXWBVNKP83G0DHBD7C5W6IXR", "dateTime": 1519661599121}, {"current_trial": 18, "trialdata": {"rt": -1, "trial_type": "single-stim", "stimulus": "<p id=\"stim\">2</p>", "internal_node_id": "0.0-10.0-8.0", "time_elapsed": 130474, "key_press": -1, "trial_index": 18}, "uniqueid": "MTK2998:3ATTHHXXWBVNKP83G0DHBD7C5W6IXR", "dateTime": 1519661600128}, {"current_trial": 19, "trialdata": {"rt": -1, "trial_type": "single-stim", "stimulus": "<p id=\"stim\">1</p>", "internal_node_id": "0.0-10.0-9.0", "time_elapsed": 131479, "key_press": -1, "trial_index": 19}, "uniqueid": "MTK2998:3ATTHHXXWBVNKP83G0DHBD7C5W6IXR", "dateTime": 1519661601133}, {"current_trial": 20, "trialdata": {"rt": -1, "trial_type": "single-stim", "stimulus": "<p id=\"stim\">+</p>", "internal_node_id": "0.0-11.0-0.0", "time_elapsed": 132982, "key_press": -1, "type": "FIXATION", "trial_index": 20}, "uniqueid": "MTK2998:3ATTHHXXWBVNKP83G0DHBD7C5W6IXR", "dateTime": 1519661602637}, {"current_trial": 21, "trialdata": {"rt": -1, "trial_type": "single-stim", "word": "turtle", "stimulus": "<p id=\"stim\">TURTLE</p>", "conditions": [18, 1200, "v", 18000], "internal_node_id": "0.0-12.0", "trial": 0, "time_elapsed": 134189, "serialpos": 0, "key_press": -1, "wordID": 1521, "type": "PRES_VIS", "trial_index": 21}, "uniqueid": "MTK2998:3ATTHHXXWBVNKP83G0DHBD7C5W6IXR", "dateTime": 1519661603843}, {"current_trial": 22, "trialdata": {"rt": -1, "trial_type": "single-stim", "word": "trench", "stimulus": "<p id=\"stim\">TRENCH</p>", "conditions": [18, 1200, "v", 18000], "internal_node_id": "0.0-13.0", "trial": 0, "time_elapsed": 136535, "serialpos": 1, "key_press": -1, "wordID": 1502, "type": "PRES_VIS", "trial_index": 22}, "uniqueid": "MTK2998:3ATTHHXXWBVNKP83G0DHBD7C5W6IXR", "dateTime": 1519661606189}, {"current_trial": 23, "trialdata": {"rt": -1, "trial_type": "single-stim", "word": "pistol", "stimulus": "<p id=\"stim\">PISTOL</p>", "conditions": [18, 1200, "v", 18000], "internal_node_id": "0.0-14.0", "trial": 0, "time_elapsed": 138933, "serialpos": 2, "key_press": -1, "wordID": 1074, "type": "PRES_VIS", "trial_index": 23}, "uniqueid": "MTK2998:3ATTHHXXWBVNKP83G0DHBD7C5W6IXR", "dateTime": 1519661608588}, {"current_trial": 24, "trialdata": {"rt": -1, "trial_type": "single-stim", "word": "cloud", "stimulus": "<p id=\"stim\">CLOUD</p>", "conditions": [18, 1200, "v", 18000], "internal_node_id": "0.0-15.0", "trial": 0, "time_elapsed": 140944, "serialpos": 3, "key_press": -1, "wordID": 327, "type": "PRES_VIS", "trial_index": 24}, "uniqueid": "MTK2998:3ATTHHXXWBVNKP83G0DHBD7C5W6IXR", "dateTime": 1519661610598}, {"current_trial": 25, "trialdata": {"rt": -1, "trial_type": "single-stim", "word": "pimple", "stimulus": "<p id=\"stim\">PIMPLE</p>", "conditions": [18, 1200, "v", 18000], "internal_node_id": "0.0-16.0", "trial": 0, "time_elapsed": 143237, "serialpos": 4, "key_press": -1, "wordID": 1070, "type": "PRES_VIS", "trial_index": 25}, "uniqueid": "MTK2998:3ATTHHXXWBVNKP83G0DHBD7C5W6IXR", "dateTime": 1519661612892}, {"current_trial": 26, "trialdata": {"rt": -1, "trial_type": "single-stim", "word": "kidney", "stimulus": "<p id=\"stim\">KIDNEY</p>", "conditions": [18, 1200, "v", 18000], "internal_node_id": "0.0-17.0", "trial": 0, "time_elapsed": 145397, "serialpos": 5, "key_press": -1, "wordID": 775, "type": "PRES_VIS", "trial_index": 26}, "uniqueid": "MTK2998:3ATTHHXXWBVNKP83G0DHBD7C5W6IXR", "dateTime": 1519661615051}, {"current_trial": 27, "trialdata": {"rt": -1, "trial_type": "single-stim", "word": "freckle", "stimulus": "<p id=\"stim\">FRECKLE</p>", "conditions": [18, 1200, "v", 18000], "internal_node_id": "0.0-18.0", "trial": 0, "time_elapsed": 147716, "serialpos": 6, "key_press": -1, "wordID": 601, "type": "PRES_VIS", "trial_index": 27}, "uniqueid": "MTK2998:3ATTHHXXWBVNKP83G0DHBD7C5W6IXR", "dateTime": 1519661617370}, {"current_trial": 28, "trialdata": {"rt": -1, "trial_type": "single-stim", "word": "breast", "stimulus": "<p id=\"stim\">BREAST</p>", "conditions": [18, 1200, "v", 18000], "internal_node_id": "0.0-19.0", "trial": 0, "time_elapsed": 149889, "serialpos": 7, "key_press": -1, "wordID": 170, "type": "PRES_VIS", "trial_index": 28}, "uniqueid": "MTK2998:3ATTHHXXWBVNKP83G0DHBD7C5W6IXR", "dateTime": 1519661619543}, {"current_trial": 29, "trialdata": {"rt": -1, "trial_type": "single-stim", "word": "lightning", "stimulus": "<p id=\"stim\">LIGHTNING</p>", "conditions": [18, 1200, "v", 18000], "internal_node_id": "0.0-20.0", "trial": 0, "time_elapsed": 151922, "serialpos": 8, "key_press": -1, "wordID": 819, "type": "PRES_VIS", "trial_index": 29}, "uniqueid": "MTK2998:3ATTHHXXWBVNKP83G0DHBD7C5W6IXR", "dateTime": 1519661621576}, {"current_trial": 30, "trialdata": {"rt": -1, "trial_type": "single-stim", "word": "glove", "stimulus": "<p id=\"stim\">GLOVE</p>", "conditions": [18, 1200, "v", 18000], "internal_node_id": "0.0-21.0", "trial": 0, "time_elapsed": 153983, "serialpos": 9, "key_press": -1, "wordID": 641, "type": "PRES_VIS", "trial_index": 30}, "uniqueid": "MTK2998:3ATTHHXXWBVNKP83G0DHBD7C5W6IXR", "dateTime": 1519661623637}, {"current_trial": 31, "trialdata": {"rt": -1, "trial_type": "single-stim", "word": "sunset", "stimulus": "<p id=\"stim\">SUNSET</p>", "conditions": [18, 1200, "v", 18000], "internal_node_id": "0.0-22.0", "trial": 0, "time_elapsed": 156158, "serialpos": 10, "key_press": -1, "wordID": 1407, "type": "PRES_VIS", "trial_index": 31}, "uniqueid": "MTK2998:3ATTHHXXWBVNKP83G0DHBD7C5W6IXR", "dateTime": 1519661625812}, {"current_trial": 32, "trialdata": {"rt": -1, "trial_type": "single-stim", "word": "beaker", "stimulus": "<p id=\"stim\">BEAKER</p>", "conditions": [18, 1200, "v", 18000], "internal_node_id": "0.0-23.0", "trial": 0, "time_elapsed": 158489, "serialpos": 11, "key_press": -1, "wordID": 103, "type": "PRES_VIS", "trial_index": 32}, "uniqueid": "MTK2998:3ATTHHXXWBVNKP83G0DHBD7C5W6IXR", "dateTime": 1519661628144}, {"current_trial": 33, "trialdata": {"rt": -1, "trial_type": "single-stim", "word": "sword", "stimulus": "<p id=\"stim\">SWORD</p>", "conditions": [18, 1200, "v", 18000], "internal_node_id": "0.0-24.0", "trial": 0, "time_elapsed": 160883, "serialpos": 12, "key_press": -1, "wordID": 1422, "type": "PRES_VIS", "trial_index": 33}, "uniqueid": "MTK2998:3ATTHHXXWBVNKP83G0DHBD7C5W6IXR", "dateTime": 1519661630537}, {"current_trial": 34, "trialdata": {"rt": -1, "trial_type": "single-stim", "word": "velvet", "stimulus": "<p id=\"stim\">VELVET</p>", "conditions": [18, 1200, "v", 18000], "internal_node_id": "0.0-25.0", "trial": 0, "time_elapsed": 163134, "serialpos": 13, "key_press": -1, "wordID": 1554, "type": "PRES_VIS", "trial_index": 34}, "uniqueid": "MTK2998:3ATTHHXXWBVNKP83G0DHBD7C5W6IXR", "dateTime": 1519661632788}, {"current_trial": 35, "trialdata": {"rt": -1, "trial_type": "single-stim", "word": "motel", "stimulus": "<p id=\"stim\">MOTEL</p>", "conditions": [18, 1200, "v", 18000], "internal_node_id": "0.0-26.0", "trial": 0, "time_elapsed": 165535, "serialpos": 14, "key_press": -1, "wordID": 918, "type": "PRES_VIS", "trial_index": 35}, "uniqueid": "MTK2998:3ATTHHXXWBVNKP83G0DHBD7C5W6IXR", "dateTime": 1519661635189}, {"current_trial": 36, "trialdata": {"rt": -1, "trial_type": "single-stim", "word": "market", "stimulus": "<p id=\"stim\">MARKET</p>", "conditions": [18, 1200, "v", 18000], "internal_node_id": "0.0-27.0", "trial": 0, "time_elapsed": 167599, "serialpos": 15, "key_press": -1, "wordID": 870, "type": "PRES_VIS", "trial_index": 36}, "uniqueid": "MTK2998:3ATTHHXXWBVNKP83G0DHBD7C5W6IXR", "dateTime": 1519661637253}, {"current_trial": 37, "trialdata": {"rt": -1, "trial_type": "single-stim", "word": "compass", "stimulus": "<p id=\"stim\">COMPASS</p>", "conditions": [18, 1200, "v", 18000], "internal_node_id": "0.0-28.0", "trial": 0, "time_elapsed": 169849, "serialpos": 16, "key_press": -1, "wordID": 357, "type": "PRES_VIS", "trial_index": 37}, "uniqueid": "MTK2998:3ATTHHXXWBVNKP83G0DHBD7C5W6IXR", "dateTime": 1519661639503}, {"current_trial": 38, "trialdata": {"rt": -1, "trial_type": "single-stim", "word": "dresser", "stimulus": "<p id=\"stim\">DRESSER</p>", "conditions": [18, 1200, "v", 18000], "internal_node_id": "0.0-29.0", "trial": 0, "time_elapsed": 171909, "serialpos": 17, "key_press": -1, "wordID": 495, "type": "PRES_VIS", "trial_index": 38}, "uniqueid": "MTK2998:3ATTHHXXWBVNKP83G0DHBD7C5W6IXR", "dateTime": 1519661641564}, {"current_trial": 39, "trialdata": {"rt": -1, "trial_type": "single-stim", "stimulus": "", "internal_node_id": "0.0-30.0-0.0", "time_elapsed": 174039, "key_press": -1, "type": "PRE_RECALL_DELAY", "trial_index": 39}, "uniqueid": "MTK2998:3ATTHHXXWBVNKP83G0DHBD7C5W6IXR", "dateTime": 1519661643694}, {"current_trial": 40, "trialdata": {"rt": -1000, "trial_type": "single-audio", "stimulus": "/static/audio/400Hz.wav", "internal_node_id": "0.0-31.0", "time_elapsed": 174555, "key_press": -1, "type": "PRE_RECALL_ALERT", "trial_index": 40}, "uniqueid": "MTK2998:3ATTHHXXWBVNKP83G0DHBD7C5W6IXR", "dateTime": 1519661644209}, {"current_trial": 41, "trialdata": {"rt": [3662, 5598, 6978, 8791, 10449, 13337, 15846, 28624, 40624, 59966], "recwords": ["turtle", "trench", "dresser", "pimple", "cloud", "lightening", "beaker", "glove", "glove", ""], "key_times": [1056, 1185, 1289, 1917, 2018, 2369, 2794, 2922, 3380, 3505, 3662, 4243, 4405, 4587, 5048, 5277, 5341, 5598, 5929, 6128, 6196, 6324, 6458, 6586, 6658, 6978, 7403, 7540, 7746, 8136, 8196, 8311, 8791, 9230, 9517, 9715, 9808, 10328, 10449, 10805, 10897, 11043, 11123, 11263, 11418, 12463, 12587, 12671, 12751, 13337, 14156, 14379, 14569, 14968, 15019, 15096, 15846, 27783, 27891, 28067, 28214, 28318, 28624, 39814, 39915, 40061, 40165, 40285, 40624, 59966], "trial_type": "free-recall", "conditions": [18, 1200, "v", 18000], "internal_node_id": "0.0-32.0-0.0", "key_presses": [84, 85, 82, 84, 69, 76, 8, 8, 76, 69, 13, 84, 82, 69, 78, 67, 72, 13, 68, 82, 69, 83, 83, 69, 82, 13, 80, 73, 77, 80, 76, 69, 13, 67, 76, 79, 85, 68, 13, 76, 73, 71, 72, 84, 69, 78, 73, 78, 71, 13, 66, 69, 65, 75, 69, 82, 13, 71, 76, 79, 86, 69, 13, 71, 76, 79, 86, 69, 13, 13], "trial": 0, "time_elapsed": 234571, "type": "FREE_RECALL", "trial_index": 41}, "uniqueid": "MTK2998:3ATTHHXXWBVNKP83G0DHBD7C5W6IXR", "dateTime": 1519661704227}, {"current_trial": 42, "trialdata": {"rt": 1710, "trial_type": "text", "internal_node_id": "0.0-33.0", "time_elapsed": 238289, "key_press": 13, "type": "INSTRUCTIONS", "trial_index": 42}, "uniqueid": "MTK2998:3ATTHHXXWBVNKP83G0DHBD7C5W6IXR", "dateTime": 1519661707944}, {"current_trial": 43, "trialdata": {"rt": [3485, 6693, 9390, 12824, 15222, 17769], "trial_type": "math-distractor", "key_times": [3217, 3300, 3485, 6530, 6595, 6693, 9101, 9156, 9390, 12265, 12365, 12824, 14984, 15134, 15222, 17346, 17493, 17769], "responses": ["16", "13", "20", "20", "11", "12"], "num2": [9, 3, 3, 5, 3, 6, 2], "num3": [1, 4, 8, 9, 1, 4, 4], "conditions": [18, 1200, "v", 18000], "internal_node_id": "0.0-34.0", "key_presses": [49, 54, 13, 49, 51, 13, 50, 48, 13, 50, 48, 13, 49, 49, 13, 49, 50, 13], "trial": 1, "time_elapsed": 258301, "type": "DISTRACTOR", "trial_index": 43, "num1": [6, 6, 9, 6, 7, 2, 8]}, "uniqueid": "MTK2998:3ATTHHXXWBVNKP83G0DHBD7C5W6IXR", "dateTime": 1519661727955}, {"current_trial": 44, "trialdata": {"rt": -1, "trial_type": "single-stim", "stimulus": "<p id=\"stim\">10</p>", "internal_node_id": "0.0-35.0-0.0", "time_elapsed": 261304, "key_press": -1, "trial_index": 44}, "uniqueid": "MTK2998:3ATTHHXXWBVNKP83G0DHBD7C5W6IXR", "dateTime": 1519661730958}, {"current_trial": 45, "trialdata": {"rt": -1, "trial_type": "single-stim", "stimulus": "<p id=\"stim\">9</p>", "internal_node_id": "0.0-35.0-1.0", "time_elapsed": 262309, "key_press": -1, "trial_index": 45}, "uniqueid": "MTK2998:3ATTHHXXWBVNKP83G0DHBD7C5W6IXR", "dateTime": 1519661731963}, {"current_trial": 46, "trialdata": {"rt": -1, "trial_type": "single-stim", "stimulus": "<p id=\"stim\">8</p>", "internal_node_id": "0.0-35.0-2.0", "time_elapsed": 263313, "key_press": -1, "trial_index": 46}, "uniqueid": "MTK2998:3ATTHHXXWBVNKP83G0DHBD7C5W6IXR", "dateTime": 1519661732967}, {"current_trial": 47, "trialdata": {"rt": -1, "trial_type": "single-stim", "stimulus": "<p id=\"stim\">7</p>", "internal_node_id": "0.0-35.0-3.0", "time_elapsed": 264318, "key_press": -1, "trial_index": 47}, "uniqueid": "MTK2998:3ATTHHXXWBVNKP83G0DHBD7C5W6IXR", "dateTime": 1519661733973}, {"current_trial": 48, "trialdata": {"rt": -1, "trial_type": "single-stim", "stimulus": "<p id=\"stim\">6</p>", "internal_node_id": "0.0-35.0-4.0", "time_elapsed": 265320, "key_press": -1, "trial_index": 48}, "uniqueid": "MTK2998:3ATTHHXXWBVNKP83G0DHBD7C5W6IXR", "dateTime": 1519661734974}, {"current_trial": 49, "trialdata": {"rt": -1, "trial_type": "single-stim", "stimulus": "<p id=\"stim\">5</p>", "internal_node_id": "0.0-35.0-5.0", "time_elapsed": 266325, "key_press": -1, "trial_index": 49}, "uniqueid": "MTK2998:3ATTHHXXWBVNKP83G0DHBD7C5W6IXR", "dateTime": 1519661735980}, {"current_trial": 50, "trialdata": {"rt": -1, "trial_type": "single-stim", "stimulus": "<p id=\"stim\">4</p>", "internal_node_id": "0.0-35.0-6.0", "time_elapsed": 267331, "key_press": -1, "trial_index": 50}, "uniqueid": "MTK2998:3ATTHHXXWBVNKP83G0DHBD7C5W6IXR", "dateTime": 1519661736985}, {"current_trial": 51, "trialdata": {"rt": -1, "trial_type": "single-stim", "stimulus": "<p id=\"stim\">3</p>", "internal_node_id": "0.0-35.0-7.0", "time_elapsed": 268336, "key_press": -1, "trial_index": 51}, "uniqueid": "MTK2998:3ATTHHXXWBVNKP83G0DHBD7C5W6IXR", "dateTime": 1519661737990}, {"current_trial": 52, "trialdata": {"rt": -1, "trial_type": "single-stim", "stimulus": "<p id=\"stim\">2</p>", "internal_node_id": "0.0-35.0-8.0", "time_elapsed": 269341, "key_press": -1, "trial_index": 52}, "uniqueid": "MTK2998:3ATTHHXXWBVNKP83G0DHBD7C5W6IXR", "dateTime": 1519661738995}, {"current_trial": 53, "trialdata": {"rt": -1, "trial_type": "single-stim", "stimulus": "<p id=\"stim\">1</p>", "internal_node_id": "0.0-35.0-9.0", "time_elapsed": 270347, "key_press": -1, "trial_index": 53}, "uniqueid": "MTK2998:3ATTHHXXWBVNKP83G0DHBD7C5W6IXR", "dateTime": 1519661740001}, {"current_trial": 54, "trialdata": {"rt": -1, "trial_type": "single-stim", "stimulus": "<p id=\"stim\">+</p>", "internal_node_id": "0.0-36.0-0.0", "time_elapsed": 271850, "key_press": -1, "type": "FIXATION", "trial_index": 54}, "uniqueid": "MTK2998:3ATTHHXXWBVNKP83G0DHBD7C5W6IXR", "dateTime": 1519661741505}, {"current_trial": 55, "trialdata": {"rt": -1, "trial_type": "single-stim", "word": "lipstick", "stimulus": "<p id=\"stim\">LIPSTICK</p>", "conditions": [18, 1200, "v", 18000], "internal_node_id": "0.0-37.0", "trial": 1, "time_elapsed": 273052, "serialpos": 0, "key_press": -1, "wordID": 828, "type": "PRES_VIS", "trial_index": 55}, "uniqueid": "MTK2998:3ATTHHXXWBVNKP83G0DHBD7C5W6IXR", "dateTime": 1519661742706}, {"current_trial": 56, "trialdata": {"rt": -1, "trial_type": "single-stim", "word": "pebble", "stimulus": "<p id=\"stim\">PEBBLE</p>", "conditions": [18, 1200, "v", 18000], "internal_node_id": "0.0-38.0", "trial": 1, "time_elapsed": 275304, "serialpos": 1, "key_press": -1, "wordID": 1034, "type": "PRES_VIS", "trial_index": 56}, "uniqueid": "MTK2998:3ATTHHXXWBVNKP83G0DHBD7C5W6IXR", "dateTime": 1519661744958}, {"current_trial": 57, "trialdata": {"rt": -1, "trial_type": "single-stim", "word": "europe", "stimulus": "<p id=\"stim\">EUROPE</p>", "conditions": [18, 1200, "v", 18000], "internal_node_id": "0.0-39.0", "trial": 1, "time_elapsed": 277527, "serialpos": 2, "key_press": -1, "wordID": 540, "type": "PRES_VIS", "trial_index": 57}, "uniqueid": "MTK2998:3ATTHHXXWBVNKP83G0DHBD7C5W6IXR", "dateTime": 1519661747181}, {"current_trial": 58, "trialdata": {"rt": -1, "trial_type": "single-stim", "word": "stallion", "stimulus": "<p id=\"stim\">STALLION</p>", "conditions": [18, 1200, "v", 18000], "internal_node_id": "0.0-40.0", "trial": 1, "time_elapsed": 279887, "serialpos": 3, "key_press": -1, "wordID": 1368, "type": "PRES_VIS", "trial_index": 58}, "uniqueid": "MTK2998:3ATTHHXXWBVNKP83G0DHBD7C5W6IXR", "dateTime": 1519661749541}, {"current_trial": 59, "trialdata": {"rt": -1, "trial_type": "single-stim", "word": "picnic", "stimulus": "<p id=\"stim\">PICNIC</p>", "conditions": [18, 1200, "v", 18000], "internal_node_id": "0.0-41.0", "trial": 1, "time_elapsed": 281939, "serialpos": 4, "key_press": -1, "wordID": 1059, "type": "PRES_VIS", "trial_index": 59}, "uniqueid": "MTK2998:3ATTHHXXWBVNKP83G0DHBD7C5W6IXR", "dateTime": 1519661751593}, {"current_trial": 60, "trialdata": {"rt": -1, "trial_type": "single-stim", "word": "backbone", "stimulus": "<p id=\"stim\">BACKBONE</p>", "conditions": [18, 1200, "v", 18000], "internal_node_id": "0.0-42.0", "trial": 1, "time_elapsed": 284137, "serialpos": 5, "key_press": -1, "wordID": 65, "type": "PRES_VIS", "trial_index": 60}, "uniqueid": "MTK2998:3ATTHHXXWBVNKP83G0DHBD7C5W6IXR", "dateTime": 1519661753791}, {"current_trial": 61, "trialdata": {"rt": -1, "trial_type": "single-stim", "word": "woman", "stimulus": "<p id=\"stim\">WOMAN</p>", "conditions": [18, 1200, "v", 18000], "internal_node_id": "0.0-43.0", "trial": 1, "time_elapsed": 286355, "serialpos": 6, "key_press": -1, "wordID": 1619, "type": "PRES_VIS", "trial_index": 61}, "uniqueid": "MTK2998:3ATTHHXXWBVNKP83G0DHBD7C5W6IXR", "dateTime": 1519661756009}, {"current_trial": 62, "trialdata": {"rt": -1, "trial_type": "single-stim", "word": "padding", "stimulus": "<p id=\"stim\">PADDING</p>", "conditions": [18, 1200, "v", 18000], "internal_node_id": "0.0-44.0", "trial": 1, "time_elapsed": 288427, "serialpos": 7, "key_press": -1, "wordID": 998, "type": "PRES_VIS", "trial_index": 62}, "uniqueid": "MTK2998:3ATTHHXXWBVNKP83G0DHBD7C5W6IXR", "dateTime": 1519661758081}, {"current_trial": 63, "trialdata": {"rt": -1, "trial_type": "single-stim", "word": "driver", "stimulus": "<p id=\"stim\">DRIVER</p>", "conditions": [18, 1200, "v", 18000], "internal_node_id": "0.0-45.0", "trial": 1, "time_elapsed": 290725, "serialpos": 8, "key_press": -1, "wordID": 498, "type": "PRES_VIS", "trial_index": 63}, "uniqueid": "MTK2998:3ATTHHXXWBVNKP83G0DHBD7C5W6IXR", "dateTime": 1519661760379}, {"current_trial": 64, "trialdata": {"rt": -1, "trial_type": "single-stim", "word": "record", "stimulus": "<p id=\"stim\">RECORD</p>", "conditions": [18, 1200, "v", 18000], "internal_node_id": "0.0-46.0", "trial": 1, "time_elapsed": 292907, "serialpos": 9, "key_press": -1, "wordID": 1175, "type": "PRES_VIS", "trial_index": 64}, "uniqueid": "MTK2998:3ATTHHXXWBVNKP83G0DHBD7C5W6IXR", "dateTime": 1519661762561}, {"current_trial": 65, "trialdata": {"rt": -1, "trial_type": "single-stim", "word": "doughnut", "stimulus": "<p id=\"stim\">DOUGHNUT</p>", "conditions": [18, 1200, "v", 18000], "internal_node_id": "0.0-47.0", "trial": 1, "time_elapsed": 295096, "serialpos": 10, "key_press": -1, "wordID": 489, "type": "PRES_VIS", "trial_index": 65}, "uniqueid": "MTK2998:3ATTHHXXWBVNKP83G0DHBD7C5W6IXR", "dateTime": 1519661764750}, {"current_trial": 66, "trialdata": {"rt": -1, "trial_type": "single-stim", "word": "virus", "stimulus": "<p id=\"stim\">VIRUS</p>", "conditions": [18, 1200, "v", 18000], "internal_node_id": "0.0-48.0", "trial": 1, "time_elapsed": 297462, "serialpos": 11, "key_press": -1, "wordID": 1571, "type": "PRES_VIS", "trial_index": 66}, "uniqueid": "MTK2998:3ATTHHXXWBVNKP83G0DHBD7C5W6IXR", "dateTime": 1519661767116}, {"current_trial": 67, "trialdata": {"rt": -1, "trial_type": "single-stim", "word": "gangster", "stimulus": "<p id=\"stim\">GANGSTER</p>", "conditions": [18, 1200, "v", 18000], "internal_node_id": "0.0-49.0", "trial": 1, "time_elapsed": 299713, "serialpos": 12, "key_press": -1, "wordID": 619, "type": "PRES_VIS", "trial_index": 67}, "uniqueid": "MTK2998:3ATTHHXXWBVNKP83G0DHBD7C5W6IXR", "dateTime": 1519661769367}, {"current_trial": 68, "trialdata": {"rt": -1, "trial_type": "single-stim", "word": "infant", "stimulus": "<p id=\"stim\">INFANT</p>", "conditions": [18, 1200, "v", 18000], "internal_node_id": "0.0-50.0", "trial": 1, "time_elapsed": 301759, "serialpos": 13, "key_press": -1, "wordID": 736, "type": "PRES_VIS", "trial_index": 68}, "uniqueid": "MTK2998:3ATTHHXXWBVNKP83G0DHBD7C5W6IXR", "dateTime": 1519661771415}, {"current_trial": 69, "trialdata": {"rt": -1, "trial_type": "single-stim", "word": "crater", "stimulus": "<p id=\"stim\">CRATER</p>", "conditions": [18, 1200, "v", 18000], "internal_node_id": "0.0-51.0", "trial": 1, "time_elapsed": 303970, "serialpos": 14, "key_press": -1, "wordID": 399, "type": "PRES_VIS", "trial_index": 69}, "uniqueid": "MTK2998:3ATTHHXXWBVNKP83G0DHBD7C5W6IXR", "dateTime": 1519661773624}, {"current_trial": 70, "trialdata": {"rt": -1, "trial_type": "single-stim", "word": "sticker", "stimulus": "<p id=\"stim\">STICKER</p>", "conditions": [18, 1200, "v", 18000], "internal_node_id": "0.0-52.0", "trial": 1, "time_elapsed": 306060, "serialpos": 15, "key_press": -1, "wordID": 1381, "type": "PRES_VIS", "trial_index": 70}, "uniqueid": "MTK2998:3ATTHHXXWBVNKP83G0DHBD7C5W6IXR", "dateTime": 1519661775714}, {"current_trial": 71, "trialdata": {"rt": -1, "trial_type": "single-stim", "word": "item", "stimulus": "<p id=\"stim\">ITEM</p>", "conditions": [18, 1200, "v", 18000], "internal_node_id": "0.0-53.0", "trial": 1, "time_elapsed": 308314, "serialpos": 16, "key_press": -1, "wordID": 745, "type": "PRES_VIS", "trial_index": 71}, "uniqueid": "MTK2998:3ATTHHXXWBVNKP83G0DHBD7C5W6IXR", "dateTime": 1519661777968}, {"current_trial": 72, "trialdata": {"rt": -1, "trial_type": "single-stim", "word": "frame", "stimulus": "<p id=\"stim\">FRAME</p>", "conditions": [18, 1200, "v", 18000], "internal_node_id": "0.0-54.0", "trial": 1, "time_elapsed": 310325, "serialpos": 17, "key_press": -1, "wordID": 599, "type": "PRES_VIS", "trial_index": 72}, "uniqueid": "MTK2998:3ATTHHXXWBVNKP83G0DHBD7C5W6IXR", "dateTime": 1519661779979}, {"current_trial": 73, "trialdata": {"rt": -1, "trial_type": "single-stim", "stimulus": "", "internal_node_id": "0.0-55.0-0.0", "time_elapsed": 312469, "key_press": -1, "type": "PRE_RECALL_DELAY", "trial_index": 73}, "uniqueid": "MTK2998:3ATTHHXXWBVNKP83G0DHBD7C5W6IXR", "dateTime": 1519661782123}, {"current_trial": 74, "trialdata": {"rt": -1000, "trial_type": "single-audio", "stimulus": "/static/audio/400Hz.wav", "internal_node_id": "0.0-56.0", "time_elapsed": 312973, "key_press": -1, "type": "PRE_RECALL_ALERT", "trial_index": 74}, "uniqueid": "MTK2998:3ATTHHXXWBVNKP83G0DHBD7C5W6IXR", "dateTime": 1519661782628}, {"current_trial": 75, "trialdata": {"rt": [2348, 3916, 5441, 6744, 11160, 13329, 16356, 18786, 21434, 25869, 27552, 28193, 45329], "recwords": ["frame", "item", "lipstick", "infant", "virus", "gangster", "picnic", "woman", "padding", "driver", "record", "", ""], "key_times": [1227, 1348, 1440, 1540, 2212, 2348, 3126, 3178, 3266, 3366, 3916, 4179, 4356, 4499, 4650, 4829, 4953, 5073, 5202, 5441, 5875, 5963, 6087, 6203, 6299, 6554, 6744, 9514, 9648, 9752, 10118, 10206, 11160, 11697, 11802, 11943, 12436, 12860, 12960, 13083, 13179, 13329, 14856, 14925, 15008, 15387, 15454, 15542, 16356, 18185, 18265, 18321, 18442, 18542, 18786, 20062, 20162, 20601, 20745, 20756, 20853, 20961, 21434, 25025, 25132, 25304, 25507, 25641, 25737, 25869, 26172, 26244, 26375, 26471, 26578, 26679, 26747, 27312, 27552, 28193, 45329], "trial_type": "free-recall", "conditions": [18, 1200, "v", 18000], "internal_node_id": "0.0-57.0-0.0", "key_presses": [70, 82, 65, 77, 69, 13, 73, 84, 69, 77, 13, 76, 73, 80, 83, 84, 73, 67, 75, 13, 73, 78, 70, 65, 78, 84, 13, 86, 73, 82, 85, 83, 13, 71, 65, 78, 71, 83, 84, 69, 82, 13, 80, 73, 67, 78, 73, 67, 13, 87, 79, 77, 65, 78, 13, 80, 65, 68, 68, 73, 78, 71, 13, 68, 82, 73, 86, 69, 82, 13, 82, 69, 67, 79, 82, 68, 83, 8, 13, 13, 13], "trial": 1, "time_elapsed": 372981, "type": "FREE_RECALL", "trial_index": 75}, "uniqueid": "MTK2998:3ATTHHXXWBVNKP83G0DHBD7C5W6IXR", "dateTime": 1519661842638}, {"current_trial": 76, "trialdata": {"rt": 3451, "trial_type": "text", "internal_node_id": "0.0-58.0", "time_elapsed": 378440, "key_press": 13, "type": "INSTRUCTIONS", "trial_index": 76}, "uniqueid": "MTK2998:3ATTHHXXWBVNKP83G0DHBD7C5W6IXR", "dateTime": 1519661848094}, {"current_trial": 77, "trialdata": {"rt": [5318, 7396, 10532], "trial_type": "math-distractor", "key_times": [4989, 5063, 5318, 7170, 7254, 7396, 9526, 9657, 10532], "responses": ["21", "13", "10"], "num2": [7, 3, 1, 5], "num3": [9, 5, 3, 2], "conditions": [24, 800, "v", 12000], "internal_node_id": "0.0-59.0", "key_presses": [50, 49, 13, 49, 51, 13, 49, 48, 13], "trial": 2, "time_elapsed": 391449, "type": "DISTRACTOR", "trial_index": 77, "num1": [5, 5, 6, 9]}, "uniqueid": "MTK2998:3ATTHHXXWBVNKP83G0DHBD7C5W6IXR", "dateTime": 1519661861103}, {"current_trial": 78, "trialdata": {"rt": -1, "trial_type": "single-stim", "stimulus": "<p id=\"stim\">10</p>", "internal_node_id": "0.0-60.0-0.0", "time_elapsed": 394457, "key_press": -1, "trial_index": 78}, "uniqueid": "MTK2998:3ATTHHXXWBVNKP83G0DHBD7C5W6IXR", "dateTime": 1519661864111}, {"current_trial": 79, "trialdata": {"rt": -1, "trial_type": "single-stim", "stimulus": "<p id=\"stim\">9</p>", "internal_node_id": "0.0-60.0-1.0", "time_elapsed": 395460, "key_press": -1, "trial_index": 79}, "uniqueid": "MTK2998:3ATTHHXXWBVNKP83G0DHBD7C5W6IXR", "dateTime": 1519661865114}, {"current_trial": 80, "trialdata": {"rt": -1, "trial_type": "single-stim", "stimulus": "<p id=\"stim\">8</p>", "internal_node_id": "0.0-60.0-2.0", "time_elapsed": 396465, "key_press": -1, "trial_index": 80}, "uniqueid": "MTK2998:3ATTHHXXWBVNKP83G0DHBD7C5W6IXR", "dateTime": 1519661866119}, {"current_trial": 81, "trialdata": {"rt": -1, "trial_type": "single-stim", "stimulus": "<p id=\"stim\">7</p>", "internal_node_id": "0.0-60.0-3.0", "time_elapsed": 397466, "key_press": -1, "trial_index": 81}, "uniqueid": "MTK2998:3ATTHHXXWBVNKP83G0DHBD7C5W6IXR", "dateTime": 1519661867120}, {"current_trial": 82, "trialdata": {"rt": -1, "trial_type": "single-stim", "stimulus": "<p id=\"stim\">6</p>", "internal_node_id": "0.0-60.0-4.0", "time_elapsed": 398469, "key_press": -1, "trial_index": 82}, "uniqueid": "MTK2998:3ATTHHXXWBVNKP83G0DHBD7C5W6IXR", "dateTime": 1519661868123}, {"current_trial": 83, "trialdata": {"rt": -1, "trial_type": "single-stim", "stimulus": "<p id=\"stim\">5</p>", "internal_node_id": "0.0-60.0-5.0", "time_elapsed": 399472, "key_press": -1, "trial_index": 83}, "uniqueid": "MTK2998:3ATTHHXXWBVNKP83G0DHBD7C5W6IXR", "dateTime": 1519661869126}, {"current_trial": 84, "trialdata": {"rt": -1, "trial_type": "single-stim", "stimulus": "<p id=\"stim\">4</p>", "internal_node_id": "0.0-60.0-6.0", "time_elapsed": 400476, "key_press": -1, "trial_index": 84}, "uniqueid": "MTK2998:3ATTHHXXWBVNKP83G0DHBD7C5W6IXR", "dateTime": 1519661870130}, {"current_trial": 85, "trialdata": {"rt": -1, "trial_type": "single-stim", "stimulus": "<p id=\"stim\">3</p>", "internal_node_id": "0.0-60.0-7.0", "time_elapsed": 401481, "key_press": -1, "trial_index": 85}, "uniqueid": "MTK2998:3ATTHHXXWBVNKP83G0DHBD7C5W6IXR", "dateTime": 1519661871135}, {"current_trial": 86, "trialdata": {"rt": -1, "trial_type": "single-stim", "stimulus": "<p id=\"stim\">2</p>", "internal_node_id": "0.0-60.0-8.0", "time_elapsed": 402483, "key_press": -1, "trial_index": 86}, "uniqueid": "MTK2998:3ATTHHXXWBVNKP83G0DHBD7C5W6IXR", "dateTime": 1519661872137}, {"current_trial": 87, "trialdata": {"rt": -1, "trial_type": "single-stim", "stimulus": "<p id=\"stim\">1</p>", "internal_node_id": "0.0-60.0-9.0", "time_elapsed": 403489, "key_press": -1, "trial_index": 87}, "uniqueid": "MTK2998:3ATTHHXXWBVNKP83G0DHBD7C5W6IXR", "dateTime": 1519661873143}, {"current_trial": 88, "trialdata": {"rt": -1, "trial_type": "single-stim", "stimulus": "<p id=\"stim\">+</p>", "internal_node_id": "0.0-61.0-0.0", "time_elapsed": 404992, "key_press": -1, "type": "FIXATION", "trial_index": 88}, "uniqueid": "MTK2998:3ATTHHXXWBVNKP83G0DHBD7C5W6IXR", "dateTime": 1519661874646}, {"current_trial": 89, "trialdata": {"rt": -1, "trial_type": "single-stim", "word": "robber", "stimulus": "<p id=\"stim\">ROBBER</p>", "conditions": [24, 800, "v", 12000], "internal_node_id": "0.0-62.0", "trial": 2, "time_elapsed": 405799, "serialpos": 0, "key_press": -1, "wordID": 1196, "type": "PRES_VIS", "trial_index": 89}, "uniqueid": "MTK2998:3ATTHHXXWBVNKP83G0DHBD7C5W6IXR", "dateTime": 1519661875453}, {"current_trial": 90, "trialdata": {"rt": -1, "trial_type": "single-stim", "word": "picture", "stimulus": "<p id=\"stim\">PICTURE</p>", "conditions": [24, 800, "v", 12000], "internal_node_id": "0.0-63.0", "trial": 2, "time_elapsed": 407426, "serialpos": 1, "key_press": -1, "wordID": 1060, "type": "PRES_VIS", "trial_index": 90}, "uniqueid": "MTK2998:3ATTHHXXWBVNKP83G0DHBD7C5W6IXR", "dateTime": 1519661877080}, {"current_trial": 91, "trialdata": {"rt": -1, "trial_type": "single-stim", "word": "jungle", "stimulus": "<p id=\"stim\">JUNGLE</p>", "conditions": [24, 800, "v", 12000], "internal_node_id": "0.0-64.0", "trial": 2, "time_elapsed": 409365, "serialpos": 2, "key_press": -1, "wordID": 763, "type": "PRES_VIS", "trial_index": 91}, "uniqueid": "MTK2998:3ATTHHXXWBVNKP83G0DHBD7C5W6IXR", "dateTime": 1519661879019}, {"current_trial": 92, "trialdata": {"rt": -1, "trial_type": "single-stim", "word": "brother", "stimulus": "<p id=\"stim\">BROTHER</p>", "conditions": [24, 800, "v", 12000], "internal_node_id": "0.0-65.0", "trial": 2, "time_elapsed": 410983, "serialpos": 3, "key_press": -1, "wordID": 178, "type": "PRES_VIS", "trial_index": 92}, "uniqueid": "MTK2998:3ATTHHXXWBVNKP83G0DHBD7C5W6IXR", "dateTime": 1519661880637}, {"current_trial": 93, "trialdata": {"rt": -1, "trial_type": "single-stim", "word": "plaza", "stimulus": "<p id=\"stim\">PLAZA</p>", "conditions": [24, 800, "v", 12000], "internal_node_id": "0.0-66.0", "trial": 2, "time_elapsed": 412799, "serialpos": 4, "key_press": -1, "wordID": 1087, "type": "PRES_VIS", "trial_index": 93}, "uniqueid": "MTK2998:3ATTHHXXWBVNKP83G0DHBD7C5W6IXR", "dateTime": 1519661882453}, {"current_trial": 94, "trialdata": {"rt": -1, "trial_type": "single-stim", "word": "globe", "stimulus": "<p id=\"stim\">GLOBE</p>", "conditions": [24, 800, "v", 12000], "internal_node_id": "0.0-67.0", "trial": 2, "time_elapsed": 414449, "serialpos": 5, "key_press": -1, "wordID": 640, "type": "PRES_VIS", "trial_index": 94}, "uniqueid": "MTK2998:3ATTHHXXWBVNKP83G0DHBD7C5W6IXR", "dateTime": 1519661884103}, {"current_trial": 95, "trialdata": {"rt": -1, "trial_type": "single-stim", "word": "country", "stimulus": "<p id=\"stim\">COUNTRY</p>", "conditions": [24, 800, "v", 12000], "internal_node_id": "0.0-68.0", "trial": 2, "time_elapsed": 416291, "serialpos": 6, "key_press": -1, "wordID": 387, "type": "PRES_VIS", "trial_index": 95}, "uniqueid": "MTK2998:3ATTHHXXWBVNKP83G0DHBD7C5W6IXR", "dateTime": 1519661885945}, {"current_trial": 96, "trialdata": {"rt": -1, "trial_type": "single-stim", "word": "suspect", "stimulus": "<p id=\"stim\">SUSPECT</p>", "conditions": [24, 800, "v", 12000], "internal_node_id": "0.0-69.0", "trial": 2, "time_elapsed": 418063, "serialpos": 7, "key_press": -1, "wordID": 1414, "type": "PRES_VIS", "trial_index": 96}, "uniqueid": "MTK2998:3ATTHHXXWBVNKP83G0DHBD7C5W6IXR", "dateTime": 1519661887717}, {"current_trial": 97, "trialdata": {"rt": -1, "trial_type": "single-stim", "word": "branch", "stimulus": "<p id=\"stim\">BRANCH</p>", "conditions": [24, 800, "v", 12000], "internal_node_id": "0.0-70.0", "trial": 2, "time_elapsed": 419804, "serialpos": 8, "key_press": -1, "wordID": 167, "type": "PRES_VIS", "trial_index": 97}, "uniqueid": "MTK2998:3ATTHHXXWBVNKP83G0DHBD7C5W6IXR", "dateTime": 1519661889458}, {"current_trial": 98, "trialdata": {"rt": -1, "trial_type": "single-stim", "word": "pudding", "stimulus": "<p id=\"stim\">PUDDING</p>", "conditions": [24, 800, "v", 12000], "internal_node_id": "0.0-71.0", "trial": 2, "time_elapsed": 421586, "serialpos": 9, "key_press": -1, "wordID": 1138, "type": "PRES_VIS", "trial_index": 98}, "uniqueid": "MTK2998:3ATTHHXXWBVNKP83G0DHBD7C5W6IXR", "dateTime": 1519661891240}, {"current_trial": 99, "trialdata": {"rt": -1, "trial_type": "single-stim", "word": "sculpture", "stimulus": "<p id=\"stim\">SCULPTURE</p>", "conditions": [24, 800, "v", 12000], "internal_node_id": "0.0-72.0", "trial": 2, "time_elapsed": 423511, "serialpos": 10, "key_press": -1, "wordID": 1257, "type": "PRES_VIS", "trial_index": 99}, "uniqueid": "MTK2998:3ATTHHXXWBVNKP83G0DHBD7C5W6IXR", "dateTime": 1519661893165}, {"current_trial": 100, "trialdata": {"rt": -1, "trial_type": "single-stim", "word": "statue", "stimulus": "<p id=\"stim\">STATUE</p>", "conditions": [24, 800, "v", 12000], "internal_node_id": "0.0-73.0", "trial": 2, "time_elapsed": 425376, "serialpos": 11, "key_press": -1, "wordID": 1373, "type": "PRES_VIS", "trial_index": 100}, "uniqueid": "MTK2998:3ATTHHXXWBVNKP83G0DHBD7C5W6IXR", "dateTime": 1519661895030}, {"current_trial": 101, "trialdata": {"rt": -1, "trial_type": "single-stim", "word": "soda", "stimulus": "<p id=\"stim\">SODA</p>", "conditions": [24, 800, "v", 12000], "internal_node_id": "0.0-74.0", "trial": 2, "time_elapsed": 427182, "serialpos": 12, "key_press": -1, "wordID": 1340, "type": "PRES_VIS", "trial_index": 101}, "uniqueid": "MTK2998:3ATTHHXXWBVNKP83G0DHBD7C5W6IXR", "dateTime": 1519661896837}, {"current_trial": 102, "trialdata": {"rt": -1, "trial_type": "single-stim", "word": "bike", "stimulus": "<p id=\"stim\">BIKE</p>", "conditions": [24, 800, "v", 12000], "internal_node_id": "0.0-75.0", "trial": 2, "time_elapsed": 428888, "serialpos": 13, "key_press": -1, "wordID": 124, "type": "PRES_VIS", "trial_index": 102}, "uniqueid": "MTK2998:3ATTHHXXWBVNKP83G0DHBD7C5W6IXR", "dateTime": 1519661898542}, {"current_trial": 103, "trialdata": {"rt": -1, "trial_type": "single-stim", "word": "slug", "stimulus": "<p id=\"stim\">SLUG</p>", "conditions": [24, 800, "v", 12000], "internal_node_id": "0.0-76.0", "trial": 2, "time_elapsed": 430506, "serialpos": 14, "key_press": -1, "wordID": 1328, "type": "PRES_VIS", "trial_index": 103}, "uniqueid": "MTK2998:3ATTHHXXWBVNKP83G0DHBD7C5W6IXR", "dateTime": 1519661900161}, {"current_trial": 104, "trialdata": {"rt": -1, "trial_type": "single-stim", "word": "crayon", "stimulus": "<p id=\"stim\">CRAYON</p>", "conditions": [24, 800, "v", 12000], "internal_node_id": "0.0-77.0", "trial": 2, "time_elapsed": 432130, "serialpos": 15, "key_press": -1, "wordID": 400, "type": "PRES_VIS", "trial_index": 104}, "uniqueid": "MTK2998:3ATTHHXXWBVNKP83G0DHBD7C5W6IXR", "dateTime": 1519661901785}, {"current_trial": 105, "trialdata": {"rt": -1, "trial_type": "single-stim", "word": "mailman", "stimulus": "<p id=\"stim\">MAILMAN</p>", "conditions": [24, 800, "v", 12000], "internal_node_id": "0.0-78.0", "trial": 2, "time_elapsed": 433943, "serialpos": 16, "key_press": -1, "wordID": 857, "type": "PRES_VIS", "trial_index": 105}, "uniqueid": "MTK2998:3ATTHHXXWBVNKP83G0DHBD7C5W6IXR", "dateTime": 1519661903597}, {"current_trial": 106, "trialdata": {"rt": -1, "trial_type": "single-stim", "word": "pilot", "stimulus": "<p id=\"stim\">PILOT</p>", "conditions": [24, 800, "v", 12000], "internal_node_id": "0.0-79.0", "trial": 2, "time_elapsed": 435851, "serialpos": 17, "key_press": -1, "wordID": 1069, "type": "PRES_VIS", "trial_index": 106}, "uniqueid": "MTK2998:3ATTHHXXWBVNKP83G0DHBD7C5W6IXR", "dateTime": 1519661905506}, {"current_trial": 107, "trialdata": {"rt": -1, "trial_type": "single-stim", "word": "arm", "stimulus": "<p id=\"stim\">ARM</p>", "conditions": [24, 800, "v", 12000], "internal_node_id": "0.0-80.0", "trial": 2, "time_elapsed": 437669, "serialpos": 18, "key_press": -1, "wordID": 37, "type": "PRES_VIS", "trial_index": 107}, "uniqueid": "MTK2998:3ATTHHXXWBVNKP83G0DHBD7C5W6IXR", "dateTime": 1519661907323}, {"current_trial": 108, "trialdata": {"rt": -1, "trial_type": "single-stim", "word": "outdoors", "stimulus": "<p id=\"stim\">OUTDOORS</p>", "conditions": [24, 800, "v", 12000], "internal_node_id": "0.0-81.0", "trial": 2, "time_elapsed": 439402, "serialpos": 19, "key_press": -1, "wordID": 986, "type": "PRES_VIS", "trial_index": 108}, "uniqueid": "MTK2998:3ATTHHXXWBVNKP83G0DHBD7C5W6IXR", "dateTime": 1519661909056}, {"current_trial": 109, "trialdata": {"rt": -1, "trial_type": "single-stim", "word": "flashlight", "stimulus": "<p id=\"stim\">FLASHLIGHT</p>", "conditions": [24, 800, "v", 12000], "internal_node_id": "0.0-82.0", "trial": 2, "time_elapsed": 441129, "serialpos": 20, "key_press": -1, "wordID": 574, "type": "PRES_VIS", "trial_index": 109}, "uniqueid": "MTK2998:3ATTHHXXWBVNKP83G0DHBD7C5W6IXR", "dateTime": 1519661910783}, {"current_trial": 110, "trialdata": {"rt": -1, "trial_type": "single-stim", "word": "coffee", "stimulus": "<p id=\"stim\">COFFEE</p>", "conditions": [24, 800, "v", 12000], "internal_node_id": "0.0-83.0", "trial": 2, "time_elapsed": 442747, "serialpos": 21, "key_press": -1, "wordID": 340, "type": "PRES_VIS", "trial_index": 110}, "uniqueid": "MTK2998:3ATTHHXXWBVNKP83G0DHBD7C5W6IXR", "dateTime": 1519661912401}, {"current_trial": 111, "trialdata": {"rt": -1, "trial_type": "single-stim", "word": "creature", "stimulus": "<p id=\"stim\">CREATURE</p>", "conditions": [24, 800, "v", 12000], "internal_node_id": "0.0-84.0", "trial": 2, "time_elapsed": 444463, "serialpos": 22, "key_press": -1, "wordID": 402, "type": "PRES_VIS", "trial_index": 111}, "uniqueid": "MTK2998:3ATTHHXXWBVNKP83G0DHBD7C5W6IXR", "dateTime": 1519661914117}, {"current_trial": 112, "trialdata": {"rt": -1, "trial_type": "single-stim", "word": "monster", "stimulus": "<p id=\"stim\">MONSTER</p>", "conditions": [24, 800, "v", 12000], "internal_node_id": "0.0-85.0", "trial": 2, "time_elapsed": 446358, "serialpos": 23, "key_press": -1, "wordID": 911, "type": "PRES_VIS", "trial_index": 112}, "uniqueid": "MTK2998:3ATTHHXXWBVNKP83G0DHBD7C5W6IXR", "dateTime": 1519661916012}, {"current_trial": 113, "trialdata": {"rt": -1, "trial_type": "single-stim", "stimulus": "", "internal_node_id": "0.0-86.0-0.0", "time_elapsed": 448848, "key_press": -1, "type": "PRE_RECALL_DELAY", "trial_index": 113}, "uniqueid": "MTK2998:3ATTHHXXWBVNKP83G0DHBD7C5W6IXR", "dateTime": 1519661918502}, {"current_trial": 114, "trialdata": {"rt": -1000, "trial_type": "single-audio", "stimulus": "/static/audio/400Hz.wav", "internal_node_id": "0.0-87.0", "time_elapsed": 449351, "key_press": -1, "type": "PRE_RECALL_ALERT", "trial_index": 114}, "uniqueid": "MTK2998:3ATTHHXXWBVNKP83G0DHBD7C5W6IXR", "dateTime": 1519661919005}, {"current_trial": 115, "trialdata": {"rt": [1785, 4631, 5716, 7635, 9468, 14727, 16049, 21360, 23677, 30759, 33783, 35287, 38777], "recwords": ["creature", "monster", "soda", "robber", "picture", "sculpture", "arm", "coffee", "brother", "statue", "creature", "monster", ""], "key_times": [480, 624, 723, 834, 935, 1493, 1529, 1641, 1785, 2544, 2628, 2759, 3146, 3412, 3624, 3728, 4631, 4802, 4932, 5059, 5247, 5716, 6516, 6609, 6854, 7008, 7149, 7246, 7635, 8433, 8497, 8617, 8830, 8966, 9042, 9150, 9468, 9899, 10297, 10529, 10718, 10982, 11906, 12170, 13045, 13455, 13523, 13925, 14727, 15307, 15395, 15557, 16049, 19984, 20117, 20237, 20372, 20557, 21146, 21360, 22904, 23011, 23099, 23207, 23303, 23355, 23447, 23677, 28572, 28681, 28829, 29343, 29464, 29571, 30470, 30570, 30759, 32710, 32925, 33001, 33141, 33257, 33446, 33474, 33594, 33783, 34347, 34431, 34607, 34749, 34902, 35027, 35115, 35287, 38777], "trial_type": "free-recall", "conditions": [24, 800, "v", 12000], "internal_node_id": "0.0-88.0-0.0", "key_presses": [67, 82, 69, 65, 84, 85, 82, 69, 32, 77, 79, 78, 83, 84, 69, 82, 32, 83, 79, 68, 65, 32, 82, 79, 66, 66, 69, 82, 32, 80, 73, 67, 84, 85, 82, 69, 32, 83, 67, 85, 76, 84, 8, 80, 84, 85, 82, 69, 13, 65, 82, 77, 13, 67, 79, 70, 70, 69, 69, 32, 66, 82, 79, 84, 72, 69, 82, 32, 83, 84, 65, 84, 85, 82, 8, 69, 32, 67, 82, 69, 65, 84, 85, 82, 69, 32, 77, 79, 78, 83, 84, 69, 82, 32, 13], "trial": 2, "time_elapsed": 509360, "type": "FREE_RECALL", "trial_index": 115}, "uniqueid": "MTK2998:3ATTHHXXWBVNKP83G0DHBD7C5W6IXR", "dateTime": 1519661979016}, {"current_trial": 116, "trialdata": {"rt": 6416, "trial_type": "text", "internal_node_id": "0.0-89.0", "time_elapsed": 517781, "key_press": 32, "type": "INSTRUCTIONS", "trial_index": 116}, "uniqueid": "MTK2998:3ATTHHXXWBVNKP83G0DHBD7C5W6IXR", "dateTime": 1519661987435}, {"current_trial": 117, "trialdata": {"rt": [5739], "trial_type": "math-distractor", "key_times": [5223, 5319, 5739], "responses": ["17"], "num2": [4, 5], "num3": [7, 9], "conditions": [24, 1600, "v", 12000], "internal_node_id": "0.0-90.0", "key_presses": [49, 55, 13], "trial": 3, "time_elapsed": 531790, "type": "DISTRACTOR", "trial_index": 117, "num1": [6, 7]}, "uniqueid": "MTK2998:3ATTHHXXWBVNKP83G0DHBD7C5W6IXR", "dateTime": 1519662001444}, {"current_trial": 118, "trialdata": {"rt": -1, "trial_type": "single-stim", "stimulus": "<p id=\"stim\">10</p>", "internal_node_id": "0.0-91.0-0.0", "time_elapsed": 534796, "key_press": -1, "trial_index": 118}, "uniqueid": "MTK2998:3ATTHHXXWBVNKP83G0DHBD7C5W6IXR", "dateTime": 1519662004450}, {"current_trial": 119, "trialdata": {"rt": -1, "trial_type": "single-stim", "stimulus": "<p id=\"stim\">9</p>", "internal_node_id": "0.0-91.0-1.0", "time_elapsed": 535801, "key_press": -1, "trial_index": 119}, "uniqueid": "MTK2998:3ATTHHXXWBVNKP83G0DHBD7C5W6IXR", "dateTime": 1519662005455}, {"current_trial": 120, "trialdata": {"rt": -1, "trial_type": "single-stim", "stimulus": "<p id=\"stim\">8</p>", "internal_node_id": "0.0-91.0-2.0", "time_elapsed": 536806, "key_press": -1, "trial_index": 120}, "uniqueid": "MTK2998:3ATTHHXXWBVNKP83G0DHBD7C5W6IXR", "dateTime": 1519662006460}, {"current_trial": 121, "trialdata": {"rt": -1, "trial_type": "single-stim", "stimulus": "<p id=\"stim\">7</p>", "internal_node_id": "0.0-91.0-3.0", "time_elapsed": 537811, "key_press": -1, "trial_index": 121}, "uniqueid": "MTK2998:3ATTHHXXWBVNKP83G0DHBD7C5W6IXR", "dateTime": 1519662007465}, {"current_trial": 122, "trialdata": {"rt": -1, "trial_type": "single-stim", "stimulus": "<p id=\"stim\">6</p>", "internal_node_id": "0.0-91.0-4.0", "time_elapsed": 538817, "key_press": -1, "trial_index": 122}, "uniqueid": "MTK2998:3ATTHHXXWBVNKP83G0DHBD7C5W6IXR", "dateTime": 1519662008471}, {"current_trial": 123, "trialdata": {"rt": -1, "trial_type": "single-stim", "stimulus": "<p id=\"stim\">5</p>", "internal_node_id": "0.0-91.0-5.0", "time_elapsed": 539821, "key_press": -1, "trial_index": 123}, "uniqueid": "MTK2998:3ATTHHXXWBVNKP83G0DHBD7C5W6IXR", "dateTime": 1519662009475}, {"current_trial": 124, "trialdata": {"rt": -1, "trial_type": "single-stim", "stimulus": "<p id=\"stim\">4</p>", "internal_node_id": "0.0-91.0-6.0", "time_elapsed": 540827, "key_press": -1, "trial_index": 124}, "uniqueid": "MTK2998:3ATTHHXXWBVNKP83G0DHBD7C5W6IXR", "dateTime": 1519662010481}, {"current_trial": 125, "trialdata": {"rt": -1, "trial_type": "single-stim", "stimulus": "<p id=\"stim\">3</p>", "internal_node_id": "0.0-91.0-7.0", "time_elapsed": 541829, "key_press": -1, "trial_index": 125}, "uniqueid": "MTK2998:3ATTHHXXWBVNKP83G0DHBD7C5W6IXR", "dateTime": 1519662011483}, {"current_trial": 126, "trialdata": {"rt": -1, "trial_type": "single-stim", "stimulus": "<p id=\"stim\">2</p>", "internal_node_id": "0.0-91.0-8.0", "time_elapsed": 542834, "key_press": -1, "trial_index": 126}, "uniqueid": "MTK2998:3ATTHHXXWBVNKP83G0DHBD7C5W6IXR", "dateTime": 1519662012488}, {"current_trial": 127, "trialdata": {"rt": -1, "trial_type": "single-stim", "stimulus": "<p id=\"stim\">1</p>", "internal_node_id": "0.0-91.0-9.0", "time_elapsed": 543838, "key_press": -1, "trial_index": 127}, "uniqueid": "MTK2998:3ATTHHXXWBVNKP83G0DHBD7C5W6IXR", "dateTime": 1519662013492}, {"current_trial": 128, "trialdata": {"rt": -1, "trial_type": "single-stim", "stimulus": "<p id=\"stim\">+</p>", "internal_node_id": "0.0-92.0-0.0", "time_elapsed": 545342, "key_press": -1, "type": "FIXATION", "trial_index": 128}, "uniqueid": "MTK2998:3ATTHHXXWBVNKP83G0DHBD7C5W6IXR", "dateTime": 1519662014996}, {"current_trial": 129, "trialdata": {"rt": -1, "trial_type": "single-stim", "word": "radish", "stimulus": "<p id=\"stim\">RADISH</p>", "conditions": [24, 1600, "v", 12000], "internal_node_id": "0.0-93.0", "trial": 3, "time_elapsed": 546945, "serialpos": 0, "key_press": -1, "wordID": 1157, "type": "PRES_VIS", "trial_index": 129}, "uniqueid": "MTK2998:3ATTHHXXWBVNKP83G0DHBD7C5W6IXR", "dateTime": 1519662016599}, {"current_trial": 130, "trialdata": {"rt": -1, "trial_type": "single-stim", "word": "cafe", "stimulus": "<p id=\"stim\">CAFE</p>", "conditions": [24, 1600, "v", 12000], "internal_node_id": "0.0-94.0", "trial": 3, "time_elapsed": 549736, "serialpos": 1, "key_press": -1, "wordID": 215, "type": "PRES_VIS", "trial_index": 130}, "uniqueid": "MTK2998:3ATTHHXXWBVNKP83G0DHBD7C5W6IXR", "dateTime": 1519662019390}, {"current_trial": 131, "trialdata": {"rt": -1, "trial_type": "single-stim", "word": "diner", "stimulus": "<p id=\"stim\">DINER</p>", "conditions": [24, 1600, "v", 12000], "internal_node_id": "0.0-95.0", "trial": 3, "time_elapsed": 552178, "serialpos": 2, "key_press": -1, "wordID": 466, "type": "PRES_VIS", "trial_index": 131}, "uniqueid": "MTK2998:3ATTHHXXWBVNKP83G0DHBD7C5W6IXR", "dateTime": 1519662021833}, {"current_trial": 132, "trialdata": {"rt": -1, "trial_type": "single-stim", "word": "window", "stimulus": "<p id=\"stim\">WINDOW</p>", "conditions": [24, 1600, "v", 12000], "internal_node_id": "0.0-96.0", "trial": 3, "time_elapsed": 554931, "serialpos": 3, "key_press": -1, "wordID": 1610, "type": "PRES_VIS", "trial_index": 132}, "uniqueid": "MTK2998:3ATTHHXXWBVNKP83G0DHBD7C5W6IXR", "dateTime": 1519662024585}, {"current_trial": 133, "trialdata": {"rt": -1, "trial_type": "single-stim", "word": "summit", "stimulus": "<p id=\"stim\">SUMMIT</p>", "conditions": [24, 1600, "v", 12000], "internal_node_id": "0.0-97.0", "trial": 3, "time_elapsed": 557646, "serialpos": 4, "key_press": -1, "wordID": 1404, "type": "PRES_VIS", "trial_index": 133}, "uniqueid": "MTK2998:3ATTHHXXWBVNKP83G0DHBD7C5W6IXR", "dateTime": 1519662027300}, {"current_trial": 134, "trialdata": {"rt": -1, "trial_type": "single-stim", "word": "igloo", "stimulus": "<p id=\"stim\">IGLOO</p>", "conditions": [24, 1600, "v", 12000], "internal_node_id": "0.0-98.0", "trial": 3, "time_elapsed": 560281, "serialpos": 5, "key_press": -1, "wordID": 733, "type": "PRES_VIS", "trial_index": 134}, "uniqueid": "MTK2998:3ATTHHXXWBVNKP83G0DHBD7C5W6IXR", "dateTime": 1519662029935}, {"current_trial": 135, "trialdata": {"rt": -1, "trial_type": "single-stim", "word": "beast", "stimulus": "<p id=\"stim\">BEAST</p>", "conditions": [24, 1600, "v", 12000], "internal_node_id": "0.0-99.0", "trial": 3, "time_elapsed": 563010, "serialpos": 6, "key_press": -1, "wordID": 107, "type": "PRES_VIS", "trial_index": 135}, "uniqueid": "MTK2998:3ATTHHXXWBVNKP83G0DHBD7C5W6IXR", "dateTime": 1519662032664}, {"current_trial": 136, "trialdata": {"rt": -1, "trial_type": "single-stim", "word": "parsley", "stimulus": "<p id=\"stim\">PARSLEY</p>", "conditions": [24, 1600, "v", 12000], "internal_node_id": "0.0-100.0", "trial": 3, "time_elapsed": 565726, "serialpos": 7, "key_press": -1, "wordID": 1015, "type": "PRES_VIS", "trial_index": 136}, "uniqueid": "MTK2998:3ATTHHXXWBVNKP83G0DHBD7C5W6IXR", "dateTime": 1519662035380}, {"current_trial": 137, "trialdata": {"rt": -1, "trial_type": "single-stim", "word": "yacht", "stimulus": "<p id=\"stim\">YACHT</p>", "conditions": [24, 1600, "v", 12000], "internal_node_id": "0.0-101.0", "trial": 3, "time_elapsed": 568243, "serialpos": 8, "key_press": -1, "wordID": 1628, "type": "PRES_VIS", "trial_index": 137}, "uniqueid": "MTK2998:3ATTHHXXWBVNKP83G0DHBD7C5W6IXR", "dateTime": 1519662037897}, {"current_trial": 138, "trialdata": {"rt": -1, "trial_type": "single-stim", "word": "champagne", "stimulus": "<p id=\"stim\">CHAMPAGNE</p>", "conditions": [24, 1600, "v", 12000], "internal_node_id": "0.0-102.0", "trial": 3, "time_elapsed": 570862, "serialpos": 9, "key_press": -1, "wordID": 277, "type": "PRES_VIS", "trial_index": 138}, "uniqueid": "MTK2998:3ATTHHXXWBVNKP83G0DHBD7C5W6IXR", "dateTime": 1519662040516}, {"current_trial": 139, "trialdata": {"rt": -1, "trial_type": "single-stim", "word": "candy", "stimulus": "<p id=\"stim\">CANDY</p>", "conditions": [24, 1600, "v", 12000], "internal_node_id": "0.0-103.0", "trial": 3, "time_elapsed": 573511, "serialpos": 10, "key_press": -1, "wordID": 229, "type": "PRES_VIS", "trial_index": 139}, "uniqueid": "MTK2998:3ATTHHXXWBVNKP83G0DHBD7C5W6IXR", "dateTime": 1519662043165}, {"current_trial": 140, "trialdata": {"rt": -1, "trial_type": "single-stim", "word": "thief", "stimulus": "<p id=\"stim\">THIEF</p>", "conditions": [24, 1600, "v", 12000], "internal_node_id": "0.0-104.0", "trial": 3, "time_elapsed": 575970, "serialpos": 11, "key_press": -1, "wordID": 1455, "type": "PRES_VIS", "trial_index": 140}, "uniqueid": "MTK2998:3ATTHHXXWBVNKP83G0DHBD7C5W6IXR", "dateTime": 1519662045624}, {"current_trial": 141, "trialdata": {"rt": -1, "trial_type": "single-stim", "word": "rod", "stimulus": "<p id=\"stim\">ROD</p>", "conditions": [24, 1600, "v", 12000], "internal_node_id": "0.0-105.0", "trial": 3, "time_elapsed": 578475, "serialpos": 12, "key_press": -1, "wordID": 1202, "type": "PRES_VIS", "trial_index": 141}, "uniqueid": "MTK2998:3ATTHHXXWBVNKP83G0DHBD7C5W6IXR", "dateTime": 1519662048129}, {"current_trial": 142, "trialdata": {"rt": -1, "trial_type": "single-stim", "word": "garbage", "stimulus": "<p id=\"stim\">GARBAGE</p>", "conditions": [24, 1600, "v", 12000], "internal_node_id": "0.0-106.0", "trial": 3, "time_elapsed": 581137, "serialpos": 13, "key_press": -1, "wordID": 621, "type": "PRES_VIS", "trial_index": 142}, "uniqueid": "MTK2998:3ATTHHXXWBVNKP83G0DHBD7C5W6IXR", "dateTime": 1519662050791}, {"current_trial": 143, "trialdata": {"rt": -1, "trial_type": "single-stim", "word": "truck", "stimulus": "<p id=\"stim\">TRUCK</p>", "conditions": [24, 1600, "v", 12000], "internal_node_id": "0.0-107.0", "trial": 3, "time_elapsed": 583727, "serialpos": 14, "key_press": -1, "wordID": 1511, "type": "PRES_VIS", "trial_index": 143}, "uniqueid": "MTK2998:3ATTHHXXWBVNKP83G0DHBD7C5W6IXR", "dateTime": 1519662053381}, {"current_trial": 144, "trialdata": {"rt": -1, "trial_type": "single-stim", "word": "cowboy", "stimulus": "<p id=\"stim\">COWBOY</p>", "conditions": [24, 1600, "v", 12000], "internal_node_id": "0.0-108.0", "trial": 3, "time_elapsed": 586353, "serialpos": 15, "key_press": -1, "wordID": 394, "type": "PRES_VIS", "trial_index": 144}, "uniqueid": "MTK2998:3ATTHHXXWBVNKP83G0DHBD7C5W6IXR", "dateTime": 1519662056007}, {"current_trial": 145, "trialdata": {"rt": -1, "trial_type": "single-stim", "word": "servant", "stimulus": "<p id=\"stim\">SERVANT</p>", "conditions": [24, 1600, "v", 12000], "internal_node_id": "0.0-109.0", "trial": 3, "time_elapsed": 589142, "serialpos": 16, "key_press": -1, "wordID": 1270, "type": "PRES_VIS", "trial_index": 145}, "uniqueid": "MTK2998:3ATTHHXXWBVNKP83G0DHBD7C5W6IXR", "dateTime": 1519662058797}, {"current_trial": 146, "trialdata": {"rt": -1, "trial_type": "single-stim", "word": "mustard", "stimulus": "<p id=\"stim\">MUSTARD</p>", "conditions": [24, 1600, "v", 12000], "internal_node_id": "0.0-110.0", "trial": 3, "time_elapsed": 591910, "serialpos": 17, "key_press": -1, "wordID": 934, "type": "PRES_VIS", "trial_index": 146}, "uniqueid": "MTK2998:3ATTHHXXWBVNKP83G0DHBD7C5W6IXR", "dateTime": 1519662061564}, {"current_trial": 147, "trialdata": {"rt": -1, "trial_type": "single-stim", "word": "wagon", "stimulus": "<p id=\"stim\">WAGON</p>", "conditions": [24, 1600, "v", 12000], "internal_node_id": "0.0-111.0", "trial": 3, "time_elapsed": 594494, "serialpos": 18, "key_press": -1, "wordID": 1577, "type": "PRES_VIS", "trial_index": 147}, "uniqueid": "MTK2998:3ATTHHXXWBVNKP83G0DHBD7C5W6IXR", "dateTime": 1519662064148}, {"current_trial": 148, "trialdata": {"rt": -1, "trial_type": "single-stim", "word": "pigeon", "stimulus": "<p id=\"stim\">PIGEON</p>", "conditions": [24, 1600, "v", 12000], "internal_node_id": "0.0-112.0", "trial": 3, "time_elapsed": 597039, "serialpos": 19, "key_press": -1, "wordID": 1064, "type": "PRES_VIS", "trial_index": 148}, "uniqueid": "MTK2998:3ATTHHXXWBVNKP83G0DHBD7C5W6IXR", "dateTime": 1519662066693}, {"current_trial": 149, "trialdata": {"rt": -1, "trial_type": "single-stim", "word": "blade", "stimulus": "<p id=\"stim\">BLADE</p>", "conditions": [24, 1600, "v", 12000], "internal_node_id": "0.0-113.0", "trial": 3, "time_elapsed": 599627, "serialpos": 20, "key_press": -1, "wordID": 133, "type": "PRES_VIS", "trial_index": 149}, "uniqueid": "MTK2998:3ATTHHXXWBVNKP83G0DHBD7C5W6IXR", "dateTime": 1519662069281}, {"current_trial": 150, "trialdata": {"rt": -1, "trial_type": "single-stim", "word": "knife", "stimulus": "<p id=\"stim\">KNIFE</p>", "conditions": [24, 1600, "v", 12000], "internal_node_id": "0.0-114.0", "trial": 3, "time_elapsed": 602187, "serialpos": 21, "key_press": -1, "wordID": 784, "type": "PRES_VIS", "trial_index": 150}, "uniqueid": "MTK2998:3ATTHHXXWBVNKP83G0DHBD7C5W6IXR", "dateTime": 1519662071841}, {"current_trial": 151, "trialdata": {"rt": -1, "trial_type": "single-stim", "word": "witness", "stimulus": "<p id=\"stim\">WITNESS</p>", "conditions": [24, 1600, "v", 12000], "internal_node_id": "0.0-115.0", "trial": 3, "time_elapsed": 604625, "serialpos": 22, "key_press": -1, "wordID": 1617, "type": "PRES_VIS", "trial_index": 151}, "uniqueid": "MTK2998:3ATTHHXXWBVNKP83G0DHBD7C5W6IXR", "dateTime": 1519662074279}, {"current_trial": 152, "trialdata": {"rt": -1, "trial_type": "single-stim", "word": "pork", "stimulus": "<p id=\"stim\">PORK</p>", "conditions": [24, 1600, "v", 12000], "internal_node_id": "0.0-116.0", "trial": 3, "time_elapsed": 607383, "serialpos": 23, "key_press": -1, "wordID": 1107, "type": "PRES_VIS", "trial_index": 152}, "uniqueid": "MTK2998:3ATTHHXXWBVNKP83G0DHBD7C5W6IXR", "dateTime": 1519662077037}, {"current_trial": 153, "trialdata": {"rt": -1, "trial_type": "single-stim", "stimulus": "", "internal_node_id": "0.0-117.0-0.0", "time_elapsed": 609777, "key_press": -1, "type": "PRE_RECALL_DELAY", "trial_index": 153}, "uniqueid": "MTK2998:3ATTHHXXWBVNKP83G0DHBD7C5W6IXR", "dateTime": 1519662079431}, {"current_trial": 154, "trialdata": {"rt": -1000, "trial_type": "single-audio", "stimulus": "/static/audio/400Hz.wav", "internal_node_id": "0.0-118.0", "time_elapsed": 610282, "key_press": -1, "type": "PRE_RECALL_ALERT", "trial_index": 154}, "uniqueid": "MTK2998:3ATTHHXXWBVNKP83G0DHBD7C5W6IXR", "dateTime": 1519662079936}, {"current_trial": 155, "trialdata": {"rt": [1696, 3335, 4629, 6067, 7527, 9149, 10701, 15128, 17821, 19498, 23890, 25162], "recwords": ["blade", "knife", "witness", "pork", "cafe", "radish", "diner", "parsley", "igloo", "beast", "diner", "cafe"], "key_times": [745, 877, 953, 1443, 1573, 1696, 2558, 2641, 2811, 2978, 3102, 3335, 3780, 3896, 4029, 4177, 4252, 4336, 4472, 4629, 5225, 5289, 5421, 5852, 6067, 6964, 7108, 7220, 7360, 7527, 8108, 8200, 8352, 8510, 8574, 8698, 9149, 9818, 9926, 10018, 10236, 10368, 10701, 11086, 11161, 11225, 11341, 11428, 11557, 12872, 13023, 13169, 14125, 14455, 14540, 14664, 15128, 16679, 16829, 16961, 17198, 17347, 17821, 18585, 18672, 18773, 18904, 19049, 19498, 22799, 22901, 22986, 23614, 23706, 23890, 24106, 24242, 24381, 24754, 25162], "trial_type": "free-recall", "conditions": [24, 1600, "v", 12000], "internal_node_id": "0.0-119.0-0.0", "key_presses": [66, 76, 65, 68, 69, 32, 75, 78, 73, 70, 69, 13, 87, 73, 84, 78, 69, 83, 83, 13, 80, 79, 82, 75, 13, 67, 65, 70, 69, 13, 82, 65, 68, 73, 83, 72, 13, 68, 73, 78, 69, 82, 13, 80, 65, 82, 76, 83, 69, 8, 8, 8, 83, 76, 69, 89, 13, 73, 71, 76, 79, 79, 13, 66, 69, 65, 83, 84, 13, 68, 73, 78, 69, 82, 13, 67, 65, 70, 69, 13], "trial": 3, "time_elapsed": 670286, "type": "FREE_RECALL", "trial_index": 155}, "uniqueid": "MTK2998:3ATTHHXXWBVNKP83G0DHBD7C5W6IXR", "dateTime": 1519662139943}, {"current_trial": 156, "trialdata": {"rt": 1594, "trial_type": "text", "internal_node_id": "0.0-120.0", "time_elapsed": 673886, "key_press": 13, "type": "INSTRUCTIONS", "trial_index": 156}, "uniqueid": "MTK2998:3ATTHHXXWBVNKP83G0DHBD7C5W6IXR", "dateTime": 1519662143540}, {"current_trial": 157, "trialdata": {"rt": [3162, 8357, 14610, 15948, 18176, 20928, 23892], "trial_type": "math-distractor", "key_times": [2724, 2865, 3162, 7784, 7875, 8357, 14101, 14196, 14610, 15709, 15847, 15948, 17517, 17788, 18176, 20649, 20761, 20928, 23572, 23760, 23892], "responses": ["14", "21", "26", "11", "10", "13", "14"], "num2": [4, 7, 7, 5, 6, 7, 4, 8], "num3": [3, 6, 9, 1, 1, 2, 7, 3], "conditions": [24, 1600, "v", 24000], "internal_node_id": "0.0-121.0", "key_presses": [49, 52, 13, 50, 49, 13, 50, 54, 13, 49, 49, 13, 49, 48, 13, 49, 51, 13, 49, 52, 13], "trial": 4, "time_elapsed": 699894, "type": "DISTRACTOR", "trial_index": 157, "num1": [7, 8, 8, 5, 3, 4, 3, 7]}, "uniqueid": "MTK2998:3ATTHHXXWBVNKP83G0DHBD7C5W6IXR", "dateTime": 1519662169549}, {"current_trial": 158, "trialdata": {"rt": -1, "trial_type": "single-stim", "stimulus": "<p id=\"stim\">10</p>", "internal_node_id": "0.0-122.0-0.0", "time_elapsed": 702901, "key_press": -1, "trial_index": 158}, "uniqueid": "MTK2998:3ATTHHXXWBVNKP83G0DHBD7C5W6IXR", "dateTime": 1519662172555}, {"current_trial": 159, "trialdata": {"rt": -1, "trial_type": "single-stim", "stimulus": "<p id=\"stim\">9</p>", "internal_node_id": "0.0-122.0-1.0", "time_elapsed": 703905, "key_press": -1, "trial_index": 159}, "uniqueid": "MTK2998:3ATTHHXXWBVNKP83G0DHBD7C5W6IXR", "dateTime": 1519662173559}, {"current_trial": 160, "trialdata": {"rt": -1, "trial_type": "single-stim", "stimulus": "<p id=\"stim\">8</p>", "internal_node_id": "0.0-122.0-2.0", "time_elapsed": 704911, "key_press": -1, "trial_index": 160}, "uniqueid": "MTK2998:3ATTHHXXWBVNKP83G0DHBD7C5W6IXR", "dateTime": 1519662174565}, {"current_trial": 161, "trialdata": {"rt": -1, "trial_type": "single-stim", "stimulus": "<p id=\"stim\">7</p>", "internal_node_id": "0.0-122.0-3.0", "time_elapsed": 705916, "key_press": -1, "trial_index": 161}, "uniqueid": "MTK2998:3ATTHHXXWBVNKP83G0DHBD7C5W6IXR", "dateTime": 1519662175570}, {"current_trial": 162, "trialdata": {"rt": -1, "trial_type": "single-stim", "stimulus": "<p id=\"stim\">6</p>", "internal_node_id": "0.0-122.0-4.0", "time_elapsed": 706922, "key_press": -1, "trial_index": 162}, "uniqueid": "MTK2998:3ATTHHXXWBVNKP83G0DHBD7C5W6IXR", "dateTime": 1519662176576}, {"current_trial": 163, "trialdata": {"rt": -1, "trial_type": "single-stim", "stimulus": "<p id=\"stim\">5</p>", "internal_node_id": "0.0-122.0-5.0", "time_elapsed": 707923, "key_press": -1, "trial_index": 163}, "uniqueid": "MTK2998:3ATTHHXXWBVNKP83G0DHBD7C5W6IXR", "dateTime": 1519662177577}, {"current_trial": 164, "trialdata": {"rt": -1, "trial_type": "single-stim", "stimulus": "<p id=\"stim\">4</p>", "internal_node_id": "0.0-122.0-6.0", "time_elapsed": 708929, "key_press": -1, "trial_index": 164}, "uniqueid": "MTK2998:3ATTHHXXWBVNKP83G0DHBD7C5W6IXR", "dateTime": 1519662178583}, {"current_trial": 165, "trialdata": {"rt": -1, "trial_type": "single-stim", "stimulus": "<p id=\"stim\">3</p>", "internal_node_id": "0.0-122.0-7.0", "time_elapsed": 709935, "key_press": -1, "trial_index": 165}, "uniqueid": "MTK2998:3ATTHHXXWBVNKP83G0DHBD7C5W6IXR", "dateTime": 1519662179589}, {"current_trial": 166, "trialdata": {"rt": -1, "trial_type": "single-stim", "stimulus": "<p id=\"stim\">2</p>", "internal_node_id": "0.0-122.0-8.0", "time_elapsed": 710940, "key_press": -1, "trial_index": 166}, "uniqueid": "MTK2998:3ATTHHXXWBVNKP83G0DHBD7C5W6IXR", "dateTime": 1519662180595}, {"current_trial": 167, "trialdata": {"rt": -1, "trial_type": "single-stim", "stimulus": "<p id=\"stim\">1</p>", "internal_node_id": "0.0-122.0-9.0", "time_elapsed": 711946, "key_press": -1, "trial_index": 167}, "uniqueid": "MTK2998:3ATTHHXXWBVNKP83G0DHBD7C5W6IXR", "dateTime": 1519662181600}, {"current_trial": 168, "trialdata": {"rt": -1, "trial_type": "single-stim", "stimulus": "<p id=\"stim\">+</p>", "internal_node_id": "0.0-123.0-0.0", "time_elapsed": 713450, "key_press": -1, "type": "FIXATION", "trial_index": 168}, "uniqueid": "MTK2998:3ATTHHXXWBVNKP83G0DHBD7C5W6IXR", "dateTime": 1519662183104}, {"current_trial": 169, "trialdata": {"rt": -1, "trial_type": "single-stim", "word": "baby", "stimulus": "<p id=\"stim\">BABY</p>", "conditions": [24, 1600, "v", 24000], "internal_node_id": "0.0-124.0", "trial": 4, "time_elapsed": 715052, "serialpos": 0, "key_press": -1, "wordID": 63, "type": "PRES_VIS", "trial_index": 169}, "uniqueid": "MTK2998:3ATTHHXXWBVNKP83G0DHBD7C5W6IXR", "dateTime": 1519662184706}, {"current_trial": 170, "trialdata": {"rt": -1, "trial_type": "single-stim", "word": "girl", "stimulus": "<p id=\"stim\">GIRL</p>", "conditions": [24, 1600, "v", 24000], "internal_node_id": "0.0-125.0", "trial": 4, "time_elapsed": 717629, "serialpos": 1, "key_press": -1, "wordID": 636, "type": "PRES_VIS", "trial_index": 170}, "uniqueid": "MTK2998:3ATTHHXXWBVNKP83G0DHBD7C5W6IXR", "dateTime": 1519662187283}, {"current_trial": 171, "trialdata": {"rt": -1, "trial_type": "single-stim", "word": "elbow", "stimulus": "<p id=\"stim\">ELBOW</p>", "conditions": [24, 1600, "v", 24000], "internal_node_id": "0.0-126.0", "trial": 4, "time_elapsed": 720230, "serialpos": 2, "key_press": -1, "wordID": 519, "type": "PRES_VIS", "trial_index": 171}, "uniqueid": "MTK2998:3ATTHHXXWBVNKP83G0DHBD7C5W6IXR", "dateTime": 1519662189884}, {"current_trial": 172, "trialdata": {"rt": -1, "trial_type": "single-stim", "word": "spool", "stimulus": "<p id=\"stim\">SPOOL</p>", "conditions": [24, 1600, "v", 24000], "internal_node_id": "0.0-127.0", "trial": 4, "time_elapsed": 722640, "serialpos": 3, "key_press": -1, "wordID": 1355, "type": "PRES_VIS", "trial_index": 172}, "uniqueid": "MTK2998:3ATTHHXXWBVNKP83G0DHBD7C5W6IXR", "dateTime": 1519662192294}, {"current_trial": 173, "trialdata": {"rt": -1, "trial_type": "single-stim", "word": "loft", "stimulus": "<p id=\"stim\">LOFT</p>", "conditions": [24, 1600, "v", 24000], "internal_node_id": "0.0-128.0", "trial": 4, "time_elapsed": 725343, "serialpos": 4, "key_press": -1, "wordID": 839, "type": "PRES_VIS", "trial_index": 173}, "uniqueid": "MTK2998:3ATTHHXXWBVNKP83G0DHBD7C5W6IXR", "dateTime": 1519662194997}, {"current_trial": 174, "trialdata": {"rt": -1, "trial_type": "single-stim", "word": "donkey", "stimulus": "<p id=\"stim\">DONKEY</p>", "conditions": [24, 1600, "v", 24000], "internal_node_id": "0.0-129.0", "trial": 4, "time_elapsed": 727930, "serialpos": 5, "key_press": -1, "wordID": 483, "type": "PRES_VIS", "trial_index": 174}, "uniqueid": "MTK2998:3ATTHHXXWBVNKP83G0DHBD7C5W6IXR", "dateTime": 1519662197584}, {"current_trial": 175, "trialdata": {"rt": -1, "trial_type": "single-stim", "word": "poet", "stimulus": "<p id=\"stim\">POET</p>", "conditions": [24, 1600, "v", 24000], "internal_node_id": "0.0-130.0", "trial": 4, "time_elapsed": 730682, "serialpos": 6, "key_press": -1, "wordID": 1094, "type": "PRES_VIS", "trial_index": 175}, "uniqueid": "MTK2998:3ATTHHXXWBVNKP83G0DHBD7C5W6IXR", "dateTime": 1519662200336}, {"current_trial": 176, "trialdata": {"rt": -1, "trial_type": "single-stim", "word": "cashier", "stimulus": "<p id=\"stim\">CASHIER</p>", "conditions": [24, 1600, "v", 24000], "internal_node_id": "0.0-131.0", "trial": 4, "time_elapsed": 733212, "serialpos": 7, "key_press": -1, "wordID": 253, "type": "PRES_VIS", "trial_index": 176}, "uniqueid": "MTK2998:3ATTHHXXWBVNKP83G0DHBD7C5W6IXR", "dateTime": 1519662202866}, {"current_trial": 177, "trialdata": {"rt": -1, "trial_type": "single-stim", "word": "camel", "stimulus": "<p id=\"stim\">CAMEL</p>", "conditions": [24, 1600, "v", 24000], "internal_node_id": "0.0-132.0", "trial": 4, "time_elapsed": 735690, "serialpos": 8, "key_press": -1, "wordID": 222, "type": "PRES_VIS", "trial_index": 177}, "uniqueid": "MTK2998:3ATTHHXXWBVNKP83G0DHBD7C5W6IXR", "dateTime": 1519662205344}, {"current_trial": 178, "trialdata": {"rt": -1, "trial_type": "single-stim", "word": "preacher", "stimulus": "<p id=\"stim\">PREACHER</p>", "conditions": [24, 1600, "v", 24000], "internal_node_id": "0.0-133.0", "trial": 4, "time_elapsed": 738149, "serialpos": 9, "key_press": -1, "wordID": 1118, "type": "PRES_VIS", "trial_index": 178}, "uniqueid": "MTK2998:3ATTHHXXWBVNKP83G0DHBD7C5W6IXR", "dateTime": 1519662207803}, {"current_trial": 179, "trialdata": {"rt": -1, "trial_type": "single-stim", "word": "penguin", "stimulus": "<p id=\"stim\">PENGUIN</p>", "conditions": [24, 1600, "v", 24000], "internal_node_id": "0.0-134.0", "trial": 4, "time_elapsed": 740733, "serialpos": 10, "key_press": -1, "wordID": 1043, "type": "PRES_VIS", "trial_index": 179}, "uniqueid": "MTK2998:3ATTHHXXWBVNKP83G0DHBD7C5W6IXR", "dateTime": 1519662210387}, {"current_trial": 180, "trialdata": {"rt": -1, "trial_type": "single-stim", "word": "sheriff", "stimulus": "<p id=\"stim\">SHERIFF</p>", "conditions": [24, 1600, "v", 24000], "internal_node_id": "0.0-135.0", "trial": 4, "time_elapsed": 743300, "serialpos": 11, "key_press": -1, "wordID": 1283, "type": "PRES_VIS", "trial_index": 180}, "uniqueid": "MTK2998:3ATTHHXXWBVNKP83G0DHBD7C5W6IXR", "dateTime": 1519662212954}, {"current_trial": 181, "trialdata": {"rt": -1, "trial_type": "single-stim", "word": "grape", "stimulus": "<p id=\"stim\">GRAPE</p>", "conditions": [24, 1600, "v", 24000], "internal_node_id": "0.0-136.0", "trial": 4, "time_elapsed": 745805, "serialpos": 12, "key_press": -1, "wordID": 653, "type": "PRES_VIS", "trial_index": 181}, "uniqueid": "MTK2998:3ATTHHXXWBVNKP83G0DHBD7C5W6IXR", "dateTime": 1519662215459}, {"current_trial": 182, "trialdata": {"rt": -1, "trial_type": "single-stim", "word": "hero", "stimulus": "<p id=\"stim\">HERO</p>", "conditions": [24, 1600, "v", 24000], "internal_node_id": "0.0-137.0", "trial": 4, "time_elapsed": 748612, "serialpos": 13, "key_press": -1, "wordID": 705, "type": "PRES_VIS", "trial_index": 182}, "uniqueid": "MTK2998:3ATTHHXXWBVNKP83G0DHBD7C5W6IXR", "dateTime": 1519662218266}, {"current_trial": 183, "trialdata": {"rt": -1, "trial_type": "single-stim", "word": "atom", "stimulus": "<p id=\"stim\">ATOM</p>", "conditions": [24, 1600, "v", 24000], "internal_node_id": "0.0-138.0", "trial": 4, "time_elapsed": 751228, "serialpos": 14, "key_press": -1, "wordID": 54, "type": "PRES_VIS", "trial_index": 183}, "uniqueid": "MTK2998:3ATTHHXXWBVNKP83G0DHBD7C5W6IXR", "dateTime": 1519662220882}, {"current_trial": 184, "trialdata": {"rt": -1, "trial_type": "single-stim", "word": "paper", "stimulus": "<p id=\"stim\">PAPER</p>", "conditions": [24, 1600, "v", 24000], "internal_node_id": "0.0-139.0", "trial": 4, "time_elapsed": 753759, "serialpos": 15, "key_press": -1, "wordID": 1010, "type": "PRES_VIS", "trial_index": 184}, "uniqueid": "MTK2998:3ATTHHXXWBVNKP83G0DHBD7C5W6IXR", "dateTime": 1519662223413}, {"current_trial": 185, "trialdata": {"rt": -1, "trial_type": "single-stim", "word": "kleenex", "stimulus": "<p id=\"stim\">KLEENEX</p>", "conditions": [24, 1600, "v", 24000], "internal_node_id": "0.0-140.0", "trial": 4, "time_elapsed": 756209, "serialpos": 16, "key_press": -1, "wordID": 781, "type": "PRES_VIS", "trial_index": 185}, "uniqueid": "MTK2998:3ATTHHXXWBVNKP83G0DHBD7C5W6IXR", "dateTime": 1519662225863}, {"current_trial": 186, "trialdata": {"rt": -1, "trial_type": "single-stim", "word": "clock", "stimulus": "<p id=\"stim\">CLOCK</p>", "conditions": [24, 1600, "v", 24000], "internal_node_id": "0.0-141.0", "trial": 4, "time_elapsed": 758729, "serialpos": 17, "key_press": -1, "wordID": 324, "type": "PRES_VIS", "trial_index": 186}, "uniqueid": "MTK2998:3ATTHHXXWBVNKP83G0DHBD7C5W6IXR", "dateTime": 1519662228383}, {"current_trial": 187, "trialdata": {"rt": -1, "trial_type": "single-stim", "word": "pecan", "stimulus": "<p id=\"stim\">PECAN</p>", "conditions": [24, 1600, "v", 24000], "internal_node_id": "0.0-142.0", "trial": 4, "time_elapsed": 761415, "serialpos": 18, "key_press": -1, "wordID": 1035, "type": "PRES_VIS", "trial_index": 187}, "uniqueid": "MTK2998:3ATTHHXXWBVNKP83G0DHBD7C5W6IXR", "dateTime": 1519662231069}, {"current_trial": 188, "trialdata": {"rt": -1, "trial_type": "single-stim", "word": "slide", "stimulus": "<p id=\"stim\">SLIDE</p>", "conditions": [24, 1600, "v", 24000], "internal_node_id": "0.0-143.0", "trial": 4, "time_elapsed": 764220, "serialpos": 19, "key_press": -1, "wordID": 1325, "type": "PRES_VIS", "trial_index": 188}, "uniqueid": "MTK2998:3ATTHHXXWBVNKP83G0DHBD7C5W6IXR", "dateTime": 1519662233874}, {"current_trial": 189, "trialdata": {"rt": -1, "trial_type": "single-stim", "word": "canyon", "stimulus": "<p id=\"stim\">CANYON</p>", "conditions": [24, 1600, "v", 24000], "internal_node_id": "0.0-144.0", "trial": 4, "time_elapsed": 766830, "serialpos": 20, "key_press": -1, "wordID": 234, "type": "PRES_VIS", "trial_index": 189}, "uniqueid": "MTK2998:3ATTHHXXWBVNKP83G0DHBD7C5W6IXR", "dateTime": 1519662236484}, {"current_trial": 190, "trialdata": {"rt": -1, "trial_type": "single-stim", "word": "valley", "stimulus": "<p id=\"stim\">VALLEY</p>", "conditions": [24, 1600, "v", 24000], "internal_node_id": "0.0-145.0", "trial": 4, "time_elapsed": 769520, "serialpos": 21, "key_press": -1, "wordID": 1544, "type": "PRES_VIS", "trial_index": 190}, "uniqueid": "MTK2998:3ATTHHXXWBVNKP83G0DHBD7C5W6IXR", "dateTime": 1519662239174}, {"current_trial": 191, "trialdata": {"rt": -1, "trial_type": "single-stim", "word": "sunrise", "stimulus": "<p id=\"stim\">SUNRISE</p>", "conditions": [24, 1600, "v", 24000], "internal_node_id": "0.0-146.0", "trial": 4, "time_elapsed": 772115, "serialpos": 22, "key_press": -1, "wordID": 1406, "type": "PRES_VIS", "trial_index": 191}, "uniqueid": "MTK2998:3ATTHHXXWBVNKP83G0DHBD7C5W6IXR", "dateTime": 1519662241769}, {"current_trial": 192, "trialdata": {"rt": -1, "trial_type": "single-stim", "word": "peanut", "stimulus": "<p id=\"stim\">PEANUT</p>", "conditions": [24, 1600, "v", 24000], "internal_node_id": "0.0-147.0", "trial": 4, "time_elapsed": 774630, "serialpos": 23, "key_press": -1, "wordID": 1031, "type": "PRES_VIS", "trial_index": 192}, "uniqueid": "MTK2998:3ATTHHXXWBVNKP83G0DHBD7C5W6IXR", "dateTime": 1519662244284}, {"current_trial": 193, "trialdata": {"rt": -1, "trial_type": "single-stim", "stimulus": "", "internal_node_id": "0.0-148.0-0.0", "time_elapsed": 777027, "key_press": -1, "type": "PRE_RECALL_DELAY", "trial_index": 193}, "uniqueid": "MTK2998:3ATTHHXXWBVNKP83G0DHBD7C5W6IXR", "dateTime": 1519662246681}, {"current_trial": 194, "trialdata": {"rt": -1000, "trial_type": "single-audio", "stimulus": "/static/audio/400Hz.wav", "internal_node_id": "0.0-149.0", "time_elapsed": 777530, "key_press": -1, "type": "PRE_RECALL_ALERT", "trial_index": 194}, "uniqueid": "MTK2998:3ATTHHXXWBVNKP83G0DHBD7C5W6IXR", "dateTime": 1519662247186}, {"current_trial": 195, "trialdata": {"rt": [1831, 2956, 4634, 6547, 9339, 10325, 11842, 13396, 14783, 16385, 22171, 24518], "recwords": ["canyon", "valley", "sunrise", "peanut", "elbow", "camel", "donkey", "baby", "girl", "sheriff", "paper", "kleenex"], "key_times": [542, 598, 983, 1268, 1374, 1442, 1831, 2034, 2176, 2327, 2480, 2595, 2719, 2956, 3395, 3542, 3708, 4120, 4262, 4363, 4479, 4634, 5524, 5575, 5664, 5822, 6014, 6166, 6547, 7165, 7292, 7725, 7854, 8880, 9339, 9568, 9676, 9785, 9956, 10088, 10325, 10803, 10911, 10991, 11164, 11296, 11416, 11842, 12470, 12569, 12665, 12948, 13396, 13927, 14059, 14164, 14288, 14783, 15404, 15560, 15651, 15723, 15918, 16010, 16157, 16385, 21413, 21485, 21618, 21730, 21830, 22171, 22674, 22923, 23080, 23232, 23366, 23511, 24331, 24518], "trial_type": "free-recall", "conditions": [24, 1600, "v", 24000], "internal_node_id": "0.0-150.0-0.0", "key_presses": [67, 65, 78, 89, 79, 78, 13, 86, 65, 76, 76, 69, 89, 13, 83, 85, 78, 82, 73, 83, 69, 13, 80, 69, 65, 78, 85, 84, 13, 69, 76, 66, 79, 87, 13, 67, 65, 77, 69, 76, 13, 68, 79, 78, 75, 69, 89, 13, 66, 65, 66, 89, 13, 71, 73, 82, 76, 13, 83, 72, 69, 82, 73, 70, 70, 13, 80, 65, 80, 69, 82, 13, 75, 76, 69, 69, 78, 69, 88, 13], "trial": 4, "time_elapsed": 837536, "type": "FREE_RECALL", "trial_index": 195}, "uniqueid": "MTK2998:3ATTHHXXWBVNKP83G0DHBD7C5W6IXR", "dateTime": 1519662307193}, {"current_trial": 196, "trialdata": {"rt": 1981, "trial_type": "text", "internal_node_id": "0.0-151.0", "time_elapsed": 841525, "key_press": 32, "type": "INSTRUCTIONS", "trial_index": 196}, "uniqueid": "MTK2998:3ATTHHXXWBVNKP83G0DHBD7C5W6IXR", "dateTime": 1519662311180}, {"current_trial": 197, "trialdata": {"rt": [2496, 4428, 8210, 12129, 14920, 17912, 22270], "trial_type": "math-distractor", "key_times": [2303, 2376, 2496, 4134, 4249, 4428, 8041, 8102, 8210, 11662, 11758, 12129, 14560, 14745, 14920, 16258, 17768, 17912, 21371, 21647, 22270], "responses": ["12", "10", "21", "18", "15", "18", "17"], "num2": [7, 5, 8, 5, 4, 5, 2, 9], "num3": [3, 4, 4, 4, 8, 8, 6, 8], "conditions": [24, 800, "v", 24000], "internal_node_id": "0.0-152.0", "key_presses": [49, 50, 13, 49, 48, 13, 50, 49, 13, 49, 56, 13, 49, 53, 13, 49, 56, 13, 49, 55, 13], "trial": 5, "time_elapsed": 867536, "type": "DISTRACTOR", "trial_index": 197, "num1": [2, 1, 9, 9, 3, 5, 9, 5]}, "uniqueid": "MTK2998:3ATTHHXXWBVNKP83G0DHBD7C5W6IXR", "dateTime": 1519662337190}, {"current_trial": 198, "trialdata": {"rt": -1, "trial_type": "single-stim", "stimulus": "<p id=\"stim\">10</p>", "internal_node_id": "0.0-153.0-0.0", "time_elapsed": 870545, "key_press": -1, "trial_index": 198}, "uniqueid": "MTK2998:3ATTHHXXWBVNKP83G0DHBD7C5W6IXR", "dateTime": 1519662340199}, {"current_trial": 199, "trialdata": {"rt": -1, "trial_type": "single-stim", "stimulus": "<p id=\"stim\">9</p>", "internal_node_id": "0.0-153.0-1.0", "time_elapsed": 871550, "key_press": -1, "trial_index": 199}, "uniqueid": "MTK2998:3ATTHHXXWBVNKP83G0DHBD7C5W6IXR", "dateTime": 1519662341204}, {"current_trial": 200, "trialdata": {"rt": -1, "trial_type": "single-stim", "stimulus": "<p id=\"stim\">8</p>", "internal_node_id": "0.0-153.0-2.0", "time_elapsed": 872552, "key_press": -1, "trial_index": 200}, "uniqueid": "MTK2998:3ATTHHXXWBVNKP83G0DHBD7C5W6IXR", "dateTime": 1519662342206}, {"current_trial": 201, "trialdata": {"rt": -1, "trial_type": "single-stim", "stimulus": "<p id=\"stim\">7</p>", "internal_node_id": "0.0-153.0-3.0", "time_elapsed": 873557, "key_press": -1, "trial_index": 201}, "uniqueid": "MTK2998:3ATTHHXXWBVNKP83G0DHBD7C5W6IXR", "dateTime": 1519662343211}, {"current_trial": 202, "trialdata": {"rt": -1, "trial_type": "single-stim", "stimulus": "<p id=\"stim\">6</p>", "internal_node_id": "0.0-153.0-4.0", "time_elapsed": 874562, "key_press": -1, "trial_index": 202}, "uniqueid": "MTK2998:3ATTHHXXWBVNKP83G0DHBD7C5W6IXR", "dateTime": 1519662344217}, {"current_trial": 203, "trialdata": {"rt": -1, "trial_type": "single-stim", "stimulus": "<p id=\"stim\">5</p>", "internal_node_id": "0.0-153.0-5.0", "time_elapsed": 875567, "key_press": -1, "trial_index": 203}, "uniqueid": "MTK2998:3ATTHHXXWBVNKP83G0DHBD7C5W6IXR", "dateTime": 1519662345221}, {"current_trial": 204, "trialdata": {"rt": -1, "trial_type": "single-stim", "stimulus": "<p id=\"stim\">4</p>", "internal_node_id": "0.0-153.0-6.0", "time_elapsed": 876573, "key_press": -1, "trial_index": 204}, "uniqueid": "MTK2998:3ATTHHXXWBVNKP83G0DHBD7C5W6IXR", "dateTime": 1519662346227}, {"current_trial": 205, "trialdata": {"rt": -1, "trial_type": "single-stim", "stimulus": "<p id=\"stim\">3</p>", "internal_node_id": "0.0-153.0-7.0", "time_elapsed": 877578, "key_press": -1, "trial_index": 205}, "uniqueid": "MTK2998:3ATTHHXXWBVNKP83G0DHBD7C5W6IXR", "dateTime": 1519662347232}, {"current_trial": 206, "trialdata": {"rt": -1, "trial_type": "single-stim", "stimulus": "<p id=\"stim\">2</p>", "internal_node_id": "0.0-153.0-8.0", "time_elapsed": 878584, "key_press": -1, "trial_index": 206}, "uniqueid": "MTK2998:3ATTHHXXWBVNKP83G0DHBD7C5W6IXR", "dateTime": 1519662348238}, {"current_trial": 207, "trialdata": {"rt": -1, "trial_type": "single-stim", "stimulus": "<p id=\"stim\">1</p>", "internal_node_id": "0.0-153.0-9.0", "time_elapsed": 879585, "key_press": -1, "trial_index": 207}, "uniqueid": "MTK2998:3ATTHHXXWBVNKP83G0DHBD7C5W6IXR", "dateTime": 1519662349239}, {"current_trial": 208, "trialdata": {"rt": -1, "trial_type": "single-stim", "stimulus": "<p id=\"stim\">+</p>", "internal_node_id": "0.0-154.0-0.0", "time_elapsed": 881089, "key_press": -1, "type": "FIXATION", "trial_index": 208}, "uniqueid": "MTK2998:3ATTHHXXWBVNKP83G0DHBD7C5W6IXR", "dateTime": 1519662350744}, {"current_trial": 209, "trialdata": {"rt": -1, "trial_type": "single-stim", "word": "chemist", "stimulus": "<p id=\"stim\">CHEMIST</p>", "conditions": [24, 800, "v", 24000], "internal_node_id": "0.0-155.0", "trial": 5, "time_elapsed": 881891, "serialpos": 0, "key_press": -1, "wordID": 291, "type": "PRES_VIS", "trial_index": 209}, "uniqueid": "MTK2998:3ATTHHXXWBVNKP83G0DHBD7C5W6IXR", "dateTime": 1519662351546}, {"current_trial": 210, "trialdata": {"rt": -1, "trial_type": "single-stim", "word": "pastry", "stimulus": "<p id=\"stim\">PASTRY</p>", "conditions": [24, 800, "v", 24000], "internal_node_id": "0.0-156.0", "trial": 5, "time_elapsed": 883620, "serialpos": 1, "key_press": -1, "wordID": 1021, "type": "PRES_VIS", "trial_index": 210}, "uniqueid": "MTK2998:3ATTHHXXWBVNKP83G0DHBD7C5W6IXR", "dateTime": 1519662353274}, {"current_trial": 211, "trialdata": {"rt": -1, "trial_type": "single-stim", "word": "garden", "stimulus": "<p id=\"stim\">GARDEN</p>", "conditions": [24, 800, "v", 24000], "internal_node_id": "0.0-157.0", "trial": 5, "time_elapsed": 885508, "serialpos": 2, "key_press": -1, "wordID": 622, "type": "PRES_VIS", "trial_index": 211}, "uniqueid": "MTK2998:3ATTHHXXWBVNKP83G0DHBD7C5W6IXR", "dateTime": 1519662355162}, {"current_trial": 212, "trialdata": {"rt": -1, "trial_type": "single-stim", "word": "panther", "stimulus": "<p id=\"stim\">PANTHER</p>", "conditions": [24, 800, "v", 24000], "internal_node_id": "0.0-158.0", "trial": 5, "time_elapsed": 887473, "serialpos": 3, "key_press": -1, "wordID": 1008, "type": "PRES_VIS", "trial_index": 212}, "uniqueid": "MTK2998:3ATTHHXXWBVNKP83G0DHBD7C5W6IXR", "dateTime": 1519662357127}, {"current_trial": 213, "trialdata": {"rt": -1, "trial_type": "single-stim", "word": "piston", "stimulus": "<p id=\"stim\">PISTON</p>", "conditions": [24, 800, "v", 24000], "internal_node_id": "0.0-159.0", "trial": 5, "time_elapsed": 889483, "serialpos": 4, "key_press": -1, "wordID": 1075, "type": "PRES_VIS", "trial_index": 213}, "uniqueid": "MTK2998:3ATTHHXXWBVNKP83G0DHBD7C5W6IXR", "dateTime": 1519662359137}, {"current_trial": 214, "trialdata": {"rt": -1, "trial_type": "single-stim", "word": "leopard", "stimulus": "<p id=\"stim\">LEOPARD</p>", "conditions": [24, 800, "v", 24000], "internal_node_id": "0.0-160.0", "trial": 5, "time_elapsed": 891195, "serialpos": 5, "key_press": -1, "wordID": 811, "type": "PRES_VIS", "trial_index": 214}, "uniqueid": "MTK2998:3ATTHHXXWBVNKP83G0DHBD7C5W6IXR", "dateTime": 1519662360849}, {"current_trial": 215, "trialdata": {"rt": -1, "trial_type": "single-stim", "word": "shrub", "stimulus": "<p id=\"stim\">SHRUB</p>", "conditions": [24, 800, "v", 24000], "internal_node_id": "0.0-161.0", "trial": 5, "time_elapsed": 893122, "serialpos": 6, "key_press": -1, "wordID": 1298, "type": "PRES_VIS", "trial_index": 215}, "uniqueid": "MTK2998:3ATTHHXXWBVNKP83G0DHBD7C5W6IXR", "dateTime": 1519662362776}, {"current_trial": 216, "trialdata": {"rt": -1, "trial_type": "single-stim", "word": "chest", "stimulus": "<p id=\"stim\">CHEST</p>", "conditions": [24, 800, "v", 24000], "internal_node_id": "0.0-162.0", "trial": 5, "time_elapsed": 894933, "serialpos": 7, "key_press": -1, "wordID": 294, "type": "PRES_VIS", "trial_index": 216}, "uniqueid": "MTK2998:3ATTHHXXWBVNKP83G0DHBD7C5W6IXR", "dateTime": 1519662364587}, {"current_trial": 217, "trialdata": {"rt": -1, "trial_type": "single-stim", "word": "cod", "stimulus": "<p id=\"stim\">COD</p>", "conditions": [24, 800, "v", 24000], "internal_node_id": "0.0-163.0", "trial": 5, "time_elapsed": 896889, "serialpos": 8, "key_press": -1, "wordID": 339, "type": "PRES_VIS", "trial_index": 217}, "uniqueid": "MTK2998:3ATTHHXXWBVNKP83G0DHBD7C5W6IXR", "dateTime": 1519662366543}, {"current_trial": 218, "trialdata": {"rt": -1, "trial_type": "single-stim", "word": "scallop", "stimulus": "<p id=\"stim\">SCALLOP</p>", "conditions": [24, 800, "v", 24000], "internal_node_id": "0.0-164.0", "trial": 5, "time_elapsed": 898634, "serialpos": 9, "key_press": -1, "wordID": 1241, "type": "PRES_VIS", "trial_index": 218}, "uniqueid": "MTK2998:3ATTHHXXWBVNKP83G0DHBD7C5W6IXR", "dateTime": 1519662368288}, {"current_trial": 219, "trialdata": {"rt": -1, "trial_type": "single-stim", "word": "knapsack", "stimulus": "<p id=\"stim\">KNAPSACK</p>", "conditions": [24, 800, "v", 24000], "internal_node_id": "0.0-165.0", "trial": 5, "time_elapsed": 900300, "serialpos": 10, "key_press": -1, "wordID": 782, "type": "PRES_VIS", "trial_index": 219}, "uniqueid": "MTK2998:3ATTHHXXWBVNKP83G0DHBD7C5W6IXR", "dateTime": 1519662369954}, {"current_trial": 220, "trialdata": {"rt": -1, "trial_type": "single-stim", "word": "body", "stimulus": "<p id=\"stim\">BODY</p>", "conditions": [24, 800, "v", 24000], "internal_node_id": "0.0-166.0", "trial": 5, "time_elapsed": 902188, "serialpos": 11, "key_press": -1, "wordID": 144, "type": "PRES_VIS", "trial_index": 220}, "uniqueid": "MTK2998:3ATTHHXXWBVNKP83G0DHBD7C5W6IXR", "dateTime": 1519662371842}, {"current_trial": 221, "trialdata": {"rt": -1, "trial_type": "single-stim", "word": "expert", "stimulus": "<p id=\"stim\">EXPERT</p>", "conditions": [24, 800, "v", 24000], "internal_node_id": "0.0-167.0", "trial": 5, "time_elapsed": 903982, "serialpos": 12, "key_press": -1, "wordID": 542, "type": "PRES_VIS", "trial_index": 221}, "uniqueid": "MTK2998:3ATTHHXXWBVNKP83G0DHBD7C5W6IXR", "dateTime": 1519662373636}, {"current_trial": 222, "trialdata": {"rt": -1, "trial_type": "single-stim", "word": "author", "stimulus": "<p id=\"stim\">AUTHOR</p>", "conditions": [24, 800, "v", 24000], "internal_node_id": "0.0-168.0", "trial": 5, "time_elapsed": 905967, "serialpos": 13, "key_press": -1, "wordID": 60, "type": "PRES_VIS", "trial_index": 222}, "uniqueid": "MTK2998:3ATTHHXXWBVNKP83G0DHBD7C5W6IXR", "dateTime": 1519662375621}, {"current_trial": 223, "trialdata": {"rt": -1, "trial_type": "single-stim", "word": "sphinx", "stimulus": "<p id=\"stim\">SPHINX</p>", "conditions": [24, 800, "v", 24000], "internal_node_id": "0.0-169.0", "trial": 5, "time_elapsed": 907734, "serialpos": 14, "key_press": -1, "wordID": 1348, "type": "PRES_VIS", "trial_index": 223}, "uniqueid": "MTK2998:3ATTHHXXWBVNKP83G0DHBD7C5W6IXR", "dateTime": 1519662377388}, {"current_trial": 224, "trialdata": {"rt": -1, "trial_type": "single-stim", "word": "perch", "stimulus": "<p id=\"stim\">PERCH</p>", "conditions": [24, 800, "v", 24000], "internal_node_id": "0.0-170.0", "trial": 5, "time_elapsed": 909667, "serialpos": 15, "key_press": -1, "wordID": 1047, "type": "PRES_VIS", "trial_index": 224}, "uniqueid": "MTK2998:3ATTHHXXWBVNKP83G0DHBD7C5W6IXR", "dateTime": 1519662379322}, {"current_trial": 225, "trialdata": {"rt": -1, "trial_type": "single-stim", "word": "salad", "stimulus": "<p id=\"stim\">SALAD</p>", "conditions": [24, 800, "v", 24000], "internal_node_id": "0.0-171.0", "trial": 5, "time_elapsed": 911503, "serialpos": 16, "key_press": -1, "wordID": 1223, "type": "PRES_VIS", "trial_index": 225}, "uniqueid": "MTK2998:3ATTHHXXWBVNKP83G0DHBD7C5W6IXR", "dateTime": 1519662381157}, {"current_trial": 226, "trialdata": {"rt": -1, "trial_type": "single-stim", "word": "bacon", "stimulus": "<p id=\"stim\">BACON</p>", "conditions": [24, 800, "v", 24000], "internal_node_id": "0.0-172.0", "trial": 5, "time_elapsed": 913467, "serialpos": 17, "key_press": -1, "wordID": 66, "type": "PRES_VIS", "trial_index": 226}, "uniqueid": "MTK2998:3ATTHHXXWBVNKP83G0DHBD7C5W6IXR", "dateTime": 1519662383122}, {"current_trial": 227, "trialdata": {"rt": -1, "trial_type": "single-stim", "word": "lake", "stimulus": "<p id=\"stim\">LAKE</p>", "conditions": [24, 800, "v", 24000], "internal_node_id": "0.0-173.0", "trial": 5, "time_elapsed": 915107, "serialpos": 18, "key_press": -1, "wordID": 795, "type": "PRES_VIS", "trial_index": 227}, "uniqueid": "MTK2998:3ATTHHXXWBVNKP83G0DHBD7C5W6IXR", "dateTime": 1519662384761}, {"current_trial": 228, "trialdata": {"rt": -1, "trial_type": "single-stim", "word": "jello", "stimulus": "<p id=\"stim\">JELLO</p>", "conditions": [24, 800, "v", 24000], "internal_node_id": "0.0-174.0", "trial": 5, "time_elapsed": 917084, "serialpos": 19, "key_press": -1, "wordID": 753, "type": "PRES_VIS", "trial_index": 228}, "uniqueid": "MTK2998:3ATTHHXXWBVNKP83G0DHBD7C5W6IXR", "dateTime": 1519662386739}, {"current_trial": 229, "trialdata": {"rt": -1, "trial_type": "single-stim", "word": "lettuce", "stimulus": "<p id=\"stim\">LETTUCE</p>", "conditions": [24, 800, "v", 24000], "internal_node_id": "0.0-175.0", "trial": 5, "time_elapsed": 918734, "serialpos": 20, "key_press": -1, "wordID": 813, "type": "PRES_VIS", "trial_index": 229}, "uniqueid": "MTK2998:3ATTHHXXWBVNKP83G0DHBD7C5W6IXR", "dateTime": 1519662388388}, {"current_trial": 230, "trialdata": {"rt": -1, "trial_type": "single-stim", "word": "turnip", "stimulus": "<p id=\"stim\">TURNIP</p>", "conditions": [24, 800, "v", 24000], "internal_node_id": "0.0-176.0", "trial": 5, "time_elapsed": 920518, "serialpos": 21, "key_press": -1, "wordID": 1520, "type": "PRES_VIS", "trial_index": 230}, "uniqueid": "MTK2998:3ATTHHXXWBVNKP83G0DHBD7C5W6IXR", "dateTime": 1519662390172}, {"current_trial": 231, "trialdata": {"rt": -1, "trial_type": "single-stim", "word": "couch", "stimulus": "<p id=\"stim\">COUCH</p>", "conditions": [24, 800, "v", 24000], "internal_node_id": "0.0-177.0", "trial": 5, "time_elapsed": 922177, "serialpos": 22, "key_press": -1, "wordID": 385, "type": "PRES_VIS", "trial_index": 231}, "uniqueid": "MTK2998:3ATTHHXXWBVNKP83G0DHBD7C5W6IXR", "dateTime": 1519662391831}, {"current_trial": 232, "trialdata": {"rt": -1, "trial_type": "single-stim", "word": "cabbage", "stimulus": "<p id=\"stim\">CABBAGE</p>", "conditions": [24, 800, "v", 24000], "internal_node_id": "0.0-178.0", "trial": 5, "time_elapsed": 923865, "serialpos": 23, "key_press": -1, "wordID": 209, "type": "PRES_VIS", "trial_index": 232}, "uniqueid": "MTK2998:3ATTHHXXWBVNKP83G0DHBD7C5W6IXR", "dateTime": 1519662393519}, {"current_trial": 233, "trialdata": {"rt": -1, "trial_type": "single-stim", "stimulus": "", "internal_node_id": "0.0-179.0-0.0", "time_elapsed": 926134, "key_press": -1, "type": "PRE_RECALL_DELAY", "trial_index": 233}, "uniqueid": "MTK2998:3ATTHHXXWBVNKP83G0DHBD7C5W6IXR", "dateTime": 1519662395788}, {"current_trial": 234, "trialdata": {"rt": -1000, "trial_type": "single-audio", "stimulus": "/static/audio/400Hz.wav", "internal_node_id": "0.0-180.0", "time_elapsed": 926638, "key_press": -1, "type": "PRE_RECALL_ALERT", "trial_index": 234}, "uniqueid": "MTK2998:3ATTHHXXWBVNKP83G0DHBD7C5W6IXR", "dateTime": 1519662396292}, {"current_trial": 235, "trialdata": {"rt": [2143, 4577, 6973, 8993, 11006, 12516, 14135, 17530, 25020, 29696, 36698, 41643], "recwords": ["cabbage", "lettuce", "turnip", "panther", "pastry", "kitchen", "piston", "body", "turnip", "cod", "kitchen", "panther"], "key_times": [547, 709, 1088, 1238, 1339, 1515, 1630, 2143, 2622, 2793, 2956, 3121, 3249, 3913, 4058, 4577, 4929, 5113, 6006, 6216, 6360, 6544, 6973, 7317, 7470, 7558, 7724, 8174, 8245, 8341, 8993, 9678, 9802, 9927, 10126, 10384, 10578, 11006, 11378, 11545, 11688, 11903, 12024, 12127, 12248, 12516, 13095, 13159, 13227, 13395, 13527, 13611, 14135, 16577, 16707, 16829, 16972, 17530, 23275, 23386, 23482, 23592, 23734, 24483, 25020, 28575, 28686, 28795, 29141, 29284, 29696, 35639, 35785, 35873, 36090, 36210, 36314, 36440, 36698, 40660, 40775, 40858, 40954, 41109, 41229, 41309, 41643], "trial_type": "free-recall", "conditions": [24, 800, "v", 24000], "internal_node_id": "0.0-181.0-0.0", "key_presses": [67, 65, 66, 66, 65, 71, 69, 13, 76, 69, 84, 84, 85, 67, 69, 13, 84, 85, 82, 78, 73, 80, 13, 80, 65, 78, 84, 72, 69, 82, 13, 80, 65, 83, 84, 82, 89, 13, 75, 73, 84, 67, 72, 69, 78, 13, 80, 73, 83, 84, 79, 78, 13, 66, 79, 68, 89, 13, 84, 85, 82, 78, 73, 80, 13, 67, 79, 80, 8, 68, 13, 75, 73, 84, 67, 72, 69, 78, 13, 80, 65, 78, 84, 72, 69, 82, 13], "trial": 5, "time_elapsed": 986647, "type": "FREE_RECALL", "trial_index": 235}, "uniqueid": "MTK2998:3ATTHHXXWBVNKP83G0DHBD7C5W6IXR", "dateTime": 1519662456305}, {"current_trial": 236, "trialdata": {"rt": 5163, "trial_type": "text", "internal_node_id": "0.0-182.0", "time_elapsed": 993821, "key_press": 13, "type": "INSTRUCTIONS", "trial_index": 236}, "uniqueid": "MTK2998:3ATTHHXXWBVNKP83G0DHBD7C5W6IXR", "dateTime": 1519662463475}, {"current_trial": 237, "trialdata": {"rt": [5540], "trial_type": "math-distractor", "key_times": [5017, 5540], "responses": ["9"], "num2": [2, 3], "num3": [2, 5], "conditions": [12, 800, "v", 12000], "internal_node_id": "0.0-183.0", "key_presses": [57, 13], "trial": 6, "time_elapsed": 1007832, "type": "DISTRACTOR", "trial_index": 237, "num1": [5, 9]}, "uniqueid": "MTK2998:3ATTHHXXWBVNKP83G0DHBD7C5W6IXR", "dateTime": 1519662477486}, {"current_trial": 238, "trialdata": {"rt": -1, "trial_type": "single-stim", "stimulus": "<p id=\"stim\">10</p>", "internal_node_id": "0.0-184.0-0.0", "time_elapsed": 1010839, "key_press": -1, "trial_index": 238}, "uniqueid": "MTK2998:3ATTHHXXWBVNKP83G0DHBD7C5W6IXR", "dateTime": 1519662480493}, {"current_trial": 239, "trialdata": {"rt": -1, "trial_type": "single-stim", "stimulus": "<p id=\"stim\">9</p>", "internal_node_id": "0.0-184.0-1.0", "time_elapsed": 1011843, "key_press": -1, "trial_index": 239}, "uniqueid": "MTK2998:3ATTHHXXWBVNKP83G0DHBD7C5W6IXR", "dateTime": 1519662481498}, {"current_trial": 240, "trialdata": {"rt": -1, "trial_type": "single-stim", "stimulus": "<p id=\"stim\">8</p>", "internal_node_id": "0.0-184.0-2.0", "time_elapsed": 1012848, "key_press": -1, "trial_index": 240}, "uniqueid": "MTK2998:3ATTHHXXWBVNKP83G0DHBD7C5W6IXR", "dateTime": 1519662482502}, {"current_trial": 241, "trialdata": {"rt": -1, "trial_type": "single-stim", "stimulus": "<p id=\"stim\">7</p>", "internal_node_id": "0.0-184.0-3.0", "time_elapsed": 1013854, "key_press": -1, "trial_index": 241}, "uniqueid": "MTK2998:3ATTHHXXWBVNKP83G0DHBD7C5W6IXR", "dateTime": 1519662483508}, {"current_trial": 242, "trialdata": {"rt": -1, "trial_type": "single-stim", "stimulus": "<p id=\"stim\">6</p>", "internal_node_id": "0.0-184.0-4.0", "time_elapsed": 1014859, "key_press": -1, "trial_index": 242}, "uniqueid": "MTK2998:3ATTHHXXWBVNKP83G0DHBD7C5W6IXR", "dateTime": 1519662484513}, {"current_trial": 243, "trialdata": {"rt": -1, "trial_type": "single-stim", "stimulus": "<p id=\"stim\">5</p>", "internal_node_id": "0.0-184.0-5.0", "time_elapsed": 1015863, "key_press": -1, "trial_index": 243}, "uniqueid": "MTK2998:3ATTHHXXWBVNKP83G0DHBD7C5W6IXR", "dateTime": 1519662485517}, {"current_trial": 244, "trialdata": {"rt": -1, "trial_type": "single-stim", "stimulus": "<p id=\"stim\">4</p>", "internal_node_id": "0.0-184.0-6.0", "time_elapsed": 1016869, "key_press": -1, "trial_index": 244}, "uniqueid": "MTK2998:3ATTHHXXWBVNKP83G0DHBD7C5W6IXR", "dateTime": 1519662486523}, {"current_trial": 245, "trialdata": {"rt": -1, "trial_type": "single-stim", "stimulus": "<p id=\"stim\">3</p>", "internal_node_id": "0.0-184.0-7.0", "time_elapsed": 1017871, "key_press": -1, "trial_index": 245}, "uniqueid": "MTK2998:3ATTHHXXWBVNKP83G0DHBD7C5W6IXR", "dateTime": 1519662487525}, {"current_trial": 246, "trialdata": {"rt": -1, "trial_type": "single-stim", "stimulus": "<p id=\"stim\">2</p>", "internal_node_id": "0.0-184.0-8.0", "time_elapsed": 1018877, "key_press": -1, "trial_index": 246}, "uniqueid": "MTK2998:3ATTHHXXWBVNKP83G0DHBD7C5W6IXR", "dateTime": 1519662488531}, {"current_trial": 247, "trialdata": {"rt": -1, "trial_type": "single-stim", "stimulus": "<p id=\"stim\">1</p>", "internal_node_id": "0.0-184.0-9.0", "time_elapsed": 1019881, "key_press": -1, "trial_index": 247}, "uniqueid": "MTK2998:3ATTHHXXWBVNKP83G0DHBD7C5W6IXR", "dateTime": 1519662489535}, {"current_trial": 248, "trialdata": {"rt": -1, "trial_type": "single-stim", "stimulus": "<p id=\"stim\">+</p>", "internal_node_id": "0.0-185.0-0.0", "time_elapsed": 1021387, "key_press": -1, "type": "FIXATION", "trial_index": 248}, "uniqueid": "MTK2998:3ATTHHXXWBVNKP83G0DHBD7C5W6IXR", "dateTime": 1519662491041}, {"current_trial": 249, "trialdata": {"rt": -1, "trial_type": "single-stim", "word": "hood", "stimulus": "<p id=\"stim\">HOOD</p>", "conditions": [12, 800, "v", 12000], "internal_node_id": "0.0-186.0", "trial": 6, "time_elapsed": 1022188, "serialpos": 0, "key_press": -1, "wordID": 713, "type": "PRES_VIS", "trial_index": 249}, "uniqueid": "MTK2998:3ATTHHXXWBVNKP83G0DHBD7C5W6IXR", "dateTime": 1519662491843}, {"current_trial": 250, "trialdata": {"rt": -1, "trial_type": "single-stim", "word": "chapel", "stimulus": "<p id=\"stim\">CHAPEL</p>", "conditions": [12, 800, "v", 12000], "internal_node_id": "0.0-187.0", "trial": 6, "time_elapsed": 1024152, "serialpos": 1, "key_press": -1, "wordID": 279, "type": "PRES_VIS", "trial_index": 250}, "uniqueid": "MTK2998:3ATTHHXXWBVNKP83G0DHBD7C5W6IXR", "dateTime": 1519662493806}, {"current_trial": 251, "trialdata": {"rt": -1, "trial_type": "single-stim", "word": "church", "stimulus": "<p id=\"stim\">CHURCH</p>", "conditions": [12, 800, "v", 12000], "internal_node_id": "0.0-188.0", "trial": 6, "time_elapsed": 1025948, "serialpos": 2, "key_press": -1, "wordID": 306, "type": "PRES_VIS", "trial_index": 251}, "uniqueid": "MTK2998:3ATTHHXXWBVNKP83G0DHBD7C5W6IXR", "dateTime": 1519662495602}, {"current_trial": 252, "trialdata": {"rt": -1, "trial_type": "single-stim", "word": "pizza", "stimulus": "<p id=\"stim\">PIZZA</p>", "conditions": [12, 800, "v", 12000], "internal_node_id": "0.0-189.0", "trial": 6,