{"assignmentId": "31T4R4OBOTN2S7GC6DDX6BWTPKJ7C2", "workerId": "MTK2594", "questiondata": {"origin": "United States", "strat-rehearsal": "15", "marital": "Separated", "education": "Bachelor's degree", "ethnicity": "Not Hispanic", "color_depth": 24, "distracted": "No", "wrote-notes": "Yes", "strat-other": "I tried to group them, and then if I remembered one, it would help me remember the others.  Like rooster, salmon, fox, crab are all animals and they go together in a group.  This strategy helped, but wasn't completely successful.  I also grouped words into similar sounds or start with the same letter, like scarf and scalpel.  I tried jotting down the first letters, but it didn't help me remember very well.  I think grouping helped the most.  I also tried closing my eyes as I listened to the words so I could visualize them better, and that might have helped a little, but I'm not sure.", "screen_width": 1366, "avail_screen_width": 1304, "avail_screen_height": 768, "strat-image": "30", "language": "English", "gender": "Female", "age": "47", "gender_other": "", "race": ["White"], "strat-categorize": "40", "pixel_depth": 24, "strat-spatial": "5", "strat-story": "2", "race_other": "", "screen_height": 768}, "bonus": 0, "hitId": "3HXK2V1N4KM60Y1HCLNJBR4GSRZG2A", "counterbalance": 204, "useragent": "Mozilla/5.0 (Windows NT 10.0; Win64; x64) AppleWebKit/537.36 (KHTML, like Gecko) Chrome/63.0.3239.132 Safari/537.36", "eventdata": [{"eventtype": "initialized", "interval": 0, "value": null, "timestamp": 1519088345143}, {"eventtype": "window_resize", "interval": 0, "value": [1304, 721], "timestamp": 1519088345143}, {"eventtype": "focus", "interval": 27106, "value": "off", "timestamp": 1519088372249}, {"eventtype": "focus", "interval": 5610, "value": "on", "timestamp": 1519088377859}, {"eventtype": "focus", "interval": 1865656, "value": "off", "timestamp": 1519090243515}, {"eventtype": "focus", "interval": 21503, "value": "on", "timestamp": 1519090265018}, {"eventtype": "focus", "interval": 284727, "value": "off", "timestamp": 1519090549745}, {"eventtype": "focus", "interval": 7046, "value": "on", "timestamp": 1519090556791}], "data": [{"current_trial": 0, "trialdata": {"rt": 5097, "trial_type": "text", "internal_node_id": "0.0-0.0", "time_elapsed": 5106, "key_press": 32, "type": "INSTRUCTIONS", "trial_index": 0}, "uniqueid": "MTK2594:31T4R4OBOTN2S7GC6DDX6BWTPKJ7C2", "dateTime": 1519088380282}, {"current_trial": 1, "trialdata": {"rt": 25895, "trial_type": "text", "internal_node_id": "0.0-1.0", "time_elapsed": 31013, "key_press": 175, "type": "INSTRUCTIONS", "trial_index": 1}, "uniqueid": "MTK2594:31T4R4OBOTN2S7GC6DDX6BWTPKJ7C2", "dateTime": 1519088406184}, {"current_trial": 2, "trialdata": {"rt": [25608], "trial_type": "audio-test", "responses": ["ocean"], "internal_node_id": "0.0-2.0", "time_elapsed": 57144, "type": "AUDIO_TEST", "trial_index": 2}, "uniqueid": "MTK2594:31T4R4OBOTN2S7GC6DDX6BWTPKJ7C2", "dateTime": 1519088432314}, {"current_trial": 3, "trialdata": {"rt": [13605], "trial_type": "audio-test", "responses": ["crystal"], "internal_node_id": "0.0-3.0", "time_elapsed": 70759, "type": "AUDIO_TEST", "trial_index": 3}, "uniqueid": "MTK2594:31T4R4OBOTN2S7GC6DDX6BWTPKJ7C2", "dateTime": 1519088445930}, {"current_trial": 4, "trialdata": {"rt": [16652], "trial_type": "audio-test", "responses": ["spice"], "internal_node_id": "0.0-4.0", "time_elapsed": 87419, "type": "AUDIO_TEST", "trial_index": 4}, "uniqueid": "MTK2594:31T4R4OBOTN2S7GC6DDX6BWTPKJ7C2", "dateTime": 1519088462590}, {"current_trial": 5, "trialdata": {"rt": 35500, "trial_type": "survey-text", "responses": "{\"Q0\":\"2 am\",\"Q1\":\"10:30 am\",\"Q2\":\"5\"}", "internal_node_id": "0.0-5.0", "time_elapsed": 123677, "type": "SLEEP_SURVEY", "trial_index": 5}, "uniqueid": "MTK2594:31T4R4OBOTN2S7GC6DDX6BWTPKJ7C2", "dateTime": 1519088498847}, {"current_trial": 6, "trialdata": {"rt": 89587, "trial_type": "text", "internal_node_id": "0.0-6.0", "time_elapsed": 214268, "key_press": 32, "type": "INSTRUCTIONS", "trial_index": 6}, "uniqueid": "MTK2594:31T4R4OBOTN2S7GC6DDX6BWTPKJ7C2", "dateTime": 1519088589438}, {"current_trial": 7, "trialdata": {"rt": 22649, "trial_type": "text", "internal_node_id": "0.0-7.0", "time_elapsed": 237421, "key_press": 32, "type": "INSTRUCTIONS", "trial_index": 7}, "uniqueid": "MTK2594:31T4R4OBOTN2S7GC6DDX6BWTPKJ7C2", "dateTime": 1519088612591}, {"current_trial": 8, "trialdata": {"rt": 19761, "trial_type": "text", "internal_node_id": "0.0-8.0", "time_elapsed": 257687, "key_press": 32, "type": "INSTRUCTIONS", "trial_index": 8}, "uniqueid": "MTK2594:31T4R4OBOTN2S7GC6DDX6BWTPKJ7C2", "dateTime": 1519088632857}, {"current_trial": 9, "trialdata": {"rt": [4326, 7411, 10745, 13049, 16581], "trial_type": "math-distractor", "key_times": [3209, 4326, 6465, 6652, 7411, 9926, 10100, 10745, 12270, 13049, 15820, 16003, 16581], "responses": ["6", "12", "23", "4", "21"], "num2": [2, 6, 8, 1, 7, 6], "num3": [1, 4, 9, 2, 6, 8], "conditions": [18, 1200, "a", 18000], "internal_node_id": "0.0-9.0", "key_presses": [102, 13, 97, 98, 13, 98, 99, 13, 100, 13, 98, 97, 13], "trial": 0, "time_elapsed": 276706, "type": "DISTRACTOR", "trial_index": 9, "num1": [3, 2, 6, 1, 8, 8]}, "uniqueid": "MTK2594:31T4R4OBOTN2S7GC6DDX6BWTPKJ7C2", "dateTime": 1519088651876}, {"current_trial": 10, "trialdata": {"rt": -1, "trial_type": "single-stim", "stimulus": "<p id=\"stim\">10</p>", "internal_node_id": "0.0-10.0-0.0", "time_elapsed": 279713, "key_press": -1, "trial_index": 10}, "uniqueid": "MTK2594:31T4R4OBOTN2S7GC6DDX6BWTPKJ7C2", "dateTime": 1519088654883}, {"current_trial": 11, "trialdata": {"rt": -1, "trial_type": "single-stim", "stimulus": "<p id=\"stim\">9</p>", "internal_node_id": "0.0-10.0-1.0", "time_elapsed": 280716, "key_press": -1, "trial_index": 11}, "uniqueid": "MTK2594:31T4R4OBOTN2S7GC6DDX6BWTPKJ7C2", "dateTime": 1519088655886}, {"current_trial": 12, "trialdata": {"rt": -1, "trial_type": "single-stim", "stimulus": "<p id=\"stim\">8</p>", "internal_node_id": "0.0-10.0-2.0", "time_elapsed": 281717, "key_press": -1, "trial_index": 12}, "uniqueid": "MTK2594:31T4R4OBOTN2S7GC6DDX6BWTPKJ7C2", "dateTime": 1519088656887}, {"current_trial": 13, "trialdata": {"rt": -1, "trial_type": "single-stim", "stimulus": "<p id=\"stim\">7</p>", "internal_node_id": "0.0-10.0-3.0", "time_elapsed": 282720, "key_press": -1, "trial_index": 13}, "uniqueid": "MTK2594:31T4R4OBOTN2S7GC6DDX6BWTPKJ7C2", "dateTime": 1519088657890}, {"current_trial": 14, "trialdata": {"rt": -1, "trial_type": "single-stim", "stimulus": "<p id=\"stim\">6</p>", "internal_node_id": "0.0-10.0-4.0", "time_elapsed": 283747, "key_press": -1, "trial_index": 14}, "uniqueid": "MTK2594:31T4R4OBOTN2S7GC6DDX6BWTPKJ7C2", "dateTime": 1519088658918}, {"current_trial": 15, "trialdata": {"rt": -1, "trial_type": "single-stim", "stimulus": "<p id=\"stim\">5</p>", "internal_node_id": "0.0-10.0-5.0", "time_elapsed": 284783, "key_press": -1, "trial_index": 15}, "uniqueid": "MTK2594:31T4R4OBOTN2S7GC6DDX6BWTPKJ7C2", "dateTime": 1519088659954}, {"current_trial": 16, "trialdata": {"rt": -1, "trial_type": "single-stim", "stimulus": "<p id=\"stim\">4</p>", "internal_node_id": "0.0-10.0-6.0", "time_elapsed": 285787, "key_press": -1, "trial_index": 16}, "uniqueid": "MTK2594:31T4R4OBOTN2S7GC6DDX6BWTPKJ7C2", "dateTime": 1519088660957}, {"current_trial": 17, "trialdata": {"rt": -1, "trial_type": "single-stim", "stimulus": "<p id=\"stim\">3</p>", "internal_node_id": "0.0-10.0-7.0", "time_elapsed": 286791, "key_press": -1, "trial_index": 17}, "uniqueid": "MTK2594:31T4R4OBOTN2S7GC6DDX6BWTPKJ7C2", "dateTime": 1519088661962}, {"current_trial": 18, "trialdata": {"rt": -1, "trial_type": "single-stim", "stimulus": "<p id=\"stim\">2</p>", "internal_node_id": "0.0-10.0-8.0", "time_elapsed": 287795, "key_press": -1, "trial_index": 18}, "uniqueid": "MTK2594:31T4R4OBOTN2S7GC6DDX6BWTPKJ7C2", "dateTime": 1519088662966}, {"current_trial": 19, "trialdata": {"rt": -1, "trial_type": "single-stim", "stimulus": "<p id=\"stim\">1</p>", "internal_node_id": "0.0-10.0-9.0", "time_elapsed": 288799, "key_press": -1, "trial_index": 19}, "uniqueid": "MTK2594:31T4R4OBOTN2S7GC6DDX6BWTPKJ7C2", "dateTime": 1519088663970}, {"current_trial": 20, "trialdata": {"rt": -1, "trial_type": "single-stim", "stimulus": "<p id=\"stim\">+</p>", "internal_node_id": "0.0-11.0-0.0", "time_elapsed": 290304, "key_press": -1, "type": "FIXATION", "trial_index": 20}, "uniqueid": "MTK2594:31T4R4OBOTN2S7GC6DDX6BWTPKJ7C2", "dateTime": 1519088665475}, {"current_trial": 21, "trialdata": {"rt": -1000, "trial_type": "single-audio", "word": "label", "stimulus": "/static/audio/wordpool/LABEL.wav", "conditions": [18, 1200, "a", 18000], "internal_node_id": "0.0-12.0", "trial": 0, "time_elapsed": 292426, "serialpos": 0, "key_press": -1, "wordID": 789, "type": "PRES_AUD", "trial_index": 21}, "uniqueid": "MTK2594:31T4R4OBOTN2S7GC6DDX6BWTPKJ7C2", "dateTime": 1519088667596}, {"current_trial": 22, "trialdata": {"rt": -1000, "trial_type": "single-audio", "word": "custard", "stimulus": "/static/audio/wordpool/CUSTARD.wav", "conditions": [18, 1200, "a", 18000], "internal_node_id": "0.0-13.0", "trial": 0, "time_elapsed": 294690, "serialpos": 1, "key_press": -1, "wordID": 428, "type": "PRES_AUD", "trial_index": 22}, "uniqueid": "MTK2594:31T4R4OBOTN2S7GC6DDX6BWTPKJ7C2", "dateTime": 1519088669860}, {"current_trial": 23, "trialdata": {"rt": -1000, "trial_type": "single-audio", "word": "portrait", "stimulus": "/static/audio/wordpool/PORTRAIT.wav", "conditions": [18, 1200, "a", 18000], "internal_node_id": "0.0-14.0", "trial": 0, "time_elapsed": 297032, "serialpos": 2, "key_press": -1, "wordID": 1110, "type": "PRES_AUD", "trial_index": 23}, "uniqueid": "MTK2594:31T4R4OBOTN2S7GC6DDX6BWTPKJ7C2", "dateTime": 1519088672203}, {"current_trial": 24, "trialdata": {"rt": -1000, "trial_type": "single-audio", "word": "receipt", "stimulus": "/static/audio/wordpool/RECEIPT.wav", "conditions": [18, 1200, "a", 18000], "internal_node_id": "0.0-15.0", "trial": 0, "time_elapsed": 299280, "serialpos": 3, "key_press": -1, "wordID": 1172, "type": "PRES_AUD", "trial_index": 24}, "uniqueid": "MTK2594:31T4R4OBOTN2S7GC6DDX6BWTPKJ7C2", "dateTime": 1519088674450}, {"current_trial": 25, "trialdata": {"rt": -1000, "trial_type": "single-audio", "word": "canyon", "stimulus": "/static/audio/wordpool/CANYON.wav", "conditions": [18, 1200, "a", 18000], "internal_node_id": "0.0-16.0", "trial": 0, "time_elapsed": 301387, "serialpos": 4, "key_press": -1, "wordID": 234, "type": "PRES_AUD", "trial_index": 25}, "uniqueid": "MTK2594:31T4R4OBOTN2S7GC6DDX6BWTPKJ7C2", "dateTime": 1519088676557}, {"current_trial": 26, "trialdata": {"rt": -1000, "trial_type": "single-audio", "word": "guard", "stimulus": "/static/audio/wordpool/GUARD.wav", "conditions": [18, 1200, "a", 18000], "internal_node_id": "0.0-17.0", "trial": 0, "time_elapsed": 303497, "serialpos": 5, "key_press": -1, "wordID": 666, "type": "PRES_AUD", "trial_index": 26}, "uniqueid": "MTK2594:31T4R4OBOTN2S7GC6DDX6BWTPKJ7C2", "dateTime": 1519088678667}, {"current_trial": 27, "trialdata": {"rt": -1000, "trial_type": "single-audio", "word": "pilot", "stimulus": "/static/audio/wordpool/PILOT.wav", "conditions": [18, 1200, "a", 18000], "internal_node_id": "0.0-18.0", "trial": 0, "time_elapsed": 305653, "serialpos": 6, "key_press": -1, "wordID": 1069, "type": "PRES_AUD", "trial_index": 27}, "uniqueid": "MTK2594:31T4R4OBOTN2S7GC6DDX6BWTPKJ7C2", "dateTime": 1519088680823}, {"current_trial": 28, "trialdata": {"rt": -1000, "trial_type": "single-audio", "word": "army", "stimulus": "/static/audio/wordpool/ARMY.wav", "conditions": [18, 1200, "a", 18000], "internal_node_id": "0.0-19.0", "trial": 0, "time_elapsed": 307720, "serialpos": 7, "key_press": -1, "wordID": 38, "type": "PRES_AUD", "trial_index": 28}, "uniqueid": "MTK2594:31T4R4OBOTN2S7GC6DDX6BWTPKJ7C2", "dateTime": 1519088682890}, {"current_trial": 29, "trialdata": {"rt": -1000, "trial_type": "single-audio", "word": "iceberg", "stimulus": "/static/audio/wordpool/ICEBERG.wav", "conditions": [18, 1200, "a", 18000], "internal_node_id": "0.0-20.0", "trial": 0, "time_elapsed": 309999, "serialpos": 8, "key_press": -1, "wordID": 730, "type": "PRES_AUD", "trial_index": 29}, "uniqueid": "MTK2594:31T4R4OBOTN2S7GC6DDX6BWTPKJ7C2", "dateTime": 1519088685169}, {"current_trial": 30, "trialdata": {"rt": -1000, "trial_type": "single-audio", "word": "europe", "stimulus": "/static/audio/wordpool/EUROPE.wav", "conditions": [18, 1200, "a", 18000], "internal_node_id": "0.0-21.0", "trial": 0, "time_elapsed": 312045, "serialpos": 9, "key_press": -1, "wordID": 540, "type": "PRES_AUD", "trial_index": 30}, "uniqueid": "MTK2594:31T4R4OBOTN2S7GC6DDX6BWTPKJ7C2", "dateTime": 1519088687215}, {"current_trial": 31, "trialdata": {"rt": -1000, "trial_type": "single-audio", "word": "daisy", "stimulus": "/static/audio/wordpool/DAISY.wav", "conditions": [18, 1200, "a", 18000], "internal_node_id": "0.0-22.0", "trial": 0, "time_elapsed": 314224, "serialpos": 10, "key_press": -1, "wordID": 434, "type": "PRES_AUD", "trial_index": 31}, "uniqueid": "MTK2594:31T4R4OBOTN2S7GC6DDX6BWTPKJ7C2", "dateTime": 1519088689394}, {"current_trial": 32, "trialdata": {"rt": -1000, "trial_type": "single-audio", "word": "stallion", "stimulus": "/static/audio/wordpool/STALLION.wav", "conditions": [18, 1200, "a", 18000], "internal_node_id": "0.0-23.0", "trial": 0, "time_elapsed": 316284, "serialpos": 11, "key_press": -1, "wordID": 1368, "type": "PRES_AUD", "trial_index": 32}, "uniqueid": "MTK2594:31T4R4OBOTN2S7GC6DDX6BWTPKJ7C2", "dateTime": 1519088691454}, {"current_trial": 33, "trialdata": {"rt": -1000, "trial_type": "single-audio", "word": "lightning", "stimulus": "/static/audio/wordpool/LIGHTNING.wav", "conditions": [18, 1200, "a", 18000], "internal_node_id": "0.0-24.0", "trial": 0, "time_elapsed": 318532, "serialpos": 12, "key_press": -1, "wordID": 819, "type": "PRES_AUD", "trial_index": 33}, "uniqueid": "MTK2594:31T4R4OBOTN2S7GC6DDX6BWTPKJ7C2", "dateTime": 1519088693702}, {"current_trial": 34, "trialdata": {"rt": -1000, "trial_type": "single-audio", "word": "outdoors", "stimulus": "/static/audio/wordpool/OUTDOORS.wav", "conditions": [18, 1200, "a", 18000], "internal_node_id": "0.0-25.0", "trial": 0, "time_elapsed": 320577, "serialpos": 13, "key_press": -1, "wordID": 986, "type": "PRES_AUD", "trial_index": 34}, "uniqueid": "MTK2594:31T4R4OBOTN2S7GC6DDX6BWTPKJ7C2", "dateTime": 1519088695748}, {"current_trial": 35, "trialdata": {"rt": -1000, "trial_type": "single-audio", "word": "victim", "stimulus": "/static/audio/wordpool/VICTIM.wav", "conditions": [18, 1200, "a", 18000], "internal_node_id": "0.0-26.0", "trial": 0, "time_elapsed": 322694, "serialpos": 14, "key_press": -1, "wordID": 1561, "type": "PRES_AUD", "trial_index": 35}, "uniqueid": "MTK2594:31T4R4OBOTN2S7GC6DDX6BWTPKJ7C2", "dateTime": 1519088697865}, {"current_trial": 36, "trialdata": {"rt": -1000, "trial_type": "single-audio", "word": "wrist", "stimulus": "/static/audio/wordpool/WRIST.wav", "conditions": [18, 1200, "a", 18000], "internal_node_id": "0.0-27.0", "trial": 0, "time_elapsed": 324720, "serialpos": 15, "key_press": -1, "wordID": 1625, "type": "PRES_AUD", "trial_index": 36}, "uniqueid": "MTK2594:31T4R4OBOTN2S7GC6DDX6BWTPKJ7C2", "dateTime": 1519088699890}, {"current_trial": 37, "trialdata": {"rt": -1000, "trial_type": "single-audio", "word": "marsh", "stimulus": "/static/audio/wordpool/MARSH.wav", "conditions": [18, 1200, "a", 18000], "internal_node_id": "0.0-28.0", "trial": 0, "time_elapsed": 326933, "serialpos": 16, "key_press": -1, "wordID": 873, "type": "PRES_AUD", "trial_index": 37}, "uniqueid": "MTK2594:31T4R4OBOTN2S7GC6DDX6BWTPKJ7C2", "dateTime": 1519088702103}, {"current_trial": 38, "trialdata": {"rt": -1000, "trial_type": "single-audio", "word": "office", "stimulus": "/static/audio/wordpool/OFFICE.wav", "conditions": [18, 1200, "a", 18000], "internal_node_id": "0.0-29.0", "trial": 0, "time_elapsed": 329294, "serialpos": 17, "key_press": -1, "wordID": 971, "type": "PRES_AUD", "trial_index": 38}, "uniqueid": "MTK2594:31T4R4OBOTN2S7GC6DDX6BWTPKJ7C2", "dateTime": 1519088704464}, {"current_trial": 39, "trialdata": {"rt": -1, "trial_type": "single-stim", "stimulus": "", "internal_node_id": "0.0-30.0-0.0", "time_elapsed": 330624, "key_press": -1, "type": "PRE_RECALL_DELAY", "trial_index": 39}, "uniqueid": "MTK2594:31T4R4OBOTN2S7GC6DDX6BWTPKJ7C2", "dateTime": 1519088705795}, {"current_trial": 40, "trialdata": {"rt": -1000, "trial_type": "single-audio", "stimulus": "/static/audio/400Hz.wav", "internal_node_id": "0.0-31.0", "time_elapsed": 331128, "key_press": -1, "type": "PRE_RECALL_ALERT", "trial_index": 40}, "uniqueid": "MTK2594:31T4R4OBOTN2S7GC6DDX6BWTPKJ7C2", "dateTime": 1519088706298}, {"current_trial": 41, "trialdata": {"rt": [5387, 10038, 14713, 17283, 22192, 26313, 34168, 40059, 44117, 51939], "recwords": ["office", "receipt", "label", "custard", "victim", "marsh", "europe", "army", "guard", "daisy"], "key_times": [3902, 4107, 4233, 4561, 4675, 4899, 5387, 8537, 8668, 8949, 9149, 9252, 9382, 9523, 10038, 13736, 13874, 14076, 14264, 14368, 14713, 15184, 15532, 15821, 15971, 16160, 16337, 16988, 17283, 20861, 20964, 21257, 21528, 21629, 21761, 22192, 24313, 24443, 24522, 24775, 24879, 26313, 29208, 29278, 29458, 29591, 29694, 30261, 30540, 32301, 32892, 33620, 33713, 34168, 37140, 37308, 37494, 37830, 40059, 41046, 41218, 41435, 41564, 41804, 44117, 48800, 49014, 49156, 49289, 49421, 51939], "trial_type": "free-recall", "conditions": [18, 1200, "a", 18000], "internal_node_id": "0.0-32.0-0.0", "key_presses": [79, 70, 70, 73, 67, 69, 13, 82, 69, 67, 69, 73, 80, 84, 13, 76, 65, 66, 69, 76, 13, 67, 85, 83, 84, 65, 82, 68, 13, 86, 73, 67, 84, 73, 77, 13, 77, 65, 82, 83, 72, 13, 16, 69, 85, 82, 80, 8, 79, 69, 8, 80, 69, 13, 65, 82, 77, 89, 13, 71, 85, 65, 82, 68, 13, 68, 65, 73, 83, 89, 13], "trial": 0, "time_elapsed": 391133, "type": "FREE_RECALL", "trial_index": 41}, "uniqueid": "MTK2594:31T4R4OBOTN2S7GC6DDX6BWTPKJ7C2", "dateTime": 1519088766307}, {"current_trial": 42, "trialdata": {"rt": 11189, "trial_type": "text", "internal_node_id": "0.0-33.0", "time_elapsed": 404329, "key_press": 32, "type": "INSTRUCTIONS", "trial_index": 42}, "uniqueid": "MTK2594:31T4R4OBOTN2S7GC6DDX6BWTPKJ7C2", "dateTime": 1519088779499}, {"current_trial": 43, "trialdata": {"rt": [4323, 7555, 9915, 12974, 15434], "trial_type": "math-distractor", "key_times": [3028, 3189, 4323, 6772, 6955, 7555, 9233, 9401, 9915, 11504, 12974, 14968, 15125, 15434, 17694, 17851], "responses": ["14", "19", "19", "9", "21"], "num2": [6, 3, 8, 4, 8, 4], "num3": [7, 8, 8, 4, 6, 3], "conditions": [18, 1200, "a", 18000], "internal_node_id": "0.0-34.0", "key_presses": [97, 100, 13, 97, 105, 13, 97, 105, 13, 105, 13, 98, 97, 13, 97, 100], "trial": 1, "time_elapsed": 424337, "type": "DISTRACTOR", "trial_index": 43, "num1": [1, 8, 3, 1, 7, 7]}, "uniqueid": "MTK2594:31T4R4OBOTN2S7GC6DDX6BWTPKJ7C2", "dateTime": 1519088799507}, {"current_trial": 44, "trialdata": {"rt": -1, "trial_type": "single-stim", "stimulus": "<p id=\"stim\">10</p>", "internal_node_id": "0.0-35.0-0.0", "time_elapsed": 427340, "key_press": -1, "trial_index": 44}, "uniqueid": "MTK2594:31T4R4OBOTN2S7GC6DDX6BWTPKJ7C2", "dateTime": 1519088802510}, {"current_trial": 45, "trialdata": {"rt": -1, "trial_type": "single-stim", "stimulus": "<p id=\"stim\">9</p>", "internal_node_id": "0.0-35.0-1.0", "time_elapsed": 428342, "key_press": -1, "trial_index": 45}, "uniqueid": "MTK2594:31T4R4OBOTN2S7GC6DDX6BWTPKJ7C2", "dateTime": 1519088803513}, {"current_trial": 46, "trialdata": {"rt": -1, "trial_type": "single-stim", "stimulus": "<p id=\"stim\">8</p>", "internal_node_id": "0.0-35.0-2.0", "time_elapsed": 429348, "key_press": -1, "trial_index": 46}, "uniqueid": "MTK2594:31T4R4OBOTN2S7GC6DDX6BWTPKJ7C2", "dateTime": 1519088804519}, {"current_trial": 47, "trialdata": {"rt": -1, "trial_type": "single-stim", "stimulus": "<p id=\"stim\">7</p>", "internal_node_id": "0.0-35.0-3.0", "time_elapsed": 430352, "key_press": -1, "trial_index": 47}, "uniqueid": "MTK2594:31T4R4OBOTN2S7GC6DDX6BWTPKJ7C2", "dateTime": 1519088805522}, {"current_trial": 48, "trialdata": {"rt": -1, "trial_type": "single-stim", "stimulus": "<p id=\"stim\">6</p>", "internal_node_id": "0.0-35.0-4.0", "time_elapsed": 431355, "key_press": -1, "trial_index": 48}, "uniqueid": "MTK2594:31T4R4OBOTN2S7GC6DDX6BWTPKJ7C2", "dateTime": 1519088806525}, {"current_trial": 49, "trialdata": {"rt": -1, "trial_type": "single-stim", "stimulus": "<p id=\"stim\">5</p>", "internal_node_id": "0.0-35.0-5.0", "time_elapsed": 432358, "key_press": -1, "trial_index": 49}, "uniqueid": "MTK2594:31T4R4OBOTN2S7GC6DDX6BWTPKJ7C2", "dateTime": 1519088807529}, {"current_trial": 50, "trialdata": {"rt": -1, "trial_type": "single-stim", "stimulus": "<p id=\"stim\">4</p>", "internal_node_id": "0.0-35.0-6.0", "time_elapsed": 433363, "key_press": -1, "trial_index": 50}, "uniqueid": "MTK2594:31T4R4OBOTN2S7GC6DDX6BWTPKJ7C2", "dateTime": 1519088808533}, {"current_trial": 51, "trialdata": {"rt": -1, "trial_type": "single-stim", "stimulus": "<p id=\"stim\">3</p>", "internal_node_id": "0.0-35.0-7.0", "time_elapsed": 434367, "key_press": -1, "trial_index": 51}, "uniqueid": "MTK2594:31T4R4OBOTN2S7GC6DDX6BWTPKJ7C2", "dateTime": 1519088809537}, {"current_trial": 52, "trialdata": {"rt": -1, "trial_type": "single-stim", "stimulus": "<p id=\"stim\">2</p>", "internal_node_id": "0.0-35.0-8.0", "time_elapsed": 435369, "key_press": -1, "trial_index": 52}, "uniqueid": "MTK2594:31T4R4OBOTN2S7GC6DDX6BWTPKJ7C2", "dateTime": 1519088810539}, {"current_trial": 53, "trialdata": {"rt": -1, "trial_type": "single-stim", "stimulus": "<p id=\"stim\">1</p>", "internal_node_id": "0.0-35.0-9.0", "time_elapsed": 436372, "key_press": -1, "trial_index": 53}, "uniqueid": "MTK2594:31T4R4OBOTN2S7GC6DDX6BWTPKJ7C2", "dateTime": 1519088811543}, {"current_trial": 54, "trialdata": {"rt": -1, "trial_type": "single-stim", "stimulus": "<p id=\"stim\">+</p>", "internal_node_id": "0.0-36.0-0.0", "time_elapsed": 437876, "key_press": -1, "type": "FIXATION", "trial_index": 54}, "uniqueid": "MTK2594:31T4R4OBOTN2S7GC6DDX6BWTPKJ7C2", "dateTime": 1519088813047}, {"current_trial": 55, "trialdata": {"rt": 1518.666666666661, "trial_type": "single-audio", "word": "peach", "stimulus": "/static/audio/wordpool/PEACH.wav", "conditions": [18, 1200, "a", 18000], "internal_node_id": "0.0-37.0", "trial": 1, "time_elapsed": 440280, "serialpos": 0, "key_press": 175, "wordID": 1030, "type": "PRES_AUD", "trial_index": 55}, "uniqueid": "MTK2594:31T4R4OBOTN2S7GC6DDX6BWTPKJ7C2", "dateTime": 1519088815450}, {"current_trial": 56, "trialdata": {"rt": -60.00000000005912, "trial_type": "single-audio", "word": "fireman", "stimulus": "/static/audio/wordpool/FIREMAN.wav", "conditions": [18, 1200, "a", 18000], "internal_node_id": "0.0-38.0", "trial": 1, "time_elapsed": 442666, "serialpos": 1, "key_press": 175, "wordID": 568, "type": "PRES_AUD", "trial_index": 56}, "uniqueid": "MTK2594:31T4R4OBOTN2S7GC6DDX6BWTPKJ7C2", "dateTime": 1519088817836}, {"current_trial": 57, "trialdata": {"rt": -1000, "trial_type": "single-audio", "word": "hatchet", "stimulus": "/static/audio/wordpool/HATCHET.wav", "conditions": [18, 1200, "a", 18000], "internal_node_id": "0.0-39.0", "trial": 1, "time_elapsed": 444943, "serialpos": 2, "key_press": -1, "wordID": 690, "type": "PRES_AUD", "trial_index": 57}, "uniqueid": "MTK2594:31T4R4OBOTN2S7GC6DDX6BWTPKJ7C2", "dateTime": 1519088820113}, {"current_trial": 58, "trialdata": {"rt": -1000, "trial_type": "single-audio", "word": "widow", "stimulus": "/static/audio/wordpool/WIDOW.wav", "conditions": [18, 1200, "a", 18000], "internal_node_id": "0.0-40.0", "trial": 1, "time_elapsed": 447253, "serialpos": 3, "key_press": -1, "wordID": 1607, "type": "PRES_AUD", "trial_index": 58}, "uniqueid": "MTK2594:31T4R4OBOTN2S7GC6DDX6BWTPKJ7C2", "dateTime": 1519088822423}, {"current_trial": 59, "trialdata": {"rt": -1000, "trial_type": "single-audio", "word": "tutu", "stimulus": "/static/audio/wordpool/TUTU.wav", "conditions": [18, 1200, "a", 18000], "internal_node_id": "0.0-41.0", "trial": 1, "time_elapsed": 449487, "serialpos": 4, "key_press": -1, "wordID": 1523, "type": "PRES_AUD", "trial_index": 59}, "uniqueid": "MTK2594:31T4R4OBOTN2S7GC6DDX6BWTPKJ7C2", "dateTime": 1519088824658}, {"current_trial": 60, "trialdata": {"rt": -1000, "trial_type": "single-audio", "word": "valve", "stimulus": "/static/audio/wordpool/VALVE.wav", "conditions": [18, 1200, "a", 18000], "internal_node_id": "0.0-42.0", "trial": 1, "time_elapsed": 451577, "serialpos": 5, "key_press": -1, "wordID": 1545, "type": "PRES_AUD", "trial_index": 60}, "uniqueid": "MTK2594:31T4R4OBOTN2S7GC6DDX6BWTPKJ7C2", "dateTime": 1519088826748}, {"current_trial": 61, "trialdata": {"rt": -1000, "trial_type": "single-audio", "word": "tuba", "stimulus": "/static/audio/wordpool/TUBA.wav", "conditions": [18, 1200, "a", 18000], "internal_node_id": "0.0-43.0", "trial": 1, "time_elapsed": 453673, "serialpos": 6, "key_press": -1, "wordID": 1514, "type": "PRES_AUD", "trial_index": 61}, "uniqueid": "MTK2594:31T4R4OBOTN2S7GC6DDX6BWTPKJ7C2", "dateTime": 1519088828843}, {"current_trial": 62, "trialdata": {"rt": -1000, "trial_type": "single-audio", "word": "shortcake", "stimulus": "/static/audio/wordpool/SHORTCAKE.wav", "conditions": [18, 1200, "a", 18000], "internal_node_id": "0.0-44.0", "trial": 1, "time_elapsed": 455738, "serialpos": 7, "key_press": -1, "wordID": 1291, "type": "PRES_AUD", "trial_index": 62}, "uniqueid": "MTK2594:31T4R4OBOTN2S7GC6DDX6BWTPKJ7C2", "dateTime": 1519088830909}, {"current_trial": 63, "trialdata": {"rt": -1000, "trial_type": "single-audio", "word": "glove", "stimulus": "/static/audio/wordpool/GLOVE.wav", "conditions": [18, 1200, "a", 18000], "internal_node_id": "0.0-45.0", "trial": 1, "time_elapsed": 458023, "serialpos": 8, "key_press": -1, "wordID": 641, "type": "PRES_AUD", "trial_index": 63}, "uniqueid": "MTK2594:31T4R4OBOTN2S7GC6DDX6BWTPKJ7C2", "dateTime": 1519088833194}, {"current_trial": 64, "trialdata": {"rt": -1000, "trial_type": "single-audio", "word": "cookbook", "stimulus": "/static/audio/wordpool/COOKBOOK.wav", "conditions": [18, 1200, "a", 18000], "internal_node_id": "0.0-46.0", "trial": 1, "time_elapsed": 460347, "serialpos": 9, "key_press": -1, "wordID": 372, "type": "PRES_AUD", "trial_index": 64}, "uniqueid": "MTK2594:31T4R4OBOTN2S7GC6DDX6BWTPKJ7C2", "dateTime": 1519088835517}, {"current_trial": 65, "trialdata": {"rt": -1000, "trial_type": "single-audio", "word": "pistol", "stimulus": "/static/audio/wordpool/PISTOL.wav", "conditions": [18, 1200, "a", 18000], "internal_node_id": "0.0-47.0", "trial": 1, "time_elapsed": 462560, "serialpos": 10, "key_press": -1, "wordID": 1074, "type": "PRES_AUD", "trial_index": 65}, "uniqueid": "MTK2594:31T4R4OBOTN2S7GC6DDX6BWTPKJ7C2", "dateTime": 1519088837731}, {"current_trial": 66, "trialdata": {"rt": -1000, "trial_type": "single-audio", "word": "tortoise", "stimulus": "/static/audio/wordpool/TORTOISE.wav", "conditions": [18, 1200, "a", 18000], "internal_node_id": "0.0-48.0", "trial": 1, "time_elapsed": 464645, "serialpos": 11, "key_press": -1, "wordID": 1485, "type": "PRES_AUD", "trial_index": 66}, "uniqueid": "MTK2594:31T4R4OBOTN2S7GC6DDX6BWTPKJ7C2", "dateTime": 1519088839815}, {"current_trial": 67, "trialdata": {"rt": -1000, "trial_type": "single-audio", "word": "teacher", "stimulus": "/static/audio/wordpool/TEACHER.wav", "conditions": [18, 1200, "a", 18000], "internal_node_id": "0.0-49.0", "trial": 1, "time_elapsed": 466881, "serialpos": 12, "key_press": -1, "wordID": 1439, "type": "PRES_AUD", "trial_index": 67}, "uniqueid": "MTK2594:31T4R4OBOTN2S7GC6DDX6BWTPKJ7C2", "dateTime": 1519088842052}, {"current_trial": 68, "trialdata": {"rt": -1000, "trial_type": "single-audio", "word": "trombone", "stimulus": "/static/audio/wordpool/TROMBONE.wav", "conditions": [18, 1200, "a", 18000], "internal_node_id": "0.0-50.0", "trial": 1, "time_elapsed": 469050, "serialpos": 13, "key_press": -1, "wordID": 1507, "type": "PRES_AUD", "trial_index": 68}, "uniqueid": "MTK2594:31T4R4OBOTN2S7GC6DDX6BWTPKJ7C2", "dateTime": 1519088844223}, {"current_trial": 69, "trialdata": {"rt": -1000, "trial_type": "single-audio", "word": "mailbox", "stimulus": "/static/audio/wordpool/MAILBOX.wav", "conditions": [18, 1200, "a", 18000], "internal_node_id": "0.0-51.0", "trial": 1, "time_elapsed": 471282, "serialpos": 14, "key_press": -1, "wordID": 856, "type": "PRES_AUD", "trial_index": 69}, "uniqueid": "MTK2594:31T4R4OBOTN2S7GC6DDX6BWTPKJ7C2", "dateTime": 1519088846452}, {"current_trial": 70, "trialdata": {"rt": -1000, "trial_type": "single-audio", "word": "twig", "stimulus": "/static/audio/wordpool/TWIG.wav", "conditions": [18, 1200, "a", 18000], "internal_node_id": "0.0-52.0", "trial": 1, "time_elapsed": 473631, "serialpos": 15, "key_press": -1, "wordID": 1526, "type": "PRES_AUD", "trial_index": 70}, "uniqueid": "MTK2594:31T4R4OBOTN2S7GC6DDX6BWTPKJ7C2", "dateTime": 1519088848801}, {"current_trial": 71, "trialdata": {"rt": -1000, "trial_type": "single-audio", "word": "message", "stimulus": "/static/audio/wordpool/MESSAGE.wav", "conditions": [18, 1200, "a", 18000], "internal_node_id": "0.0-53.0", "trial": 1, "time_elapsed": 475927, "serialpos": 16, "key_press": -1, "wordID": 887, "type": "PRES_AUD", "trial_index": 71}, "uniqueid": "MTK2594:31T4R4OBOTN2S7GC6DDX6BWTPKJ7C2", "dateTime": 1519088851097}, {"current_trial": 72, "trialdata": {"rt": -1000, "trial_type": "single-audio", "word": "blender", "stimulus": "/static/audio/wordpool/BLENDER.wav", "conditions": [18, 1200, "a", 18000], "internal_node_id": "0.0-54.0", "trial": 1, "time_elapsed": 478297, "serialpos": 17, "key_press": -1, "wordID": 135, "type": "PRES_AUD", "trial_index": 72}, "uniqueid": "MTK2594:31T4R4OBOTN2S7GC6DDX6BWTPKJ7C2", "dateTime": 1519088853467}, {"current_trial": 73, "trialdata": {"rt": -1, "trial_type": "single-stim", "stimulus": "", "internal_node_id": "0.0-55.0-0.0", "time_elapsed": 479608, "key_press": -1, "type": "PRE_RECALL_DELAY", "trial_index": 73}, "uniqueid": "MTK2594:31T4R4OBOTN2S7GC6DDX6BWTPKJ7C2", "dateTime": 1519088854778}, {"current_trial": 74, "trialdata": {"rt": -1000, "trial_type": "single-audio", "stimulus": "/static/audio/400Hz.wav", "internal_node_id": "0.0-56.0", "time_elapsed": 480117, "key_press": -1, "type": "PRE_RECALL_ALERT", "trial_index": 74}, "uniqueid": "MTK2594:31T4R4OBOTN2S7GC6DDX6BWTPKJ7C2", "dateTime": 1519088855287}, {"current_trial": 75, "trialdata": {"rt": [3354, 4965, 6784, 9008, 11862, 13864, 17647, 26514], "recwords": ["mailbox", "message", "tuba", "trombone", "shortcake", "cookbook", "fireman", "teacher"], "key_times": [2161, 2306, 2394, 2520, 2758, 2818, 3068, 3354, 3815, 3916, 4032, 4207, 4347, 4476, 4627, 4965, 5485, 5584, 5909, 6075, 6784, 7196, 7470, 7602, 7713, 7946, 8073, 8170, 8253, 9008, 9941, 10039, 10132, 10251, 10458, 10934, 11059, 11117, 11256, 11862, 12303, 12351, 12506, 12619, 13139, 13175, 13307, 13411, 13864, 14266, 14320, 14509, 14608, 14802, 15001, 15065, 17647, 21622, 21722, 21861, 22061, 22179, 22301, 22373, 26514, 57979, 57987, 58566, 58770, 59132, 59247, 59394, 59717, 59811, 59958], "trial_type": "free-recall", "conditions": [18, 1200, "a", 18000], "internal_node_id": "0.0-57.0-0.0", "key_presses": [77, 65, 73, 76, 66, 79, 88, 13, 77, 69, 83, 83, 65, 71, 69, 13, 84, 85, 66, 65, 13, 84, 82, 79, 77, 66, 79, 78, 69, 13, 83, 72, 79, 82, 84, 67, 65, 75, 69, 13, 67, 79, 79, 75, 66, 79, 79, 75, 13, 70, 73, 82, 69, 77, 65, 78, 13, 84, 69, 65, 67, 72, 69, 82, 13, 65, 72, 8, 8, 72, 65, 84, 67, 72, 69], "trial": 1, "time_elapsed": 540122, "type": "FREE_RECALL", "trial_index": 75}, "uniqueid": "MTK2594:31T4R4OBOTN2S7GC6DDX6BWTPKJ7C2", "dateTime": 1519088915297}, {"current_trial": 76, "trialdata": {"rt": 11963, "trial_type": "text", "internal_node_id": "0.0-58.0", "time_elapsed": 554091, "key_press": 32, "type": "INSTRUCTIONS", "trial_index": 76}, "uniqueid": "MTK2594:31T4R4OBOTN2S7GC6DDX6BWTPKJ7C2", "dateTime": 1519088929261}, {"current_trial": 77, "trialdata": {"rt": [4151, 6462, 9465, 11576, 13782, 15992, 21457, 23542], "trial_type": "math-distractor", "key_times": [3277, 3436, 4151, 6061, 6210, 6462, 8973, 9096, 9465, 11196, 11314, 11576, 13263, 13782, 15298, 15471, 15992, 20889, 20997, 21457, 23055, 23245, 23542], "responses": ["14", "14", "15", "11", "9", "18", "22", "11"], "num2": [9, 8, 8, 1, 2, 4, 9, 4, 1], "num3": [3, 3, 6, 9, 6, 8, 8, 4, 1], "conditions": [12, 1600, "a", 24000], "internal_node_id": "0.0-59.0", "key_presses": [97, 100, 13, 97, 100, 13, 97, 101, 13, 97, 97, 13, 105, 13, 97, 104, 13, 98, 98, 13, 97, 97, 13], "trial": 2, "time_elapsed": 579101, "type": "DISTRACTOR", "trial_index": 77, "num1": [2, 3, 1, 1, 1, 6, 5, 3, 7]}, "uniqueid": "MTK2594:31T4R4OBOTN2S7GC6DDX6BWTPKJ7C2", "dateTime": 1519088954271}, {"current_trial": 78, "trialdata": {"rt": -1, "trial_type": "single-stim", "stimulus": "<p id=\"stim\">10</p>", "internal_node_id": "0.0-60.0-0.0", "time_elapsed": 582104, "key_press": -1, "trial_index": 78}, "uniqueid": "MTK2594:31T4R4OBOTN2S7GC6DDX6BWTPKJ7C2", "dateTime": 1519088957275}, {"current_trial": 79, "trialdata": {"rt": -1, "trial_type": "single-stim", "stimulus": "<p id=\"stim\">9</p>", "internal_node_id": "0.0-60.0-1.0", "time_elapsed": 583108, "key_press": -1, "trial_index": 79}, "uniqueid": "MTK2594:31T4R4OBOTN2S7GC6DDX6BWTPKJ7C2", "dateTime": 1519088958278}, {"current_trial": 80, "trialdata": {"rt": -1, "trial_type": "single-stim", "stimulus": "<p id=\"stim\">8</p>", "internal_node_id": "0.0-60.0-2.0", "time_elapsed": 584111, "key_press": -1, "trial_index": 80}, "uniqueid": "MTK2594:31T4R4OBOTN2S7GC6DDX6BWTPKJ7C2", "dateTime": 1519088959282}, {"current_trial": 81, "trialdata": {"rt": 489, "trial_type": "single-stim", "stimulus": "<p id=\"stim\">7</p>", "internal_node_id": "0.0-60.0-3.0", "time_elapsed": 585116, "key_press": 175, "trial_index": 81}, "uniqueid": "MTK2594:31T4R4OBOTN2S7GC6DDX6BWTPKJ7C2", "dateTime": 1519088960286}, {"current_trial": 82, "trialdata": {"rt": -1, "trial_type": "single-stim", "stimulus": "<p id=\"stim\">6</p>", "internal_node_id": "0.0-60.0-4.0", "time_elapsed": 586119, "key_press": -1, "trial_index": 82}, "uniqueid": "MTK2594:31T4R4OBOTN2S7GC6DDX6BWTPKJ7C2", "dateTime": 1519088961289}, {"current_trial": 83, "trialdata": {"rt": -1, "trial_type": "single-stim", "stimulus": "<p id=\"stim\">5</p>", "internal_node_id": "0.0-60.0-5.0", "time_elapsed": 587123, "key_press": -1, "trial_index": 83}, "uniqueid": "MTK2594:31T4R4OBOTN2S7GC6DDX6BWTPKJ7C2", "dateTime": 1519088962293}, {"current_trial": 84, "trialdata": {"rt": -1, "trial_type": "single-stim", "stimulus": "<p id=\"stim\">4</p>", "internal_node_id": "0.0-60.0-6.0", "time_elapsed": 588125, "key_press": -1, "trial_index": 84}, "uniqueid": "MTK2594:31T4R4OBOTN2S7GC6DDX6BWTPKJ7C2", "dateTime": 1519088963296}, {"current_trial": 85, "trialdata": {"rt": -1, "trial_type": "single-stim", "stimulus": "<p id=\"stim\">3</p>", "internal_node_id": "0.0-60.0-7.0", "time_elapsed": 589129, "key_press": -1, "trial_index": 85}, "uniqueid": "MTK2594:31T4R4OBOTN2S7GC6DDX6BWTPKJ7C2", "dateTime": 1519088964299}, {"current_trial": 86, "trialdata": {"rt": -1, "trial_type": "single-stim", "stimulus": "<p id=\"stim\">2</p>", "internal_node_id": "0.0-60.0-8.0", "time_elapsed": 590132, "key_press": -1, "trial_index": 86}, "uniqueid": "MTK2594:31T4R4OBOTN2S7GC6DDX6BWTPKJ7C2", "dateTime": 1519088965303}, {"current_trial": 87, "trialdata": {"rt": -1, "trial_type": "single-stim", "stimulus": "<p id=\"stim\">1</p>", "internal_node_id": "0.0-60.0-9.0", "time_elapsed": 591135, "key_press": -1, "trial_index": 87}, "uniqueid": "MTK2594:31T4R4OBOTN2S7GC6DDX6BWTPKJ7C2", "dateTime": 1519088966305}, {"current_trial": 88, "trialdata": {"rt": -1, "trial_type": "single-stim", "stimulus": "<p id=\"stim\">+</p>", "internal_node_id": "0.0-61.0-0.0", "time_elapsed": 592639, "key_press": -1, "type": "FIXATION", "trial_index": 88}, "uniqueid": "MTK2594:31T4R4OBOTN2S7GC6DDX6BWTPKJ7C2", "dateTime": 1519088967809}, {"current_trial": 89, "trialdata": {"rt": -1000, "trial_type": "single-audio", "word": "drill", "stimulus": "/static/audio/wordpool/DRILL.wav", "conditions": [12, 1600, "a", 24000], "internal_node_id": "0.0-62.0", "trial": 2, "time_elapsed": 595183, "serialpos": 0, "key_press": -1, "wordID": 496, "type": "PRES_AUD", "trial_index": 89}, "uniqueid": "MTK2594:31T4R4OBOTN2S7GC6DDX6BWTPKJ7C2", "dateTime": 1519088970354}, {"current_trial": 90, "trialdata": {"rt": -1000, "trial_type": "single-audio", "word": "world", "stimulus": "/static/audio/wordpool/WORLD.wav", "conditions": [12, 1600, "a", 24000], "internal_node_id": "0.0-63.0", "trial": 2, "time_elapsed": 597934, "serialpos": 1, "key_press": -1, "wordID": 1621, "type": "PRES_AUD", "trial_index": 90}, "uniqueid": "MTK2594:31T4R4OBOTN2S7GC6DDX6BWTPKJ7C2", "dateTime": 1519088973105}, {"current_trial": 91, "trialdata": {"rt": -1000, "trial_type": "single-audio", "word": "sunrise", "stimulus": "/static/audio/wordpool/SUNRISE.wav", "conditions": [12, 1600, "a", 24000], "internal_node_id": "0.0-64.0", "trial": 2, "time_elapsed": 600399, "serialpos": 2, "key_press": -1, "wordID": 1406, "type": "PRES_AUD", "trial_index": 91}, "uniqueid": "MTK2594:31T4R4OBOTN2S7GC6DDX6BWTPKJ7C2", "dateTime": 1519088975569}, {"current_trial": 92, "trialdata": {"rt": -1000, "trial_type": "single-audio", "word": "sunset", "stimulus": "/static/audio/wordpool/SUNSET.wav", "conditions": [12, 1600, "a", 24000], "internal_node_id": "0.0-65.0", "trial": 2, "time_elapsed": 602980, "serialpos": 3, "key_press": -1, "wordID": 1407, "type": "PRES_AUD", "trial_index": 92}, "uniqueid": "MTK2594:31T4R4OBOTN2S7GC6DDX6BWTPKJ7C2", "dateTime": 1519088978150}, {"current_trial": 93, "trialdata": {"rt": -1000, "trial_type": "single-audio", "word": "hand", "stimulus": "/static/audio/wordpool/HAND.wav", "conditions": [12, 1600, "a", 24000], "internal_node_id": "0.0-66.0", "trial": 2, "time_elapsed": 605427, "serialpos": 4, "key_press": -1, "wordID": 682, "type": "PRES_AUD", "trial_index": 93}, "uniqueid": "MTK2594:31T4R4OBOTN2S7GC6DDX6BWTPKJ7C2", "dateTime": 1519088980597}, {"current_trial": 94, "trialdata": {"rt": -1000, "trial_type": "single-audio", "word": "airplane", "stimulus": "/static/audio/wordpool/AIRPLANE.wav", "conditions": [12, 1600, "a", 24000], "internal_node_id": "0.0-67.0", "trial": 2, "time_elapsed": 608133, "serialpos": 5, "key_press": -1, "wordID": 11, "type": "PRES_AUD", "trial_index": 94}, "uniqueid": "MTK2594:31T4R4OBOTN2S7GC6DDX6BWTPKJ7C2", "dateTime": 1519088983303}, {"current_trial": 95, "trialdata": {"rt": -1000, "trial_type": "single-audio", "word": "crevice", "stimulus": "/static/audio/wordpool/CREVICE.wav", "conditions": [12, 1600, "a", 24000], "internal_node_id": "0.0-68.0", "trial": 2, "time_elapsed": 610826, "serialpos": 6, "key_press": -1, "wordID": 404, "type": "PRES_AUD", "trial_index": 95}, "uniqueid": "MTK2594:31T4R4OBOTN2S7GC6DDX6BWTPKJ7C2", "dateTime": 1519088985996}, {"current_trial": 96, "trialdata": {"rt": -1000, "trial_type": "single-audio", "word": "waiter", "stimulus": "/static/audio/wordpool/WAITER.wav", "conditions": [12, 1600, "a", 24000], "internal_node_id": "0.0-69.0", "trial": 2, "time_elapsed": 613441, "serialpos": 7, "key_press": -1, "wordID": 1579, "type": "PRES_AUD", "trial_index": 96}, "uniqueid": "MTK2594:31T4R4OBOTN2S7GC6DDX6BWTPKJ7C2", "dateTime": 1519088988612}, {"current_trial": 97, "trialdata": {"rt": -1000, "trial_type": "single-audio", "word": "egypt", "stimulus": "/static/audio/wordpool/EGYPT.wav", "conditions": [12, 1600, "a", 24000], "internal_node_id": "0.0-70.0", "trial": 2, "time_elapsed": 616055, "serialpos": 8, "key_press": -1, "wordID": 518, "type": "PRES_AUD", "trial_index": 97}, "uniqueid": "MTK2594:31T4R4OBOTN2S7GC6DDX6BWTPKJ7C2", "dateTime": 1519088991226}, {"current_trial": 98, "trialdata": {"rt": -1000, "trial_type": "single-audio", "word": "camel", "stimulus": "/static/audio/wordpool/CAMEL.wav", "conditions": [12, 1600, "a", 24000], "internal_node_id": "0.0-71.0", "trial": 2, "time_elapsed": 618525, "serialpos": 9, "key_press": -1, "wordID": 222, "type": "PRES_AUD", "trial_index": 98}, "uniqueid": "MTK2594:31T4R4OBOTN2S7GC6DDX6BWTPKJ7C2", "dateTime": 1519088993695}, {"current_trial": 99, "trialdata": {"rt": -1000, "trial_type": "single-audio", "word": "scribble", "stimulus": "/static/audio/wordpool/SCRIBBLE.wav", "conditions": [12, 1600, "a", 24000], "internal_node_id": "0.0-72.0", "trial": 2, "time_elapsed": 621241, "serialpos": 10, "key_press": -1, "wordID": 1255, "type": "PRES_AUD", "trial_index": 99}, "uniqueid": "MTK2594:31T4R4OBOTN2S7GC6DDX6BWTPKJ7C2", "dateTime": 1519088996411}, {"current_trial": 100, "trialdata": {"rt": -1000, "trial_type": "single-audio", "word": "globe", "stimulus": "/static/audio/wordpool/GLOBE.wav", "conditions": [12, 1600, "a", 24000], "internal_node_id": "0.0-73.0", "trial": 2, "time_elapsed": 623854, "serialpos": 11, "key_press": -1, "wordID": 640, "type": "PRES_AUD", "trial_index": 100}, "uniqueid": "MTK2594:31T4R4OBOTN2S7GC6DDX6BWTPKJ7C2", "dateTime": 1519088999024}, {"current_trial": 101, "trialdata": {"rt": -1, "trial_type": "single-stim", "stimulus": "", "internal_node_id": "0.0-74.0-0.0", "time_elapsed": 625194, "key_press": -1, "type": "PRE_RECALL_DELAY", "trial_index": 101}, "uniqueid": "MTK2594:31T4R4OBOTN2S7GC6DDX6BWTPKJ7C2", "dateTime": 1519089000364}, {"current_trial": 102, "trialdata": {"rt": -1000, "trial_type": "single-audio", "stimulus": "/static/audio/400Hz.wav", "internal_node_id": "0.0-75.0", "time_elapsed": 625696, "key_press": -1, "type": "PRE_RECALL_ALERT", "trial_index": 102}, "uniqueid": "MTK2594:31T4R4OBOTN2S7GC6DDX6BWTPKJ7C2", "dateTime": 1519089000866}, {"current_trial": 103, "trialdata": {"rt": [4859, 6291, 9517, 10956, 12685, 20040, 27976], "recwords": ["egypt", "camel", "world", "sunrise", "sunset", "drill", "airplane"], "key_times": [2931, 2960, 3378, 3641, 3965, 4335, 4859, 5278, 5484, 5515, 5828, 5935, 6291, 7194, 7248, 7575, 8774, 8895, 9143, 9296, 9517, 9976, 10064, 10253, 10409, 10494, 10624, 10744, 10956, 11479, 11564, 11798, 12062, 12185, 12302, 12685, 19144, 19437, 19530, 19633, 19775, 20040, 25510, 25600, 26286, 26711, 26980, 27104, 27202, 27359, 27976], "trial_type": "free-recall", "conditions": [12, 1600, "a", 24000], "internal_node_id": "0.0-76.0-0.0", "key_presses": [16, 69, 71, 89, 80, 84, 13, 67, 65, 77, 69, 76, 13, 87, 79, 76, 8, 82, 76, 68, 13, 83, 85, 78, 82, 73, 83, 69, 13, 83, 85, 78, 83, 69, 84, 13, 68, 82, 73, 76, 76, 13, 65, 73, 82, 80, 76, 65, 78, 69, 13], "trial": 2, "time_elapsed": 685703, "type": "FREE_RECALL", "trial_index": 103}, "uniqueid": "MTK2594:31T4R4OBOTN2S7GC6DDX6BWTPKJ7C2", "dateTime": 1519089060888}, {"current_trial": 104, "trialdata": {"rt": 3806, "trial_type": "text", "internal_node_id": "0.0-77.0", "time_elapsed": 691527, "key_press": 32, "type": "INSTRUCTIONS", "trial_index": 104}, "uniqueid": "MTK2594:31T4R4OBOTN2S7GC6DDX6BWTPKJ7C2", "dateTime": 1519089066697}, {"current_trial": 105, "trialdata": {"rt": [3251, 5279, 7958, 10951, 13124, 15155, 17265, 19034, 21163, 23253], "trial_type": "math-distractor", "key_times": [2585, 3251, 4968, 5279, 7645, 7782, 7958, 10602, 10752, 10951, 12669, 12834, 13124, 14681, 14824, 15155, 16916, 17064, 17265, 18747, 19034, 20824, 20973, 21163, 22745, 22934, 23253], "responses": ["9", "9", "11", "14", "10", "10", "12", "8", "15", "19"], "num2": [6, 2, 1, 4, 2, 2, 1, 3, 3, 9, 6], "num3": [1, 1, 7, 8, 4, 1, 3, 3, 4, 9, 2], "conditions": [12, 800, "a", 24000], "internal_node_id": "0.0-78.0", "key_presses": [105, 13, 105, 13, 97, 97, 13, 97, 100, 13, 97, 96, 13, 97, 96, 13, 97, 98, 13, 104, 13, 97, 101, 13, 97, 105, 13], "trial": 3, "time_elapsed": 717536, "type": "DISTRACTOR", "trial_index": 105, "num1": [2, 6, 3, 2, 4, 7, 8, 2, 8, 1, 9]}, "uniqueid": "MTK2594:31T4R4OBOTN2S7GC6DDX6BWTPKJ7C2", "dateTime": 1519089092706}, {"current_trial": 106, "trialdata": {"rt": -1, "trial_type": "single-stim", "stimulus": "<p id=\"stim\">10</p>", "internal_node_id": "0.0-79.0-0.0", "time_elapsed": 720540, "key_press": -1, "trial_index": 106}, "uniqueid": "MTK2594:31T4R4OBOTN2S7GC6DDX6BWTPKJ7C2", "dateTime": 1519089095711}, {"current_trial": 107, "trialdata": {"rt": -1, "trial_type": "single-stim", "stimulus": "<p id=\"stim\">9</p>", "internal_node_id": "0.0-79.0-1.0", "time_elapsed": 721543, "key_press": -1, "trial_index": 107}, "uniqueid": "MTK2594:31T4R4OBOTN2S7GC6DDX6BWTPKJ7C2", "dateTime": 1519089096714}, {"current_trial": 108, "trialdata": {"rt": -1, "trial_type": "single-stim", "stimulus": "<p id=\"stim\">8</p>", "internal_node_id": "0.0-79.0-2.0", "time_elapsed": 722546, "key_press": -1, "trial_index": 108}, "uniqueid": "MTK2594:31T4R4OBOTN2S7GC6DDX6BWTPKJ7C2", "dateTime": 1519089097716}, {"current_trial": 109, "trialdata": {"rt": -1, "trial_type": "single-stim", "stimulus": "<p id=\"stim\">7</p>", "internal_node_id": "0.0-79.0-3.0", "time_elapsed": 723549, "key_press": -1, "trial_index": 109}, "uniqueid": "MTK2594:31T4R4OBOTN2S7GC6DDX6BWTPKJ7C2", "dateTime": 1519089098721}, {"current_trial": 110, "trialdata": {"rt": -1, "trial_type": "single-stim", "stimulus": "<p id=\"stim\">6</p>", "internal_node_id": "0.0-79.0-4.0", "time_elapsed": 724553, "key_press": -1, "trial_index": 110}, "uniqueid": "MTK2594:31T4R4OBOTN2S7GC6DDX6BWTPKJ7C2", "dateTime": 1519089099723}, {"current_trial": 111, "trialdata": {"rt": -1, "trial_type": "single-stim", "stimulus": "<p id=\"stim\">5</p>", "internal_node_id": "0.0-79.0-5.0", "time_elapsed": 725555, "key_press": -1, "trial_index": 111}, "uniqueid": "MTK2594:31T4R4OBOTN2S7GC6DDX6BWTPKJ7C2", "dateTime": 1519089100725}, {"current_trial": 112, "trialdata": {"rt": -1, "trial_type": "single-stim", "stimulus": "<p id=\"stim\">4</p>", "internal_node_id": "0.0-79.0-6.0", "time_elapsed": 726558, "key_press": -1, "trial_index": 112}, "uniqueid": "MTK2594:31T4R4OBOTN2S7GC6DDX6BWTPKJ7C2", "dateTime": 1519089101728}, {"current_trial": 113, "trialdata": {"rt": -1, "trial_type": "single-stim", "stimulus": "<p id=\"stim\">3</p>", "internal_node_id": "0.0-79.0-7.0", "time_elapsed": 727561, "key_press": -1, "trial_index": 113}, "uniqueid": "MTK2594:31T4R4OBOTN2S7GC6DDX6BWTPKJ7C2", "dateTime": 1519089102731}, {"current_trial": 114, "trialdata": {"rt": -1, "trial_type": "single-stim", "stimulus": "<p id=\"stim\">2</p>", "internal_node_id": "0.0-79.0-8.0", "time_elapsed": 728563, "key_press": -1, "trial_index": 114}, "uniqueid": "MTK2594:31T4R4OBOTN2S7GC6DDX6BWTPKJ7C2", "dateTime": 1519089103733}, {"current_trial": 115, "trialdata": {"rt": -1, "trial_type": "single-stim", "stimulus": "<p id=\"stim\">1</p>", "internal_node_id": "0.0-79.0-9.0", "time_elapsed": 729566, "key_press": -1, "trial_index": 115}, "uniqueid": "MTK2594:31T4R4OBOTN2S7GC6DDX6BWTPKJ7C2", "dateTime": 1519089104736}, {"current_trial": 116, "trialdata": {"rt": -1, "trial_type": "single-stim", "stimulus": "<p id=\"stim\">+</p>", "internal_node_id": "0.0-80.0-0.0", "time_elapsed": 731068, "key_press": -1, "type": "FIXATION", "trial_index": 116}, "uniqueid": "MTK2594:31T4R4OBOTN2S7GC6DDX6BWTPKJ7C2", "dateTime": 1519089106239}, {"current_trial": 117, "trialdata": {"rt": -1000, "trial_type": "single-audio", "word": "blouse", "stimulus": "/static/audio/wordpool/BLOUSE.wav", "conditions": [12, 800, "a", 24000], "internal_node_id": "0.0-81.0", "trial": 3, "time_elapsed": 732861, "serialpos": 0, "key_press": -1, "wordID": 138, "type": "PRES_AUD", "trial_index": 117}, "uniqueid": "MTK2594:31T4R4OBOTN2S7GC6DDX6BWTPKJ7C2", "dateTime": 1519089108031}, {"current_trial": 118, "trialdata": {"rt": -1000, "trial_type": "single-audio", "word": "playground", "stimulus": "/static/audio/wordpool/PLAYGROUND.wav", "conditions": [12, 800, "a", 24000], "internal_node_id": "0.0-82.0", "trial": 3, "time_elapsed": 734557, "serialpos": 1, "key_press": -1, "wordID": 1086, "type": "PRES_AUD", "trial_index": 118}, "uniqueid": "MTK2594:31T4R4OBOTN2S7GC6DDX6BWTPKJ7C2", "dateTime": 1519089109728}, {"current_trial": 119, "trialdata": {"rt": -1000, "trial_type": "single-audio", "word": "loft", "stimulus": "/static/audio/wordpool/LOFT.wav", "conditions": [12, 800, "a", 24000], "internal_node_id": "0.0-83.0", "trial": 3, "time_elapsed": 736416, "serialpos": 2, "key_press": -1, "wordID": 839, "type": "PRES_AUD", "trial_index": 119}, "uniqueid": "MTK2594:31T4R4OBOTN2S7GC6DDX6BWTPKJ7C2", "dateTime": 1519089111586}, {"current_trial": 120, "trialdata": {"rt": -1000, "trial_type": "single-audio", "word": "nightgown", "stimulus": "/static/audio/wordpool/NIGHTGOWN.wav", "conditions": [12, 800, "a", 24000], "internal_node_id": "0.0-84.0", "trial": 3, "time_elapsed": 738171, "serialpos": 3, "key_press": -1, "wordID": 952, "type": "PRES_AUD", "trial_index": 120}, "uniqueid": "MTK2594:31T4R4OBOTN2S7GC6DDX6BWTPKJ7C2", "dateTime": 1519089113341}, {"current_trial": 121, "trialdata": {"rt": -1000, "trial_type": "single-audio", "word": "costume", "stimulus": "/static/audio/wordpool/COSTUME.wav", "conditions": [12, 800, "a", 24000], "internal_node_id": "0.0-85.0", "trial": 3, "time_elapsed": 740009, "serialpos": 4, "key_press": -1, "wordID": 382, "type": "PRES_AUD", "trial_index": 121}, "uniqueid": "MTK2594:31T4R4OBOTN2S7GC6DDX6BWTPKJ7C2", "dateTime": 1519089115179}, {"current_trial": 122, "trialdata": {"rt": -1000, "trial_type": "single-audio", "word": "pluto", "stimulus": "/static/audio/wordpool/PLUTO.wav", "conditions": [12, 800, "a", 24000], "internal_node_id": "0.0-86.0", "trial": 3, "time_elapsed": 741753, "serialpos": 5, "key_press": -1, "wordID": 1091, "type": "PRES_AUD", "trial_index": 122}, "uniqueid": "MTK2594:31T4R4OBOTN2S7GC6DDX6BWTPKJ7C2", "dateTime": 1519089116923}, {"current_trial": 123, "trialdata": {"rt": -1000, "trial_type": "single-audio", "word": "lettuce", "stimulus": "/static/audio/wordpool/LETTUCE.wav", "conditions": [12, 800, "a", 24000], "internal_node_id": "0.0-87.0", "trial": 3, "time_elapsed": 743541, "serialpos": 6, "key_press": -1, "wordID": 813, "type": "PRES_AUD", "trial_index": 123}, "uniqueid": "MTK2594:31T4R4OBOTN2S7GC6DDX6BWTPKJ7C2", "dateTime": 1519089118711}, {"current_trial": 124, "trialdata": {"rt": -1000, "trial_type": "single-audio", "word": "clothes", "stimulus": "/static/audio/wordpool/CLOTHES.wav", "conditions": [12, 800, "a", 24000], "internal_node_id": "0.0-88.0", "trial": 3, "time_elapsed": 745325, "serialpos": 7, "key_press": -1, "wordID": 326, "type": "PRES_AUD", "trial_index": 124}, "uniqueid": "MTK2594:31T4R4OBOTN2S7GC6DDX6BWTPKJ7C2", "dateTime": 1519089120495}, {"current_trial": 125, "trialdata": {"rt": -1000, "trial_type": "single-audio", "word": "rattle", "stimulus": "/static/audio/wordpool/RATTLE.wav", "conditions": [12, 800, "a", 24000], "internal_node_id": "0.0-89.0", "trial": 3, "time_elapsed": 746945, "serialpos": 8, "key_press": -1, "wordID": 1169, "type": "PRES_AUD", "trial_index": 125}, "uniqueid": "MTK2594:31T4R4OBOTN2S7GC6DDX6BWTPKJ7C2", "dateTime": 1519089122115}, {"current_trial": 126, "trialdata": {"rt": -1000, "trial_type": "single-audio", "word": "lizard", "stimulus": "/static/audio/wordpool/LIZARD.wav", "conditions": [12, 800, "a", 24000], "internal_node_id": "0.0-90.0", "trial": 3, "time_elapsed": 748669, "serialpos": 9, "key_press": -1, "wordID": 833, "type": "PRES_AUD", "trial_index": 126}, "uniqueid": "MTK2594:31T4R4OBOTN2S7GC6DDX6BWTPKJ7C2", "dateTime": 1519089123839}, {"current_trial": 127, "trialdata": {"rt": -1000, "trial_type": "single-audio", "word": "popcorn", "stimulus": "/static/audio/wordpool/POPCORN.wav", "conditions": [12, 800, "a", 24000], "internal_node_id": "0.0-91.0", "trial": 3, "time_elapsed": 750604, "serialpos": 10, "key_press": -1, "wordID": 1103, "type": "PRES_AUD", "trial_index": 127}, "uniqueid": "MTK2594:31T4R4OBOTN2S7GC6DDX6BWTPKJ7C2", "dateTime": 1519089125774}, {"current_trial": 128, "trialdata": {"rt": -1000, "trial_type": "single-audio", "word": "candy", "stimulus": "/static/audio/wordpool/CANDY.wav", "conditions": [12, 800, "a", 24000], "internal_node_id": "0.0-92.0", "trial": 3, "time_elapsed": 752381, "serialpos": 11, "key_press": -1, "wordID": 229, "type": "PRES_AUD", "trial_index": 128}, "uniqueid": "MTK2594:31T4R4OBOTN2S7GC6DDX6BWTPKJ7C2", "dateTime": 1519089127551}, {"current_trial": 129, "trialdata": {"rt": -1, "trial_type": "single-stim", "stimulus": "", "internal_node_id": "0.0-93.0-0.0", "time_elapsed": 753649, "key_press": -1, "type": "PRE_RECALL_DELAY", "trial_index": 129}, "uniqueid": "MTK2594:31T4R4OBOTN2S7GC6DDX6BWTPKJ7C2", "dateTime": 1519089128819}, {"current_trial": 130, "trialdata": {"rt": -1000, "trial_type": "single-audio", "stimulus": "/static/audio/400Hz.wav", "internal_node_id": "0.0-94.0", "time_elapsed": 754157, "key_press": -1, "type": "PRE_RECALL_ALERT", "trial_index": 130}, "uniqueid": "MTK2594:31T4R4OBOTN2S7GC6DDX6BWTPKJ7C2", "dateTime": 1519089129327}, {"current_trial": 131, "trialdata": {"rt": [4044, 5254, 7017, 11892, 13675, 16005, 42329], "recwords": ["popcorn", "candy", "lizard", "clothes", "blouse", "nightgown", "playground"], "key_times": [2859, 2975, 3123, 3396, 3489, 3631, 3759, 4044, 4447, 4606, 4678, 4845, 4949, 5254, 5596, 5744, 5914, 6115, 6257, 6470, 7017, 9826, 10945, 11143, 11317, 11442, 11541, 11641, 11892, 12188, 12297, 12766, 13011, 13157, 13430, 13675, 14021, 14133, 14236, 14317, 14430, 14870, 14942, 15091, 15235, 16005, 39702, 40163, 40308, 40416, 40639, 40754, 41277, 41488, 41572, 41686, 41872, 41948, 42329], "trial_type": "free-recall", "conditions": [12, 800, "a", 24000], "internal_node_id": "0.0-95.0-0.0", "key_presses": [80, 79, 80, 67, 79, 82, 78, 13, 67, 65, 78, 68, 89, 13, 76, 73, 90, 65, 82, 68, 13, 67, 76, 79, 84, 72, 69, 83, 13, 66, 76, 79, 85, 83, 69, 13, 78, 73, 71, 72, 84, 71, 79, 87, 78, 13, 80, 76, 65, 89, 71, 79, 8, 82, 79, 85, 78, 68, 13], "trial": 3, "time_elapsed": 814164, "type": "FREE_RECALL", "trial_index": 131}, "uniqueid": "MTK2594:31T4R4OBOTN2S7GC6DDX6BWTPKJ7C2", "dateTime": 1519089189351}, {"current_trial": 132, "trialdata": {"rt": 3117, "trial_type": "text", "internal_node_id": "0.0-96.0", "time_elapsed": 819301, "key_press": 32, "type": "INSTRUCTIONS", "trial_index": 132}, "uniqueid": "MTK2594:31T4R4OBOTN2S7GC6DDX6BWTPKJ7C2", "dateTime": 1519089194471}, {"current_trial": 133, "trialdata": {"rt": [3355, 5695, 7889, 10411], "trial_type": "math-distractor", "key_times": [2970, 3107, 3355, 5064, 5227, 5695, 7246, 7451, 7889, 9618, 9825, 10411], "responses": ["21", "14", "17", "17"], "num2": [9, 4, 7, 8, 8], "num3": [3, 4, 7, 7, 6], "conditions": [12, 1600, "a", 12000], "internal_node_id": "0.0-97.0", "key_presses": [98, 97, 13, 97, 100, 13, 97, 103, 13, 97, 103, 13], "trial": 4, "time_elapsed": 833307, "type": "DISTRACTOR", "trial_index": 133, "num1": [9, 6, 3, 2, 1]}, "uniqueid": "MTK2594:31T4R4OBOTN2S7GC6DDX6BWTPKJ7C2", "dateTime": 1519089208478}, {"current_trial": 134, "trialdata": {"rt": -1, "trial_type": "single-stim", "stimulus": "<p id=\"stim\">10</p>", "internal_node_id": "0.0-98.0-0.0", "time_elapsed": 836312, "key_press": -1, "trial_index": 134}, "uniqueid": "MTK2594:31T4R4OBOTN2S7GC6DDX6BWTPKJ7C2", "dateTime": 1519089211482}, {"current_trial": 135, "trialdata": {"rt": -1, "trial_type": "single-stim", "stimulus": "<p id=\"stim\">9</p>", "internal_node_id": "0.0-98.0-1.0", "time_elapsed": 837315, "key_press": -1, "trial_index": 135}, "uniqueid": "MTK2594:31T4R4OBOTN2S7GC6DDX6BWTPKJ7C2", "dateTime": 1519089212485}, {"current_trial": 136, "trialdata": {"rt": -1, "trial_type": "single-stim", "stimulus": "<p id=\"stim\">8</p>", "internal_node_id": "0.0-98.0-2.0", "time_elapsed": 838318, "key_press": -1, "trial_index": 136}, "uniqueid": "MTK2594:31T4R4OBOTN2S7GC6DDX6BWTPKJ7C2", "dateTime": 1519089213488}, {"current_trial": 137, "trialdata": {"rt": -1, "trial_type": "single-stim", "stimulus": "<p id=\"stim\">7</p>", "internal_node_id": "0.0-98.0-3.0", "time_elapsed": 839321, "key_press": -1, "trial_index": 137}, "uniqueid": "MTK2594:31T4R4OBOTN2S7GC6DDX6BWTPKJ7C2", "dateTime": 1519089214491}, {"current_trial": 138, "trialdata": {"rt": -1, "trial_type": "single-stim", "stimulus": "<p id=\"stim\">6</p>", "internal_node_id": "0.0-98.0-4.0", "time_elapsed": 840324, "key_press": -1, "trial_index": 138}, "uniqueid": "MTK2594:31T4R4OBOTN2S7GC6DDX6BWTPKJ7C2", "dateTime": 1519089215494}, {"current_trial": 139, "trialdata": {"rt": -1, "trial_type": "single-stim", "stimulus": "<p id=\"stim\">5</p>", "internal_node_id": "0.0-98.0-5.0", "time_elapsed": 841328, "key_press": -1, "trial_index": 139}, "uniqueid": "MTK2594:31T4R4OBOTN2S7GC6DDX6BWTPKJ7C2", "dateTime": 1519089216498}, {"current_trial": 140, "trialdata": {"rt": -1, "trial_type": "single-stim", "stimulus": "<p id=\"stim\">4</p>", "internal_node_id": "0.0-98.0-6.0", "time_elapsed": 842331, "key_press": -1, "trial_index": 140}, "uniqueid": "MTK2594:31T4R4OBOTN2S7GC6DDX6BWTPKJ7C2", "dateTime": 1519089217501}, {"current_trial": 141, "trialdata": {"rt": -1, "trial_type": "single-stim", "stimulus": "<p id=\"stim\">3</p>", "internal_node_id": "0.0-98.0-7.0", "time_elapsed": 843333, "key_press": -1, "trial_index": 141}, "uniqueid": "MTK2594:31T4R4OBOTN2S7GC6DDX6BWTPKJ7C2", "dateTime": 1519089218503}, {"current_trial": 142, "trialdata": {"rt": -1, "trial_type": "single-stim", "stimulus": "<p id=\"stim\">2</p>", "internal_node_id": "0.0-98.0-8.0", "time_elapsed": 844336, "key_press": -1, "trial_index": 142}, "uniqueid": "MTK2594:31T4R4OBOTN2S7GC6DDX6BWTPKJ7C2", "dateTime": 1519089219506}, {"current_trial": 143, "trialdata": {"rt": -1, "trial_type": "single-stim", "stimulus": "<p id=\"stim\">1</p>", "internal_node_id": "0.0-98.0-9.0", "time_elapsed": 845340, "key_press": -1, "trial_index": 143}, "uniqueid": "MTK2594:31T4R4OBOTN2S7GC6DDX6BWTPKJ7C2", "dateTime": 1519089220510}, {"current_trial": 144, "trialdata": {"rt": -1, "trial_type": "single-stim", "stimulus": "<p id=\"stim\">+</p>", "internal_node_id": "0.0-99.0-0.0", "time_elapsed": 846843, "key_press": -1, "type": "FIXATION", "trial_index": 144}, "uniqueid": "MTK2594:31T4R4OBOTN2S7GC6DDX6BWTPKJ7C2", "dateTime": 1519089222014}, {"current_trial": 145, "trialdata": {"rt": -1000, "trial_type": "single-audio", "word": "pecan", "stimulus": "/static/audio/wordpool/PECAN.wav", "conditions": [12, 1600, "a", 12000], "internal_node_id": "0.0-100.0", "trial": 4, "time_elapsed": 849643, "serialpos": 0, "key_press": -1, "wordID": 1035, "type": "PRES_AUD", "trial_index": 145}, "uniqueid": "MTK2594:31T4R4OBOTN2S7GC6DDX6BWTPKJ7C2", "dateTime": 1519089224813}, {"current_trial": 146, "trialdata": {"rt": -1000, "trial_type": "single-audio", "word": "transplant", "stimulus": "/static/audio/wordpool/TRANSPLANT.wav", "conditions": [12, 1600, "a", 12000], "internal_node_id": "0.0-101.0", "trial": 4, "time_elapsed": 852366, "serialpos": 1, "key_press": -1, "wordID": 1495, "type": "PRES_AUD", "trial_index": 146}, "uniqueid": "MTK2594:31T4R4OBOTN2S7GC6DDX6BWTPKJ7C2", "dateTime": 1519089227537}, {"current_trial": 147, "trialdata": {"rt": -1000, "trial_type": "single-audio", "word": "soda", "stimulus": "/static/audio/wordpool/SODA.wav", "conditions": [12, 1600, "a", 12000], "internal_node_id": "0.0-102.0", "trial": 4, "time_elapsed": 854977, "serialpos": 2, "key_press": -1, "wordID": 1340, "type": "PRES_AUD", "trial_index": 147}, "uniqueid": "MTK2594:31T4R4OBOTN2S7GC6DDX6BWTPKJ7C2", "dateTime": 1519089230147}, {"current_trial": 148, "trialdata": {"rt": -1000, "trial_type": "single-audio", "word": "woman", "stimulus": "/static/audio/wordpool/WOMAN.wav", "conditions": [12, 1600, "a", 12000], "internal_node_id": "0.0-103.0", "trial": 4, "time_elapsed": 857760, "serialpos": 3, "key_press": -1, "wordID": 1619, "type": "PRES_AUD", "trial_index": 148}, "uniqueid": "MTK2594:31T4R4OBOTN2S7GC6DDX6BWTPKJ7C2", "dateTime": 1519089232930}, {"current_trial": 149, "trialdata": {"rt": -1000, "trial_type": "single-audio", "word": "lady", "stimulus": "/static/audio/wordpool/LADY.wav", "conditions": [12, 1600, "a", 12000], "internal_node_id": "0.0-104.0", "trial": 4, "time_elapsed": 860488, "serialpos": 4, "key_press": -1, "wordID": 793, "type": "PRES_AUD", "trial_index": 149}, "uniqueid": "MTK2594:31T4R4OBOTN2S7GC6DDX6BWTPKJ7C2", "dateTime": 1519089235658}, {"current_trial": 150, "trialdata": {"rt": -1000, "trial_type": "single-audio", "word": "kidney", "stimulus": "/static/audio/wordpool/KIDNEY.wav", "conditions": [12, 1600, "a", 12000], "internal_node_id": "0.0-105.0", "trial": 4, "time_elapsed": 862992, "serialpos": 5, "key_press": -1, "wordID": 775, "type": "PRES_AUD", "trial_index": 150}, "uniqueid": "MTK2594:31T4R4OBOTN2S7GC6DDX6BWTPKJ7C2", "dateTime": 1519089238162}, {"current_trial": 151, "trialdata": {"rt": -1000, "trial_type": "single-audio", "word": "package", "stimulus": "/static/audio/wordpool/PACKAGE.wav", "conditions": [12, 1600, "a", 12000], "internal_node_id": "0.0-106.0", "trial": 4, "time_elapsed": 865409, "serialpos": 6, "key_press": -1, "wordID": 996, "type": "PRES_AUD", "trial_index": 151}, "uniqueid": "MTK2594:31T4R4OBOTN2S7GC6DDX6BWTPKJ7C2", "dateTime": 1519089240579}, {"current_trial": 152, "trialdata": {"rt": -1000, "trial_type": "single-audio", "word": "bouquet", "stimulus": "/static/audio/wordpool/BOUQUET.wav", "conditions": [12, 1600, "a", 12000], "internal_node_id": "0.0-107.0", "trial": 4, "time_elapsed": 868200, "serialpos": 7, "key_press": -1, "wordID": 156, "type": "PRES_AUD", "trial_index": 152}, "uniqueid": "MTK2594:31T4R4OBOTN2S7GC6DDX6BWTPKJ7C2", "dateTime": 1519089243371}, {"current_trial": 153, "trialdata": {"rt": -1000, "trial_type": "single-audio", "word": "lumber", "stimulus": "/static/audio/wordpool/LUMBER.wav", "conditions": [12, 1600, "a", 12000], "internal_node_id": "0.0-108.0", "trial": 4, "time_elapsed": 870714, "serialpos": 8, "key_press": -1, "wordID": 847, "type": "PRES_AUD", "trial_index": 153}, "uniqueid": "MTK2594:31T4R4OBOTN2S7GC6DDX6BWTPKJ7C2", "dateTime": 1519089245884}, {"current_trial": 154, "trialdata": {"rt": -1000, "trial_type": "single-audio", "word": "antler", "stimulus": "/static/audio/wordpool/ANTLER.wav", "conditions": [12, 1600, "a", 12000], "internal_node_id": "0.0-109.0", "trial": 4, "time_elapsed": 873164, "serialpos": 9, "key_press": -1, "wordID": 28, "type": "PRES_AUD", "trial_index": 154}, "uniqueid": "MTK2594:31T4R4OBOTN2S7GC6DDX6BWTPKJ7C2", "dateTime": 1519089248334}, {"current_trial": 155, "trialdata": {"rt": -1000, "trial_type": "single-audio", "word": "garlic", "stimulus": "/static/audio/wordpool/GARLIC.wav", "conditions": [12, 1600, "a", 12000], "internal_node_id": "0.0-110.0", "trial": 4, "time_elapsed": 875686, "serialpos": 10, "key_press": -1, "wordID": 623, "type": "PRES_AUD", "trial_index": 155}, "uniqueid": "MTK2594:31T4R4OBOTN2S7GC6DDX6BWTPKJ7C2", "dateTime": 1519089250856}, {"current_trial": 156, "trialdata": {"rt": -1000, "trial_type": "single-audio", "word": "seagull", "stimulus": "/static/audio/wordpool/SEAGULL.wav", "conditions": [12, 1600, "a", 12000], "internal_node_id": "0.0-111.0", "trial": 4, "time_elapsed": 878145, "serialpos": 11, "key_press": -1, "wordID": 1260, "type": "PRES_AUD", "trial_index": 156}, "uniqueid": "MTK2594:31T4R4OBOTN2S7GC6DDX6BWTPKJ7C2", "dateTime": 1519089253316}, {"current_trial": 157, "trialdata": {"rt": -1, "trial_type": "single-stim", "stimulus": "", "internal_node_id": "0.0-112.0-0.0", "time_elapsed": 879478, "key_press": -1, "type": "PRE_RECALL_DELAY", "trial_index": 157}, "uniqueid": "MTK2594:31T4R4OBOTN2S7GC6DDX6BWTPKJ7C2", "dateTime": 1519089254648}, {"current_trial": 158, "trialdata": {"rt": -1000, "trial_type": "single-audio", "stimulus": "/static/audio/400Hz.wav", "internal_node_id": "0.0-113.0", "time_elapsed": 879980, "key_press": -1, "type": "PRE_RECALL_ALERT", "trial_index": 158}, "uniqueid": "MTK2594:31T4R4OBOTN2S7GC6DDX6BWTPKJ7C2", "dateTime": 1519089255150}, {"current_trial": 159, "trialdata": {"rt": [2750, 5308, 11685, 14708, 15880, 32168, 55499], "recwords": ["seagull", "pecan", "kidney", "transplant", "woman", "garlic", "soda"], "key_times": [1517, 1658, 1839, 1981, 2062, 2177, 2326, 2750, 3628, 3835, 4190, 4462, 4842, 5308, 9834, 10079, 10460, 10721, 10925, 11068, 11685, 12102, 12372, 12673, 13256, 13501, 13936, 14159, 14255, 14360, 14497, 14708, 15151, 15230, 15355, 15509, 15573, 15880, 29994, 29999, 30655, 30933, 31073, 31822, 32168, 54443, 54570, 54912, 55019, 55499], "trial_type": "free-recall", "conditions": [12, 1600, "a", 12000], "internal_node_id": "0.0-114.0-0.0", "key_presses": [83, 69, 65, 71, 85, 76, 76, 13, 80, 69, 67, 65, 78, 13, 75, 73, 68, 78, 69, 89, 13, 84, 82, 65, 78, 83, 80, 76, 65, 78, 84, 13, 87, 79, 77, 65, 78, 13, 71, 65, 82, 76, 73, 67, 13, 83, 79, 68, 65, 13], "trial": 4, "time_elapsed": 939985, "type": "FREE_RECALL", "trial_index": 159}, "uniqueid": "MTK2594:31T4R4OBOTN2S7GC6DDX6BWTPKJ7C2", "dateTime": 1519089315169}, {"current_trial": 160, "trialdata": {"rt": 56484, "trial_type": "text", "internal_node_id": "0.0-115.0", "time_elapsed": 998487, "key_press": 32, "type": "INSTRUCTIONS", "trial_index": 160}, "uniqueid": "MTK2594:31T4R4OBOTN2S7GC6DDX6BWTPKJ7C2", "dateTime": 1519089373657}, {"current_trial": 161, "trialdata": {"rt": [2934, 5563, 8114, 10882], "trial_type": "math-distractor", "key_times": [2247, 2392, 2934, 4945, 5058, 5563, 7458, 7623, 8114, 10214, 10323, 10882], "responses": ["20", "11", "18", "12"], "num2": [6, 2, 7, 4, 5], "num3": [7, 2, 6, 5, 9], "conditions": [24, 800, "a", 12000], "internal_node_id": "0.0-116.0", "key_presses": [98, 96, 13, 97, 97, 13, 97, 104, 13, 97, 98, 13], "trial": 5, "time_elapsed": 1012495, "type": "DISTRACTOR", "trial_index": 161, "num1": [7, 7, 5, 3, 3]}, "uniqueid": "MTK2594:31T4R4OBOTN2S7GC6DDX6BWTPKJ7C2", "dateTime": 1519089387665}, {"current_trial": 162, "trialdata": {"rt": -1, "trial_type": "single-stim", "stimulus": "<p id=\"stim\">10</p>", "internal_node_id": "0.0-117.0-0.0", "time_elapsed": 1015500, "key_press": -1, "trial_index": 162}, "uniqueid": "MTK2594:31T4R4OBOTN2S7GC6DDX6BWTPKJ7C2", "dateTime": 1519089390670}, {"current_trial": 163, "trialdata": {"rt": -1, "trial_type": "single-stim", "stimulus": "<p id=\"stim\">9</p>", "internal_node_id": "0.0-117.0-1.0", "time_elapsed": 1016502, "key_press": -1, "trial_index": 163}, "uniqueid": "MTK2594:31T4R4OBOTN2S7GC6DDX6BWTPKJ7C2", "dateTime": 1519089391672}, {"current_trial": 164, "trialdata": {"rt": -1, "trial_type": "single-stim", "stimulus": "<p id=\"stim\">8</p>", "internal_node_id": "0.0-117.0-2.0", "time_elapsed": 1017504, "key_press": -1, "trial_index": 164}, "uniqueid": "MTK2594:31T4R4OBOTN2S7GC6DDX6BWTPKJ7C2", "dateTime": 1519089392675}, {"current_trial": 165, "trialdata": {"rt": -1, "trial_type": "single-stim", "stimulus": "<p id=\"stim\">7</p>", "internal_node_id": "0.0-117.0-3.0", "time_elapsed": 1018508, "key_press": -1, "trial_index": 165}, "uniqueid": "MTK2594:31T4R4OBOTN2S7GC6DDX6BWTPKJ7C2", "dateTime": 1519089393678}, {"current_trial": 166, "trialdata": {"rt": -1, "trial_type": "single-stim", "stimulus": "<p id=\"stim\">6</p>", "internal_node_id": "0.0-117.0-4.0", "time_elapsed": 1019510, "key_press": -1, "trial_index": 166}, "uniqueid": "MTK2594:31T4R4OBOTN2S7GC6DDX6BWTPKJ7C2", "dateTime": 1519089394680}, {"current_trial": 167, "trialdata": {"rt": -1, "trial_type": "single-stim", "stimulus": "<p id=\"stim\">5</p>", "internal_node_id": "0.0-117.0-5.0", "time_elapsed": 1020512, "key_press": -1, "trial_index": 167}, "uniqueid": "MTK2594:31T4R4OBOTN2S7GC6DDX6BWTPKJ7C2", "dateTime": 1519089395682}, {"current_trial": 168, "trialdata": {"rt": -1, "trial_type": "single-stim", "stimulus": "<p id=\"stim\">4</p>", "internal_node_id": "0.0-117.0-6.0", "time_elapsed": 1021516, "key_press": -1, "trial_index": 168}, "uniqueid": "MTK2594:31T4R4OBOTN2S7GC6DDX6BWTPKJ7C2", "dateTime": 1519089396686}, {"current_trial": 169, "trialdata": {"rt": -1, "trial_type": "single-stim", "stimulus": "<p id=\"stim\">3</p>", "internal_node_id": "0.0-117.0-7.0", "time_elapsed": 1022520, "key_press": -1, "trial_index": 169}, "uniqueid": "MTK2594:31T4R4OBOTN2S7GC6DDX6BWTPKJ7C2", "dateTime": 1519089397690}, {"current_trial": 170, "trialdata": {"rt": -1, "trial_type": "single-stim", "stimulus": "<p id=\"stim\">2</p>", "internal_node_id": "0.0-117.0-8.0", "time_elapsed": 1023523, "key_press": -1, "trial_index": 170}, "uniqueid": "MTK2594:31T4R4OBOTN2S7GC6DDX6BWTPKJ7C2", "dateTime": 1519089398695}, {"current_trial": 171, "trialdata": {"rt": -1, "trial_type": "single-stim", "stimulus": "<p id=\"stim\">1</p>", "internal_node_id": "0.0-117.0-9.0", "time_elapsed": 1024528, "key_press": -1, "trial_index": 171}, "uniqueid": "MTK2594:31T4R4OBOTN2S7GC6DDX6BWTPKJ7C2", "dateTime": 1519089399698}, {"current_trial": 172, "trialdata": {"rt": -1, "trial_type": "single-stim", "stimulus": "<p id=\"stim\">+</p>", "internal_node_id": "0.0-118.0-0.0", "time_elapsed": 1026031, "key_press": -1, "type": "FIXATION", "trial_index": 172}, "uniqueid": "MTK2594:31T4R4OBOTN2S7GC6DDX6BWTPKJ7C2", "dateTime": 1519089401202}, {"current_trial": 173, "trialdata": {"rt": -1000, "trial_type": "single-audio", "word": "tile", "stimulus": "/static/audio/wordpool/TILE.wav", "conditions": [24, 800, "a", 12000], "internal_node_id": "0.0-119.0", "trial": 5, "time_elapsed": 1027797, "serialpos": 0, "key_press": -1, "wordID": 1467, "type": "PRES_AUD", "trial_index": 173}, "uniqueid": "MTK2594:31T4R4OBOTN2S7GC6DDX6BWTPKJ7C2", "dateTime": 1519089402967}, {"current_trial": 174, "trialdata": {"rt": -1000, "trial_type": "single-audio", "word": "guitar", "stimulus": "/static/audio/wordpool/GUITAR.wav", "conditions": [24, 800, "a", 12000], "internal_node_id": "0.0-120.0", "trial": 5, "time_elapsed": 1029459, "serialpos": 1, "key_press": -1, "wordID": 669, "type": "PRES_AUD", "trial_index": 174}, "uniqueid": "MTK2594:31T4R4OBOTN2S7GC6DDX6BWTPKJ7C2", "dateTime": 1519089404629}, {"current_trial": 175, "trialdata": {"rt": -1000, "trial_type": "single-audio", "word": "pork", "stimulus": "/static/audio/wordpool/PORK.wav", "conditions": [24, 800, "a", 12000], "internal_node_id": "0.0-121.0", "trial": 5, "time_elapsed": 1031398, "serialpos": 2, "key_press": -1, "wordID": 1107, "type": "PRES_AUD", "trial_index": 175}, "uniqueid": "MTK2594:31T4R4OBOTN2S7GC6DDX6BWTPKJ7C2", "dateTime": 1519089406569}, {"current_trial": 176, "trialdata": {"rt": -1000, "trial_type": "single-audio", "word": "pimple", "stimulus": "/static/audio/wordpool/PIMPLE.wav", "conditions": [24, 800, "a", 12000], "internal_node_id": "0.0-122.0", "trial": 5, "time_elapsed": 1033347, "serialpos": 3, "key_press": -1, "wordID": 1070, "type": "PRES_AUD", "trial_index": 176}, "uniqueid": "MTK2594:31T4R4OBOTN2S7GC6DDX6BWTPKJ7C2", "dateTime": 1519089408518}, {"current_trial": 177, "trialdata": {"rt": -1000, "trial_type": "single-audio", "word": "survey", "stimulus": "/static/audio/wordpool/SURVEY.wav", "conditions": [24, 800, "a", 12000], "internal_node_id": "0.0-123.0", "trial": 5, "time_elapsed": 1035159, "serialpos": 4, "key_press": -1, "wordID": 1413, "type": "PRES_AUD", "trial_index": 177}, "uniqueid": "MTK2594:31T4R4OBOTN2S7GC6DDX6BWTPKJ7C2", "dateTime": 1519089410330}, {"current_trial": 178, "trialdata": {"rt": -1000, "trial_type": "single-audio", "word": "blade", "stimulus": "/static/audio/wordpool/BLADE.wav", "conditions": [24, 800, "a", 12000], "internal_node_id": "0.0-124.0", "trial": 5, "time_elapsed": 1036812, "serialpos": 5, "key_press": -1, "wordID": 133, "type": "PRES_AUD", "trial_index": 178}, "uniqueid": "MTK2594:31T4R4OBOTN2S7GC6DDX6BWTPKJ7C2", "dateTime": 1519089411983}, {"current_trial": 179, "trialdata": {"rt": -1000, "trial_type": "single-audio", "word": "brick", "stimulus": "/static/audio/wordpool/BRICK.wav", "conditions": [24, 800, "a", 12000], "internal_node_id": "0.0-125.0", "trial": 5, "time_elapsed": 1038473, "serialpos": 6, "key_press": -1, "wordID": 171, "type": "PRES_AUD", "trial_index": 179}, "uniqueid": "MTK2594:31T4R4OBOTN2S7GC6DDX6BWTPKJ7C2", "dateTime": 1519089413644}, {"current_trial": 180, "trialdata": {"rt": -1000, "trial_type": "single-audio", "word": "dustpan", "stimulus": "/static/audio/wordpool/DUSTPAN.wav", "conditions": [24, 800, "a", 12000], "internal_node_id": "0.0-126.0", "trial": 5, "time_elapsed": 1040164, "serialpos": 7, "key_press": -1, "wordID": 508, "type": "PRES_AUD", "trial_index": 180}, "uniqueid": "MTK2594:31T4R4OBOTN2S7GC6DDX6BWTPKJ7C2", "dateTime": 1519089415334}, {"current_trial": 181, "trialdata": {"rt": -1000, "trial_type": "single-audio", "word": "scallop", "stimulus": "/static/audio/wordpool/SCALLOP.wav", "conditions": [24, 800, "a", 12000], "internal_node_id": "0.0-127.0", "trial": 5, "time_elapsed": 1042074, "serialpos": 8, "key_press": -1, "wordID": 1241, "type": "PRES_AUD", "trial_index": 181}, "uniqueid": "MTK2594:31T4R4OBOTN2S7GC6DDX6BWTPKJ7C2", "dateTime": 1519089417244}, {"current_trial": 182, "trialdata": {"rt": -1000, "trial_type": "single-audio", "word": "creature", "stimulus": "/static/audio/wordpool/CREATURE.wav", "conditions": [24, 800, "a", 12000], "internal_node_id": "0.0-128.0", "trial": 5, "time_elapsed": 1043979, "serialpos": 9, "key_press": -1, "wordID": 402, "type": "PRES_AUD", "trial_index": 182}, "uniqueid": "MTK2594:31T4R4OBOTN2S7GC6DDX6BWTPKJ7C2", "dateTime": 1519089419149}, {"current_trial": 183, "trialdata": {"rt": -1000, "trial_type": "single-audio", "word": "pasta", "stimulus": "/static/audio/wordpool/PASTA.wav", "conditions": [24, 800, "a", 12000], "internal_node_id": "0.0-129.0", "trial": 5, "time_elapsed": 1045764, "serialpos": 10, "key_press": -1, "wordID": 1020, "type": "PRES_AUD", "trial_index": 183}, "uniqueid": "MTK2594:31T4R4OBOTN2S7GC6DDX6BWTPKJ7C2", "dateTime": 1519089420934}, {"current_trial": 184, "trialdata": {"rt": -1000, "trial_type": "single-audio", "word": "pizza", "stimulus": "/static/audio/wordpool/PIZZA.wav", "conditions": [24, 800, "a", 12000], "internal_node_id": "0.0-130.0", "trial": 5, "time_elapsed": 1047580, "serialpos": 11, "key_press": -1, "wordID": 1078, "type": "PRES_AUD", "trial_index": 184}, "uniqueid": "MTK2594:31T4R4OBOTN2S7GC6DDX6BWTPKJ7C2", "dateTime": 1519089422751}, {"current_trial": 185, "trialdata": {"rt": -1000, "trial_type": "single-audio", "word": "velvet", "stimulus": "/static/audio/wordpool/VELVET.wav", "conditions": [24, 800, "a", 12000], "internal_node_id": "0.0-131.0", "trial": 5, "time_elapsed": 1049400, "serialpos": 12, "key_press": -1, "wordID": 1554, "type": "PRES_AUD", "trial_index": 185}, "uniqueid": "MTK2594:31T4R4OBOTN2S7GC6DDX6BWTPKJ7C2", "dateTime": 1519089424571}, {"current_trial": 186, "trialdata": {"rt": -1000, "trial_type": "single-audio", "word": "river", "stimulus": "/static/audio/wordpool/RIVER.wav", "conditions": [24, 800, "a", 12000], "internal_node_id": "0.0-132.0", "trial": 5, "time_elapsed": 1051073, "serialpos": 13, "key_press": -1, "wordID": 1193, "type": "PRES_AUD", "trial_index": 186}, "uniqueid": "MTK2594:31T4R4OBOTN2S7GC6DDX6BWTPKJ7C2", "dateTime": 1519089426243}, {"current_trial": 187, "trialdata": {"rt": -1000, "trial_type": "single-audio", "word": "basement", "stimulus": "/static/audio/wordpool/BASEMENT.wav", "conditions": [24, 800, "a", 12000], "internal_node_id": "0.0-133.0", "trial": 5, "time_elapsed": 1053026, "serialpos": 14, "key_press": -1, "wordID": 93, "type": "PRES_AUD", "trial_index": 187}, "uniqueid": "MTK2594:31T4R4OBOTN2S7GC6DDX6BWTPKJ7C2", "dateTime": 1519089428196}, {"current_trial": 188, "trialdata": {"rt": -1000, "trial_type": "single-audio", "word": "flask", "stimulus": "/static/audio/wordpool/FLASK.wav", "conditions": [24, 800, "a", 12000], "internal_node_id": "0.0-134.0", "trial": 5, "time_elapsed": 1054761, "serialpos": 15, "key_press": -1, "wordID": 575, "type": "PRES_AUD", "trial_index": 188}, "uniqueid": "MTK2594:31T4R4OBOTN2S7GC6DDX6BWTPKJ7C2", "dateTime": 1519089429931}, {"current_trial": 189, "trialdata": {"rt": -1000, "trial_type": "single-audio", "word": "actress", "stimulus": "/static/audio/wordpool/ACTRESS.wav", "conditions": [24, 800, "a", 12000], "internal_node_id": "0.0-135.0", "trial": 5, "time_elapsed": 1056585, "serialpos": 16, "key_press": -1, "wordID": 5, "type": "PRES_AUD", "trial_index": 189}, "uniqueid": "MTK2594:31T4R4OBOTN2S7GC6DDX6BWTPKJ7C2", "dateTime": 1519089431755}, {"current_trial": 190, "trialdata": {"rt": -1000, "trial_type": "single-audio", "word": "lace", "stimulus": "/static/audio/wordpool/LACE.wav", "conditions": [24, 800, "a", 12000], "internal_node_id": "0.0-136.0", "trial": 5, "time_elapsed": 1058387, "serialpos": 17, "key_press": -1, "wordID": 791, "type": "PRES_AUD", "trial_index": 190}, "uniqueid": "MTK2594:31T4R4OBOTN2S7GC6DDX6BWTPKJ7C2", "dateTime": 1519089433557}, {"current_trial": 191, "trialdata": {"rt": -1000, "trial_type": "single-audio", "word": "cocoon", "stimulus": "/static/audio/wordpool/COCOON.wav", "conditions": [24, 800, "a", 12000], "internal_node_id": "0.0-137.0", "trial": 5, "time_elapsed": 1060347, "serialpos": 18, "key_press": -1, "wordID": 338, "type": "PRES_AUD", "trial_index": 191}, "uniqueid": "MTK2594:31T4R4OBOTN2S7GC6DDX6BWTPKJ7C2", "dateTime": 1519089435518}, {"current_trial": 192, "trialdata": {"rt": -1000, "trial_type": "single-audio", "word": "gravel", "stimulus": "/static/audio/wordpool/GRAVEL.wav", "conditions": [24, 800, "a", 12000], "internal_node_id": "0.0-138.0", "trial": 5, "time_elapsed": 1062182, "serialpos": 19, "key_press": -1, "wordID": 658, "type": "PRES_AUD", "trial_index": 192}, "uniqueid": "MTK2594:31T4R4OBOTN2S7GC6DDX6BWTPKJ7C2", "dateTime": 1519089437352}, {"current_trial": 193, "trialdata": {"rt": -1000, "trial_type": "single-audio", "word": "baby", "stimulus": "/static/audio/wordpool/BABY.wav", "conditions": [24, 800, "a", 12000], "internal_node_id": "0.0-139.0", "trial": 5, "time_elapsed": 1064085, "serialpos": 20, "key_press": -1, "wordID": 63, "type": "PRES_AUD", "trial_index": 193}, "uniqueid": "MTK2594:31T4R4OBOTN2S7GC6DDX6BWTPKJ7C2", "dateTime": 1519089439256}, {"current_trial": 194, "trialdata": {"rt": -1000, "trial_type": "single-audio", "word": "supper", "stimulus": "/static/audio/wordpool/SUPPER.wav", "conditions": [24, 800, "a", 12000], "internal_node_id": "0.0-140.0", "trial": 5, "time_elapsed": 1065776, "serialpos": 21, "key_press": -1, "wordID": 1410, "type": "PRES_AUD", "trial_index": 194}, "uniqueid": "MTK2594:31T4R4OBOTN2S7GC6DDX6BWTPKJ7C2", "dateTime": 1519089440946}, {"current_trial": 195, "trialdata": {"rt": -1000, "trial_type": "single-audio", "word": "picnic", "stimulus": "/static/audio/wordpool/PICNIC.wav", "conditions": [24, 800, "a", 12000], "internal_node_id": "0.0-141.0", "trial": 5, "time_elapsed": 1067429, "serialpos": 22, "key_press": -1, "wordID": 1059, "type": "PRES_AUD", "trial_index": 195}, "uniqueid": "MTK2594:31T4R4OBOTN2S7GC6DDX6BWTPKJ7C2", "dateTime": 1519089442599}, {"current_trial": 196, "trialdata": {"rt": -1000, "trial_type": "single-audio", "word": "author", "stimulus": "/static/audio/wordpool/AUTHOR.wav", "conditions": [24, 800, "a", 12000], "internal_node_id": "0.0-142.0", "trial": 5, "time_elapsed": 1069320, "serialpos": 23, "key_press": -1, "wordID": 60, "type": "PRES_AUD", "trial_index": 196}, "uniqueid": "MTK2594:31T4R4OBOTN2S7GC6DDX6BWTPKJ7C2", "dateTime": 1519089444490}, {"current_trial": 197, "trialdata": {"rt": -1, "trial_type": "single-stim", "stimulus": "", "internal_node_id": "0.0-143.0-0.0", "time_elapsed": 1070665, "key_press": -1, "type": "PRE_RECALL_DELAY", "trial_index": 197}, "uniqueid": "MTK2594:31T4R4OBOTN2S7GC6DDX6BWTPKJ7C2", "dateTime": 1519089445836}, {"current_trial": 198, "trialdata": {"rt": -1000, "trial_type": "single-audio", "stimulus": "/static/audio/400Hz.wav", "internal_node_id": "0.0-144.0", "time_elapsed": 1071168, "key_press": -1, "type": "PRE_RECALL_ALERT", "trial_index": 198}, "uniqueid": "MTK2594:31T4R4OBOTN2S7GC6DDX6BWTPKJ7C2", "dateTime": 1519089446338}, {"current_trial": 199, "trialdata": {"rt": [7365, 12451, 14238, 18530, 25708, 34476, 39145, 48359, 59096], "recwords": ["cocoon", "pasta", "pizza", "pimple", "picnic", "pork", "baby", "author", "scallop"], "key_times": [4747, 4919, 5204, 6182, 6550, 6730, 7365, 11697, 11877, 11973, 12131, 12261, 12451, 13209, 13340, 13582, 13754, 13959, 14238, 17291, 17458, 17820, 17978, 18217, 18309, 18530, 24267, 24507, 24895, 25073, 25234, 25371, 25708, 33643, 33826, 34066, 34187, 34476, 38334, 38507, 38703, 38821, 39145, 47588, 47678, 47827, 47900, 48003, 48146, 48359, 55655, 56059, 56265, 56368, 56538, 56693, 56857, 59096], "trial_type": "free-recall", "conditions": [24, 800, "a", 12000], "internal_node_id": "0.0-145.0-0.0", "key_presses": [67, 79, 67, 79, 79, 78, 13, 80, 65, 83, 84, 65, 32, 80, 73, 90, 90, 65, 13, 80, 73, 77, 80, 76, 69, 13, 80, 73, 67, 78, 73, 67, 13, 80, 79, 82, 75, 13, 66, 65, 66, 89, 13, 65, 85, 84, 72, 79, 82, 13, 83, 67, 65, 76, 76, 79, 80, 13], "trial": 5, "time_elapsed": 1131173, "type": "FREE_RECALL", "trial_index": 199}, "uniqueid": "MTK2594:31T4R4OBOTN2S7GC6DDX6BWTPKJ7C2", "dateTime": 1519089506349}, {"current_trial": 200, "trialdata": {"rt": 11361, "trial_type": "text", "internal_node_id": "0.0-146.0", "time_elapsed": 1144544, "key_press": 32, "type": "INSTRUCTIONS", "trial_index": 200}, "uniqueid": "MTK2594:31T4R4OBOTN2S7GC6DDX6BWTPKJ7C2", "dateTime": 1519089519715}, {"current_trial": 201, "trialdata": {"rt": [4584, 8794, 11551], "trial_type": "math-distractor", "key_times": [3700, 3845, 4584, 8139, 8259, 8794, 11098, 11253, 11551], "responses": ["14", "21", "25"], "num2": [3, 8, 7, 3], "num3": [9, 9, 9, 8], "conditions": [12, 800, "a", 12000], "internal_node_id": "0.0-147.0", "key_presses": [97, 100, 13, 98, 97, 13, 98, 101, 13], "trial": 6, "time_elapsed": 1158551, "type": "DISTRACTOR", "trial_index": 201, "num1": [2, 4, 9, 4]}, "uniqueid": "MTK2594:31T4R4OBOTN2S7GC6DDX6BWTPKJ7C2", "dateTime": 1519089533723}, {"current_trial": 202, "trialdata": {"rt": -1, "trial_type": "single-stim", "stimulus": "<p id=\"stim\">10</p>", "internal_node_id": "0.0-148.0-0.0", "time_elapsed": 1161555, "key_press": -1, "trial_index": 202}, "uniqueid": "MTK2594:31T4R4OBOTN2S7GC6DDX6BWTPKJ7C2", "dateTime": 1519089536726}, {"current_trial": 203, "trialdata": {"rt": -1, "trial_type": "single-stim", "stimulus": "<p id=\"stim\">9</p>", "internal_node_id": "0.0-148.0-1.0", "time_elapsed": 1162560, "key_press": -1, "trial_index": 203}, "uniqueid": "MTK2594:31T4R4OBOTN2S7GC6DDX6BWTPKJ7C2", "dateTime": 1519089537731}, {"current_trial": 204, "trialdata": {"rt": -1, "trial_type": "single-stim", "stimulus": "<p id=\"stim\">8</p>", "internal_node_id": "0.0-148.0-2.0", "time_elapsed": 1163563, "key_press": -1, "trial_index": 204}, "uniqueid": "MTK2594:31T4R4OBOTN2S7GC6DDX6BWTPKJ7C2", "dateTime": 1519089538733}, {"current_trial": 205, "trialdata": {"rt": -1, "trial_type": "single-stim", "stimulus": "<p id=\"stim\">7</p>", "internal_node_id": "0.0-148.0-3.0", "time_elapsed": 1164565, "key_press": -1, "trial_index": 205}, "uniqueid": "MTK2594:31T4R4OBOTN2S7GC6DDX6BWTPKJ7C2", "dateTime": 1519089539735}, {"current_trial": 206, "trialdata": {"rt": -1, "trial_type": "single-stim", "stimulus": "<p id=\"stim\">6</p>", "internal_node_id": "0.0-148.0-4.0", "time_elapsed": 1165566, "key_press": -1, "trial_index": 206}, "uniqueid": "MTK2594:31T4R4OBOTN2S7GC6DDX6BWTPKJ7C2", "dateTime": 1519089540736}, {"current_trial": 207, "trialdata": {"rt": -1, "trial_type": "single-stim", "stimulus": "<p id=\"stim\">5</p>", "internal_node_id": "0.0-148.0-5.0", "time_elapsed": 1166567, "key_press": -1, "trial_index": 207}, "uniqueid": "MTK2594:31T4R4OBOTN2S7GC6DDX6BWTPKJ7C2", "dateTime": 1519089541738}, {"current_trial": 208, "trialdata": {"rt": -1, "trial_type": "single-stim", "stimulus": "<p id=\"stim\">4</p>", "internal_node_id": "0.0-148.0-6.0", "time_elapsed": 1167569, "key_press": -1, "trial_index": 208}, "uniqueid": "MTK2594:31T4R4OBOTN2S7GC6DDX6BWTPKJ7C2", "dateTime": 1519089542739}, {"current_trial": 209, "trialdata": {"rt": -1, "trial_type": "single-stim", "stimulus": "<p id=\"stim\">3</p>", "internal_node_id": "0.0-148.0-7.0", "time_elapsed": 1168573, "key_press": -1, "trial_index": 209}, "uniqueid": "MTK2594:31T4R4OBOTN2S7GC6DDX6BWTPKJ7C2", "dateTime": 1519089543743}, {"current_trial": 210, "trialdata": {"rt": -1, "trial_type": "single-stim", "stimulus": "<p id=\"stim\">2</p>", "internal_node_id": "0.0-148.0-8.0", "time_elapsed": 1169575, "key_press": -1, "trial_index": 210}, "uniqueid": "MTK2594:31T4R4OBOTN2S7GC6DDX6BWTPKJ7C2", "dateTime": 1519089544745}, {"current_trial": 211, "trialdata": {"rt": -1, "trial_type": "single-stim", "stimulus": "<p id=\"stim\">1</p>", "internal_node_id": "0.0-148.0-9.0", "time_elapsed": 1170578, "key_press": -1, "trial_index": 211}, "uniqueid": "MTK2594:31T4R4OBOTN2S7GC6DDX6BWTPKJ7C2", "dateTime": 1519089545749}, {"current_trial": 212, "trialdata": {"rt": -1, "trial_type": "single-stim", "stimulus": "<p id=\"stim\">+</p>", "internal_node_id": "0.0-149.0-0.0", "time_elapsed": 1172082, "key_press": -1, "type": "FIXATION", "trial_index": 212}, "uniqueid": "MTK2594:31T4R4OBOTN2S7GC6DDX6BWTPKJ7C2", "dateTime": 1519089547253}, {"current_trial": 213, "trialdata": {"rt": -1000, "trial_type": "single-audio", "word": "cupboard", "stimulus": "/static/audio/wordpool/CUPBOARD.wav", "conditions": [12, 800, "a", 12000], "internal_node_id": "0.0-150.0", "trial": 6, "time_elapsed": 1173869, "serialpos": 0, "key_press": -1, "wordID": 424, "type": "PRES_AUD", "trial_index": 213}, "uniqueid": "MTK2594:31T4R4OBOTN2S7GC6DDX6BWTPKJ7C2", "dateTime": 1519089549039}, {"current_trial": 214, "trialdata": {"rt": -1000, "trial_type": "single-audio", "word": "outfit", "stimulus": "/static/audio/wordpool/OUTFIT.wav", "conditions": [12, 800, "a", 12000], "internal_node_id": "0.0-151.0", "trial": 6, "time_elapsed": 1175622, "serialpos": 1, "key_press": -1, "wordID": 987, "type": "PRES_AUD", "trial_index": 214}, "uniqueid": "MTK2594:31T4R4OBOTN2S7GC6DDX6BWTPKJ7C2", "dateTime": 1519089550792}, {"current_trial": 215, "trialdata": {"rt": -1000, "trial_type": "single-audio", "word": "dresser", "stimulus": "/static/audio/wordpool/DRESSER.wav", "conditions": [12, 800, "a", 12000], "internal_node_id": "0.0-152.0", "trial": 6, "time_elapsed": 1177441, "serialpos": 2, "key_press": -1, "wordID": 495, "type": "PRES_AUD", "trial_index": 215}, "uniqueid": "MTK2594:31T4R4OBOTN2S7GC6DDX6BWTPKJ7C2", "dateTime": 1519089552611}, {"current_trial": 216, "trialdata": {"rt": -1000, "trial_type": "single-audio", "word": "necklace", "stimulus": "/static/audio/wordpool/NECKLACE.wav", "conditions": [12, 800, "a", 12000], "internal_node_id": "0.0-153.0", "trial": 6, "time_elapsed": 1179403, "serialpos": 3, "key_press": -1, "wordID": 939, "type": "PRES_AUD", "trial_index": 216}, "uniqueid": "MTK2594:31T4R4OBOTN2S7GC6DDX6BWTPKJ7C2", "dateTime": 1519089554574}, {"current_trial": 217, "trialdata": {"rt": -1000, "trial_type": "single-audio", "word": "lava", "stimulus": "/static/audio/wordpool/LAVA.wav", "conditions": [12, 800, "a", 12000], "internal_node_id": "0.0-154.0", "trial": 6, "time_elapsed": 1181382, "serialpos": 4, "key_press": -1, "wordID": 803, "type": "PRES_AUD", "trial_index": 217}, "uniqueid": "MTK2594:31T4R4OBOTN2S7GC6DDX6BWTPKJ7C2", "dateTime": 1519089556552}, {"current_trial": 218, "trialdata": {"rt": -1000, "trial_type": "single-audio", "word": "carriage", "stimulus": "/static/audio/wordpool/CARRIAGE.wav", "conditions": [12, 800, "a", 12000], "internal_node_id": "0.0-155.0", "trial": 6, "time_elapsed": 1183296, "serialpos": 5, "key_press": -1, "wordID": 247, "type": "PRES_AUD", "trial_index": 218}, "uniqueid": "MTK2594:31T4R4OBOTN2S7GC6DDX6BWTPKJ7C2", "dateTime": 1519089558467}, {"current_trial": 219, "trialdata": {"rt": -1000, "trial_type": "single-audio", "word": "truck", "stimulus": "/static/audio/wordpool/TRUCK.wav", "conditions": [12, 800, "a", 12000], "internal_node_id": "0.0-156.0", "trial": 6, "time_elapsed": 1185017, "serialpos": 6, "key_press": -1, "wordID": 1511, "type": "PRES_AUD", "trial_index": 219}, "uniqueid": "MTK2594:31T4R4OBOTN2S7GC6DDX6BWTPKJ7C2", "dateTime": 1519089560188}, {"current_trial": 220, "trialdata": {"rt": -1000, "trial_type": "single-audio", "word": "handbag", "stimulus": "/static/audio/wordpool/HANDBAG.wav", "conditions": [12, 800, "a", 12000], "internal_node_id": "0.0-157.0", "trial": 6, "time_elapsed": 1187018, "serialpos": 7, "key_press": -1, "wordID": 683, "type": "PRES_AUD", "trial_index": 220}, "uniqueid": "MTK2594:31T4R4OBOTN2S7GC6DDX6BWTPKJ7C2", "dateTime": 1519089562188}, {"current_trial": 221, "trialdata": {"rt": -1000, "trial_type": "single-audio", "word": "dorm", "stimulus": "/static/audio/wordpool/DORM.wav", "conditions": [12, 800, "a", 12000], "internal_node_id": "0.0-158.0", "trial": 6, "time_elapsed": 1188956, "serialpos": 8, "key_press": -1, "wordID": 487, "type": "PRES_AUD", "trial_index": 221}, "uniqueid": "MTK2594:31T4R4OBOTN2S7GC6DDX6BWTPKJ7C2", "dateTime": 1519089564126}, {"current_trial": 222, "trialdata": {"rt": -1000, "trial_type": "single-audio", "word": "student", "stimulus": "/static/audio/wordpool/STUDENT.wav", "conditions": [12, 800, "a", 12000], "internal_node_id": "0.0-159.0", "trial": 6, "time_elapsed": 1190738, "serialpos": 9, "key_press": -1, "wordID": 1394, "type": "PRES_AUD", "trial_index": 222}, "uniqueid": "MTK2594:31T4R4OBOTN2S7GC6DDX6BWTPKJ7C2", "dateTime": 1519089565908}, {"current_trial": 223, "trialdata": {"rt": -1000, "trial_type": "single-audio", "word": "market", "stimulus": "/static/audio/wordpool/MARKET.wav", "conditions": [12, 800, "a", 12000], "internal_node_id": "0.0-160.0", "trial": 6, "time_elapsed": 1192402, "serialpos": 10, "key_press": -1, "wordID": 870, "type": "PRES_AUD", "trial_index": 223}, "uniqueid": "MTK2594:31T4R4OBOTN2S7GC6DDX6BWTPKJ7C2", "dateTime": 1519089567572}, {"current_trial": 224, "trialdata": {"rt": -1000, "trial_type": "single-audio", "word": "marine", "stimulus": "/static/audio/wordpool/MARINE.wav", "conditions": [12, 800, "a", 12000], "internal_node_id": "0.0-161.0", "trial": 6, "time_elapsed": 1194022, "serialpos": 11, "key_press": -1, "wordID": 868, "type": "PRES_AUD", "trial_index": 224}, "uniqueid": "MTK2594:31T4R4OBOTN2S7GC6DDX6BWTPKJ7C2", "dateTime": 1519089569193}, {"current_trial": 225, "trialdata": {"rt": -1, "trial_type": "single-stim", "stimulus": "", "internal_node_id": "0.0-162.0-0.0", "time_elapsed": 1195336, "key_press": -1, "type": "PRE_RECALL_DELAY", "trial_index": 225}, "uniqueid": "MTK2594:31T4R4OBOTN2S7GC6DDX6BWTPKJ7C2", "dateTime": 1519089570506}, {"current_trial": 226, "trialdata": {"rt": -1000, "trial_type": "single-audio", "stimulus": "/static/audio/400Hz.wav", "internal_node_id": "0.0-163.0", "time_elapsed": 1195838, "key_press": -1, "type": "PRE_RECALL_ALERT", "trial_index": 226}, "uniqueid": "MTK2594:31T4R4OBOTN2S7GC6DDX6BWTPKJ7C2", "dateTime": 1519089571008}, {"current_trial": 227, "trialdata": {"rt": [7354, 9180, 12334, 13342, 17639, 18987, 22667, 40802], "recwords": ["dorm", "student", "handbag", "marine", "cupboard", "lava", "market", "necklace"], "key_times": [6156, 6259, 6394, 6501, 7354, 7967, 8164, 8338, 8458, 8718, 8859, 8995, 9180, 10196, 10312, 10438, 10541, 11637, 11799, 11907, 12334, 12673, 12775, 12870, 12935, 13019, 13145, 13342, 16304, 16411, 16510, 16672, 16794, 16897, 17015, 17245, 17639, 18201, 18298, 18473, 18641, 18987, 21599, 21884, 22205, 22307, 22433, 22546, 22667, 39178, 39529, 39858, 39929, 40098, 40201, 40365, 40577, 40802], "trial_type": "free-recall", "conditions": [12, 800, "a", 12000], "internal_node_id": "0.0-164.0-0.0", "key_presses": [68, 79, 82, 77, 13, 83, 84, 85, 68, 69, 78, 84, 13, 72, 65, 78, 68, 66, 65, 71, 13, 77, 65, 82, 73, 78, 69, 13, 67, 85, 80, 66, 79, 65, 82, 68, 13, 76, 65, 86, 65, 13, 77, 65, 82, 75, 69, 84, 13, 78, 69, 67, 75, 76, 65, 67, 69, 13], "trial": 6, "time_elapsed": 1255843, "type": "FREE_RECALL", "trial_index": 227}, "uniqueid": "MTK2594:31T4R4OBOTN2S7GC6DDX6BWTPKJ7C2", "dateTime": 1519089631033}, {"current_trial": 228, "trialdata": {"rt": 2016, "trial_type": "text", "internal_node_id": "0.0-165.0", "time_elapsed": 1259883, "key_press": 32, "type": "INSTRUCTIONS", "trial_index": 228}, "uniqueid": "MTK2594:31T4R4OBOTN2S7GC6DDX6BWTPKJ7C2", "dateTime": 1519089635054}, {"current_trial": 229, "trialdata": {"rt": [2584, 4987, 7207, 9682, 12280, 16200, 18437, 21751], "trial_type": "math-distractor", "key_times": [1644, 1801, 2584, 4284, 4455, 4987, 6435, 7207, 8929, 9058, 9682, 11462, 11606, 12280, 15406, 15542, 16200, 17642, 17791, 18437, 20916, 21116, 21751, 23714, 23870], "responses": ["19", "14", "7", "12", "13", "20", "14", "24"], "num2": [9, 5, 3, 2, 1, 3, 7, 8, 3], "num3": [1, 3, 3, 9, 8, 9, 6, 9, 7], "conditions": [24, 1600, "a", 24000], "internal_node_id": "0.0-166.0", "key_presses": [97, 105, 13, 97, 100, 13, 103, 13, 97, 98, 13, 97, 99, 13, 98, 96, 13, 97, 100, 13, 98, 100, 13, 97, 105], "trial": 7, "time_elapsed": 1285891, "type": "DISTRACTOR", "trial_index": 229, "num1": [9, 6, 1, 1, 4, 8, 1, 7, 9]}, "uniqueid": "MTK2594:31T4R4OBOTN2S7GC6DDX6BWTPKJ7C2", "dateTime": 1519089661062}, {"current_trial": 230, "trialdata": {"rt": -1, "trial_type": "single-stim", "stimulus": "<p id=\"stim\">10</p>", "internal_node_id": "0.0-167.0-0.0", "time_elapsed": 1288896, "key_press": -1, "trial_index": 230}, "uniqueid": "MTK2594:31T4R4OBOTN2S7GC6DDX6BWTPKJ7C2", "dateTime": 1519089664066}, {"current_trial": 231, "trialdata": {"rt": -1, "trial_type": "single-stim", "stimulus": "<p id=\"stim\">9</p>", "internal_node_id": "0.0-167.0-1.0", "time_elapsed": 1289899, "key_press": -1, "trial_index": 231}, "uniqueid": "MTK2594:31T4R4OBOTN2S7GC6DDX6BWTPKJ7C2", "dateTime": 1519089665069}, {"current_trial": 232, "trialdata": {"rt": -1, "trial_type": "single-stim", "stimulus": "<p id=\"stim\">8</p>", "internal_node_id": "0.0-167.0-2.0", "time_elapsed": 1290902, "key_press": -1, "trial_index": 232}, "uniqueid": "MTK2594:31T4R4OBOTN2S7GC6DDX6BWTPKJ7C2", "dateTime": 1519089666073}, {"current_trial": 233, "trialdata": {"rt": -1, "trial_type": "single-stim", "stimulus": "<p id=\"stim\">7</p>", "internal_node_id": "0.0-167.0-3.0", "time_elapsed": 1291906, "key_press": -1, "trial_index": 233}, "uniqueid": "MTK2594:31T4R4OBOTN2S7GC6DDX6BWTPKJ7C2", "dateTime": 1519089667076}, {"current_trial": 234, "trialdata": {"rt": -1, "trial_type": "single-stim", "stimulus": "<p id=\"stim\">6</p>", "internal_node_id": "0.0-167.0-4.0", "time_elapsed": 1292910, "key_press": -1, "trial_index": 234}, "uniqueid": "MTK2594:31T4R4OBOTN2S7GC6DDX6BWTPKJ7C2", "dateTime": 1519089668080}, {"current_trial": 235, "trialdata": {"rt": -1, "trial_type": "single-stim", "stimulus": "<p id=\"stim\">5</p>", "internal_node_id": "0.0-167.0-5.0", "time_elapsed": 1293911, "key_press": -1, "trial_index": 235}, "uniqueid": "MTK2594:31T4R4OBOTN2S7GC6DDX6BWTPKJ7C2", "dateTime": 1519089669081}, {"current_trial": 236, "trialdata": {"rt": -1, "trial_type": "single-stim", "stimulus": "<p id=\"stim\">4</p>", "internal_node_id": "0.0-167.0-6.0", "time_elapsed": 1294914, "key_press": -1, "trial_index": 236}, "uniqueid": "MTK2594:31T4R4OBOTN2S7GC6DDX6BWTPKJ7C2", "dateTime": 1519089670085}, {"current_trial": 237, "trialdata": {"rt": -1, "trial_type": "single-stim", "stimulus": "<p id=\"stim\">3</p>", "internal_node_id": "0.0-167.0-7.0", "time_elapsed": 1295918, "key_press": -1, "trial_index": 237}, "uniqueid": "MTK2594:31T4R4OBOTN2S7GC6DDX6BWTPKJ7C2", "dateTime": 1519089671089}, {"current_trial": 238, "trialdata": {"rt": -1, "trial_type": "single-stim", "stimulus": "<p id=\"stim\">2</p>", "internal_node_id": "0.0-167.0-8.0", "time_elapsed": 1296921, "key_press": -1, "trial_index": 238}, "uniqueid": "MTK2594:31T4R4OBOTN2S7GC6DDX6BWTPKJ7C2", "dateTime": 1519089672091}, {"current_trial": 239, "trialdata": {"rt": -1, "trial_type": "single-stim", "stimulus": "<p id=\"stim\">1</p>", "internal_node_id": "0.0-167.0-9.0", "time_elapsed": 1297924, "key_press": -1, "trial_index": 239}, "uniqueid": "MTK2594:31T4R4OBOTN2S7GC6DDX6BWTPKJ7C2", "dateTime": 1519089673095}, {"current_trial": 240, "trialdata": {"rt": -1, "trial_type": "single-stim", "stimulus": "<p id=\"stim\">+</p>", "internal_node_id": "0.0-168.0-0.0", "time_elapsed": 1299428, "key_press": -1, "type": "FIXATION", "trial_index": 240}, "uniqueid": "MTK2594:31T4R4OBOTN2S7GC6DDX6BWTPKJ7C2", "dateTime": 1519089674598}, {"current_trial": 241, "trialdata": {"rt": -1000, "trial_type": "single-audio", "word": "yacht", "stimulus": "/static/audio/wordpool/YACHT.wav", "conditions": [24, 1600, "a", 24000], "internal_node_id": "0.0-169.0", "trial": 7, "time_elapsed": 1301902, "serialpos": 0, "key_press": -1, "wordID": 1628, "type": "PRES_AUD", "trial_index": 241}, "uniqueid": "MTK2594:31T4R4OBOTN2S7GC6DDX6BWTPKJ7C2", "dateTime": 1519089677072}, {"current_trial": 242, "trialdata": {"rt": -1000, "trial_type": "single-audio", "word": "rooster", "stimulus": "/static/audio/wordpool/ROOSTER.wav", "conditions": [24, 1600, "a", 24000], "internal_node_id": "0.0-170.0", "trial": 7, "time_elapsed": 1304307, "serialpos": 1, "key_press": -1, "wordID": 1208, "type": "PRES_AUD", "trial_index": 242}, "uniqueid": "MTK2594:31T4R4OBOTN2S7GC6DDX6BWTPKJ7C2", "dateTime": 1519089679477}, {"current_trial": 243, "trialdata": {"rt": -1000, "trial_type": "single-audio", "word": "salmon", "stimulus": "/static/audio/wordpool/SALMON.wav", "conditions": [24, 1600, "a", 24000], "internal_node_id": "0.0-171.0", "trial": 7, "time_elapsed": 1307041, "serialpos": 2, "key_press": -1, "wordID": 1226, "type": "PRES_AUD", "trial_index": 243}, "uniqueid": "MTK2594:31T4R4OBOTN2S7GC6DDX6BWTPKJ7C2", "dateTime": 1519089682212}, {"current_trial": 244, "trialdata": {"rt": -1000, "trial_type": "single-audio", "word": "crab", "stimulus": "/static/audio/wordpool/CRAB.wav", "conditions": [24, 1600, "a", 24000], "internal_node_id": "0.0-172.0", "trial": 7, "time_elapsed": 1309662, "serialpos": 3, "key_press": -1, "wordID": 396, "type": "PRES_AUD", "trial_index": 244}, "uniqueid": "MTK2594:31T4R4OBOTN2S7GC6DDX6BWTPKJ7C2", "dateTime": 1519089684832}, {"current_trial": 245, "trialdata": {"rt": -1000, "trial_type": "single-audio", "word": "fox", "stimulus": "/static/audio/wordpool/FOX.wav", "conditions": [24, 1600, "a", 24000], "internal_node_id": "0.0-173.0", "trial": 7, "time_elapsed": 1312228, "serialpos": 4, "key_press": -1, "wordID": 597, "type": "PRES_AUD", "trial_index": 245}, "uniqueid": "MTK2594:31T4R4OBOTN2S7GC6DDX6BWTPKJ7C2", "dateTime": 1519089687398}, {"current_trial": 246, "trialdata": {"rt": -1000, "trial_type": "single-audio", "word": "marker", "stimulus": "/static/audio/wordpool/MARKER.wav", "conditions": [24, 1600, "a", 24000], "internal_node_id": "0.0-174.0", "trial": 7, "time_elapsed": 1314716, "serialpos": 5, "key_press": -1, "wordID": 869, "type": "PRES_AUD", "trial_index": 246}, "uniqueid": "MTK2594:31T4R4OBOTN2S7GC6DDX6BWTPKJ7C2", "dateTime": 1519089689886}, {"current_trial": 247, "trialdata": {"rt": -1000, "trial_type": "single-audio", "word": "picture", "stimulus": "/static/audio/wordpool/PICTURE.wav", "conditions": [24, 1600, "a", 24000], "internal_node_id": "0.0-175.0", "trial": 7, "time_elapsed": 1317519, "serialpos": 6, "key_press": -1, "wordID": 1060, "type": "PRES_AUD", "trial_index": 247}, "uniqueid": "MTK2594:31T4R4OBOTN2S7GC6DDX6BWTPKJ7C2", "dateTime": 1519089692690}, {"current_trial": 248, "trialdata": {"rt": -1000, "trial_type": "single-audio", "word": "palace", "stimulus": "/static/audio/wordpool/PALACE.wav", "conditions": [24, 1600, "a", 24000], "internal_node_id": "0.0-176.0", "trial": 7, "time_elapsed": 1320036, "serialpos": 7, "key_press": -1, "wordID": 1005, "type": "PRES_AUD", "trial_index": 248}, "uniqueid": "MTK2594:31T4R4OBOTN2S7GC6DDX6BWTPKJ7C2", "dateTime": 1519089695206}, {"current_trial": 249, "trialdata": {"rt": -1000, "trial_type": "single-audio", "word": "dancer", "stimulus": "/static/audio/wordpool/DANCER.wav", "conditions": [24, 1600, "a", 24000], "internal_node_id": "0.0-177.0", "trial": 7, "time_elapsed": 1322831, "serialpos": 8, "key_press": -1, "wordID": 436, "type": "PRES_AUD", "trial_index": 249}, "uniqueid": "MTK2594:31T4R4OB