{"assignmentId": "34T446B1C1LOAWGSLESORWM6GAP0CE", "workerId": "MTK2516", "questiondata": {"origin": "United States", "strat-rehearsal": "47", "marital": "Single", "education": "Master's degree", "ethnicity": "Hispanic", "color_depth": 24, "distracted": "No", "wrote-notes": "No", "strat-other": "n/a", "screen_width": 1280, "avail_screen_width": 1280, "avail_screen_height": 709, "strat-image": "40", "language": "English", "gender": "Female", "age": "28", "gender_other": "", "race": ["Black"], "strat-categorize": "73", "pixel_depth": 24, "strat-spatial": "30", "strat-story": "79", "race_other": "", "screen_height": 800}, "bonus": 0, "hitId": "35U0MRQMUJE3P2GHOEK2I5ATG22OVE", "counterbalance": 1348, "useragent": "Mozilla/5.0 (Macintosh; Intel Mac OS X 10_11_6) AppleWebKit/537.36 (KHTML, like Gecko) Chrome/64.0.3282.140 Safari/537.36", "eventdata": [{"eventtype": "initialized", "interval": 0, "value": null, "timestamp": 1517970158753}, {"eventtype": "window_resize", "interval": 0, "value": [1280, 726], "timestamp": 1517970158753}, {"eventtype": "focus", "interval": 325691, "value": "off", "timestamp": 1517970484444}, {"eventtype": "focus", "interval": 1171, "value": "on", "timestamp": 1517970485615}, {"eventtype": "focus", "interval": 96111, "value": "off", "timestamp": 1517970581726}, {"eventtype": "focus", "interval": 2448, "value": "on", "timestamp": 1517970584174}, {"eventtype": "focus", "interval": 88099, "value": "off", "timestamp": 1517970672273}, {"eventtype": "focus", "interval": 17834, "value": "on", "timestamp": 1517970690107}, {"eventtype": "focus", "interval": 97306, "value": "off", "timestamp": 1517970787413}, {"eventtype": "focus", "interval": 162239, "value": "on", "timestamp": 1517970949652}, {"eventtype": "focus", "interval": 321029, "value": "off", "timestamp": 1517971270681}, {"eventtype": "focus", "interval": 1411, "value": "on", "timestamp": 1517971272092}, {"eventtype": "focus", "interval": 12206, "value": "off", "timestamp": 1517971284298}, {"eventtype": "focus", "interval": 82917, "value": "on", "timestamp": 1517971367215}, {"eventtype": "focus", "interval": 413274, "value": "off", "timestamp": 1517971780489}, {"eventtype": "focus", "interval": 2580, "value": "on", "timestamp": 1517971783069}, {"eventtype": "focus", "interval": 129652, "value": "off", "timestamp": 1517971912721}, {"eventtype": "focus", "interval": 446250, "value": "on", "timestamp": 1517972358971}, {"eventtype": "focus", "interval": 256837, "value": "off", "timestamp": 1517972615808}, {"eventtype": "focus", "interval": 4547, "value": "on", "timestamp": 1517972620355}, {"eventtype": "focus", "interval": 1640, "value": "off", "timestamp": 1517972621995}, {"eventtype": "focus", "interval": 2136, "value": "on", "timestamp": 1517972624131}, {"eventtype": "focus", "interval": 12962, "value": "off", "timestamp": 1517972637093}, {"eventtype": "focus", "interval": 346463, "value": "on", "timestamp": 1517972983556}, {"eventtype": "focus", "interval": 710, "value": "off", "timestamp": 1517972984266}, {"eventtype": "focus", "interval": 3478, "value": "on", "timestamp": 1517972987744}, {"eventtype": "focus", "interval": 1035487, "value": "off", "timestamp": 1517974023231}, {"eventtype": "focus", "interval": 5629, "value": "on", "timestamp": 1517974028860}, {"eventtype": "focus", "interval": 150822, "value": "off", "timestamp": 1517974179682}, {"eventtype": "focus", "interval": 37388, "value": "on", "timestamp": 1517974217070}, {"eventtype": "focus", "interval": 163993, "value": "off", "timestamp": 1517974381063}, {"eventtype": "focus", "interval": 6906, "value": "on", "timestamp": 1517974387969}], "data": [{"current_trial": 0, "trialdata": {"rt": 2546, "trial_type": "text", "internal_node_id": "0.0-0.0", "time_elapsed": 2548, "key_press": 32, "type": "INSTRUCTIONS", "trial_index": 0}, "uniqueid": "MTK2516:34T446B1C1LOAWGSLESORWM6GAP0CE", "dateTime": 1517970161711}, {"current_trial": 1, "trialdata": {"rt": 17997, "trial_type": "text", "internal_node_id": "0.0-1.0", "time_elapsed": 20547, "key_press": 72, "type": "INSTRUCTIONS", "trial_index": 1}, "uniqueid": "MTK2516:34T446B1C1LOAWGSLESORWM6GAP0CE", "dateTime": 1517970179709}, {"current_trial": 2, "trialdata": {"rt": [5972], "trial_type": "audio-test", "responses": ["ocean"], "internal_node_id": "0.0-2.0", "time_elapsed": 26532, "type": "AUDIO_TEST", "trial_index": 2}, "uniqueid": "MTK2516:34T446B1C1LOAWGSLESORWM6GAP0CE", "dateTime": 1517970185694}, {"current_trial": 3, "trialdata": {"rt": [7338], "trial_type": "audio-test", "responses": ["crystal"], "internal_node_id": "0.0-3.0", "time_elapsed": 33876, "type": "AUDIO_TEST", "trial_index": 3}, "uniqueid": "MTK2516:34T446B1C1LOAWGSLESORWM6GAP0CE", "dateTime": 1517970193037}, {"current_trial": 4, "trialdata": {"rt": [5018], "trial_type": "audio-test", "responses": ["spice"], "internal_node_id": "0.0-4.0", "time_elapsed": 38899, "type": "AUDIO_TEST", "trial_index": 4}, "uniqueid": "MTK2516:34T446B1C1LOAWGSLESORWM6GAP0CE", "dateTime": 1517970198060}, {"current_trial": 5, "trialdata": {"rt": 18866, "trial_type": "survey-text", "responses": "{\"Q0\":\"12:30AM\",\"Q1\":\"7:00AM\",\"Q2\":\"3\"}", "internal_node_id": "0.0-5.0", "time_elapsed": 58522, "type": "SLEEP_SURVEY", "trial_index": 5}, "uniqueid": "MTK2516:34T446B1C1LOAWGSLESORWM6GAP0CE", "dateTime": 1517970217683}, {"current_trial": 6, "trialdata": {"rt": 27269, "trial_type": "text", "internal_node_id": "0.0-6.0", "time_elapsed": 86796, "key_press": 13, "type": "INSTRUCTIONS", "trial_index": 6}, "uniqueid": "MTK2516:34T446B1C1LOAWGSLESORWM6GAP0CE", "dateTime": 1517970245957}, {"current_trial": 7, "trialdata": {"rt": 8539, "trial_type": "text", "internal_node_id": "0.0-7.0", "time_elapsed": 95838, "key_press": 76, "type": "INSTRUCTIONS", "trial_index": 7}, "uniqueid": "MTK2516:34T446B1C1LOAWGSLESORWM6GAP0CE", "dateTime": 1517970254999}, {"current_trial": 8, "trialdata": {"rt": 62324, "trial_type": "text", "internal_node_id": "0.0-8.0", "time_elapsed": 158663, "key_press": 13, "type": "INSTRUCTIONS", "trial_index": 8}, "uniqueid": "MTK2516:34T446B1C1LOAWGSLESORWM6GAP0CE", "dateTime": 1517970317825}, {"current_trial": 9, "trialdata": {"rt": [2714, 4442, 6530, 8161, 13623, 15383, 16863], "trial_type": "math-distractor", "key_times": [2194, 2426, 2714, 4130, 4250, 4442, 6186, 6282, 6530, 7857, 7938, 8161, 13455, 13542, 13623, 14751, 15174, 15383, 16511, 16639, 16863], "responses": ["15", "10", "16", "17", "22", "15", "21"], "num2": [6, 1, 4, 7, 9, 4, 7, 8], "num3": [5, 5, 6, 1, 8, 6, 7, 3], "conditions": [18, 1200, "v", 18000], "internal_node_id": "0.0-9.0", "key_presses": [49, 53, 13, 49, 48, 13, 49, 54, 13, 49, 55, 13, 50, 50, 13, 49, 53, 13, 50, 49, 13], "trial": 0, "time_elapsed": 177670, "type": "DISTRACTOR", "trial_index": 9, "num1": [4, 4, 6, 9, 5, 5, 7, 8]}, "uniqueid": "MTK2516:34T446B1C1LOAWGSLESORWM6GAP0CE", "dateTime": 1517970336831}, {"current_trial": 10, "trialdata": {"rt": -1, "trial_type": "single-stim", "stimulus": "<p id=\"stim\">10</p>", "internal_node_id": "0.0-10.0-0.0", "time_elapsed": 180676, "key_press": -1, "trial_index": 10}, "uniqueid": "MTK2516:34T446B1C1LOAWGSLESORWM6GAP0CE", "dateTime": 1517970339837}, {"current_trial": 11, "trialdata": {"rt": -1, "trial_type": "single-stim", "stimulus": "<p id=\"stim\">9</p>", "internal_node_id": "0.0-10.0-1.0", "time_elapsed": 181680, "key_press": -1, "trial_index": 11}, "uniqueid": "MTK2516:34T446B1C1LOAWGSLESORWM6GAP0CE", "dateTime": 1517970340841}, {"current_trial": 12, "trialdata": {"rt": -1, "trial_type": "single-stim", "stimulus": "<p id=\"stim\">8</p>", "internal_node_id": "0.0-10.0-2.0", "time_elapsed": 182683, "key_press": -1, "trial_index": 12}, "uniqueid": "MTK2516:34T446B1C1LOAWGSLESORWM6GAP0CE", "dateTime": 1517970341844}, {"current_trial": 13, "trialdata": {"rt": -1, "trial_type": "single-stim", "stimulus": "<p id=\"stim\">7</p>", "internal_node_id": "0.0-10.0-3.0", "time_elapsed": 183688, "key_press": -1, "trial_index": 13}, "uniqueid": "MTK2516:34T446B1C1LOAWGSLESORWM6GAP0CE", "dateTime": 1517970342850}, {"current_trial": 14, "trialdata": {"rt": -1, "trial_type": "single-stim", "stimulus": "<p id=\"stim\">6</p>", "internal_node_id": "0.0-10.0-4.0", "time_elapsed": 184691, "key_press": -1, "trial_index": 14}, "uniqueid": "MTK2516:34T446B1C1LOAWGSLESORWM6GAP0CE", "dateTime": 1517970343852}, {"current_trial": 15, "trialdata": {"rt": -1, "trial_type": "single-stim", "stimulus": "<p id=\"stim\">5</p>", "internal_node_id": "0.0-10.0-5.0", "time_elapsed": 185696, "key_press": -1, "trial_index": 15}, "uniqueid": "MTK2516:34T446B1C1LOAWGSLESORWM6GAP0CE", "dateTime": 1517970344857}, {"current_trial": 16, "trialdata": {"rt": -1, "trial_type": "single-stim", "stimulus": "<p id=\"stim\">4</p>", "internal_node_id": "0.0-10.0-6.0", "time_elapsed": 186701, "key_press": -1, "trial_index": 16}, "uniqueid": "MTK2516:34T446B1C1LOAWGSLESORWM6GAP0CE", "dateTime": 1517970345862}, {"current_trial": 17, "trialdata": {"rt": -1, "trial_type": "single-stim", "stimulus": "<p id=\"stim\">3</p>", "internal_node_id": "0.0-10.0-7.0", "time_elapsed": 187705, "key_press": -1, "trial_index": 17}, "uniqueid": "MTK2516:34T446B1C1LOAWGSLESORWM6GAP0CE", "dateTime": 1517970346866}, {"current_trial": 18, "trialdata": {"rt": -1, "trial_type": "single-stim", "stimulus": "<p id=\"stim\">2</p>", "internal_node_id": "0.0-10.0-8.0", "time_elapsed": 188708, "key_press": -1, "trial_index": 18}, "uniqueid": "MTK2516:34T446B1C1LOAWGSLESORWM6GAP0CE", "dateTime": 1517970347869}, {"current_trial": 19, "trialdata": {"rt": -1, "trial_type": "single-stim", "stimulus": "<p id=\"stim\">1</p>", "internal_node_id": "0.0-10.0-9.0", "time_elapsed": 189713, "key_press": -1, "trial_index": 19}, "uniqueid": "MTK2516:34T446B1C1LOAWGSLESORWM6GAP0CE", "dateTime": 1517970348874}, {"current_trial": 20, "trialdata": {"rt": -1, "trial_type": "single-stim", "stimulus": "<p id=\"stim\">+</p>", "internal_node_id": "0.0-11.0-0.0", "time_elapsed": 191215, "key_press": -1, "type": "FIXATION", "trial_index": 20}, "uniqueid": "MTK2516:34T446B1C1LOAWGSLESORWM6GAP0CE", "dateTime": 1517970350376}, {"current_trial": 21, "trialdata": {"rt": -1, "trial_type": "single-stim", "word": "valley", "stimulus": "<p id=\"stim\">VALLEY</p>", "conditions": [18, 1200, "v", 18000], "internal_node_id": "0.0-12.0", "trial": 0, "time_elapsed": 192419, "serialpos": 0, "key_press": -1, "wordID": 1544, "type": "PRES_VIS", "trial_index": 21}, "uniqueid": "MTK2516:34T446B1C1LOAWGSLESORWM6GAP0CE", "dateTime": 1517970351580}, {"current_trial": 22, "trialdata": {"rt": -1, "trial_type": "single-stim", "word": "gymnast", "stimulus": "<p id=\"stim\">GYMNAST</p>", "conditions": [18, 1200, "v", 18000], "internal_node_id": "0.0-13.0", "trial": 0, "time_elapsed": 194617, "serialpos": 1, "key_press": -1, "wordID": 674, "type": "PRES_VIS", "trial_index": 22}, "uniqueid": "MTK2516:34T446B1C1LOAWGSLESORWM6GAP0CE", "dateTime": 1517970353778}, {"current_trial": 23, "trialdata": {"rt": -1, "trial_type": "single-stim", "word": "diver", "stimulus": "<p id=\"stim\">DIVER</p>", "conditions": [18, 1200, "v", 18000], "internal_node_id": "0.0-14.0", "trial": 0, "time_elapsed": 196955, "serialpos": 2, "key_press": -1, "wordID": 475, "type": "PRES_VIS", "trial_index": 23}, "uniqueid": "MTK2516:34T446B1C1LOAWGSLESORWM6GAP0CE", "dateTime": 1517970356117}, {"current_trial": 24, "trialdata": {"rt": -1, "trial_type": "single-stim", "word": "ketchup", "stimulus": "<p id=\"stim\">KETCHUP</p>", "conditions": [18, 1200, "v", 18000], "internal_node_id": "0.0-15.0", "trial": 0, "time_elapsed": 198998, "serialpos": 3, "key_press": -1, "wordID": 770, "type": "PRES_VIS", "trial_index": 24}, "uniqueid": "MTK2516:34T446B1C1LOAWGSLESORWM6GAP0CE", "dateTime": 1517970358159}, {"current_trial": 25, "trialdata": {"rt": -1, "trial_type": "single-stim", "word": "passage", "stimulus": "<p id=\"stim\">PASSAGE</p>", "conditions": [18, 1200, "v", 18000], "internal_node_id": "0.0-16.0", "trial": 0, "time_elapsed": 201273, "serialpos": 4, "key_press": -1, "wordID": 1018, "type": "PRES_VIS", "trial_index": 25}, "uniqueid": "MTK2516:34T446B1C1LOAWGSLESORWM6GAP0CE", "dateTime": 1517970360434}, {"current_trial": 26, "trialdata": {"rt": -1, "trial_type": "single-stim", "word": "europe", "stimulus": "<p id=\"stim\">EUROPE</p>", "conditions": [18, 1200, "v", 18000], "internal_node_id": "0.0-17.0", "trial": 0, "time_elapsed": 203386, "serialpos": 5, "key_press": -1, "wordID": 540, "type": "PRES_VIS", "trial_index": 26}, "uniqueid": "MTK2516:34T446B1C1LOAWGSLESORWM6GAP0CE", "dateTime": 1517970362547}, {"current_trial": 27, "trialdata": {"rt": -1, "trial_type": "single-stim", "word": "baby", "stimulus": "<p id=\"stim\">BABY</p>", "conditions": [18, 1200, "v", 18000], "internal_node_id": "0.0-18.0", "trial": 0, "time_elapsed": 205406, "serialpos": 6, "key_press": -1, "wordID": 63, "type": "PRES_VIS", "trial_index": 27}, "uniqueid": "MTK2516:34T446B1C1LOAWGSLESORWM6GAP0CE", "dateTime": 1517970364567}, {"current_trial": 28, "trialdata": {"rt": -1, "trial_type": "single-stim", "word": "money", "stimulus": "<p id=\"stim\">MONEY</p>", "conditions": [18, 1200, "v", 18000], "internal_node_id": "0.0-19.0", "trial": 0, "time_elapsed": 207701, "serialpos": 7, "key_press": -1, "wordID": 907, "type": "PRES_VIS", "trial_index": 28}, "uniqueid": "MTK2516:34T446B1C1LOAWGSLESORWM6GAP0CE", "dateTime": 1517970366862}, {"current_trial": 29, "trialdata": {"rt": -1, "trial_type": "single-stim", "word": "pebble", "stimulus": "<p id=\"stim\">PEBBLE</p>", "conditions": [18, 1200, "v", 18000], "internal_node_id": "0.0-20.0", "trial": 0, "time_elapsed": 209846, "serialpos": 8, "key_press": -1, "wordID": 1034, "type": "PRES_VIS", "trial_index": 29}, "uniqueid": "MTK2516:34T446B1C1LOAWGSLESORWM6GAP0CE", "dateTime": 1517970369007}, {"current_trial": 30, "trialdata": {"rt": -1, "trial_type": "single-stim", "word": "pork", "stimulus": "<p id=\"stim\">PORK</p>", "conditions": [18, 1200, "v", 18000], "internal_node_id": "0.0-21.0", "trial": 0, "time_elapsed": 212149, "serialpos": 9, "key_press": -1, "wordID": 1107, "type": "PRES_VIS", "trial_index": 30}, "uniqueid": "MTK2516:34T446B1C1LOAWGSLESORWM6GAP0CE", "dateTime": 1517970371310}, {"current_trial": 31, "trialdata": {"rt": -1, "trial_type": "single-stim", "word": "sidewalk", "stimulus": "<p id=\"stim\">SIDEWALK</p>", "conditions": [18, 1200, "v", 18000], "internal_node_id": "0.0-22.0", "trial": 0, "time_elapsed": 214484, "serialpos": 10, "key_press": -1, "wordID": 1302, "type": "PRES_VIS", "trial_index": 31}, "uniqueid": "MTK2516:34T446B1C1LOAWGSLESORWM6GAP0CE", "dateTime": 1517970373645}, {"current_trial": 32, "trialdata": {"rt": -1, "trial_type": "single-stim", "word": "film", "stimulus": "<p id=\"stim\">FILM</p>", "conditions": [18, 1200, "v", 18000], "internal_node_id": "0.0-23.0", "trial": 0, "time_elapsed": 216682, "serialpos": 11, "key_press": -1, "wordID": 564, "type": "PRES_VIS", "trial_index": 32}, "uniqueid": "MTK2516:34T446B1C1LOAWGSLESORWM6GAP0CE", "dateTime": 1517970375844}, {"current_trial": 33, "trialdata": {"rt": -1, "trial_type": "single-stim", "word": "parsley", "stimulus": "<p id=\"stim\">PARSLEY</p>", "conditions": [18, 1200, "v", 18000], "internal_node_id": "0.0-24.0", "trial": 0, "time_elapsed": 218941, "serialpos": 12, "key_press": -1, "wordID": 1015, "type": "PRES_VIS", "trial_index": 33}, "uniqueid": "MTK2516:34T446B1C1LOAWGSLESORWM6GAP0CE", "dateTime": 1517970378102}, {"current_trial": 34, "trialdata": {"rt": -1, "trial_type": "single-stim", "word": "radish", "stimulus": "<p id=\"stim\">RADISH</p>", "conditions": [18, 1200, "v", 18000], "internal_node_id": "0.0-25.0", "trial": 0, "time_elapsed": 220960, "serialpos": 13, "key_press": -1, "wordID": 1157, "type": "PRES_VIS", "trial_index": 34}, "uniqueid": "MTK2516:34T446B1C1LOAWGSLESORWM6GAP0CE", "dateTime": 1517970380121}, {"current_trial": 35, "trialdata": {"rt": -1, "trial_type": "single-stim", "word": "tractor", "stimulus": "<p id=\"stim\">TRACTOR</p>", "conditions": [18, 1200, "v", 18000], "internal_node_id": "0.0-26.0", "trial": 0, "time_elapsed": 223357, "serialpos": 14, "key_press": -1, "wordID": 1492, "type": "PRES_VIS", "trial_index": 35}, "uniqueid": "MTK2516:34T446B1C1LOAWGSLESORWM6GAP0CE", "dateTime": 1517970382518}, {"current_trial": 36, "trialdata": {"rt": -1, "trial_type": "single-stim", "word": "highway", "stimulus": "<p id=\"stim\">HIGHWAY</p>", "conditions": [18, 1200, "v", 18000], "internal_node_id": "0.0-27.0", "trial": 0, "time_elapsed": 225557, "serialpos": 15, "key_press": -1, "wordID": 706, "type": "PRES_VIS", "trial_index": 36}, "uniqueid": "MTK2516:34T446B1C1LOAWGSLESORWM6GAP0CE", "dateTime": 1517970384718}, {"current_trial": 37, "trialdata": {"rt": -1, "trial_type": "single-stim", "word": "cloud", "stimulus": "<p id=\"stim\">CLOUD</p>", "conditions": [18, 1200, "v", 18000], "internal_node_id": "0.0-28.0", "trial": 0, "time_elapsed": 227762, "serialpos": 16, "key_press": -1, "wordID": 327, "type": "PRES_VIS", "trial_index": 37}, "uniqueid": "MTK2516:34T446B1C1LOAWGSLESORWM6GAP0CE", "dateTime": 1517970386923}, {"current_trial": 38, "trialdata": {"rt": -1, "trial_type": "single-stim", "word": "sheriff", "stimulus": "<p id=\"stim\">SHERIFF</p>", "conditions": [18, 1200, "v", 18000], "internal_node_id": "0.0-29.0", "trial": 0, "time_elapsed": 229845, "serialpos": 17, "key_press": -1, "wordID": 1283, "type": "PRES_VIS", "trial_index": 38}, "uniqueid": "MTK2516:34T446B1C1LOAWGSLESORWM6GAP0CE", "dateTime": 1517970389007}, {"current_trial": 39, "trialdata": {"rt": -1, "trial_type": "single-stim", "stimulus": "", "internal_node_id": "0.0-30.0-0.0", "time_elapsed": 232242, "key_press": -1, "type": "PRE_RECALL_DELAY", "trial_index": 39}, "uniqueid": "MTK2516:34T446B1C1LOAWGSLESORWM6GAP0CE", "dateTime": 1517970391403}, {"current_trial": 40, "trialdata": {"rt": -1000, "trial_type": "single-audio", "stimulus": "/static/audio/400Hz.wav", "internal_node_id": "0.0-31.0", "time_elapsed": 232784, "key_press": -1, "type": "PRE_RECALL_ALERT", "trial_index": 40}, "uniqueid": "MTK2516:34T446B1C1LOAWGSLESORWM6GAP0CE", "dateTime": 1517970391946}, {"current_trial": 41, "trialdata": {"rt": [2017, 4153, 6137, 7993, 9297, 15924], "recwords": ["cloud", "sheriff", "gynmast", "parsley", "pork", "valley"], "key_times": [1218, 1297, 1601, 1738, 1873, 2017, 2553, 2681, 2898, 3145, 3394, 3713, 3865, 4153, 4737, 4889, 5225, 5457, 5593, 5729, 5873, 6137, 6777, 6906, 7049, 7281, 7425, 7554, 7689, 7993, 8537, 8657, 8841, 9073, 9297, 14891, 15020, 15179, 15340, 15516, 15636, 15924], "trial_type": "free-recall", "conditions": [18, 1200, "v", 18000], "internal_node_id": "0.0-32.0-0.0", "key_presses": [67, 76, 79, 85, 68, 13, 83, 72, 69, 82, 73, 70, 70, 13, 71, 89, 78, 77, 65, 83, 84, 13, 80, 65, 82, 83, 76, 69, 89, 13, 80, 79, 82, 75, 13, 86, 65, 76, 76, 69, 89, 13], "trial": 0, "time_elapsed": 292790, "type": "FREE_RECALL", "trial_index": 41}, "uniqueid": "MTK2516:34T446B1C1LOAWGSLESORWM6GAP0CE", "dateTime": 1517970451953}, {"current_trial": 42, "trialdata": {"rt": 1607, "trial_type": "text", "internal_node_id": "0.0-33.0", "time_elapsed": 296405, "key_press": 75, "type": "INSTRUCTIONS", "trial_index": 42}, "uniqueid": "MTK2516:34T446B1C1LOAWGSLESORWM6GAP0CE", "dateTime": 1517970455566}, {"current_trial": 43, "trialdata": {"rt": [2492, 4636, 6476, 8892, 11732, 14659, 16195, 17948], "trial_type": "math-distractor", "key_times": [2028, 2221, 2492, 4212, 4388, 4636, 6148, 6276, 6476, 8573, 8693, 8892, 11276, 11501, 11732, 14371, 14540, 14659, 15636, 15940, 16195, 17564, 17708, 17948], "responses": ["14", "16", "17", "19", "19", "11", "14", "17"], "num2": [8, 4, 8, 9, 8, 6, 9, 6, 5], "num3": [1, 3, 6, 8, 6, 3, 1, 5, 8], "conditions": [18, 1200, "v", 18000], "internal_node_id": "0.0-34.0", "key_presses": [49, 52, 13, 49, 54, 13, 49, 55, 13, 49, 57, 13, 49, 57, 13, 49, 49, 13, 49, 52, 13, 49, 55, 13], "trial": 1, "time_elapsed": 316411, "type": "DISTRACTOR", "trial_index": 43, "num1": [5, 9, 3, 5, 5, 2, 4, 6, 8]}, "uniqueid": "MTK2516:34T446B1C1LOAWGSLESORWM6GAP0CE", "dateTime": 1517970475572}, {"current_trial": 44, "trialdata": {"rt": -1, "trial_type": "single-stim", "stimulus": "<p id=\"stim\">10</p>", "internal_node_id": "0.0-35.0-0.0", "time_elapsed": 319416, "key_press": -1, "trial_index": 44}, "uniqueid": "MTK2516:34T446B1C1LOAWGSLESORWM6GAP0CE", "dateTime": 1517970478578}, {"current_trial": 45, "trialdata": {"rt": -1, "trial_type": "single-stim", "stimulus": "<p id=\"stim\">9</p>", "internal_node_id": "0.0-35.0-1.0", "time_elapsed": 320421, "key_press": -1, "trial_index": 45}, "uniqueid": "MTK2516:34T446B1C1LOAWGSLESORWM6GAP0CE", "dateTime": 1517970479582}, {"current_trial": 46, "trialdata": {"rt": -1, "trial_type": "single-stim", "stimulus": "<p id=\"stim\">8</p>", "internal_node_id": "0.0-35.0-2.0", "time_elapsed": 321425, "key_press": -1, "trial_index": 46}, "uniqueid": "MTK2516:34T446B1C1LOAWGSLESORWM6GAP0CE", "dateTime": 1517970480586}, {"current_trial": 47, "trialdata": {"rt": -1, "trial_type": "single-stim", "stimulus": "<p id=\"stim\">7</p>", "internal_node_id": "0.0-35.0-3.0", "time_elapsed": 322429, "key_press": -1, "trial_index": 47}, "uniqueid": "MTK2516:34T446B1C1LOAWGSLESORWM6GAP0CE", "dateTime": 1517970481590}, {"current_trial": 48, "trialdata": {"rt": -1, "trial_type": "single-stim", "stimulus": "<p id=\"stim\">6</p>", "internal_node_id": "0.0-35.0-4.0", "time_elapsed": 323434, "key_press": -1, "trial_index": 48}, "uniqueid": "MTK2516:34T446B1C1LOAWGSLESORWM6GAP0CE", "dateTime": 1517970482595}, {"current_trial": 49, "trialdata": {"rt": -1, "trial_type": "single-stim", "stimulus": "<p id=\"stim\">5</p>", "internal_node_id": "0.0-35.0-5.0", "time_elapsed": 324436, "key_press": -1, "trial_index": 49}, "uniqueid": "MTK2516:34T446B1C1LOAWGSLESORWM6GAP0CE", "dateTime": 1517970483597}, {"current_trial": 50, "trialdata": {"rt": -1, "trial_type": "single-stim", "stimulus": "<p id=\"stim\">4</p>", "internal_node_id": "0.0-35.0-6.0", "time_elapsed": 326098, "key_press": -1, "trial_index": 50}, "uniqueid": "MTK2516:34T446B1C1LOAWGSLESORWM6GAP0CE", "dateTime": 1517970485259}, {"current_trial": 51, "trialdata": {"rt": -1, "trial_type": "single-stim", "stimulus": "<p id=\"stim\">3</p>", "internal_node_id": "0.0-35.0-7.0", "time_elapsed": 327102, "key_press": -1, "trial_index": 51}, "uniqueid": "MTK2516:34T446B1C1LOAWGSLESORWM6GAP0CE", "dateTime": 1517970486263}, {"current_trial": 52, "trialdata": {"rt": -1, "trial_type": "single-stim", "stimulus": "<p id=\"stim\">2</p>", "internal_node_id": "0.0-35.0-8.0", "time_elapsed": 328103, "key_press": -1, "trial_index": 52}, "uniqueid": "MTK2516:34T446B1C1LOAWGSLESORWM6GAP0CE", "dateTime": 1517970487264}, {"current_trial": 53, "trialdata": {"rt": -1, "trial_type": "single-stim", "stimulus": "<p id=\"stim\">1</p>", "internal_node_id": "0.0-35.0-9.0", "time_elapsed": 329105, "key_press": -1, "trial_index": 53}, "uniqueid": "MTK2516:34T446B1C1LOAWGSLESORWM6GAP0CE", "dateTime": 1517970488266}, {"current_trial": 54, "trialdata": {"rt": -1, "trial_type": "single-stim", "stimulus": "<p id=\"stim\">+</p>", "internal_node_id": "0.0-36.0-0.0", "time_elapsed": 330607, "key_press": -1, "type": "FIXATION", "trial_index": 54}, "uniqueid": "MTK2516:34T446B1C1LOAWGSLESORWM6GAP0CE", "dateTime": 1517970489768}, {"current_trial": 55, "trialdata": {"rt": -1, "trial_type": "single-stim", "word": "airplane", "stimulus": "<p id=\"stim\">AIRPLANE</p>", "conditions": [18, 1200, "v", 18000], "internal_node_id": "0.0-37.0", "trial": 1, "time_elapsed": 331808, "serialpos": 0, "key_press": -1, "wordID": 11, "type": "PRES_VIS", "trial_index": 55}, "uniqueid": "MTK2516:34T446B1C1LOAWGSLESORWM6GAP0CE", "dateTime": 1517970490969}, {"current_trial": 56, "trialdata": {"rt": -1, "trial_type": "single-stim", "word": "slug", "stimulus": "<p id=\"stim\">SLUG</p>", "conditions": [18, 1200, "v", 18000], "internal_node_id": "0.0-38.0", "trial": 1, "time_elapsed": 333851, "serialpos": 1, "key_press": -1, "wordID": 1328, "type": "PRES_VIS", "trial_index": 56}, "uniqueid": "MTK2516:34T446B1C1LOAWGSLESORWM6GAP0CE", "dateTime": 1517970493012}, {"current_trial": 57, "trialdata": {"rt": -1, "trial_type": "single-stim", "word": "fungus", "stimulus": "<p id=\"stim\">FUNGUS</p>", "conditions": [18, 1200, "v", 18000], "internal_node_id": "0.0-39.0", "trial": 1, "time_elapsed": 336178, "serialpos": 2, "key_press": -1, "wordID": 613, "type": "PRES_VIS", "trial_index": 57}, "uniqueid": "MTK2516:34T446B1C1LOAWGSLESORWM6GAP0CE", "dateTime": 1517970495339}, {"current_trial": 58, "trialdata": {"rt": -1, "trial_type": "single-stim", "word": "twig", "stimulus": "<p id=\"stim\">TWIG</p>", "conditions": [18, 1200, "v", 18000], "internal_node_id": "0.0-40.0", "trial": 1, "time_elapsed": 338552, "serialpos": 3, "key_press": -1, "wordID": 1526, "type": "PRES_VIS", "trial_index": 58}, "uniqueid": "MTK2516:34T446B1C1LOAWGSLESORWM6GAP0CE", "dateTime": 1517970497713}, {"current_trial": 59, "trialdata": {"rt": -1, "trial_type": "single-stim", "word": "coffee", "stimulus": "<p id=\"stim\">COFFEE</p>", "conditions": [18, 1200, "v", 18000], "internal_node_id": "0.0-41.0", "trial": 1, "time_elapsed": 340938, "serialpos": 4, "key_press": -1, "wordID": 340, "type": "PRES_VIS", "trial_index": 59}, "uniqueid": "MTK2516:34T446B1C1LOAWGSLESORWM6GAP0CE", "dateTime": 1517970500099}, {"current_trial": 60, "trialdata": {"rt": -1, "trial_type": "single-stim", "word": "gift", "stimulus": "<p id=\"stim\">GIFT</p>", "conditions": [18, 1200, "v", 18000], "internal_node_id": "0.0-42.0", "trial": 1, "time_elapsed": 343101, "serialpos": 5, "key_press": -1, "wordID": 634, "type": "PRES_VIS", "trial_index": 60}, "uniqueid": "MTK2516:34T446B1C1LOAWGSLESORWM6GAP0CE", "dateTime": 1517970502262}, {"current_trial": 61, "trialdata": {"rt": -1, "trial_type": "single-stim", "word": "sketch", "stimulus": "<p id=\"stim\">SKETCH</p>", "conditions": [18, 1200, "v", 18000], "internal_node_id": "0.0-43.0", "trial": 1, "time_elapsed": 345174, "serialpos": 6, "key_press": -1, "wordID": 1314, "type": "PRES_VIS", "trial_index": 61}, "uniqueid": "MTK2516:34T446B1C1LOAWGSLESORWM6GAP0CE", "dateTime": 1517970504335}, {"current_trial": 62, "trialdata": {"rt": -1, "trial_type": "single-stim", "word": "hook", "stimulus": "<p id=\"stim\">HOOK</p>", "conditions": [18, 1200, "v", 18000], "internal_node_id": "0.0-44.0", "trial": 1, "time_elapsed": 347316, "serialpos": 7, "key_press": -1, "wordID": 714, "type": "PRES_VIS", "trial_index": 62}, "uniqueid": "MTK2516:34T446B1C1LOAWGSLESORWM6GAP0CE", "dateTime": 1517970506478}, {"current_trial": 63, "trialdata": {"rt": -1, "trial_type": "single-stim", "word": "barrel", "stimulus": "<p id=\"stim\">BARREL</p>", "conditions": [18, 1200, "v", 18000], "internal_node_id": "0.0-45.0", "trial": 1, "time_elapsed": 349637, "serialpos": 8, "key_press": -1, "wordID": 90, "type": "PRES_VIS", "trial_index": 63}, "uniqueid": "MTK2516:34T446B1C1LOAWGSLESORWM6GAP0CE", "dateTime": 1517970508798}, {"current_trial": 64, "trialdata": {"rt": -1, "trial_type": "single-stim", "word": "patient", "stimulus": "<p id=\"stim\">PATIENT</p>", "conditions": [18, 1200, "v", 18000], "internal_node_id": "0.0-46.0", "trial": 1, "time_elapsed": 351959, "serialpos": 9, "key_press": -1, "wordID": 1023, "type": "PRES_VIS", "trial_index": 64}, "uniqueid": "MTK2516:34T446B1C1LOAWGSLESORWM6GAP0CE", "dateTime": 1517970511120}, {"current_trial": 65, "trialdata": {"rt": -1, "trial_type": "single-stim", "word": "judge", "stimulus": "<p id=\"stim\">JUDGE</p>", "conditions": [18, 1200, "v", 18000], "internal_node_id": "0.0-47.0", "trial": 1, "time_elapsed": 354125, "serialpos": 10, "key_press": -1, "wordID": 760, "type": "PRES_VIS", "trial_index": 65}, "uniqueid": "MTK2516:34T446B1C1LOAWGSLESORWM6GAP0CE", "dateTime": 1517970513286}, {"current_trial": 66, "trialdata": {"rt": -1, "trial_type": "single-stim", "word": "viking", "stimulus": "<p id=\"stim\">VIKING</p>", "conditions": [18, 1200, "v", 18000], "internal_node_id": "0.0-48.0", "trial": 1, "time_elapsed": 356143, "serialpos": 11, "key_press": -1, "wordID": 1564, "type": "PRES_VIS", "trial_index": 66}, "uniqueid": "MTK2516:34T446B1C1LOAWGSLESORWM6GAP0CE", "dateTime": 1517970515305}, {"current_trial": 67, "trialdata": {"rt": -1, "trial_type": "single-stim", "word": "lady", "stimulus": "<p id=\"stim\">LADY</p>", "conditions": [18, 1200, "v", 18000], "internal_node_id": "0.0-49.0", "trial": 1, "time_elapsed": 358349, "serialpos": 12, "key_press": -1, "wordID": 793, "type": "PRES_VIS", "trial_index": 67}, "uniqueid": "MTK2516:34T446B1C1LOAWGSLESORWM6GAP0CE", "dateTime": 1517970517510}, {"current_trial": 68, "trialdata": {"rt": -1, "trial_type": "single-stim", "word": "dragon", "stimulus": "<p id=\"stim\">DRAGON</p>", "conditions": [18, 1200, "v", 18000], "internal_node_id": "0.0-50.0", "trial": 1, "time_elapsed": 360554, "serialpos": 13, "key_press": -1, "wordID": 491, "type": "PRES_VIS", "trial_index": 68}, "uniqueid": "MTK2516:34T446B1C1LOAWGSLESORWM6GAP0CE", "dateTime": 1517970519718}, {"current_trial": 69, "trialdata": {"rt": -1, "trial_type": "single-stim", "word": "poet", "stimulus": "<p id=\"stim\">POET</p>", "conditions": [18, 1200, "v", 18000], "internal_node_id": "0.0-51.0", "trial": 1, "time_elapsed": 362621, "serialpos": 14, "key_press": -1, "wordID": 1094, "type": "PRES_VIS", "trial_index": 69}, "uniqueid": "MTK2516:34T446B1C1LOAWGSLESORWM6GAP0CE", "dateTime": 1517970521782}, {"current_trial": 70, "trialdata": {"rt": -1, "trial_type": "single-stim", "word": "waitress", "stimulus": "<p id=\"stim\">WAITRESS</p>", "conditions": [18, 1200, "v", 18000], "internal_node_id": "0.0-52.0", "trial": 1, "time_elapsed": 364939, "serialpos": 15, "key_press": -1, "wordID": 1580, "type": "PRES_VIS", "trial_index": 70}, "uniqueid": "MTK2516:34T446B1C1LOAWGSLESORWM6GAP0CE", "dateTime": 1517970524100}, {"current_trial": 71, "trialdata": {"rt": -1, "trial_type": "single-stim", "word": "brandy", "stimulus": "<p id=\"stim\">BRANDY</p>", "conditions": [18, 1200, "v", 18000], "internal_node_id": "0.0-53.0", "trial": 1, "time_elapsed": 367322, "serialpos": 16, "key_press": -1, "wordID": 168, "type": "PRES_VIS", "trial_index": 71}, "uniqueid": "MTK2516:34T446B1C1LOAWGSLESORWM6GAP0CE", "dateTime": 1517970526483}, {"current_trial": 72, "trialdata": {"rt": -1, "trial_type": "single-stim", "word": "raft", "stimulus": "<p id=\"stim\">RAFT</p>", "conditions": [18, 1200, "v", 18000], "internal_node_id": "0.0-54.0", "trial": 1, "time_elapsed": 369661, "serialpos": 17, "key_press": -1, "wordID": 1158, "type": "PRES_VIS", "trial_index": 72}, "uniqueid": "MTK2516:34T446B1C1LOAWGSLESORWM6GAP0CE", "dateTime": 1517970528822}, {"current_trial": 73, "trialdata": {"rt": -1, "trial_type": "single-stim", "stimulus": "", "internal_node_id": "0.0-55.0-0.0", "time_elapsed": 372133, "key_press": -1, "type": "PRE_RECALL_DELAY", "trial_index": 73}, "uniqueid": "MTK2516:34T446B1C1LOAWGSLESORWM6GAP0CE", "dateTime": 1517970531294}, {"current_trial": 74, "trialdata": {"rt": -1000, "trial_type": "single-audio", "stimulus": "/static/audio/400Hz.wav", "internal_node_id": "0.0-56.0", "time_elapsed": 372635, "key_press": -1, "type": "PRE_RECALL_ALERT", "trial_index": 74}, "uniqueid": "MTK2516:34T446B1C1LOAWGSLESORWM6GAP0CE", "dateTime": 1517970531796}, {"current_trial": 75, "trialdata": {"rt": [1863, 4383, 6311, 7456, 9208, 10887, 13695], "recwords": ["poet", "waitress", "brandy", "raft", "airplane", "twig", "coffee"], "key_times": [783, 839, 1279, 1456, 1863, 2255, 2392, 2832, 3079, 3336, 3847, 4071, 4224, 4383, 5303, 5462, 5561, 5679, 5799, 6031, 6311, 6791, 6959, 7127, 7343, 7456, 7791, 8151, 8319, 8440, 8647, 8767, 8927, 9080, 9208, 10160, 10319, 10423, 10663, 10887, 12615, 12743, 13111, 13263, 13399, 13575, 13695], "trial_type": "free-recall", "conditions": [18, 1200, "v", 18000], "internal_node_id": "0.0-57.0-0.0", "key_presses": [80, 79, 69, 84, 13, 87, 65, 73, 84, 82, 69, 83, 83, 13, 66, 82, 65, 78, 68, 89, 13, 82, 65, 70, 84, 13, 65, 73, 82, 80, 76, 65, 78, 69, 13, 84, 87, 73, 71, 13, 67, 79, 70, 70, 69, 69, 13], "trial": 1, "time_elapsed": 432639, "type": "FREE_RECALL", "trial_index": 75}, "uniqueid": "MTK2516:34T446B1C1LOAWGSLESORWM6GAP0CE", "dateTime": 1517970591802}, {"current_trial": 76, "trialdata": {"rt": 1958, "trial_type": "text", "internal_node_id": "0.0-58.0", "time_elapsed": 436600, "key_press": 74, "type": "INSTRUCTIONS", "trial_index": 76}, "uniqueid": "MTK2516:34T446B1C1LOAWGSLESORWM6GAP0CE", "dateTime": 1517970595761}, {"current_trial": 77, "trialdata": {"rt": [2168, 5456, 6904, 8631, 10544], "trial_type": "math-distractor", "key_times": [1840, 1952, 2168, 5183, 5232, 5456, 6600, 6687, 6904, 8384, 8631, 10104, 10320, 10544], "responses": ["15", "16", "18", "8", "19"], "num2": [9, 8, 6, 4, 9, 5], "num3": [4, 6, 7, 1, 6, 8], "conditions": [12, 800, "v", 12000], "internal_node_id": "0.0-59.0", "key_presses": [49, 53, 13, 49, 54, 13, 49, 56, 13, 56, 13, 49, 57, 13], "trial": 2, "time_elapsed": 449610, "type": "DISTRACTOR", "trial_index": 77, "num1": [2, 3, 5, 3, 4, 7]}, "uniqueid": "MTK2516:34T446B1C1LOAWGSLESORWM6GAP0CE", "dateTime": 1517970608771}, {"current_trial": 78, "trialdata": {"rt": -1, "trial_type": "single-stim", "stimulus": "<p id=\"stim\">10</p>", "internal_node_id": "0.0-60.0-0.0", "time_elapsed": 452615, "key_press": -1, "trial_index": 78}, "uniqueid": "MTK2516:34T446B1C1LOAWGSLESORWM6GAP0CE", "dateTime": 1517970611776}, {"current_trial": 79, "trialdata": {"rt": -1, "trial_type": "single-stim", "stimulus": "<p id=\"stim\">9</p>", "internal_node_id": "0.0-60.0-1.0", "time_elapsed": 453621, "key_press": -1, "trial_index": 79}, "uniqueid": "MTK2516:34T446B1C1LOAWGSLESORWM6GAP0CE", "dateTime": 1517970612782}, {"current_trial": 80, "trialdata": {"rt": -1, "trial_type": "single-stim", "stimulus": "<p id=\"stim\">8</p>", "internal_node_id": "0.0-60.0-2.0", "time_elapsed": 454623, "key_press": -1, "trial_index": 80}, "uniqueid": "MTK2516:34T446B1C1LOAWGSLESORWM6GAP0CE", "dateTime": 1517970613784}, {"current_trial": 81, "trialdata": {"rt": -1, "trial_type": "single-stim", "stimulus": "<p id=\"stim\">7</p>", "internal_node_id": "0.0-60.0-3.0", "time_elapsed": 455627, "key_press": -1, "trial_index": 81}, "uniqueid": "MTK2516:34T446B1C1LOAWGSLESORWM6GAP0CE", "dateTime": 1517970614788}, {"current_trial": 82, "trialdata": {"rt": -1, "trial_type": "single-stim", "stimulus": "<p id=\"stim\">6</p>", "internal_node_id": "0.0-60.0-4.0", "time_elapsed": 456632, "key_press": -1, "trial_index": 82}, "uniqueid": "MTK2516:34T446B1C1LOAWGSLESORWM6GAP0CE", "dateTime": 1517970615793}, {"current_trial": 83, "trialdata": {"rt": -1, "trial_type": "single-stim", "stimulus": "<p id=\"stim\">5</p>", "internal_node_id": "0.0-60.0-5.0", "time_elapsed": 457635, "key_press": -1, "trial_index": 83}, "uniqueid": "MTK2516:34T446B1C1LOAWGSLESORWM6GAP0CE", "dateTime": 1517970616797}, {"current_trial": 84, "trialdata": {"rt": -1, "trial_type": "single-stim", "stimulus": "<p id=\"stim\">4</p>", "internal_node_id": "0.0-60.0-6.0", "time_elapsed": 458640, "key_press": -1, "trial_index": 84}, "uniqueid": "MTK2516:34T446B1C1LOAWGSLESORWM6GAP0CE", "dateTime": 1517970617801}, {"current_trial": 85, "trialdata": {"rt": -1, "trial_type": "single-stim", "stimulus": "<p id=\"stim\">3</p>", "internal_node_id": "0.0-60.0-7.0", "time_elapsed": 459644, "key_press": -1, "trial_index": 85}, "uniqueid": "MTK2516:34T446B1C1LOAWGSLESORWM6GAP0CE", "dateTime": 1517970618805}, {"current_trial": 86, "trialdata": {"rt": -1, "trial_type": "single-stim", "stimulus": "<p id=\"stim\">2</p>", "internal_node_id": "0.0-60.0-8.0", "time_elapsed": 460648, "key_press": -1, "trial_index": 86}, "uniqueid": "MTK2516:34T446B1C1LOAWGSLESORWM6GAP0CE", "dateTime": 1517970619810}, {"current_trial": 87, "trialdata": {"rt": -1, "trial_type": "single-stim", "stimulus": "<p id=\"stim\">1</p>", "internal_node_id": "0.0-60.0-9.0", "time_elapsed": 461652, "key_press": -1, "trial_index": 87}, "uniqueid": "MTK2516:34T446B1C1LOAWGSLESORWM6GAP0CE", "dateTime": 1517970620813}, {"current_trial": 88, "trialdata": {"rt": -1, "trial_type": "single-stim", "stimulus": "<p id=\"stim\">+</p>", "internal_node_id": "0.0-61.0-0.0", "time_elapsed": 463155, "key_press": -1, "type": "FIXATION", "trial_index": 88}, "uniqueid": "MTK2516:34T446B1C1LOAWGSLESORWM6GAP0CE", "dateTime": 1517970622316}, {"current_trial": 89, "trialdata": {"rt": -1, "trial_type": "single-stim", "word": "scallop", "stimulus": "<p id=\"stim\">SCALLOP</p>", "conditions": [12, 800, "v", 12000], "internal_node_id": "0.0-62.0", "trial": 2, "time_elapsed": 463956, "serialpos": 0, "key_press": -1, "wordID": 1241, "type": "PRES_VIS", "trial_index": 89}, "uniqueid": "MTK2516:34T446B1C1LOAWGSLESORWM6GAP0CE", "dateTime": 1517970623117}, {"current_trial": 90, "trialdata": {"rt": -1, "trial_type": "single-stim", "word": "clam", "stimulus": "<p id=\"stim\">CLAM</p>", "conditions": [12, 800, "v", 12000], "internal_node_id": "0.0-63.0", "trial": 2, "time_elapsed": 465755, "serialpos": 1, "key_press": -1, "wordID": 314, "type": "PRES_VIS", "trial_index": 90}, "uniqueid": "MTK2516:34T446B1C1LOAWGSLESORWM6GAP0CE", "dateTime": 1517970624917}, {"current_trial": 91, "trialdata": {"rt": -1, "trial_type": "single-stim", "word": "summit", "stimulus": "<p id=\"stim\">SUMMIT</p>", "conditions": [12, 800, "v", 12000], "internal_node_id": "0.0-64.0", "trial": 2, "time_elapsed": 467427, "serialpos": 2, "key_press": -1, "wordID": 1404, "type": "PRES_VIS", "trial_index": 91}, "uniqueid": "MTK2516:34T446B1C1LOAWGSLESORWM6GAP0CE", "dateTime": 1517970626588}, {"current_trial": 92, "trialdata": {"rt": -1, "trial_type": "single-stim", "word": "boyfriend", "stimulus": "<p id=\"stim\">BOYFRIEND</p>", "conditions": [12, 800, "v", 12000], "internal_node_id": "0.0-65.0", "trial": 2, "time_elapsed": 469238, "serialpos": 3, "key_press": -1, "wordID": 161, "type": "PRES_VIS", "trial_index": 92}, "uniqueid": "MTK2516:34T446B1C1LOAWGSLESORWM6GAP0CE", "dateTime": 1517970628399}, {"current_trial": 93, "trialdata": {"rt": -1, "trial_type": "single-stim", "word": "rug", "stimulus": "<p id=\"stim\">RUG</p>", "conditions": [12, 800, "v", 12000], "internal_node_id": "0.0-66.0", "trial": 2, "time_elapsed": 471083, "serialpos": 4, "key_press": -1, "wordID": 1214, "type": "PRES_VIS", "trial_index": 93}, "uniqueid": "MTK2516:34T446B1C1LOAWGSLESORWM6GAP0CE", "dateTime": 1517970630244}, {"current_trial": 94, "trialdata": {"rt": -1, "trial_type": "single-stim", "word": "iceberg", "stimulus": "<p id=\"stim\">ICEBERG</p>", "conditions": [12, 800, "v", 12000], "internal_node_id": "0.0-67.0", "trial": 2, "time_elapsed": 473016, "serialpos": 5, "key_press": -1, "wordID": 730, "type": "PRES_VIS", "trial_index": 94}, "uniqueid": "MTK2516:34T446B1C1LOAWGSLESORWM6GAP0CE", "dateTime": 1517970632177}, {"current_trial": 95, "trialdata": {"rt": -1, "trial_type": "single-stim", "word": "leg", "stimulus": "<p id=\"stim\">LEG</p>", "conditions": [12, 800, "v", 12000], "internal_node_id": "0.0-68.0", "trial": 2, "time_elapsed": 474792, "serialpos": 6, "key_press": -1, "wordID": 808, "type": "PRES_VIS", "trial_index": 95}, "uniqueid": "MTK2516:34T446B1C1LOAWGSLESORWM6GAP0CE", "dateTime": 1517970633953}, {"current_trial": 96, "trialdata": {"rt": -1, "trial_type": "single-stim", "word": "wardrobe", "stimulus": "<p id=\"stim\">WARDROBE</p>", "conditions": [12, 800, "v", 12000], "internal_node_id": "0.0-69.0", "trial": 2, "time_elapsed": 476596, "serialpos": 7, "key_press": -1, "wordID": 1586, "type": "PRES_VIS", "trial_index": 96}, "uniqueid": "MTK2516:34T446B1C1LOAWGSLESORWM6GAP0CE", "dateTime": 1517970635757}, {"current_trial": 97, "trialdata": {"rt": -1, "trial_type": "single-stim", "word": "lettuce", "stimulus": "<p id=\"stim\">LETTUCE</p>", "conditions": [12, 800, "v", 12000], "internal_node_id": "0.0-70.0", "trial": 2, "time_elapsed": 478390, "serialpos": 8, "key_press": -1, "wordID": 813, "type": "PRES_VIS", "trial_index": 97}, "uniqueid": "MTK2516:34T446B1C1LOAWGSLESORWM6GAP0CE", "dateTime": 1517970637551}, {"current_trial": 98, "trialdata": {"rt": -1, "trial_type": "single-stim", "word": "piston", "stimulus": "<p id=\"stim\">PISTON</p>", "conditions": [12, 800, "v", 12000], "internal_node_id": "0.0-71.0", "trial": 2, "time_elapsed": 480266, "serialpos": 9, "key_press": -1, "wordID": 1075, "type": "PRES_VIS", "trial_index": 98}, "uniqueid": "MTK2516:34T446B1C1LOAWGSLESORWM6GAP0CE", "dateTime": 1517970639427}, {"current_trial": 99, "trialdata": {"rt": -1, "trial_type": "single-stim", "word": "tortoise", "stimulus": "<p id=\"stim\">TORTOISE</p>", "conditions": [12, 800, "v", 12000], "internal_node_id": "0.0-72.0", "trial": 2, "time_elapsed": 482052, "serialpos": 10, "key_press": -1, "wordID": 1485, "type": "PRES_VIS", "trial_index": 99}, "uniqueid": "MTK2516:34T446B1C1LOAWGSLESORWM6GAP0CE", "dateTime": 1517970641214}, {"current_trial": 100, "trialdata": {"rt": -1, "trial_type": "single-stim", "word": "elbow", "stimulus": "<p id=\"stim\">ELBOW</p>", "conditions": [12, 800, "v", 12000], "internal_node_id": "0.0-73.0", "trial": 2, "time_elapsed": 484049, "serialpos": 11, "key_press": -1, "wordID": 519, "type": "PRES_VIS", "trial_index": 100}, "uniqueid": "MTK2516:34T446B1C1LOAWGSLESORWM6GAP0CE", "dateTime": 1517970643210}, {"current_trial": 101, "trialdata": {"rt": -1, "trial_type": "single-stim", "stimulus": "", "internal_node_id": "0.0-74.0-0.0", "time_elapsed": 486445, "key_press": -1, "type": "PRE_RECALL_DELAY", "trial_index": 101}, "uniqueid": "MTK2516:34T446B1C1LOAWGSLESORWM6GAP0CE", "dateTime": 1517970645606}, {"current_trial": 102, "trialdata": {"rt": -1000, "trial_type": "single-audio", "stimulus": "/static/audio/400Hz.wav", "internal_node_id": "0.0-75.0", "time_elapsed": 486946, "key_press": -1, "type": "PRE_RECALL_ALERT", "trial_index": 102}, "uniqueid": "MTK2516:34T446B1C1LOAWGSLESORWM6GAP0CE", "dateTime": 1517970646107}, {"current_trial": 103, "trialdata": {"rt": [1709, 3573, 7846, 9989, 11157, 15341, 17477, 19164], "recwords": ["elbow", "piston", "summit", "boyfriend", "clam", "scallop", "tortoise", "elbow"], "key_times": [886, 965, 1222, 1389, 1566, 1709, 2189, 2407, 2557, 2734, 2966, 3221, 3573, 7014, 7117, 7310, 7429, 7573, 7669, 7846, 8382, 8533, 8725, 9054, 9214, 9317, 9429, 9581, 9845, 9989, 10565, 10678, 10829, 10982, 11157, 12422, 12598, 12773, 13094, 13230, 13414, 14021, 14541, 15093, 15341, 15949, 16165, 16462, 16613, 16901, 17045, 17197, 17349, 17477, 18358, 18446, 18678, 18845, 18942, 19164], "trial_type": "free-recall", "conditions": [12, 800, "v", 12000], "internal_node_id": "0.0-76.0-0.0", "key_presses": [69, 76, 66, 79, 87, 13, 80, 73, 83, 84, 79, 78, 13, 83, 85, 77, 77, 73, 84, 13, 66, 79, 89, 70, 82, 73, 69, 78, 68, 13, 67, 76, 65, 77, 13, 83, 67, 65, 76, 76, 79, 87, 8, 80, 13, 84, 79, 82, 84, 79, 73, 83, 69, 13, 69, 76, 66, 79, 87, 13], "trial": 2, "time_elapsed": 546950, "type": "FREE_RECALL", "trial_index": 103}, "uniqueid": "MTK2516:34T446B1C1LOAWGSLESORWM6GAP0CE", "dateTime": 1517970706113}, {"current_trial": 104, "trialdata": {"rt": 243700, "trial_type": "text", "internal_node_id": "0.0-77.0", "time_elapsed": 792657, "key_press": 77, "type": "INSTRUCTIONS", "trial_index": 104}, "uniqueid": "MTK2516:34T446B1C1LOAWGSLESORWM6GAP0CE", "dateTime": 1517970951818}, {"current_trial": 105, "trialdata": {"rt": [2366, 4214, 6446, 7901, 11470], "trial_type": "math-distractor", "key_times": [1974, 2118, 2366, 3646, 4022, 4214, 5846, 6166, 6446, 7550, 7686, 7901, 10805, 10934, 11470], "responses": ["11", "14", "14", "18", "24"], "num2": [5, 3, 5, 8, 6, 9], "num3": [3, 4, 8, 4, 8, 4], "conditions": [24, 800, "v", 12000], "internal_node_id": "0.0-78.0", "key_presses": [49, 49, 13, 49, 52, 13, 49, 52, 13, 49, 56, 13, 50, 52, 13], "trial": 3, "time_elapsed": 806666, "type": "DISTRACTOR", "trial_index": 105, "num1": [3, 7, 1, 6, 8, 6]}, "uniqueid": "MTK2516:34T446B1C1LOAWGSLESORWM6GAP0CE", "dateTime": 1517970965827}, {"current_trial": 106, "trialdata": {"rt": -1, "trial_type": "single-stim", "stimulus": "<p id=\"stim\">10</p>", "internal_node_id": "0.0-79.0-0.0", "time_elapsed": 809672, "key_press": -1, "trial_index": 106}, "uniqueid": "MTK2516:34T446B1C1LOAWGSLESORWM6GAP0CE", "dateTime": 1517970968833}, {"current_trial": 107, "trialdata": {"rt": -1, "trial_type": "single-stim", "stimulus": "<p id=\"stim\">9</p>", "internal_node_id": "0.0-79.0-1.0", "time_elapsed": 810676, "key_press": -1, "trial_index": 107}, "uniqueid": "MTK2516:34T446B1C1LOAWGSLESORWM6GAP0CE", "dateTime": 1517970969837}, {"current_trial": 108, "trialdata": {"rt": -1, "trial_type": "single-stim", "stimulus": "<p id=\"stim\">8</p>", "internal_node_id": "0.0-79.0-2.0", "time_elapsed": 811681, "key_press": -1, "trial_index": 108}, "uniqueid": "MTK2516:34T446B1C1LOAWGSLESORWM6GAP0CE", "dateTime": 1517970970842}, {"current_trial": 109, "trialdata": {"rt": -1, "trial_type": "single-stim", "stimulus": "<p id=\"stim\">7</p>", "internal_node_id": "0.0-79.0-3.0", "time_elapsed": 812684, "key_press": -1, "trial_index": 109}, "uniqueid": "MTK2516:34T446B1C1LOAWGSLESORWM6GAP0CE", "dateTime": 1517970971845}, {"current_trial": 110, "trialdata": {"rt": -1, "trial_type": "single-stim", "stimulus": "<p id=\"stim\">6</p>", "internal_node_id": "0.0-79.0-4.0", "time_elapsed": 813689, "key_press": -1, "trial_index": 110}, "uniqueid": "MTK2516:34T446B1C1LOAWGSLESORWM6GAP0CE", "dateTime": 1517970972850}, {"current_trial": 111, "trialdata": {"rt": -1, "trial_type": "single-stim", "stimulus": "<p id=\"stim\">5</p>", "internal_node_id": "0.0-79.0-5.0", "time_elapsed": 814692, "key_press": -1, "trial_index": 111}, "uniqueid": "MTK2516:34T446B1C1LOAWGSLESORWM6GAP0CE", "dateTime": 1517970973853}, {"current_trial": 112, "trialdata": {"rt": -1, "trial_type": "single-stim", "stimulus": "<p id=\"stim\">4</p>", "internal_node_id": "0.0-79.0-6.0", "time_elapsed": 815697, "key_press": -1, "trial_index": 112}, "uniqueid": "MTK2516:34T446B1C1LOAWGSLESORWM6GAP0CE", "dateTime": 1517970974858}, {"current_trial": 113, "trialdata": {"rt": -1, "trial_type": "single-stim", "stimulus": "<p id=\"stim\">3</p>", "internal_node_id": "0.0-79.0-7.0", "time_elapsed": 816700, "key_press": -1, "trial_index": 113}, "uniqueid": "MTK2516:34T446B1C1LOAWGSLESORWM6GAP0CE", "dateTime": 1517970975862}, {"current_trial": 114, "trialdata": {"rt": -1, "trial_type": "single-stim", "stimulus": "<p id=\"stim\">2</p>", "internal_node_id": "0.0-79.0-8.0", "time_elapsed": 817705, "key_press": -1, "trial_index": 114}, "uniqueid": "MTK2516:34T446B1C1LOAWGSLESORWM6GAP0CE", "dateTime": 1517970976866}, {"current_trial": 115, "trialdata": {"rt": -1, "trial_type": "single-stim", "stimulus": "<p id=\"stim\">1</p>", "internal_node_id": "0.0-79.0-9.0", "time_elapsed": 818709, "key_press": -1, "trial_index": 115}, "uniqueid": "MTK2516:34T446B1C1LOAWGSLESORWM6GAP0CE", "dateTime": 1517970977870}, {"current_trial": 116, "trialdata": {"rt": -1, "trial_type": "single-stim", "stimulus": "<p id=\"stim\">+</p>", "internal_node_id": "0.0-80.0-0.0", "time_elapsed": 820212, "key_press": -1, "type": "FIXATION", "trial_index": 116}, "uniqueid": "MTK2516:34T446B1C1LOAWGSLESORWM6GAP0CE", "dateTime": 1517970979373}, {"current_trial": 117, "trialdata": {"rt": -1, "trial_type": "single-stim", "word": "pizza", "stimulus": "<p id=\"stim\">PIZZA</p>", "conditions": [24, 800, "v", 12000], "internal_node_id": "0.0-81.0", "trial": 3, "time_elapsed": 821018, "serialpos": 0, "key_press": -1, "wordID": 1078, "type": "PRES_VIS", "trial_index": 117}, "uniqueid": "MTK2516:34T446B1C1LOAWGSLESORWM6GAP0CE", "dateTime": 1517970980180}, {"current_trial": 118, "trialdata": {"rt": -1, "trial_type": "single-stim", "word": "nurse", "stimulus": "<p id=\"stim\">NURSE</p>", "conditions": [24, 800, "v", 12000], "internal_node_id": "0.0-82.0", "trial": 3, "time_elapsed": 822893, "serialpos": 1, "key_press": -1, "wordID": 962, "type": "PRES_VIS", "trial_index": 118}, "uniqueid": "MTK2516:34T446B1C1LOAWGSLESORWM6GAP0CE", "dateTime": 1517970982054}, {"current_trial": 119, "trialdata": {"rt": -1, "trial_type": "single-stim", "word": "breast", "stimulus": "<p id=\"stim\">BREAST</p>", "conditions": [24, 800, "v", 12000], "internal_node_id": "0.0-83.0", "trial": 3, "time_elapsed": 824692, "serialpos": 2, "key_press": -1, "wordID": 170, "type": "PRES_VIS", "trial_index": 119}, "uniqueid": "MTK2516:34T446B1C1LOAWGSLESORWM6GAP0CE", "dateTime": 1517970983853}, {"current_trial": 120, "trialdata": {"rt": -1, "trial_type": "single-stim", "word": "chapel", "stimulus": "<p id=\"stim\">CHAPEL</p>", "conditions": [24, 800, "v", 12000], "internal_node_id": "0.0-84.0", "trial": 3, "time_elapsed": 826399, "serialpos": 3, "key_press": -1, "wordID": 279, "type": "PRES_VIS", "trial_index": 120}, "uniqueid": "MTK2516:34T446B1C1LOAWGSLESORWM6GAP0CE", "dateTime": 1517970985560}, {"current_trial": 121, "trialdata": {"rt": -1, "trial_type": "single-stim", "word": "church", "stimulus": "<p id=\"stim\">CHURCH</p>", "conditions": [24, 800, "v", 12000], "internal_node_id": "0.0-85.0", "trial": 3, "time_elapsed": 828320, "serialpos": 4, "key_press": -1, "wordID": 306, "type": "PRES_VIS", "trial_index": 121}, "uniqueid": "MTK2516:34T446B1C1LOAWGSLESORWM6GAP0CE", "dateTime": 1517970987481}, {"current_trial": 122, "trialdata": {"rt": -1, "trial_type": "single-stim", "word": "briefcase", "stimulus": "<p id=\"stim\">BRIEFCASE</p>", "conditions": [24, 800, "v", 12000], "internal_node_id": "0.0-86.0", "trial": 3, "time_elapsed": 830113, "serialpos": 5, "key_press": -1, "wordID": 174, "type": "PRES_VIS", "trial_index": 122}, "uniqueid": "MTK2516:34T446B1C1LOAWGSLESORWM6GAP0CE", "dateTime": 1517970989274}, {"current_trial": 123, "trialdata": {"rt": -1, "trial_type": "single-stim", "word": "portrait", "stimulus": "<p id=\"stim\">PORTRAIT</p>", "conditions": [24, 800, "v", 12000], "internal_node_id": "0.0-87.0", "trial": 3, "time_elapsed": 831843, "serialpos": 6, "key_press": -1, "wordID": 1110, "type": "PRES_VIS", "trial_index": 123}, "uniqueid": "MTK2516:34T446B1C1LOAWGSLESORWM6GAP0CE", "dateTime": 1517970991004}, {"current_trial": 124, "trialdata": {"rt": -1, "trial_type": "single-stim", "word": "tile", "stimulus": "<p id=\"stim\">TILE</p>", "conditions": [24, 800, "v", 12000], "internal_node_id": "0.0-88.0", "trial": 3, "time_elapsed": 833469, "serialpos": 7, "key_press": -1, "wordID": 1467, "type": "PRES_VIS", "trial_index": 124}, "uniqueid": "MTK2516:34T446B1C1LOAWGSLESORWM6GAP0CE", "dateTime": 1517970992630}, {"current_trial": 125, "trialdata": {"rt": -1, "trial_type": "single-stim", "word": "doughnut", "stimulus": "<p id=\"stim\">DOUGHNUT</p>", "conditions": [24, 800, "v", 12000], "internal_node_id": "0.0-89.0", "trial": 3, "time_elapsed": 835239, "serialpos": 8, "key_press": -1, "wordID": 489, "type": "PRES_VIS", "trial_index": 125}, "uniqueid": "MTK2516:34T446B1C1LOAWGSLESORWM6GAP0CE", "dateTime": 1517970994400}, {"current_trial": 126, "trialdata": {"rt": -1, "trial_type": "single-stim", "word": "chemist", "stimulus": "<p id=\"stim\">CHEMIST</p>", "conditions": [24, 800, "v", 12000], "internal_node_id": "0.0-90.0", "trial": 3, "time_elapsed": 836991, "serialpos": 9, "key_press": -1, "wordID": 291, "type": "PRES_VIS", "trial_index": 126}, "uniqueid": "MTK2516:34T446B1C1LOAWGSLESORWM6GAP0CE", "dateTime": 1517970996152}, {"current_trial": 127, "trialdata": {"rt": -1, "trial_type": "single-stim", "word": "icing", "stimulus": "<p id=\"stim\">ICING</p>", "conditions": [24, 800, "v", 12000], "internal_node_id": "0.0-91.0", "trial": 3, "time_elapsed": 838645, "serialpos": 10, "key_press": -1, "wordID": 731, "type": "PRES_VIS", "trial_index": 127}, "uniqueid": "MTK2516:34T446B1C1LOAWGSLESORWM6GAP0CE", "dateTime": 1517970997806}, {"current_trial": 128, "trialdata": {"rt": -1, "trial_type": "single-stim", "word": "london", "stimulus": "<p id=\"stim\">LONDON</p>", "conditions": [24, 800, "v", 12000], "internal_node_id": "0.0-92.0", "trial": 3, "time_elapsed": 840636, "serialpos": 11, "key_press": -1, "wordID": 842, "type": "PRES_VIS", "trial_index": 128}, "uniqueid": "MTK2516:34T446B1C1LOAWGSLESORWM6GAP0CE", "dateTime": 1517970999797}, {"current_trial": 129, "trialdata": {"rt": -1, "trial_type": "single-stim", "word": "hedge", "stimulus": "<p id=\"stim\">HEDGE</p>", "conditions": [24, 800, "v", 12000], "internal_node_id": "0.0-93.0", "trial": 3, "time_elapsed": 842342, "serialpos": 12, "key_press": -1, "wordID": 698, "type": "PRES_VIS", "trial_index": 129}, "uniqueid": "MTK2516:34T446B1C1LOAWGSLESORWM6GAP0CE", "dateTime": 1517971001504}, {"current_trial": 130, "trialdata": {"rt": -1, "trial_type": "single-stim", "word": "dashboard", "stimulus": "<p id=\"stim\">DASHBOARD</p>", "conditions": [24, 800, "v", 12000], "internal_node_id": "0.0-94.0", "trial": 3, "time_elapsed": 844333, "serialpos": 13, "key_press": -1, "wordID": 440, "type": "PRES_VIS", "trial_index": 130}, "uniqueid": "MTK2516:34T446B1C1LOAWGSLESORWM6GAP0CE", "dateTime": 1517971003494}, {"current_trial": 131, "trialdata": {"rt": -1, "trial_type": "single-stim", "word": "harp", "stimulus": "<p id=\"stim\">HARP</p>", "conditions": [24, 800, "v", 12000], "internal_node_id": "0.0-95.0", "trial": 3, "time_elapsed": 846237, "serialpos": 14, "key_press": -1, "wordID": 688, "type": "PRES_VIS", "trial_index": 131}, "uniqueid": "MTK2516:34T446B1C1LOAWGSLESORWM6GAP0CE", "dateTime": 1517971005398}, {"current_trial": 132, "trialdata": {"rt": -1, "trial_type": "single-stim", "word": "survey", "stimulus": "<p id=\"stim\">SURVEY</p>", "conditions": [24, 800, "v", 12000], "internal_node_id": "0.0-96.0", "trial": 3, "time_elapsed": 847949, "serialpos": 15, "key_press": -1, "wordID": 1413, "type": "PRES_VIS", "trial_index": 132}, "uniqueid": "MTK2516:34T446B1C1LOAWGSLESORWM6GAP0CE", "dateTime": 1517971007110}, {"current_trial": 133, "trialdata": {"rt": -1, "trial_type": "single-stim", "word": "journal", "stimulus": "<p id=\"stim\">JOURNAL</p>", "conditions": [24, 800, "v", 12000], "internal_node_id": "0.0-97.0", "trial": 3, "time_elapsed": 849818, "serialpos": 16, "key_press": -1, "wordID": 759, "type": "PRES_VIS", "trial_index": 133}, "uniqueid": "MTK2516:34T446B1C1LOAWGSLESORWM6GAP0CE", "dateTime": 1517971008979}, {"current_trial": 134, "trialdata": {"rt": -1, "trial_type": "single-stim", "word": "perch", "stimulus": "<p id=\"stim\">PERCH</p>", "conditions": [24, 800, "v", 12000], "internal_node_id": "0.0-98.0", "trial": 3, "time_elapsed": 851454, "serialpos": 17, "key_press": -1, "wordID": 1047, "type": "PRES_VIS", "trial_index": 134}, "uniqueid": "MTK2516:34T446B1C1LOAWGSLESORWM6GAP0CE", "dateTime": 1517971010615}, {"current_trial": 135, "trialdata": {"rt": -1, "trial_type": "single-stim", "word": "flask", "stimulus": "<p id=\"stim\">FLASK</p>", "conditions": [24, 800, "v", 12000], "internal_node_id": "0.0-99.0", "trial": 3, "time_elapsed": 853300, "serialpos": 18, "key_press": -1, "wordID": 575, "type": "PRES_VIS", "trial_index": 135}, "uniqueid": "MTK2516:34T446B1C1LOAWGSLESORWM6GAP0CE", "dateTime": 1517971012461}, {"current_trial": 136, "trialdata": {"rt": -1, "trial_type": "single-stim", "word": "beaker", "stimulus": "<p id=\"stim\">BEAKER</p>", "conditions": [24, 800, "v", 12000], "internal_node_id": "0.0-100.0", "trial": 3, "time_elapsed": 855081, "serialpos": 19, "key_press": -1, "wordID": 103, "type": "PRES_VIS", "trial_index": 136}, "uniqueid": "MTK2516:34T446B1C1LOAWGSLESORWM6GAP0CE", "dateTime": 1517971014242}, {"current_trial": 137, "trialdata": {"rt": -1, "trial_type": "single-stim", "word": "bunny", "stimulus": "<p id=\"stim\">BUNNY</p>", "conditions": [24, 800, "v", 12000], "internal_node_id": "0.0-101.0", "trial": 3, "time_elapsed": 857078, "serialpos": 20, "key_press": -1, "wordID": 197, "type": "PRES_VIS", "trial_index": 137}, "uniqueid": "MTK2516:34T446B1C1LOAWGSLESORWM6GAP0CE", "dateTime": 1517971016239}, {"current_trial": 138, "trialdata": {"rt": -1, "trial_type": "single-stim", "word": "suspect", "stimulus": "<p id=\"stim\">SUSPECT</p>", "conditions": [24, 800, "v", 12000], "internal_node_id": "0.0-102.0", "trial": 3, "time_elapsed": 859006, "serialpos": 21, "key_press": -1, "wordID": 1414, "type": "PRES_VIS", "trial_index": 138}, "uniqueid": "MTK2516:34T446B1C1LOAWGSLESORWM6GAP0CE", "dateTime": 1517971018167}, {"current_trial": 139, "trialdata": {"rt": -1, "trial_type": "single-stim", "word": "world", "stimulus": "<p id=\"stim\">WORLD</p>", "conditions": [24, 800, "v", 12000], "internal_node_id": "0.0-103.0", "trial": 3, "time_elapsed": 860751, "serialpos": 22, "key_press": -1, "wordID": 1621, "type": "PRES_VIS", "trial_index": 139}, "uniqueid": "MTK2516:34T446B1C1LOAWGSLESORWM6GAP0CE", "dateTime": 1517971019913}, {"current_trial": 140, "trialdata": {"rt": -1, "trial_type": "single-stim", "word": "fiddle", "stimulus": "<p id=\"stim\">FIDDLE</p>", "conditions": [24, 800, "v", 12000], "internal_node_id": "0.0-104.0", "trial": 3, "time_elapsed": 862673, "serialpos": 23, "key_press": -1, "wordID": 560, "type": "PRES_VIS", "trial_index": 140}, "uniqueid": "MTK2516:34T446B1C1LOAWGSLESORWM6GAP0CE", "dateTime": 1517971021835}, {"current_trial": 141, "trialdata": {"rt": -1, "trial_type": "single-stim", "stimulus": "", "internal_node_id": "0.0-105.0-0.0", "time_elapsed": 864936, "key_press": -1, "type": "PRE_RECALL_DELAY", "trial_index": 141}, "uniqueid": "MTK2516:34T446B1C1LOAWGSLESORWM6GAP0CE", "dateTime": 1517971024098}, {"current_trial": 142, "trialdata": {"rt": -1000, "trial_type": "single-audio", "stimulus": "/static/audio/400Hz.wav", "internal_node_id": "0.0-106.0", "time_elapsed": 865439, "key_press": -1, "type": "PRE_RECALL_ALERT", "trial_index": 142}, "uniqueid": "MTK2516:34T446B1C1LOAWGSLESORWM6GAP0CE", "dateTime": 1517971024600}, {"current_trial": 143, "trialdata": {"rt": [1966, 3630, 5134, 6901, 9014, 10517, 12357, 14421, 19613, 23629, 25733, 30517], "recwords": ["fiddle", "flask", "perch", "church", "nurse", "pizza", "survey", "briefcase", "portrait", "hedge", "london", "breast"], "key_times": [758, 870, 1205, 1366, 1454, 1573, 1966, 2893, 3013, 3116, 3286, 3429, 3630, 4245, 4389, 4477, 4773, 4869, 5134, 5901, 6021, 6157, 6277, 6485, 6589, 6901, 8141, 8301, 8493, 8677, 8870, 9014, 9606, 9798, 10021, 10181, 10357, 10517, 11286, 11406, 11598, 11781, 11902, 12077, 12357, 12829, 13005, 13157, 13389, 13637, 13869, 13917, 14077, 14286, 14421, 16613, 16757, 17101, 17701, 18173, 18789, 18941, 19053, 19141, 19405, 19613, 22869, 23020, 23213, 23373, 23485, 23629, 24133, 24229, 24405, 24701, 25141, 25357, 25517, 25733, 29213, 29564, 29724, 29853, 30037, 30204, 30517], "trial_type": "free-recall", "conditions": [24, 800, "v", 12000], "internal_node_id": "0.0-107.0-0.0", "key_presses": [70, 73, 68, 68, 76, 69, 13, 70, 76, 65, 83, 75, 13, 80, 69, 82, 67, 72, 13, 67, 72, 85, 82, 67, 72, 13, 78, 85, 82, 83, 69, 13, 80, 73, 90, 90, 65, 13, 83, 85, 82, 86, 69, 89, 13, 66, 82, 73, 69, 70, 67, 65, 83, 69, 13, 80, 79, 82, 84, 8, 84, 82, 65, 73, 84, 13, 72, 69, 68, 71, 69, 13, 16, 76, 79, 78, 68, 79, 78, 13, 66, 82, 69, 65, 83, 84, 13], "trial": 3, "time_elapsed": 925445, "type": "FREE_RECALL", "trial_index": 143}, "uniqueid": "MTK2516:34T446B1C1LOAWGSLESORWM6GAP0CE", "dateTime": 1517971084609}, {"current_trial": 144, "trialdata": {"rt": 27395, "trial_type": "text", "internal_node_id": "0.0-108.0", "time_elapsed": 954850, "key_press": 13, "type": "INSTRUCTIONS", "trial_index": 144}, "uniqueid": "MTK2516:34T446B1C1LOAWGSLESORWM6GAP0CE", "dateTime": 1517971114011}, {"current_trial": 145, "trialdata": {"rt": [2259, 3819, 5643, 7939, 10235, 11778, 13474, 16587, 18026, 19283, 21522, 23267], "trial_type": "math-distractor", "key_times": [1803, 2099, 2259, 3467, 3627, 3819, 5331, 5491, 5643, 7619, 7795, 7939, 9788, 10083, 10235, 11522, 11691, 11778, 13154, 13315, 13474, 16355, 16587, 17515, 17819, 18026, 19115, 19283, 21099, 21290, 21522, 22770, 22988, 23267], "responses": ["14", "14", "14", "12", "22", "11", "14", "7", "16", "5", "19", "15"], "num2": [5, 5, 3, 1, 5, 3, 3, 4, 8, 3, 7, 5, 4], "num3": [5, 6, 2, 3, 9, 7, 6, 1, 2, 1, 5, 6, 2], "conditions": [24, 1600, "v", 24000], "internal_node_id": "0.0-109.0", "key_presses": [49, 52, 13, 49, 52, 13, 49, 52, 13, 49, 50, 13, 50, 50, 13, 49, 49, 13, 49, 52, 13, 55, 13, 49, 54, 13, 53, 13, 49, 57, 13, 49, 53, 13], "trial": 4, "time_elapsed": 980856, "type": "DISTRACTOR", "trial_index": 145, "num1": [4, 3, 9, 8, 8, 1, 5, 2, 6, 1, 7, 4, 3]}, "uniqueid": "MTK2516:34T446B1C1LOAWGSLESORWM6GAP0CE", "dateTime": 1517971140017}, {"current_trial": 146, "trialdata": {"rt": -1, "trial_type": "single-stim", "stimulus": "<p id=\"stim\">10</p>", "internal_node_id": "0.0-110.0-0.0", "time_elapsed": 983861, "key_press": -1, "trial_index": 146}, "uniqueid": "MTK2516:34T446B1C1LOAWGSLESORWM6GAP0CE", "dateTime": 1517971143022}, {"current_trial": 147, "trialdata": {"rt": -1, "trial_type": "single-stim", "stimulus": "<p id=\"stim\">9</p>", "internal_node_id": "0.0-110.0-1.0", "time_elapsed": 984865, "key_press": -1, "trial_index": 147}, "uniqueid": "MTK2516:34T446B1C1LOAWGSLESORWM6GAP0CE", "dateTime": 1517971144026}, {"current_trial": 148, "trialdata": {"rt": -1, "trial_type": "single-stim", "stimulus": "<p id=\"stim\">8</p>", "internal_node_id": "0.0-110.0-2.0", "time_elapsed": 985869, "key_press": -1, "trial_index": 148}, "uniqueid": "MTK2516:34T446B1C1LOAWGSLESORWM6GAP0CE", "dateTime": 1517971145030}, {"current_trial": 149, "trialdata": {"rt": -1, "trial_type": "single-stim", "stimulus": "<p id=\"stim\">7</p>", "internal_node_id": "0.0-110.0-3.0", "time_elapsed": 986874, "key_press": -1, "trial_index": 149}, "uniqueid": "MTK2516:34T446B1C1LOAWGSLESORWM6GAP0CE", "dateTime": 1517971146035}, {"current_trial": 150, "trialdata": {"rt": -1, "trial_type": "single-stim", "stimulus": "<p id=\"stim\">6</p>", "internal_node_id": "0.0-110.0-4.0", "time_elapsed": 987878, "key_press": -1, "trial_index": 150}, "uniqueid": "MTK2516:34T446B1C1LOAWGSLESORWM6GAP0CE", "dateTime": 1517971147039}, {"current_trial": 151, "trialdata": {"rt": -1, "trial_type": "single-stim", "stimulus": "<p id=\"stim\">5</p>", "internal_node_id": "0.0-110.0-5.0", "time_elapsed": 988881, "key_press": -1, "trial_index": 151}, "uniqueid": "MTK2516:34T446B1C1LOAWGSLESORWM6GAP0CE", "dateTime": 1517971148042}, {"current_trial": 152, "trialdata": {"rt": -1, "trial_type": "single-stim", "stimulus": "<p id=\"stim\">4</p>", "internal_node_id": "0.0-110.0-6.0", "time_elapsed": 989886, "key_press": -1, "trial_index": 152}, "uniqueid": "MTK2516:34T446B1C1LOAWGSLESORWM6GAP0CE", "dateTime": 1517971149047}, {"current_trial": 153, "trialdata": {"rt": -1, "trial_type": "single-stim", "stimulus": "<p id=\"stim\">3</p>", "internal_node_id": "0.0-110.0-7.0", "time_elapsed": 990890, "key_press": -1, "trial_index": 153}, "uniqueid": "MTK2516:34T446B1C1LOAWGSLESORWM6GAP0CE", "dateTime": 1517971150051}, {"current_trial": 154, "trialdata": {"rt": -1, "trial_type": "single-stim", "stimulus": "<p id=\"stim\">2</p>", "internal_node_id": "0.0-110.0-8.0", "time_elapsed": 991894, "key_press": -1, "trial_index": 154}, "uniqueid": "MTK2516:34T446B1C1LOAWGSLESORWM6GAP0CE", "dateTime": 1517971151055}, {"current_trial": 155, "trialdata": {"rt": -1, "trial_type": "single-stim", "stimulus": "<p id=\"stim\">1</p>", "internal_node_id": "0.0-110.0-9.0", "time_elapsed": 992900, "key_press": -1, "trial_index": 155}, "uniqueid": "MTK2516:34T446B1C1LOAWGSLESORWM6GAP0CE", "dateTime": 1517971152061}, {"current_trial": 156, "trialdata": {"rt": -1, "trial_type": "single-stim", "stimulus": "<p id=\"stim\">+</p>", "internal_node_id": "0.0-111.0-0.0", "time_elapsed": 994402, "key_press": -1, "type": "FIXATION", "trial_index": 156}, "uniqueid": "MTK2516:34T446B1C1LOAWGSLESORWM6GAP0CE", "dateTime": 1517971153563}, {"current_trial": 157, "trialdata": {"rt": -1, "trial_type": "single-stim", "word": "wrist", "stimulus": "<p id=\"stim\">WRIST</p>", "conditions": [24, 1600, "v", 24000], "internal_node_id": "0.0-112.0", "trial": 4, "time_elapsed": 996003, "serialpos": 0, "key_press": -1, "wordID": 1625, "type": "PRES_VIS", "trial_index": 157}, "uniqueid": "MTK2516:34T446B1C1LOAWGSLESORWM6GAP0CE", "dateTime": 1517971155164}, {"current_trial": 158, "trialdata": {"rt": -1, "trial_type": "single-stim", "word": "lake", "stimulus": "<p id=\"stim\">LAKE</p>", "conditions": [24, 1600, "v", 24000], "internal_node_id": "0.0-113.0", "trial": 4, "time_elapsed": 998527, "serialpos": 1, "key_press": -1, "wordID": 795, "type": "PRES_VIS", "trial_index": 158}, "uniqueid": "MTK2516:34T446B1C1LOAWGSLESORWM6GAP0CE", "dateTime": 1517971157688}, {"current_trial": 159, "trialdata": {"rt": -1, "trial_type": "single-stim", "word": "label", "stimulus": "<p id=\"stim\">LABEL</p>", "conditions": [24, 1600, "v", 24000], "internal_node_id": "0.0-114.0", "trial": 4, "time_elapsed": 1001029, "serialpos": 2, "key_press": -1, "wordID": 789, "type": "PRES_VIS", "trial_index": 159}, "uniqueid": "MTK2516:34T446B1C1LOAWGSLESORWM6GAP0CE", "dateTime": 1517971160190}, {"current_trial": 160, "trialdata": {"rt": -1, "trial_type": "single-stim", "word": "ankle", "stimulus": "<p id=\"stim\">ANKLE</p>", "conditions": [24, 1600, "v", 24000], "internal_node_id": "0.0-115.0", "trial": 4, "time_elapsed": 1003450, "serialpos": 3, "key_press": -1, "wordID": 23, "type": "PRES_VIS", "trial_index": 160}, "uniqueid": "MTK2516:34T446B1C1LOAWGSLESORWM6GAP0CE", "dateTime": 1517971162611}, {"current_trial": 161, "trialdata": {"rt": -1, "trial_type": "single-stim", "word": "knife", "stimulus": "<p id=\"stim\">KNIFE</p>", "conditions": [24, 1600, "v", 24000], "internal_node_id": "0.0-116.0", "trial": 4, "time_elapsed": 1006102, "serialpos": 4, "key_press": -1, "wordID": 784, "type": "PRES_VIS", "trial_index": 161}, "uniqueid": "MTK2516:34T446B1C1LOAWGSLESORWM6GAP0CE", "dateTime": 1517971165263}, {"current_trial": 162, "trialdata": {"rt": -1, "trial_type": "single-stim", "word": "pistol", "stimulus": "<p id=\"stim\">PISTOL</p>", "conditions": [24, 1600, "v", 24000], "internal_node_id": "0.0-117.0", "trial": 4, "time_elapsed": 1008800, "serialpos": 5, "key_press": -1, "wordID": 1074, "type": "PRES_VIS", "trial_index": 162}, "uniqueid": "MTK2516:34T446B1C1LOAWGSLESORWM6GAP0CE", "dateTime": 1517971167961}, {"current_trial": 163, "trialdata": {"rt": -1, "trial_type": "single-stim", "word": "bison", "stimulus": "<p id=\"stim\">BISON</p>", "conditions": [24, 1600, "v", 24000], "internal_node_id": "0.0-118.0", "trial": 4, "time_elapsed": 1011321, "serialpos": 6, "key_press": -1, "wordID": 130, "type": "PRES_VIS", "trial_index": 163}, "uniqueid": "MTK2516:34T446B1C1LOAWGSLESORWM6GAP0CE", "dateTime": 1517971170482}, {"current_trial": 164, "trialdata": {"rt": -1, "trial_type": "single-stim", "word": "powder", "stimulus": "<p id=\"stim\">POWDER</p>", "conditions": [24, 1600, "v", 24000], "internal_node_id": "0.0-119.0", "trial": 4, "time_elapsed": 1013796, "serialpos": 7, "key_press": -1, "wordID": 1116, "type": "PRES_VIS", "trial_index": 164}, "uniqueid": "MTK2516:34T446B1C1LOAWGSLESORWM6GAP0CE", "dateTime": 1517971172957}, {"current_trial": 165, "trialdata": {"rt": -1, "trial_type": "single-stim", "word": "sticker", "stimulus": "<p id=\"stim\">STICKER</p>", "conditions": [24, 1600, "v", 24000], "internal_node_id": "0.0-120.0", "trial": 4, "time_elapsed": 1016537, "serialpos": 8, "key_press": -1, "wordID": 1381, "type": "PRES_VIS", "trial_index": 165}, "uniqueid": "MTK2516:34T446B1C1LOAWGSLESORWM6GAP0CE", "dateTime": 1517971175699}, {"current_trial": 166, "trialdata": {"rt": -1, "trial_type": "single-stim", "word": "queen", "stimulus": "<p id=\"stim\">QUEEN</p>", "conditions": [24, 1600, "v", 24000], "internal_node_id": "0.0-121.0", "trial": 4, "time_elapsed": 1019218, "serialpos": 9, "key_press": -1, "wordID": 1148, "type": "PRES_VIS", "trial_index": 166}, "uniqueid": "MTK2516:34T446B1C1LOAWGSLESORWM6GAP0CE", "dateTime": 1517971178380}, {"current_trial": 167, "trialdata": {"rt": -1, "trial_type": "single-stim", "word": "wife", "stimulus": "<p id=\"stim\">WIFE</p>", "conditions": [24, 1600, "v", 24000], "internal_node_id": "0.0-122.0", "trial": 4, "time_elapsed": 1021917, "serialpos": 10, "key_press": -1, "wordID": 1608, "type": "PRES_VIS", "trial_index": 167}, "uniqueid": "MTK2516:34T446B1C1LOAWGSLESORWM6GAP0CE", "dateTime": 1517971181078}, {"current_trial": 168, "trialdata": {"rt": -1, "trial_type": "single-stim", "word": "butcher", "stimulus": "<p id=\"stim\">BUTCHER</p>", "conditions": [24, 1600, "v", 24000], "internal_node_id": "0.0-123.0", "trial": 4, "time_elapsed": 1024698, "serialpos": 11, "key_press": -1, "wordID": 202, "type": "PRES_VIS", "trial_index": 168}, "uniqueid": "MTK2516:34T446B1C1LOAWGSLESORWM6GAP0CE", "dateTime": 1517971183859}, {"current_trial": 169, "trialdata": {"rt": -1, "trial_type": "single-stim", "word": "candy", "stimulus": "<p id=\"stim\">CANDY</p>", "conditions": [24, 1600, "v", 24000], "internal_node_id": "0.0-124.0", "trial": 4, "time_elapsed": 1027436, "serialpos": 12, "key_press": -1, "wordID": 229, "type": "PRES_VIS", "trial_index": 169}, "uniqueid": "MTK2516:34T446B1C1LOAWGSLESORWM6GAP0CE", "dateTime": 1517971186597}, {"current_trial": 170, "trialdata": {"rt": -1, "trial_type": "single-stim", "word": "orchid", "stimulus": "<p id=\"stim\">ORCHID</p>", "conditions": [24, 1600, "v", 24000], "internal_node_id": "0.0-125.0", "trial": 4, "time_elapsed": 1030026, "serialpos": 13, "key_press": -1, "wordID": 981, "type": "PRES_VIS", "trial_index": 170}, "uniqueid": "MTK2516:34T446B1C1LOAWGSLESORWM6GAP0CE", "dateTime": 1517971189187}, {"current_trial": 171, "trialdata": {"rt": -1, "trial_type": "single-stim", "word": "table", "stimulus": "<p id=\"stim\">TABLE</p>", "conditions": [24, 1600, "v", 24000], "internal_node_id": "0.0-126.0", "trial": 4, "time_elapsed": 1032550, "serialpos": 14, "key_press": -1, "wordID": 1425, "type": "PRES_VIS", "trial_index": 171}, "uniqueid": "MTK2516:34T446B1C1LOAWGSLESORWM6GAP0CE", "dateTime": 1517971191712}, {"current_trial": 172, "trialdata": {"rt": -1, "trial_type": "single-stim", "word": "bug", "stimulus": "<p id=\"stim\">BUG</p>", "conditions": [24, 1600, "v", 24000], "internal_node_id": "0.0-127.0", "trial": 4, "time_elapsed": 1035353, "serialpos": 15, "key_press": -1, "wordID": 186, "type": "PRES_VIS", "trial_index": 172}, "uniqueid": "MTK2516:34T446B1C1LOAWGSLESORWM6GAP0CE", "dateTime": 1517971194514}, {"current_trial": 173, "trialdata": {"rt": -1, "trial_type": "single-stim", "word": "female", "stimulus": "<p id=\"stim\">FEMALE</p>", "conditions": [24, 1600, "v", 24000], "internal_node_id": "0.0-128.0", "trial": 4, "time_elapsed": 1037826, "serialpos": 16, "key_press": -1, "wordID": 558, "type": "PRES_VIS", "trial_index": 173}, "uniqueid": "MTK2516:34T446B1C1LOAWGSLESORWM6GAP0CE", "dateTime": 1517971196987}, {"current_trial": 174, "trialdata": {"rt": -1, "trial_type": "single-stim", "word": "flower", "stimulus": "<p id=\"stim\">FLOWER</p>", "conditions": [24, 1600, "v", 24000], "internal_node_id": "0.0-129.0", "trial": 4, "time_elapsed": 1040553, "serialpos": 17, "key_press": -1, "wordID": 583, "type": "PRES_VIS", "trial_index": 174}, "uniqueid": "MTK2516:34T446B1C1LOAWGSLESORWM6GAP0CE", "dateTime": 1517971199714}, {"current_trial": 175, "trialdata": {"rt": -1, "trial_type": "single-stim", "word": "clock", "stimulus": "<p id=\"stim\">CLOCK</p>", "conditions": [24, 1600, "v", 24000], "internal_node_id": "0.0-130.0", "trial": 4, "time_elapsed": 1043269, "serialpos": 18, "key_press": -1, "wordID": 324, "type": "PRES_VIS", "trial_index": 175}, "uniqueid": "MTK2516:34T446B1C1LOAWGSLESORWM6GAP0CE", "dateTime": 1517971202430}, {"current_trial": 176, "trialdata": {"rt": -1, "trial_type": "single-stim", "word": "cupboard", "stimulus": "<p id=\"stim\">CUPBOARD</p>", "conditions": [24, 1600, "v", 24000], "internal_node_id": "0.0-131.0", "trial": 4, "time_elapsed": 1045916, "serialpos": 19, "key_press": -1, "wordID": 424, "type": "PRES_VIS", "trial_index": 176}, "uniqueid": "MTK2516:34T446B1C1LOAWGSLESORWM6GAP0CE", "dateTime": 1517971205077}, {"current_trial": 177, "trialdata": {"rt": -1, "trial_type": "single-stim", "word": "kitchen", "stimulus": "<p id=\"stim\">KITCHEN</p>", "conditions": [24, 1600, "v", 24000], "internal_node_id": "0.0-132.0", "trial": 4, "time_elapsed": 1048417, "serialpos": 20, "key_press": -1, "wordID": 777, "type": "PRES_VIS", "trial_index": 177}, "uniqueid": "MTK2516:34T446B1C1LOAWGSLESORWM6GAP0CE", "dateTime": 1517971207578}, {"current_trial": 178, "trialdata": {"rt": -1, "trial_type": "single-stim", "word": "army", "stimulus": "<p id=\"stim\">ARMY</p>", "conditions": [24, 1600, "v", 24000], "internal_node_id": "0.0-133.0", "trial": 4, "time_elapsed": 1050867, "serialpos": 21, "key_press": -1, "wordID": 38, "type": "PRES_VIS", "trial_index": 178}, "uniqueid": "MTK2516:34T446B1C1LOAWGSLESORWM6GAP0CE", "dateTime": 1517971210028}, {"current_trial": 179, "trialdata": {"rt": -1, "trial_type": "single-stim", "word": "tribe", "stimulus": "<p id=\"stim\">TRIBE</p>", "conditions": [24, 1600, "v", 24000], "internal_node_id": "0.0-134.0", "trial": 4, "time_elapsed": 1053525, "serialpos": 22, "key_press": -1, "wordID": 1504, "type": "PRES_VIS", "trial_index": 179}, "uniqueid": "MTK2516:34T446B1C1LOAWGSLESORWM6GAP0CE", "dateTime": 1517971212686}, {"current_trial": 180, "trialdata": {"rt": -1, "trial_type": "single-stim", "word": "captive", "stimulus": "<p id=\"stim\">CAPTIVE</p>", "conditions": [24, 1600, "v", 24000], "internal_node_id": "0.0-135.0", "trial": 4, "time_elapsed": 1056124, "serialpos": 23, "key_press": -1, "wordID": 239, "type": "PRES_VIS", "trial_index": 180}, "uniqueid": "MTK2516:34T446B1C1LOAWGSLESORWM6GAP0CE", "dateTime": 1517971215286}, {"current_trial": 181, "trialdata": {"rt": -1, "trial_type": "single-stim", "stimulus": "", "internal_node_id": "0.0-136.0-0.0", "time_elapsed": 1058359, "key_press": -1, "type": "PRE_RECALL_DELAY", "trial_index": 181}, "uniqueid": "MTK2516:34T446B1C1LOAWGSLESORWM6GAP0CE", "dateTime": 1517971217521}, {"current_trial": 182, "trialdata": {"rt": -1000, "trial_type": "single-audio", "stimulus": "/static/audio/400Hz.wav", "internal_node_id": "0.0-137.0", "time_elapsed": 1058861, "key_press": -1, "type": "PRE_RECALL_ALERT", "trial_index": 182}, "uniqueid": "MTK2516:34T446B1C1LOAWGSLESORWM6GAP0CE", "dateTime": 1517971218023}, {"current_trial": 183, "trialdata": {"rt": [1191, 2535, 4222, 6175, 7086, 8502, 14397, 17117, 18750, 22749, 23814, 25061, 34237], "recwords": ["army", "tribe", "captive", "queen", "wife", "butcer", "bison", "knife", "pistol", "orchid", "candy", "table", "bee"], "key_times": [502, 630, 742, 960, 1191, 1440, 1647, 1903, 2103, 2215, 2535, 3046, 3239, 3327, 3526, 3671, 3903, 4031, 4222, 5367, 5503, 5623, 5791, 5911, 6175, 6495, 6631, 6830, 6928, 7086, 7478, 7638, 7814, 7935, 8134, 8271, 8502, 13685, 13813, 13942, 14029, 14197, 14397, 15061, 15221, 15629, 15741, 16213, 16373, 16742, 16885, 16966, 17117, 17421, 17693, 17829, 18037, 18301, 18525, 18750, 21653, 21869, 22069, 22205, 22373, 22613, 22749, 22989, 23101, 23253, 23429, 23565, 23814, 24340, 24508, 24636, 24821, 24933, 25061, 33430, 33749, 33853, 34237], "trial_type": "free-recall", "conditions": [24, 1600, "v", 24000], "internal_node_id": "0.0-138.0-0.0", "key_presses": [65, 82, 77, 89, 13, 84, 82, 73, 66, 69, 13, 67, 65, 80, 84, 73, 86, 69, 13, 81, 85, 69, 69, 78, 13, 87, 73, 70, 69, 13, 66, 85, 84, 67, 69, 82, 13, 66, 73, 83, 79, 78, 13, 75, 78, 70, 69, 8, 8, 73, 70, 69, 13, 80, 73, 83, 84, 79, 76, 13, 79, 82, 67, 72, 73, 68, 13, 67, 65, 78, 68, 89, 13, 84, 65, 66, 76, 69, 13, 66, 69, 69, 13], "trial": 4, "time_elapsed": 1118864, "type": "FREE_RECALL", "trial_index": 183}, "uniqueid": "MTK2516:34T446B1C1LOAWGSLESORWM6GAP0CE", "dateTime": 1517971278028}, {"current_trial": 184, "trialdata": {"rt": 88614, "trial_type": "text", "internal_node_id": "0.0-139.0", "time_elapsed": 1209487, "key_press": 13, "type": "INSTRUCTIONS", "trial_index": 184}, "uniqueid": "MTK2516:34T446B1C1LOAWGSLESORWM6GAP0CE", "dateTime": 1517971368648}, {"current_trial": 185, "trialdata": {"rt": [3221, 4941, 6732, 9117, 12469, 14853, 16261, 18524, 20501, 22172, 23652], "trial_type": "math-distractor", "key_times": [2885, 3045, 3221, 4645, 4789, 4941, 6294, 6525, 6732, 8550, 8773, 9117, 12181, 12285, 12469, 14285, 14732, 14853, 15725, 16005, 16261, 17588, 18005, 18253, 18524, 20213, 20397, 20501, 21500, 21908, 22172, 23277, 23405, 23652], "responses": ["11", "14", "15", "14", "21", "12", "18", "9", "11", "16", "10"], "num2": [4, 3, 9, 7, 7, 3, 9, 1, 5, 6, 7, 3], "num3": [4, 6, 1, 2, 6, 3, 1, 3, 3, 9, 2, 2], "conditions": [12, 800, "v", 24000], "internal_node_id": "0.0-140.0", "key_presses": [49, 49, 13, 49, 52, 13, 49, 53, 13, 49, 52, 13, 50, 49, 13, 49, 50, 13, 49, 56, 13, 49, 8, 57, 13, 49, 49, 13, 49, 54, 13, 49, 48, 13], "trial": 5, "time_elapsed": 1235493, "type": "DISTRACTOR", "trial_index": 185, "num1": [3, 5, 5, 5, 8, 6, 8, 5, 3, 1, 1, 2]}, "uniqueid": "MTK2516:34T446B1C1LOAWGSLESORWM6GAP0CE", "dateTime": 1517971394654}, {"current_trial": 186, "trialdata": {"rt": -1, "trial_type": "single-stim", "stimulus": "<p id=\"stim\">10</p>", "internal_node_id": "0.0-141.0-0.0", "time_elapsed": 1238498, "key_press": -1, "trial_index": 186}, "uniqueid": "MTK2516:34T446B1C1LOAWGSLESORWM6GAP0CE", "dateTime": 1517971397660}, {"current_trial": 187, "trialdata": {"rt": -1, "trial_type": "single-stim", "stimulus": "<p id=\"stim\">9</p>", "internal_node_id": "0.0-141.0-1.0", "time_elapsed": 1239503, "key_press": -1, "trial_index": 187}, "uniqueid": "MTK2516:34T446B1C1LOAWGSLESORWM6GAP0CE", "dateTime": 1517971398664}, {"current_trial": 188, "trialdata": {"rt": -1, "trial_type": "single-stim", "stimulus": "<p id=\"stim\">8</p>", "internal_node_id": "0.0-141.0-2.0", "time_elapsed": 1240507, "key_press": -1, "trial_index": 188}, "uniqueid": "MTK2516:34T446B1C1LOAWGSLESORWM6GAP0CE", "dateTime": 1517971399668}, {"current_trial": 189, "trialdata": {"rt": -1, "trial_type": "single-stim", "stimulus": "<p id=\"stim\">7</p>", "internal_node_id": "0.0-141.0-3.0", "time_elapsed": 1241511, "key_press": -1, "trial_index": 189}, "uniqueid": "MTK2516:34T446B1C1LOAWGSLESORWM6GAP0CE", "dateTime": 1517971400672}, {"current_trial": 190, "trialdata": {"rt": -1, "trial_type": "single-stim", "stimulus": "<p id=\"stim\">6</p>", "internal_node_id": "0.0-141.0-4.0", "time_elapsed": 1242515, "key_press": -1, "trial_index": 190}, "uniqueid": "MTK2516:34T446B1C1LOAWGSLESORWM6GAP0CE", "dateTime": 1517971401676}, {"current_trial": 191, "trialdata": {"rt": -1, "trial_type": "single-stim", "stimulus": "<p id=\"stim\">5</p>", "internal_node_id": "0.0-141.0-5.0", "time_elapsed": 1243519, "key_press": -1, "trial_index": 191}, "uniqueid": "MTK2516:34T446B1C1LOAWGSLESORWM6GAP0CE", "dateTime": 1517971402681}, {"current_trial": 192, "trialdata": {"rt": -1, "trial_type": "single-stim", "stimulus": "<p id=\"stim\">4</p>", "internal_node_id": "0.0-141.0-6.0", "time_elapsed": 1244523, "key_press": -1, "trial_index": 192}, "uniqueid": "MTK2516:34T446B1C1LOAWGSLESORWM6GAP0CE", "dateTime": 1517971403684}, {"current_trial": 193, "trialdata": {"rt": -1, "trial_type": "single-stim", "stimulus": "<p id=\"stim\">3</p>", "internal_node_id": "0.0-141.0-7.0", "time_elapsed": 1245527, "key_press": -1, "trial_index": 193}, "uniqueid": "MTK2516:34T446B1C1LOAWGSLESORWM6GAP0CE", "dateTime": 1517971404688}, {"current_trial": 194, "trialdata": {"rt": -1, "trial_type": "single-stim", "stimulus": "<p id=\"stim\">2</p>", "internal_node_id": "0.0-141.0-8.0", "time_elapsed": 1246531, "key_press": -1, "trial_index": 194}, "uniqueid": "MTK2516:34T446B1C1LOAWGSLESORWM6GAP0CE", "dateTime": 1517971405692}, {"current_trial": 195, "trialdata": {"rt": -1, "trial_type": "single-stim", "stimulus": "<p id=\"stim\">1</p>", "internal_node_id": "0.0-141.0-9.0", "time_elapsed": 1247536, "key_press": -1, "trial_index": 195}, "uniqueid": "MTK2516:34T446B1C1LOAWGSLESORWM6GAP0CE", "dateTime": 1517971406697}, {"current_trial": 196, "trialdata": {"rt": -1, "trial_type": "single-stim", "stimulus": "<p id=\"stim\">+</p>", "internal_node_id": "0.0-142.0-0.0", "time_elapsed": 1249038, "key_press": -1, "type": "FIXATION", "trial_index": 196}, "uniqueid": "MTK2516:34T446B1C1LOAWGSLESORWM6GAP0CE", "dateTime": 1517971408199}, {"current_trial": 197, "trialdata": {"rt": -1, "trial_type": "single-stim", "word": "handbag", "stimulus": "<p id=\"stim\">HANDBAG</p>", "conditions": [12, 800, "v", 24000], "internal_node_id": "0.0-143.0", "trial": 5, "time_elapsed": 1249845, "serialpos": 0, "key_press": -1, "wordID": 683, "type": "PRES_VIS", "trial_index": 197}, "uniqueid": "MTK2516:34T446B1C1LOAWGSLESORWM6GAP0CE", "dateTime": 1517971409006}, {"current_trial": 198, "trialdata": {"rt": -1, "trial_type": "single-stim", "word": "shovel", "stimulus": "<p id=\"stim\">SHOVEL</p>", "conditions": [12, 800, "v", 24000], "internal_node_id": "0.0-144.0", "trial": 5, "time_elapsed": 1251645, "serialpos": 1, "key_press": -1, "wordID": 1294, "type": "PRES_VIS", "trial_index": 198}, "uniqueid": "MTK2516:34T446B1C1LOAWGSLESORWM6GAP0CE", "dateTime": 1517971410806}, {"current_trial": 199, "trialdata": {"rt": -1, "trial_type": "single-stim", "word": "permit", "stimulus": "<p id=\"stim\">PERMIT</p>", "conditions": [12, 800, "v", 24000], "internal_node_id": "0.0-145.0", "trial": 5, "time_elapsed": 1253409, "serialpos": 2, "key_press": -1, "wordID": 1050, "type": "PRES_VIS", "trial_index": 199}, "uniqueid": "MTK2516:34T446B1C1LOAWGSLESORWM6GAP0CE", "dateTime": 1517971412570}, {"current_trial": 200, "trialdata": {"rt": -1, "trial_type": "single-stim", "word": "crown", "stimulus": "<p id=\"stim\">CROWN</p>", "conditions": [12, 800, "v", 24000], "internal_node_id": "0.0-146.0", "trial": 5, "time_elapsed": 1255196, "serialpos": 3, "key_press": -1, "wordID": 414, "type": "PRES_VIS", "trial_index": 200}, "uniqueid": "MTK2516:34T446B1C1LOAWGSLESORWM6GAP0CE", "dateTime": 1517971414357}, {"current_trial": 201, "trialdata": {"rt": -1, "trial_type": "single-stim", "word": "empire", "stimulus": "<p id=\"stim\">EMPIRE</p>", "conditions": [12, 800, "v", 24000], "internal_node_id": "0.0-147.0", "trial": 5, "time_elapsed": 1257106, "serialpos": 4, "key_press": -1, "wordID": 529, "type": "PRES_VIS", "trial_index": 201}, "uniqueid": "MTK2516:34T446B1C1LOAWGSLESORWM6GAP0CE", "dateTime": 1517971416267}, {"current_trial": 202, "trialdata": {"rt": -1, "trial_type": "single-stim", "word": "popcorn", "stimulus": "<p id=\"stim\">POPCORN</p>", "conditions": [12, 800, "v", 24000], "internal_node_id": "0.0-148.0", "trial": 5, "time_elapsed": 1259039, "serialpos": 5, "key_press": -1, "wordID": 1103, "type": "PRES_VIS", "trial_index": 202}, "uniqueid": "MTK2516:34T446B1C1LOAWGSLESORWM6GAP0CE", "dateTime": 1517971418200}, {"current_trial": 203, "trialdata": {"rt": -1, "trial_type": "single-stim", "word": "tweezers", "stimulus": "<p id=\"stim\">TWEEZERS</p>", "conditions": [12, 800, "v", 24000], "internal_node_id": "0.0-149.0", "trial": 5, "time_elapsed": 1260785, "serialpos": 6, "key_press": -1, "wordID": 1525, "type": "PRES_VIS", "trial_index": 203}, "uniqueid": "MTK2516:34T446B1C1LOAWGSLESORWM6GAP0CE", "dateTime": 1517971419946}, {"current_trial": 204, "trialdata": {"rt": -1, "trial_type": "single-stim", "word": "panther", "stimulus": "<p id=\"stim\">PANTHER</p>", "conditions": [12, 800, "v", 24000], "internal_node_id": "0.0-150.0", "trial": 5, "time_elapsed": 1262684, "serialpos": 7, "key_press": -1, "wordID": 1008, "type": "PRES_VIS", "trial_index": 204}, "uniqueid": "MTK2516:34T446B1C1LOAWGSLESORWM6GAP0CE", "dateTime": 1517971421845}, {"current_trial": 205, "trialdata": {"rt": -1, "trial_type": "single-stim", "word": "possum", "stimulus": "<p id=\"stim\">POSSUM</p>", "conditions": [12, 800, "v", 24000], "internal_node_id": "0.0-151.0", "trial": 5, "time_elapsed": 1264332, "serialpos": 8, "key_press": -1, "wordID": 1111, "type": "PRES_VIS", "trial_index": 205}, "uniqueid": "MTK2516:34T446B1C1LOAWGSLESORWM6GAP0CE", "dateTime": 1517971423493}, {"current_trial": 206, "trialdata": {"rt": -1, "trial_type": "single-stim", "word": "hood", "stimulus": "<p id=\"stim\">HOOD</p>", "conditions": [12, 800, "v", 24000], "internal_node_id": "0.0-152.0", "trial": 5, "time_elapsed": 1266108, "serialpos": 9, "key_press": -1, "wordID": 713, "type": "PRES_VIS", "trial_index": 206}, "uniqueid": "MTK2516:34T446B1C1LOAWGSLESORWM6GAP0CE", "dateTime": 1517971425269}, {"current_trial": 207, "trialdata": {"rt": -1, "trial_type": "single-stim", "word": "suitcase", "stimulus": "<p id=\"stim\">SUITCASE</p>", "conditions": [12, 800, "v", 24000], "internal_node_id": "0.0-153.0", "trial": 5, "time_elapsed": 1267918, "serialpos": 10, "key_press": -1, "wordID": 1402, "type": "PRES_VIS", "trial_index": 207}, "uniqueid": "MTK2516:34T446B1C1LOAWGSLESORWM6GAP0CE", "dateTime": 1517971427080}, {"current_trial": 208, "trialdata": {"rt": -1, "trial_type": "single-stim", "word": "pastry", "stimulus": "<p id=\"stim\">PASTRY</p>", "conditions": [12, 800, "v", 24000], "internal_node_id": "0.0-154.0", "trial": 5, "time_elapsed": 1269857, "serialpos": 11, "key_press": -1, "wordID": 1021, "type": "PRES_VIS", "trial_index": 208}, "uniqueid": "MTK2516:34T446B1C1LOAWGSLESORWM6GAP0CE", "dateTime": 1517971429018}, {"current_trial": 209, "trialdata": {"rt": -1, "trial_type": "single-stim", "stimulus": "", "internal_node_id": "0.0-155.0-0.0", "time_elapsed": 1271952, "key_press": -1, "type": "PRE_RECALL_DELAY", "trial_index": 209}, "uniqueid": "MTK2516:34T446B1C1LOAWGSLESORWM6GAP0CE", "dateTime": 1517971431113}, {"current_trial": 210, "trialdata": {"rt": -1000, "trial_type": "single-audio", "stimulus": "/static/audio/400Hz.wav", "internal_node_id": "0.0-156.0", "time_elapsed": 1272454, "key_press": -1, "type": "PRE_RECALL_ALERT", "trial_index": 210}, "uniqueid": "MTK2516:34T446B1C1LOAWGSLESORWM6GAP0CE", "dateTime": 1517971431615}, {"current_trial": 211, "trialdata": {"rt": [1457, 3168, 5080, 7688, 23075, 24779], "recwords": ["hood", "suitcase", "pastry", "tweezers", "crown", "popcorn"], "key_times": [745, 967, 1112, 1256, 1457, 1856, 1959, 2088, 2304, 2480, 2608, 2800, 3008, 3168, 4135, 4208, 4328, 4480, 4648, 4792, 5080, 5392, 5664, 5983, 6416, 6807, 7040, 7152, 7400, 7688, 22252, 22443, 22579, 22700, 22851, 23075, 23459, 23636, 23812, 24108, 24268, 24403, 24547, 24779], "trial_type": "free-recall", "conditions": [12, 800, "v", 24000], "internal_node_id": "0.0-157.0-0.0", "key_presses": [72, 79, 79, 68, 13, 83, 85, 73, 84, 67, 65, 83, 69, 13, 80, 65, 83, 84, 82, 89, 13, 84, 87, 69, 69, 90, 69, 82, 83, 13, 67, 82, 79, 87, 78, 13, 80, 79, 80, 67, 79, 82, 78, 13], "trial": 5, "time_elapsed": 1332459, "type": "FREE_RECALL", "trial_index": 211}, "uniqueid": "MTK2516:34T446B1C1LOAWGSLESORWM6GAP0CE", "dateTime": 1517971491623}, {"current_trial": 212, "trialdata": {"rt": 1054, "trial_type": "text", "internal_node_id": "0.0-158.0", "time_elapsed": 1335520, "key_press": 75, "type": "INSTRUCTIONS", "trial_index": 212}, "uniqueid": "MTK2516:34T446B1C1LOAWGSLESORWM6GAP0CE", "dateTime": 1517971494681}, {"current_trial": 213, "trialdata": {"rt": [1738, 3674, 5570, 7274, 8825, 10410, 11738], "trial_type": "math-distractor", "key_times": [1458, 1522, 1738, 3362, 3442, 3674, 5226, 5378, 5570, 6938, 7057, 7274, 8538, 8610, 8825, 10138, 10306, 10410, 11410, 11498, 11738], "responses": ["15", "20", "14", "15", "16", "11", "10"], "num2": [6, 5, 1, 6, 9, 7, 2, 5], "num3": [3, 6, 6, 5, 2, 1, 1, 6], "conditions": [24, 800, "v", 12000], "internal_node_id": "0.0-159.0", "key_presses": [49, 53, 13, 50, 48, 13, 49, 52, 13, 49, 53, 13, 49, 54, 13, 49, 49, 13, 49, 48, 13], "trial": 6, "time_elapsed": 1349526, "type": "DISTRACTOR", "trial_index": 213, "num1": [6, 9, 7, 4, 5, 3, 7, 3]}, "uniqueid": "MTK2516:34T446B1C1LOAWGSLESORWM6GAP0CE", "dateTime": 1517971508687}, {"current_trial": 214, "trialdata": {"rt": -1, "trial_type": "single-stim", "stimulus": "<p id=\"stim\">10</p>", "internal_node_id": "0.0-160.0-0.0", "time_elapsed": 1352533, "key_press": -1, "trial_index": 214}, "uniqueid": "MTK2516:34T446B1C1LOAWGSLESORWM6GAP0CE", "dateTime": 1517971511694}, {"current_trial": 215, "trialdata": {"rt": -1, "trial_type": "single-stim", "stimulus": "<p id=\"stim\">9</p>", "internal_node_id": "0.0-160.0-1.0", "time_elapsed": 1353537, "key_press": -1, "trial_index": 215}, "uniqueid": "MTK2516:34T446B1C1LOAWGSLESORWM6GAP0CE", "dateTime": 1517971512698}, {"current_trial": 216, "trialdata": {"rt": -1, "trial_type": "single-stim", "stimulus": "<p id=\"stim\">8</p>", "internal_node_id": "0.0-160.0-2.0", "time_elapsed": 1354541, "key_press": -1, "trial_index": 216}, "uniqueid": "MTK2516:34T446B1C1LOAWGSLESORWM6GAP0CE", "dateTime": 1517971513702}, {"current_trial": 217, "trialdata": {"rt": -1, "trial_type": "single-stim", "stimulus": "<p id=\"stim\">7</p>", "internal_node_id": "0.0-160.0-3.0", "time_elapsed": 1355545, "key_press": -1, "trial_index": 217}, "uniqueid": "MTK2516:34T446B1C1LOAWGSLESORWM6GAP0CE", "dateTime": 1517971514706}, {"current_trial": 218, "trialdata": {"rt": -1, "trial_type": "single-stim", "stimulus": "<p id=\"stim\">6</p>", "internal_node_id": "0.0-160.0-4.0", "time_elapsed": 1356549, "key_press": -1, "trial_index": 218}, "uniqueid": "MTK2516:34T446B1C1LOAWGSLESORWM6GAP0CE", "dateTime": 1517971515710}, {"current_trial": 219, "trialdata": {"rt": -1, "trial_type": "single-stim", "stimulus": "<p id=\"stim\">5</p>", "internal_node_id": "0.0-160.0-5.0", "time_elapsed": 1357553, "key_press": -1, "trial_index": 219}, "uniqueid": "MTK2516:34T446B1C1LOAWGSLESORWM6GAP0CE", "dateTime": 1517971516714}, {"current_trial": 220, "trialdata": {"rt": -1, "trial_type": "single-stim", "stimulus": "<p id=\"stim\">4</p>", "internal_node_id": "0.0-160.0-6.0", "time_elapsed": 1358557, "key_press": -1, "trial_index": 220}, "uniqueid": "MTK2516:34T446B1C1LOAWGSLESORWM6GAP0CE", "dateTime": 1517971517718}, {"current_trial": 221, "trialdata": {"rt": -1, "trial_type": "single-stim", "stimulus": "<p id=\"stim\">3</p>", "internal_node_id": "0.0-160.0-7.0", "time_elapsed": 1359561, "key_press": -1, "trial_index": 221}, "uniqueid": "MTK2516:34T446B1C1LOAWGSLESORWM6GAP0CE", "dateTime": 1517971518722}, {"current_trial": 222, "trialdata": {"rt": -1, "trial_type": "single-stim", "stimulus": "<p id=\"stim\">2</p>", "internal_node_id": "0.0-160.0-8.0", "time_elapsed": 1360565, "key_press": -1, "trial_index": 222}, "uniqueid": "MTK2516:34T446B1C1LOAWGSLESORWM6GAP0CE", "dateTime": 1517971519726}, {"current_trial": 223, "trialdata": {"rt": -1, "trial_type": "single-stim", "stimulus": "<p id=\"stim\">1</p>", "internal_node_id": "0.0-160.0-9.0", "time_elapsed": 1361569, "key_press": -1, "trial_index": 223}, "uniqueid": "MTK2516:34T446B1C1LOAWGSLESORWM6GAP0CE", "dateTime": 1517971520730}, {"current_trial": 224, "trialdata": {"rt": -1, "trial_type": "single-stim", "stimulus": "<p id=\"stim\">+</p>", "internal_node_id": "0.0-161.0-0.0", "time_elapsed": 1363073, "key_press": -1, "type": "FIXATION", "trial_index": 224}, "uniqueid": "MTK2516:34T446B1C1LOAWGSLESORWM6GAP0CE", "dateTime": 1517971522234}, {"current_trial": 225, "trialdata": {"rt": -1, "trial_type": "single-stim", "word": "robin", "stimulus": "<p id=\"stim\">ROBIN</p>", "conditions": [24, 800, "v", 12000], "internal_node_id": "0.0-162.0", "trial": 6, "time_elapsed": 1363879, "serialpos": 0, "key_press": -1, "wordID": 1198, "type": "PRES_VIS", "trial_index": 225}, "uniqueid": "MTK2516:34T446B1C1LOAWGSLESORWM6GAP0CE", "dateTime": 1517971523040}, {"current_trial": 226, "trialdata": {"rt": -1, "trial_type": "single-stim", "word": "sister", "stimulus": "<p id=\"stim\">SISTER</p>", "conditions": [24, 800, "v", 12000], "internal_node_id": "0.0-163.0", "trial": 6, "time_elapsed": 1365864, "serialpos": 1, "key_press": -1, "wordID": 1311, "type": "PRES_VIS", "trial_index": 226}, "uniqueid": "MTK2516:34T446B1C1LOAWGSLESORWM6GAP0CE", "dateTime": 1517971525026}, {"current_trial": 227, "trialdata": {"rt": -1, "trial_type": "single-stim", "word": "salad", "stimulus": "<p id=\"stim\">SALAD</p>", "conditions": [24, 800, "v", 12000], "internal_node_id": "0.0-164.0", "trial": 6, "time_elapsed": 1367756, "serialpos": 2, "key_press": -1, "wordID": 1223, "type": "PRES_VIS", "trial_index": 227}, "uniqueid": "MTK2516:34T446B1C1LOAWGSLESORWM6GAP0CE", "dateTime": 1517971526917}, {"current_trial": 228, "trialdata": {"rt": -1, "trial_type": "single-stim", "word": "motor", "stimulus": "<p id=\"stim\">MOTOR</p>", "conditions": [24, 800, "v", 12000], "internal_node_id": "0.0-165.0", "trial": 6, "time_elapsed": 1369729, "serialpos": 3, "key_press": -1, "wordID": 921, "type": "PRES_VIS", "trial_index": 228}, "uniqueid": "MTK2516:34T446B1C1LOAWGSLESORWM6GAP0CE", "dateTime": 1517971528890}, {"current_trial": 229, "trialdata": {"rt": -1, "trial_type": "single-stim", "word": "cocktail", "stimulus": "<p id=\"stim\">COCKTAIL</p>", "conditions": [24, 800, "v", 12000], "internal_node_id": "0.0-166.0", "trial": 6, "time_elapsed": 1371435, "serialpos": 4, "key_press": -1, "wordID": 337, "type": "PRES_VIS", "trial_index": 229}, "uniqueid": "MTK2516:34T446B1C1LOAWGSLESORWM6GAP0CE", "dateTime": 1517971530597}, {"current_trial": 230, "trialdata": {"rt": -1, "trial_type": "single-stim", "word": "snack", "stimulus": "<p id=\"stim\">SNACK</p>", "conditions": [24, 800, "v", 12000], "internal_node_id": "0.0-167.0", "trial": 6, "time_elapsed": 1373363, "serialpos": 5, "key_press": -1, "wordID": 1330, "type": "PRES_VIS", "trial_index": 230}, "uniqueid": "MTK2516:34T446B1C1LOAWGSLESORWM6GAP0CE", "dateTime": 1517971532524}, {"current_trial": 231, "trialdata": {"rt": -1, "trial_type": "single-stim", "word": "saddle", "stimulus": "<p id=\"stim\">SADDLE</p>", "conditions": [24, 800, "v", 12000], "internal_node_id": "0.0-168.0", "trial": 6, "time_elapsed": 1375301, "serialpos": 6, "key_press": -1, "wordID": 1220, "type": "PRES_VIS", "trial_index": 231}, "uniqueid": "MTK2516:34T446B1C1LOAWGSLESORWM6GAP0CE", "dateTime": 1517971534462}, {"current_trial": 232, "trialdata": {"rt": -1, "trial_type": "single-stim", "word": "headband", "stimulus": "<p id=\"stim\">HEADBAND</p>", "conditions": [24, 800, "v", 12000], "internal_node_id": "0.0-169.0", "trial": 6, "time_elapsed": 1377280, "serialpos": 7, "key_press": -1, "wordID": 695, "type": "PRES_VIS", "trial_index": 232}, "uniqueid": "MTK2516:34T446B1C1LOAWGSLESORWM6GAP0CE", "dateTime": 1517971536441}, {"current_trial": 233, "trialdata": {"rt": -1, "trial_type": "single-stim", "word": "oyster", "stimulus": "<p id=\"stim\">OYSTER</p>", "conditions": [24, 800, "v", 12000], "internal_node_id": "0.0-170.0", "trial": 6, "time_elapsed": 1379265, "serialpos": 8, "key_press": -1, "wordID": 994, "type": "PRES_VIS", "trial_index": 233}, "uniqueid": "MTK2516:34T446B1C1LOAWGSLESORWM6GAP0CE", "dateTime": 1517971538426}, {"current_trial": 234, "trialdata": {"rt": -1, "trial_type": "single-stim", "word": "salmon", "stimulus": "<p id=\"stim\">SALMON</p>", "conditions": [24, 800, "v", 12000], "internal_node_id": "0.0-171.0", "trial": 6, "time_elapsed": 1381110, "serialpos": 9, "key_press": -1, "wordID": 1226, "type": "PRES_VIS", "trial_index": 234}, "uniqueid": "MTK2516:34T446B1C1LOAWGSLESORWM6GAP0CE", "dateTime": 1517971540271}, {"current_trial": 235, "trialdata": {"rt": -1, "trial_type": "single-stim", "word": "racket", "stimulus": "<p id=\"stim\">RACKET</p>", "conditions": [24, 800, "v", 12000], "internal_node_id": "0.0-172.0", "trial": 6, "time_elapsed": 1383073, "serialpos": 10, "key_press": -1, "wordID": 1154, "type": "PRES_VIS", "trial_index": 235}, "uniqueid": "MTK2516:34T446B1C1LOAWGSLESORWM6GAP0CE", "dateTime": 1517971542234}, {"current_trial": 236, "trialdata": {"rt": -1, "trial_type": "single-stim", "word": "basement", "stimulus": "<p id=\"stim\">BASEMENT</p>", "conditions": [24, 800, "v", 12000], "internal_node_id": "0.0-173.0", "trial": 6, "time_elapsed": 1384994, "serialpos": 11, "key_press": -1, "wordID": 93, "type": "PRES_VIS", "trial_index": 236}, "uniqueid": "MTK2516:34T446B1C1LOAWGSLESORWM6GAP0CE", "dateTime": 1517971544155}, {"current_trial": 237, "trialdata": {"rt": -1, "trial_type": "single-stim", "word": "subway", "stimulus": "<p id=\"stim\">SUBWAY</p>", "conditions": [24, 800, "v", 12000], "internal_node_id": "0.0-174.0", "trial": 6, "time_elapsed": 1386886, "serialpos": 12, "key_press": -1, "wordID": 1399, "type": "PRES_VIS", "trial_index": 237}, "uniqueid": "MTK2516:34T446B1C1LOAWGSLESORWM6GAP0CE", "dateTime": 1517971546047}, {"current_trial": 238, "trialdata": {"rt": -1, "trial_type": "single-stim", "word": "fruit", "stimulus": "<p id=\"stim\">FRUIT</p>", "conditions": [24, 800, "v", 12000], "internal_node_id": "0.0-175.0", "trial": 6, "time_elapsed": 1388522, "serialpos": 13, "key_press": -1, "wordID": 609, "type": "PRES_VIS", "trial_index": 238}, "uniqueid": "MTK2516:34T446B1C1LOAWGSLESORWM6GAP0CE", "dateTime": 1517971547683}, {"current_trial": 239, "trialdata": {"rt": -1, "trial_type": "single-stim", "word": "honey", "stimulus": "<p id=\"stim\">HONEY</p>", "conditions": [24, 800, "v", 12000], "internal_node_id": "0.0-176.0", "trial": 6, "time_elapsed": 1390252, "serialpos": 14, "key_press": -1, "wordID": 712, "type": "PRES_VIS", "trial_index": 239}, "uniqueid": "MTK2516:34T446B1C1LOAWGSLESORWM6GAP0CE", "dateTime": 1517971549413}, {"current_trial": 240, "trialdata": {"rt": -1, "trial_type": "single-stim", "word": "mailbox", "stimulus": "<p id=\"stim\">MAILBOX</p>", "conditions": [24, 800, "v", 12000], "internal_node_id": "0.0-177.0", "trial": 6, "time_elapsed": 1392231, "serialpos": 15, "key_press": -1, "wordID": 856, "type": "PRES_VIS", "trial_index": 240}, "uniqueid": "MTK2516:34T446B1C1LOAWGSLESORWM6GAP0CE", "dateTime": 1517971551392}, {"current_trial": 241, "trialdata": {"rt": -1, "trial_type": "single-stim", "word": "mailman", "stimulus": "<p id=\"stim\">MAILMAN</p>", "conditions": [24, 800, "v", 12000], "internal_node_id": "0.0-178.0", "trial": 6, "time_elapsed": 1394135, "serialpos": 16, "key_press": -1, "wordID": 857, "type": "PRES_VIS", "trial_index": 241}, "uniqueid": "MTK2516:34T446B1C1LOAWGSLESORWM6GAP0CE", "dateTime": 1517971553296}, {"current_trial": 242, "trialdata": {"rt": -1, "trial_type": "single-stim", "word": "daughter", "stimulus": "<p id=\"stim\">DAUGHTER</p>", "conditions": [24, 800, "v", 12000], "internal_node_id": "0.0-179.0", "trial": 6, "time_elapsed": 1395939, "serialpos": 17, "key_press": -1, "wordID": 441, "type": "PRES_VIS", "trial_index": 242}, "uniqueid": "MTK2516:34T446B1C1LOAWGSLESORWM6GAP0CE", "dateTime": 1517971555100}, {"current_trial": 243, "trialdata": {"rt": -1, "trial_type": "single-stim", "word": "balloon", "stimulus": "<p id=\"stim\">BALLOON</p>", "conditions": [24, 800, "v", 12000], "internal_node_id": "0.0-180.0", "trial": 6, "time_elapsed": 1397634, "serialpos": 18, "key_press": -1, "wordID": 74, "type": "PRES_VIS", "trial_index": 243}, "uniqueid": "MTK2516:34T446B1C1LOAWGSLESORWM6GAP0CE", "dateTime": 1517971556796}, {"current_trial": 244, "trialdata": {"rt": -1, "trial_type": "single-stim", "word": "canyon", "stimulus": "<p id=\"stim\">CANYON</p>", "conditions": [24, 800, "v", 12000], "internal_node_id": "0.0-181.0", "trial": 6, "time_elapsed": 1399306, "serialpos": 19, "key_press": -1, "wordID": 234, "type": "PRES_VIS", "trial_index": 244}, "uniqueid": "MTK2516:34T446B1C1LOAWGSLESORWM6GAP0CE", "dateTime": 1517971558467}, {"current_trial": 245, "trialdata": {"rt": -1, "trial_type": "single-stim", "word": "leopard", "stimulus": "<p id=\"stim\">LEOPARD</p>", "conditions": [24, 800, "v", 12000], "internal_node_id": "0.0-182.0", "trial": 6, "time_elapsed": 1401111, "serialpos": 20, "key_press": -1, "wordID": 811, "type": "PRES_VIS", "trial_index": 245}, "uniqueid": "MTK2516:34T446B1C1LOAWGSLESORWM6GAP0CE", "dateTime": 1517971560272}, {"current_trial": 246, "trialdata": {"rt": -1, "trial_type": "single-stim", "word": "husband", "stimulus": "<p id=\"stim\">HUSBAND</p>", "conditions": [24, 800, "v", 12000], "internal_node_id": "0.0-183.0", "trial": 6, "time_elapsed": 1402909, "serialpos": 21, "key_press": -1, "wordID": 727, 