{"assignmentId": "37WLF8U1WQX175EVFGP3OG95X5B6KQ", "workerId": "MTK2050", "questiondata": {"origin": "United States", "strat-rehearsal": "45", "marital": "Married/Domestic Partnership", "education": "High school diploma", "ethnicity": "Not Hispanic", "color_depth": 24, "distracted": "No", "wrote-notes": "No", "strat-other": "i tried to rhyme the words in my head in a song at one point, then i tried to stack the words on top of each other.", "screen_width": 1280, "avail_screen_width": 1280, "avail_screen_height": 723, "strat-image": "10", "language": "english", "gender": "Male", "age": "22", "gender_other": "", "race": ["Black"], "strat-categorize": "98", "pixel_depth": 24, "strat-spatial": "81", "strat-story": "70", "race_other": "", "screen_height": 800}, "bonus": 0, "hitId": "3VADEH0UHC45IABE9JSCWIVCRO7PS0", "counterbalance": 624, "useragent": "Mozilla/5.0 (Macintosh; Intel Mac OS X 10_13_2) AppleWebKit/537.36 (KHTML, like Gecko) Chrome/63.0.3239.132 Safari/537.36", "eventdata": [{"eventtype": "initialized", "interval": 0, "value": null, "timestamp": 1516659100387}, {"eventtype": "window_resize", "interval": 0, "value": [1280, 672], "timestamp": 1516659100387}, {"eventtype": "focus", "interval": 1787071, "value": "off", "timestamp": 1516660887458}, {"eventtype": "focus", "interval": 5197, "value": "on", "timestamp": 1516660892655}, {"eventtype": "focus", "interval": 135112, "value": "off", "timestamp": 1516661027767}, {"eventtype": "focus", "interval": 3144, "value": "on", "timestamp": 1516661030911}, {"eventtype": "focus", "interval": 3924, "value": "off", "timestamp": 1516661034835}, {"eventtype": "focus", "interval": 13018, "value": "on", "timestamp": 1516661047853}, {"eventtype": "focus", "interval": 130656, "value": "off", "timestamp": 1516661178509}, {"eventtype": "focus", "interval": 11611, "value": "on", "timestamp": 1516661190120}], "data": [{"current_trial": 0, "trialdata": {"rt": 1928, "trial_type": "text", "internal_node_id": "0.0-0.0", "time_elapsed": 1931, "key_press": 32, "type": "INSTRUCTIONS", "trial_index": 0}, "uniqueid": "MTK2050:37WLF8U1WQX175EVFGP3OG95X5B6KQ", "dateTime": 1516659102818}, {"current_trial": 1, "trialdata": {"rt": 20608, "trial_type": "text", "internal_node_id": "0.0-1.0", "time_elapsed": 22542, "key_press": 32, "type": "INSTRUCTIONS", "trial_index": 1}, "uniqueid": "MTK2050:37WLF8U1WQX175EVFGP3OG95X5B6KQ", "dateTime": 1516659123428}, {"current_trial": 2, "trialdata": {"rt": [6180], "trial_type": "audio-test", "responses": ["ocean"], "internal_node_id": "0.0-2.0", "time_elapsed": 28734, "type": "AUDIO_TEST", "trial_index": 2}, "uniqueid": "MTK2050:37WLF8U1WQX175EVFGP3OG95X5B6KQ", "dateTime": 1516659129620}, {"current_trial": 3, "trialdata": {"rt": [6097], "trial_type": "audio-test", "responses": ["crystal"], "internal_node_id": "0.0-3.0", "time_elapsed": 34837, "type": "AUDIO_TEST", "trial_index": 3}, "uniqueid": "MTK2050:37WLF8U1WQX175EVFGP3OG95X5B6KQ", "dateTime": 1516659135723}, {"current_trial": 4, "trialdata": {"rt": [5442], "trial_type": "audio-test", "responses": ["spice"], "internal_node_id": "0.0-4.0", "time_elapsed": 40284, "type": "AUDIO_TEST", "trial_index": 4}, "uniqueid": "MTK2050:37WLF8U1WQX175EVFGP3OG95X5B6KQ", "dateTime": 1516659141170}, {"current_trial": 5, "trialdata": {"rt": 20491, "trial_type": "survey-text", "responses": "{\"Q0\":\"6AM\",\"Q1\":\"4PM\",\"Q2\":\"5\"}", "internal_node_id": "0.0-5.0", "time_elapsed": 61528, "type": "SLEEP_SURVEY", "trial_index": 5}, "uniqueid": "MTK2050:37WLF8U1WQX175EVFGP3OG95X5B6KQ", "dateTime": 1516659162414}, {"current_trial": 6, "trialdata": {"rt": 54478, "trial_type": "text", "internal_node_id": "0.0-6.0", "time_elapsed": 117008, "key_press": 32, "type": "INSTRUCTIONS", "trial_index": 6}, "uniqueid": "MTK2050:37WLF8U1WQX175EVFGP3OG95X5B6KQ", "dateTime": 1516659217894}, {"current_trial": 7, "trialdata": {"rt": 21657, "trial_type": "text", "internal_node_id": "0.0-7.0", "time_elapsed": 139167, "key_press": 32, "type": "INSTRUCTIONS", "trial_index": 7}, "uniqueid": "MTK2050:37WLF8U1WQX175EVFGP3OG95X5B6KQ", "dateTime": 1516659240053}, {"current_trial": 8, "trialdata": {"rt": 14034, "trial_type": "text", "internal_node_id": "0.0-8.0", "time_elapsed": 153703, "key_press": 32, "type": "INSTRUCTIONS", "trial_index": 8}, "uniqueid": "MTK2050:37WLF8U1WQX175EVFGP3OG95X5B6KQ", "dateTime": 1516659254589}, {"current_trial": 9, "trialdata": {"rt": [6050, 9282, 12865, 15826], "trial_type": "math-distractor", "key_times": [3018, 3161, 3746, 5817, 6050, 8929, 9131, 9282, 12482, 12593, 12865, 15506, 15753, 15826], "responses": ["22", "15", "13", "20"], "num2": [3, 1, 3, 8, 7], "num3": [9, 7, 6, 4, 1], "conditions": [18, 1200, "v", 18000], "internal_node_id": "0.0-9.0", "key_presses": [50, 50, 32, 8, 13, 49, 53, 13, 49, 51, 13, 50, 48, 13], "trial": 0, "time_elapsed": 172712, "type": "DISTRACTOR", "trial_index": 9, "num1": [9, 7, 4, 8, 8]}, "uniqueid": "MTK2050:37WLF8U1WQX175EVFGP3OG95X5B6KQ", "dateTime": 1516659273599}, {"current_trial": 10, "trialdata": {"rt": -1, "trial_type": "single-stim", "stimulus": "<p id=\"stim\">10</p>", "internal_node_id": "0.0-10.0-0.0", "time_elapsed": 175722, "key_press": -1, "trial_index": 10}, "uniqueid": "MTK2050:37WLF8U1WQX175EVFGP3OG95X5B6KQ", "dateTime": 1516659276608}, {"current_trial": 11, "trialdata": {"rt": -1, "trial_type": "single-stim", "stimulus": "<p id=\"stim\">9</p>", "internal_node_id": "0.0-10.0-1.0", "time_elapsed": 176726, "key_press": -1, "trial_index": 11}, "uniqueid": "MTK2050:37WLF8U1WQX175EVFGP3OG95X5B6KQ", "dateTime": 1516659277612}, {"current_trial": 12, "trialdata": {"rt": -1, "trial_type": "single-stim", "stimulus": "<p id=\"stim\">8</p>", "internal_node_id": "0.0-10.0-2.0", "time_elapsed": 177729, "key_press": -1, "trial_index": 12}, "uniqueid": "MTK2050:37WLF8U1WQX175EVFGP3OG95X5B6KQ", "dateTime": 1516659278616}, {"current_trial": 13, "trialdata": {"rt": -1, "trial_type": "single-stim", "stimulus": "<p id=\"stim\">7</p>", "internal_node_id": "0.0-10.0-3.0", "time_elapsed": 178734, "key_press": -1, "trial_index": 13}, "uniqueid": "MTK2050:37WLF8U1WQX175EVFGP3OG95X5B6KQ", "dateTime": 1516659279620}, {"current_trial": 14, "trialdata": {"rt": -1, "trial_type": "single-stim", "stimulus": "<p id=\"stim\">6</p>", "internal_node_id": "0.0-10.0-4.0", "time_elapsed": 179738, "key_press": -1, "trial_index": 14}, "uniqueid": "MTK2050:37WLF8U1WQX175EVFGP3OG95X5B6KQ", "dateTime": 1516659280624}, {"current_trial": 15, "trialdata": {"rt": -1, "trial_type": "single-stim", "stimulus": "<p id=\"stim\">5</p>", "internal_node_id": "0.0-10.0-5.0", "time_elapsed": 180742, "key_press": -1, "trial_index": 15}, "uniqueid": "MTK2050:37WLF8U1WQX175EVFGP3OG95X5B6KQ", "dateTime": 1516659281628}, {"current_trial": 16, "trialdata": {"rt": -1, "trial_type": "single-stim", "stimulus": "<p id=\"stim\">4</p>", "internal_node_id": "0.0-10.0-6.0", "time_elapsed": 181746, "key_press": -1, "trial_index": 16}, "uniqueid": "MTK2050:37WLF8U1WQX175EVFGP3OG95X5B6KQ", "dateTime": 1516659282632}, {"current_trial": 17, "trialdata": {"rt": -1, "trial_type": "single-stim", "stimulus": "<p id=\"stim\">3</p>", "internal_node_id": "0.0-10.0-7.0", "time_elapsed": 182750, "key_press": -1, "trial_index": 17}, "uniqueid": "MTK2050:37WLF8U1WQX175EVFGP3OG95X5B6KQ", "dateTime": 1516659283636}, {"current_trial": 18, "trialdata": {"rt": -1, "trial_type": "single-stim", "stimulus": "<p id=\"stim\">2</p>", "internal_node_id": "0.0-10.0-8.0", "time_elapsed": 183754, "key_press": -1, "trial_index": 18}, "uniqueid": "MTK2050:37WLF8U1WQX175EVFGP3OG95X5B6KQ", "dateTime": 1516659284640}, {"current_trial": 19, "trialdata": {"rt": -1, "trial_type": "single-stim", "stimulus": "<p id=\"stim\">1</p>", "internal_node_id": "0.0-10.0-9.0", "time_elapsed": 184758, "key_press": -1, "trial_index": 19}, "uniqueid": "MTK2050:37WLF8U1WQX175EVFGP3OG95X5B6KQ", "dateTime": 1516659285644}, {"current_trial": 20, "trialdata": {"rt": -1, "trial_type": "single-stim", "stimulus": "<p id=\"stim\">+</p>", "internal_node_id": "0.0-11.0-0.0", "time_elapsed": 186261, "key_press": -1, "type": "FIXATION", "trial_index": 20}, "uniqueid": "MTK2050:37WLF8U1WQX175EVFGP3OG95X5B6KQ", "dateTime": 1516659287148}, {"current_trial": 21, "trialdata": {"rt": -1, "trial_type": "single-stim", "word": "orange", "stimulus": "<p id=\"stim\">ORANGE</p>", "conditions": [18, 1200, "v", 18000], "internal_node_id": "0.0-12.0", "trial": 0, "time_elapsed": 187463, "serialpos": 0, "key_press": -1, "wordID": 979, "type": "PRES_VIS", "trial_index": 21}, "uniqueid": "MTK2050:37WLF8U1WQX175EVFGP3OG95X5B6KQ", "dateTime": 1516659288349}, {"current_trial": 22, "trialdata": {"rt": -1, "trial_type": "single-stim", "word": "fox", "stimulus": "<p id=\"stim\">FOX</p>", "conditions": [18, 1200, "v", 18000], "internal_node_id": "0.0-13.0", "trial": 0, "time_elapsed": 189820, "serialpos": 1, "key_press": -1, "wordID": 597, "type": "PRES_VIS", "trial_index": 22}, "uniqueid": "MTK2050:37WLF8U1WQX175EVFGP3OG95X5B6KQ", "dateTime": 1516659290706}, {"current_trial": 23, "trialdata": {"rt": -1, "trial_type": "single-stim", "word": "hero", "stimulus": "<p id=\"stim\">HERO</p>", "conditions": [18, 1200, "v", 18000], "internal_node_id": "0.0-14.0", "trial": 0, "time_elapsed": 191967, "serialpos": 2, "key_press": -1, "wordID": 705, "type": "PRES_VIS", "trial_index": 23}, "uniqueid": "MTK2050:37WLF8U1WQX175EVFGP3OG95X5B6KQ", "dateTime": 1516659292853}, {"current_trial": 24, "trialdata": {"rt": -1, "trial_type": "single-stim", "word": "sibling", "stimulus": "<p id=\"stim\">SIBLING</p>", "conditions": [18, 1200, "v", 18000], "internal_node_id": "0.0-15.0", "trial": 0, "time_elapsed": 194358, "serialpos": 3, "key_press": -1, "wordID": 1300, "type": "PRES_VIS", "trial_index": 24}, "uniqueid": "MTK2050:37WLF8U1WQX175EVFGP3OG95X5B6KQ", "dateTime": 1516659295244}, {"current_trial": 25, "trialdata": {"rt": -1, "trial_type": "single-stim", "word": "belly", "stimulus": "<p id=\"stim\">BELLY</p>", "conditions": [18, 1200, "v", 18000], "internal_node_id": "0.0-16.0", "trial": 0, "time_elapsed": 196413, "serialpos": 4, "key_press": -1, "wordID": 118, "type": "PRES_VIS", "trial_index": 25}, "uniqueid": "MTK2050:37WLF8U1WQX175EVFGP3OG95X5B6KQ", "dateTime": 1516659297299}, {"current_trial": 26, "trialdata": {"rt": -1, "trial_type": "single-stim", "word": "carriage", "stimulus": "<p id=\"stim\">CARRIAGE</p>", "conditions": [18, 1200, "v", 18000], "internal_node_id": "0.0-17.0", "trial": 0, "time_elapsed": 198688, "serialpos": 5, "key_press": -1, "wordID": 247, "type": "PRES_VIS", "trial_index": 26}, "uniqueid": "MTK2050:37WLF8U1WQX175EVFGP3OG95X5B6KQ", "dateTime": 1516659299574}, {"current_trial": 27, "trialdata": {"rt": -1, "trial_type": "single-stim", "word": "survey", "stimulus": "<p id=\"stim\">SURVEY</p>", "conditions": [18, 1200, "v", 18000], "internal_node_id": "0.0-18.0", "trial": 0, "time_elapsed": 201056, "serialpos": 6, "key_press": -1, "wordID": 1413, "type": "PRES_VIS", "trial_index": 27}, "uniqueid": "MTK2050:37WLF8U1WQX175EVFGP3OG95X5B6KQ", "dateTime": 1516659301942}, {"current_trial": 28, "trialdata": {"rt": -1, "trial_type": "single-stim", "word": "princess", "stimulus": "<p id=\"stim\">PRINCESS</p>", "conditions": [18, 1200, "v", 18000], "internal_node_id": "0.0-19.0", "trial": 0, "time_elapsed": 203365, "serialpos": 7, "key_press": -1, "wordID": 1124, "type": "PRES_VIS", "trial_index": 28}, "uniqueid": "MTK2050:37WLF8U1WQX175EVFGP3OG95X5B6KQ", "dateTime": 1516659304252}, {"current_trial": 29, "trialdata": {"rt": -1, "trial_type": "single-stim", "word": "friend", "stimulus": "<p id=\"stim\">FRIEND</p>", "conditions": [18, 1200, "v", 18000], "internal_node_id": "0.0-20.0", "trial": 0, "time_elapsed": 205757, "serialpos": 8, "key_press": -1, "wordID": 605, "type": "PRES_VIS", "trial_index": 29}, "uniqueid": "MTK2050:37WLF8U1WQX175EVFGP3OG95X5B6KQ", "dateTime": 1516659306643}, {"current_trial": 30, "trialdata": {"rt": -1, "trial_type": "single-stim", "word": "mars", "stimulus": "<p id=\"stim\">MARS</p>", "conditions": [18, 1200, "v", 18000], "internal_node_id": "0.0-21.0", "trial": 0, "time_elapsed": 208072, "serialpos": 9, "key_press": -1, "wordID": 872, "type": "PRES_VIS", "trial_index": 30}, "uniqueid": "MTK2050:37WLF8U1WQX175EVFGP3OG95X5B6KQ", "dateTime": 1516659308959}, {"current_trial": 31, "trialdata": {"rt": -1, "trial_type": "single-stim", "word": "breast", "stimulus": "<p id=\"stim\">BREAST</p>", "conditions": [18, 1200, "v", 18000], "internal_node_id": "0.0-22.0", "trial": 0, "time_elapsed": 210452, "serialpos": 10, "key_press": -1, "wordID": 170, "type": "PRES_VIS", "trial_index": 31}, "uniqueid": "MTK2050:37WLF8U1WQX175EVFGP3OG95X5B6KQ", "dateTime": 1516659311338}, {"current_trial": 32, "trialdata": {"rt": -1, "trial_type": "single-stim", "word": "climber", "stimulus": "<p id=\"stim\">CLIMBER</p>", "conditions": [18, 1200, "v", 18000], "internal_node_id": "0.0-23.0", "trial": 0, "time_elapsed": 212634, "serialpos": 11, "key_press": -1, "wordID": 322, "type": "PRES_VIS", "trial_index": 32}, "uniqueid": "MTK2050:37WLF8U1WQX175EVFGP3OG95X5B6KQ", "dateTime": 1516659313520}, {"current_trial": 33, "trialdata": {"rt": -1, "trial_type": "single-stim", "word": "sticker", "stimulus": "<p id=\"stim\">STICKER</p>", "conditions": [18, 1200, "v", 18000], "internal_node_id": "0.0-24.0", "trial": 0, "time_elapsed": 214998, "serialpos": 12, "key_press": -1, "wordID": 1381, "type": "PRES_VIS", "trial_index": 33}, "uniqueid": "MTK2050:37WLF8U1WQX175EVFGP3OG95X5B6KQ", "dateTime": 1516659315884}, {"current_trial": 34, "trialdata": {"rt": -1, "trial_type": "single-stim", "word": "london", "stimulus": "<p id=\"stim\">LONDON</p>", "conditions": [18, 1200, "v", 18000], "internal_node_id": "0.0-25.0", "trial": 0, "time_elapsed": 217188, "serialpos": 13, "key_press": -1, "wordID": 842, "type": "PRES_VIS", "trial_index": 34}, "uniqueid": "MTK2050:37WLF8U1WQX175EVFGP3OG95X5B6KQ", "dateTime": 1516659318074}, {"current_trial": 35, "trialdata": {"rt": -1, "trial_type": "single-stim", "word": "branch", "stimulus": "<p id=\"stim\">BRANCH</p>", "conditions": [18, 1200, "v", 18000], "internal_node_id": "0.0-26.0", "trial": 0, "time_elapsed": 219274, "serialpos": 14, "key_press": -1, "wordID": 167, "type": "PRES_VIS", "trial_index": 35}, "uniqueid": "MTK2050:37WLF8U1WQX175EVFGP3OG95X5B6KQ", "dateTime": 1516659320160}, {"current_trial": 36, "trialdata": {"rt": -1, "trial_type": "single-stim", "word": "backbone", "stimulus": "<p id=\"stim\">BACKBONE</p>", "conditions": [18, 1200, "v", 18000], "internal_node_id": "0.0-27.0", "trial": 0, "time_elapsed": 221636, "serialpos": 15, "key_press": -1, "wordID": 65, "type": "PRES_VIS", "trial_index": 36}, "uniqueid": "MTK2050:37WLF8U1WQX175EVFGP3OG95X5B6KQ", "dateTime": 1516659322522}, {"current_trial": 37, "trialdata": {"rt": -1, "trial_type": "single-stim", "word": "penguin", "stimulus": "<p id=\"stim\">PENGUIN</p>", "conditions": [18, 1200, "v", 18000], "internal_node_id": "0.0-28.0", "trial": 0, "time_elapsed": 224010, "serialpos": 16, "key_press": -1, "wordID": 1043, "type": "PRES_VIS", "trial_index": 37}, "uniqueid": "MTK2050:37WLF8U1WQX175EVFGP3OG95X5B6KQ", "dateTime": 1516659324896}, {"current_trial": 38, "trialdata": {"rt": -1, "trial_type": "single-stim", "word": "canal", "stimulus": "<p id=\"stim\">CANAL</p>", "conditions": [18, 1200, "v", 18000], "internal_node_id": "0.0-29.0", "trial": 0, "time_elapsed": 226372, "serialpos": 17, "key_press": -1, "wordID": 225, "type": "PRES_VIS", "trial_index": 38}, "uniqueid": "MTK2050:37WLF8U1WQX175EVFGP3OG95X5B6KQ", "dateTime": 1516659327258}, {"current_trial": 39, "trialdata": {"rt": -1, "trial_type": "single-stim", "stimulus": "", "internal_node_id": "0.0-30.0-0.0", "time_elapsed": 228751, "key_press": -1, "type": "PRE_RECALL_DELAY", "trial_index": 39}, "uniqueid": "MTK2050:37WLF8U1WQX175EVFGP3OG95X5B6KQ", "dateTime": 1516659329638}, {"current_trial": 40, "trialdata": {"rt": -1000, "trial_type": "single-audio", "stimulus": "/static/audio/400Hz.wav", "internal_node_id": "0.0-31.0", "time_elapsed": 229254, "key_press": -1, "type": "PRE_RECALL_ALERT", "trial_index": 40}, "uniqueid": "MTK2050:37WLF8U1WQX175EVFGP3OG95X5B6KQ", "dateTime": 1516659330140}, {"current_trial": 41, "trialdata": {"rt": [2242, 3794, 4962, 8034, 12690, 14818, 31070], "recwords": ["orange", "fox", "hero", "survey", "carriage", "backbone", ""], "key_times": [1276, 1515, 1674, 1795, 1930, 2066, 2242, 2626, 3122, 3283, 3482, 3618, 3794, 4482, 4530, 4626, 4763, 4962, 5466, 5554, 5978, 6203, 6386, 6474, 6611, 7346, 7506, 7738, 8034, 11059, 11154, 11331, 11482, 11626, 12010, 12282, 12490, 12690, 13314, 13394, 13530, 13634, 13930, 14082, 14548, 14674, 14818, 30645, 31070, 59094, 59781, 59869], "trial_type": "free-recall", "conditions": [18, 1200, "v", 18000], "internal_node_id": "0.0-32.0-0.0", "key_presses": [79, 82, 65, 78, 71, 69, 13, 68, 8, 70, 79, 88, 13, 72, 69, 82, 79, 13, 83, 85, 82, 86, 69, 82, 89, 8, 8, 89, 13, 67, 65, 82, 82, 73, 65, 71, 69, 13, 66, 65, 67, 75, 66, 79, 78, 69, 13, 16, 13, 83, 85, 82], "trial": 0, "time_elapsed": 289258, "type": "FREE_RECALL", "trial_index": 41}, "uniqueid": "MTK2050:37WLF8U1WQX175EVFGP3OG95X5B6KQ", "dateTime": 1516659390147}, {"current_trial": 42, "trialdata": {"rt": 3658, "trial_type": "text", "internal_node_id": "0.0-33.0", "time_elapsed": 294924, "key_press": 32, "type": "INSTRUCTIONS", "trial_index": 42}, "uniqueid": "MTK2050:37WLF8U1WQX175EVFGP3OG95X5B6KQ", "dateTime": 1516659395810}, {"current_trial": 43, "trialdata": {"rt": [3121, 6833, 10834], "trial_type": "math-distractor", "key_times": [2907, 2953, 3121, 6786, 6833, 10619, 10722, 10834, 17837], "responses": ["12", "9", "11"], "num2": [1, 2, 1, 6], "num3": [3, 5, 5, 9], "conditions": [18, 1200, "v", 18000], "internal_node_id": "0.0-34.0", "key_presses": [49, 50, 13, 57, 13, 49, 49, 13, 50], "trial": 1, "time_elapsed": 314928, "type": "DISTRACTOR", "trial_index": 43, "num1": [8, 2, 5, 7]}, "uniqueid": "MTK2050:37WLF8U1WQX175EVFGP3OG95X5B6KQ", "dateTime": 1516659415814}, {"current_trial": 44, "trialdata": {"rt": -1, "trial_type": "single-stim", "stimulus": "<p id=\"stim\">10</p>", "internal_node_id": "0.0-35.0-0.0", "time_elapsed": 317934, "key_press": -1, "trial_index": 44}, "uniqueid": "MTK2050:37WLF8U1WQX175EVFGP3OG95X5B6KQ", "dateTime": 1516659418820}, {"current_trial": 45, "trialdata": {"rt": -1, "trial_type": "single-stim", "stimulus": "<p id=\"stim\">9</p>", "internal_node_id": "0.0-35.0-1.0", "time_elapsed": 318938, "key_press": -1, "trial_index": 45}, "uniqueid": "MTK2050:37WLF8U1WQX175EVFGP3OG95X5B6KQ", "dateTime": 1516659419825}, {"current_trial": 46, "trialdata": {"rt": -1, "trial_type": "single-stim", "stimulus": "<p id=\"stim\">8</p>", "internal_node_id": "0.0-35.0-2.0", "time_elapsed": 319943, "key_press": -1, "trial_index": 46}, "uniqueid": "MTK2050:37WLF8U1WQX175EVFGP3OG95X5B6KQ", "dateTime": 1516659420829}, {"current_trial": 47, "trialdata": {"rt": -1, "trial_type": "single-stim", "stimulus": "<p id=\"stim\">7</p>", "internal_node_id": "0.0-35.0-3.0", "time_elapsed": 320946, "key_press": -1, "trial_index": 47}, "uniqueid": "MTK2050:37WLF8U1WQX175EVFGP3OG95X5B6KQ", "dateTime": 1516659421833}, {"current_trial": 48, "trialdata": {"rt": -1, "trial_type": "single-stim", "stimulus": "<p id=\"stim\">6</p>", "internal_node_id": "0.0-35.0-4.0", "time_elapsed": 321950, "key_press": -1, "trial_index": 48}, "uniqueid": "MTK2050:37WLF8U1WQX175EVFGP3OG95X5B6KQ", "dateTime": 1516659422836}, {"current_trial": 49, "trialdata": {"rt": -1, "trial_type": "single-stim", "stimulus": "<p id=\"stim\">5</p>", "internal_node_id": "0.0-35.0-5.0", "time_elapsed": 322954, "key_press": -1, "trial_index": 49}, "uniqueid": "MTK2050:37WLF8U1WQX175EVFGP3OG95X5B6KQ", "dateTime": 1516659423840}, {"current_trial": 50, "trialdata": {"rt": -1, "trial_type": "single-stim", "stimulus": "<p id=\"stim\">4</p>", "internal_node_id": "0.0-35.0-6.0", "time_elapsed": 323959, "key_press": -1, "trial_index": 50}, "uniqueid": "MTK2050:37WLF8U1WQX175EVFGP3OG95X5B6KQ", "dateTime": 1516659424845}, {"current_trial": 51, "trialdata": {"rt": -1, "trial_type": "single-stim", "stimulus": "<p id=\"stim\">3</p>", "internal_node_id": "0.0-35.0-7.0", "time_elapsed": 324963, "key_press": -1, "trial_index": 51}, "uniqueid": "MTK2050:37WLF8U1WQX175EVFGP3OG95X5B6KQ", "dateTime": 1516659425849}, {"current_trial": 52, "trialdata": {"rt": -1, "trial_type": "single-stim", "stimulus": "<p id=\"stim\">2</p>", "internal_node_id": "0.0-35.0-8.0", "time_elapsed": 325965, "key_press": -1, "trial_index": 52}, "uniqueid": "MTK2050:37WLF8U1WQX175EVFGP3OG95X5B6KQ", "dateTime": 1516659426851}, {"current_trial": 53, "trialdata": {"rt": -1, "trial_type": "single-stim", "stimulus": "<p id=\"stim\">1</p>", "internal_node_id": "0.0-35.0-9.0", "time_elapsed": 326967, "key_press": -1, "trial_index": 53}, "uniqueid": "MTK2050:37WLF8U1WQX175EVFGP3OG95X5B6KQ", "dateTime": 1516659427853}, {"current_trial": 54, "trialdata": {"rt": -1, "trial_type": "single-stim", "stimulus": "<p id=\"stim\">+</p>", "internal_node_id": "0.0-36.0-0.0", "time_elapsed": 328470, "key_press": -1, "type": "FIXATION", "trial_index": 54}, "uniqueid": "MTK2050:37WLF8U1WQX175EVFGP3OG95X5B6KQ", "dateTime": 1516659429356}, {"current_trial": 55, "trialdata": {"rt": -1, "trial_type": "single-stim", "word": "fruit", "stimulus": "<p id=\"stim\">FRUIT</p>", "conditions": [18, 1200, "v", 18000], "internal_node_id": "0.0-37.0", "trial": 1, "time_elapsed": 329671, "serialpos": 0, "key_press": -1, "wordID": 609, "type": "PRES_VIS", "trial_index": 55}, "uniqueid": "MTK2050:37WLF8U1WQX175EVFGP3OG95X5B6KQ", "dateTime": 1516659430557}, {"current_trial": 56, "trialdata": {"rt": -1, "trial_type": "single-stim", "word": "pasta", "stimulus": "<p id=\"stim\">PASTA</p>", "conditions": [18, 1200, "v", 18000], "internal_node_id": "0.0-38.0", "trial": 1, "time_elapsed": 331941, "serialpos": 1, "key_press": -1, "wordID": 1020, "type": "PRES_VIS", "trial_index": 56}, "uniqueid": "MTK2050:37WLF8U1WQX175EVFGP3OG95X5B6KQ", "dateTime": 1516659432827}, {"current_trial": 57, "trialdata": {"rt": -1, "trial_type": "single-stim", "word": "saddle", "stimulus": "<p id=\"stim\">SADDLE</p>", "conditions": [18, 1200, "v", 18000], "internal_node_id": "0.0-39.0", "trial": 1, "time_elapsed": 334139, "serialpos": 2, "key_press": -1, "wordID": 1220, "type": "PRES_VIS", "trial_index": 57}, "uniqueid": "MTK2050:37WLF8U1WQX175EVFGP3OG95X5B6KQ", "dateTime": 1516659435025}, {"current_trial": 58, "trialdata": {"rt": -1, "trial_type": "single-stim", "word": "rocket", "stimulus": "<p id=\"stim\">ROCKET</p>", "conditions": [18, 1200, "v", 18000], "internal_node_id": "0.0-40.0", "trial": 1, "time_elapsed": 336294, "serialpos": 3, "key_press": -1, "wordID": 1201, "type": "PRES_VIS", "trial_index": 58}, "uniqueid": "MTK2050:37WLF8U1WQX175EVFGP3OG95X5B6KQ", "dateTime": 1516659437180}, {"current_trial": 59, "trialdata": {"rt": -1, "trial_type": "single-stim", "word": "guitar", "stimulus": "<p id=\"stim\">GUITAR</p>", "conditions": [18, 1200, "v", 18000], "internal_node_id": "0.0-41.0", "trial": 1, "time_elapsed": 338696, "serialpos": 4, "key_press": -1, "wordID": 669, "type": "PRES_VIS", "trial_index": 59}, "uniqueid": "MTK2050:37WLF8U1WQX175EVFGP3OG95X5B6KQ", "dateTime": 1516659439582}, {"current_trial": 60, "trialdata": {"rt": -1, "trial_type": "single-stim", "word": "helmet", "stimulus": "<p id=\"stim\">HELMET</p>", "conditions": [18, 1200, "v", 18000], "internal_node_id": "0.0-42.0", "trial": 1, "time_elapsed": 340773, "serialpos": 5, "key_press": -1, "wordID": 701, "type": "PRES_VIS", "trial_index": 60}, "uniqueid": "MTK2050:37WLF8U1WQX175EVFGP3OG95X5B6KQ", "dateTime": 1516659441659}, {"current_trial": 61, "trialdata": {"rt": -1, "trial_type": "single-stim", "word": "crayon", "stimulus": "<p id=\"stim\">CRAYON</p>", "conditions": [18, 1200, "v", 18000], "internal_node_id": "0.0-43.0", "trial": 1, "time_elapsed": 343113, "serialpos": 6, "key_press": -1, "wordID": 400, "type": "PRES_VIS", "trial_index": 61}, "uniqueid": "MTK2050:37WLF8U1WQX175EVFGP3OG95X5B6KQ", "dateTime": 1516659443999}, {"current_trial": 62, "trialdata": {"rt": -1, "trial_type": "single-stim", "word": "queen", "stimulus": "<p id=\"stim\">QUEEN</p>", "conditions": [18, 1200, "v", 18000], "internal_node_id": "0.0-44.0", "trial": 1, "time_elapsed": 345229, "serialpos": 7, "key_press": -1, "wordID": 1148, "type": "PRES_VIS", "trial_index": 62}, "uniqueid": "MTK2050:37WLF8U1WQX175EVFGP3OG95X5B6KQ", "dateTime": 1516659446116}, {"current_trial": 63, "trialdata": {"rt": -1, "trial_type": "single-stim", "word": "market", "stimulus": "<p id=\"stim\">MARKET</p>", "conditions": [18, 1200, "v", 18000], "internal_node_id": "0.0-45.0", "trial": 1, "time_elapsed": 347395, "serialpos": 8, "key_press": -1, "wordID": 870, "type": "PRES_VIS", "trial_index": 63}, "uniqueid": "MTK2050:37WLF8U1WQX175EVFGP3OG95X5B6KQ", "dateTime": 1516659448281}, {"current_trial": 64, "trialdata": {"rt": -1, "trial_type": "single-stim", "word": "robber", "stimulus": "<p id=\"stim\">ROBBER</p>", "conditions": [18, 1200, "v", 18000], "internal_node_id": "0.0-46.0", "trial": 1, "time_elapsed": 349589, "serialpos": 9, "key_press": -1, "wordID": 1196, "type": "PRES_VIS", "trial_index": 64}, "uniqueid": "MTK2050:37WLF8U1WQX175EVFGP3OG95X5B6KQ", "dateTime": 1516659450475}, {"current_trial": 65, "trialdata": {"rt": -1, "trial_type": "single-stim", "word": "zebra", "stimulus": "<p id=\"stim\">ZEBRA</p>", "conditions": [18, 1200, "v", 18000], "internal_node_id": "0.0-47.0", "trial": 1, "time_elapsed": 351910, "serialpos": 10, "key_press": -1, "wordID": 1634, "type": "PRES_VIS", "trial_index": 65}, "uniqueid": "MTK2050:37WLF8U1WQX175EVFGP3OG95X5B6KQ", "dateTime": 1516659452797}, {"current_trial": 66, "trialdata": {"rt": -1, "trial_type": "single-stim", "word": "lake", "stimulus": "<p id=\"stim\">LAKE</p>", "conditions": [18, 1200, "v", 18000], "internal_node_id": "0.0-48.0", "trial": 1, "time_elapsed": 354307, "serialpos": 11, "key_press": -1, "wordID": 795, "type": "PRES_VIS", "trial_index": 66}, "uniqueid": "MTK2050:37WLF8U1WQX175EVFGP3OG95X5B6KQ", "dateTime": 1516659455194}, {"current_trial": 67, "trialdata": {"rt": -1, "trial_type": "single-stim", "word": "powder", "stimulus": "<p id=\"stim\">POWDER</p>", "conditions": [18, 1200, "v", 18000], "internal_node_id": "0.0-49.0", "trial": 1, "time_elapsed": 356577, "serialpos": 12, "key_press": -1, "wordID": 1116, "type": "PRES_VIS", "trial_index": 67}, "uniqueid": "MTK2050:37WLF8U1WQX175EVFGP3OG95X5B6KQ", "dateTime": 1516659457463}, {"current_trial": 68, "trialdata": {"rt": -1, "trial_type": "single-stim", "word": "lettuce", "stimulus": "<p id=\"stim\">LETTUCE</p>", "conditions": [18, 1200, "v", 18000], "internal_node_id": "0.0-50.0", "trial": 1, "time_elapsed": 358927, "serialpos": 13, "key_press": -1, "wordID": 813, "type": "PRES_VIS", "trial_index": 68}, "uniqueid": "MTK2050:37WLF8U1WQX175EVFGP3OG95X5B6KQ", "dateTime": 1516659459813}, {"current_trial": 69, "trialdata": {"rt": -1, "trial_type": "single-stim", "word": "cross", "stimulus": "<p id=\"stim\">CROSS</p>", "conditions": [18, 1200, "v", 18000], "internal_node_id": "0.0-51.0", "trial": 1, "time_elapsed": 360948, "serialpos": 14, "key_press": -1, "wordID": 412, "type": "PRES_VIS", "trial_index": 69}, "uniqueid": "MTK2050:37WLF8U1WQX175EVFGP3OG95X5B6KQ", "dateTime": 1516659461835}, {"current_trial": 70, "trialdata": {"rt": -1, "trial_type": "single-stim", "word": "sunset", "stimulus": "<p id=\"stim\">SUNSET</p>", "conditions": [18, 1200, "v", 18000], "internal_node_id": "0.0-52.0", "trial": 1, "time_elapsed": 363054, "serialpos": 15, "key_press": -1, "wordID": 1407, "type": "PRES_VIS", "trial_index": 70}, "uniqueid": "MTK2050:37WLF8U1WQX175EVFGP3OG95X5B6KQ", "dateTime": 1516659463940}, {"current_trial": 71, "trialdata": {"rt": -1, "trial_type": "single-stim", "word": "muffin", "stimulus": "<p id=\"stim\">MUFFIN</p>", "conditions": [18, 1200, "v", 18000], "internal_node_id": "0.0-53.0", "trial": 1, "time_elapsed": 365105, "serialpos": 16, "key_press": -1, "wordID": 928, "type": "PRES_VIS", "trial_index": 71}, "uniqueid": "MTK2050:37WLF8U1WQX175EVFGP3OG95X5B6KQ", "dateTime": 1516659465992}, {"current_trial": 72, "trialdata": {"rt": -1, "trial_type": "single-stim", "word": "ghetto", "stimulus": "<p id=\"stim\">GHETTO</p>", "conditions": [18, 1200, "v", 18000], "internal_node_id": "0.0-54.0", "trial": 1, "time_elapsed": 367453, "serialpos": 17, "key_press": -1, "wordID": 632, "type": "PRES_VIS", "trial_index": 72}, "uniqueid": "MTK2050:37WLF8U1WQX175EVFGP3OG95X5B6KQ", "dateTime": 1516659468339}, {"current_trial": 73, "trialdata": {"rt": -1, "trial_type": "single-stim", "stimulus": "", "internal_node_id": "0.0-55.0-0.0", "time_elapsed": 369676, "key_press": -1, "type": "PRE_RECALL_DELAY", "trial_index": 73}, "uniqueid": "MTK2050:37WLF8U1WQX175EVFGP3OG95X5B6KQ", "dateTime": 1516659470562}, {"current_trial": 74, "trialdata": {"rt": -1000, "trial_type": "single-audio", "stimulus": "/static/audio/400Hz.wav", "internal_node_id": "0.0-56.0", "time_elapsed": 370178, "key_press": -1, "type": "PRE_RECALL_ALERT", "trial_index": 74}, "uniqueid": "MTK2050:37WLF8U1WQX175EVFGP3OG95X5B6KQ", "dateTime": 1516659471064}, {"current_trial": 75, "trialdata": {"rt": [1335, 2695, 4255, 5391, 8639, 32955, 49324], "recwords": ["ghetto", "fruit", "pasta", "rocket", "crayon", "lettuce", ""], "key_times": [368, 495, 631, 815, 975, 1111, 1335, 1976, 2152, 2303, 2380, 2567, 2695, 3135, 3231, 3312, 3655, 3879, 4255, 4503, 4703, 4839, 4983, 5087, 5184, 5391, 7439, 7655, 7767, 7943, 8391, 8512, 8639, 30764, 31146, 31323, 31467, 31651, 31930, 32306, 32395, 32531, 32955, 49324], "trial_type": "free-recall", "conditions": [18, 1200, "v", 18000], "internal_node_id": "0.0-57.0-0.0", "key_presses": [71, 72, 69, 84, 84, 79, 13, 70, 82, 85, 73, 84, 13, 80, 65, 83, 84, 65, 13, 82, 79, 67, 75, 69, 84, 13, 67, 82, 65, 89, 79, 78, 13, 76, 69, 84, 84, 85, 83, 8, 67, 69, 13, 13], "trial": 1, "time_elapsed": 430183, "type": "FREE_RECALL", "trial_index": 75}, "uniqueid": "MTK2050:37WLF8U1WQX175EVFGP3OG95X5B6KQ", "dateTime": 1516659531071}, {"current_trial": 76, "trialdata": {"rt": 30971, "trial_type": "text", "internal_node_id": "0.0-58.0", "time_elapsed": 463161, "key_press": 32, "type": "INSTRUCTIONS", "trial_index": 76}, "uniqueid": "MTK2050:37WLF8U1WQX175EVFGP3OG95X5B6KQ", "dateTime": 1516659564048}, {"current_trial": 77, "trialdata": {"rt": [2508, 4093, 8116, 10644], "trial_type": "math-distractor", "key_times": [2318, 2364, 2508, 3934, 3980, 4093, 7950, 7996, 8116, 10453, 10565, 10644], "responses": ["14", "12", "13", "10"], "num2": [2, 2, 1, 6, 3], "num3": [8, 5, 5, 3, 5], "conditions": [24, 800, "v", 12000], "internal_node_id": "0.0-59.0", "key_presses": [49, 52, 13, 49, 50, 13, 49, 51, 13, 49, 48, 13], "trial": 2, "time_elapsed": 476166, "type": "DISTRACTOR", "trial_index": 77, "num1": [4, 5, 7, 1, 9]}, "uniqueid": "MTK2050:37WLF8U1WQX175EVFGP3OG95X5B6KQ", "dateTime": 1516659577052}, {"current_trial": 78, "trialdata": {"rt": -1, "trial_type": "single-stim", "stimulus": "<p id=\"stim\">10</p>", "internal_node_id": "0.0-60.0-0.0", "time_elapsed": 479173, "key_press": -1, "trial_index": 78}, "uniqueid": "MTK2050:37WLF8U1WQX175EVFGP3OG95X5B6KQ", "dateTime": 1516659580059}, {"current_trial": 79, "trialdata": {"rt": -1, "trial_type": "single-stim", "stimulus": "<p id=\"stim\">9</p>", "internal_node_id": "0.0-60.0-1.0", "time_elapsed": 480179, "key_press": -1, "trial_index": 79}, "uniqueid": "MTK2050:37WLF8U1WQX175EVFGP3OG95X5B6KQ", "dateTime": 1516659581065}, {"current_trial": 80, "trialdata": {"rt": -1, "trial_type": "single-stim", "stimulus": "<p id=\"stim\">8</p>", "internal_node_id": "0.0-60.0-2.0", "time_elapsed": 481181, "key_press": -1, "trial_index": 80}, "uniqueid": "MTK2050:37WLF8U1WQX175EVFGP3OG95X5B6KQ", "dateTime": 1516659582067}, {"current_trial": 81, "trialdata": {"rt": -1, "trial_type": "single-stim", "stimulus": "<p id=\"stim\">7</p>", "internal_node_id": "0.0-60.0-3.0", "time_elapsed": 482185, "key_press": -1, "trial_index": 81}, "uniqueid": "MTK2050:37WLF8U1WQX175EVFGP3OG95X5B6KQ", "dateTime": 1516659583071}, {"current_trial": 82, "trialdata": {"rt": -1, "trial_type": "single-stim", "stimulus": "<p id=\"stim\">6</p>", "internal_node_id": "0.0-60.0-4.0", "time_elapsed": 483189, "key_press": -1, "trial_index": 82}, "uniqueid": "MTK2050:37WLF8U1WQX175EVFGP3OG95X5B6KQ", "dateTime": 1516659584075}, {"current_trial": 83, "trialdata": {"rt": -1, "trial_type": "single-stim", "stimulus": "<p id=\"stim\">5</p>", "internal_node_id": "0.0-60.0-5.0", "time_elapsed": 484193, "key_press": -1, "trial_index": 83}, "uniqueid": "MTK2050:37WLF8U1WQX175EVFGP3OG95X5B6KQ", "dateTime": 1516659585079}, {"current_trial": 84, "trialdata": {"rt": -1, "trial_type": "single-stim", "stimulus": "<p id=\"stim\">4</p>", "internal_node_id": "0.0-60.0-6.0", "time_elapsed": 485197, "key_press": -1, "trial_index": 84}, "uniqueid": "MTK2050:37WLF8U1WQX175EVFGP3OG95X5B6KQ", "dateTime": 1516659586083}, {"current_trial": 85, "trialdata": {"rt": -1, "trial_type": "single-stim", "stimulus": "<p id=\"stim\">3</p>", "internal_node_id": "0.0-60.0-7.0", "time_elapsed": 486200, "key_press": -1, "trial_index": 85}, "uniqueid": "MTK2050:37WLF8U1WQX175EVFGP3OG95X5B6KQ", "dateTime": 1516659587087}, {"current_trial": 86, "trialdata": {"rt": -1, "trial_type": "single-stim", "stimulus": "<p id=\"stim\">2</p>", "internal_node_id": "0.0-60.0-8.0", "time_elapsed": 487205, "key_press": -1, "trial_index": 86}, "uniqueid": "MTK2050:37WLF8U1WQX175EVFGP3OG95X5B6KQ", "dateTime": 1516659588091}, {"current_trial": 87, "trialdata": {"rt": -1, "trial_type": "single-stim", "stimulus": "<p id=\"stim\">1</p>", "internal_node_id": "0.0-60.0-9.0", "time_elapsed": 488209, "key_press": -1, "trial_index": 87}, "uniqueid": "MTK2050:37WLF8U1WQX175EVFGP3OG95X5B6KQ", "dateTime": 1516659589095}, {"current_trial": 88, "trialdata": {"rt": -1, "trial_type": "single-stim", "stimulus": "<p id=\"stim\">+</p>", "internal_node_id": "0.0-61.0-0.0", "time_elapsed": 489712, "key_press": -1, "type": "FIXATION", "trial_index": 88}, "uniqueid": "MTK2050:37WLF8U1WQX175EVFGP3OG95X5B6KQ", "dateTime": 1516659590599}, {"current_trial": 89, "trialdata": {"rt": -1, "trial_type": "single-stim", "word": "soda", "stimulus": "<p id=\"stim\">SODA</p>", "conditions": [24, 800, "v", 12000], "internal_node_id": "0.0-62.0", "trial": 2, "time_elapsed": 490519, "serialpos": 0, "key_press": -1, "wordID": 1340, "type": "PRES_VIS", "trial_index": 89}, "uniqueid": "MTK2050:37WLF8U1WQX175EVFGP3OG95X5B6KQ", "dateTime": 1516659591405}, {"current_trial": 90, "trialdata": {"rt": -1, "trial_type": "single-stim", "word": "ankle", "stimulus": "<p id=\"stim\">ANKLE</p>", "conditions": [24, 800, "v", 12000], "internal_node_id": "0.0-63.0", "trial": 2, "time_elapsed": 492434, "serialpos": 1, "key_press": -1, "wordID": 23, "type": "PRES_VIS", "trial_index": 90}, "uniqueid": "MTK2050:37WLF8U1WQX175EVFGP3OG95X5B6KQ", "dateTime": 1516659593320}, {"current_trial": 91, "trialdata": {"rt": -1, "trial_type": "single-stim", "word": "costume", "stimulus": "<p id=\"stim\">COSTUME</p>", "conditions": [24, 800, "v", 12000], "internal_node_id": "0.0-64.0", "trial": 2, "time_elapsed": 494413, "serialpos": 2, "key_press": -1, "wordID": 382, "type": "PRES_VIS", "trial_index": 91}, "uniqueid": "MTK2050:37WLF8U1WQX175EVFGP3OG95X5B6KQ", "dateTime": 1516659595299}, {"current_trial": 92, "trialdata": {"rt": -1, "trial_type": "single-stim", "word": "flag", "stimulus": "<p id=\"stim\">FLAG</p>", "conditions": [24, 800, "v", 12000], "internal_node_id": "0.0-65.0", "trial": 2, "time_elapsed": 496114, "serialpos": 3, "key_press": -1, "wordID": 572, "type": "PRES_VIS", "trial_index": 92}, "uniqueid": "MTK2050:37WLF8U1WQX175EVFGP3OG95X5B6KQ", "dateTime": 1516659597000}, {"current_trial": 93, "trialdata": {"rt": -1, "trial_type": "single-stim", "word": "judge", "stimulus": "<p id=\"stim\">JUDGE</p>", "conditions": [24, 800, "v", 12000], "internal_node_id": "0.0-66.0", "trial": 2, "time_elapsed": 498093, "serialpos": 4, "key_press": -1, "wordID": 760, "type": "PRES_VIS", "trial_index": 93}, "uniqueid": "MTK2050:37WLF8U1WQX175EVFGP3OG95X5B6KQ", "dateTime": 1516659598979}, {"current_trial": 94, "trialdata": {"rt": -1, "trial_type": "single-stim", "word": "jury", "stimulus": "<p id=\"stim\">JURY</p>", "conditions": [24, 800, "v", 12000], "internal_node_id": "0.0-67.0", "trial": 2, "time_elapsed": 499863, "serialpos": 5, "key_press": -1, "wordID": 765, "type": "PRES_VIS", "trial_index": 94}, "uniqueid": "MTK2050:37WLF8U1WQX175EVFGP3OG95X5B6KQ", "dateTime": 1516659600749}, {"current_trial": 95, "trialdata": {"rt": -1, "trial_type": "single-stim", "word": "drink", "stimulus": "<p id=\"stim\">DRINK</p>", "conditions": [24, 800, "v", 12000], "internal_node_id": "0.0-68.0", "trial": 2, "time_elapsed": 501750, "serialpos": 6, "key_press": -1, "wordID": 497, "type": "PRES_VIS", "trial_index": 95}, "uniqueid": "MTK2050:37WLF8U1WQX175EVFGP3OG95X5B6KQ", "dateTime": 1516659602636}, {"current_trial": 96, "trialdata": {"rt": -1, "trial_type": "single-stim", "word": "twig", "stimulus": "<p id=\"stim\">TWIG</p>", "conditions": [24, 800, "v", 12000], "internal_node_id": "0.0-69.0", "trial": 2, "time_elapsed": 503648, "serialpos": 7, "key_press": -1, "wordID": 1526, "type": "PRES_VIS", "trial_index": 96}, "uniqueid": "MTK2050:37WLF8U1WQX175EVFGP3OG95X5B6KQ", "dateTime": 1516659604534}, {"current_trial": 97, "trialdata": {"rt": -1, "trial_type": "single-stim", "word": "rifle", "stimulus": "<p id=\"stim\">RIFLE</p>", "conditions": [24, 800, "v", 12000], "internal_node_id": "0.0-70.0", "trial": 2, "time_elapsed": 505458, "serialpos": 8, "key_press": -1, "wordID": 1191, "type": "PRES_VIS", "trial_index": 97}, "uniqueid": "MTK2050:37WLF8U1WQX175EVFGP3OG95X5B6KQ", "dateTime": 1516659606344}, {"current_trial": 98, "trialdata": {"rt": -1, "trial_type": "single-stim", "word": "parrot", "stimulus": "<p id=\"stim\">PARROT</p>", "conditions": [24, 800, "v", 12000], "internal_node_id": "0.0-71.0", "trial": 2, "time_elapsed": 507234, "serialpos": 9, "key_press": -1, "wordID": 1014, "type": "PRES_VIS", "trial_index": 98}, "uniqueid": "MTK2050:37WLF8U1WQX175EVFGP3OG95X5B6KQ", "dateTime": 1516659608121}, {"current_trial": 99, "trialdata": {"rt": -1, "trial_type": "single-stim", "word": "grill", "stimulus": "<p id=\"stim\">GRILL</p>", "conditions": [24, 800, "v", 12000], "internal_node_id": "0.0-72.0", "trial": 2, "time_elapsed": 509067, "serialpos": 10, "key_press": -1, "wordID": 660, "type": "PRES_VIS", "trial_index": 99}, "uniqueid": "MTK2050:37WLF8U1WQX175EVFGP3OG95X5B6KQ", "dateTime": 1516659609953}, {"current_trial": 100, "trialdata": {"rt": -1, "trial_type": "single-stim", "word": "waiter", "stimulus": "<p id=\"stim\">WAITER</p>", "conditions": [24, 800, "v", 12000], "internal_node_id": "0.0-73.0", "trial": 2, "time_elapsed": 510937, "serialpos": 11, "key_press": -1, "wordID": 1579, "type": "PRES_VIS", "trial_index": 100}, "uniqueid": "MTK2050:37WLF8U1WQX175EVFGP3OG95X5B6KQ", "dateTime": 1516659611823}, {"current_trial": 101, "trialdata": {"rt": -1, "trial_type": "single-stim", "word": "robot", "stimulus": "<p id=\"stim\">ROBOT</p>", "conditions": [24, 800, "v", 12000], "internal_node_id": "0.0-74.0", "trial": 2, "time_elapsed": 512945, "serialpos": 12, "key_press": -1, "wordID": 1199, "type": "PRES_VIS", "trial_index": 101}, "uniqueid": "MTK2050:37WLF8U1WQX175EVFGP3OG95X5B6KQ", "dateTime": 1516659613831}, {"current_trial": 102, "trialdata": {"rt": -1, "trial_type": "single-stim", "word": "banjo", "stimulus": "<p id=\"stim\">BANJO</p>", "conditions": [24, 800, "v", 12000], "internal_node_id": "0.0-75.0", "trial": 2, "time_elapsed": 514618, "serialpos": 13, "key_press": -1, "wordID": 81, "type": "PRES_VIS", "trial_index": 102}, "uniqueid": "MTK2050:37WLF8U1WQX175EVFGP3OG95X5B6KQ", "dateTime": 1516659615504}, {"current_trial": 103, "trialdata": {"rt": -1, "trial_type": "single-stim", "word": "victim", "stimulus": "<p id=\"stim\">VICTIM</p>", "conditions": [24, 800, "v", 12000], "internal_node_id": "0.0-76.0", "trial": 2, "time_elapsed": 516549, "serialpos": 14, "key_press": -1, "wordID": 1561, "type": "PRES_VIS", "trial_index": 103}, "uniqueid": "MTK2050:37WLF8U1WQX175EVFGP3OG95X5B6KQ", "dateTime": 1516659617436}, {"current_trial": 104, "trialdata": {"rt": -1, "trial_type": "single-stim", "word": "teacher", "stimulus": "<p id=\"stim\">TEACHER</p>", "conditions": [24, 800, "v", 12000], "internal_node_id": "0.0-77.0", "trial": 2, "time_elapsed": 518401, "serialpos": 15, "key_press": -1, "wordID": 1439, "type": "PRES_VIS", "trial_index": 104}, "uniqueid": "MTK2050:37WLF8U1WQX175EVFGP3OG95X5B6KQ", "dateTime": 1516659619287}, {"current_trial": 105, "trialdata": {"rt": -1, "trial_type": "single-stim", "word": "typist", "stimulus": "<p id=\"stim\">TYPIST</p>", "conditions": [24, 800, "v", 12000], "internal_node_id": "0.0-78.0", "trial": 2, "time_elapsed": 520299, "serialpos": 16, "key_press": -1, "wordID": 1531, "type": "PRES_VIS", "trial_index": 105}, "uniqueid": "MTK2050:37WLF8U1WQX175EVFGP3OG95X5B6KQ", "dateTime": 1516659621185}, {"current_trial": 106, "trialdata": {"rt": -1, "trial_type": "single-stim", "word": "milk", "stimulus": "<p id=\"stim\">MILK</p>", "conditions": [24, 800, "v", 12000], "internal_node_id": "0.0-79.0", "trial": 2, "time_elapsed": 521964, "serialpos": 17, "key_press": -1, "wordID": 894, "type": "PRES_VIS", "trial_index": 106}, "uniqueid": "MTK2050:37WLF8U1WQX175EVFGP3OG95X5B6KQ", "dateTime": 1516659622850}, {"current_trial": 107, "trialdata": {"rt": -1, "trial_type": "single-stim", "word": "honey", "stimulus": "<p id=\"stim\">HONEY</p>", "conditions": [24, 800, "v", 12000], "internal_node_id": "0.0-80.0", "trial": 2, "time_elapsed": 523912, "serialpos": 18, "key_press": -1, "wordID": 712, "type": "PRES_VIS", "trial_index": 107}, "uniqueid": "MTK2050:37WLF8U1WQX175EVFGP3OG95X5B6KQ", "dateTime": 1516659624799}, {"current_trial": 108, "trialdata": {"rt": -1, "trial_type": "single-stim", "word": "comet", "stimulus": "<p id=\"stim\">COMET</p>", "conditions": [24, 800, "v", 12000], "internal_node_id": "0.0-81.0", "trial": 2, "time_elapsed": 525802, "serialpos": 19, "key_press": -1, "wordID": 352, "type": "PRES_VIS", "trial_index": 108}, "uniqueid": "MTK2050:37WLF8U1WQX175EVFGP3OG95X5B6KQ", "dateTime": 1516659626688}, {"current_trial": 109, "trialdata": {"rt": -1, "trial_type": "single-stim", "word": "bunny", "stimulus": "<p id=\"stim\">BUNNY</p>", "conditions": [24, 800, "v", 12000], "internal_node_id": "0.0-82.0", "trial": 2, "time_elapsed": 527742, "serialpos": 20, "key_press": -1, "wordID": 197, "type": "PRES_VIS", "trial_index": 109}, "uniqueid": "MTK2050:37WLF8U1WQX175EVFGP3OG95X5B6KQ", "dateTime": 1516659628628}, {"current_trial": 110, "trialdata": {"rt": -1, "trial_type": "single-stim", "word": "suspect", "stimulus": "<p id=\"stim\">SUSPECT</p>", "conditions": [24, 800, "v", 12000], "internal_node_id": "0.0-83.0", "trial": 2, "time_elapsed": 529524, "serialpos": 21, "key_press": -1, "wordID": 1414, "type": "PRES_VIS", "trial_index": 110}, "uniqueid": "MTK2050:37WLF8U1WQX175EVFGP3OG95X5B6KQ", "dateTime": 1516659630410}, {"current_trial": 111, "trialdata": {"rt": -1, "trial_type": "single-stim", "word": "heart", "stimulus": "<p id=\"stim\">HEART</p>", "conditions": [24, 800, "v", 12000], "internal_node_id": "0.0-84.0", "trial": 2, "time_elapsed": 531304, "serialpos": 22, "key_press": -1, "wordID": 696, "type": "PRES_VIS", "trial_index": 111}, "uniqueid": "MTK2050:37WLF8U1WQX175EVFGP3OG95X5B6KQ", "dateTime": 1516659632190}, {"current_trial": 112, "trialdata": {"rt": -1, "trial_type": "single-stim", "word": "donkey", "stimulus": "<p id=\"stim\">DONKEY</p>", "conditions": [24, 800, "v", 12000], "internal_node_id": "0.0-85.0", "trial": 2, "time_elapsed": 533078, "serialpos": 23, "key_press": -1, "wordID": 483, "type": "PRES_VIS", "trial_index": 112}, "uniqueid": "MTK2050:37WLF8U1WQX175EVFGP3OG95X5B6KQ", "dateTime": 1516659633965}, {"current_trial": 113, "trialdata": {"rt": -1, "trial_type": "single-stim", "stimulus": "", "internal_node_id": "0.0-86.0-0.0", "time_elapsed": 535375, "key_press": -1, "type": "PRE_RECALL_DELAY", "trial_index": 113}, "uniqueid": "MTK2050:37WLF8U1WQX175EVFGP3OG95X5B6KQ", "dateTime": 1516659636261}, {"current_trial": 114, "trialdata": {"rt": -1000, "trial_type": "single-audio", "stimulus": "/static/audio/400Hz.wav", "internal_node_id": "0.0-87.0", "time_elapsed": 535876, "key_press": -1, "type": "PRE_RECALL_ALERT", "trial_index": 114}, "uniqueid": "MTK2050:37WLF8U1WQX175EVFGP3OG95X5B6KQ", "dateTime": 1516659636762}, {"current_trial": 115, "trialdata": {"rt": [1994, 4176, 6088, 9494, 10413, 12653, 14796, 18475, 49596, 55079], "recwords": ["donkey", "suspect", "jury", "judge", "soda", "milk", "rocket", "drin", "honey", "twig"], "key_times": [507, 827, 954, 1106, 1426, 1618, 1994, 2337, 2523, 2841, 3192, 3376, 3568, 3864, 4176, 5224, 5415, 5528, 5915, 6088, 6615, 6767, 7223, 7783, 8183, 8766, 8934, 9119, 9350, 9494, 9805, 9926, 10093, 10181, 10413, 12015, 12093, 12205, 12373, 12653, 14061, 14180, 14309, 14452, 14548, 14628, 14796, 17940, 18148, 18252, 18347, 18475, 21220, 21459, 22020, 22203, 23043, 23586, 23754, 23914, 24034, 24243, 24323, 25466, 25967, 26051, 26135, 26218, 26302, 26385, 26468, 48862, 48973, 49108, 49260, 49317, 49596, 53648, 53831, 53951, 54063, 54823, 54919, 55079], "trial_type": "free-recall", "conditions": [24, 800, "v", 12000], "internal_node_id": "0.0-88.0-0.0", "key_presses": [68, 79, 78, 75, 69, 89, 13, 83, 85, 83, 80, 69, 67, 84, 13, 74, 85, 82, 89, 13, 74, 85, 68, 74, 69, 8, 8, 71, 69, 13, 83, 79, 68, 65, 13, 77, 73, 76, 75, 13, 82, 79, 67, 75, 69, 84, 13, 68, 82, 73, 78, 13, 83, 85, 8, 8, 83, 72, 79, 79, 84, 69, 82, 8, 8, 8, 8, 8, 8, 8, 8, 72, 79, 78, 69, 89, 13, 84, 87, 73, 78, 8, 71, 13], "trial": 2, "time_elapsed": 595870, "type": "FREE_RECALL", "trial_index": 115}, "uniqueid": "MTK2050:37WLF8U1WQX175EVFGP3OG95X5B6KQ", "dateTime": 1516659696759}, {"current_trial": 116, "trialdata": {"rt": 1434, "trial_type": "text", "internal_node_id": "0.0-89.0", "time_elapsed": 599308, "key_press": 67, "type": "INSTRUCTIONS", "trial_index": 116}, "uniqueid": "MTK2050:37WLF8U1WQX175EVFGP3OG95X5B6KQ", "dateTime": 1516659700195}, {"current_trial": 117, "trialdata": {"rt": [3347, 5442, 9146], "trial_type": "math-distractor", "key_times": [2955, 3203, 3347, 5027, 5267, 5442, 8540, 9035, 9146], "responses": ["13", "12", "13"], "num2": [6, 2, 5, 9], "num3": [3, 9, 1, 3], "conditions": [24, 800, "v", 12000], "internal_node_id": "0.0-90.0", "key_presses": [49, 51, 13, 49, 50, 13, 49, 51, 13], "trial": 3, "time_elapsed": 613317, "type": "DISTRACTOR", "trial_index": 117, "num1": [4, 1, 7, 4]}, "uniqueid": "MTK2050:37WLF8U1WQX175EVFGP3OG95X5B6KQ", "dateTime": 1516659714203}, {"current_trial": 118, "trialdata": {"rt": -1, "trial_type": "single-stim", "stimulus": "<p id=\"stim\">10</p>", "internal_node_id": "0.0-91.0-0.0", "time_elapsed": 616323, "key_press": -1, "trial_index": 118}, "uniqueid": "MTK2050:37WLF8U1WQX175EVFGP3OG95X5B6KQ", "dateTime": 1516659717209}, {"current_trial": 119, "trialdata": {"rt": -1, "trial_type": "single-stim", "stimulus": "<p id=\"stim\">9</p>", "internal_node_id": "0.0-91.0-1.0", "time_elapsed": 617327, "key_press": -1, "trial_index": 119}, "uniqueid": "MTK2050:37WLF8U1WQX175EVFGP3OG95X5B6KQ", "dateTime": 1516659718213}, {"current_trial": 120, "trialdata": {"rt": -1, "trial_type": "single-stim", "stimulus": "<p id=\"stim\">8</p>", "internal_node_id": "0.0-91.0-2.0", "time_elapsed": 618331, "key_press": -1, "trial_index": 120}, "uniqueid": "MTK2050:37WLF8U1WQX175EVFGP3OG95X5B6KQ", "dateTime": 1516659719218}, {"current_trial": 121, "trialdata": {"rt": -1, "trial_type": "single-stim", "stimulus": "<p id=\"stim\">7</p>", "internal_node_id": "0.0-91.0-3.0", "time_elapsed": 619336, "key_press": -1, "trial_index": 121}, "uniqueid": "MTK2050:37WLF8U1WQX175EVFGP3OG95X5B6KQ", "dateTime": 1516659720222}, {"current_trial": 122, "trialdata": {"rt": -1, "trial_type": "single-stim", "stimulus": "<p id=\"stim\">6</p>", "internal_node_id": "0.0-91.0-4.0", "time_elapsed": 620340, "key_press": -1, "trial_index": 122}, "uniqueid": "MTK2050:37WLF8U1WQX175EVFGP3OG95X5B6KQ", "dateTime": 1516659721226}, {"current_trial": 123, "trialdata": {"rt": -1, "trial_type": "single-stim", "stimulus": "<p id=\"stim\">5</p>", "internal_node_id": "0.0-91.0-5.0", "time_elapsed": 621343, "key_press": -1, "trial_index": 123}, "uniqueid": "MTK2050:37WLF8U1WQX175EVFGP3OG95X5B6KQ", "dateTime": 1516659722229}, {"current_trial": 124, "trialdata": {"rt": -1, "trial_type": "single-stim", "stimulus": "<p id=\"stim\">4</p>", "internal_node_id": "0.0-91.0-6.0", "time_elapsed": 622348, "key_press": -1, "trial_index": 124}, "uniqueid": "MTK2050:37WLF8U1WQX175EVFGP3OG95X5B6KQ", "dateTime": 1516659723234}, {"current_trial": 125, "trialdata": {"rt": -1, "trial_type": "single-stim", "stimulus": "<p id=\"stim\">3</p>", "internal_node_id": "0.0-91.0-7.0", "time_elapsed": 623352, "key_press": -1, "trial_index": 125}, "uniqueid": "MTK2050:37WLF8U1WQX175EVFGP3OG95X5B6KQ", "dateTime": 1516659724238}, {"current_trial": 126, "trialdata": {"rt": -1, "trial_type": "single-stim", "stimulus": "<p id=\"stim\">2</p>", "internal_node_id": "0.0-91.0-8.0", "time_elapsed": 624356, "key_press": -1, "trial_index": 126}, "uniqueid": "MTK2050:37WLF8U1WQX175EVFGP3OG95X5B6KQ", "dateTime": 1516659725242}, {"current_trial": 127, "trialdata": {"rt": -1, "trial_type": "single-stim", "stimulus": "<p id=\"stim\">1</p>", "internal_node_id": "0.0-91.0-9.0", "time_elapsed": 625360, "key_press": -1, "trial_index": 127}, "uniqueid": "MTK2050:37WLF8U1WQX175EVFGP3OG95X5B6KQ", "dateTime": 1516659726246}, {"current_trial": 128, "trialdata": {"rt": -1, "trial_type": "single-stim", "stimulus": "<p id=\"stim\">+</p>", "internal_node_id": "0.0-92.0-0.0", "time_elapsed": 626863, "key_press": -1, "type": "FIXATION", "trial_index": 128}, "uniqueid": "MTK2050:37WLF8U1WQX175EVFGP3OG95X5B6KQ", "dateTime": 1516659727749}, {"current_trial": 129, "trialdata": {"rt": -1, "trial_type": "single-stim", "word": "piston", "stimulus": "<p id=\"stim\">PISTON</p>", "conditions": [24, 800, "v", 12000], "internal_node_id": "0.0-93.0", "trial": 3, "time_elapsed": 627664, "serialpos": 0, "key_press": -1, "wordID": 1075, "type": "PRES_VIS", "trial_index": 129}, "uniqueid": "MTK2050:37WLF8U1WQX175EVFGP3OG95X5B6KQ", "dateTime": 1516659728551}, {"current_trial": 130, "trialdata": {"rt": -1, "trial_type": "single-stim", "word": "mailbox", "stimulus": "<p id=\"stim\">MAILBOX</p>", "conditions": [24, 800, "v", 12000], "internal_node_id": "0.0-94.0", "trial": 3, "time_elapsed": 629486, "serialpos": 1, "key_press": -1, "wordID": 856, "type": "PRES_VIS", "trial_index": 130}, "uniqueid": "MTK2050:37WLF8U1WQX175EVFGP3OG95X5B6KQ", "dateTime": 1516659730372}, {"current_trial": 131, "trialdata": {"rt": -1, "trial_type": "single-stim", "word": "panther", "stimulus": "<p id=\"stim\">PANTHER</p>", "conditions": [24, 800, "v", 12000], "internal_node_id": "0.0-95.0", "trial": 3, "time_elapsed": 631469, "serialpos": 2, "key_press": -1, "wordID": 1008, "type": "PRES_VIS", "trial_index": 131}, "uniqueid": "MTK2050:37WLF8U1WQX175EVFGP3OG95X5B6KQ", "dateTime": 1516659732355}, {"current_trial": 132, "trialdata": {"rt": -1, "trial_type": "single-stim", "word": "turtle", "stimulus": "<p id=\"stim\">TURTLE</p>", "conditions": [24, 800, "v", 12000], "internal_node_id": "0.0-96.0", "trial": 3, "time_elapsed": 633247, "serialpos": 3, "key_press": -1, "wordID": 1521, "type": "PRES_VIS", "trial_index": 132}, "uniqueid": "MTK2050:37WLF8U1WQX175EVFGP3OG95X5B6KQ", "dateTime": 1516659734133}, {"current_trial": 133, "trialdata": {"rt": -1, "trial_type": "single-stim", "word": "shortcake", "stimulus": "<p id=\"stim\">SHORTCAKE</p>", "conditions": [24, 800, "v", 12000], "internal_node_id": "0.0-97.0", "trial": 3, "time_elapsed": 635006, "serialpos": 4, "key_press": -1, "wordID": 1291, "type": "PRES_VIS", "trial_index": 133}, "uniqueid": "MTK2050:37WLF8U1WQX175EVFGP3OG95X5B6KQ", "dateTime": 1516659735892}, {"current_trial": 134, "trialdata": {"rt": -1, "trial_type": "single-stim", "word": "trombone", "stimulus": "<p id=\"stim\">TROMBONE</p>", "conditions": [24, 800, "v", 12000], "internal_node_id": "0.0-98.0", "trial": 3, "time_elapsed": 636625, "serialpos": 5, "key_press": -1, "wordID": 1507, "type": "PRES_VIS", "trial_index": 134}, "uniqueid": "MTK2050:37WLF8U1WQX175EVFGP3OG95X5B6KQ", "dateTime": 1516659737511}, {"current_trial": 135, "trialdata": {"rt": -1, "trial_type": "single-stim", "word": "knapsack", "stimulus": "<p id=\"stim\">KNAPSACK</p>", "conditions": [24, 800, "v", 12000], "internal_node_id": "0.0-99.0", "trial": 3, "time_elapsed": 638337, "serialpos": 6, "key_press": -1, "wordID": 782, "type": "PRES_VIS", "trial_index": 135}, "uniqueid": "MTK2050:37WLF8U1WQX175EVFGP3OG95X5B6KQ", "dateTime": 1516659739224}, {"current_trial": 136, "trialdata": {"rt": -1, "trial_type": "single-stim", "word": "hand", "stimulus": "<p id=\"stim\">HAND</p>", "conditions": [24, 800, "v", 12000], "internal_node_id": "0.0-100.0", "trial": 3, "time_elapsed": 640107, "serialpos": 7, "key_press": -1, "wordID": 682, "type": "PRES_VIS", "trial_index": 136}, "uniqueid": "MTK2050:37WLF8U1WQX175EVFGP3OG95X5B6KQ", "dateTime": 1516659740994}, {"current_trial": 137, "trialdata": {"rt": -1, "trial_type": "single-stim", "word": "burglar", "stimulus": "<p id=\"stim\">BURGLAR</p>", "conditions": [24, 800, "v", 12000], "internal_node_id": "0.0-101.0", "trial": 3, "time_elapsed": 642098, "serialpos": 8, "key_press": -1, "wordID": 199, "type": "PRES_VIS", "trial_index": 137}, "uniqueid": "MTK2050:37WLF8U1WQX175EVFGP3OG95X5B6KQ", "dateTime": 1516659742984}, {"current_trial": 138, "trialdata": {"rt": -1, "trial_type": "single-stim", "word": "coin", "stimulus": "<p id=\"stim\">COIN</p>", "conditions": [24, 800, "v", 12000], "internal_node_id": "0.0-102.0", "trial": 3, "time_elapsed": 643950, "serialpos": 9, "key_press": -1, "wordID": 342, "type": "PRES_VIS", "trial_index": 138}, "uniqueid": "MTK2050:37WLF8U1WQX175EVFGP3OG95X5B6KQ", "dateTime": 1516659744836}, {"current_trial": 139, "trialdata": {"rt": -1, "trial_type": "single-stim", "word": "rooster", "stimulus": "<p id=\"stim\">ROOSTER</p>", "conditions": [24, 800, "v", 12000], "internal_node_id": "0.0-103.0", "trial": 3, "time_elapsed": 645923, "serialpos": 10, "key_press": -1, "wordID": 1208, "type": "PRES_VIS", "trial_index": 139}, "uniqueid": "MTK2050:37WLF8U1WQX175EVFGP3OG95X5B6KQ", "dateTime": 1516659746809}, {"current_trial": 140, "trialdata": {"rt": -1, "trial_type": "single-stim", "word": "pastry", "stimulus": "<p id=\"stim\">PASTRY</p>", "conditions": [24, 800, "v", 12000], "internal_node_id": "0.0-104.0", "trial": 3, "time_elapsed": 647577, "serialpos": 11, "key_press": -1, "wordID": 1021, "type": "PRES_VIS", "trial_index": 140}, "uniqueid": "MTK2050:37WLF8U1WQX175EVFGP3OG95X5B6KQ", "dateTime": 1516659748463}, {"current_trial": 141, "trialdata": {"rt": -1, "trial_type": "single-stim", "word": "beef", "stimulus": "<p id=\"stim\">BEEF</p>", "conditions": [24, 800, "v", 12000], "internal_node_id": "0.0-105.0", "trial": 3, "time_elapsed": 649278, "serialpos": 12, "key_press": -1, "wordID": 112, "type": "PRES_VIS", "trial_index": 141}, "uniqueid": "MTK2050:37WLF8U1WQX175EVFGP3OG95X5B6KQ", "dateTime": 1516659750164}, {"current_trial": 142, "trialdata": {"rt": -1, "trial_type": "single-stim", "word": "dentist", "stimulus": "<p id=\"stim\">DENTIST</p>", "conditions": [24, 800, "v", 12000], "internal_node_id": "0.0-106.0", "trial": 3, "time_elapsed": 650931, "serialpos": 13, "key_press": -1, "wordID": 446, "type": "PRES_VIS", "trial_index": 142}, "uniqueid": "MTK2050:37WLF8U1WQX175EVFGP3OG95X5B6KQ", "dateTime": 1516659751818}, {"current_trial": 143, "trialdata": {"rt": -1, "trial_type": "single-stim", "word": "keeper", "stimulus": "<p id=\"stim\">KEEPER</p>", "conditions": [24, 800, "v", 12000], "internal_node_id": "0.0-107.0", "trial": 3, "time_elapsed": 652557, "serialpos": 14, "key_press": -1, "wordID": 768, "type": "PRES_VIS", "trial_index": 143}, "uniqueid": "MTK2050:37WLF8U1WQX175EVFGP3OG95X5B6KQ", "dateTime": 1516659753443}, {"current_trial": 144, "trialdata": {"rt": -1, "trial_type": "single-stim", "word": "forehead", "stimulus": "<p id=\"stim\">FOREHEAD</p>", "conditions": [24, 800, "v", 12000], "internal_node_id": "0.0-108.0", "trial": 3, "time_elapsed": 654333, "serialpos": 15, "key_press": -1, "wordID": 591, "type": "PRES_VIS", "trial_index": 144}, "uniqueid": "MTK2050:37WLF8U1WQX175EVFGP3OG95X5B6KQ", "dateTime": 1516659755219}, {"current_trial": 145, "trialdata": {"rt": -1, "trial_type": "single-stim", "word": "chest", "stimulus": "<p id=\"stim\">CHEST</p>", "conditions": [24, 800, "v", 12000], "internal_node_id": "0.0-109.0", "trial": 3, "time_elapsed": 656277, "serialpos": 16, "key_press": -1, "wordID": 294, "type": "PRES_VIS", "trial_index": 145}, "uniqueid": "MTK2050:37WLF8U1WQX175EVFGP3OG95X5B6KQ", "dateTime": 1516659757163}, {"current_trial": 146, "trialdata": {"rt": -1, "trial_type": "single-stim", "word": "pork", "stimulus": "<p id=\"stim\">PORK</p>", "conditions": [24, 800, "v", 12000], "internal_node_id": "0.0-110.0", "trial": 3, "time_elapsed": 658140, "serialpos": 17, "key_press": -1, "wordID": 1107, "type": "PRES_VIS", "trial_index": 146}, "uniqueid": "MTK2050:37WLF8U1WQX175EVFGP3OG95X5B6KQ", "dateTime": 1516659759027}, {"current_trial": 147, "trialdata": {"rt": -1, "trial_type": "single-stim", "word": "peach", "stimulus": "<p id=\"stim\">PEACH</p>", "conditions": [24, 800, "v", 12000], "internal_node_id": "0.0-111.0", "trial": 3, "time_elapsed": 660095, "serialpos": 18, "key_press": -1, "wordID": 1030, "type": "PRES_VIS", "trial_index": 147}, "uniqueid": "MTK2050:37WLF8U1WQX175EVFGP3OG95X5B6KQ", "dateTime": 1516659760982}, {"current_trial": 148, "trialdata": {"rt": -1, "trial_type": "single-stim", "word": "france", "stimulus": "<p id=\"stim\">FRANCE</p>", "conditions": [24, 800, "v", 12000], "internal_node_id": "0.0-112.0", "trial": 3, "time_elapsed": 661837, "serialpos": 19, "key_press": -1, "wordID": 600, "type": "PRES_VIS", "trial_index": 148}, "uniqueid": "MTK2050:37WLF8U1WQX175EVFGP3OG95X5B6KQ", "dateTime": 1516659762723}, {"current_trial": 149, "trialdata": {"rt": -1, "trial_type": "single-stim", "word": "venus", "stimulus": "<p id=\"stim\">VENUS</p>", "conditions": [24, 800, "v", 12000], "internal_node_id": "0.0-113.0", "trial": 3, "time_elapsed": 663451, "serialpos": 20, "key_press": -1, "wordID": 1556, "type": "PRES_VIS", "trial_index": 149}, "uniqueid": "MTK2050:37WLF8U1WQX175EVFGP3OG95X5B6KQ", "dateTime": 1516659764337}, {"current_trial": 150, "trialdata": {"rt": -1, "trial_type": "single-stim", "word": "stallion", "stimulus": "<p id=\"stim\">STALLION</p>", "conditions": [24, 800, "v", 12000], "internal_node_id": "0.0-114.0", "trial": 3, "time_elapsed": 665284, "serialpos": 21, "key_press": -1, "wordID": 1368, "type": "PRES_VIS", "trial_index": 150}, "uniqueid": "MTK2050:37WLF8U1WQX175EVFGP3OG95X5B6KQ", "dateTime": 1516659766170}, {"current_trial": 151, "trialdata": {"rt": -1, "trial_type": "single-stim", "word": "church", "stimulus": "<p id=\"stim\">CHURCH</p>", "conditions": [24, 800, "v", 12000], "internal_node_id": "0.0-115.0", "trial": 3, "time_elapsed": 667258, "serialpos": 22, "key_press": -1, "wordID": 306, "type": "PRES_VIS", "trial_index": 151}, "uniqueid": "MTK2050:37WLF8U1WQX175EVFGP3OG95X5B6KQ", "dateTime": 1516659768144}, {"current_trial": 152, "trialdata": {"rt": -1, "trial_type": "single-stim", "word": "plaid", "stimulus": "<p id=\"stim\">PLAID</p>", "conditions": [24, 800, "v", 12000], "internal_node_id": "0.0-116.0", "trial": 3, "time_elapsed": 669230, "serialpos": 23, "key_press": -1, "wordID": 1079, "type": "PRES_VIS", "trial_index": 152}, "uniqueid": "MTK2050:37WLF8U1WQX175EVFGP3OG95X5B6KQ", "dateTime": 1516659770117}, {"current_trial": 153, "trialdata": {"rt": -1, "trial_type": "single-stim", "stimulus": "", "internal_node_id": "0.0-117.0-0.0", "time_elapsed": 671552, "key_press": -1, "type": "PRE_RECALL_DELAY", "trial_index": 153}, "uniqueid": "MTK2050:37WLF8U1WQX175EVFGP3OG95X5B6KQ", "dateTime": 1516659772438}, {"current_trial": 154, "trialdata": {"rt": -1000, "trial_type": "single-audio", "stimulus": "/static/audio/400Hz.wav", "internal_node_id": "0.0-118.0", "time_elapsed": 672053, "key_press": -1, "type": "PRE_RECALL_ALERT", "trial_index": 154}, "uniqueid": "MTK2050:37WLF8U1WQX175EVFGP3OG95X5B6KQ", "dateTime": 1516659772939}, {"current_trial": 155, "trialdata": {"rt": [1308, 2700, 4700, 7588, 9836, 11404, 14700, 21868, 24845, 29644, 47084, 56292], "recwords": ["pork", "peach", "plaid", "venice", "mailbox", "piston", "burglar", "panther", "mailbox", "shortcake", "trombone", "pork"], "key_times": [414, 644, 844, 1004, 1308, 1821, 2004, 2092, 2292, 2468, 2700, 3701, 3844, 4036, 4132, 4388, 4700, 6245, 6524, 6724, 6868, 7252, 7396, 7588, 8540, 8692, 8764, 8876, 9428, 9516, 9621, 9836, 10188, 10548, 10700, 10988, 11116, 11236, 11404, 12741, 12932, 13068, 13797, 13980, 14364, 14484, 14700, 18693, 18876, 19022, 19292, 19997, 20236, 20428, 21181, 21404, 21556, 21629, 21868, 22429, 22517, 22988, 23252, 23420, 23692, 24236, 24317, 24613, 24845, 26788, 26916, 27020, 27124, 27308, 27620, 27796, 28572, 28604, 28972, 29139, 29324, 29476, 29644, 45229, 45461, 45765, 45925, 46180, 46500, 46788, 46957, 47084, 53661, 53668, 54220, 54580, 54812, 55012, 55397, 55572, 55755, 55868, 56292], "trial_type": "free-recall", "conditions": [24, 800, "v", 12000], "internal_node_id": "0.0-119.0-0.0", "key_presses": [80, 79, 82, 75, 13, 80, 69, 65, 67, 72, 13, 80, 76, 65, 73, 68, 13, 86, 69, 78, 73, 67, 69, 13, 77, 65, 73, 76, 66, 79, 88, 13, 80, 73, 83, 84, 79, 78, 13, 66, 85, 82, 71, 76, 65, 82, 13, 80, 65, 78, 84, 72, 65, 82, 8, 8, 69, 82, 13, 77, 73, 8, 65, 73, 76, 66, 79, 88, 13, 83, 72, 79, 82, 84, 67, 65, 69, 75, 8, 8, 75, 69, 13, 84, 82, 79, 77, 66, 79, 78, 69, 13, 79, 80, 220, 8, 8, 8, 80, 79, 82, 75, 13], "trial": 3, "time_elapsed": 732058, "type": "FREE_RECALL", "trial_index": 155}, "uniqueid": "MTK2050:37WLF8U1WQX175EVFGP3OG95X5B6KQ", "dateTime": 1516659832947}, {"current_trial": 156, "trialdata": {"rt": 1003, "trial_type": "text", "internal_node_id": "0.0-120.0", "time_elapsed": 735068, "key_press": 32, "type": "INSTRUCTIONS", "trial_index": 156}, "uniqueid": "MTK2050:37WLF8U1WQX175EVFGP3OG95X5B6KQ", "dateTime": 1516659835955}, {"current_trial": 157, "trialdata": {"rt": [5196, 7180, 9428, 11428, 13796, 16491, 19748, 22812], "trial_type": "math-distractor", "key_times": [4902, 4972, 5196, 6909, 7092, 7180, 9012, 9292, 9428, 10900, 11212, 11428, 13501, 13706, 13796, 16285, 16404, 16491, 19557, 19659, 19748, 22612, 22684, 22812], "responses": ["16", "11", "16", "17", "17", "20", "17", "12"], "num2": [5, 8, 7, 7, 7, 4, 2, 8, 3], "num3": [3, 1, 7, 9, 5, 8, 8, 3, 8], "conditions": [12, 1600, "v", 24000], "internal_node_id": "0.0-121.0", "key_presses": [49, 54, 13, 49, 49, 13, 49, 54, 13, 49, 55, 13, 49, 55, 13, 50, 48, 13, 49, 55, 13, 49, 50, 13], "trial": 4, "time_elapsed": 761077, "type": "DISTRACTOR", "trial_index": 157, "num1": [8, 2, 2, 1, 5, 8, 6, 1, 4]}, "uniqueid": "MTK2050:37WLF8U1WQX175EVFGP3OG95X5B6KQ", "dateTime": 1516659861963}, {"current_trial": 158, "trialdata": {"rt": -1, "trial_type": "single-stim", "stimulus": "<p id=\"stim\">10</p>", "internal_node_id": "0.0-122.0-0.0", "time_elapsed": 764083, "key_press": -1, "trial_index": 158}, "uniqueid": "MTK2050:37WLF8U1WQX175EVFGP3OG95X5B6KQ", "dateTime": 1516659864969}, {"current_trial": 159, "trialdata": {"rt": -1, "trial_type": "single-stim", "stimulus": "<p id=\"stim\">9</p>", "internal_node_id": "0.0-122.0-1.0", "time_elapsed": 765088, "key_press": -1, "trial_index": 159}, "uniqueid": "MTK2050:37WLF8U1WQX175EVFGP3OG95X5B6KQ", "dateTime": 1516659865974}, {"current_trial": 160, "trialdata": {"rt": -1, "trial_type": "single-stim", "stimulus": "<p id=\"stim\">8</p>", "internal_node_id": "0.0-122.0-2.0", "time_elapsed": 766091, "key_press": -1, "trial_index": 160}, "uniqueid": "MTK2050:37WLF8U1WQX175EVFGP3OG95X5B6KQ", "dateTime": 1516659866977}, {"current_trial": 161, "trialdata": {"rt": -1, "trial_type": "single-stim", "stimulus": "<p id=\"stim\">7</p>", "internal_node_id": "0.0-122.0-3.0", "time_elapsed": 767095, "key_press": -1, "trial_index": 161}, "uniqueid": "MTK2050:37WLF8U1WQX175EVFGP3OG95X5B6KQ", "dateTime": 1516659867981}, {"current_trial": 162, "trialdata": {"rt": -1, "trial_type": "single-stim", "stimulus": "<p id=\"stim\">6</p>", "internal_node_id": "0.0-122.0-4.0", "time_elapsed": 768099, "key_press": -1, "trial_index": 162}, "uniqueid": "MTK2050:37WLF8U1WQX175EVFGP3OG95X5B6KQ", "dateTime": 1516659868985}, {"current_trial": 163, "trialdata": {"rt": -1, "trial_type": "single-stim", "stimulus": "<p id=\"stim\">5</p>", "internal_node_id": "0.0-122.0-5.0", "time_elapsed": 769103, "key_press": -1, "trial_index": 163}, "uniqueid": "MTK2050:37WLF8U1WQX175EVFGP3OG95X5B6KQ", "dateTime": 1516659869990}, {"current_trial": 164, "trialdata": {"rt": -1, "trial_type": "single-stim", "stimulus": "<p id=\"stim\">4</p>", "internal_node_id": "0.0-122.0-6.0", "time_elapsed": 770107, "key_press": -1, "trial_index": 164}, "uniqueid": "MTK2050:37WLF8U1WQX175EVFGP3OG95X5B6KQ", "dateTime": 1516659870993}, {"current_trial": 165, "trialdata": {"rt": -1, "trial_type": "single-stim", "stimulus": "<p id=\"stim\">3</p>", "internal_node_id": "0.0-122.0-7.0", "time_elapsed": 771111, "key_press": -1, "trial_index": 165}, "uniqueid": "MTK2050:37WLF8U1WQX175EVFGP3OG95X5B6KQ", "dateTime": 1516659871998}, {"current_trial": 166, "trialdata": {"rt": -1, "trial_type": "single-stim", "stimulus": "<p id=\"stim\">2</p>", "internal_node_id": "0.0-122.0-8.0", "time_elapsed": 772116, "key_press": -1, "trial_index": 166}, "uniqueid": "MTK2050:37WLF8U1WQX175EVFGP3OG95X5B6KQ", "dateTime": 1516659873002}, {"current_trial": 167, "trialdata": {"rt": -1, "trial_type": "single-stim", "stimulus": "<p id=\"stim\">1</p>", "internal_node_id": "0.0-122.0-9.0", "time_elapsed": 773119, "key_press": -1, "trial_index": 167}, "uniqueid": "MTK2050:37WLF8U1WQX175EVFGP3OG95X5B6KQ", "dateTime": 1516659874005}, {"current_trial": 168, "trialdata": {"rt": -1, "trial_type": "single-stim", "stimulus": "<p id=\"stim\">+</p>", "internal_node_id": "0.0-123.0-0.0", "time_elapsed": 774623, "key_press": -1, "type": "FIXATION", "trial_index": 168}, "uniqueid": "MTK2050:37WLF8U1WQX175EVFGP3OG95X5B6KQ", "dateTime": 1516659875509}, {"current_trial": 169, "trialdata": {"rt": -1, "trial_type": "single-stim", "word": "crater", "stimulus": "<p id=\"stim\">CRATER</p>", "conditions": [12, 1600, "v", 24000], "internal_node_id": "0.0-124.0", "trial": 4, "time_elapsed": 776224, "serialpos": 0, "key_press": -1, "wordID": 399, "type": "PRES_VIS", "trial_index": 169}, "uniqueid": "MTK2050:37WLF8U1WQX175EVFGP3OG95X5B6KQ", "dateTime": 1516659877111}, {"current_trial": 170, "trialdata": {"rt": -1, "trial_type": "single-stim", "word": "lava", "stimulus": "<p id=\"stim\">LAVA</p>", "conditions": [12, 1600, "v", 24000], "internal_node_id": "0.0-125.0", "trial": 4, "time_elapsed": 778964, "serialpos": 1, "key_press": -1, "wordID": 803, "type": "PRES_VIS", "trial_index": 170}, "uniqueid": "MTK2050:37WLF8U1WQX175EVFGP3OG95X5B6KQ", "dateTime": 1516659879850}, {"current_trial": 171, "trialdata": {"rt": -1, "trial_type": "single-stim", "word": "leopard", "stimulus": "<p id=\"stim\">LEOPARD</p>", "conditions": [12, 1600, "v", 24000], "internal_node_id": "0.0-126.0", "trial": 4, "time_elapsed": 781634, "serialpos": 2, "key_press": -1, "wordID": 811, "type": "PRES_VIS", "trial_index": 171}, "uniqueid": "MTK2050:37WLF8U1WQX175EVFGP3OG95X5B6KQ", "dateTime": 1516659882520}, {"current_trial": 172, "trialdata": {"rt": -1, "trial_type": "single-stim", "word": "thief", "stimulus": "<p id=\"stim\">THIEF</p>", "conditions": [12, 1600, "v", 24000], "internal_node_id": "0.0-127.0", "trial": 4, "time_elapsed": 784083, "serialpos": 3, "key_press": -1, "wordID": 1455, "type": "PRES_VIS", "trial_index": 172}, "uniqueid": "MTK2050:37WLF8U1WQX175EVFGP3OG95X5B6KQ", "dateTime": 1516659884969}, {"current_trial": 173, "trialdata": {"rt": -1, "trial_type": "single-stim", "word": "radish", "stimulus": "<p id=\"stim\">RADISH</p>", "conditions": [12, 1600, "v", 24000], "internal_node_id": "0.0-128.0", "trial": 4, "time_elapsed": 786561, "serialpos": 4, "key_press": -1, "wordID": 1157, "type": "PRES_VIS", "trial_index": 173}, "uniqueid": "MTK2050:37WLF8U1WQX175EVFGP3OG95X5B6KQ", "dateTime": 1516659887448}, {"current_trial": 174, "trialdata": {"rt": -1, "trial_type": "single-stim", "word": "sausage", "stimulus": "<p id=\"stim\">SAUSAGE</p>", "conditions": [12, 1600, "v", 24000], "internal_node_id": "0.0-129.0", "trial": 4, "time_elapsed": 789057, "serialpos": 5, "key_press": -1, "wordID": 1237, "type": "PRES_VIS", "trial_index": 174}, "uniqueid": "MTK2050:37WLF8U1WQX175EVFGP3OG95X5B6KQ", "dateTime": 1516659889943}, {"current_trial": 175, "trialdata": {"rt": -1, "trial_type": "single-stim", "word": "parsley", "stimulus": "<p id=\"stim\">PARSLEY</p>", "conditions": [12, 1600, "v", 24000], "internal_node_id": "0.0-130.0", "trial": 4, "time_elapsed": 791837, "serialpos": 6, "key_press": -1, "wordID": 1015, "type": "PRES_VIS", "trial_index": 175}, "uniqueid": "MTK2050:37WLF8U1WQX175EVFGP3OG95X5B6KQ", "dateTime": 1516659892723}, {"current_trial": 176, "trialdata": {"rt": -1, "trial_type": "single-stim", "word": "scallop", "stimulus": "<p id=\"stim\">SCALLOP</p>", "conditions": [12, 1600, "v", 24000], "internal_node_id": "0.0-131.0", "trial": 4, "time_elapsed": 794350, "serialpos": 7, "key_press": -1, "wordID": 1241, "type": "PRES_VIS", "trial_index": 176}, "uniqueid": "MTK2050:37WLF8U1WQX175EVFGP3OG95X5B6KQ", "dateTime": 1516659895237}, {"current_trial": 177, "trialdata": {"rt": -1, "trial_type": "single-stim", "word": "dragon", "stimulus": "<p id=\"stim\">DRAGON</p>", "conditions": [12, 1600, "v", 24000], "internal_node_id": "0.0-132.0", "trial": 4, "time_elapsed": 796997, "serialpos": 8, "key_press": -1, "wordID": 491, "type": "PRES_VIS", "trial_index": 177}, "uniqueid": "MTK2050:37WLF8U1WQX175EVFGP3OG95X5B6KQ", "dateTime": 1516659897883}, {"current_trial": 178, "trialdata": {"rt": -1, "trial_type": "single-stim", "word": "sandwich", "stimulus": "<p id=\"stim\">SANDWICH</p>", "conditions": [12, 1600, "v", 24000], "internal_node_id": "0.0-133.0", "trial": 4, "time_elapsed": 799787, "serialpos": 9, "key_press": -1, "wordID": 1231, "type": "PRES_VIS", "trial_index": 178}, "uniqueid": "MTK2050:37WLF8U1WQX175EVFGP3OG95X5B6KQ", "dateTime": 1516659900673}, {"current_trial": 179, "trialdata": {"rt": -1, "trial_type": "single-stim", "word": "bison", "stimulus": "<p id=\"stim\">BISON</p>", "conditions": [12, 1600, "v", 24000], "internal_node_id": "0.0-134.0", "trial": 4, "time_elapsed": 802400, "serialpos": 10, "key_press": -1, "wordID": 130, "type": "PRES_VIS", "trial_index": 179}, "uniqueid": "MTK2050:37WLF8U1WQX175EVFGP3OG95X5B6KQ", "dateTime": 1516659903286}, {"current_trial": 180, "trialdata": {"rt": -1, "trial_type": "single-stim", "word": "bike", "stimulus": "<p id=\"stim\">BIKE</p>", "conditions": [12, 1600, "v", 24000], "internal_node_id": "0.0-135.0", "trial": 4, "time_elapsed": 805058, "serialpos": 11, "key_press": -1, "wordID": 124, "type": "PRES_VIS", "trial_index": 180}, "uniqueid": "MTK2050:37WLF8U1WQX175EVFGP3OG95X5B6KQ", "dateTime": 1516659905944}, {"current_trial": 181, "trialdata": {"rt": -1, "trial_type": "single-stim", "stimulus": "", "internal_node_id": "0.0-136.0-0.0", "time_elapsed": 807473, "key_press": -1, "type": "PRE_RECALL_DELAY", "trial_index": 181}, "uniqueid": "MTK2050:37WLF8U1WQX175EVFGP3OG95X5B6KQ", "dateTime": 1516659908359}, {"current_trial": 182, "trialdata": {"rt": -1000, "trial_type": "single-audio", "stimulus": "/static/audio/400Hz.wav", "internal_node_id": "0.0-137.0", "time_elapsed": 807974, "key_press": -1, "type": "PRE_RECALL_ALERT", "trial_index": 182}, "uniqueid": "MTK2050:37WLF8U1WQX175EVFGP3OG95X5B6KQ", "dateTime": 1516659908860}, {"current_trial": 183, "trialdata": {"rt": [1761, 2873, 4121, 7593, 10417, 14689, 19737, 22833, 29521, 44076], "recwords": ["bison", "bike", "dragon", "crator", "lava", "leopard", "parsley", "sandwhich", "pork", "mail"], "key_times": [891, 993, 1130, 1273, 1401, 1761, 2362, 2465, 2625, 2737, 2873, 3153, 3370, 3473, 3825, 3889, 4001, 4121, 5858, 6097, 6209, 6897, 7137, 7321, 7593, 9729, 9817, 10113, 10225, 10417, 12498, 12881, 13153, 13298, 13721, 14089, 14425, 14689, 17066, 17201, 17337, 17681, 17817, 18121, 18682, 19081, 19489, 19737, 20634, 20793, 20985, 21402, 21929, 22161, 22330, 22530, 22609, 22833, 28674, 28795, 29265, 29393, 29521, 41151, 41220, 41388, 42332, 42541, 42740, 42901, 43236, 43316, 43548, 43784, 44076], "trial_type": "free-recall", "conditions": [12, 1600, "v", 24000], "internal_node_id": "0.0-138.0-0.0", "key_presses": [66, 73, 83, 79, 78, 13, 66, 73, 75, 69, 13, 68, 82, 65, 71, 79, 78, 13, 67, 82, 65, 84, 79, 82, 13, 76, 65, 86, 65, 13, 76, 69, 79, 80, 65, 82, 68, 13, 80, 65, 83, 8, 82, 83, 76, 69, 89, 13, 83, 65, 78, 68, 87, 72, 73, 67, 72, 13, 80, 79, 82, 75, 13, 66, 79, 88, 8, 8, 8, 8, 77, 65, 73, 76, 13], "trial": 4, "time_elapsed": 867978, "type": "FREE_RECALL", "trial_index": 183}, "uniqueid": "MTK2050:37WLF8U1WQX175EVFGP3OG95X5B6KQ", "dateTime": 1516659968867}, {"current_trial": 184, "trialdata": {"rt": 929, "trial_type": "text", "internal_node_id": "0.0-139.0", "time_elapsed": 870915, "key_press": 32, "type": "INSTRUCTIONS", "trial_index": 184}, "uniqueid": "MTK2050:37WLF8U1WQX175EVFGP3OG95X5B6KQ", "dateTime": 1516659971802}, {"current_trial": 185, "trialdata": {"rt": [3943, 9151, 11919], "trial_type": "math-distractor", "key_times": [2832, 3575, 3943, 8817, 8975, 9151, 11663, 11843, 11919], "responses": ["15", "16", "11"], "num2": [6, 5, 2, 2], "num3": [1, 2, 4, 7], "conditions": [24, 1600, "v", 12000], "internal_node_id": "0.0-140.0", "key_presses": [49, 53, 13, 49, 54, 13, 49, 49, 13], "trial": 5, "time_elapsed": 884920, "type": "DISTRACTOR", "trial_index": 185, "num1": [4, 7, 5, 6]}, "uniqueid": "MTK2050:37WLF8U1WQX175EVFGP3OG95X5B6KQ", "dateTime": 1516659985806}, {"current_trial": 186, "trialdata": {"rt": -1, "trial_type": "single-stim", "stimulus": "<p id=\"stim\">10</p>", "internal_node_id": "0.0-141.0-0.0", "time_elapsed": 887925, "key_press": -1, "trial_index": 186}, "uniqueid": "MTK2050:37WLF8U1WQX175EVFGP3OG95X5B6KQ", "dateTime": 1516659988812}, {"current_trial": 187, "trialdata": {"rt": -1, "trial_type": "single-stim", "stimulus": "<p id=\"stim\">9</p>", "internal_node_id": "0.0-141.0-1.0", "time_elapsed": 888930, "key_press": -1, "trial_index": 187}, "uniqueid": "MTK2050:37WLF8U1WQX175EVFGP3OG95X5B6KQ", "dateTime": 1516659989816}, {"current_trial": 188, "trialdata": {"rt": -1, "trial_type": "single-stim", "stimulus": "<p id=\"stim\">8</p>", "internal_node_id": "0.0-141.0-2.0", "time_elapsed": 889934, "key_press": -1, "trial_index": 188}, "uniqueid": "MTK2050:37WLF8U1WQX175EVFGP3OG95X5B6KQ", "dateTime": 1516659990820}, {"current_trial": 189, "trialdata": {"rt": -1, "trial_type": "single-stim", "stimulus": "<p id=\"stim\">7</p>", "internal_node_id": "0.0-141.0-3.0", "time_elapsed": 890938, "key_press": -1, "trial_index": 189}, "uniqueid": "MTK2050:37WLF8U1WQX175EVFGP3OG95X5B6KQ", "dateTime": 1516659991824}, {"current_trial": 190, "trialdata": {"rt": -1, "trial_type": "single-stim", "stimulus": "<p id=\"stim\">6</p>", "internal_node_id": "0.0-141.0-4.0", "time_elapsed": 891942, "key_press": -1, "trial_index": 190}, "uniqueid": "MTK2050:37WLF8U1WQX175EVFGP3OG95X5B6KQ", "dateTime": 1516659992828}, {"current_trial": 191, "trialdata": {"rt": -1, "trial_type": "single-stim", "stimulus": "<p id=\"stim\">5</p>", "internal_node_id": "0.0-141.0-5.0", "time_elapsed": 892946, "key_press": -1, "trial_index": 191}, "uniqueid": "MTK2050:37WLF8U1WQX175EVFGP3OG95X5B6KQ", "dateTime": 1516659993832}, {"current_trial": 192, "trialdata": {"rt": -1, "trial_type": "single-stim", "stimulus": "<p id=\"stim\">4</p>", "internal_node_id": "0.0-141.0-6.0", "time_elapsed": 893948, "key_press": -1, "trial_index": 192}, "uniqueid": "MTK2050:37WLF8U1WQX175EVFGP3OG95X5B6KQ", "dateTime": 1516659994834}, {"current_trial": 193, "trialdata": {"rt": -1, "trial_type": "single-stim", "stimulus": "<p id=\"stim\">3</p>", "internal_node_id": "0.0-141.0-7.0", "time_elapsed": 894949, "key_press": -1, "trial_index": 193}, "uniqueid": "MTK2050:37WLF8U1WQX175EVFGP3OG95X5B6KQ", "dateTime": 1516659995835}, {"current_trial": 194, "trialdata": {"rt": -1, "trial_type": "single-stim", "stimulus": "<p id=\"stim\">2</p>", "internal_node_id": "0.0-141.0-8.0", "time_elapsed": 895952, "key_press": -1, "trial_index": 194}, "uniqueid": "MTK2050:37WLF8U1WQX175EVFGP3OG95X5B6KQ", "dateTime": 1516659996838}, {"current_trial": 195, "trialdata": {"rt": -1, "trial_type": "single-stim", "stimulus": "<p id=\"stim\">1</p>", "internal_node_id": "0.0-141.0-9.0", "time_elapsed": 896956, "key_press": -1, "trial_index": 195}, "uniqueid": "MTK2050:37WLF8U1WQX175EVFGP3OG95X5B6KQ", "dateTime": 1516659997842}, {"current_trial": 196, "trialdata": {"rt": -1, "trial_type": "single-stim", "stimulus": "<p id=\"stim\">+</p>", "internal_node_id": "0.0-142.0-0.0", "time_elapsed": 898460, "key_press": -1, "type": "FIXATION", "trial_index": 196}, "uniqueid": "MTK2050:37WLF8U1WQX175EVFGP3OG95X5B6KQ", "dateTime": 1516659999347}, {"current_trial": 197, "trialdata": {"rt": -1, "trial_type": "single-stim", "word": "gift", "stimulus": "<p id=\"stim\">GIFT</p>", "conditions": [24, 1600, "v", 12000], "internal_node_id": "0.0-143.0", "trial": 5, "time_elapsed": 900067, "serialpos": 0, "key_press": -1, "wordID": 634, "type": "PRES_VIS", "trial_index": 197}, "uniqueid": "MTK2050:37WLF8U1WQX175EVFGP3OG95X5B6KQ", "dateTime": 1516660000953}, {"current_trial": 198, "trialdata": {"rt": -1, "trial_type": "single-stim", "word": "skirt", "stimulus": "<p id=\"stim\">SKIRT</p>", "conditions": [24, 1600, "v", 12000], "internal_node_id": "0.0-144.0", "trial": 5, "time_elapsed": 902737, "serialpos": 1, "key_press": -1, "wordID": 1318, "type": "PRES_VIS", "trial_index": 198}, "uniqueid": "MTK2050:37WLF8U1WQX175EVFGP3OG95X5B6KQ", "dateTime": 1516660003623}, {"current_trial": 199, "trialdata": {"rt": -1, "trial_type": "single-stim", "word": "barrel", "stimulus": "<p id=\"stim\">BARREL</p>", "conditions": [24, 1600, "v", 12000], "internal_node_id": "0.0-145.0", "trial": 5, "time_elapsed": 905257, "serialpos": 2, "key_press": -1, "wordID": 90, "type": "PRES_VIS", "trial_index": 199}, "uniqueid": "MTK2050:37WLF8U1WQX175EVFGP3OG95X5B6KQ", "dateTime": 1516660006143}, {"current_trial": 200, "trialdata": {"rt": -1, "trial_type": "single-stim", "word": "champagne", "stimulus": "<p id=\"stim\">CHAMPAGNE</p>", "conditions": [24, 1600, "v", 12000], "internal_node_id": "0.0-146.0", "trial": 5, "time_elapsed": 908059, "serialpos": 3, "key_press": -1, "wordID": 277, "type": "PRES_VIS", "trial_index": 200}, "uniqueid": "MTK2050:37WLF8U1WQX175EVFGP3OG95X5B6KQ", "dateTime": 1516660008945}, {"current_trial": 201, "trialdata": {"rt": -1, "trial_type": "single-stim", "word": "grape", "stimulus": "<p id=\"stim\">GRAPE</p>", "conditions": [24, 1600, "v", 12000], "internal_node_id": "0.0-147.0", "trial": 5, "time_elapsed": 910803, "serialpos": 4, "key_press": -1, "wordID": 653, "type": "PRES_VIS", "trial_index": 201}, "uniqueid": "MTK2050:37WLF8U1WQX175EVFGP3OG95X5B6KQ", "dateTime": 1516660011690}, {"current_trial": 202, "trialdata": {"rt": -1, "trial_type": "single-stim", "word": "fireman", "stimulus": "<p id=\"stim\">FIREMAN</p>", "conditions": [24, 1600, "v", 12000], "internal_node_id": "0.0-148.0", "trial": 5, "time_elapsed": 913503, "serialpos": 5, "key_press": -1, "wordID": 568, "type": "PRES_VIS", "trial_index": 202}, "uniqueid": "MTK2050:37WLF8U1WQX175EVFGP3OG95X5B6KQ", "dateTime": 1516660014389}, {"current_trial": 203, "trialdata": {"rt": -1, "trial_type": "single-stim", "word": "beast", "stimulus": "<p id=\"stim\">BEAST</p>", "conditions": [24, 1600, "v", 12000], "internal_node_id": "0.0-149.0", "trial": 5, "time_elapsed": 916213, "serialpos": 6, "key_press": -1, "wordID": 107, "type": "PRES_VIS", "trial_index": 203}, "uniqueid": "MTK2050:37WLF8U1WQX175EVFGP3OG95X5B6KQ", "dateTime": 1516660017100}, {"current_trial": 204, "trialdata": {"rt": -1, "trial_type": "single-stim", "word": "liver", "stimulus": "<p id=\"stim\">LIVER</p>", "conditions": [24, 1600, "v", 12000], "internal_node_id": "0.0-150.0", "trial": 5, "time_elapsed": 918622, "serialpos": 7, "key_press": -1, "wordID": 832, "type": "PRES_VIS", "trial_index": 204}, "uniqueid": "MTK2050:37WLF8U1WQX175EVFGP3OG95X5B6KQ", "dateTime": 1516660019508}, {"current_trial": 205, "trialdata": {"rt": -1, "trial_type": "single-stim", "word": "gallon", "stimulus": "<p id=\"stim\">GALLON</p>", "conditions": [24, 1600, "v", 12000], "internal_node_id": "0.0-151.0", "trial": 5, "time_elapsed": 921065, "serialpos": 8, "key_press": -1, "wordID": 617, "type": "PRES_VIS", "trial_index": 205}, "uniqueid": "MTK2050:37WLF8U1WQX175EVFGP3OG95X5B6KQ", "dateTime": 1516660021951}, {"current_trial": 206, "trialdata": {"rt": -1, "trial_type": "single-stim", "word": "daisy", "stimulus": "<p id=\"stim\">DAISY</p>", "conditions": [24, 1600, "v", 12000], "internal_node_id": "0.0-152.0", "trial": 5, "time_elapsed": 923607, "serialpos": 9, "key_press": -1, "wordID": 434, "type": "PRES_VIS", "trial_index": 206}, "uniqueid": "MTK2050:37WLF8U1WQX175EVFGP3OG95X5B6KQ", "dateTime": 1516660024493}, {"current_trial": 207, "trialdata": {"rt": -1, "trial_type": "single-stim", "word": "flower", "stimulus": "<p id=\"stim\">FLOWER</p>", "conditions": [24, 1600, "v", 12000], "internal_node_id": "0.0-153.0", "trial": 5, "time_elapsed": 926370, "serialpos": 10, "key_press": -1, "wordID": 583, "type": "PRES_VIS", "trial_index": 207}, "uniqueid": "MTK2050:37WLF8U1WQX175EVFGP3OG95X5B6KQ", "dateTime": 1516660027256}, {"current_trial": 208, "trialdata": {"rt": -1, "trial_type": "single-stim", "word": "tutu", "stimulus": "<p id=\"stim\">TUTU</p>", "conditions": [24, 1600, "v", 12000], "internal_node_id": "0.0-154.0", "trial": 5, "time_elapsed": 928889, "serialpos": 11, "key_press": -1, "wordID": 1523, "type": "PRES_VIS", "trial_index": 208}, "uniqueid": "MTK2050:37WLF8U1WQX175EVFGP3OG95X5B6KQ", "dateTime": 1516660029775}, {"current_trial": 209, "trialdata": {"rt": -1, "trial_type": "single-stim", "word": "cousin", "stimulus": "<p id=\"stim\">COUSIN</p>", "conditions": [24, 1600, "v", 12000], "internal_node_id": "0.0-155.0", "trial": 5, "time_elapsed": 931484, "serialpos": 12, "key_press": -1, "wordID": 391, "type": "PRES_VIS", "trial_index": 209}, "uniqueid": "MTK2050:37WLF8U1WQX175EVFGP3OG95X5B6KQ", "dateTime": 1516660032370}, {"current_trial": 210, "trialdata": {"rt": -1, "trial_type": "single-stim", "word": "highway", "stimulus": "<p id=\"stim\">HIGHWAY</p>", "conditions": [24, 1600, "v", 12000], "internal_node_id": "0.0-156.0", "trial": 5, "time_elapsed": 934031, "serialpos": 13, "key_press": -1, "wordID": 706, "type": "PRES_VIS", "trial_index": 210}, "uniqueid": "MTK2050:37WLF8U1WQX175EVFGP3OG95X5B6KQ", "dateTime": 1516660034918}, {"current_trial": 211, "trialdata": {"rt": -1, "trial_type": "single-stim", "word": "sculpture", "stimulus": "<p id=\"stim\">SCULPTURE</p>", "conditions": [24, 1600, "v", 12000], "internal_node_id": "0.0-157.0", "trial": 5, "time_elapsed": 936764, "serialpos": 14, "key_press": -1, "wordID": 1257, "type": "PRES_VIS", "trial_index": 211}, "uniqueid": "MTK2050:37WLF8U1WQX175EVFGP3OG95X5B6KQ", "dateTime": 1516660037650}, {"current_trial": 212, "trialdata": {"rt": -1, "trial_type": "single-stim", "word": "wardrobe", "stimulus": "<p id=\"stim\">WARDROBE</p>", "conditions": [24, 1600, "v", 12000], "internal_node_id": "0.0-158.0", "trial": 5, "time_elapsed": 939493, "serialpos": 15, "key_press": -1, "wordID": 1586, "type": "PRES_VIS", "trial_index": 212}, "uniqueid": "MTK2050:37WLF8U1WQX175EVFGP3OG95X5B6KQ", "dateTime": 1516660040379}, {"current_trial": 213, "trialdata": {"rt": -1, "trial_type": "single-stim", "word": "handbag", "stimulus": "<p id=\"stim\">HANDBAG</p>", "conditions": [24, 1600, "v", 12000], "internal_node_id": "0.0-159.0", "trial": 5, "time_elapsed": 942139, "serialpos": 16, "key_press": -1, "wordID": 683, "type": "PRES_VIS", "trial_index": 213}, "uniqueid": "MTK2050:37WLF8U1WQX175EVFGP3OG95X5B6KQ", "dateTime": 1516660043026}, {"current_trial": 214, "trialdata": {"rt": -1, "trial_type": "single-stim", "word": "shorts", "stimulus": "<p id=\"stim\">SHORTS</p>", "conditions": [24, 1600, "v", 12000], "internal_node_id": "0.0-160.0", "trial": 5, "time_elapsed": 944664, "serialpos": 17, "key_press": -1, "wordID": 1292, "type": "PRES_VIS", "trial_index": 214}, "uniqueid": "MTK2050:37WLF8U1WQX175EVFGP3OG95X5B6KQ", "dateTime": 1516660045550}, {"current_trial": 215, "trialdata": {"rt": -1, "trial_type": "single-stim", "word": "uncle", "stimulus": "<p id=\"stim\">UNCLE</p>", "conditions": [24, 1600, "v", 12000], "internal_node_id": "0.0-161.0", "trial": 5, "time_elapsed": 947303, "serialpos": 18, "key_press": -1, "wordID": 1535, "type": "PRES_VIS", "trial_index": 215}, "uniqueid": "MTK2050:37WLF8U1WQX175EVFGP3OG95X5B6KQ", "dateTime": 1516660048190}, {"current_trial": 216, "trialdata": {"rt": -1, "trial_type": "single-stim", "word": "citrus", "stimulus": "<p id=\"stim\">CITRUS</p>", "conditions": [24, 1600, "v", 12000], "internal_node_id": "0.0-162.0", "trial": 5, "time_elapsed": 949841, "serialpos": 19, "key_press": -1, "wordID": 312, "type": "PRES_VIS", "trial_index": 216}, "uniqueid": "MTK2050:37WLF8U1WQX175EVFGP3OG95X5B6KQ", "dateTime": 1516660050727}, {"current_trial": 217, "trialdata": {"rt": -1, "trial_type": "single-stim", "word": "county", "stimulus": "<p id=\"stim\">COUNTY</p>", "conditions": [24, 1600, "v", 12000], "internal_node_id": "0.0-163.0", "trial": 5, "time_elapsed": 952638, "serialpos": 20, "key_press": -1, "wordID": 388, "type": "PRES_VIS", "trial_index": 217}, "uniqueid": "MTK2050:37WLF8U1WQX175EVFGP3OG95X5B6KQ", "dateTime": 1516660053525}, {"current_trial": 218, "trialdata": {"rt": -1, "trial_type": "single-stim", "word": "sheriff", "stimulus": "<p id=\"stim\">SHERIFF</p>", "conditions": [24, 1600, "v", 12000], "internal_node_id": "0.0-164.0", "trial": 5, "time_elapsed": 955146, "serialpos": 21, "key_press": -1, "wordID": 1283, "type": "PRES_VIS", "trial_index": 218}, "uniqueid": "MTK2050:37WLF8U1WQX175EVFGP3OG95X5B6KQ", "dateTime": 1516660056032}, {"current_trial": 219, "trialdata": {"rt": -1, "trial_type": "single-stim", "word": "pecan", "stimulus": "<p id=\"stim\">PECAN</p>", "conditions": [24, 1600, "v", 12000], "internal_node_id": "0.0-165.0", "trial": 5, "time_elapsed": 957844, "serialpos": 22, "key_press": -1, "wordID": 1035, "type": "PRES_VIS", "trial_index": 219}, "uniqueid": "MTK2050:37WLF8U1WQX175EVFGP3OG95X5B6KQ", "dateTime": 1516660058730}, {"current_trial": 220, "trialdata": {"rt": -1, "trial_type": "single-stim", "word": "banker", "stimulus": "<p id=\"stim\">BANKER</p>", "conditions": [24, 1600, "v", 12000], "internal_node_id": "0.0-166.0", "trial": 5, "time_elapsed": 960416, "serialpos": 23, "key_press": -1, "wordID": 83, "type": "PRES_VIS", "trial_index": 220}, "uniqueid": "MTK2050:37WLF8U1WQX175EVFGP3OG95X5B6KQ", "dateTime": 1516660061302}, {"current_trial": 221, "trialdata": {"rt": -1, "trial_type": "single-stim", "stimulus": "", "internal_node_id": "0.0-167.0-0.0", "time_elapsed": 962470, "key_press": -1, "type": "PRE_RECALL_DELAY", "trial_index": 221}, "uniqueid": "MTK2050:37WLF8U1WQX175EVFGP3OG95X5B6KQ", "dateTime": 1516660063356}, {"current_trial": 222, "trialdata": {"rt": -1000, "trial_type": "single-audio", "stimulus": "/static/audio/400Hz.wav", "internal_node_id": "0.0-168.0", "time_elapsed": 962972, "key_press": -1, "type": "PRE_RECALL_ALERT", "trial_index": 222}, "uniqueid": "MTK2050:37WLF8U1WQX175EVFGP3OG95X5B6KQ", "dateTime": 1516660063858}, {"current_trial": 223, "trialdata": {"rt": [1555, 5155, 7276, 10003, 13443, 17792, 22099, 24499, 41306, 45066], "recwords": ["banker", "county", "sheriff", "champange", "grape", "banker", "breast", "ankle", "hillside", "gift"], "key_times": [541, 747, 972, 1116, 1219, 1315, 1555, 1884, 2099, 2308, 2427, 2651, 3060, 3203, 4281, 4451, 4515, 5155, 5756, 5955, 6148, 6411, 6691, 6868, 7092, 7276, 7627, 7828, 8164, 8459, 8731, 8987, 9195, 9451, 9715, 10003, 11892, 12171, 12279, 12451, 12955, 13131, 13275, 13443, 16211, 16451, 16619, 16715, 16803, 16890, 17792, 20171, 20538, 20643, 20842, 21194, 21586, 22099, 23010, 23315, 23611, 23810, 24067, 24499, 26971, 29387, 38772, 38795, 38922, 39050, 39578, 39754, 39874, 40010, 41306, 44498, 44601, 44738, 44946, 45066], "trial_type": "free-recall", "conditions": [24, 1600, "v", 12000], "internal_node_id": "0.0-169.0-0.0", "key_presses": [66, 65, 78, 75, 69, 82, 13, 67, 79, 85, 78, 84, 82, 89, 8, 8, 89, 13, 83, 72, 69, 82, 73, 70, 70, 13, 67, 72, 65, 77, 80, 65, 78, 71, 69, 13, 71, 82, 65, 68, 8, 80, 69, 13, 66, 65, 78, 75, 69, 82, 13, 66, 82, 69, 65, 83, 84, 13, 65, 78, 75, 76, 69, 13, 71, 8, 72, 73, 76, 76, 83, 73, 68, 69, 13, 71, 73, 70, 84, 13], "trial": 5, "time_elapsed": 1022975, "type": "FREE_RECALL", "trial_index": 223}, "uniqueid": "MTK2050:37WLF8U1WQX175EVFGP3OG95X5B6KQ", "dateTime": 1516660123864}, {"current_trial": 224, "trialdata": {"rt": 432, "trial_type": "text", "internal_node_id": "0.0-170.0", "time_elapsed": 1025415, "key_press": 32, "type": "INSTRUCTIONS", "trial_index": 224}, "uniqueid": "MTK2050:37WLF8U1WQX175EVFGP3OG95X5B6KQ", "dateTime": 1516660126302}, {"current_trial": 225, "trialdata": {"rt": [2680, 6705], "trial_type": "math-distractor", "key_times": [2137, 2465, 2680, 5697, 6216, 6705, 11890], "responses": ["13", "16"], "num2": [3, 3, 7], "num3": [2, 5, 3], "conditions": [12, 800, "v", 12000], "internal_node_id": "0.0-171.0", "key_presses": [49, 51, 13, 49, 54, 13, 49], "trial": 6, "time_elapsed": 1039423, "type": "DISTRACTOR", "trial_index": 225, "num1": [8, 7, 2]}, "uniqueid": "MTK2050:37WLF8U1WQX175EVFGP3OG95X5B6KQ", "dateTime": 1516660140310}, {"current_trial": 226, "trialdata": {"rt": -1, "trial_type": "single-stim", "stimulus": "<p id=\"stim\">10</p>", "internal_node_id": "0.0-172.0-0.0", "time_elapsed": 1042430, "key_press": -1, "trial_index": 226}, "uniqueid": "MTK2050:37WLF8U1WQX175EVFGP3OG95X5B6KQ", "dateTime": 1516660143316}, {"current_trial": 227, "trialdata": {"rt": -1, "trial_type": "single-stim", "stimulus": "<p id=\"stim\">9</p>", "internal_node_id": "0.0-172.0-1.0", "time_elapsed": 1043434, "key_press": -1, "trial_index": 227}, "uniqueid": "MTK2050:37WLF8U1WQX175EVFGP3OG95X5B6KQ", "dateTime": 1516660144320}, {"current_trial": 228, "trialdata": {"rt": -1, "trial_type": "single-stim", "stimulus": "<p id=\"stim\">8</p>", "internal_node_id": "0.0-172.0-2.0", "time_elapsed": 1044438, "key_press": -1, "trial_index": 228}, "uniqueid": "MTK2050:37WLF8U1WQX175EVFGP3OG95X5B6KQ", "dateTime": 1516660145324}, {"current_trial": 229, "trialdata": {"rt": -1, "trial_type": "single-stim", "stimulus": "<p id=\"stim\">7</p>", "internal_node_id": "0.0-172.0-3.0", "time_elapsed": 1045442, "key_press": -1, "trial_index": 229}, "uniqueid": "MTK2050:37WLF8U1WQX175EVFGP3OG95X5B6KQ", "dateTime": 1516660146328}, {"current_trial": 230, "trialdata": {"rt": -1, "trial_type": "single-stim", "stimulus": "<p id=\"stim\">6</p>", "internal_node_id": "0.0-172.0-4.0", "time_elapsed": 1046446, "key_press": -1, "trial_index": 230}, "uniqueid": "MTK2050:37WLF8U1WQX175EVFGP3OG95X5B6KQ", "dateTime": 1516660147332}, {"current_trial": 231, "trialdata": {"rt": -1, "trial_type": "single-stim", "stimulus": "<p id=\"stim\">5</p>", "internal_node_id": "0.0-172.0-5.0", "time_elapsed": 1047451, "key_press": -1, "trial_index": 231}, "uniqueid": "MTK2050:37WLF8U1WQX175EVFGP3OG95X5B6KQ", "dateTime": 1516660148337}, {"current_trial": 232, "trialdata": {"rt": -1, "trial_type": "single-stim", "stimulus": "<p id=\"stim\">4</p>", "internal_node_id": "0.0-172.0-6.0", "time_elapsed": 1048453, "key_press": -1, "trial_index": 232}, "uniqueid": "MTK2050:37WLF8U1WQX175EVFGP3OG95X5B6KQ", "dateTime": 1516660149340}, {"current_trial": 233, "trialdata": {"rt": -1, "trial_type": "single-stim", "stimulus": "<p id=\"stim\">3</p>", "internal_node_id": "0.0-172.0-7.0", "time_elapsed": 1049458, "key_press": -1, "trial_index": 233}, "uniqueid": "MTK2050:37WLF8U1WQX175EVFGP3OG95X5B6KQ", "dateTime": 1516660150344}, {"current_trial": 234, "trialdata": {"rt": -1, "trial_type": "single-stim", "stimulus": "<p id=\"stim\">2</p>", "internal_node_id": "0.0-172.0-8.0", "time_elapsed": 1050461, "key_press": -1, "trial_index": 234}, "uniqueid": "MTK2050:37WLF8U1WQX175EVFGP3OG95X5B6KQ", "dateTime": 1516660151347}, {"current_trial": 235, "trialdata": {"rt": -1, "trial_type": "single-stim", "stimulus": "<p id=\"stim\">1</p>", "internal_node_id": "0.0-172.0-9.0", "time_elapsed": 1051465, "key_press": -1, "trial_index": 235}, "uniqueid": "MTK2050:37WLF8U1WQX175EVFGP3OG95X5B6KQ", "dateTime": 1516660152353}, {"current_trial": 236, "trialdata": {"rt": -1, "trial_type": "single-stim", "stimulus": "<p id=\"stim\">+</p>", "internal_node_id": "0.0-173.0-0.0", "time_elapsed": 1052969, "key_press": -1, "type": "FIXATION", "trial_index": 236}, "uniqueid": "MTK2050:37WLF8U1WQX175EVFGP3OG95X5B6KQ", "dateTime": 1516660153856}, {"current_trial": 237, "trialdata": {"rt": -1, "trial_type": "single-stim", "word": "widow", "stimulus": "<p id=\"stim\">WIDOW</p>", "conditions": [12, 800, "v", 12000], "internal_node_id": "0.0-174.0", "trial": 6, "time_elapsed": 1053772, "serialpos": 0, "key_press": -1, "wordID": 1607, "type": "PRES_VIS", "trial_index": 237}, "uniqueid": "MTK2050:37WLF8U1WQX175EVFGP3OG95X5B6KQ", "dateTime": 1516660154658}, {"current_trial": 238, "trialdata": {"rt": -1, "trial_type": "single-stim", "word": "arm", "stimulus": "<p id=\"stim\">ARM</p>", "conditions": [12, 800, "v", 12000], "internal_node_id": "0.0-175.0", "trial": 6, "time_elapsed": 1055717, "serialpos": 1, "key_press": -1, "wordID": 37, "type": "PRES_VIS", "trial_index": 238}, "uniqueid": "MTK2050:37WLF8U1WQX175EVFGP3OG95X5B6KQ", "dateTime": 1516660156603}, {"current_trial": 239, "trialdata": {"rt": -1, "trial_type": "single-stim", "word": "turkey", "stimulus": "<p id=\"stim\">TURKEY</p>", "conditions": [12, 800, "v", 12000], "internal_node_id": "0.0-176.0", "trial": 6, "time_elapsed": 1057479, "serialpos": 2, "key_press": -1, "wordID": 1519, "type": "PRES_VIS", "trial_index": 239}, "uniqueid": "MTK2050:37WLF8U1WQX175EVFGP3OG95X5B6KQ", "dateTime": 1516660158365}, {"current_trial": 240, "trialdata": {"rt": -1, "trial_type": "single-stim", "word": "quail", "stimulus": "<p id=\"stim\">QUAIL</p>", "conditions": [12, 800, "v", 12000], "internal_node_id": "0.0-177.0", "trial": 6, "time_elapsed": 1059464, "serialpos": 3, "key_press": -1, "wordID": 1146, "type": "PRES_VIS", "trial_index": 240}, "uniqueid": "MTK2050:37WLF8U1WQX175EVFGP3OG95X5B6KQ", "dateTime": 1516660160350}, {"current_trial": 241, "trialdata": {"rt": -1, "trial_type": "single-stim", "word": "shoulder", "stimulus": "<p id=\"stim\">SHOULDER</p>", "conditions": [12, 800, "v", 12000], "internal_node_id": "0.0-178.0", "trial": 6, "time_elapsed": 1061238, "serialpos": 4, "key_press": -1, "wordID": 1293, "type": "PRES_VIS", "trial_index": 241}, "uniqueid": "MTK2050:37WLF8U1WQX175EVFGP3OG95X5B6KQ", "dateTime": 1516660162124}, {"current_trial": 242, "trialdata": {"rt": -1, "trial_type": "single-stim", "word": "briefcase", "stimulus": "<p id=\"stim\">BRIEFCASE</p>", "conditions": [12, 800, "v", 12000], "internal_node_id": "0.0-179.0", "trial": 6, "time_elapsed": 1062987, "serialpos": 5, "key_press": -1, "wordID": 174, "type": "PRES_VIS", "trial_index": 242}, "uniqueid": "MTK2050:37WLF8U1WQX175EVFGP3OG95X5B6KQ", "dateTime": 1516660163873}, {"current_trial": 243, "trialdata": {"rt": -1, "trial_type": "single-stim", "word": "cigar", "stimulus": "<p id=\"stim\">CIGAR</p>", "conditions": [12, 800, "v", 12000], "internal_node_id": "0.0-180.0", "trial": 6, "time_elapsed": 1064659, "serialpos": 6, "key_press": -1, "wordID": 307, "type": "PRES_VIS", "trial_index": 243}, "uniqueid": "MTK2050:37WLF8U1WQX175EVFGP3OG95X5B6KQ", "dateTime": 1516660165545}, {"current_trial": 244, "trialdata": {"rt": -1, "trial_type": "single-stim", "word": "hood", "stimulus": "<p id=\"stim\">HOOD</p>", "conditions": [12, 800, "v", 12000], "internal_node_id": "0.0-181.0", "trial": 6, "time_elapsed": 1066365, "serialpos": 7, "key_press": -1, "wordID": 713, "type": "PRES_VIS", "trial_index": 244}, "uniqueid": "MTK2050:37WLF8U1WQX175EVFGP3OG95X5B6KQ", "dateTime": 1516660167251}, {"current_trial": 245, "trialdata": {"rt": -1, "trial_type": "single-stim", "word": "braces", "stimulus": "<p id=\"stim\">BRACES</p>", "conditions": [12, 800, "v", 12000], "internal_node_id": "0.0-182.0", "trial": 6, "time_elapsed": 1068233, "serialpos": 8, "key_press": -1, "wordID": 163, "type": "PRES_VIS", "trial_index": 245}, "uniqueid": "MTK2050:37WLF8U1WQX175EVFGP3OG95X5B6KQ", "dateTime": 1516660169119}, {"current_trial": 246, "trialdata": {"rt": -1, "trial_type": "single-stim", "word": "child", "stimulus": "<p id=\"stim\">CHILD</p>", "conditions": [12, 800, "v", 12000], "internal_node_id": "0.0-183.0", "trial": 6, "time_elapsed": 1070178, "serialpos": 9, "key_press": -1, "wordID": 298, "type": "PRES_VIS", "trial_index": 246}, "uniqueid": "MTK2050:37WLF8U1WQX175EVFGP3OG95X5B6KQ", "dateTime": 1516660171064}, {"current_trial": 247, "trialdata": {"rt": -1, "trial_type": "single-stim", "word": "spouse", "stimulus": "<p id=\"stim\">SPOUSE</p>", "conditions": [12, 800, "v", 12000], "internal_node_id": "0.0-184.0", "trial": 6, "time_elapsed": 1072095, "serialpos": 10, "key_press": -1, "wordID": 1357, "type": "PRES_VIS", "trial_index": 247}, "uniqueid": "MTK2050:37WLF8U1WQX175EVFGP3OG95X5B6KQ", "dateTime": 1516660172982}, {"current_trial": 248, "trialdata": {"rt": -1, "trial_type": "single-stim", "word": "compass", "stimulus": "<p id=\"stim\">COMPASS</p>", "conditions": [12, 800, "v", 12000], "internal_node_id": "0.0-185.0", "trial": 6, "time_elapsed": 1073892, "serialpos": 11, "key_press": -1, "wordID": 357, "type": "PRES_VIS", "trial_index": 248}, "uniqueid": "MTK2050:37WLF8U1WQX175EVFGP3OG95X5B6KQ", "dateTime": 1516660174778}, {"current_trial": 249, "trialdata": {"rt": -1, "trial_type": "single-stim", "stimulus": "", "internal_node_id": "0.0-186.0-0.0", "time_elapsed": 1076086, "key_press": -1, "type": "PRE_RECALL_DELAY", "trial_index": 249}, "uniqueid": "MTK2050:37WLF8U1WQX175EVFGP3OG95X5B6KQ", "dateTime": 1516660176972}, {"current_trial": 250, "trialdata": {"rt": -1000, "trial_type": "single-audio", "stimulus": "/static/audio/400Hz.wav", "internal_node_id": "0.0-187.0", "time_elapsed": 1076588, "key_press": -1, "type": "PRE_RECALL_ALERT", "trial_index": 250}, "uniqueid": "MTK2050:37WLF8U1WQX175EVFGP3OG95X5B6KQ", "dateTime": 1516660177474}, {"current_trial": 251, "trialdata": {"rt": [1818, 2858, 4626, 7379, 21337, 25489], "recwords": ["compass", "child", "spouce", "widow", "shoulder", "compass"], "key_times": [699, 810, 930, 1035, 1250, 1426, 1594, 1818, 2162, 2354, 2450, 2490, 2700, 2858, 3219, 3650, 3786, 4114, 4298, 4450, 4626, 6307, 6451, 6570, 6754, 6946, 7379, 15715, 17050, 19523, 19723, 19954, 20082, 20322, 20626, 20858, 20922, 21337, 24290, 24393, 24498, 24665, 24794, 25065, 25273, 25489, 42463, 42770, 42873, 43033, 43171, 43730, 44231, 44315, 44397, 44480, 44565], "trial_type": "free-recall", "conditions": [12, 800, "v", 12000], "internal_node_id": "0.0-188.0-0.0", "key_presses": [67, 79, 77, 80, 65, 83, 83, 13, 67, 72, 73, 76, 68, 13, 83, 80, 79, 85, 67, 69, 13, 87, 73, 68, 79, 87, 13, 80, 8, 83, 72, 79, 85, 76, 68, 69, 82, 13, 67, 79, 77, 80, 65, 83, 