{"assignmentId": "3W8CV64QJ36XNYFL72PIVYKFVYT9HW", "workerId": "MTK2158", "questiondata": {"origin": "United States", "strat-rehearsal": "96", "marital": "Single", "education": "Bachelor's degree", "ethnicity": "Not Hispanic", "color_depth": 24, "distracted": "No", "wrote-notes": "Yes", "strat-other": "none", "screen_width": 1600, "avail_screen_width": 1600, "avail_screen_height": 860, "strat-image": "76", "language": "english", "gender": "Female", "age": "34", "gender_other": "", "race": ["White"], "strat-categorize": "96", "pixel_depth": 24, "strat-spatial": "23", "strat-story": "33", "race_other": "", "screen_height": 900}, "bonus": 0, "hitId": "3XU9MCX6VOJXPOAVSWHVAVINUEFR2E", "counterbalance": 26, "useragent": "Mozilla/5.0 (Windows NT 6.1; Win64; x64) AppleWebKit/537.36 (KHTML, like Gecko) Chrome/63.0.3239.132 Safari/537.36", "eventdata": [{"eventtype": "initialized", "interval": 0, "value": null, "timestamp": 1516754300807}, {"eventtype": "window_resize", "interval": 0, "value": [1600, 854], "timestamp": 1516754300807}, {"eventtype": "focus", "interval": 168572, "value": "off", "timestamp": 1516754469379}, {"eventtype": "focus", "interval": 17279, "value": "on", "timestamp": 1516754486658}, {"eventtype": "window_resize", "interval": 231547, "value": [1600, 810], "timestamp": 1516754718205}, {"eventtype": "focus", "interval": 461976, "value": "off", "timestamp": 1516755180181}, {"eventtype": "focus", "interval": 5669, "value": "on", "timestamp": 1516755185850}, {"eventtype": "focus", "interval": 685898, "value": "off", "timestamp": 1516755871748}, {"eventtype": "focus", "interval": 11800, "value": "on", "timestamp": 1516755883548}, {"eventtype": "focus", "interval": 169401, "value": "off", "timestamp": 1516756052949}, {"eventtype": "focus", "interval": 24210, "value": "on", "timestamp": 1516756077159}, {"eventtype": "focus", "interval": 37798, "value": "off", "timestamp": 1516756114957}, {"eventtype": "focus", "interval": 12531, "value": "on", "timestamp": 1516756127488}, {"eventtype": "focus", "interval": 538012, "value": "off", "timestamp": 1516756665500}, {"eventtype": "focus", "interval": 2799, "value": "on", "timestamp": 1516756668299}, {"eventtype": "focus", "interval": 96110, "value": "off", "timestamp": 1516756764409}, {"eventtype": "focus", "interval": 11461, "value": "on", "timestamp": 1516756775870}, {"eventtype": "focus", "interval": 463694, "value": "off", "timestamp": 1516757239564}, {"eventtype": "focus", "interval": 26210, "value": "on", "timestamp": 1516757265774}, {"eventtype": "focus", "interval": 576023, "value": "off", "timestamp": 1516757841797}, {"eventtype": "focus", "interval": 6376, "value": "on", "timestamp": 1516757848173}], "data": [{"current_trial": 0, "trialdata": {"rt": 55038, "trial_type": "text", "internal_node_id": "0.0-0.0", "time_elapsed": 55041, "key_press": 32, "type": "INSTRUCTIONS", "trial_index": 0}, "uniqueid": "MTK2158:3W8CV64QJ36XNYFL72PIVYKFVYT9HW", "dateTime": 1516754377117}, {"current_trial": 1, "trialdata": {"rt": 33500, "trial_type": "text", "internal_node_id": "0.0-1.0", "time_elapsed": 88546, "key_press": 32, "type": "INSTRUCTIONS", "trial_index": 1}, "uniqueid": "MTK2158:3W8CV64QJ36XNYFL72PIVYKFVYT9HW", "dateTime": 1516754410621}, {"current_trial": 2, "trialdata": {"rt": [13162], "trial_type": "audio-test", "responses": ["ocean"], "internal_node_id": "0.0-2.0", "time_elapsed": 101729, "type": "AUDIO_TEST", "trial_index": 2}, "uniqueid": "MTK2158:3W8CV64QJ36XNYFL72PIVYKFVYT9HW", "dateTime": 1516754423804}, {"current_trial": 3, "trialdata": {"rt": [7010], "trial_type": "audio-test", "responses": ["crystal"], "internal_node_id": "0.0-3.0", "time_elapsed": 108753, "type": "AUDIO_TEST", "trial_index": 3}, "uniqueid": "MTK2158:3W8CV64QJ36XNYFL72PIVYKFVYT9HW", "dateTime": 1516754430828}, {"current_trial": 4, "trialdata": {"rt": [7515], "trial_type": "audio-test", "responses": ["spice"], "internal_node_id": "0.0-4.0", "time_elapsed": 116281, "type": "AUDIO_TEST", "trial_index": 4}, "uniqueid": "MTK2158:3W8CV64QJ36XNYFL72PIVYKFVYT9HW", "dateTime": 1516754438356}, {"current_trial": 5, "trialdata": {"rt": 24011, "trial_type": "survey-text", "responses": "{\"Q0\":\"10:00 pm\",\"Q1\":\"6:00 am\",\"Q2\":\"4\"}", "internal_node_id": "0.0-5.0", "time_elapsed": 141051, "type": "SLEEP_SURVEY", "trial_index": 5}, "uniqueid": "MTK2158:3W8CV64QJ36XNYFL72PIVYKFVYT9HW", "dateTime": 1516754463126}, {"current_trial": 6, "trialdata": {"rt": 70708, "trial_type": "text", "internal_node_id": "0.0-6.0", "time_elapsed": 212761, "key_press": 32, "type": "INSTRUCTIONS", "trial_index": 6}, "uniqueid": "MTK2158:3W8CV64QJ36XNYFL72PIVYKFVYT9HW", "dateTime": 1516754534837}, {"current_trial": 7, "trialdata": {"rt": 45050, "trial_type": "text", "internal_node_id": "0.0-7.0", "time_elapsed": 258314, "key_press": 32, "type": "INSTRUCTIONS", "trial_index": 7}, "uniqueid": "MTK2158:3W8CV64QJ36XNYFL72PIVYKFVYT9HW", "dateTime": 1516754580390}, {"current_trial": 8, "trialdata": {"rt": 14763, "trial_type": "text", "internal_node_id": "0.0-8.0", "time_elapsed": 273580, "key_press": 32, "type": "INSTRUCTIONS", "trial_index": 8}, "uniqueid": "MTK2158:3W8CV64QJ36XNYFL72PIVYKFVYT9HW", "dateTime": 1516754595655}, {"current_trial": 9, "trialdata": {"rt": [3730, 9328, 14357], "trial_type": "math-distractor", "key_times": [2875, 3084, 3730, 8584, 8752, 9328, 13939, 14167, 14357, 17724, 17955], "responses": ["12", "12", "14"], "num2": [5, 2, 6, 5], "num3": [1, 8, 7, 9], "conditions": [18, 1200, "a", 18000], "internal_node_id": "0.0-9.0", "key_presses": [97, 98, 13, 97, 98, 13, 97, 100, 13, 97, 104], "trial": 0, "time_elapsed": 292594, "type": "DISTRACTOR", "trial_index": 9, "num1": [6, 2, 1, 4]}, "uniqueid": "MTK2158:3W8CV64QJ36XNYFL72PIVYKFVYT9HW", "dateTime": 1516754614669}, {"current_trial": 10, "trialdata": {"rt": -1, "trial_type": "single-stim", "stimulus": "<p id=\"stim\">10</p>", "internal_node_id": "0.0-10.0-0.0", "time_elapsed": 295598, "key_press": -1, "trial_index": 10}, "uniqueid": "MTK2158:3W8CV64QJ36XNYFL72PIVYKFVYT9HW", "dateTime": 1516754617673}, {"current_trial": 11, "trialdata": {"rt": -1, "trial_type": "single-stim", "stimulus": "<p id=\"stim\">9</p>", "internal_node_id": "0.0-10.0-1.0", "time_elapsed": 296601, "key_press": -1, "trial_index": 11}, "uniqueid": "MTK2158:3W8CV64QJ36XNYFL72PIVYKFVYT9HW", "dateTime": 1516754618676}, {"current_trial": 12, "trialdata": {"rt": -1, "trial_type": "single-stim", "stimulus": "<p id=\"stim\">8</p>", "internal_node_id": "0.0-10.0-2.0", "time_elapsed": 297608, "key_press": -1, "trial_index": 12}, "uniqueid": "MTK2158:3W8CV64QJ36XNYFL72PIVYKFVYT9HW", "dateTime": 1516754619683}, {"current_trial": 13, "trialdata": {"rt": -1, "trial_type": "single-stim", "stimulus": "<p id=\"stim\">7</p>", "internal_node_id": "0.0-10.0-3.0", "time_elapsed": 298608, "key_press": -1, "trial_index": 13}, "uniqueid": "MTK2158:3W8CV64QJ36XNYFL72PIVYKFVYT9HW", "dateTime": 1516754620684}, {"current_trial": 14, "trialdata": {"rt": -1, "trial_type": "single-stim", "stimulus": "<p id=\"stim\">6</p>", "internal_node_id": "0.0-10.0-4.0", "time_elapsed": 299609, "key_press": -1, "trial_index": 14}, "uniqueid": "MTK2158:3W8CV64QJ36XNYFL72PIVYKFVYT9HW", "dateTime": 1516754621685}, {"current_trial": 15, "trialdata": {"rt": -1, "trial_type": "single-stim", "stimulus": "<p id=\"stim\">5</p>", "internal_node_id": "0.0-10.0-5.0", "time_elapsed": 300613, "key_press": -1, "trial_index": 15}, "uniqueid": "MTK2158:3W8CV64QJ36XNYFL72PIVYKFVYT9HW", "dateTime": 1516754622688}, {"current_trial": 16, "trialdata": {"rt": -1, "trial_type": "single-stim", "stimulus": "<p id=\"stim\">4</p>", "internal_node_id": "0.0-10.0-6.0", "time_elapsed": 301615, "key_press": -1, "trial_index": 16}, "uniqueid": "MTK2158:3W8CV64QJ36XNYFL72PIVYKFVYT9HW", "dateTime": 1516754623690}, {"current_trial": 17, "trialdata": {"rt": -1, "trial_type": "single-stim", "stimulus": "<p id=\"stim\">3</p>", "internal_node_id": "0.0-10.0-7.0", "time_elapsed": 302617, "key_press": -1, "trial_index": 17}, "uniqueid": "MTK2158:3W8CV64QJ36XNYFL72PIVYKFVYT9HW", "dateTime": 1516754624692}, {"current_trial": 18, "trialdata": {"rt": -1, "trial_type": "single-stim", "stimulus": "<p id=\"stim\">2</p>", "internal_node_id": "0.0-10.0-8.0", "time_elapsed": 303619, "key_press": -1, "trial_index": 18}, "uniqueid": "MTK2158:3W8CV64QJ36XNYFL72PIVYKFVYT9HW", "dateTime": 1516754625694}, {"current_trial": 19, "trialdata": {"rt": -1, "trial_type": "single-stim", "stimulus": "<p id=\"stim\">1</p>", "internal_node_id": "0.0-10.0-9.0", "time_elapsed": 304622, "key_press": -1, "trial_index": 19}, "uniqueid": "MTK2158:3W8CV64QJ36XNYFL72PIVYKFVYT9HW", "dateTime": 1516754626697}, {"current_trial": 20, "trialdata": {"rt": -1, "trial_type": "single-stim", "stimulus": "<p id=\"stim\">+</p>", "internal_node_id": "0.0-11.0-0.0", "time_elapsed": 306124, "key_press": -1, "type": "FIXATION", "trial_index": 20}, "uniqueid": "MTK2158:3W8CV64QJ36XNYFL72PIVYKFVYT9HW", "dateTime": 1516754628199}, {"current_trial": 21, "trialdata": {"rt": -1000, "trial_type": "single-audio", "word": "piston", "stimulus": "/static/audio/wordpool/PISTON.wav", "conditions": [18, 1200, "a", 18000], "internal_node_id": "0.0-12.0", "trial": 0, "time_elapsed": 308467, "serialpos": 0, "key_press": -1, "wordID": 1075, "type": "PRES_AUD", "trial_index": 21}, "uniqueid": "MTK2158:3W8CV64QJ36XNYFL72PIVYKFVYT9HW", "dateTime": 1516754630542}, {"current_trial": 22, "trialdata": {"rt": -1000, "trial_type": "single-audio", "word": "lapel", "stimulus": "/static/audio/wordpool/LAPEL.wav", "conditions": [18, 1200, "a", 18000], "internal_node_id": "0.0-13.0", "trial": 0, "time_elapsed": 310688, "serialpos": 1, "key_press": -1, "wordID": 799, "type": "PRES_AUD", "trial_index": 22}, "uniqueid": "MTK2158:3W8CV64QJ36XNYFL72PIVYKFVYT9HW", "dateTime": 1516754632763}, {"current_trial": 23, "trialdata": {"rt": -1000, "trial_type": "single-audio", "word": "tutu", "stimulus": "/static/audio/wordpool/TUTU.wav", "conditions": [18, 1200, "a", 18000], "internal_node_id": "0.0-14.0", "trial": 0, "time_elapsed": 313014, "serialpos": 2, "key_press": -1, "wordID": 1523, "type": "PRES_AUD", "trial_index": 23}, "uniqueid": "MTK2158:3W8CV64QJ36XNYFL72PIVYKFVYT9HW", "dateTime": 1516754635089}, {"current_trial": 24, "trialdata": {"rt": -1000, "trial_type": "single-audio", "word": "leader", "stimulus": "/static/audio/wordpool/LEADER.wav", "conditions": [18, 1200, "a", 18000], "internal_node_id": "0.0-15.0", "trial": 0, "time_elapsed": 315193, "serialpos": 3, "key_press": -1, "wordID": 806, "type": "PRES_AUD", "trial_index": 24}, "uniqueid": "MTK2158:3W8CV64QJ36XNYFL72PIVYKFVYT9HW", "dateTime": 1516754637268}, {"current_trial": 25, "trialdata": {"rt": -1000, "trial_type": "single-audio", "word": "leg", "stimulus": "/static/audio/wordpool/LEG.wav", "conditions": [18, 1200, "a", 18000], "internal_node_id": "0.0-16.0", "trial": 0, "time_elapsed": 317445, "serialpos": 4, "key_press": -1, "wordID": 808, "type": "PRES_AUD", "trial_index": 25}, "uniqueid": "MTK2158:3W8CV64QJ36XNYFL72PIVYKFVYT9HW", "dateTime": 1516754639520}, {"current_trial": 26, "trialdata": {"rt": -1000, "trial_type": "single-audio", "word": "barley", "stimulus": "/static/audio/wordpool/BARLEY.wav", "conditions": [18, 1200, "a", 18000], "internal_node_id": "0.0-17.0", "trial": 0, "time_elapsed": 319712, "serialpos": 5, "key_press": -1, "wordID": 87, "type": "PRES_AUD", "trial_index": 26}, "uniqueid": "MTK2158:3W8CV64QJ36XNYFL72PIVYKFVYT9HW", "dateTime": 1516754641787}, {"current_trial": 27, "trialdata": {"rt": -1000, "trial_type": "single-audio", "word": "husband", "stimulus": "/static/audio/wordpool/HUSBAND.wav", "conditions": [18, 1200, "a", 18000], "internal_node_id": "0.0-18.0", "trial": 0, "time_elapsed": 321858, "serialpos": 6, "key_press": -1, "wordID": 727, "type": "PRES_AUD", "trial_index": 27}, "uniqueid": "MTK2158:3W8CV64QJ36XNYFL72PIVYKFVYT9HW", "dateTime": 1516754643933}, {"current_trial": 28, "trialdata": {"rt": -1000, "trial_type": "single-audio", "word": "donkey", "stimulus": "/static/audio/wordpool/DONKEY.wav", "conditions": [18, 1200, "a", 18000], "internal_node_id": "0.0-19.0", "trial": 0, "time_elapsed": 324100, "serialpos": 7, "key_press": -1, "wordID": 483, "type": "PRES_AUD", "trial_index": 28}, "uniqueid": "MTK2158:3W8CV64QJ36XNYFL72PIVYKFVYT9HW", "dateTime": 1516754646175}, {"current_trial": 29, "trialdata": {"rt": -1000, "trial_type": "single-audio", "word": "powder", "stimulus": "/static/audio/wordpool/POWDER.wav", "conditions": [18, 1200, "a", 18000], "internal_node_id": "0.0-20.0", "trial": 0, "time_elapsed": 326193, "serialpos": 8, "key_press": -1, "wordID": 1116, "type": "PRES_AUD", "trial_index": 29}, "uniqueid": "MTK2158:3W8CV64QJ36XNYFL72PIVYKFVYT9HW", "dateTime": 1516754648268}, {"current_trial": 30, "trialdata": {"rt": -1000, "trial_type": "single-audio", "word": "jungle", "stimulus": "/static/audio/wordpool/JUNGLE.wav", "conditions": [18, 1200, "a", 18000], "internal_node_id": "0.0-21.0", "trial": 0, "time_elapsed": 328284, "serialpos": 9, "key_press": -1, "wordID": 763, "type": "PRES_AUD", "trial_index": 30}, "uniqueid": "MTK2158:3W8CV64QJ36XNYFL72PIVYKFVYT9HW", "dateTime": 1516754650359}, {"current_trial": 31, "trialdata": {"rt": -1000, "trial_type": "single-audio", "word": "outfit", "stimulus": "/static/audio/wordpool/OUTFIT.wav", "conditions": [18, 1200, "a", 18000], "internal_node_id": "0.0-22.0", "trial": 0, "time_elapsed": 330567, "serialpos": 10, "key_press": -1, "wordID": 987, "type": "PRES_AUD", "trial_index": 31}, "uniqueid": "MTK2158:3W8CV64QJ36XNYFL72PIVYKFVYT9HW", "dateTime": 1516754652642}, {"current_trial": 32, "trialdata": {"rt": -1000, "trial_type": "single-audio", "word": "brother", "stimulus": "/static/audio/wordpool/BROTHER.wav", "conditions": [18, 1200, "a", 18000], "internal_node_id": "0.0-23.0", "trial": 0, "time_elapsed": 332939, "serialpos": 11, "key_press": -1, "wordID": 178, "type": "PRES_AUD", "trial_index": 32}, "uniqueid": "MTK2158:3W8CV64QJ36XNYFL72PIVYKFVYT9HW", "dateTime": 1516754655014}, {"current_trial": 33, "trialdata": {"rt": -1000, "trial_type": "single-audio", "word": "soda", "stimulus": "/static/audio/wordpool/SODA.wav", "conditions": [18, 1200, "a", 18000], "internal_node_id": "0.0-24.0", "trial": 0, "time_elapsed": 335134, "serialpos": 12, "key_press": -1, "wordID": 1340, "type": "PRES_AUD", "trial_index": 33}, "uniqueid": "MTK2158:3W8CV64QJ36XNYFL72PIVYKFVYT9HW", "dateTime": 1516754657209}, {"current_trial": 34, "trialdata": {"rt": -1000, "trial_type": "single-audio", "word": "whistle", "stimulus": "/static/audio/wordpool/WHISTLE.wav", "conditions": [18, 1200, "a", 18000], "internal_node_id": "0.0-25.0", "trial": 0, "time_elapsed": 337436, "serialpos": 13, "key_press": -1, "wordID": 1605, "type": "PRES_AUD", "trial_index": 34}, "uniqueid": "MTK2158:3W8CV64QJ36XNYFL72PIVYKFVYT9HW", "dateTime": 1516754659511}, {"current_trial": 35, "trialdata": {"rt": -1000, "trial_type": "single-audio", "word": "lipstick", "stimulus": "/static/audio/wordpool/LIPSTICK.wav", "conditions": [18, 1200, "a", 18000], "internal_node_id": "0.0-26.0", "trial": 0, "time_elapsed": 339707, "serialpos": 14, "key_press": -1, "wordID": 828, "type": "PRES_AUD", "trial_index": 35}, "uniqueid": "MTK2158:3W8CV64QJ36XNYFL72PIVYKFVYT9HW", "dateTime": 1516754661782}, {"current_trial": 36, "trialdata": {"rt": -1000, "trial_type": "single-audio", "word": "salt", "stimulus": "/static/audio/wordpool/SALT.wav", "conditions": [18, 1200, "a", 18000], "internal_node_id": "0.0-27.0", "trial": 0, "time_elapsed": 341756, "serialpos": 15, "key_press": -1, "wordID": 1228, "type": "PRES_AUD", "trial_index": 36}, "uniqueid": "MTK2158:3W8CV64QJ36XNYFL72PIVYKFVYT9HW", "dateTime": 1516754663831}, {"current_trial": 37, "trialdata": {"rt": -1000, "trial_type": "single-audio", "word": "marrow", "stimulus": "/static/audio/wordpool/MARROW.wav", "conditions": [18, 1200, "a", 18000], "internal_node_id": "0.0-28.0", "trial": 0, "time_elapsed": 343787, "serialpos": 16, "key_press": -1, "wordID": 871, "type": "PRES_AUD", "trial_index": 37}, "uniqueid": "MTK2158:3W8CV64QJ36XNYFL72PIVYKFVYT9HW", "dateTime": 1516754665862}, {"current_trial": 38, "trialdata": {"rt": -1000, "trial_type": "single-audio", "word": "tombstone", "stimulus": "/static/audio/wordpool/TOMBSTONE.wav", "conditions": [18, 1200, "a", 18000], "internal_node_id": "0.0-29.0", "trial": 0, "time_elapsed": 346173, "serialpos": 17, "key_press": -1, "wordID": 1477, "type": "PRES_AUD", "trial_index": 38}, "uniqueid": "MTK2158:3W8CV64QJ36XNYFL72PIVYKFVYT9HW", "dateTime": 1516754668248}, {"current_trial": 39, "trialdata": {"rt": -1, "trial_type": "single-stim", "stimulus": "", "internal_node_id": "0.0-30.0-0.0", "time_elapsed": 347565, "key_press": -1, "type": "PRE_RECALL_DELAY", "trial_index": 39}, "uniqueid": "MTK2158:3W8CV64QJ36XNYFL72PIVYKFVYT9HW", "dateTime": 1516754669641}, {"current_trial": 40, "trialdata": {"rt": -1000, "trial_type": "single-audio", "stimulus": "/static/audio/400Hz.wav", "internal_node_id": "0.0-31.0", "time_elapsed": 348067, "key_press": -1, "type": "PRE_RECALL_ALERT", "trial_index": 40}, "uniqueid": "MTK2158:3W8CV64QJ36XNYFL72PIVYKFVYT9HW", "dateTime": 1516754670143}, {"current_trial": 41, "trialdata": {"rt": [4724, 9348, 11270, 16111, 17992, 25056, 50746, 51652, 52762, 53611, 55679], "recwords": ["tombstone", "husband", "brother", "", "", "water", "", "", "", "", ""], "key_times": [1141, 1309, 1480, 2591, 2904, 3094, 3501, 3911, 4099, 4355, 4531, 4724, 5090, 5312, 5429, 5757, 5989, 6189, 7720, 7995, 8225, 8459, 8624, 8798, 8978, 9348, 9625, 9915, 10038, 10179, 10383, 10467, 10549, 11270, 16111, 17992, 24135, 24315, 24489, 24681, 24722, 25056, 50746, 51652, 52762, 53431, 53611, 55679, 59324, 59588, 59834, 59994], "trial_type": "free-recall", "conditions": [18, 1200, "a", 18000], "internal_node_id": "0.0-32.0-0.0", "key_presses": [84, 79, 66, 8, 77, 66, 83, 84, 79, 78, 69, 13, 74, 85, 83, 8, 8, 8, 72, 85, 83, 66, 65, 78, 68, 13, 66, 82, 79, 84, 72, 69, 82, 13, 13, 32, 87, 65, 84, 69, 82, 13, 13, 32, 13, 16, 186, 186, 87, 65, 84, 69], "trial": 0, "time_elapsed": 408077, "type": "FREE_RECALL", "trial_index": 41}, "uniqueid": "MTK2158:3W8CV64QJ36XNYFL72PIVYKFVYT9HW", "dateTime": 1516754730154}, {"current_trial": 42, "trialdata": {"rt": 1562, "trial_type": "text", "internal_node_id": "0.0-33.0", "time_elapsed": 411643, "key_press": 32, "type": "INSTRUCTIONS", "trial_index": 42}, "uniqueid": "MTK2158:3W8CV64QJ36XNYFL72PIVYKFVYT9HW", "dateTime": 1516754733718}, {"current_trial": 43, "trialdata": {"rt": [3377, 7299, 11115, 14121, 17979], "trial_type": "math-distractor", "key_times": [2915, 3093, 3377, 6519, 6676, 7299, 10718, 10919, 11115, 13760, 14121, 17407, 17703, 17979], "responses": ["11", "15", "14", "9", "14"], "num2": [3, 4, 2, 2, 3, 9], "num3": [5, 2, 4, 1, 6, 8], "conditions": [18, 1200, "a", 18000], "internal_node_id": "0.0-34.0", "key_presses": [97, 97, 13, 97, 101, 13, 97, 100, 13, 105, 13, 97, 100, 13], "trial": 1, "time_elapsed": 431650, "type": "DISTRACTOR", "trial_index": 43, "num1": [3, 9, 8, 6, 5, 2]}, "uniqueid": "MTK2158:3W8CV64QJ36XNYFL72PIVYKFVYT9HW", "dateTime": 1516754753725}, {"current_trial": 44, "trialdata": {"rt": -1, "trial_type": "single-stim", "stimulus": "<p id=\"stim\">10</p>", "internal_node_id": "0.0-35.0-0.0", "time_elapsed": 434652, "key_press": -1, "trial_index": 44}, "uniqueid": "MTK2158:3W8CV64QJ36XNYFL72PIVYKFVYT9HW", "dateTime": 1516754756727}, {"current_trial": 45, "trialdata": {"rt": -1, "trial_type": "single-stim", "stimulus": "<p id=\"stim\">9</p>", "internal_node_id": "0.0-35.0-1.0", "time_elapsed": 435655, "key_press": -1, "trial_index": 45}, "uniqueid": "MTK2158:3W8CV64QJ36XNYFL72PIVYKFVYT9HW", "dateTime": 1516754757730}, {"current_trial": 46, "trialdata": {"rt": -1, "trial_type": "single-stim", "stimulus": "<p id=\"stim\">8</p>", "internal_node_id": "0.0-35.0-2.0", "time_elapsed": 436659, "key_press": -1, "trial_index": 46}, "uniqueid": "MTK2158:3W8CV64QJ36XNYFL72PIVYKFVYT9HW", "dateTime": 1516754758734}, {"current_trial": 47, "trialdata": {"rt": -1, "trial_type": "single-stim", "stimulus": "<p id=\"stim\">7</p>", "internal_node_id": "0.0-35.0-3.0", "time_elapsed": 437661, "key_press": -1, "trial_index": 47}, "uniqueid": "MTK2158:3W8CV64QJ36XNYFL72PIVYKFVYT9HW", "dateTime": 1516754759736}, {"current_trial": 48, "trialdata": {"rt": -1, "trial_type": "single-stim", "stimulus": "<p id=\"stim\">6</p>", "internal_node_id": "0.0-35.0-4.0", "time_elapsed": 438663, "key_press": -1, "trial_index": 48}, "uniqueid": "MTK2158:3W8CV64QJ36XNYFL72PIVYKFVYT9HW", "dateTime": 1516754760738}, {"current_trial": 49, "trialdata": {"rt": -1, "trial_type": "single-stim", "stimulus": "<p id=\"stim\">5</p>", "internal_node_id": "0.0-35.0-5.0", "time_elapsed": 439665, "key_press": -1, "trial_index": 49}, "uniqueid": "MTK2158:3W8CV64QJ36XNYFL72PIVYKFVYT9HW", "dateTime": 1516754761740}, {"current_trial": 50, "trialdata": {"rt": -1, "trial_type": "single-stim", "stimulus": "<p id=\"stim\">4</p>", "internal_node_id": "0.0-35.0-6.0", "time_elapsed": 440667, "key_press": -1, "trial_index": 50}, "uniqueid": "MTK2158:3W8CV64QJ36XNYFL72PIVYKFVYT9HW", "dateTime": 1516754762742}, {"current_trial": 51, "trialdata": {"rt": -1, "trial_type": "single-stim", "stimulus": "<p id=\"stim\">3</p>", "internal_node_id": "0.0-35.0-7.0", "time_elapsed": 441670, "key_press": -1, "trial_index": 51}, "uniqueid": "MTK2158:3W8CV64QJ36XNYFL72PIVYKFVYT9HW", "dateTime": 1516754763745}, {"current_trial": 52, "trialdata": {"rt": -1, "trial_type": "single-stim", "stimulus": "<p id=\"stim\">2</p>", "internal_node_id": "0.0-35.0-8.0", "time_elapsed": 442672, "key_press": -1, "trial_index": 52}, "uniqueid": "MTK2158:3W8CV64QJ36XNYFL72PIVYKFVYT9HW", "dateTime": 1516754764748}, {"current_trial": 53, "trialdata": {"rt": -1, "trial_type": "single-stim", "stimulus": "<p id=\"stim\">1</p>", "internal_node_id": "0.0-35.0-9.0", "time_elapsed": 443674, "key_press": -1, "trial_index": 53}, "uniqueid": "MTK2158:3W8CV64QJ36XNYFL72PIVYKFVYT9HW", "dateTime": 1516754765749}, {"current_trial": 54, "trialdata": {"rt": -1, "trial_type": "single-stim", "stimulus": "<p id=\"stim\">+</p>", "internal_node_id": "0.0-36.0-0.0", "time_elapsed": 445176, "key_press": -1, "type": "FIXATION", "trial_index": 54}, "uniqueid": "MTK2158:3W8CV64QJ36XNYFL72PIVYKFVYT9HW", "dateTime": 1516754767251}, {"current_trial": 55, "trialdata": {"rt": -1000, "trial_type": "single-audio", "word": "sunrise", "stimulus": "/static/audio/wordpool/SUNRISE.wav", "conditions": [18, 1200, "a", 18000], "internal_node_id": "0.0-37.0", "trial": 1, "time_elapsed": 447416, "serialpos": 0, "key_press": -1, "wordID": 1406, "type": "PRES_AUD", "trial_index": 55}, "uniqueid": "MTK2158:3W8CV64QJ36XNYFL72PIVYKFVYT9HW", "dateTime": 1516754769491}, {"current_trial": 56, "trialdata": {"rt": -1000, "trial_type": "single-audio", "word": "viking", "stimulus": "/static/audio/wordpool/VIKING.wav", "conditions": [18, 1200, "a", 18000], "internal_node_id": "0.0-38.0", "trial": 1, "time_elapsed": 449614, "serialpos": 1, "key_press": -1, "wordID": 1564, "type": "PRES_AUD", "trial_index": 56}, "uniqueid": "MTK2158:3W8CV64QJ36XNYFL72PIVYKFVYT9HW", "dateTime": 1516754771689}, {"current_trial": 57, "trialdata": {"rt": -1000, "trial_type": "single-audio", "word": "transplant", "stimulus": "/static/audio/wordpool/TRANSPLANT.wav", "conditions": [18, 1200, "a", 18000], "internal_node_id": "0.0-39.0", "trial": 1, "time_elapsed": 451713, "serialpos": 2, "key_press": -1, "wordID": 1495, "type": "PRES_AUD", "trial_index": 57}, "uniqueid": "MTK2158:3W8CV64QJ36XNYFL72PIVYKFVYT9HW", "dateTime": 1516754773789}, {"current_trial": 58, "trialdata": {"rt": -1000, "trial_type": "single-audio", "word": "dust", "stimulus": "/static/audio/wordpool/DUST.wav", "conditions": [18, 1200, "a", 18000], "internal_node_id": "0.0-40.0", "trial": 1, "time_elapsed": 453875, "serialpos": 3, "key_press": -1, "wordID": 507, "type": "PRES_AUD", "trial_index": 58}, "uniqueid": "MTK2158:3W8CV64QJ36XNYFL72PIVYKFVYT9HW", "dateTime": 1516754775950}, {"current_trial": 59, "trialdata": {"rt": -1000, "trial_type": "single-audio", "word": "daisy", "stimulus": "/static/audio/wordpool/DAISY.wav", "conditions": [18, 1200, "a", 18000], "internal_node_id": "0.0-41.0", "trial": 1, "time_elapsed": 456234, "serialpos": 4, "key_press": -1, "wordID": 434, "type": "PRES_AUD", "trial_index": 59}, "uniqueid": "MTK2158:3W8CV64QJ36XNYFL72PIVYKFVYT9HW", "dateTime": 1516754778310}, {"current_trial": 60, "trialdata": {"rt": -1000, "trial_type": "single-audio", "word": "shelf", "stimulus": "/static/audio/wordpool/SHELF.wav", "conditions": [18, 1200, "a", 18000], "internal_node_id": "0.0-42.0", "trial": 1, "time_elapsed": 458287, "serialpos": 5, "key_press": -1, "wordID": 1279, "type": "PRES_AUD", "trial_index": 60}, "uniqueid": "MTK2158:3W8CV64QJ36XNYFL72PIVYKFVYT9HW", "dateTime": 1516754780362}, {"current_trial": 61, "trialdata": {"rt": -1000, "trial_type": "single-audio", "word": "servant", "stimulus": "/static/audio/wordpool/SERVANT.wav", "conditions": [18, 1200, "a", 18000], "internal_node_id": "0.0-43.0", "trial": 1, "time_elapsed": 460397, "serialpos": 6, "key_press": -1, "wordID": 1270, "type": "PRES_AUD", "trial_index": 61}, "uniqueid": "MTK2158:3W8CV64QJ36XNYFL72PIVYKFVYT9HW", "dateTime": 1516754782472}, {"current_trial": 62, "trialdata": {"rt": -1000, "trial_type": "single-audio", "word": "item", "stimulus": "/static/audio/wordpool/ITEM.wav", "conditions": [18, 1200, "a", 18000], "internal_node_id": "0.0-44.0", "trial": 1, "time_elapsed": 462727, "serialpos": 7, "key_press": -1, "wordID": 745, "type": "PRES_AUD", "trial_index": 62}, "uniqueid": "MTK2158:3W8CV64QJ36XNYFL72PIVYKFVYT9HW", "dateTime": 1516754784803}, {"current_trial": 63, "trialdata": {"rt": -1000, "trial_type": "single-audio", "word": "kitchen", "stimulus": "/static/audio/wordpool/KITCHEN.wav", "conditions": [18, 1200, "a", 18000], "internal_node_id": "0.0-45.0", "trial": 1, "time_elapsed": 464815, "serialpos": 8, "key_press": -1, "wordID": 777, "type": "PRES_AUD", "trial_index": 63}, "uniqueid": "MTK2158:3W8CV64QJ36XNYFL72PIVYKFVYT9HW", "dateTime": 1516754786890}, {"current_trial": 64, "trialdata": {"rt": -1000, "trial_type": "single-audio", "word": "rocket", "stimulus": "/static/audio/wordpool/ROCKET.wav", "conditions": [18, 1200, "a", 18000], "internal_node_id": "0.0-46.0", "trial": 1, "time_elapsed": 466830, "serialpos": 9, "key_press": -1, "wordID": 1201, "type": "PRES_AUD", "trial_index": 64}, "uniqueid": "MTK2158:3W8CV64QJ36XNYFL72PIVYKFVYT9HW", "dateTime": 1516754788906}, {"current_trial": 65, "trialdata": {"rt": -1000, "trial_type": "single-audio", "word": "sticker", "stimulus": "/static/audio/wordpool/STICKER.wav", "conditions": [18, 1200, "a", 18000], "internal_node_id": "0.0-47.0", "trial": 1, "time_elapsed": 469166, "serialpos": 10, "key_press": -1, "wordID": 1381, "type": "PRES_AUD", "trial_index": 65}, "uniqueid": "MTK2158:3W8CV64QJ36XNYFL72PIVYKFVYT9HW", "dateTime": 1516754791242}, {"current_trial": 66, "trialdata": {"rt": -1000, "trial_type": "single-audio", "word": "spool", "stimulus": "/static/audio/wordpool/SPOOL.wav", "conditions": [18, 1200, "a", 18000], "internal_node_id": "0.0-48.0", "trial": 1, "time_elapsed": 471200, "serialpos": 11, "key_press": -1, "wordID": 1355, "type": "PRES_AUD", "trial_index": 66}, "uniqueid": "MTK2158:3W8CV64QJ36XNYFL72PIVYKFVYT9HW", "dateTime": 1516754793275}, {"current_trial": 67, "trialdata": {"rt": -1000, "trial_type": "single-audio", "word": "racket", "stimulus": "/static/audio/wordpool/RACKET.wav", "conditions": [18, 1200, "a", 18000], "internal_node_id": "0.0-49.0", "trial": 1, "time_elapsed": 473405, "serialpos": 12, "key_press": -1, "wordID": 1154, "type": "PRES_AUD", "trial_index": 67}, "uniqueid": "MTK2158:3W8CV64QJ36XNYFL72PIVYKFVYT9HW", "dateTime": 1516754795480}, {"current_trial": 68, "trialdata": {"rt": -1000, "trial_type": "single-audio", "word": "possum", "stimulus": "/static/audio/wordpool/POSSUM.wav", "conditions": [18, 1200, "a", 18000], "internal_node_id": "0.0-50.0", "trial": 1, "time_elapsed": 475514, "serialpos": 13, "key_press": -1, "wordID": 1111, "type": "PRES_AUD", "trial_index": 68}, "uniqueid": "MTK2158:3W8CV64QJ36XNYFL72PIVYKFVYT9HW", "dateTime": 1516754797589}, {"current_trial": 69, "trialdata": {"rt": -1000, "trial_type": "single-audio", "word": "shrub", "stimulus": "/static/audio/wordpool/SHRUB.wav", "conditions": [18, 1200, "a", 18000], "internal_node_id": "0.0-51.0", "trial": 1, "time_elapsed": 477597, "serialpos": 14, "key_press": -1, "wordID": 1298, "type": "PRES_AUD", "trial_index": 69}, "uniqueid": "MTK2158:3W8CV64QJ36XNYFL72PIVYKFVYT9HW", "dateTime": 1516754799672}, {"current_trial": 70, "trialdata": {"rt": -1000, "trial_type": "single-audio", "word": "crater", "stimulus": "/static/audio/wordpool/CRATER.wav", "conditions": [18, 1200, "a", 18000], "internal_node_id": "0.0-52.0", "trial": 1, "time_elapsed": 479618, "serialpos": 15, "key_press": -1, "wordID": 399, "type": "PRES_AUD", "trial_index": 70}, "uniqueid": "MTK2158:3W8CV64QJ36XNYFL72PIVYKFVYT9HW", "dateTime": 1516754801693}, {"current_trial": 71, "trialdata": {"rt": -1000, "trial_type": "single-audio", "word": "igloo", "stimulus": "/static/audio/wordpool/IGLOO.wav", "conditions": [18, 1200, "a", 18000], "internal_node_id": "0.0-53.0", "trial": 1, "time_elapsed": 481758, "serialpos": 16, "key_press": -1, "wordID": 733, "type": "PRES_AUD", "trial_index": 71}, "uniqueid": "MTK2158:3W8CV64QJ36XNYFL72PIVYKFVYT9HW", "dateTime": 1516754803834}, {"current_trial": 72, "trialdata": {"rt": -1000, "trial_type": "single-audio", "word": "comet", "stimulus": "/static/audio/wordpool/COMET.wav", "conditions": [18, 1200, "a", 18000], "internal_node_id": "0.0-54.0", "trial": 1, "time_elapsed": 483849, "serialpos": 17, "key_press": -1, "wordID": 352, "type": "PRES_AUD", "trial_index": 72}, "uniqueid": "MTK2158:3W8CV64QJ36XNYFL72PIVYKFVYT9HW", "dateTime": 1516754805924}, {"current_trial": 73, "trialdata": {"rt": -1, "trial_type": "single-stim", "stimulus": "", "internal_node_id": "0.0-55.0-0.0", "time_elapsed": 485177, "key_press": -1, "type": "PRE_RECALL_DELAY", "trial_index": 73}, "uniqueid": "MTK2158:3W8CV64QJ36XNYFL72PIVYKFVYT9HW", "dateTime": 1516754807253}, {"current_trial": 74, "trialdata": {"rt": -1000, "trial_type": "single-audio", "stimulus": "/static/audio/400Hz.wav", "internal_node_id": "0.0-56.0", "time_elapsed": 485679, "key_press": -1, "type": "PRE_RECALL_ALERT", "trial_index": 74}, "uniqueid": "MTK2158:3W8CV64QJ36XNYFL72PIVYKFVYT9HW", "dateTime": 1516754807755}, {"current_trial": 75, "trialdata": {"rt": [2816, 4676, 6406, 9518, 21100, 22688, 29000, 35191, 39748], "recwords": ["comet", "igloo", "schrub", "kitchen", "comet", "igloo", "kitchen", "shrub", "violet"], "key_times": [1966, 2093, 2289, 2331, 2545, 2816, 3484, 3682, 4038, 4253, 4423, 4676, 5213, 5462, 5583, 5810, 5976, 6164, 6406, 7611, 8035, 8510, 8786, 8959, 9061, 9236, 9518, 20376, 20480, 20686, 20737, 20937, 21100, 21742, 21922, 22128, 22354, 22493, 22688, 27910, 28087, 28200, 28440, 28584, 28681, 28812, 29000, 32074, 32295, 32413, 32630, 32734, 33175, 33353, 33532, 33781, 34416, 34645, 34778, 34943, 35191, 37819, 38943, 39097, 39287, 39387, 39570, 39748], "trial_type": "free-recall", "conditions": [18, 1200, "a", 18000], "internal_node_id": "0.0-57.0-0.0", "key_presses": [67, 79, 77, 69, 84, 13, 73, 71, 76, 79, 79, 13, 83, 67, 72, 82, 85, 66, 13, 75, 73, 84, 67, 72, 69, 78, 13, 67, 79, 77, 69, 84, 13, 73, 71, 76, 79, 79, 13, 75, 73, 84, 67, 72, 69, 78, 13, 83, 67, 72, 85, 82, 8, 8, 8, 8, 72, 82, 85, 66, 13, 86, 73, 79, 76, 69, 84, 13], "trial": 1, "time_elapsed": 545697, "type": "FREE_RECALL", "trial_index": 75}, "uniqueid": "MTK2158:3W8CV64QJ36XNYFL72PIVYKFVYT9HW", "dateTime": 1516754867776}, {"current_trial": 76, "trialdata": {"rt": 3649, "trial_type": "text", "internal_node_id": "0.0-58.0", "time_elapsed": 551352, "key_press": 32, "type": "INSTRUCTIONS", "trial_index": 76}, "uniqueid": "MTK2158:3W8CV64QJ36XNYFL72PIVYKFVYT9HW", "dateTime": 1516754873428}, {"current_trial": 77, "trialdata": {"rt": [2815, 5541, 11990], "trial_type": "math-distractor", "key_times": [2295, 2444, 2815, 5224, 5541, 11615, 11789, 11990], "responses": ["10", "8", "21"], "num2": [2, 2, 4, 2], "num3": [2, 2, 9, 3], "conditions": [24, 800, "a", 12000], "internal_node_id": "0.0-59.0", "key_presses": [97, 96, 13, 104, 13, 98, 97, 13], "trial": 2, "time_elapsed": 564363, "type": "DISTRACTOR", "trial_index": 77, "num1": [6, 4, 8, 1]}, "uniqueid": "MTK2158:3W8CV64QJ36XNYFL72PIVYKFVYT9HW", "dateTime": 1516754886438}, {"current_trial": 78, "trialdata": {"rt": -1, "trial_type": "single-stim", "stimulus": "<p id=\"stim\">10</p>", "internal_node_id": "0.0-60.0-0.0", "time_elapsed": 567365, "key_press": -1, "trial_index": 78}, "uniqueid": "MTK2158:3W8CV64QJ36XNYFL72PIVYKFVYT9HW", "dateTime": 1516754889441}, {"current_trial": 79, "trialdata": {"rt": -1, "trial_type": "single-stim", "stimulus": "<p id=\"stim\">9</p>", "internal_node_id": "0.0-60.0-1.0", "time_elapsed": 568367, "key_press": -1, "trial_index": 79}, "uniqueid": "MTK2158:3W8CV64QJ36XNYFL72PIVYKFVYT9HW", "dateTime": 1516754890443}, {"current_trial": 80, "trialdata": {"rt": -1, "trial_type": "single-stim", "stimulus": "<p id=\"stim\">8</p>", "internal_node_id": "0.0-60.0-2.0", "time_elapsed": 569369, "key_press": -1, "trial_index": 80}, "uniqueid": "MTK2158:3W8CV64QJ36XNYFL72PIVYKFVYT9HW", "dateTime": 1516754891445}, {"current_trial": 81, "trialdata": {"rt": -1, "trial_type": "single-stim", "stimulus": "<p id=\"stim\">7</p>", "internal_node_id": "0.0-60.0-3.0", "time_elapsed": 570376, "key_press": -1, "trial_index": 81}, "uniqueid": "MTK2158:3W8CV64QJ36XNYFL72PIVYKFVYT9HW", "dateTime": 1516754892451}, {"current_trial": 82, "trialdata": {"rt": -1, "trial_type": "single-stim", "stimulus": "<p id=\"stim\">6</p>", "internal_node_id": "0.0-60.0-4.0", "time_elapsed": 571379, "key_press": -1, "trial_index": 82}, "uniqueid": "MTK2158:3W8CV64QJ36XNYFL72PIVYKFVYT9HW", "dateTime": 1516754893454}, {"current_trial": 83, "trialdata": {"rt": -1, "trial_type": "single-stim", "stimulus": "<p id=\"stim\">5</p>", "internal_node_id": "0.0-60.0-5.0", "time_elapsed": 572381, "key_press": -1, "trial_index": 83}, "uniqueid": "MTK2158:3W8CV64QJ36XNYFL72PIVYKFVYT9HW", "dateTime": 1516754894456}, {"current_trial": 84, "trialdata": {"rt": -1, "trial_type": "single-stim", "stimulus": "<p id=\"stim\">4</p>", "internal_node_id": "0.0-60.0-6.0", "time_elapsed": 573383, "key_press": -1, "trial_index": 84}, "uniqueid": "MTK2158:3W8CV64QJ36XNYFL72PIVYKFVYT9HW", "dateTime": 1516754895458}, {"current_trial": 85, "trialdata": {"rt": -1, "trial_type": "single-stim", "stimulus": "<p id=\"stim\">3</p>", "internal_node_id": "0.0-60.0-7.0", "time_elapsed": 574386, "key_press": -1, "trial_index": 85}, "uniqueid": "MTK2158:3W8CV64QJ36XNYFL72PIVYKFVYT9HW", "dateTime": 1516754896461}, {"current_trial": 86, "trialdata": {"rt": -1, "trial_type": "single-stim", "stimulus": "<p id=\"stim\">2</p>", "internal_node_id": "0.0-60.0-8.0", "time_elapsed": 575387, "key_press": -1, "trial_index": 86}, "uniqueid": "MTK2158:3W8CV64QJ36XNYFL72PIVYKFVYT9HW", "dateTime": 1516754897462}, {"current_trial": 87, "trialdata": {"rt": -1, "trial_type": "single-stim", "stimulus": "<p id=\"stim\">1</p>", "internal_node_id": "0.0-60.0-9.0", "time_elapsed": 576388, "key_press": -1, "trial_index": 87}, "uniqueid": "MTK2158:3W8CV64QJ36XNYFL72PIVYKFVYT9HW", "dateTime": 1516754898463}, {"current_trial": 88, "trialdata": {"rt": -1, "trial_type": "single-stim", "stimulus": "<p id=\"stim\">+</p>", "internal_node_id": "0.0-61.0-0.0", "time_elapsed": 577890, "key_press": -1, "type": "FIXATION", "trial_index": 88}, "uniqueid": "MTK2158:3W8CV64QJ36XNYFL72PIVYKFVYT9HW", "dateTime": 1516754899965}, {"current_trial": 89, "trialdata": {"rt": -1000, "trial_type": "single-audio", "word": "sister", "stimulus": "/static/audio/wordpool/SISTER.wav", "conditions": [24, 800, "a", 12000], "internal_node_id": "0.0-62.0", "trial": 2, "time_elapsed": 579632, "serialpos": 0, "key_press": -1, "wordID": 1311, "type": "PRES_AUD", "trial_index": 89}, "uniqueid": "MTK2158:3W8CV64QJ36XNYFL72PIVYKFVYT9HW", "dateTime": 1516754901707}, {"current_trial": 90, "trialdata": {"rt": -1000, "trial_type": "single-audio", "word": "crevice", "stimulus": "/static/audio/wordpool/CREVICE.wav", "conditions": [24, 800, "a", 12000], "internal_node_id": "0.0-63.0", "trial": 2, "time_elapsed": 581308, "serialpos": 1, "key_press": -1, "wordID": 404, "type": "PRES_AUD", "trial_index": 90}, "uniqueid": "MTK2158:3W8CV64QJ36XNYFL72PIVYKFVYT9HW", "dateTime": 1516754903384}, {"current_trial": 91, "trialdata": {"rt": -1000, "trial_type": "single-audio", "word": "nurse", "stimulus": "/static/audio/wordpool/NURSE.wav", "conditions": [24, 800, "a", 12000], "internal_node_id": "0.0-64.0", "trial": 2, "time_elapsed": 583250, "serialpos": 2, "key_press": -1, "wordID": 962, "type": "PRES_AUD", "trial_index": 91}, "uniqueid": "MTK2158:3W8CV64QJ36XNYFL72PIVYKFVYT9HW", "dateTime": 1516754905326}, {"current_trial": 92, "trialdata": {"rt": -1000, "trial_type": "single-audio", "word": "army", "stimulus": "/static/audio/wordpool/ARMY.wav", "conditions": [24, 800, "a", 12000], "internal_node_id": "0.0-65.0", "trial": 2, "time_elapsed": 585163, "serialpos": 3, "key_press": -1, "wordID": 38, "type": "PRES_AUD", "trial_index": 92}, "uniqueid": "MTK2158:3W8CV64QJ36XNYFL72PIVYKFVYT9HW", "dateTime": 1516754907239}, {"current_trial": 93, "trialdata": {"rt": -1000, "trial_type": "single-audio", "word": "marsh", "stimulus": "/static/audio/wordpool/MARSH.wav", "conditions": [24, 800, "a", 12000], "internal_node_id": "0.0-66.0", "trial": 2, "time_elapsed": 586772, "serialpos": 4, "key_press": -1, "wordID": 873, "type": "PRES_AUD", "trial_index": 93}, "uniqueid": "MTK2158:3W8CV64QJ36XNYFL72PIVYKFVYT9HW", "dateTime": 1516754908847}, {"current_trial": 94, "trialdata": {"rt": -1000, "trial_type": "single-audio", "word": "lake", "stimulus": "/static/audio/wordpool/LAKE.wav", "conditions": [24, 800, "a", 12000], "internal_node_id": "0.0-67.0", "trial": 2, "time_elapsed": 588652, "serialpos": 5, "key_press": -1, "wordID": 795, "type": "PRES_AUD", "trial_index": 94}, "uniqueid": "MTK2158:3W8CV64QJ36XNYFL72PIVYKFVYT9HW", "dateTime": 1516754910727}, {"current_trial": 95, "trialdata": {"rt": -1000, "trial_type": "single-audio", "word": "knife", "stimulus": "/static/audio/wordpool/KNIFE.wav", "conditions": [24, 800, "a", 12000], "internal_node_id": "0.0-68.0", "trial": 2, "time_elapsed": 590645, "serialpos": 6, "key_press": -1, "wordID": 784, "type": "PRES_AUD", "trial_index": 95}, "uniqueid": "MTK2158:3W8CV64QJ36XNYFL72PIVYKFVYT9HW", "dateTime": 1516754912720}, {"current_trial": 96, "trialdata": {"rt": -1000, "trial_type": "single-audio", "word": "lunch", "stimulus": "/static/audio/wordpool/LUNCH.wav", "conditions": [24, 800, "a", 12000], "internal_node_id": "0.0-69.0", "trial": 2, "time_elapsed": 592404, "serialpos": 7, "key_press": -1, "wordID": 848, "type": "PRES_AUD", "trial_index": 96}, "uniqueid": "MTK2158:3W8CV64QJ36XNYFL72PIVYKFVYT9HW", "dateTime": 1516754914479}, {"current_trial": 97, "trialdata": {"rt": -1000, "trial_type": "single-audio", "word": "victim", "stimulus": "/static/audio/wordpool/VICTIM.wav", "conditions": [24, 800, "a", 12000], "internal_node_id": "0.0-70.0", "trial": 2, "time_elapsed": 594279, "serialpos": 8, "key_press": -1, "wordID": 1561, "type": "PRES_AUD", "trial_index": 97}, "uniqueid": "MTK2158:3W8CV64QJ36XNYFL72PIVYKFVYT9HW", "dateTime": 1516754916354}, {"current_trial": 98, "trialdata": {"rt": -1000, "trial_type": "single-audio", "word": "chest", "stimulus": "/static/audio/wordpool/CHEST.wav", "conditions": [24, 800, "a", 12000], "internal_node_id": "0.0-71.0", "trial": 2, "time_elapsed": 596021, "serialpos": 9, "key_press": -1, "wordID": 294, "type": "PRES_AUD", "trial_index": 98}, "uniqueid": "MTK2158:3W8CV64QJ36XNYFL72PIVYKFVYT9HW", "dateTime": 1516754918096}, {"current_trial": 99, "trialdata": {"rt": -1000, "trial_type": "single-audio", "word": "patient", "stimulus": "/static/audio/wordpool/PATIENT.wav", "conditions": [24, 800, "a", 12000], "internal_node_id": "0.0-72.0", "trial": 2, "time_elapsed": 597647, "serialpos": 10, "key_press": -1, "wordID": 1023, "type": "PRES_AUD", "trial_index": 99}, "uniqueid": "MTK2158:3W8CV64QJ36XNYFL72PIVYKFVYT9HW", "dateTime": 1516754919722}, {"current_trial": 100, "trialdata": {"rt": -1000, "trial_type": "single-audio", "word": "butcher", "stimulus": "/static/audio/wordpool/BUTCHER.wav", "conditions": [24, 800, "a", 12000], "internal_node_id": "0.0-73.0", "trial": 2, "time_elapsed": 599488, "serialpos": 11, "key_press": -1, "wordID": 202, "type": "PRES_AUD", "trial_index": 100}, "uniqueid": "MTK2158:3W8CV64QJ36XNYFL72PIVYKFVYT9HW", "dateTime": 1516754921563}, {"current_trial": 101, "trialdata": {"rt": -1000, "trial_type": "single-audio", "word": "popcorn", "stimulus": "/static/audio/wordpool/POPCORN.wav", "conditions": [24, 800, "a", 12000], "internal_node_id": "0.0-74.0", "trial": 2, "time_elapsed": 601249, "serialpos": 12, "key_press": -1, "wordID": 1103, "type": "PRES_AUD", "trial_index": 101}, "uniqueid": "MTK2158:3W8CV64QJ36XNYFL72PIVYKFVYT9HW", "dateTime": 1516754923324}, {"current_trial": 102, "trialdata": {"rt": -1000, "trial_type": "single-audio", "word": "snack", "stimulus": "/static/audio/wordpool/SNACK.wav", "conditions": [24, 800, "a", 12000], "internal_node_id": "0.0-75.0", "trial": 2, "time_elapsed": 603110, "serialpos": 13, "key_press": -1, "wordID": 1330, "type": "PRES_AUD", "trial_index": 102}, "uniqueid": "MTK2158:3W8CV64QJ36XNYFL72PIVYKFVYT9HW", "dateTime": 1516754925185}, {"current_trial": 103, "trialdata": {"rt": -1000, "trial_type": "single-audio", "word": "turnip", "stimulus": "/static/audio/wordpool/TURNIP.wav", "conditions": [24, 800, "a", 12000], "internal_node_id": "0.0-76.0", "trial": 2, "time_elapsed": 604855, "serialpos": 14, "key_press": -1, "wordID": 1520, "type": "PRES_AUD", "trial_index": 103}, "uniqueid": "MTK2158:3W8CV64QJ36XNYFL72PIVYKFVYT9HW", "dateTime": 1516754926931}, {"current_trial": 104, "trialdata": {"rt": -1000, "trial_type": "single-audio", "word": "parrot", "stimulus": "/static/audio/wordpool/PARROT.wav", "conditions": [24, 800, "a", 12000], "internal_node_id": "0.0-77.0", "trial": 2, "time_elapsed": 606525, "serialpos": 15, "key_press": -1, "wordID": 1014, "type": "PRES_AUD", "trial_index": 104}, "uniqueid": "MTK2158:3W8CV64QJ36XNYFL72PIVYKFVYT9HW", "dateTime": 1516754928601}, {"current_trial": 105, "trialdata": {"rt": -1000, "trial_type": "single-audio", "word": "eagle", "stimulus": "/static/audio/wordpool/EAGLE.wav", "conditions": [24, 800, "a", 12000], "internal_node_id": "0.0-78.0", "trial": 2, "time_elapsed": 608463, "serialpos": 16, "key_press": -1, "wordID": 511, "type": "PRES_AUD", "trial_index": 105}, "uniqueid": "MTK2158:3W8CV64QJ36XNYFL72PIVYKFVYT9HW", "dateTime": 1516754930538}, {"current_trial": 106, "trialdata": {"rt": -1000, "trial_type": "single-audio", "word": "garden", "stimulus": "/static/audio/wordpool/GARDEN.wav", "conditions": [24, 800, "a", 12000], "internal_node_id": "0.0-79.0", "trial": 2, "time_elapsed": 610067, "serialpos": 17, "key_press": -1, "wordID": 622, "type": "PRES_AUD", "trial_index": 106}, "uniqueid": "MTK2158:3W8CV64QJ36XNYFL72PIVYKFVYT9HW", "dateTime": 1516754932142}, {"current_trial": 107, "trialdata": {"rt": -1000, "trial_type": "single-audio", "word": "plaza", "stimulus": "/static/audio/wordpool/PLAZA.wav", "conditions": [24, 800, "a", 12000], "internal_node_id": "0.0-80.0", "trial": 2, "time_elapsed": 611986, "serialpos": 18, "key_press": -1, "wordID": 1087, "type": "PRES_AUD", "trial_index": 107}, "uniqueid": "MTK2158:3W8CV64QJ36XNYFL72PIVYKFVYT9HW", "dateTime": 1516754934061}, {"current_trial": 108, "trialdata": {"rt": -1000, "trial_type": "single-audio", "word": "pecan", "stimulus": "/static/audio/wordpool/PECAN.wav", "conditions": [24, 800, "a", 12000], "internal_node_id": "0.0-81.0", "trial": 2, "time_elapsed": 613658, "serialpos": 19, "key_press": -1, "wordID": 1035, "type": "PRES_AUD", "trial_index": 108}, "uniqueid": "MTK2158:3W8CV64QJ36XNYFL72PIVYKFVYT9HW", "dateTime": 1516754935734}, {"current_trial": 109, "trialdata": {"rt": -1000, "trial_type": "single-audio", "word": "zipper", "stimulus": "/static/audio/wordpool/ZIPPER.wav", "conditions": [24, 800, "a", 12000], "internal_node_id": "0.0-82.0", "trial": 2, "time_elapsed": 615270, "serialpos": 20, "key_press": -1, "wordID": 1635, "type": "PRES_AUD", "trial_index": 109}, "uniqueid": "MTK2158:3W8CV64QJ36XNYFL72PIVYKFVYT9HW", "dateTime": 1516754937346}, {"current_trial": 110, "trialdata": {"rt": -1000, "trial_type": "single-audio", "word": "scarf", "stimulus": "/static/audio/wordpool/SCARF.wav", "conditions": [24, 800, "a", 12000], "internal_node_id": "0.0-83.0", "trial": 2, "time_elapsed": 617161, "serialpos": 21, "key_press": -1, "wordID": 1245, "type": "PRES_AUD", "trial_index": 110}, "uniqueid": "MTK2158:3W8CV64QJ36XNYFL72PIVYKFVYT9HW", "dateTime": 1516754939237}, {"current_trial": 111, "trialdata": {"rt": -1000, "trial_type": "single-audio", "word": "preacher", "stimulus": "/static/audio/wordpool/PREACHER.wav", "conditions": [24, 800, "a", 12000], "internal_node_id": "0.0-84.0", "trial": 2, "time_elapsed": 618922, "serialpos": 22, "key_press": -1, "wordID": 1118, "type": "PRES_AUD", "trial_index": 111}, "uniqueid": "MTK2158:3W8CV64QJ36XNYFL72PIVYKFVYT9HW", "dateTime": 1516754940998}, {"current_trial": 112, "trialdata": {"rt": -1000, "trial_type": "single-audio", "word": "rooster", "stimulus": "/static/audio/wordpool/ROOSTER.wav", "conditions": [24, 800, "a", 12000], "internal_node_id": "0.0-85.0", "trial": 2, "time_elapsed": 620690, "serialpos": 23, "key_press": -1, "wordID": 1208, "type": "PRES_AUD", "trial_index": 112}, "uniqueid": "MTK2158:3W8CV64QJ36XNYFL72PIVYKFVYT9HW", "dateTime": 1516754942765}, {"current_trial": 113, "trialdata": {"rt": -1, "trial_type": "single-stim", "stimulus": "", "internal_node_id": "0.0-86.0-0.0", "time_elapsed": 621928, "key_press": -1, "type": "PRE_RECALL_DELAY", "trial_index": 113}, "uniqueid": "MTK2158:3W8CV64QJ36XNYFL72PIVYKFVYT9HW", "dateTime": 1516754944003}, {"current_trial": 114, "trialdata": {"rt": -1000, "trial_type": "single-audio", "stimulus": "/static/audio/400Hz.wav", "internal_node_id": "0.0-87.0", "time_elapsed": 622430, "key_press": -1, "type": "PRE_RECALL_ALERT", "trial_index": 114}, "uniqueid": "MTK2158:3W8CV64QJ36XNYFL72PIVYKFVYT9HW", "dateTime": 1516754944506}, {"current_trial": 115, "trialdata": {"rt": [1554, 3195, 4471, 5759, 7081, 9259, 14887, 15946, 18743, 27259], "recwords": ["rooster", "creature", "sister", "marsh", "ocean", "creature", "parrot", "eagle", "garden", "army"], "key_times": [583, 749, 903, 997, 1198, 1341, 1439, 1554, 1800, 2009, 2088, 2309, 2525, 2761, 2824, 3035, 3195, 3573, 3682, 3819, 3994, 4159, 4241, 4471, 4753, 4842, 4989, 5264, 5487, 5759, 6241, 6342, 6536, 6718, 6878, 7081, 8027, 8243, 8334, 8502, 8688, 8894, 8961, 9101, 9259, 13644, 13778, 13921, 14073, 14187, 14412, 14887, 15128, 15298, 15564, 15672, 15789, 15946, 17689, 17844, 17964, 18228, 18418, 18572, 18743, 26473, 26678, 26859, 27100, 27259], "trial_type": "free-recall", "conditions": [24, 800, "a", 12000], "internal_node_id": "0.0-88.0-0.0", "key_presses": [82, 79, 79, 83, 84, 69, 82, 13, 67, 82, 69, 65, 84, 85, 82, 69, 13, 83, 73, 83, 84, 69, 82, 13, 77, 65, 82, 83, 72, 13, 79, 67, 69, 65, 78, 13, 67, 82, 69, 65, 84, 85, 82, 69, 13, 80, 65, 82, 82, 79, 84, 13, 69, 65, 71, 76, 69, 13, 71, 65, 82, 68, 69, 78, 13, 65, 82, 77, 89, 13], "trial": 2, "time_elapsed": 682437, "type": "FREE_RECALL", "trial_index": 115}, "uniqueid": "MTK2158:3W8CV64QJ36XNYFL72PIVYKFVYT9HW", "dateTime": 1516755004518}, {"current_trial": 116, "trialdata": {"rt": 2514, "trial_type": "text", "internal_node_id": "0.0-89.0", "time_elapsed": 686960, "key_press": 32, "type": "INSTRUCTIONS", "trial_index": 116}, "uniqueid": "MTK2158:3W8CV64QJ36XNYFL72PIVYKFVYT9HW", "dateTime": 1516755009036}, {"current_trial": 117, "trialdata": {"rt": [3001, 5498, 8495, 10193, 12820, 14731, 19079, 21009], "trial_type": "math-distractor", "key_times": [2611, 2744, 3001, 5027, 5265, 5498, 8132, 8271, 8495, 9807, 10029, 10193, 12527, 12820, 14384, 14559, 14731, 18733, 18885, 19079, 20714, 21009], "responses": ["10", "12", "10", "14", "9", "11", "21", "9"], "num2": [2, 2, 2, 5, 4, 2, 3, 5, 6], "num3": [7, 6, 2, 5, 4, 8, 9, 2, 8], "conditions": [24, 1600, "a", 24000], "internal_node_id": "0.0-90.0", "key_presses": [97, 96, 13, 97, 98, 13, 97, 96, 13, 97, 100, 13, 105, 13, 97, 97, 13, 98, 97, 13, 105, 13], "trial": 3, "time_elapsed": 712966, "type": "DISTRACTOR", "trial_index": 117, "num1": [1, 4, 6, 4, 1, 1, 9, 2, 9]}, "uniqueid": "MTK2158:3W8CV64QJ36XNYFL72PIVYKFVYT9HW", "dateTime": 1516755035042}, {"current_trial": 118, "trialdata": {"rt": -1, "trial_type": "single-stim", "stimulus": "<p id=\"stim\">10</p>", "internal_node_id": "0.0-91.0-0.0", "time_elapsed": 715970, "key_press": -1, "trial_index": 118}, "uniqueid": "MTK2158:3W8CV64QJ36XNYFL72PIVYKFVYT9HW", "dateTime": 1516755038046}, {"current_trial": 119, "trialdata": {"rt": -1, "trial_type": "single-stim", "stimulus": "<p id=\"stim\">9</p>", "internal_node_id": "0.0-91.0-1.0", "time_elapsed": 716974, "key_press": -1, "trial_index": 119}, "uniqueid": "MTK2158:3W8CV64QJ36XNYFL72PIVYKFVYT9HW", "dateTime": 1516755039049}, {"current_trial": 120, "trialdata": {"rt": -1, "trial_type": "single-stim", "stimulus": "<p id=\"stim\">8</p>", "internal_node_id": "0.0-91.0-2.0", "time_elapsed": 717975, "key_press": -1, "trial_index": 120}, "uniqueid": "MTK2158:3W8CV64QJ36XNYFL72PIVYKFVYT9HW", "dateTime": 1516755040051}, {"current_trial": 121, "trialdata": {"rt": -1, "trial_type": "single-stim", "stimulus": "<p id=\"stim\">7</p>", "internal_node_id": "0.0-91.0-3.0", "time_elapsed": 718979, "key_press": -1, "trial_index": 121}, "uniqueid": "MTK2158:3W8CV64QJ36XNYFL72PIVYKFVYT9HW", "dateTime": 1516755041055}, {"current_trial": 122, "trialdata": {"rt": -1, "trial_type": "single-stim", "stimulus": "<p id=\"stim\">6</p>", "internal_node_id": "0.0-91.0-4.0", "time_elapsed": 719982, "key_press": -1, "trial_index": 122}, "uniqueid": "MTK2158:3W8CV64QJ36XNYFL72PIVYKFVYT9HW", "dateTime": 1516755042057}, {"current_trial": 123, "trialdata": {"rt": -1, "trial_type": "single-stim", "stimulus": "<p id=\"stim\">5</p>", "internal_node_id": "0.0-91.0-5.0", "time_elapsed": 720984, "key_press": -1, "trial_index": 123}, "uniqueid": "MTK2158:3W8CV64QJ36XNYFL72PIVYKFVYT9HW", "dateTime": 1516755043060}, {"current_trial": 124, "trialdata": {"rt": -1, "trial_type": "single-stim", "stimulus": "<p id=\"stim\">4</p>", "internal_node_id": "0.0-91.0-6.0", "time_elapsed": 721986, "key_press": -1, "trial_index": 124}, "uniqueid": "MTK2158:3W8CV64QJ36XNYFL72PIVYKFVYT9HW", "dateTime": 1516755044061}, {"current_trial": 125, "trialdata": {"rt": -1, "trial_type": "single-stim", "stimulus": "<p id=\"stim\">3</p>", "internal_node_id": "0.0-91.0-7.0", "time_elapsed": 722988, "key_press": -1, "trial_index": 125}, "uniqueid": "MTK2158:3W8CV64QJ36XNYFL72PIVYKFVYT9HW", "dateTime": 1516755045063}, {"current_trial": 126, "trialdata": {"rt": -1, "trial_type": "single-stim", "stimulus": "<p id=\"stim\">2</p>", "internal_node_id": "0.0-91.0-8.0", "time_elapsed": 723989, "key_press": -1, "trial_index": 126}, "uniqueid": "MTK2158:3W8CV64QJ36XNYFL72PIVYKFVYT9HW", "dateTime": 1516755046065}, {"current_trial": 127, "trialdata": {"rt": -1, "trial_type": "single-stim", "stimulus": "<p id=\"stim\">1</p>", "internal_node_id": "0.0-91.0-9.0", "time_elapsed": 724992, "key_press": -1, "trial_index": 127}, "uniqueid": "MTK2158:3W8CV64QJ36XNYFL72PIVYKFVYT9HW", "dateTime": 1516755047067}, {"current_trial": 128, "trialdata": {"rt": -1, "trial_type": "single-stim", "stimulus": "<p id=\"stim\">+</p>", "internal_node_id": "0.0-92.0-0.0", "time_elapsed": 726493, "key_press": -1, "type": "FIXATION", "trial_index": 128}, "uniqueid": "MTK2158:3W8CV64QJ36XNYFL72PIVYKFVYT9HW", "dateTime": 1516755048569}, {"current_trial": 129, "trialdata": {"rt": -1000, "trial_type": "single-audio", "word": "spouse", "stimulus": "/static/audio/wordpool/SPOUSE.wav", "conditions": [24, 1600, "a", 24000], "internal_node_id": "0.0-93.0", "trial": 3, "time_elapsed": 729222, "serialpos": 0, "key_press": -1, "wordID": 1357, "type": "PRES_AUD", "trial_index": 129}, "uniqueid": "MTK2158:3W8CV64QJ36XNYFL72PIVYKFVYT9HW", "dateTime": 1516755051297}, {"current_trial": 130, "trialdata": {"rt": -1000, "trial_type": "single-audio", "word": "omelet", "stimulus": "/static/audio/wordpool/OMELET.wav", "conditions": [24, 1600, "a", 24000], "internal_node_id": "0.0-94.0", "trial": 3, "time_elapsed": 731885, "serialpos": 1, "key_press": -1, "wordID": 975, "type": "PRES_AUD", "trial_index": 130}, "uniqueid": "MTK2158:3W8CV64QJ36XNYFL72PIVYKFVYT9HW", "dateTime": 1516755053960}, {"current_trial": 131, "trialdata": {"rt": -1000, "trial_type": "single-audio", "word": "fiddle", "stimulus": "/static/audio/wordpool/FIDDLE.wav", "conditions": [24, 1600, "a", 24000], "internal_node_id": "0.0-95.0", "trial": 3, "time_elapsed": 734413, "serialpos": 2, "key_press": -1, "wordID": 560, "type": "PRES_AUD", "trial_index": 131}, "uniqueid": "MTK2158:3W8CV64QJ36XNYFL72PIVYKFVYT9HW", "dateTime": 1516755056489}, {"current_trial": 132, "trialdata": {"rt": -1000, "trial_type": "single-audio", "word": "stream", "stimulus": "/static/audio/wordpool/STREAM.wav", "conditions": [24, 1600, "a", 24000], "internal_node_id": "0.0-96.0", "trial": 3, "time_elapsed": 736967, "serialpos": 3, "key_press": -1, "wordID": 1391, "type": "PRES_AUD", "trial_index": 132}, "uniqueid": "MTK2158:3W8CV64QJ36XNYFL72PIVYKFVYT9HW", "dateTime": 1516755059042}, {"current_trial": 133, "trialdata": {"rt": -1000, "trial_type": "single-audio", "word": "hiker", "stimulus": "/static/audio/wordpool/HIKER.wav", "conditions": [24, 1600, "a", 24000], "internal_node_id": "0.0-97.0", "trial": 3, "time_elapsed": 739627, "serialpos": 4, "key_press": -1, "wordID": 707, "type": "PRES_AUD", "trial_index": 133}, "uniqueid": "MTK2158:3W8CV64QJ36XNYFL72PIVYKFVYT9HW", "dateTime": 1516755061703}, {"current_trial": 134, "trialdata": {"rt": -1000, "trial_type": "single-audio", "word": "girl", "stimulus": "/static/audio/wordpool/GIRL.wav", "conditions": [24, 1600, "a", 24000], "internal_node_id": "0.0-98.0", "trial": 3, "time_elapsed": 742320, "serialpos": 5, "key_press": -1, "wordID": 636, "type": "PRES_AUD", "trial_index": 134}, "uniqueid": "MTK2158:3W8CV64QJ36XNYFL72PIVYKFVYT9HW", "dateTime": 1516755064396}, {"current_trial": 135, "trialdata": {"rt": -1000, "trial_type": "single-audio", "word": "flask", "stimulus": "/static/audio/wordpool/FLASK.wav", "conditions": [24, 1600, "a", 24000], "internal_node_id": "0.0-99.0", "trial": 3, "time_elapsed": 744782, "serialpos": 6, "key_press": -1, "wordID": 575, "type": "PRES_AUD", "trial_index": 135}, "uniqueid": "MTK2158:3W8CV64QJ36XNYFL72PIVYKFVYT9HW", "dateTime": 1516755066857}, {"current_trial": 136, "trialdata": {"rt": -1000, "trial_type": "single-audio", "word": "raft", "stimulus": "/static/audio/wordpool/RAFT.wav", "conditions": [24, 1600, "a", 24000], "internal_node_id": "0.0-100.0", "trial": 3, "time_elapsed": 747361, "serialpos": 7, "key_press": -1, "wordID": 1158, "type": "PRES_AUD", "trial_index": 136}, "uniqueid": "MTK2158:3W8CV64QJ36XNYFL72PIVYKFVYT9HW", "dateTime": 1516755069436}, {"current_trial": 137, "trialdata": {"rt": -1000, "trial_type": "single-audio", "word": "pocket", "stimulus": "/static/audio/wordpool/POCKET.wav", "conditions": [24, 1600, "a", 24000], "internal_node_id": "0.0-101.0", "trial": 3, "time_elapsed": 750083, "serialpos": 8, "key_press": -1, "wordID": 1092, "type": "PRES_AUD", "trial_index": 137}, "uniqueid": "MTK2158:3W8CV64QJ36XNYFL72PIVYKFVYT9HW", "dateTime": 1516755072159}, {"current_trial": 138, "trialdata": {"rt": -1000, "trial_type": "single-audio", "word": "briefcase", "stimulus": "/static/audio/wordpool/BRIEFCASE.wav", "conditions": [24, 1600, "a", 24000], "internal_node_id": "0.0-102.0", "trial": 3, "time_elapsed": 752658, "serialpos": 9, "key_press": -1, "wordID": 174, "type": "PRES_AUD", "trial_index": 138}, "uniqueid": "MTK2158:3W8CV64QJ36XNYFL72PIVYKFVYT9HW", "dateTime": 1516755074734}, {"current_trial": 139, "trialdata": {"rt": -1000, "trial_type": "single-audio", "word": "beaker", "stimulus": "/static/audio/wordpool/BEAKER.wav", "conditions": [24, 1600, "a", 24000], "internal_node_id": "0.0-103.0", "trial": 3, "time_elapsed": 755307, "serialpos": 10, "key_press": -1, "wordID": 103, "type": "PRES_AUD", "trial_index": 139}, "uniqueid": "MTK2158:3W8CV64QJ36XNYFL72PIVYKFVYT9HW", "dateTime": 1516755077383}, {"current_trial": 140, "trialdata": {"rt": -1000, "trial_type": "single-audio", "word": "concert", "stimulus": "/static/audio/wordpool/CONCERT.wav", "conditions": [24, 1600, "a", 24000], "internal_node_id": "0.0-104.0", "trial": 3, "time_elapsed": 757867, "serialpos": 11, "key_press": -1, "wordID": 359, "type": "PRES_AUD", "trial_index": 140}, "uniqueid": "MTK2158:3W8CV64QJ36XNYFL72PIVYKFVYT9HW", "dateTime": 1516755079942}, {"current_trial": 141, "trialdata": {"rt": -1000, "trial_type": "single-audio", "word": "custard", "stimulus": "/static/audio/wordpool/CUSTARD.wav", "conditions": [24, 1600, "a", 24000], "internal_node_id": "0.0-105.0", "trial": 3, "time_elapsed": 760382, "serialpos": 12, "key_press": -1, "wordID": 428, "type": "PRES_AUD", "trial_index": 141}, "uniqueid": "MTK2158:3W8CV64QJ36XNYFL72PIVYKFVYT9HW", "dateTime": 1516755082458}, {"current_trial": 142, "trialdata": {"rt": -1000, "trial_type": "single-audio", "word": "scalpel", "stimulus": "/static/audio/wordpool/SCALPEL.wav", "conditions": [24, 1600, "a", 24000], "internal_node_id": "0.0-106.0", "trial": 3, "time_elapsed": 762791, "serialpos": 13, "key_press": -1, "wordID": 1242, "type": "PRES_AUD", "trial_index": 142}, "uniqueid": "MTK2158:3W8CV64QJ36XNYFL72PIVYKFVYT9HW", "dateTime": 1516755084866}, {"current_trial": 143, "trialdata": {"rt": -1000, "trial_type": "single-audio", "word": "velvet", "stimulus": "/static/audio/wordpool/VELVET.wav", "conditions": [24, 1600, "a", 24000], "internal_node_id": "0.0-107.0", "trial": 3, "time_elapsed": 765338, "serialpos": 14, "key_press": -1, "wordID": 1554, "type": "PRES_AUD", "trial_index": 143}, "uniqueid": "MTK2158:3W8CV64QJ36XNYFL72PIVYKFVYT9HW", "dateTime": 1516755087414}, {"current_trial": 144, "trialdata": {"rt": -1000, "trial_type": "single-audio", "word": "lace", "stimulus": "/static/audio/wordpool/LACE.wav", "conditions": [24, 1600, "a", 24000], "internal_node_id": "0.0-108.0", "trial": 3, "time_elapsed": 767961, "serialpos": 15, "key_press": -1, "wordID": 791, "type": "PRES_AUD", "trial_index": 144}, "uniqueid": "MTK2158:3W8CV64QJ36XNYFL72PIVYKFVYT9HW", "dateTime": 1516755090037}, {"current_trial": 145, "trialdata": {"rt": -1000, "trial_type": "single-audio", "word": "pudding", "stimulus": "/static/audio/wordpool/PUDDING.wav", "conditions": [24, 1600, "a", 24000], "internal_node_id": "0.0-109.0", "trial": 3, "time_elapsed": 770677, "serialpos": 16, "key_press": -1, "wordID": 1138, "type": "PRES_AUD", "trial_index": 145}, "uniqueid": "MTK2158:3W8CV64QJ36XNYFL72PIVYKFVYT9HW", "dateTime": 1516755092752}, {"current_trial": 146, "trialdata": {"rt": -1000, "trial_type": "single-audio", "word": "seagull", "stimulus": "/static/audio/wordpool/SEAGULL.wav", "conditions": [24, 1600, "a", 24000], "internal_node_id": "0.0-110.0", "trial": 3, "time_elapsed": 773475, "serialpos": 17, "key_press": -1, "wordID": 1260, "type": "PRES_AUD", "trial_index": 146}, "uniqueid": "MTK2158:3W8CV64QJ36XNYFL72PIVYKFVYT9HW", "dateTime": 1516755095551}, {"current_trial": 147, "trialdata": {"rt": -1000, "trial_type": "single-audio", "word": "twig", "stimulus": "/static/audio/wordpool/TWIG.wav", "conditions": [24, 1600, "a", 24000], "internal_node_id": "0.0-111.0", "trial": 3, "time_elapsed": 776206, "serialpos": 18, "key_press": -1, "wordID": 1526, "type": "PRES_AUD", "trial_index": 147}, "uniqueid": "MTK2158:3W8CV64QJ36XNYFL72PIVYKFVYT9HW", "dateTime": 1516755098281}, {"current_trial": 148, "trialdata": {"rt": -1000, "trial_type": "single-audio", "word": "rod", "stimulus": "/static/audio/wordpool/ROD.wav", "conditions": [24, 1600, "a", 24000], "internal_node_id": "0.0-112.0", "trial": 3, "time_elapsed": 778647, "serialpos": 19, "key_press": -1, "wordID": 1202, "type": "PRES_AUD", "trial_index": 148}, "uniqueid": "MTK2158:3W8CV64QJ36XNYFL72PIVYKFVYT9HW", "dateTime": 1516755100723}, {"current_trial": 149, "trialdata": {"rt": -1000, "trial_type": "single-audio", "word": "laser", "stimulus": "/static/audio/wordpool/LASER.wav", "conditions": [24, 1600, "a", 24000], "internal_node_id": "0.0-113.0", "trial": 3, "time_elapsed": 781316, "serialpos": 20, "key_press": -1, "wordID": 800, "type": "PRES_AUD", "trial_index": 149}, "uniqueid": "MTK2158:3W8CV64QJ36XNYFL72PIVYKFVYT9HW", "dateTime": 1516755103391}, {"current_trial": 150, "trialdata": {"rt": -1000, "trial_type": "single-audio", "word": "cattle", "stimulus": "/static/audio/wordpool/CATTLE.wav", "conditions": [24, 1600, "a", 24000], "internal_node_id": "0.0-114.0", "trial": 3, "time_elapsed": 783909, "serialpos": 21, "key_press": -1, "wordID": 260, "type": "PRES_AUD", "trial_index": 150}, "uniqueid": "MTK2158:3W8CV64QJ36XNYFL72PIVYKFVYT9HW", "dateTime": 1516755105985}, {"current_trial": 151, "trialdata": {"rt": -1000, "trial_type": "single-audio", "word": "dime", "stimulus": "/static/audio/wordpool/DIME.wav", "conditions": [24, 1600, "a", 24000], "internal_node_id": "0.0-115.0", "trial": 3, "time_elapsed": 786430, "serialpos": 22, "key_press": -1, "wordID": 465, "type": "PRES_AUD", "trial_index": 151}, "uniqueid": "MTK2158:3W8CV64QJ36XNYFL72PIVYKFVYT9HW", "dateTime": 1516755108505}, {"current_trial": 152, "trialdata": {"rt": -1000, "trial_type": "single-audio", "word": "compass", "stimulus": "/static/audio/wordpool/COMPASS.wav", "conditions": [24, 1600, "a", 24000], "internal_node_id": "0.0-116.0", "trial": 3, "time_elapsed": 788970, "serialpos": 23, "key_press": -1, "wordID": 357, "type": "PRES_AUD", "trial_index": 152}, "uniqueid": "MTK2158:3W8CV64QJ36XNYFL72PIVYKFVYT9HW", "dateTime": 1516755111045}, {"current_trial": 153, "trialdata": {"rt": -1, "trial_type": "single-stim", "stimulus": "", "internal_node_id": "0.0-117.0-0.0", "time_elapsed": 790220, "key_press": -1, "type": "PRE_RECALL_DELAY", "trial_index": 153}, "uniqueid": "MTK2158:3W8CV64QJ36XNYFL72PIVYKFVYT9HW", "dateTime": 1516755112295}, {"current_trial": 154, "trialdata": {"rt": -1000, "trial_type": "single-audio", "stimulus": "/static/audio/400Hz.wav", "internal_node_id": "0.0-118.0", "time_elapsed": 790722, "key_press": -1, "type": "PRE_RECALL_ALERT", "trial_index": 154}, "uniqueid": "MTK2158:3W8CV64QJ36XNYFL72PIVYKFVYT9HW", "dateTime": 1516755112798}, {"current_trial": 155, "trialdata": {"rt": [3066, 4160, 5597, 7397, 12928, 16254, 18822, 22122, 32935, 34282, 41127], "recwords": ["compass", "dime", "cattle", "spouse", "omelette", "twig", "seagull", "girl", "dying", "dime", "compass"], "key_times": [1797, 1936, 2159, 2341, 2491, 2753, 2927, 3066, 3626, 3689, 3892, 3975, 4160, 4518, 4662, 5004, 5194, 5311, 5451, 5597, 6288, 6437, 6596, 6797, 7070, 7293, 7397, 7661, 7988, 8364, 8628, 8748, 8999, 9152, 9320, 10000, 10160, 11213, 11429, 11563, 11776, 12928, 15275, 15448, 15609, 15765, 16254, 17085, 17213, 17338, 17625, 17812, 17984, 18306, 18822, 21547, 21675, 21773, 21923, 22122, 31486, 32118, 32386, 32646, 32761, 32935, 33774, 33849, 34051, 34147, 34282, 39055, 39410, 39657, 39998, 40291, 40508, 40684, 41127], "trial_type": "free-recall", "conditions": [24, 1600, "a", 24000], "internal_node_id": "0.0-119.0-0.0", "key_presses": [67, 79, 77, 80, 65, 83, 83, 13, 68, 73, 77, 69, 13, 67, 65, 84, 84, 76, 69, 13, 83, 80, 79, 85, 83, 69, 13, 79, 69, 8, 77, 69, 76, 76, 69, 8, 8, 69, 84, 84, 69, 13, 84, 87, 73, 71, 13, 83, 69, 65, 71, 85, 76, 76, 13, 71, 73, 82, 76, 13, 68, 89, 73, 78, 71, 13, 68, 73, 77, 69, 13, 67, 79, 77, 80, 65, 83, 83, 13], "trial": 3, "time_elapsed": 850730, "type": "FREE_RECALL", "trial_index": 155}, "uniqueid": "MTK2158:3W8CV64QJ36XNYFL72PIVYKFVYT9HW", "dateTime": 1516755172813}, {"current_trial": 156, "trialdata": {"rt": 13438, "trial_type": "text", "internal_node_id": "0.0-120.0", "time_elapsed": 866178, "key_press": 32, "type": "INSTRUCTIONS", "trial_index": 156}, "uniqueid": "MTK2158:3W8CV64QJ36XNYFL72PIVYKFVYT9HW", "dateTime": 1516755188254}, {"current_trial": 157, "trialdata": {"rt": [2661, 5196, 7361, 11749], "trial_type": "math-distractor", "key_times": [2285, 2510, 2661, 4835, 4992, 5196, 7031, 7361, 9284, 9456, 10335, 10519, 11250, 11449, 11749], "responses": ["13", "10", "8", "19"], "num2": [9, 4, 1, 9, 9], "num3": [1, 2, 3, 5, 7], "conditions": [12, 800, "a", 12000], "internal_node_id": "0.0-121.0", "key_presses": [97, 99, 13, 97, 96, 13, 104, 13, 96, 105, 8, 8, 97, 105, 13], "trial": 4, "time_elapsed": 880184, "type": "DISTRACTOR", "trial_index": 157, "num1": [3, 4, 4, 5, 8]}, "uniqueid": "MTK2158:3W8CV64QJ36XNYFL72PIVYKFVYT9HW", "dateTime": 1516755202259}, {"current_trial": 158, "trialdata": {"rt": -1, "trial_type": "single-stim", "stimulus": "<p id=\"stim\">10</p>", "internal_node_id": "0.0-122.0-0.0", "time_elapsed": 883187, "key_press": -1, "trial_index": 158}, "uniqueid": "MTK2158:3W8CV64QJ36XNYFL72PIVYKFVYT9HW", "dateTime": 1516755205263}, {"current_trial": 159, "trialdata": {"rt": -1, "trial_type": "single-stim", "stimulus": "<p id=\"stim\">9</p>", "internal_node_id": "0.0-122.0-1.0", "time_elapsed": 884189, "key_press": -1, "trial_index": 159}, "uniqueid": "MTK2158:3W8CV64QJ36XNYFL72PIVYKFVYT9HW", "dateTime": 1516755206265}, {"current_trial": 160, "trialdata": {"rt": -1, "trial_type": "single-stim", "stimulus": "<p id=\"stim\">8</p>", "internal_node_id": "0.0-122.0-2.0", "time_elapsed": 885192, "key_press": -1, "trial_index": 160}, "uniqueid": "MTK2158:3W8CV64QJ36XNYFL72PIVYKFVYT9HW", "dateTime": 1516755207267}, {"current_trial": 161, "trialdata": {"rt": -1, "trial_type": "single-stim", "stimulus": "<p id=\"stim\">7</p>", "internal_node_id": "0.0-122.0-3.0", "time_elapsed": 886194, "key_press": -1, "trial_index": 161}, "uniqueid": "MTK2158:3W8CV64QJ36XNYFL72PIVYKFVYT9HW", "dateTime": 1516755208270}, {"current_trial": 162, "trialdata": {"rt": -1, "trial_type": "single-stim", "stimulus": "<p id=\"stim\">6</p>", "internal_node_id": "0.0-122.0-4.0", "time_elapsed": 887196, "key_press": -1, "trial_index": 162}, "uniqueid": "MTK2158:3W8CV64QJ36XNYFL72PIVYKFVYT9HW", "dateTime": 1516755209272}, {"current_trial": 163, "trialdata": {"rt": -1, "trial_type": "single-stim", "stimulus": "<p id=\"stim\">5</p>", "internal_node_id": "0.0-122.0-5.0", "time_elapsed": 888198, "key_press": -1, "trial_index": 163}, "uniqueid": "MTK2158:3W8CV64QJ36XNYFL72PIVYKFVYT9HW", "dateTime": 1516755210274}, {"current_trial": 164, "trialdata": {"rt": -1, "trial_type": "single-stim", "stimulus": "<p id=\"stim\">4</p>", "internal_node_id": "0.0-122.0-6.0", "time_elapsed": 889200, "key_press": -1, "trial_index": 164}, "uniqueid": "MTK2158:3W8CV64QJ36XNYFL72PIVYKFVYT9HW", "dateTime": 1516755211276}, {"current_trial": 165, "trialdata": {"rt": -1, "trial_type": "single-stim", "stimulus": "<p id=\"stim\">3</p>", "internal_node_id": "0.0-122.0-7.0", "time_elapsed": 890202, "key_press": -1, "trial_index": 165}, "uniqueid": "MTK2158:3W8CV64QJ36XNYFL72PIVYKFVYT9HW", "dateTime": 1516755212278}, {"current_trial": 166, "trialdata": {"rt": -1, "trial_type": "single-stim", "stimulus": "<p id=\"stim\">2</p>", "internal_node_id": "0.0-122.0-8.0", "time_elapsed": 891204, "key_press": -1, "trial_index": 166}, "uniqueid": "MTK2158:3W8CV64QJ36XNYFL72PIVYKFVYT9HW", "dateTime": 1516755213279}, {"current_trial": 167, "trialdata": {"rt": -1, "trial_type": "single-stim", "stimulus": "<p id=\"stim\">1</p>", "internal_node_id": "0.0-122.0-9.0", "time_elapsed": 892206, "key_press": -1, "trial_index": 167}, "uniqueid": "MTK2158:3W8CV64QJ36XNYFL72PIVYKFVYT9HW", "dateTime": 1516755214281}, {"current_trial": 168, "trialdata": {"rt": -1, "trial_type": "single-stim", "stimulus": "<p id=\"stim\">+</p>", "internal_node_id": "0.0-123.0-0.0", "time_elapsed": 893707, "key_press": -1, "type": "FIXATION", "trial_index": 168}, "uniqueid": "MTK2158:3W8CV64QJ36XNYFL72PIVYKFVYT9HW", "dateTime": 1516755215783}, {"current_trial": 169, "trialdata": {"rt": -1000, "trial_type": "single-audio", "word": "cafe", "stimulus": "/static/audio/wordpool/CAFE.wav", "conditions": [12, 800, "a", 12000], "internal_node_id": "0.0-124.0", "trial": 4, "time_elapsed": 895633, "serialpos": 0, "key_press": -1, "wordID": 215, "type": "PRES_AUD", "trial_index": 169}, "uniqueid": "MTK2158:3W8CV64QJ36XNYFL72PIVYKFVYT9HW", "dateTime": 1516755217709}, {"current_trial": 170, "trialdata": {"rt": -1000, "trial_type": "single-audio", "word": "hamper", "stimulus": "/static/audio/wordpool/HAMPER.wav", "conditions": [12, 800, "a", 12000], "internal_node_id": "0.0-125.0", "trial": 4, "time_elapsed": 897479, "serialpos": 1, "key_press": -1, "wordID": 681, "type": "PRES_AUD", "trial_index": 170}, "uniqueid": "MTK2158:3W8CV64QJ36XNYFL72PIVYKFVYT9HW", "dateTime": 1516755219554}, {"current_trial": 171, "trialdata": {"rt": -1000, "trial_type": "single-audio", "word": "ketchup", "stimulus": "/static/audio/wordpool/KETCHUP.wav", "conditions": [12, 800, "a", 12000], "internal_node_id": "0.0-126.0", "trial": 4, "time_elapsed": 899247, "serialpos": 2, "key_press": -1, "wordID": 770, "type": "PRES_AUD", "trial_index": 171}, "uniqueid": "MTK2158:3W8CV64QJ36XNYFL72PIVYKFVYT9HW", "dateTime": 1516755221323}, {"current_trial": 172, "trialdata": {"rt": -1000, "trial_type": "single-audio", "word": "diner", "stimulus": "/static/audio/wordpool/DINER.wav", "conditions": [12, 800, "a", 12000], "internal_node_id": "0.0-127.0", "trial": 4, "time_elapsed": 901013, "serialpos": 3, "key_press": -1, "wordID": 466, "type": "PRES_AUD", "trial_index": 172}, "uniqueid": "MTK2158:3W8CV64QJ36XNYFL72PIVYKFVYT9HW", "dateTime": 1516755223089}, {"current_trial": 173, "trialdata": {"rt": -1000, "trial_type": "single-audio", "word": "picnic", "stimulus": "/static/audio/wordpool/PICNIC.wav", "conditions": [12, 800, "a", 12000], "internal_node_id": "0.0-128.0", "trial": 4, "time_elapsed": 903006, "serialpos": 4, "key_press": -1, "wordID": 1059, "type": "PRES_AUD", "trial_index": 173}, "uniqueid": "MTK2158:3W8CV64QJ36XNYFL72PIVYKFVYT9HW", "dateTime": 1516755225081}, {"current_trial": 174, "trialdata": {"rt": -1000, "trial_type": "single-audio", "word": "yarn", "stimulus": "/static/audio/wordpool/YARN.wav", "conditions": [12, 800, "a", 12000], "internal_node_id": "0.0-129.0", "trial": 4, "time_elapsed": 904791, "serialpos": 5, "key_press": -1, "wordID": 1630, "type": "PRES_AUD", "trial_index": 174}, "uniqueid": "MTK2158:3W8CV64QJ36XNYFL72PIVYKFVYT9HW", "dateTime": 1516755226867}, {"current_trial": 175, "trialdata": {"rt": -1000, "trial_type": "single-audio", "word": "actor", "stimulus": "/static/audio/wordpool/ACTOR.wav", "conditions": [12, 800, "a", 12000], "internal_node_id": "0.0-130.0", "trial": 4, "time_elapsed": 906568, "serialpos": 6, "key_press": -1, "wordID": 4, "type": "PRES_AUD", "trial_index": 175}, "uniqueid": "MTK2158:3W8CV64QJ36XNYFL72PIVYKFVYT9HW", "dateTime": 1516755228643}, {"current_trial": 176, "trialdata": {"rt": -1000, "trial_type": "single-audio", "word": "actress", "stimulus": "/static/audio/wordpool/ACTRESS.wav", "conditions": [12, 800, "a", 12000], "internal_node_id": "0.0-131.0", "trial": 4, "time_elapsed": 908311, "serialpos": 7, "key_press": -1, "wordID": 5, "type": "PRES_AUD", "trial_index": 176}, "uniqueid": "MTK2158:3W8CV64QJ36XNYFL72PIVYKFVYT9HW", "dateTime": 1516755230387}, {"current_trial": 177, "trialdata": {"rt": -1000, "trial_type": "single-audio", "word": "chipmunk", "stimulus": "/static/audio/wordpool/CHIPMUNK.wav", "conditions": [12, 800, "a", 12000], "internal_node_id": "0.0-132.0", "trial": 4, "time_elapsed": 909915, "serialpos": 8, "key_press": -1, "wordID": 303, "type": "PRES_AUD", "trial_index": 177}, "uniqueid": "MTK2158:3W8CV64QJ36XNYFL72PIVYKFVYT9HW", "dateTime": 1516755231990}, {"current_trial": 178, "trialdata": {"rt": -1000, "trial_type": "single-audio", "word": "robin", "stimulus": "/static/audio/wordpool/ROBIN.wav", "conditions": [12, 800, "a", 12000], "internal_node_id": "0.0-133.0", "trial": 4, "time_elapsed": 911721, "serialpos": 9, "key_press": -1, "wordID": 1198, "type": "PRES_AUD", "trial_index": 178}, "uniqueid": "MTK2158:3W8CV64QJ36XNYFL72PIVYKFVYT9HW", "dateTime": 1516755233797}, {"current_trial": 179, "trialdata": {"rt": -1000, "trial_type": "single-audio", "word": "summit", "stimulus": "/static/audio/wordpool/SUMMIT.wav", "conditions": [12, 800, "a", 12000], "internal_node_id": "0.0-134.0", "trial": 4, "time_elapsed": 913560, "serialpos": 10, "key_press": -1, "wordID": 1404, "type": "PRES_AUD", "trial_index": 179}, "uniqueid": "MTK2158:3W8CV64QJ36XNYFL72PIVYKFVYT9HW", "dateTime": 1516755235635}, {"current_trial": 180, "trialdata": {"rt": -1000, "trial_type": "single-audio", "word": "clamp", "stimulus": "/static/audio/wordpool/CLAMP.wav", "conditions": [12, 800, "a", 12000], "internal_node_id": "0.0-135.0", "trial": 4, "time_elapsed": 915398, "serialpos": 11, "key_press": -1, "wordID": 315, "type": "PRES_AUD", "trial_index": 180}, "uniqueid": "MTK2158:3W8CV64QJ36XNYFL72PIVYKFVYT9HW", "dateTime": 1516755237474}, {"current_trial": 181, "trialdata": {"rt": -1, "trial_type": "single-stim", "stimulus": "", "internal_node_id": "0.0-136.0-0.0", "time_elapsed": 916745, "key_press": -1, "type": "PRE_RECALL_DELAY", "trial_index": 181}, "uniqueid": "MTK2158:3W8CV64QJ36XNYFL72PIVYKFVYT9HW", "dateTime": 1516755238820}, {"current_trial": 182, "trialdata": {"rt": -1000, "trial_type": "single-audio", "stimulus": "/static/audio/400Hz.wav", "internal_node_id": "0.0-137.0", "time_elapsed": 917247, "key_press": -1, "type": "PRE_RECALL_ALERT", "trial_index": 182}, "uniqueid": "MTK2158:3W8CV64QJ36XNYFL72PIVYKFVYT9HW", "dateTime": 1516755239323}, {"current_trial": 183, "trialdata": {"rt": [2200, 3529, 5703, 7227, 9021, 17387, 25420], "recwords": ["cafe", "diner", "ketchup", "actor", "actress", "yarn", "picnic"], "key_times": [1284, 1535, 1776, 1950, 2200, 2725, 2844, 3118, 3225, 3304, 3529, 3912, 4244, 4479, 4552, 4722, 4965, 5081, 5303, 5458, 5703, 6240, 6495, 6759, 6942, 7071, 7227, 7467, 7711, 7911, 8104, 8210, 8423, 8591, 9021, 16076, 16208, 16395, 16700, 17387, 24032, 24289, 24446, 24694, 24833, 25014, 25420], "trial_type": "free-recall", "conditions": [12, 800, "a", 12000], "internal_node_id": "0.0-138.0-0.0", "key_presses": [67, 65, 70, 69, 13, 68, 73, 78, 69, 82, 13, 67, 8, 75, 69, 84, 67, 72, 85, 80, 13, 65, 67, 84, 79, 82, 13, 65, 67, 84, 82, 69, 83, 83, 13, 89, 65, 82, 78, 13, 80, 73, 67, 78, 73, 67, 13], "trial": 4, "time_elapsed": 977253, "type": "FREE_RECALL", "trial_index": 183}, "uniqueid": "MTK2158:3W8CV64QJ36XNYFL72PIVYKFVYT9HW", "dateTime": 1516755299332}, {"current_trial": 184, "trialdata": {"rt": 5358, "trial_type": "text", "internal_node_id": "0.0-139.0", "time_elapsed": 984615, "key_press": 32, "type": "INSTRUCTIONS", "trial_index": 184}, "uniqueid": "MTK2158:3W8CV64QJ36XNYFL72PIVYKFVYT9HW", "dateTime": 1516755306691}, {"current_trial": 185, "trialdata": {"rt": [5160, 10558], "trial_type": "math-distractor", "key_times": [4734, 4941, 5160, 10058, 10264, 10558], "responses": ["12", "19"], "num2": [5, 9, 7], "num3": [3, 7, 1], "conditions": [24, 1600, "a", 12000], "internal_node_id": "0.0-140.0", "key_presses": [97, 98, 13, 97, 105, 13], "trial": 5, "time_elapsed": 998618, "type": "DISTRACTOR", "trial_index": 185, "num1": [4, 3, 6]}, "uniqueid": "MTK2158:3W8CV64QJ36XNYFL72PIVYKFVYT9HW", "dateTime": 1516755320693}, {"current_trial": 186, "trialdata": {"rt": -1, "trial_type": "single-stim", "stimulus": "<p id=\"stim\">10</p>", "internal_node_id": "0.0-141.0-0.0", "time_elapsed": 1001620, "key_press": -1, "trial_index": 186}, "uniqueid": "MTK2158:3W8CV64QJ36XNYFL72PIVYKFVYT9HW", "dateTime": 1516755323695}, {"current_trial": 187, "trialdata": {"rt": -1, "trial_type": "single-stim", "stimulus": "<p id=\"stim\">9</p>", "internal_node_id": "0.0-141.0-1.0", "time_elapsed": 1002632, "key_press": -1, "trial_index": 187}, "uniqueid": "MTK2158:3W8CV64QJ36XNYFL72PIVYKFVYT9HW", "dateTime": 1516755324707}, {"current_trial": 188, "trialdata": {"rt": -1, "trial_type": "single-stim", "stimulus": "<p id=\"stim\">8</p>", "internal_node_id": "0.0-141.0-2.0", "time_elapsed": 1003637, "key_press": -1, "trial_index": 188}, "uniqueid": "MTK2158:3W8CV64QJ36XNYFL72PIVYKFVYT9HW", "dateTime": 1516755325713}, {"current_trial": 189, "trialdata": {"rt": -1, "trial_type": "single-stim", "stimulus": "<p id=\"stim\">7</p>", "internal_node_id": "0.0-141.0-3.0", "time_elapsed": 1004640, "key_press": -1, "trial_index": 189}, "uniqueid": "MTK2158:3W8CV64QJ36XNYFL72PIVYKFVYT9HW", "dateTime": 1516755326715}, {"current_trial": 190, "trialdata": {"rt": -1, "trial_type": "single-stim", "stimulus": "<p id=\"stim\">6</p>", "internal_node_id": "0.0-141.0-4.0", "time_elapsed": 1005642, "key_press": -1, "trial_index": 190}, "uniqueid": "MTK2158:3W8CV64QJ36XNYFL72PIVYKFVYT9HW", "dateTime": 1516755327717}, {"current_trial": 191, "trialdata": {"rt": -1, "trial_type": "single-stim", "stimulus": "<p id=\"stim\">5</p>", "internal_node_id": "0.0-141.0-5.0", "time_elapsed": 1006644, "key_press": -1, "trial_index": 191}, "uniqueid": "MTK2158:3W8CV64QJ36XNYFL72PIVYKFVYT9HW", "dateTime": 1516755328719}, {"current_trial": 192, "trialdata": {"rt": -1, "trial_type": "single-stim", "stimulus": "<p id=\"stim\">4</p>", "internal_node_id": "0.0-141.0-6.0", "time_elapsed": 1007646, "key_press": -1, "trial_index": 192}, "uniqueid": "MTK2158:3W8CV64QJ36XNYFL72PIVYKFVYT9HW", "dateTime": 1516755329722}, {"current_trial": 193, "trialdata": {"rt": -1, "trial_type": "single-stim", "stimulus": "<p id=\"stim\">3</p>", "internal_node_id": "0.0-141.0-7.0", "time_elapsed": 1008649, "key_press": -1, "trial_index": 193}, "uniqueid": "MTK2158:3W8CV64QJ36XNYFL72PIVYKFVYT9HW", "dateTime": 1516755330724}, {"current_trial": 194, "trialdata": {"rt": -1, "trial_type": "single-stim", "stimulus": "<p id=\"stim\">2</p>", "internal_node_id": "0.0-141.0-8.0", "time_elapsed": 1009652, "key_press": -1, "trial_index": 194}, "uniqueid": "MTK2158:3W8CV64QJ36XNYFL72PIVYKFVYT9HW", "dateTime": 1516755331727}, {"current_trial": 195, "trialdata": {"rt": -1, "trial_type": "single-stim", "stimulus": "<p id=\"stim\">1</p>", "internal_node_id": "0.0-141.0-9.0", "time_elapsed": 1010654, "key_press": -1, "trial_index": 195}, "uniqueid": "MTK2158:3W8CV64QJ36XNYFL72PIVYKFVYT9HW", "dateTime": 1516755332730}, {"current_trial": 196, "trialdata": {"rt": -1, "trial_type": "single-stim", "stimulus": "<p id=\"stim\">+</p>", "internal_node_id": "0.0-142.0-0.0", "time_elapsed": 1012157, "key_press": -1, "type": "FIXATION", "trial_index": 196}, "uniqueid": "MTK2158:3W8CV64QJ36XNYFL72PIVYKFVYT9HW", "dateTime": 1516755334232}, {"current_trial": 197, "trialdata": {"rt": -1000, "trial_type": "single-audio", "word": "citrus", "stimulus": "/static/audio/wordpool/CITRUS.wav", "conditions": [24, 1600, "a", 12000], "internal_node_id": "0.0-143.0", "trial": 5, "time_elapsed": 1014579, "serialpos": 0, "key_press": -1, "wordID": 312, "type": "PRES_AUD", "trial_index": 197}, "uniqueid": "MTK2158:3W8CV64QJ36XNYFL72PIVYKFVYT9HW", "dateTime": 1516755336655}, {"current_trial": 198, "trialdata": {"rt": -1000, "trial_type": "single-audio", "word": "suspect", "stimulus": "/static/audio/wordpool/SUSPECT.wav", "conditions": [24, 1600, "a", 12000], "internal_node_id": "0.0-144.0", "trial": 5, "time_elapsed": 1017108, "serialpos": 1, "key_press": -1, "wordID": 1414, "type": "PRES_AUD", "trial_index": 198}, "uniqueid": "MTK2158:3W8CV64QJ36XNYFL72PIVYKFVYT9HW", "dateTime": 1516755339184}, {"current_trial": 199, "trialdata": {"rt": -1000, "trial_type": "single-audio", "word": "muffin", "stimulus": "/static/audio/wordpool/MUFFIN.wav", "conditions": [24, 1600, "a", 12000], "internal_node_id": "0.0-145.0", "trial": 5, "time_elapsed": 1019827, "serialpos": 2, "key_press": -1, "wordID": 928, "type": "PRES_AUD", "trial_index": 199}, "uniqueid": "MTK2158:3W8CV64QJ36XNYFL72PIVYKFVYT9HW", "dateTime": 1516755341903}, {"current_trial": 200, "trialdata": {"rt": -1000, "trial_type": "single-audio", "word": "parent", "stimulus": "/static/audio/wordpool/PARENT.wav", "conditions": [24, 1600, "a", 12000], "internal_node_id": "0.0-146.0", "trial": 5, "time_elapsed": 1022516, "serialpos": 3, "key_press": -1, "wordID": 1012, "type": "PRES_AUD", "trial_index": 200}, "uniqueid": "MTK2158:3W8CV64QJ36XNYFL72PIVYKFVYT9HW", "dateTime": 1516755344592}, {"current_trial": 201, "trialdata": {"rt": -1000, "trial_type": "single-audio", "word": "europe", "stimulus": "/static/audio/wordpool/EUROPE.wav", "conditions": [24, 1600, "a", 12000], "internal_node_id": "0.0-147.0", "trial": 5, "time_elapsed": 1024969, "serialpos": 4, "key_press": -1, "wordID": 540, "type": "PRES_AUD", "trial_index": 201}, "uniqueid": "MTK2158:3W8CV64QJ36XNYFL72PIVYKFVYT9HW", "dateTime": 1516755347045}, {"current_trial": 202, "trialdata": {"rt": -1000, "trial_type": "single-audio", "word": "grape", "stimulus": "/static/audio/wordpool/GRAPE.wav", "conditions": [24, 1600, "a", 12000], "internal_node_id": "0.0-148.0", "trial": 5, "time_elapsed": 1027683, "serialpos": 5, "key_press": -1, "wordID": 653, "type": "PRES_AUD", "trial_index": 202}, "uniqueid": "MTK2158:3W8CV64QJ36XNYFL72PIVYKFVYT9HW", "dateTime": 1516755349759}, {"current_trial": 203, "trialdata": {"rt": -1000, "trial_type": "single-audio", "word": "peach", "stimulus": "/static/audio/wordpool/PEACH.wav", "conditions": [24, 1600, "a", 12000], "internal_node_id": "0.0-149.0", "trial": 5, "time_elapsed": 1030433, "serialpos": 6, "key_press": -1, "wordID": 1030, "type": "PRES_AUD", "trial_index": 203}, "uniqueid": "MTK2158:3W8CV64QJ36XNYFL72PIVYKFVYT9HW", "dateTime": 1516755352509}, {"current_trial": 204, "trialdata": {"rt": -1000, "trial_type": "single-audio", "word": "truck", "stimulus": "/static/audio/wordpool/TRUCK.wav", "conditions": [24, 1600, "a", 12000], "internal_node_id": "0.0-150.0", "trial": 5, "time_elapsed": 1033024, "serialpos": 7, "key_press": -1, "wordID": 1511, "type": "PRES_AUD", "trial_index": 204}, "uniqueid": "MTK2158:3W8CV64QJ36XNYFL72PIVYKFVYT9HW", "dateTime": 1516755355100}, {"current_trial": 205, "trialdata": {"rt": -1000, "trial_type": "single-audio", "word": "fleet", "stimulus": "/static/audio/wordpool/FLEET.wav", "conditions": [24, 1600, "a", 12000], "internal_node_id": "0.0-151.0", "trial": 5, "time_elapsed": 1035709, "serialpos": 8, "key_press": -1, "wordID": 577, "type": "PRES_AUD", "trial_index": 205}, "uniqueid": "MTK2158:3W8CV64QJ36XNYFL72PIVYKFVYT9HW", "dateTime": 1516755357784}, {"current_trial": 206, "trialdata": {"rt": -1000, "trial_type": "single-audio", "word": "egypt", "stimulus": "/static/audio/wordpool/EGYPT.wav", "conditions": [24, 1600, "a", 12000], "internal_node_id": "0.0-152.0", "trial": 5, "time_elapsed": 1038128, "serialpos": 9, "key_press": -1, "wordID": 518, "type": "PRES_AUD", "trial_index": 206}, "uniqueid": "MTK2158:3W8CV64QJ36XNYFL72PIVYKFVYT9HW", "dateTime": 1516755360203}, {"current_trial": 207, "trialdata": {"rt": -1000, "trial_type": "single-audio", "word": "cashier", "stimulus": "/static/audio/wordpool/CASHIER.wav", "conditions": [24, 1600, "a", 12000], "internal_node_id": "0.0-153.0", "trial": 5, "time_elapsed": 1040533, "serialpos": 10, "key_press": -1, "wordID": 253, "type": "PRES_AUD", "trial_index": 207}, "uniqueid": "MTK2158:3W8CV64QJ36XNYFL72PIVYKFVYT9HW", "dateTime": 1516755362608}, {"current_trial": 208, "trialdata": {"rt": -1000, "trial_type": "single-audio", "word": "finger", "stimulus": "/static/audio/wordpool/FINGER.wav", "conditions": [24, 1600, "a", 12000], "internal_node_id": "0.0-154.0", "trial": 5, "time_elapsed": 1043159, "serialpos": 11, "key_press": -1, "wordID": 566, "type": "PRES_AUD", "trial_index": 208}, "uniqueid": "MTK2158:3W8CV64QJ36XNYFL72PIVYKFVYT9HW", "dateTime": 1516755365234}, {"current_trial": 209, "trialdata": {"rt": -1000, "trial_type": "single-audio", "word": "staple", "stimulus": "/static/audio/wordpool/STAPLE.wav", "conditions": [24, 1600, "a", 12000], "internal_node_id": "0.0-155.0", "trial": 5, "time_elapsed": 1045624, "serialpos": 12, "key_press": -1, "wordID": 1370, "type": "PRES_AUD", "trial_index": 209}, "uniqueid": "MTK2158:3W8CV64QJ36XNYFL72PIVYKFVYT9HW", "dateTime": 1516755367699}, {"current_trial": 210, "trialdata": {"rt": -1000, "trial_type": "single-audio", "word": "clothes", "stimulus": "/static/audio/wordpool/CLOTHES.wav", "conditions": [24, 1600, "a", 12000], "internal_node_id": "0.0-156.0", "trial": 5, "time_elapsed": 1048236, "serialpos": 13, "key_press": -1, "wordID": 326, "type": "PRES_AUD", "trial_index": 210}, "uniqueid": "MTK2158:3W8CV64QJ36XNYFL72PIVYKFVYT9HW", "dateTime": 1516755370312}, {"current_trial": 211, "trialdata": {"rt": -1000, "trial_type": "single-audio", "word": "waiter", "stimulus": "/static/audio/wordpool/WAITER.wav", "conditions": [24, 1600, "a", 12000], "internal_node_id": "0.0-157.0", "trial": 5, "time_elapsed": 1050888, "serialpos": 14, "key_press": -1, "wordID": 1579, "type": "PRES_AUD", "trial_index": 211}, "uniqueid": "MTK2158:3W8CV64QJ36XNYFL72PIVYKFVYT9HW", "dateTime": 1516755372963}, {"current_trial": 212, "trialdata": {"rt": -1000, "trial_type": "single-audio", "word": "seafood", "stimulus": "/static/audio/wordpool/SEAFOOD.wav", "conditions": [24, 1600, "a", 12000], "internal_node_id": "0.0-158.0", "trial": 5, "time_elapsed": 1053575, "serialpos": 15, "key_press": -1, "wordID": 1259, "type": "PRES_AUD", "trial_index": 212}, "uniqueid": "MTK2158:3W8CV64QJ36XNYFL72PIVYKFVYT9HW", "dateTime": 1516755375650}, {"current_trial": 213, "trialdata": {"rt": -1000, "trial_type": "single-audio", "word": "tile", "stimulus": "/static/audio/wordpool/TILE.wav", "conditions": [24, 1600, "a", 12000], "internal_node_id": "0.0-159.0", "trial": 5, "time_elapsed": 1056084, "serialpos": 16, "key_press": -1, "wordID": 1467, "type": "PRES_AUD", "trial_index": 213}, "uniqueid": "MTK2158:3W8CV64QJ36XNYFL72PIVYKFVYT9HW", "dateTime": 1516755378159}, {"current_trial": 214, "trialdata": {"rt": -1000, "trial_type": "single-audio", "word": "dress", "stimulus": "/static/audio/wordpool/DRESS.wav", "conditions": [24, 1600, "a", 12000], "internal_node_id": "0.0-160.0", "trial": 5, "time_elapsed": 1058622, "serialpos": 17, "key_press": -1, "wordID": 494, "type": "PRES_AUD", "trial_index": 214}, "uniqueid": "MTK2158:3W8CV64QJ36XNYFL72PIVYKFVYT9HW", "dateTime": 1516755380698}, {"current_trial": 215, "trialdata": {"rt": -1000, "trial_type": "single-audio", "word": "couch", "stimulus": "/static/audio/wordpool/COUCH.wav", "conditions": [24, 1600, "a", 12000], "internal_node_id": "0.0-161.0", "trial": 5, "time_elapsed": 1061409, "serialpos": 18, "key_press": -1, "wordID": 385, "type": "PRES_AUD", "trial_index": 215}, "uniqueid": "MTK2158:3W8CV64QJ36XNYFL72PIVYKFVYT9HW", "dateTime": 1516755383484}, {"current_trial": 216, "trialdata": {"rt": -1000, "trial_type": "single-audio", "word": "mattress", "stimulus": "/static/audio/wordpool/MATTRESS.wav", "conditions": [24, 1600, "a", 12000], "internal_node_id": "0.0-162.0", "trial": 5, "time_elapsed": 1063973, "serialpos": 19, "key_press": -1, "wordID": 878, "type": "PRES_AUD", "trial_index": 216}, "uniqueid": "MTK2158:3W8CV64QJ36XNYFL72PIVYKFVYT9HW", "dateTime": 1516755386048}, {"current_trial": 217, "trialdata": {"rt": -1000, "trial_type": "single-audio", "word": "stone", "stimulus": "/static/audio/wordpool/STONE.wav", "conditions": [24, 1600, "a", 12000], "internal_node_id": "0.0-163.0", "trial": 5, "time_elapsed": 1066619, "serialpos": 20, "key_press": -1, "wordID": 1384, "type": "PRES_AUD", "trial_index": 217}, "uniqueid": "MTK2158:3W8CV64QJ36XNYFL72PIVYKFVYT9HW", "dateTime": 1516755388695}, {"current_trial": 218, "trialdata": {"rt": -1000, "trial_type": "single-audio", "word": "plaid", "stimulus": "/static/audio/wordpool/PLAID.wav", "conditions": [24, 1600, "a", 12000], "internal_node_id": "0.0-164.0", "trial": 5, "time_elapsed": 1069205, "serialpos": 21, "key_press": -1, "wordID": 1079, "type": "PRES_AUD", "trial_index": 218}, "uniqueid": "MTK2158:3W8CV64QJ36XNYFL72PIVYKFVYT9HW", "dateTime": 1516755391280}, {"current_trial": 219, "trialdata": {"rt": -1000, "trial_type": "single-audio", "word": "carrot", "stimulus": "/static/audio/wordpool/CARROT.wav", "conditions": [24, 1600, "a", 12000], "internal_node_id": "0.0-165.0", "trial": 5, "time_elapsed": 1071720, "serialpos": 22, "key_press": -1, "wordID": 248, "type": "PRES_AUD", "trial_index": 219}, "uniqueid": "MTK2158:3W8CV64QJ36XNYFL72PIVYKFVYT9HW", "dateTime": 1516755393795}, {"current_trial": 220, "trialdata": {"rt": -1000, "trial_type": "single-audio", "word": "survey", "stimulus": "/static/audio/wordpool/SURVEY.wav", "conditions": [24, 1600, "a", 12000], "internal_node_id": "0.0-166.0", "trial": 5, "time_elapsed": 1074394, "serialpos": 23, "key_press": -1, "wordID": 1413, "type": "PRES_AUD", "trial_index": 220}, "uniqueid": "MTK2158:3W8CV64QJ36XNYFL72PIVYKFVYT9HW", "dateTime": 1516755396470}, {"current_trial": 221, "trialdata": {"rt": -1, "trial_type": "single-stim", "stimulus": "", "internal_node_id": "0.0-167.0-0.0", "time_elapsed": 1075609, "key_press": -1, "type": "PRE_RECALL_DELAY", "trial_index": 221}, "uniqueid": "MTK2158:3W8CV64QJ36XNYFL72PIVYKFVYT9HW", "dateTime": 1516755397684}, {"current_trial": 222, "trialdata": {"rt": -1000, "trial_type": "single-audio", "stimulus": "/static/audio/400Hz.wav", "internal_node_id": "0.0-168.0", "time_elapsed": 1076110, "key_press": -1, "type": "PRE_RECALL_ALERT", "trial_index": 222}, "uniqueid": "MTK2158:3W8CV64QJ36XNYFL72PIVYKFVYT9HW", "dateTime": 1516755398186}, {"current_trial": 223, "trialdata": {"rt": [3344, 4766, 8449, 12047, 13568, 16489, 20284, 23226], "recwords": ["survey", "carrott", "cashier", "restaurant", "finger", "staple", "grape", "europe"], "key_times": [2210, 2423, 2525, 2769, 2944, 3105, 3344, 3545, 3724, 3885, 4051, 4170, 4350, 4516, 4766, 7028, 7183, 7387, 7893, 8004, 8114, 8218, 8449, 9008, 9657, 9901, 10101, 10294, 10466, 10563, 11040, 11273, 11466, 12047, 12290, 12395, 12579, 12594, 12776, 12847, 13568, 15215, 15401, 15578, 15836, 16076, 16216, 16489, 19404, 19615, 19744, 19899, 20072, 20284, 22097, 22297, 22377, 22536, 22860, 23045, 23226, 27541, 28527], "trial_type": "free-recall", "conditions": [24, 1600, "a", 12000], "internal_node_id": "0.0-169.0-0.0", "key_presses": [83, 85, 82, 86, 69, 89, 13, 67, 65, 82, 82, 79, 84, 84, 13, 67, 65, 83, 72, 73, 69, 82, 13, 82, 69, 83, 84, 65, 85, 82, 65, 78, 84, 13, 70, 73, 78, 71, 69, 82, 13, 83, 84, 65, 80, 76, 69, 13, 71, 82, 65, 80, 69, 13, 69, 85, 82, 79, 80, 69, 13, 74, 8], "trial": 5, "time_elapsed": 1136117, "type": "FREE_RECALL", "trial_index": 223}, "uniqueid": "MTK2158:3W8CV64QJ36XNYFL72PIVYKFVYT9HW", "dateTime": 1516755458202}, {"current_trial": 224, "trialdata": {"rt": 56508, "trial_type": "text", "internal_node_id": "0.0-170.0", "time_elapsed": 1194637, "key_press": 32, "type": "INSTRUCTIONS", "trial_index": 224}, "uniqueid": "MTK2158:3W8CV64QJ36XNYFL72PIVYKFVYT9HW", "dateTime": 1516755516712}, {"current_trial": 225, "trialdata": {"rt": [4696, 8694, 11936], "trial_type": "math-distractor", "key_times": [4110, 4355, 4696, 8314, 8510, 8694, 11504, 11720, 11936], "responses": ["16", "14", "16"], "num2": [2, 3, 7, 7], "num3": [9, 7, 7, 7], "conditions": [24, 1600, "a", 12000], "internal_node_id": "0.0-171.0", "key_presses": [97, 102, 13, 97, 100, 13, 97, 102, 13], "trial": 6, "time_elapsed": 1208643, "type": "DISTRACTOR", "trial_index": 225, "num1": [5, 4, 2, 9]}, "uniqueid": "MTK2158:3W8CV64QJ36XNYFL72PIVYKFVYT9HW", "dateTime": 1516755530719}, {"current_trial": 226, "trialdata": {"rt": -1, "trial_type": "single-stim", "stimulus": "<p id=\"stim\">10</p>", "internal_node_id": "0.0-172.0-0.0", "time_elapsed": 1211645, "key_press": -1, "trial_index": 226}, "uniqueid": "MTK2158:3W8CV64QJ36XNYFL72PIVYKFVYT9HW", "dateTime": 1516755533721}, {"current_trial": 227, "trialdata": {"rt": -1, "trial_type": "single-stim", "stimulus": "<p id=\"stim\">9</p>", "internal_node_id": "0.0-172.0-1.0", "time_elapsed": 1212648, "key_press": -1, "trial_index": 227}, "uniqueid": "MTK2158:3W8CV64QJ36XNYFL72PIVYKFVYT9HW", "dateTime": 1516755534723}, {"current_trial": 228, "trialdata": {"rt": -1, "trial_type": "single-stim", "stimulus": "<p id=\"stim\">8</p>", "internal_node_id": "0.0-172.0-2.0", "time_elapsed": 1213650, "key_press": -1, "trial_index": 228}, "uniqueid": "MTK2158:3W8CV64QJ36XNYFL72PIVYKFVYT9HW", "dateTime": 1516755535725}, {"current_trial": 229, "trialdata": {"rt": -1, "trial_type": "single-stim", "stimulus": "<p id=\"stim\">7</p>", "internal_node_id": "0.0-172.0-3.0", "time_elapsed": 1214652, "key_press": -1, "trial_index": 229}, "uniqueid": "MTK2158:3W8CV64QJ36XNYFL72PIVYKFVYT9HW", "dateTime": 1516755536727}, {"current_trial": 230, "trialdata": {"rt": -1, "trial_type": "single-stim", "stimulus": "<p id=\"stim\">6</p>", "internal_node_id": "0.0-172.0-4.0", "time_elapsed": 1215656, "key_press": -1, "trial_index": 230}, "uniqueid": "MTK2158:3W8CV64QJ36XNYFL72PIVYKFVYT9HW", "dateTime": 1516755537732}, {"current_trial": 231, "trialdata": {"rt": -1, "trial_type": "single-stim", "stimulus": "<p id=\"stim\">5</p>", "internal_node_id": "0.0-172.0-5.0", "time_elapsed": 1216658, "key_press": -1, "trial_index": 231}, "uniqueid": "MTK2158:3W8CV64QJ36XNYFL72PIVYKFVYT9HW", "dateTime": 1516755538733}, {"current_trial": 232, "trialdata": {"rt": -1, "trial_type": "single-stim", "stimulus": "<p id=\"stim\">4</p>", "internal_node_id": "0.0-172.0-6.0", "time_elapsed": 1217661, "key_press": -1, "trial_index": 232}, "uniqueid": "MTK2158:3W8CV64QJ36XNYFL72PIVYKFVYT9HW", "dateTime": 1516755539737}, {"current_trial": 233, "trialdata": {"rt": -1, "trial_type": "single-stim", "stimulus": "<p id=\"stim\">3</p>", "internal_node_id": "0.0-172.0-7.0", "time_elapsed": 1218664, "key_press": -1, "trial_index": 233}, "uniqueid": "MTK2158:3W8CV64QJ36XNYFL72PIVYKFVYT9HW", "dateTime": 1516755540740}, {"current_trial": 234, "trialdata": {"rt": -1, "trial_type": "single-stim", "stimulus": "<p id=\"stim\">2</p>", "internal_node_id": "0.0-172.0-8.0", "time_elapsed": 1219676, "key_press": -1, "trial_index": 234}, "uniqueid": "MTK2158:3W8CV64QJ36XNYFL72PIVYKFVYT9HW", "dateTime": 1516755541751}, {"current_trial": 235, "trialdata": {"rt": -1, "trial_type": "single-stim", "stimulus": "<p id=\"stim\">1</p>", "internal_node_id": "0.0-172.0-9.0", "time_elapsed": 1220678, "key_press": -1, "trial_index": 235}, "uniqueid": "MTK2158:3W8CV64QJ36XNYFL72PIVYKFVYT9HW", "dateTime": 1516755542754}, {"current_trial": 236, "trialdata": {"rt": -1, "trial_type": "single-stim", "stimulus": "<p id=\"stim\">+</p>", "internal_node_id": "0.0-173.0-0.0", "time_elapsed": 1222181, "key_press": -1, "type": "FIXATION", "trial_index": 236}, "uniqueid": "MTK2158:3W8CV64QJ36XNYFL72PIVYKFVYT9HW", "dateTime": 1516755544256}, {"current_trial": 237, "trialdata": {"rt": -1000, "trial_type": "single-audio", "word": "vagrant", "stimulus": "/static/audio/wordpool/VAGRANT.wav", "conditions": [24, 1600, "a", 12000], "internal_node_id": "0.0-174.0", "trial": 6, "time_elapsed": 1224980, "serialpos": 0, "key_press": -1, "wordID": 1543, "type": "PRES_AUD", "trial_index": 237}, "uniqueid": "MTK2158:3W8CV64QJ36XNYFL72PIVYKFVYT9HW", "dateTime": 1516755547055}, {"current_trial": 238, "trialdata": {"rt": -1000, "trial_type": "single-audio", "word": "milk", "stimulus": "/static/audio/wordpool/MILK.wav", "conditions": [24, 1600, "a", 12000], "internal_node_id": "0.0-175.0", "trial": 6, "time_elapsed": 1227762, "serialpos": 1, "key_press": -1, "wordID": 894, "type": "PRES_AUD", "trial_index": 238}, "uniqueid": "MTK2158:3W8CV64QJ36XNYFL72PIVYKFVYT9HW", "dateTime": 1516755549838}, {"current_trial": 239, "trialdata": {"rt": -1000, "trial_type": "single-audio", "word": "cabbage", "stimulus": "/static/audio/wordpool/CABBAGE.wav", "conditions": [24, 1600, "a", 12000], "internal_node_id": "0.0-176.0", "trial": 6, "time_elapsed": 1230293, "serialpos": 2, "key_press": -1, "wordID": 209, "type": "PRES_AUD", "trial_index": 239}, "uniqueid": "MTK2158:3W8CV64QJ36XNYFL72PIVYKFVYT9HW", "dateTime": 1516755552370}, {"current_trial": 240, "trialdata": {"rt": -1000, "trial_type": "single-audio", "word": "radish", "stimulus": "/static/audio/wordpool/RADISH.wav", "conditions": [24, 1600, "a", 12000], "internal_node_id": "0.0-177.0", "trial": 6, "time_elapsed": 1232708, "serialpos": 3, "key_press": -1, "wordID": 1157, "type": "PRES_AUD", "trial_index": 240}, "uniqueid": "MTK2158:3W8CV64QJ36XNYFL72PIVYKFVYT9HW", "dateTime": 1516755554783}, {"current_trial": 241, "trialdata": {"rt": -1000, "trial_type": "single-audio", "word": "orchid", "stimulus": "/static/audio/wordpool/ORCHID.wav", "conditions": [24, 1600, "a", 12000], "internal_node_id": "0.0-178.0", "trial": 6, "time_elapsed": 1235483, "serialpos": 4, "key_press": -1, "wordID": 981, "type": "PRES_AUD", "trial_index": 241}, "uniqueid": "MTK2158:3W8CV64QJ36XNYFL72PIVYKFVYT9HW", "dateTime": 1516755557559}, {"current_trial": 242, "trialdata": {"rt": -1000, "trial_type": "single-audio", "word": "sibling", "stimulus": "/static/audio/wordpool/SIBLING.wav", "conditions": [24, 1600, "a", 12000], "internal_node_id": "0.0-179.0", "trial": 6, "time_elapsed": 1238034, "serialpos": 5, "key_press": -1, "wordID": 1300, "type": "PRES_AUD", "trial_index": 242}, "uniqueid": "MTK2158:3W8CV64QJ36XNYFL72PIVYKFVYT9HW", "dateTime": 1516755560109}, {"current_trial": 243, "trialdata": {"rt": -1000, "trial_type": "single-audio", "word": "queen", "stimulus": "/static/audio/wordpool/QUEEN.wav", "conditions": [24, 1600, "a", 12000], "internal_node_id": "0.0-180.0", "trial": 6, "time_elapsed": 1240765, "serialpos": 6, "key_press": -1, "wordID": 1148, "type": "PRES_AUD", "trial_index": 243}, "uniqueid": "MTK2158:3W8CV64QJ36XNYFL72PIVYKFVYT9HW", "dateTime": 1516755562841}, {"current_trial": 244, "trialdata": {"rt": -1000, "trial_type": "single-audio", "word": "bunny", "stimulus": "/static/audio/wordpool/BUNNY.wav", "conditions": [24, 1600, "a", 12000], "internal_node_id": "0.0-181.0", "trial": 6, "time_elapsed": 1243218, "serialpos": 7, "key_press": -1, "wordID": 197, "type": "PRES_AUD", "trial_index": 244}, "uniqueid": "MTK2158:3W8CV64QJ36XNYFL72PIVYKFVYT9HW", "dateTime": 1516755565293}, {"current_trial": 245, "trialdata": {"rt": -1000, "trial_type": "single-audio", "word": "mailman", "stimulus": "/static/audio/wordpool/MAILMAN.wav", "conditions": [24, 1600, "a", 12000], "internal_node_id": "0.0-182.0", "trial": 6, "time_elapsed": 1245753, "serialpos": 8, "key_press": -1, "wordID": 857, "type": "PRES_AUD", "trial_index": 245}, "uniqueid": "MTK2158:3W8CV64QJ36XNYFL72PIVYKFVYT9HW", "dateTime": 1516755567829}, {"current_trial": 246, "trialdata": {"rt": -1000, "trial_type": "single-audio", "word": "honey", "stimulus": "/static/audio/wordpool/HONEY.wav", "conditions": [24, 1600, "a", 12000], "internal_node_id": "0.0-183.0", "trial": 6, "time_elapsed": 1248333, "serialpos": 9, "key_press": -1, "wordID": 712, "type": "PRES_AUD", "trial_index": 246}, "uniqueid": "MTK2158:3W8CV64QJ36XNYFL72PIVYKFVYT9HW", "dateTime": 1516755570409}, {"current_trial": 247, "trialdata": {"rt": -1000, "trial_type": "single-audio", "word": "partner", "stimulus": "/static/audio/wordpool/PARTNER.wav", "conditions": [24, 1600, "a", 12000], "internal_node_id": "0.0-184.0", "trial": 6, "time_elapsed": 1250928, "serialpos": 10, "key_press": -1, "wordID": 1016, "type": "PRES_AUD", "trial_index": 247}, "uniqueid": "MTK2158:3W8CV64QJ36XNYFL72PIVYKFVYT9HW", "dateTime": 151675