{"assignmentId": "3LRLIPTPERG2U7QY5T6F4LBRTNZKAQ", "workerId": "MTK2037", "questiondata": {"avail_screen_height": 837, "color_depth": 24, "screen_width": 1440, "pixel_depth": 24, "avail_screen_width": 1440, "screen_height": 900}, "bonus": 0, "hitId": "34F34TZU7W6GR0RIKR8M84WWKUV2J1", "counterbalance": 1131, "useragent": "Mozilla/5.0 (Macintosh; Intel Mac OS X 10_13_2) AppleWebKit/537.36 (KHTML, like Gecko) Chrome/63.0.3239.132 Safari/537.36", "eventdata": [{"eventtype": "initialized", "interval": 0, "value": null, "timestamp": 1516654123063}, {"eventtype": "window_resize", "interval": 0, "value": [1440, 803], "timestamp": 1516654123063}, {"eventtype": "focus", "interval": 10268, "value": "off", "timestamp": 1516654133331}, {"eventtype": "focus", "interval": 1732, "value": "on", "timestamp": 1516654135063}, {"eventtype": "focus", "interval": 167477, "value": "off", "timestamp": 1516654302540}, {"eventtype": "focus", "interval": 35358, "value": "on", "timestamp": 1516654337898}], "data": [{"current_trial": 0, "trialdata": {"rt": 5957, "trial_type": "text", "internal_node_id": "0.0-0.0", "time_elapsed": 5960, "key_press": 32, "type": "INSTRUCTIONS", "trial_index": 0}, "uniqueid": "MTK2037:3LRLIPTPERG2U7QY5T6F4LBRTNZKAQ", "dateTime": 1516654168919}, {"current_trial": 1, "trialdata": {"rt": 19977, "trial_type": "text", "internal_node_id": "0.0-1.0", "time_elapsed": 25939, "key_press": 39, "type": "INSTRUCTIONS", "trial_index": 1}, "uniqueid": "MTK2037:3LRLIPTPERG2U7QY5T6F4LBRTNZKAQ", "dateTime": 1516654188897}, {"current_trial": 2, "trialdata": {"rt": [18913], "trial_type": "audio-test", "responses": ["ocean"], "internal_node_id": "0.0-2.0", "time_elapsed": 44862, "type": "AUDIO_TEST", "trial_index": 2}, "uniqueid": "MTK2037:3LRLIPTPERG2U7QY5T6F4LBRTNZKAQ", "dateTime": 1516654207820}, {"current_trial": 3, "trialdata": {"rt": [24423], "trial_type": "audio-test", "responses": ["crystal"], "internal_node_id": "0.0-3.0", "time_elapsed": 69290, "type": "AUDIO_TEST", "trial_index": 3}, "uniqueid": "MTK2037:3LRLIPTPERG2U7QY5T6F4LBRTNZKAQ", "dateTime": 1516654232248}, {"current_trial": 4, "trialdata": {"rt": [16019], "trial_type": "audio-test", "responses": ["spice"], "internal_node_id": "0.0-4.0", "time_elapsed": 85312, "type": "AUDIO_TEST", "trial_index": 4}, "uniqueid": "MTK2037:3LRLIPTPERG2U7QY5T6F4LBRTNZKAQ", "dateTime": 1516654248270}, {"current_trial": 5, "trialdata": {"rt": 105804, "trial_type": "survey-text", "responses": "{\"Q0\":\"11 p.m.\",\"Q1\":\"9 a.m.\",\"Q2\":\"5\"}", "internal_node_id": "0.0-5.0", "time_elapsed": 191869, "type": "SLEEP_SURVEY", "trial_index": 5}, "uniqueid": "MTK2037:3LRLIPTPERG2U7QY5T6F4LBRTNZKAQ", "dateTime": 1516654354827}, {"current_trial": 6, "trialdata": {"rt": 46798, "trial_type": "text", "internal_node_id": "0.0-6.0", "time_elapsed": 239671, "key_press": 32, "type": "INSTRUCTIONS", "trial_index": 6}, "uniqueid": "MTK2037:3LRLIPTPERG2U7QY5T6F4LBRTNZKAQ", "dateTime": 1516654402629}, {"current_trial": 7, "trialdata": {"rt": 15685, "trial_type": "text", "internal_node_id": "0.0-7.0", "time_elapsed": 255859, "key_press": 32, "type": "INSTRUCTIONS", "trial_index": 7}, "uniqueid": "MTK2037:3LRLIPTPERG2U7QY5T6F4LBRTNZKAQ", "dateTime": 1516654418817}, {"current_trial": 8, "trialdata": {"rt": 16754, "trial_type": "text", "internal_node_id": "0.0-8.0", "time_elapsed": 273119, "key_press": 32, "type": "INSTRUCTIONS", "trial_index": 8}, "uniqueid": "MTK2037:3LRLIPTPERG2U7QY5T6F4LBRTNZKAQ", "dateTime": 1516654436077}, {"current_trial": 9, "trialdata": {"rt": [4845, 8118, 11292, 13767, 16486], "trial_type": "math-distractor", "key_times": [3140, 4008, 4845, 6836, 7638, 8118, 9838, 10715, 11292, 12685, 13187, 13767, 15163, 15871, 16486], "responses": ["15", "19", "20", "14", "14"], "num2": [1, 5, 6, 7, 4, 8], "num3": [9, 9, 6, 1, 6, 9], "conditions": [18, 1200, "a", 18000], "internal_node_id": "0.0-9.0", "key_presses": [49, 53, 13, 49, 57, 13, 50, 48, 13, 49, 52, 13, 49, 52, 13], "trial": 0, "time_elapsed": 292132, "type": "DISTRACTOR", "trial_index": 9, "num1": [5, 5, 8, 6, 4, 5]}, "uniqueid": "MTK2037:3LRLIPTPERG2U7QY5T6F4LBRTNZKAQ", "dateTime": 1516654455090}, {"current_trial": 10, "trialdata": {"rt": -1, "trial_type": "single-stim", "stimulus": "<p id=\"stim\">10</p>", "internal_node_id": "0.0-10.0-0.0", "time_elapsed": 295141, "key_press": -1, "trial_index": 10}, "uniqueid": "MTK2037:3LRLIPTPERG2U7QY5T6F4LBRTNZKAQ", "dateTime": 1516654458099}, {"current_trial": 11, "trialdata": {"rt": -1, "trial_type": "single-stim", "stimulus": "<p id=\"stim\">9</p>", "internal_node_id": "0.0-10.0-1.0", "time_elapsed": 296146, "key_press": -1, "trial_index": 11}, "uniqueid": "MTK2037:3LRLIPTPERG2U7QY5T6F4LBRTNZKAQ", "dateTime": 1516654459104}, {"current_trial": 12, "trialdata": {"rt": -1, "trial_type": "single-stim", "stimulus": "<p id=\"stim\">8</p>", "internal_node_id": "0.0-10.0-2.0", "time_elapsed": 297147, "key_press": -1, "trial_index": 12}, "uniqueid": "MTK2037:3LRLIPTPERG2U7QY5T6F4LBRTNZKAQ", "dateTime": 1516654460105}, {"current_trial": 13, "trialdata": {"rt": -1, "trial_type": "single-stim", "stimulus": "<p id=\"stim\">7</p>", "internal_node_id": "0.0-10.0-3.0", "time_elapsed": 298151, "key_press": -1, "trial_index": 13}, "uniqueid": "MTK2037:3LRLIPTPERG2U7QY5T6F4LBRTNZKAQ", "dateTime": 1516654461110}, {"current_trial": 14, "trialdata": {"rt": -1, "trial_type": "single-stim", "stimulus": "<p id=\"stim\">6</p>", "internal_node_id": "0.0-10.0-4.0", "time_elapsed": 299155, "key_press": -1, "trial_index": 14}, "uniqueid": "MTK2037:3LRLIPTPERG2U7QY5T6F4LBRTNZKAQ", "dateTime": 1516654462113}, {"current_trial": 15, "trialdata": {"rt": -1, "trial_type": "single-stim", "stimulus": "<p id=\"stim\">5</p>", "internal_node_id": "0.0-10.0-5.0", "time_elapsed": 300158, "key_press": -1, "trial_index": 15}, "uniqueid": "MTK2037:3LRLIPTPERG2U7QY5T6F4LBRTNZKAQ", "dateTime": 1516654463116}, {"current_trial": 16, "trialdata": {"rt": -1, "trial_type": "single-stim", "stimulus": "<p id=\"stim\">4</p>", "internal_node_id": "0.0-10.0-6.0", "time_elapsed": 301163, "key_press": -1, "trial_index": 16}, "uniqueid": "MTK2037:3LRLIPTPERG2U7QY5T6F4LBRTNZKAQ", "dateTime": 1516654464121}, {"current_trial": 17, "trialdata": {"rt": -1, "trial_type": "single-stim", "stimulus": "<p id=\"stim\">3</p>", "internal_node_id": "0.0-10.0-7.0", "time_elapsed": 302165, "key_press": -1, "trial_index": 17}, "uniqueid": "MTK2037:3LRLIPTPERG2U7QY5T6F4LBRTNZKAQ", "dateTime": 1516654465123}, {"current_trial": 18, "trialdata": {"rt": -1, "trial_type": "single-stim", "stimulus": "<p id=\"stim\">2</p>", "internal_node_id": "0.0-10.0-8.0", "time_elapsed": 303169, "key_press": -1, "trial_index": 18}, "uniqueid": "MTK2037:3LRLIPTPERG2U7QY5T6F4LBRTNZKAQ", "dateTime": 1516654466127}, {"current_trial": 19, "trialdata": {"rt": -1, "trial_type": "single-stim", "stimulus": "<p id=\"stim\">1</p>", "internal_node_id": "0.0-10.0-9.0", "time_elapsed": 304175, "key_press": -1, "trial_index": 19}, "uniqueid": "MTK2037:3LRLIPTPERG2U7QY5T6F4LBRTNZKAQ", "dateTime": 1516654467133}, {"current_trial": 20, "trialdata": {"rt": -1, "trial_type": "single-stim", "stimulus": "<p id=\"stim\">+</p>", "internal_node_id": "0.0-11.0-0.0", "time_elapsed": 305679, "key_press": -1, "type": "FIXATION", "trial_index": 20}, "uniqueid": "MTK2037:3LRLIPTPERG2U7QY5T6F4LBRTNZKAQ", "dateTime": 1516654468637}, {"current_trial": 21, "trialdata": {"rt": -1000, "trial_type": "single-audio", "word": "glass", "stimulus": "/static/audio/wordpool/GLASS.wav", "conditions": [18, 1200, "a", 18000], "internal_node_id": "0.0-12.0", "trial": 0, "time_elapsed": 308002, "serialpos": 0, "key_press": -1, "wordID": 638, "type": "PRES_AUD", "trial_index": 21}, "uniqueid": "MTK2037:3LRLIPTPERG2U7QY5T6F4LBRTNZKAQ", "dateTime": 1516654470960}, {"current_trial": 22, "trialdata": {"rt": -1000, "trial_type": "single-audio", "word": "dress", "stimulus": "/static/audio/wordpool/DRESS.wav", "conditions": [18, 1200, "a", 18000], "internal_node_id": "0.0-13.0", "trial": 0, "time_elapsed": 310032, "serialpos": 1, "key_press": -1, "wordID": 494, "type": "PRES_AUD", "trial_index": 22}, "uniqueid": "MTK2037:3LRLIPTPERG2U7QY5T6F4LBRTNZKAQ", "dateTime": 1516654472990}, {"current_trial": 23, "trialdata": {"rt": -1000, "trial_type": "single-audio", "word": "clamp", "stimulus": "/static/audio/wordpool/CLAMP.wav", "conditions": [18, 1200, "a", 18000], "internal_node_id": "0.0-14.0", "trial": 0, "time_elapsed": 312344, "serialpos": 2, "key_press": -1, "wordID": 315, "type": "PRES_AUD", "trial_index": 23}, "uniqueid": "MTK2037:3LRLIPTPERG2U7QY5T6F4LBRTNZKAQ", "dateTime": 1516654475302}, {"current_trial": 24, "trialdata": {"rt": -1000, "trial_type": "single-audio", "word": "lace", "stimulus": "/static/audio/wordpool/LACE.wav", "conditions": [18, 1200, "a", 18000], "internal_node_id": "0.0-15.0", "trial": 0, "time_elapsed": 314664, "serialpos": 3, "key_press": -1, "wordID": 791, "type": "PRES_AUD", "trial_index": 24}, "uniqueid": "MTK2037:3LRLIPTPERG2U7QY5T6F4LBRTNZKAQ", "dateTime": 1516654477622}, {"current_trial": 25, "trialdata": {"rt": -1000, "trial_type": "single-audio", "word": "grave", "stimulus": "/static/audio/wordpool/GRAVE.wav", "conditions": [18, 1200, "a", 18000], "internal_node_id": "0.0-16.0", "trial": 0, "time_elapsed": 316832, "serialpos": 4, "key_press": -1, "wordID": 657, "type": "PRES_AUD", "trial_index": 25}, "uniqueid": "MTK2037:3LRLIPTPERG2U7QY5T6F4LBRTNZKAQ", "dateTime": 1516654479790}, {"current_trial": 26, "trialdata": {"rt": -1000, "trial_type": "single-audio", "word": "postage", "stimulus": "/static/audio/wordpool/POSTAGE.wav", "conditions": [18, 1200, "a", 18000], "internal_node_id": "0.0-17.0", "trial": 0, "time_elapsed": 318943, "serialpos": 5, "key_press": -1, "wordID": 1112, "type": "PRES_AUD", "trial_index": 26}, "uniqueid": "MTK2037:3LRLIPTPERG2U7QY5T6F4LBRTNZKAQ", "dateTime": 1516654481901}, {"current_trial": 27, "trialdata": {"rt": -1000, "trial_type": "single-audio", "word": "basement", "stimulus": "/static/audio/wordpool/BASEMENT.wav", "conditions": [18, 1200, "a", 18000], "internal_node_id": "0.0-18.0", "trial": 0, "time_elapsed": 321261, "serialpos": 6, "key_press": -1, "wordID": 93, "type": "PRES_AUD", "trial_index": 27}, "uniqueid": "MTK2037:3LRLIPTPERG2U7QY5T6F4LBRTNZKAQ", "dateTime": 1516654484219}, {"current_trial": 28, "trialdata": {"rt": -1000, "trial_type": "single-audio", "word": "hood", "stimulus": "/static/audio/wordpool/HOOD.wav", "conditions": [18, 1200, "a", 18000], "internal_node_id": "0.0-19.0", "trial": 0, "time_elapsed": 323626, "serialpos": 7, "key_press": -1, "wordID": 713, "type": "PRES_AUD", "trial_index": 28}, "uniqueid": "MTK2037:3LRLIPTPERG2U7QY5T6F4LBRTNZKAQ", "dateTime": 1516654486584}, {"current_trial": 29, "trialdata": {"rt": -1000, "trial_type": "single-audio", "word": "baby", "stimulus": "/static/audio/wordpool/BABY.wav", "conditions": [18, 1200, "a", 18000], "internal_node_id": "0.0-20.0", "trial": 0, "time_elapsed": 325701, "serialpos": 8, "key_press": -1, "wordID": 63, "type": "PRES_AUD", "trial_index": 29}, "uniqueid": "MTK2037:3LRLIPTPERG2U7QY5T6F4LBRTNZKAQ", "dateTime": 1516654488659}, {"current_trial": 30, "trialdata": {"rt": -1000, "trial_type": "single-audio", "word": "cod", "stimulus": "/static/audio/wordpool/COD.wav", "conditions": [18, 1200, "a", 18000], "internal_node_id": "0.0-21.0", "trial": 0, "time_elapsed": 327712, "serialpos": 9, "key_press": -1, "wordID": 339, "type": "PRES_AUD", "trial_index": 30}, "uniqueid": "MTK2037:3LRLIPTPERG2U7QY5T6F4LBRTNZKAQ", "dateTime": 1516654490670}, {"current_trial": 31, "trialdata": {"rt": -1000, "trial_type": "single-audio", "word": "crutch", "stimulus": "/static/audio/wordpool/CRUTCH.wav", "conditions": [18, 1200, "a", 18000], "internal_node_id": "0.0-22.0", "trial": 0, "time_elapsed": 329888, "serialpos": 10, "key_press": -1, "wordID": 416, "type": "PRES_AUD", "trial_index": 31}, "uniqueid": "MTK2037:3LRLIPTPERG2U7QY5T6F4LBRTNZKAQ", "dateTime": 1516654492846}, {"current_trial": 32, "trialdata": {"rt": -1000, "trial_type": "single-audio", "word": "marrow", "stimulus": "/static/audio/wordpool/MARROW.wav", "conditions": [18, 1200, "a", 18000], "internal_node_id": "0.0-23.0", "trial": 0, "time_elapsed": 332059, "serialpos": 11, "key_press": -1, "wordID": 871, "type": "PRES_AUD", "trial_index": 32}, "uniqueid": "MTK2037:3LRLIPTPERG2U7QY5T6F4LBRTNZKAQ", "dateTime": 1516654495017}, {"current_trial": 33, "trialdata": {"rt": -1000, "trial_type": "single-audio", "word": "radish", "stimulus": "/static/audio/wordpool/RADISH.wav", "conditions": [18, 1200, "a", 18000], "internal_node_id": "0.0-24.0", "trial": 0, "time_elapsed": 334403, "serialpos": 12, "key_press": -1, "wordID": 1157, "type": "PRES_AUD", "trial_index": 33}, "uniqueid": "MTK2037:3LRLIPTPERG2U7QY5T6F4LBRTNZKAQ", "dateTime": 1516654497361}, {"current_trial": 34, "trialdata": {"rt": -1000, "trial_type": "single-audio", "word": "termite", "stimulus": "/static/audio/wordpool/TERMITE.wav", "conditions": [18, 1200, "a", 18000], "internal_node_id": "0.0-25.0", "trial": 0, "time_elapsed": 336412, "serialpos": 13, "key_press": -1, "wordID": 1450, "type": "PRES_AUD", "trial_index": 34}, "uniqueid": "MTK2037:3LRLIPTPERG2U7QY5T6F4LBRTNZKAQ", "dateTime": 1516654499370}, {"current_trial": 35, "trialdata": {"rt": -1000, "trial_type": "single-audio", "word": "razor", "stimulus": "/static/audio/wordpool/RAZOR.wav", "conditions": [18, 1200, "a", 18000], "internal_node_id": "0.0-26.0", "trial": 0, "time_elapsed": 338783, "serialpos": 14, "key_press": -1, "wordID": 1170, "type": "PRES_AUD", "trial_index": 35}, "uniqueid": "MTK2037:3LRLIPTPERG2U7QY5T6F4LBRTNZKAQ", "dateTime": 1516654501741}, {"current_trial": 36, "trialdata": {"rt": -1000, "trial_type": "single-audio", "word": "shelter", "stimulus": "/static/audio/wordpool/SHELTER.wav", "conditions": [18, 1200, "a", 18000], "internal_node_id": "0.0-27.0", "trial": 0, "time_elapsed": 341140, "serialpos": 15, "key_press": -1, "wordID": 1281, "type": "PRES_AUD", "trial_index": 36}, "uniqueid": "MTK2037:3LRLIPTPERG2U7QY5T6F4LBRTNZKAQ", "dateTime": 1516654504098}, {"current_trial": 37, "trialdata": {"rt": -1000, "trial_type": "single-audio", "word": "silk", "stimulus": "/static/audio/wordpool/SILK.wav", "conditions": [18, 1200, "a", 18000], "internal_node_id": "0.0-28.0", "trial": 0, "time_elapsed": 343218, "serialpos": 16, "key_press": -1, "wordID": 1306, "type": "PRES_AUD", "trial_index": 37}, "uniqueid": "MTK2037:3LRLIPTPERG2U7QY5T6F4LBRTNZKAQ", "dateTime": 1516654506176}, {"current_trial": 38, "trialdata": {"rt": -1000, "trial_type": "single-audio", "word": "match", "stimulus": "/static/audio/wordpool/MATCH.wav", "conditions": [18, 1200, "a", 18000], "internal_node_id": "0.0-29.0", "trial": 0, "time_elapsed": 345525, "serialpos": 17, "key_press": -1, "wordID": 877, "type": "PRES_AUD", "trial_index": 38}, "uniqueid": "MTK2037:3LRLIPTPERG2U7QY5T6F4LBRTNZKAQ", "dateTime": 1516654508484}, {"current_trial": 39, "trialdata": {"rt": -1, "trial_type": "single-stim", "stimulus": "", "internal_node_id": "0.0-30.0-0.0", "time_elapsed": 346764, "key_press": -1, "type": "PRE_RECALL_DELAY", "trial_index": 39}, "uniqueid": "MTK2037:3LRLIPTPERG2U7QY5T6F4LBRTNZKAQ", "dateTime": 1516654509722}, {"current_trial": 40, "trialdata": {"rt": -1000, "trial_type": "single-audio", "stimulus": "/static/audio/400Hz.wav", "internal_node_id": "0.0-31.0", "time_elapsed": 347266, "key_press": -1, "type": "PRE_RECALL_ALERT", "trial_index": 40}, "uniqueid": "MTK2037:3LRLIPTPERG2U7QY5T6F4LBRTNZKAQ", "dateTime": 1516654510224}, {"current_trial": 41, "trialdata": {"rt": [7309, 9574, 13256, 16008, 25422, 35469, 40720, 51518], "recwords": ["shelter", "silk", "glass", "match", "basement", "shelter", "wood", "pistol"], "key_times": [4485, 4862, 5247, 5859, 6357, 6620, 6857, 7309, 8317, 8735, 9050, 9255, 9574, 11178, 11666, 12088, 12439, 12620, 13256, 14116, 14546, 14916, 15237, 15612, 16008, 21912, 22254, 22515, 22731, 23279, 23659, 24612, 25008, 25422, 32698, 33276, 33546, 34091, 34488, 34754, 34982, 35469, 38865, 39371, 39523, 40289, 40720, 49181, 49489, 49969, 50418, 50998, 51188, 51518], "trial_type": "free-recall", "conditions": [18, 1200, "a", 18000], "internal_node_id": "0.0-32.0-0.0", "key_presses": [83, 72, 69, 76, 84, 69, 82, 13, 83, 73, 76, 75, 13, 71, 76, 65, 83, 83, 13, 77, 65, 84, 67, 72, 13, 66, 65, 83, 69, 77, 69, 78, 84, 13, 83, 72, 69, 76, 84, 69, 82, 13, 87, 79, 79, 68, 13, 80, 73, 83, 84, 79, 76, 13], "trial": 0, "time_elapsed": 407276, "type": "FREE_RECALL", "trial_index": 41}, "uniqueid": "MTK2037:3LRLIPTPERG2U7QY5T6F4LBRTNZKAQ", "dateTime": 1516654570236}, {"current_trial": 42, "trialdata": {"rt": 2245, "trial_type": "text", "internal_node_id": "0.0-33.0", "time_elapsed": 411529, "key_press": 32, "type": "INSTRUCTIONS", "trial_index": 42}, "uniqueid": "MTK2037:3LRLIPTPERG2U7QY5T6F4LBRTNZKAQ", "dateTime": 1516654574487}, {"current_trial": 43, "trialdata": {"rt": [3688, 6600, 9802, 12458, 15140, 17794], "trial_type": "math-distractor", "key_times": [2993, 3688, 5455, 5633, 6600, 8698, 9279, 9802, 11148, 11880, 12458, 14044, 14636, 15140, 16855, 17056, 17794], "responses": ["9", "11", "26", "17", "19", "21"], "num2": [1, 1, 8, 7, 9, 8, 9], "num3": [7, 8, 9, 2, 9, 8, 4], "conditions": [18, 1200, "a", 18000], "internal_node_id": "0.0-34.0", "key_presses": [57, 13, 49, 49, 13, 50, 54, 13, 49, 55, 13, 49, 57, 13, 50, 49, 13], "trial": 1, "time_elapsed": 431534, "type": "DISTRACTOR", "trial_index": 43, "num1": [1, 2, 9, 8, 1, 5, 1]}, "uniqueid": "MTK2037:3LRLIPTPERG2U7QY5T6F4LBRTNZKAQ", "dateTime": 1516654594492}, {"current_trial": 44, "trialdata": {"rt": -1, "trial_type": "single-stim", "stimulus": "<p id=\"stim\">10</p>", "internal_node_id": "0.0-35.0-0.0", "time_elapsed": 434543, "key_press": -1, "trial_index": 44}, "uniqueid": "MTK2037:3LRLIPTPERG2U7QY5T6F4LBRTNZKAQ", "dateTime": 1516654597501}, {"current_trial": 45, "trialdata": {"rt": -1, "trial_type": "single-stim", "stimulus": "<p id=\"stim\">9</p>", "internal_node_id": "0.0-35.0-1.0", "time_elapsed": 435547, "key_press": -1, "trial_index": 45}, "uniqueid": "MTK2037:3LRLIPTPERG2U7QY5T6F4LBRTNZKAQ", "dateTime": 1516654598505}, {"current_trial": 46, "trialdata": {"rt": -1, "trial_type": "single-stim", "stimulus": "<p id=\"stim\">8</p>", "internal_node_id": "0.0-35.0-2.0", "time_elapsed": 436551, "key_press": -1, "trial_index": 46}, "uniqueid": "MTK2037:3LRLIPTPERG2U7QY5T6F4LBRTNZKAQ", "dateTime": 1516654599510}, {"current_trial": 47, "trialdata": {"rt": -1, "trial_type": "single-stim", "stimulus": "<p id=\"stim\">7</p>", "internal_node_id": "0.0-35.0-3.0", "time_elapsed": 437556, "key_press": -1, "trial_index": 47}, "uniqueid": "MTK2037:3LRLIPTPERG2U7QY5T6F4LBRTNZKAQ", "dateTime": 1516654600514}, {"current_trial": 48, "trialdata": {"rt": -1, "trial_type": "single-stim", "stimulus": "<p id=\"stim\">6</p>", "internal_node_id": "0.0-35.0-4.0", "time_elapsed": 438560, "key_press": -1, "trial_index": 48}, "uniqueid": "MTK2037:3LRLIPTPERG2U7QY5T6F4LBRTNZKAQ", "dateTime": 1516654601518}, {"current_trial": 49, "trialdata": {"rt": -1, "trial_type": "single-stim", "stimulus": "<p id=\"stim\">5</p>", "internal_node_id": "0.0-35.0-5.0", "time_elapsed": 439564, "key_press": -1, "trial_index": 49}, "uniqueid": "MTK2037:3LRLIPTPERG2U7QY5T6F4LBRTNZKAQ", "dateTime": 1516654602522}, {"current_trial": 50, "trialdata": {"rt": -1, "trial_type": "single-stim", "stimulus": "<p id=\"stim\">4</p>", "internal_node_id": "0.0-35.0-6.0", "time_elapsed": 440570, "key_press": -1, "trial_index": 50}, "uniqueid": "MTK2037:3LRLIPTPERG2U7QY5T6F4LBRTNZKAQ", "dateTime": 1516654603528}, {"current_trial": 51, "trialdata": {"rt": -1, "trial_type": "single-stim", "stimulus": "<p id=\"stim\">3</p>", "internal_node_id": "0.0-35.0-7.0", "time_elapsed": 441572, "key_press": -1, "trial_index": 51}, "uniqueid": "MTK2037:3LRLIPTPERG2U7QY5T6F4LBRTNZKAQ", "dateTime": 1516654604530}, {"current_trial": 52, "trialdata": {"rt": -1, "trial_type": "single-stim", "stimulus": "<p id=\"stim\">2</p>", "internal_node_id": "0.0-35.0-8.0", "time_elapsed": 442576, "key_press": -1, "trial_index": 52}, "uniqueid": "MTK2037:3LRLIPTPERG2U7QY5T6F4LBRTNZKAQ", "dateTime": 1516654605534}, {"current_trial": 53, "trialdata": {"rt": -1, "trial_type": "single-stim", "stimulus": "<p id=\"stim\">1</p>", "internal_node_id": "0.0-35.0-9.0", "time_elapsed": 443580, "key_press": -1, "trial_index": 53}, "uniqueid": "MTK2037:3LRLIPTPERG2U7QY5T6F4LBRTNZKAQ", "dateTime": 1516654606538}, {"current_trial": 54, "trialdata": {"rt": -1, "trial_type": "single-stim", "stimulus": "<p id=\"stim\">+</p>", "internal_node_id": "0.0-36.0-0.0", "time_elapsed": 445081, "key_press": -1, "type": "FIXATION", "trial_index": 54}, "uniqueid": "MTK2037:3LRLIPTPERG2U7QY5T6F4LBRTNZKAQ", "dateTime": 1516654608039}, {"current_trial": 55, "trialdata": {"rt": -1000, "trial_type": "single-audio", "word": "pimple", "stimulus": "/static/audio/wordpool/PIMPLE.wav", "conditions": [18, 1200, "a", 18000], "internal_node_id": "0.0-37.0", "trial": 1, "time_elapsed": 447149, "serialpos": 0, "key_press": -1, "wordID": 1070, "type": "PRES_AUD", "trial_index": 55}, "uniqueid": "MTK2037:3LRLIPTPERG2U7QY5T6F4LBRTNZKAQ", "dateTime": 1516654610107}, {"current_trial": 56, "trialdata": {"rt": -1000, "trial_type": "single-audio", "word": "boyfriend", "stimulus": "/static/audio/wordpool/BOYFRIEND.wav", "conditions": [18, 1200, "a", 18000], "internal_node_id": "0.0-38.0", "trial": 1, "time_elapsed": 449299, "serialpos": 1, "key_press": -1, "wordID": 161, "type": "PRES_AUD", "trial_index": 56}, "uniqueid": "MTK2037:3LRLIPTPERG2U7QY5T6F4LBRTNZKAQ", "dateTime": 1516654612258}, {"current_trial": 57, "trialdata": {"rt": -1000, "trial_type": "single-audio", "word": "drug", "stimulus": "/static/audio/wordpool/DRUG.wav", "conditions": [18, 1200, "a", 18000], "internal_node_id": "0.0-39.0", "trial": 1, "time_elapsed": 451466, "serialpos": 2, "key_press": -1, "wordID": 500, "type": "PRES_AUD", "trial_index": 57}, "uniqueid": "MTK2037:3LRLIPTPERG2U7QY5T6F4LBRTNZKAQ", "dateTime": 1516654614424}, {"current_trial": 58, "trialdata": {"rt": -1000, "trial_type": "single-audio", "word": "burglar", "stimulus": "/static/audio/wordpool/BURGLAR.wav", "conditions": [18, 1200, "a", 18000], "internal_node_id": "0.0-40.0", "trial": 1, "time_elapsed": 453700, "serialpos": 3, "key_press": -1, "wordID": 199, "type": "PRES_AUD", "trial_index": 58}, "uniqueid": "MTK2037:3LRLIPTPERG2U7QY5T6F4LBRTNZKAQ", "dateTime": 1516654616659}, {"current_trial": 59, "trialdata": {"rt": -1000, "trial_type": "single-audio", "word": "drill", "stimulus": "/static/audio/wordpool/DRILL.wav", "conditions": [18, 1200, "a", 18000], "internal_node_id": "0.0-41.0", "trial": 1, "time_elapsed": 455753, "serialpos": 4, "key_press": -1, "wordID": 496, "type": "PRES_AUD", "trial_index": 59}, "uniqueid": "MTK2037:3LRLIPTPERG2U7QY5T6F4LBRTNZKAQ", "dateTime": 1516654618711}, {"current_trial": 60, "trialdata": {"rt": -1000, "trial_type": "single-audio", "word": "box", "stimulus": "/static/audio/wordpool/BOX.wav", "conditions": [18, 1200, "a", 18000], "internal_node_id": "0.0-42.0", "trial": 1, "time_elapsed": 458039, "serialpos": 5, "key_press": -1, "wordID": 158, "type": "PRES_AUD", "trial_index": 60}, "uniqueid": "MTK2037:3LRLIPTPERG2U7QY5T6F4LBRTNZKAQ", "dateTime": 1516654620997}, {"current_trial": 61, "trialdata": {"rt": -1000, "trial_type": "single-audio", "word": "beaker", "stimulus": "/static/audio/wordpool/BEAKER.wav", "conditions": [18, 1200, "a", 18000], "internal_node_id": "0.0-43.0", "trial": 1, "time_elapsed": 460325, "serialpos": 6, "key_press": -1, "wordID": 103, "type": "PRES_AUD", "trial_index": 61}, "uniqueid": "MTK2037:3LRLIPTPERG2U7QY5T6F4LBRTNZKAQ", "dateTime": 1516654623283}, {"current_trial": 62, "trialdata": {"rt": -1000, "trial_type": "single-audio", "word": "grape", "stimulus": "/static/audio/wordpool/GRAPE.wav", "conditions": [18, 1200, "a", 18000], "internal_node_id": "0.0-44.0", "trial": 1, "time_elapsed": 462556, "serialpos": 7, "key_press": -1, "wordID": 653, "type": "PRES_AUD", "trial_index": 62}, "uniqueid": "MTK2037:3LRLIPTPERG2U7QY5T6F4LBRTNZKAQ", "dateTime": 1516654625514}, {"current_trial": 63, "trialdata": {"rt": -1000, "trial_type": "single-audio", "word": "chipmunk", "stimulus": "/static/audio/wordpool/CHIPMUNK.wav", "conditions": [18, 1200, "a", 18000], "internal_node_id": "0.0-45.0", "trial": 1, "time_elapsed": 464859, "serialpos": 8, "key_press": -1, "wordID": 303, "type": "PRES_AUD", "trial_index": 63}, "uniqueid": "MTK2037:3LRLIPTPERG2U7QY5T6F4LBRTNZKAQ", "dateTime": 1516654627818}, {"current_trial": 64, "trialdata": {"rt": -1000, "trial_type": "single-audio", "word": "turnip", "stimulus": "/static/audio/wordpool/TURNIP.wav", "conditions": [18, 1200, "a", 18000], "internal_node_id": "0.0-46.0", "trial": 1, "time_elapsed": 467003, "serialpos": 9, "key_press": -1, "wordID": 1520, "type": "PRES_AUD", "trial_index": 64}, "uniqueid": "MTK2037:3LRLIPTPERG2U7QY5T6F4LBRTNZKAQ", "dateTime": 1516654629961}, {"current_trial": 65, "trialdata": {"rt": -1000, "trial_type": "single-audio", "word": "server", "stimulus": "/static/audio/wordpool/SERVER.wav", "conditions": [18, 1200, "a", 18000], "internal_node_id": "0.0-47.0", "trial": 1, "time_elapsed": 469301, "serialpos": 10, "key_press": -1, "wordID": 1271, "type": "PRES_AUD", "trial_index": 65}, "uniqueid": "MTK2037:3LRLIPTPERG2U7QY5T6F4LBRTNZKAQ", "dateTime": 1516654632259}, {"current_trial": 66, "trialdata": {"rt": -1000, "trial_type": "single-audio", "word": "bank", "stimulus": "/static/audio/wordpool/BANK.wav", "conditions": [18, 1200, "a", 18000], "internal_node_id": "0.0-48.0", "trial": 1, "time_elapsed": 471551, "serialpos": 11, "key_press": -1, "wordID": 82, "type": "PRES_AUD", "trial_index": 66}, "uniqueid": "MTK2037:3LRLIPTPERG2U7QY5T6F4LBRTNZKAQ", "dateTime": 1516654634509}, {"current_trial": 67, "trialdata": {"rt": -1000, "trial_type": "single-audio", "word": "venus", "stimulus": "/static/audio/wordpool/VENUS.wav", "conditions": [18, 1200, "a", 18000], "internal_node_id": "0.0-49.0", "trial": 1, "time_elapsed": 473706, "serialpos": 12, "key_press": -1, "wordID": 1556, "type": "PRES_AUD", "trial_index": 67}, "uniqueid": "MTK2037:3LRLIPTPERG2U7QY5T6F4LBRTNZKAQ", "dateTime": 1516654636664}, {"current_trial": 68, "trialdata": {"rt": -1000, "trial_type": "single-audio", "word": "pigment", "stimulus": "/static/audio/wordpool/PIGMENT.wav", "conditions": [18, 1200, "a", 18000], "internal_node_id": "0.0-50.0", "trial": 1, "time_elapsed": 475999, "serialpos": 13, "key_press": -1, "wordID": 1065, "type": "PRES_AUD", "trial_index": 68}, "uniqueid": "MTK2037:3LRLIPTPERG2U7QY5T6F4LBRTNZKAQ", "dateTime": 1516654638959}, {"current_trial": 69, "trialdata": {"rt": -1000, "trial_type": "single-audio", "word": "pocket", "stimulus": "/static/audio/wordpool/POCKET.wav", "conditions": [18, 1200, "a", 18000], "internal_node_id": "0.0-51.0", "trial": 1, "time_elapsed": 478084, "serialpos": 14, "key_press": -1, "wordID": 1092, "type": "PRES_AUD", "trial_index": 69}, "uniqueid": "MTK2037:3LRLIPTPERG2U7QY5T6F4LBRTNZKAQ", "dateTime": 1516654641042}, {"current_trial": 70, "trialdata": {"rt": -1000, "trial_type": "single-audio", "word": "casket", "stimulus": "/static/audio/wordpool/CASKET.wav", "conditions": [18, 1200, "a", 18000], "internal_node_id": "0.0-52.0", "trial": 1, "time_elapsed": 480457, "serialpos": 15, "key_press": -1, "wordID": 254, "type": "PRES_AUD", "trial_index": 70}, "uniqueid": "MTK2037:3LRLIPTPERG2U7QY5T6F4LBRTNZKAQ", "dateTime": 1516654643415}, {"current_trial": 71, "trialdata": {"rt": -1000, "trial_type": "single-audio", "word": "inmate", "stimulus": "/static/audio/wordpool/INMATE.wav", "conditions": [18, 1200, "a", 18000], "internal_node_id": "0.0-53.0", "trial": 1, "time_elapsed": 482747, "serialpos": 16, "key_press": -1, "wordID": 737, "type": "PRES_AUD", "trial_index": 71}, "uniqueid": "MTK2037:3LRLIPTPERG2U7QY5T6F4LBRTNZKAQ", "dateTime": 1516654645705}, {"current_trial": 72, "trialdata": {"rt": -1000, "trial_type": "single-audio", "word": "donor", "stimulus": "/static/audio/wordpool/DONOR.wav", "conditions": [18, 1200, "a", 18000], "internal_node_id": "0.0-54.0", "trial": 1, "time_elapsed": 484997, "serialpos": 17, "key_press": -1, "wordID": 484, "type": "PRES_AUD", "trial_index": 72}, "uniqueid": "MTK2037:3LRLIPTPERG2U7QY5T6F4LBRTNZKAQ", "dateTime": 1516654647955}, {"current_trial": 73, "trialdata": {"rt": -1, "trial_type": "single-stim", "stimulus": "", "internal_node_id": "0.0-55.0-0.0", "time_elapsed": 486262, "key_press": -1, "type": "PRE_RECALL_DELAY", "trial_index": 73}, "uniqueid": "MTK2037:3LRLIPTPERG2U7QY5T6F4LBRTNZKAQ", "dateTime": 1516654649220}, {"current_trial": 74, "trialdata": {"rt": -1000, "trial_type": "single-audio", "stimulus": "/static/audio/400Hz.wav", "internal_node_id": "0.0-56.0", "time_elapsed": 486763, "key_press": -1, "type": "PRE_RECALL_ALERT", "trial_index": 74}, "uniqueid": "MTK2037:3LRLIPTPERG2U7QY5T6F4LBRTNZKAQ", "dateTime": 1516654649721}, {"current_trial": 75, "trialdata": {"rt": [5889, 9362, 20735, 24519, 30701, 37847, 43624], "recwords": ["donor", "pimple", "boyfriend", "box", "inmate", "venus", "burglar"], "key_times": [2988, 3854, 4258, 4672, 5130, 5889, 6862, 7125, 7440, 7763, 7986, 8587, 9362, 10003, 10581, 11063, 11449, 11671, 12255, 12681, 13320, 13754, 20735, 22330, 23209, 23929, 24519, 28595, 28969, 29160, 29541, 30037, 30268, 30701, 35539, 35832, 36438, 36751, 37141, 37847, 40697, 41026, 41353, 41625, 42161, 42622, 43117, 43624], "trial_type": "free-recall", "conditions": [18, 1200, "a", 18000], "internal_node_id": "0.0-57.0-0.0", "key_presses": [68, 79, 78, 79, 82, 13, 80, 73, 77, 80, 76, 69, 13, 66, 79, 89, 70, 82, 73, 69, 78, 68, 13, 66, 79, 88, 13, 73, 78, 77, 65, 84, 69, 13, 86, 69, 78, 85, 83, 13, 66, 85, 82, 71, 76, 65, 82, 13], "trial": 1, "time_elapsed": 546771, "type": "FREE_RECALL", "trial_index": 75}, "uniqueid": "MTK2037:3LRLIPTPERG2U7QY5T6F4LBRTNZKAQ", "dateTime": 1516654709731}, {"current_trial": 76, "trialdata": {"rt": 10183, "trial_type": "text", "internal_node_id": "0.0-58.0", "time_elapsed": 558962, "key_press": 32, "type": "INSTRUCTIONS", "trial_index": 76}, "uniqueid": "MTK2037:3LRLIPTPERG2U7QY5T6F4LBRTNZKAQ", "dateTime": 1516654721920}, {"current_trial": 77, "trialdata": {"rt": [3778, 6731, 9020, 11476, 13941, 15835, 18179, 20365, 22545], "trial_type": "math-distractor", "key_times": [3083, 3778, 6039, 6269, 6731, 8300, 8676, 9020, 10703, 10974, 11476, 13058, 13492, 13941, 15430, 15835, 17310, 17711, 18179, 19957, 20365, 21705, 22092, 22545, 23952], "responses": ["9", "18", "21", "14", "16", "5", "14", "9", "17"], "num2": [5, 8, 8, 6, 8, 2, 4, 3, 9, 8], "num3": [2, 6, 4, 5, 2, 2, 4, 1, 6, 9], "conditions": [12, 1600, "a", 24000], "internal_node_id": "0.0-59.0", "key_presses": [57, 13, 49, 56, 13, 50, 49, 13, 49, 52, 13, 49, 54, 13, 53, 13, 49, 52, 13, 57, 13, 49, 55, 13, 50], "trial": 2, "time_elapsed": 583970, "type": "DISTRACTOR", "trial_index": 77, "num1": [2, 4, 9, 3, 6, 1, 6, 5, 2, 5]}, "uniqueid": "MTK2037:3LRLIPTPERG2U7QY5T6F4LBRTNZKAQ", "dateTime": 1516654746928}, {"current_trial": 78, "trialdata": {"rt": -1, "trial_type": "single-stim", "stimulus": "<p id=\"stim\">10</p>", "internal_node_id": "0.0-60.0-0.0", "time_elapsed": 586976, "key_press": -1, "trial_index": 78}, "uniqueid": "MTK2037:3LRLIPTPERG2U7QY5T6F4LBRTNZKAQ", "dateTime": 1516654749934}, {"current_trial": 79, "trialdata": {"rt": -1, "trial_type": "single-stim", "stimulus": "<p id=\"stim\">9</p>", "internal_node_id": "0.0-60.0-1.0", "time_elapsed": 587980, "key_press": -1, "trial_index": 79}, "uniqueid": "MTK2037:3LRLIPTPERG2U7QY5T6F4LBRTNZKAQ", "dateTime": 1516654750938}, {"current_trial": 80, "trialdata": {"rt": -1, "trial_type": "single-stim", "stimulus": "<p id=\"stim\">8</p>", "internal_node_id": "0.0-60.0-2.0", "time_elapsed": 588984, "key_press": -1, "trial_index": 80}, "uniqueid": "MTK2037:3LRLIPTPERG2U7QY5T6F4LBRTNZKAQ", "dateTime": 1516654751942}, {"current_trial": 81, "trialdata": {"rt": -1, "trial_type": "single-stim", "stimulus": "<p id=\"stim\">7</p>", "internal_node_id": "0.0-60.0-3.0", "time_elapsed": 589989, "key_press": -1, "trial_index": 81}, "uniqueid": "MTK2037:3LRLIPTPERG2U7QY5T6F4LBRTNZKAQ", "dateTime": 1516654752947}, {"current_trial": 82, "trialdata": {"rt": -1, "trial_type": "single-stim", "stimulus": "<p id=\"stim\">6</p>", "internal_node_id": "0.0-60.0-4.0", "time_elapsed": 590992, "key_press": -1, "trial_index": 82}, "uniqueid": "MTK2037:3LRLIPTPERG2U7QY5T6F4LBRTNZKAQ", "dateTime": 1516654753950}, {"current_trial": 83, "trialdata": {"rt": -1, "trial_type": "single-stim", "stimulus": "<p id=\"stim\">5</p>", "internal_node_id": "0.0-60.0-5.0", "time_elapsed": 591997, "key_press": -1, "trial_index": 83}, "uniqueid": "MTK2037:3LRLIPTPERG2U7QY5T6F4LBRTNZKAQ", "dateTime": 1516654754955}, {"current_trial": 84, "trialdata": {"rt": -1, "trial_type": "single-stim", "stimulus": "<p id=\"stim\">4</p>", "internal_node_id": "0.0-60.0-6.0", "time_elapsed": 593001, "key_press": -1, "trial_index": 84}, "uniqueid": "MTK2037:3LRLIPTPERG2U7QY5T6F4LBRTNZKAQ", "dateTime": 1516654755959}, {"current_trial": 85, "trialdata": {"rt": -1, "trial_type": "single-stim", "stimulus": "<p id=\"stim\">3</p>", "internal_node_id": "0.0-60.0-7.0", "time_elapsed": 594005, "key_press": -1, "trial_index": 85}, "uniqueid": "MTK2037:3LRLIPTPERG2U7QY5T6F4LBRTNZKAQ", "dateTime": 1516654756963}, {"current_trial": 86, "trialdata": {"rt": -1, "trial_type": "single-stim", "stimulus": "<p id=\"stim\">2</p>", "internal_node_id": "0.0-60.0-8.0", "time_elapsed": 595009, "key_press": -1, "trial_index": 86}, "uniqueid": "MTK2037:3LRLIPTPERG2U7QY5T6F4LBRTNZKAQ", "dateTime": 1516654757967}, {"current_trial": 87, "trialdata": {"rt": -1, "trial_type": "single-stim", "stimulus": "<p id=\"stim\">1</p>", "internal_node_id": "0.0-60.0-9.0", "time_elapsed": 596013, "key_press": -1, "trial_index": 87}, "uniqueid": "MTK2037:3LRLIPTPERG2U7QY5T6F4LBRTNZKAQ", "dateTime": 1516654758971}, {"current_trial": 88, "trialdata": {"rt": -1, "trial_type": "single-stim", "stimulus": "<p id=\"stim\">+</p>", "internal_node_id": "0.0-61.0-0.0", "time_elapsed": 597516, "key_press": -1, "type": "FIXATION", "trial_index": 88}, "uniqueid": "MTK2037:3LRLIPTPERG2U7QY5T6F4LBRTNZKAQ", "dateTime": 1516654760474}, {"current_trial": 89, "trialdata": {"rt": -1000, "trial_type": "single-audio", "word": "wardrobe", "stimulus": "/static/audio/wordpool/WARDROBE.wav", "conditions": [12, 1600, "a", 24000], "internal_node_id": "0.0-62.0", "trial": 2, "time_elapsed": 600236, "serialpos": 0, "key_press": -1, "wordID": 1586, "type": "PRES_AUD", "trial_index": 89}, "uniqueid": "MTK2037:3LRLIPTPERG2U7QY5T6F4LBRTNZKAQ", "dateTime": 1516654763195}, {"current_trial": 90, "trialdata": {"rt": -1000, "trial_type": "single-audio", "word": "river", "stimulus": "/static/audio/wordpool/RIVER.wav", "conditions": [12, 1600, "a", 24000], "internal_node_id": "0.0-63.0", "trial": 2, "time_elapsed": 602972, "serialpos": 1, "key_press": -1, "wordID": 1193, "type": "PRES_AUD", "trial_index": 90}, "uniqueid": "MTK2037:3LRLIPTPERG2U7QY5T6F4LBRTNZKAQ", "dateTime": 1516654765930}, {"current_trial": 91, "trialdata": {"rt": -1000, "trial_type": "single-audio", "word": "daisy", "stimulus": "/static/audio/wordpool/DAISY.wav", "conditions": [12, 1600, "a", 24000], "internal_node_id": "0.0-64.0", "trial": 2, "time_elapsed": 605575, "serialpos": 2, "key_press": -1, "wordID": 434, "type": "PRES_AUD", "trial_index": 91}, "uniqueid": "MTK2037:3LRLIPTPERG2U7QY5T6F4LBRTNZKAQ", "dateTime": 1516654768533}, {"current_trial": 92, "trialdata": {"rt": -1000, "trial_type": "single-audio", "word": "flower", "stimulus": "/static/audio/wordpool/FLOWER.wav", "conditions": [12, 1600, "a", 24000], "internal_node_id": "0.0-65.0", "trial": 2, "time_elapsed": 608027, "serialpos": 3, "key_press": -1, "wordID": 583, "type": "PRES_AUD", "trial_index": 92}, "uniqueid": "MTK2037:3LRLIPTPERG2U7QY5T6F4LBRTNZKAQ", "dateTime": 1516654770985}, {"current_trial": 93, "trialdata": {"rt": -1000, "trial_type": "single-audio", "word": "shark", "stimulus": "/static/audio/wordpool/SHARK.wav", "conditions": [12, 1600, "a", 24000], "internal_node_id": "0.0-66.0", "trial": 2, "time_elapsed": 610448, "serialpos": 4, "key_press": -1, "wordID": 1274, "type": "PRES_AUD", "trial_index": 93}, "uniqueid": "MTK2037:3LRLIPTPERG2U7QY5T6F4LBRTNZKAQ", "dateTime": 1516654773406}, {"current_trial": 94, "trialdata": {"rt": -1000, "trial_type": "single-audio", "word": "canal", "stimulus": "/static/audio/wordpool/CANAL.wav", "conditions": [12, 1600, "a", 24000], "internal_node_id": "0.0-67.0", "trial": 2, "time_elapsed": 613109, "serialpos": 5, "key_press": -1, "wordID": 225, "type": "PRES_AUD", "trial_index": 94}, "uniqueid": "MTK2037:3LRLIPTPERG2U7QY5T6F4LBRTNZKAQ", "dateTime": 1516654776067}, {"current_trial": 95, "trialdata": {"rt": -1000, "trial_type": "single-audio", "word": "cook", "stimulus": "/static/audio/wordpool/COOK.wav", "conditions": [12, 1600, "a", 24000], "internal_node_id": "0.0-68.0", "trial": 2, "time_elapsed": 615833, "serialpos": 6, "key_press": -1, "wordID": 371, "type": "PRES_AUD", "trial_index": 95}, "uniqueid": "MTK2037:3LRLIPTPERG2U7QY5T6F4LBRTNZKAQ", "dateTime": 1516654778791}, {"current_trial": 96, "trialdata": {"rt": -1000, "trial_type": "single-audio", "word": "bunny", "stimulus": "/static/audio/wordpool/BUNNY.wav", "conditions": [12, 1600, "a", 24000], "internal_node_id": "0.0-69.0", "trial": 2, "time_elapsed": 618588, "serialpos": 7, "key_press": -1, "wordID": 197, "type": "PRES_AUD", "trial_index": 96}, "uniqueid": "MTK2037:3LRLIPTPERG2U7QY5T6F4LBRTNZKAQ", "dateTime": 1516654781546}, {"current_trial": 97, "trialdata": {"rt": -1000, "trial_type": "single-audio", "word": "lover", "stimulus": "/static/audio/wordpool/LOVER.wav", "conditions": [12, 1600, "a", 24000], "internal_node_id": "0.0-70.0", "trial": 2, "time_elapsed": 621072, "serialpos": 8, "key_press": -1, "wordID": 845, "type": "PRES_AUD", "trial_index": 97}, "uniqueid": "MTK2037:3LRLIPTPERG2U7QY5T6F4LBRTNZKAQ", "dateTime": 1516654784030}, {"current_trial": 98, "trialdata": {"rt": -1000, "trial_type": "single-audio", "word": "hatchet", "stimulus": "/static/audio/wordpool/HATCHET.wav", "conditions": [12, 1600, "a", 24000], "internal_node_id": "0.0-71.0", "trial": 2, "time_elapsed": 623771, "serialpos": 9, "key_press": -1, "wordID": 690, "type": "PRES_AUD", "trial_index": 98}, "uniqueid": "MTK2037:3LRLIPTPERG2U7QY5T6F4LBRTNZKAQ", "dateTime": 1516654786729}, {"current_trial": 99, "trialdata": {"rt": -1000, "trial_type": "single-audio", "word": "comet", "stimulus": "/static/audio/wordpool/COMET.wav", "conditions": [12, 1600, "a", 24000], "internal_node_id": "0.0-72.0", "trial": 2, "time_elapsed": 626331, "serialpos": 10, "key_press": -1, "wordID": 352, "type": "PRES_AUD", "trial_index": 99}, "uniqueid": "MTK2037:3LRLIPTPERG2U7QY5T6F4LBRTNZKAQ", "dateTime": 1516654789289}, {"current_trial": 100, "trialdata": {"rt": -1000, "trial_type": "single-audio", "word": "robber", "stimulus": "/static/audio/wordpool/ROBBER.wav", "conditions": [12, 1600, "a", 24000], "internal_node_id": "0.0-73.0", "trial": 2, "time_elapsed": 628824, "serialpos": 11, "key_press": -1, "wordID": 1196, "type": "PRES_AUD", "trial_index": 100}, "uniqueid": "MTK2037:3LRLIPTPERG2U7QY5T6F4LBRTNZKAQ", "dateTime": 1516654791782}, {"current_trial": 101, "trialdata": {"rt": -1, "trial_type": "single-stim", "stimulus": "", "internal_node_id": "0.0-74.0-0.0", "time_elapsed": 630069, "key_press": -1, "type": "PRE_RECALL_DELAY", "trial_index": 101}, "uniqueid": "MTK2037:3LRLIPTPERG2U7QY5T6F4LBRTNZKAQ", "dateTime": 1516654793027}, {"current_trial": 102, "trialdata": {"rt": -1000, "trial_type": "single-audio", "stimulus": "/static/audio/400Hz.wav", "internal_node_id": "0.0-75.0", "time_elapsed": 630570, "key_press": -1, "type": "PRE_RECALL_ALERT", "trial_index": 102}, "uniqueid": "MTK2037:3LRLIPTPERG2U7QY5T6F4LBRTNZKAQ", "dateTime": 1516654793528}, {"current_trial": 103, "trialdata": {"rt": [6249, 8267, 10573, 13079, 15880, 19487], "recwords": ["rubber", "river", "bunny", "flower", "shark", "daisy"], "key_times": [4907, 5062, 5289, 5425, 5580, 5774, 6249, 6939, 7048, 7393, 7543, 7732, 8267, 9350, 9591, 9841, 9985, 10229, 10573, 11505, 11818, 11988, 12319, 12513, 12649, 13079, 14223, 14802, 14942, 15134, 15517, 15880, 17049, 17152, 17424, 17589, 17813, 19487], "trial_type": "free-recall", "conditions": [12, 1600, "a", 24000], "internal_node_id": "0.0-76.0-0.0", "key_presses": [82, 85, 66, 66, 69, 82, 13, 82, 73, 86, 69, 82, 13, 66, 85, 78, 78, 89, 13, 70, 76, 79, 87, 69, 82, 13, 83, 72, 65, 82, 75, 13, 68, 65, 73, 83, 89, 13], "trial": 2, "time_elapsed": 690576, "type": "FREE_RECALL", "trial_index": 103}, "uniqueid": "MTK2037:3LRLIPTPERG2U7QY5T6F4LBRTNZKAQ", "dateTime": 1516654853535}, {"current_trial": 104, "trialdata": {"rt": 2298, "trial_type": "text", "internal_node_id": "0.0-77.0", "time_elapsed": 694877, "key_press": 32, "type": "INSTRUCTIONS", "trial_index": 104}, "uniqueid": "MTK2037:3LRLIPTPERG2U7QY5T6F4LBRTNZKAQ", "dateTime": 1516654857835}, {"current_trial": 105, "trialdata": {"rt": [2397, 4362, 6328, 8580, 10610], "trial_type": "math-distractor", "key_times": [1954, 2168, 2397, 3856, 4029, 4362, 5892, 6112, 6328, 7830, 8186, 8580, 10400, 10610], "responses": ["12", "19", "23", "16", "6"], "num2": [9, 7, 8, 2, 1, 3], "num3": [2, 9, 6, 9, 1, 2], "conditions": [12, 800, "a", 12000], "internal_node_id": "0.0-78.0", "key_presses": [49, 50, 13, 49, 57, 13, 50, 51, 13, 49, 54, 13, 54, 13], "trial": 3, "time_elapsed": 708882, "type": "DISTRACTOR", "trial_index": 105, "num1": [1, 3, 9, 5, 4, 5]}, "uniqueid": "MTK2037:3LRLIPTPERG2U7QY5T6F4LBRTNZKAQ", "dateTime": 1516654871840}, {"current_trial": 106, "trialdata": {"rt": -1, "trial_type": "single-stim", "stimulus": "<p id=\"stim\">10</p>", "internal_node_id": "0.0-79.0-0.0", "time_elapsed": 711888, "key_press": -1, "trial_index": 106}, "uniqueid": "MTK2037:3LRLIPTPERG2U7QY5T6F4LBRTNZKAQ", "dateTime": 1516654874846}, {"current_trial": 107, "trialdata": {"rt": -1, "trial_type": "single-stim", "stimulus": "<p id=\"stim\">9</p>", "internal_node_id": "0.0-79.0-1.0", "time_elapsed": 712893, "key_press": -1, "trial_index": 107}, "uniqueid": "MTK2037:3LRLIPTPERG2U7QY5T6F4LBRTNZKAQ", "dateTime": 1516654875851}, {"current_trial": 108, "trialdata": {"rt": -1, "trial_type": "single-stim", "stimulus": "<p id=\"stim\">8</p>", "internal_node_id": "0.0-79.0-2.0", "time_elapsed": 713897, "key_press": -1, "trial_index": 108}, "uniqueid": "MTK2037:3LRLIPTPERG2U7QY5T6F4LBRTNZKAQ", "dateTime": 1516654876855}, {"current_trial": 109, "trialdata": {"rt": -1, "trial_type": "single-stim", "stimulus": "<p id=\"stim\">7</p>", "internal_node_id": "0.0-79.0-3.0", "time_elapsed": 714901, "key_press": -1, "trial_index": 109}, "uniqueid": "MTK2037:3LRLIPTPERG2U7QY5T6F4LBRTNZKAQ", "dateTime": 1516654877859}, {"current_trial": 110, "trialdata": {"rt": -1, "trial_type": "single-stim", "stimulus": "<p id=\"stim\">6</p>", "internal_node_id": "0.0-79.0-4.0", "time_elapsed": 715905, "key_press": -1, "trial_index": 110}, "uniqueid": "MTK2037:3LRLIPTPERG2U7QY5T6F4LBRTNZKAQ", "dateTime": 1516654878863}, {"current_trial": 111, "trialdata": {"rt": -1, "trial_type": "single-stim", "stimulus": "<p id=\"stim\">5</p>", "internal_node_id": "0.0-79.0-5.0", "time_elapsed": 716909, "key_press": -1, "trial_index": 111}, "uniqueid": "MTK2037:3LRLIPTPERG2U7QY5T6F4LBRTNZKAQ", "dateTime": 1516654879867}, {"current_trial": 112, "trialdata": {"rt": -1, "trial_type": "single-stim", "stimulus": "<p id=\"stim\">4</p>", "internal_node_id": "0.0-79.0-6.0", "time_elapsed": 717913, "key_press": -1, "trial_index": 112}, "uniqueid": "MTK2037:3LRLIPTPERG2U7QY5T6F4LBRTNZKAQ", "dateTime": 1516654880871}, {"current_trial": 113, "trialdata": {"rt": -1, "trial_type": "single-stim", "stimulus": "<p id=\"stim\">3</p>", "internal_node_id": "0.0-79.0-7.0", "time_elapsed": 718917, "key_press": -1, "trial_index": 113}, "uniqueid": "MTK2037:3LRLIPTPERG2U7QY5T6F4LBRTNZKAQ", "dateTime": 1516654881875}, {"current_trial": 114, "trialdata": {"rt": -1, "trial_type": "single-stim", "stimulus": "<p id=\"stim\">2</p>", "internal_node_id": "0.0-79.0-8.0", "time_elapsed": 719921, "key_press": -1, "trial_index": 114}, "uniqueid": "MTK2037:3LRLIPTPERG2U7QY5T6F4LBRTNZKAQ", "dateTime": 1516654882879}, {"current_trial": 115, "trialdata": {"rt": -1, "trial_type": "single-stim", "stimulus": "<p id=\"stim\">1</p>", "internal_node_id": "0.0-79.0-9.0", "time_elapsed": 720926, "key_press": -1, "trial_index": 115}, "uniqueid": "MTK2037:3LRLIPTPERG2U7QY5T6F4LBRTNZKAQ", "dateTime": 1516654883884}, {"current_trial": 116, "trialdata": {"rt": -1, "trial_type": "single-stim", "stimulus": "<p id=\"stim\">+</p>", "internal_node_id": "0.0-80.0-0.0", "time_elapsed": 722429, "key_press": -1, "type": "FIXATION", "trial_index": 116}, "uniqueid": "MTK2037:3LRLIPTPERG2U7QY5T6F4LBRTNZKAQ", "dateTime": 1516654885387}, {"current_trial": 117, "trialdata": {"rt": -1000, "trial_type": "single-audio", "word": "chapel", "stimulus": "/static/audio/wordpool/CHAPEL.wav", "conditions": [12, 800, "a", 12000], "internal_node_id": "0.0-81.0", "trial": 3, "time_elapsed": 724280, "serialpos": 0, "key_press": -1, "wordID": 279, "type": "PRES_AUD", "trial_index": 117}, "uniqueid": "MTK2037:3LRLIPTPERG2U7QY5T6F4LBRTNZKAQ", "dateTime": 1516654887238}, {"current_trial": 118, "trialdata": {"rt": -1000, "trial_type": "single-audio", "word": "wrist", "stimulus": "/static/audio/wordpool/WRIST.wav", "conditions": [12, 800, "a", 12000], "internal_node_id": "0.0-82.0", "trial": 3, "time_elapsed": 726009, "serialpos": 1, "key_press": -1, "wordID": 1625, "type": "PRES_AUD", "trial_index": 118}, "uniqueid": "MTK2037:3LRLIPTPERG2U7QY5T6F4LBRTNZKAQ", "dateTime": 1516654888967}, {"current_trial": 119, "trialdata": {"rt": -1000, "trial_type": "single-audio", "word": "knife", "stimulus": "/static/audio/wordpool/KNIFE.wav", "conditions": [12, 800, "a", 12000], "internal_node_id": "0.0-83.0", "trial": 3, "time_elapsed": 727840, "serialpos": 2, "key_press": -1, "wordID": 784, "type": "PRES_AUD", "trial_index": 119}, "uniqueid": "MTK2037:3LRLIPTPERG2U7QY5T6F4LBRTNZKAQ", "dateTime": 1516654890798}, {"current_trial": 120, "trialdata": {"rt": -1000, "trial_type": "single-audio", "word": "loft", "stimulus": "/static/audio/wordpool/LOFT.wav", "conditions": [12, 800, "a", 12000], "internal_node_id": "0.0-84.0", "trial": 3, "time_elapsed": 729747, "serialpos": 3, "key_press": -1, "wordID": 839, "type": "PRES_AUD", "trial_index": 120}, "uniqueid": "MTK2037:3LRLIPTPERG2U7QY5T6F4LBRTNZKAQ", "dateTime": 1516654892705}, {"current_trial": 121, "trialdata": {"rt": -1000, "trial_type": "single-audio", "word": "apple", "stimulus": "/static/audio/wordpool/APPLE.wav", "conditions": [12, 800, "a", 12000], "internal_node_id": "0.0-85.0", "trial": 3, "time_elapsed": 731572, "serialpos": 4, "key_press": -1, "wordID": 32, "type": "PRES_AUD", "trial_index": 121}, "uniqueid": "MTK2037:3LRLIPTPERG2U7QY5T6F4LBRTNZKAQ", "dateTime": 1516654894530}, {"current_trial": 122, "trialdata": {"rt": -1000, "trial_type": "single-audio", "word": "jelly", "stimulus": "/static/audio/wordpool/JELLY.wav", "conditions": [12, 800, "a", 12000], "internal_node_id": "0.0-86.0", "trial": 3, "time_elapsed": 733218, "serialpos": 5, "key_press": -1, "wordID": 754, "type": "PRES_AUD", "trial_index": 122}, "uniqueid": "MTK2037:3LRLIPTPERG2U7QY5T6F4LBRTNZKAQ", "dateTime": 1516654896176}, {"current_trial": 123, "trialdata": {"rt": -1000, "trial_type": "single-audio", "word": "snail", "stimulus": "/static/audio/wordpool/SNAIL.wav", "conditions": [12, 800, "a", 12000], "internal_node_id": "0.0-87.0", "trial": 3, "time_elapsed": 734949, "serialpos": 6, "key_press": -1, "wordID": 1331, "type": "PRES_AUD", "trial_index": 123}, "uniqueid": "MTK2037:3LRLIPTPERG2U7QY5T6F4LBRTNZKAQ", "dateTime": 1516654897907}, {"current_trial": 124, "trialdata": {"rt": -1000, "trial_type": "single-audio", "word": "sidewalk", "stimulus": "/static/audio/wordpool/SIDEWALK.wav", "conditions": [12, 800, "a", 12000], "internal_node_id": "0.0-88.0", "trial": 3, "time_elapsed": 736913, "serialpos": 7, "key_press": -1, "wordID": 1302, "type": "PRES_AUD", "trial_index": 124}, "uniqueid": "MTK2037:3LRLIPTPERG2U7QY5T6F4LBRTNZKAQ", "dateTime": 1516654899871}, {"current_trial": 125, "trialdata": {"rt": -1000, "trial_type": "single-audio", "word": "plaza", "stimulus": "/static/audio/wordpool/PLAZA.wav", "conditions": [12, 800, "a", 12000], "internal_node_id": "0.0-89.0", "trial": 3, "time_elapsed": 738525, "serialpos": 8, "key_press": -1, "wordID": 1087, "type": "PRES_AUD", "trial_index": 125}, "uniqueid": "MTK2037:3LRLIPTPERG2U7QY5T6F4LBRTNZKAQ", "dateTime": 1516654901483}, {"current_trial": 126, "trialdata": {"rt": -1000, "trial_type": "single-audio", "word": "cashew", "stimulus": "/static/audio/wordpool/CASHEW.wav", "conditions": [12, 800, "a", 12000], "internal_node_id": "0.0-90.0", "trial": 3, "time_elapsed": 740340, "serialpos": 9, "key_press": -1, "wordID": 252, "type": "PRES_AUD", "trial_index": 126}, "uniqueid": "MTK2037:3LRLIPTPERG2U7QY5T6F4LBRTNZKAQ", "dateTime": 1516654903298}, {"current_trial": 127, "trialdata": {"rt": -1000, "trial_type": "single-audio", "word": "tortoise", "stimulus": "/static/audio/wordpool/TORTOISE.wav", "conditions": [12, 800, "a", 12000], "internal_node_id": "0.0-91.0", "trial": 3, "time_elapsed": 742342, "serialpos": 10, "key_press": -1, "wordID": 1485, "type": "PRES_AUD", "trial_index": 127}, "uniqueid": "MTK2037:3LRLIPTPERG2U7QY5T6F4LBRTNZKAQ", "dateTime": 1516654905300}, {"current_trial": 128, "trialdata": {"rt": -1000, "trial_type": "single-audio", "word": "carrot", "stimulus": "/static/audio/wordpool/CARROT.wav", "conditions": [12, 800, "a", 12000], "internal_node_id": "0.0-92.0", "trial": 3, "time_elapsed": 744283, "serialpos": 11, "key_press": -1, "wordID": 248, "type": "PRES_AUD", "trial_index": 128}, "uniqueid": "MTK2037:3LRLIPTPERG2U7QY5T6F4LBRTNZKAQ", "dateTime": 1516654907241}, {"current_trial": 129, "trialdata": {"rt": -1, "trial_type": "single-stim", "stimulus": "", "internal_node_id": "0.0-93.0-0.0", "time_elapsed": 745645, "key_press": -1, "type": "PRE_RECALL_DELAY", "trial_index": 129}, "uniqueid": "MTK2037:3LRLIPTPERG2U7QY5T6F4LBRTNZKAQ", "dateTime": 1516654908603}, {"current_trial": 130, "trialdata": {"rt": -1000, "trial_type": "single-audio", "stimulus": "/static/audio/400Hz.wav", "internal_node_id": "0.0-94.0", "time_elapsed": 746146, "key_press": -1, "type": "PRE_RECALL_ALERT", "trial_index": 130}, "uniqueid": "MTK2037:3LRLIPTPERG2U7QY5T6F4LBRTNZKAQ", "dateTime": 1516654909104}, {"current_trial": 131, "trialdata": {"rt": [4192, 8653, 13713, 18433], "recwords": ["carrot", "plaza", "sidewalk", "cashew"], "key_times": [1563, 2133, 2593, 2737, 3408, 3785, 4192, 5368, 5610, 5785, 6022, 6739, 8653, 10749, 10967, 11236, 11460, 11787, 12233, 12522, 13268, 13713, 15384, 15728, 16513, 17312, 17684, 18183, 18433], "trial_type": "free-recall", "conditions": [12, 800, "a", 12000], "internal_node_id": "0.0-95.0-0.0", "key_presses": [67, 65, 82, 82, 79, 84, 13, 80, 76, 65, 90, 65, 13, 83, 73, 68, 69, 87, 65, 76, 75, 13, 67, 65, 83, 72, 69, 87, 13], "trial": 3, "time_elapsed": 806153, "type": "FREE_RECALL", "trial_index": 131}, "uniqueid": "MTK2037:3LRLIPTPERG2U7QY5T6F4LBRTNZKAQ", "dateTime": 1516654969123}, {"current_trial": 132, "trialdata": {"rt": 2808, "trial_type": "text", "internal_node_id": "0.0-96.0", "time_elapsed": 810976, "key_press": 32, "type": "INSTRUCTIONS", "trial_index": 132}, "uniqueid": "MTK2037:3LRLIPTPERG2U7QY5T6F4LBRTNZKAQ", "dateTime": 1516654973934}, {"current_trial": 133, "trialdata": {"rt": [3225, 5041, 8295, 10081, 12996, 14462, 16695, 18951, 21344], "trial_type": "math-distractor", "key_times": [2581, 2852, 3225, 4845, 5041, 6440, 6728, 8295, 9583, 9913, 10081, 11924, 12174, 12996, 14080, 14317, 14462, 15786, 16269, 16695, 18380, 18951, 20577, 20825, 21344, 23678], "responses": ["12", "6", "19", "13", "10", "12", "16", "7", "14"], "num2": [3, 4, 5, 5, 3, 5, 9, 2, 4, 2], "num3": [8, 1, 9, 2, 4, 5, 2, 2, 2, 6], "conditions": [24, 1600, "a", 24000], "internal_node_id": "0.0-97.0", "key_presses": [49, 50, 13, 54, 13, 49, 57, 13, 49, 51, 13, 49, 48, 13, 49, 50, 13, 49, 54, 13, 55, 13, 49, 52, 13, 49], "trial": 4, "time_elapsed": 836985, "type": "DISTRACTOR", "trial_index": 133, "num1": [1, 1, 5, 6, 3, 2, 5, 3, 8, 4]}, "uniqueid": "MTK2037:3LRLIPTPERG2U7QY5T6F4LBRTNZKAQ", "dateTime": 1516654999944}, {"current_trial": 134, "trialdata": {"rt": -1, "trial_type": "single-stim", "stimulus": "<p id=\"stim\">10</p>", "internal_node_id": "0.0-98.0-0.0", "time_elapsed": 839991, "key_press": -1, "trial_index": 134}, "uniqueid": "MTK2037:3LRLIPTPERG2U7QY5T6F4LBRTNZKAQ", "dateTime": 1516655002949}, {"current_trial": 135, "trialdata": {"rt": -1, "trial_type": "single-stim", "stimulus": "<p id=\"stim\">9</p>", "internal_node_id": "0.0-98.0-1.0", "time_elapsed": 840995, "key_press": -1, "trial_index": 135}, "uniqueid": "MTK2037:3LRLIPTPERG2U7QY5T6F4LBRTNZKAQ", "dateTime": 1516655003953}, {"current_trial": 136, "trialdata": {"rt": -1, "trial_type": "single-stim", "stimulus": "<p id=\"stim\">8</p>", "internal_node_id": "0.0-98.0-2.0", "time_elapsed": 842000, "key_press": -1, "trial_index": 136}, "uniqueid": "MTK2037:3LRLIPTPERG2U7QY5T6F4LBRTNZKAQ", "dateTime": 1516655004958}, {"current_trial": 137, "trialdata": {"rt": -1, "trial_type": "single-stim", "stimulus": "<p id=\"stim\">7</p>", "internal_node_id": "0.0-98.0-3.0", "time_elapsed": 843004, "key_press": -1, "trial_index": 137}, "uniqueid": "MTK2037:3LRLIPTPERG2U7QY5T6F4LBRTNZKAQ", "dateTime": 1516655005962}, {"current_trial": 138, "trialdata": {"rt": -1, "trial_type": "single-stim", "stimulus": "<p id=\"stim\">6</p>", "internal_node_id": "0.0-98.0-4.0", "time_elapsed": 844008, "key_press": -1, "trial_index": 138}, "uniqueid": "MTK2037:3LRLIPTPERG2U7QY5T6F4LBRTNZKAQ", "dateTime": 1516655006966}, {"current_trial": 139, "trialdata": {"rt": -1, "trial_type": "single-stim", "stimulus": "<p id=\"stim\">5</p>", "internal_node_id": "0.0-98.0-5.0", "time_elapsed": 845012, "key_press": -1, "trial_index": 139}, "uniqueid": "MTK2037:3LRLIPTPERG2U7QY5T6F4LBRTNZKAQ", "dateTime": 1516655007970}, {"current_trial": 140, "trialdata": {"rt": -1, "trial_type": "single-stim", "stimulus": "<p id=\"stim\">4</p>", "internal_node_id": "0.0-98.0-6.0", "time_elapsed": 846016, "key_press": -1, "trial_index": 140}, "uniqueid": "MTK2037:3LRLIPTPERG2U7QY5T6F4LBRTNZKAQ", "dateTime": 1516655008974}, {"current_trial": 141, "trialdata": {"rt": -1, "trial_type": "single-stim", "stimulus": "<p id=\"stim\">3</p>", "internal_node_id": "0.0-98.0-7.0", "time_elapsed": 847020, "key_press": -1, "trial_index": 141}, "uniqueid": "MTK2037:3LRLIPTPERG2U7QY5T6F4LBRTNZKAQ", "dateTime": 1516655009978}, {"current_trial": 142, "trialdata": {"rt": -1, "trial_type": "single-stim", "stimulus": "<p id=\"stim\">2</p>", "internal_node_id": "0.0-98.0-8.0", "time_elapsed": 848024, "key_press": -1, "trial_index": 142}, "uniqueid": "MTK2037:3LRLIPTPERG2U7QY5T6F4LBRTNZKAQ", "dateTime": 1516655010982}, {"current_trial": 143, "trialdata": {"rt": -1, "trial_type": "single-stim", "stimulus": "<p id=\"stim\">1</p>", "internal_node_id": "0.0-98.0-9.0", "time_elapsed": 849029, "key_press": -1, "trial_index": 143}, "uniqueid": "MTK2037:3LRLIPTPERG2U7QY5T6F4LBRTNZKAQ", "dateTime": 1516655011987}, {"current_trial": 144, "trialdata": {"rt": -1, "trial_type": "single-stim", "stimulus": "<p id=\"stim\">+</p>", "internal_node_id": "0.0-99.0-0.0", "time_elapsed": 850532, "key_press": -1, "type": "FIXATION", "trial_index": 144}, "uniqueid": "MTK2037:3LRLIPTPERG2U7QY5T6F4LBRTNZKAQ", "dateTime": 1516655013490}, {"current_trial": 145, "trialdata": {"rt": -1000, "trial_type": "single-audio", "word": "suspect", "stimulus": "/static/audio/wordpool/SUSPECT.wav", "conditions": [24, 1600, "a", 24000], "internal_node_id": "0.0-100.0", "trial": 4, "time_elapsed": 853050, "serialpos": 0, "key_press": -1, "wordID": 1414, "type": "PRES_AUD", "trial_index": 145}, "uniqueid": "MTK2037:3LRLIPTPERG2U7QY5T6F4LBRTNZKAQ", "dateTime": 1516655016008}, {"current_trial": 146, "trialdata": {"rt": -1000, "trial_type": "single-audio", "word": "victim", "stimulus": "/static/audio/wordpool/VICTIM.wav", "conditions": [24, 1600, "a", 24000], "internal_node_id": "0.0-101.0", "trial": 4, "time_elapsed": 855758, "serialpos": 1, "key_press": -1, "wordID": 1561, "type": "PRES_AUD", "trial_index": 146}, "uniqueid": "MTK2037:3LRLIPTPERG2U7QY5T6F4LBRTNZKAQ", "dateTime": 1516655018716}, {"current_trial": 147, "trialdata": {"rt": -1000, "trial_type": "single-audio", "word": "skirt", "stimulus": "/static/audio/wordpool/SKIRT.wav", "conditions": [24, 1600, "a", 24000], "internal_node_id": "0.0-102.0", "trial": 4, "time_elapsed": 858437, "serialpos": 2, "key_press": -1, "wordID": 1318, "type": "PRES_AUD", "trial_index": 147}, "uniqueid": "MTK2037:3LRLIPTPERG2U7QY5T6F4LBRTNZKAQ", "dateTime": 1516655021395}, {"current_trial": 148, "trialdata": {"rt": -1000, "trial_type": "single-audio", "word": "couch", "stimulus": "/static/audio/wordpool/COUCH.wav", "conditions": [24, 1600, "a", 24000], "internal_node_id": "0.0-103.0", "trial": 4, "time_elapsed": 861084, "serialpos": 3, "key_press": -1, "wordID": 385, "type": "PRES_AUD", "trial_index": 148}, "uniqueid": "MTK2037:3LRLIPTPERG2U7QY5T6F4LBRTNZKAQ", "dateTime": 1516655024042}, {"current_trial": 149, "trialdata": {"rt": -1000, "trial_type": "single-audio", "word": "neutron", "stimulus": "/static/audio/wordpool/NEUTRON.wav", "conditions": [24, 1600, "a", 24000], "internal_node_id": "0.0-104.0", "trial": 4, "time_elapsed": 863606, "serialpos": 4, "key_press": -1, "wordID": 946, "type": "PRES_AUD", "trial_index": 149}, "uniqueid": "MTK2037:3LRLIPTPERG2U7QY5T6F4LBRTNZKAQ", "dateTime": 1516655026565}, {"current_trial": 150, "trialdata": {"rt": -1000, "trial_type": "single-audio", "word": "primate", "stimulus": "/static/audio/wordpool/PRIMATE.wav", "conditions": [24, 1600, "a", 24000], "internal_node_id": "0.0-105.0", "trial": 4, "time_elapsed": 866207, "serialpos": 5, "key_press": -1, "wordID": 1122, "type": "PRES_AUD", "trial_index": 150}, "uniqueid": "MTK2037:3LRLIPTPERG2U7QY5T6F4LBRTNZKAQ", "dateTime": 1516655029166}, {"current_trial": 151, "trialdata": {"rt": -1000, "trial_type": "single-audio", "word": "tart", "stimulus": "/static/audio/wordpool/TART.wav", "conditions": [24, 1600, "a", 24000], "internal_node_id": "0.0-106.0", "trial": 4, "time_elapsed": 868662, "serialpos": 6, "key_press": -1, "wordID": 1435, "type": "PRES_AUD", "trial_index": 151}, "uniqueid": "MTK2037:3LRLIPTPERG2U7QY5T6F4LBRTNZKAQ", "dateTime": 1516655031620}, {"current_trial": 152, "trialdata": {"rt": -1000, "trial_type": "single-audio", "word": "outfit", "stimulus": "/static/audio/wordpool/OUTFIT.wav", "conditions": [24, 1600, "a", 24000], "internal_node_id": "0.0-107.0", "trial": 4, "time_elapsed": 871293, "serialpos": 7, "key_press": -1, "wordID": 987, "type": "PRES_AUD", "trial_index": 152}, "uniqueid": "MTK2037:3LRLIPTPERG2U7QY5T6F4LBRTNZKAQ", "dateTime": 1516655034251}, {"current_trial": 153, "trialdata": {"rt": -1000, "trial_type": "single-audio", "word": "spider", "stimulus": "/static/audio/wordpool/SPIDER.wav", "conditions": [24, 1600, "a", 24000], "internal_node_id": "0.0-108.0", "trial": 4, "time_elapsed": 873810, "serialpos": 8, "key_press": -1, "wordID": 1350, "type": "PRES_AUD", "trial_index": 153}, "uniqueid": "MTK2037:3LRLIPTPERG2U7QY5T6F4LBRTNZKAQ", "dateTime": 1516655036768}, {"current_trial": 154, "trialdata": {"rt": -1000, "trial_type": "single-audio", "word": "child", "stimulus": "/static/audio/wordpool/CHILD.wav", "conditions": [24, 1600, "a", 24000], "internal_node_id": "0.0-109.0", "trial": 4, "time_elapsed": 876258, "serialpos": 9, "key_press": -1, "wordID": 298, "type": "PRES_AUD", "trial_index": 154}, "uniqueid": "MTK2037:3LRLIPTPERG2U7QY5T6F4LBRTNZKAQ", "dateTime": 1516655039216}, {"current_trial": 155, "trialdata": {"rt": -1000, "trial_type": "single-audio", "word": "patrol", "stimulus": "/static/audio/wordpool/PATROL.wav", "conditions": [24, 1600, "a", 24000], "internal_node_id": "0.0-110.0", "trial": 4, "time_elapsed": 878949, "serialpos": 10, "key_press": -1, "wordID": 1026, "type": "PRES_AUD", "trial_index": 155}, "uniqueid": "MTK2037:3LRLIPTPERG2U7QY5T6F4LBRTNZKAQ", "dateTime": 1516655041907}, {"current_trial": 156, "trialdata": {"rt": -1000, "trial_type": "single-audio", "word": "mattress", "stimulus": "/static/audio/wordpool/MATTRESS.wav", "conditions": [24, 1600, "a", 24000], "internal_node_id": "0.0-111.0", "trial": 4, "time_elapsed": 881453, "serialpos": 11, "key_press": -1, "wordID": 878, "type": "PRES_AUD", "trial_index": 156}, "uniqueid": "MTK2037:3LRLIPTPERG2U7QY5T6F4LBRTNZKAQ", "dateTime": 1516655044411}, {"current_trial": 157, "trialdata": {"rt": -1000, "trial_type": "single-audio", "word": "ulcer", "stimulus": "/static/audio/wordpool/ULCER.wav", "conditions": [24, 1600, "a", 24000], "internal_node_id": "0.0-112.0", "trial": 4, "time_elapsed": 883920, "serialpos": 12, "key_press": -1, "wordID": 1532, "type": "PRES_AUD", "trial_index": 157}, "uniqueid": "MTK2037:3LRLIPTPERG2U7QY5T6F4LBRTNZKAQ", "dateTime": 1516655046878}, {"current_trial": 158, "trialdata": {"rt": -1000, "trial_type": "single-audio", "word": "princess", "stimulus": "/static/audio/wordpool/PRINCESS.wav", "conditions": [24, 1600, "a", 24000], "internal_node_id": "0.0-113.0", "trial": 4, "time_elapsed": 886601, "serialpos": 13, "key_press": -1, "wordID": 1124, "type": "PRES_AUD", "trial_index": 158}, "uniqueid": "MTK2037:3LRLIPTPERG2U7QY5T6F4LBRTNZKAQ", "dateTime": 1516655049559}, {"current_trial": 159, "trialdata": {"rt": -1000, "trial_type": "single-audio", "word": "actress", "stimulus": "/static/audio/wordpool/ACTRESS.wav", "conditions": [24, 1600, "a", 24000], "internal_node_id": "0.0-114.0", "trial": 4, "time_elapsed": 889025, "serialpos": 14, "key_press": -1, "wordID": 5, "type": "PRES_AUD", "trial_index": 159}, "uniqueid": "MTK2037:3LRLIPTPERG2U7QY5T6F4LBRTNZKAQ", "dateTime": 1516655051983}, {"current_trial": 160, "trialdata": {"rt": -1000, "trial_type": "single-audio", "word": "hook", "stimulus": "/static/audio/wordpool/HOOK.wav", "conditions": [24, 1600, "a", 24000], "internal_node_id": "0.0-115.0", "trial": 4, "time_elapsed": 891553, "serialpos": 15, "key_press": -1, "wordID": 714, "type": "PRES_AUD", "trial_index": 160}, "uniqueid": "MTK2037:3LRLIPTPERG2U7QY5T6F4LBRTNZKAQ", "dateTime": 1516655054511}, {"current_trial": 161, "trialdata": {"rt": -1000, "trial_type": "single-audio", "word": "banjo", "stimulus": "/static/audio/wordpool/BANJO.wav", "conditions": [24, 1600, "a", 24000], "internal_node_id": "0.0-116.0", "trial": 4, "time_elapsed": 894077, "serialpos": 16, "key_press": -1, "wordID": 81, "type": "PRES_AUD", "trial_index": 161}, "uniqueid": "MTK2037:3LRLIPTPERG2U7QY5T6F4LBRTNZKAQ", "dateTime": 1516655057035}, {"current_trial": 162, "trialdata": {"rt": -1000, "trial_type": "single-audio", "word": "slime", "stimulus": "/static/audio/wordpool/SLIME.wav", "conditions": [24, 1600, "a", 24000], "internal_node_id": "0.0-117.0", "trial": 4, "time_elapsed": 896839, "serialpos": 17, "key_press": -1, "wordID": 1326, "type": "PRES_AUD", "trial_index": 162}, "uniqueid": "MTK2037:3LRLIPTPERG2U7QY5T6F4LBRTNZKAQ", "dateTime": 1516655059798}, {"current_trial": 163, "trialdata": {"rt": -1000, "trial_type": "single-audio", "word": "pepper", "stimulus": "/static/audio/wordpool/PEPPER.wav", "conditions": [24, 1600, "a", 24000], "internal_node_id": "0.0-118.0", "trial": 4, "time_elapsed": 899603, "serialpos": 18, "key_press": -1, "wordID": 1046, "type": "PRES_AUD", "trial_index": 163}, "uniqueid": "MTK2037:3LRLIPTPERG2U7QY5T6F4LBRTNZKAQ", "dateTime": 1516655062561}, {"current_trial": 164, "trialdata": {"rt": -1000, "trial_type": "single-audio", "word": "pigeon", "stimulus": "/static/audio/wordpool/PIGEON.wav", "conditions": [24, 1600, "a", 24000], "internal_node_id": "0.0-119.0", "trial": 4, "time_elapsed": 902392, "serialpos": 19, "key_press": -1, "wordID": 1064, "type": "PRES_AUD", "trial_index": 164}, "uniqueid": "MTK2037:3LRLIPTPERG2U7QY5T6F4LBRTNZKAQ", "dateTime": 1516655065350}, {"current_trial": 165, "trialdata": {"rt": -1000, "trial_type": "single-audio", "word": "fiddle", "stimulus": "/static/audio/wordpool/FIDDLE.wav", "conditions": [24, 1600, "a", 24000], "internal_node_id": "0.0-120.0", "trial": 4, "time_elapsed": 905111, "serialpos": 20, "key_press": -1, "wordID": 560, "type": "PRES_AUD", "trial_index": 165}, "uniqueid": "MTK2037:3LRLIPTPERG2U7QY5T6F4LBRTNZKAQ", "dateTime": 1516655068069}, {"current_trial": 166, "trialdata": {"rt": -1000, "trial_type": "single-audio", "word": "teacher", "stimulus": "/static/audio/wordpool/TEACHER.wav", "conditions": [24, 1600, "a", 24000], "internal_node_id": "0.0-121.0", "trial": 4, "time_elapsed": 907883, "serialpos": 21, "key_press": -1, "wordID": 1439, "type": "PRES_AUD", "trial_index": 166}, "uniqueid": "MTK2037:3LRLIPTPERG2U7QY5T6F4LBRTNZKAQ", "dateTime": 1516655070841}, {"current_trial": 167, "trialdata": {"rt": -1000, "trial_type": "single-audio", "word": "student", "stimulus": "/static/audio/wordpool/STUDENT.wav", "conditions": [24, 1600, "a", 24000], "internal_node_id": "0.0-122.0", "trial": 4, "time_elapsed": 910399, "serialpos": 22, "key_press": -1, "wordID": 1394, "type": "PRES_AUD", "trial_index": 167}, "uniqueid": "MTK2037:3LRLIPTPERG2U7QY5T6F4LBRTNZKAQ", "dateTime": 1516655073357}, {"current_trial": 168, "trialdata": {"rt": -1000, "trial_type": "single-audio", "word": "penguin", "stimulus": "/static/audio/wordpool/PENGUIN.wav", "conditions": [24, 1600, "a", 24000], "internal_node_id": "0.0-123.0", "trial": 4, "time_elapsed": 912981, "serialpos": 23, "key_press": -1, "wordID": 1043, "type": "PRES_AUD", "trial_index": 168}, "uniqueid": "MTK2037:3LRLIPTPERG2U7QY5T6F4LBRTNZKAQ", "dateTime": 1516655075939}, {"current_trial": 169, "trialdata": {"rt": -1, "trial_type": "single-stim", "stimulus": "", "internal_node_id": "0.0-124.0-0.0", "time_elapsed": 914343, "key_press": -1, "type": "PRE_RECALL_DELAY", "trial_index": 169}, "uniqueid": "MTK2037:3LRLIPTPERG2U7QY5T6F4LBRTNZKAQ", "dateTime": 1516655077301}, {"current_trial": 170, "trialdata": {"rt": -1000, "trial_type": "single-audio", "stimulus": "/static/audio/400Hz.wav", "internal_node_id": "0.0-125.0", "time_elapsed": 914844, "key_press": -1, "type": "PRE_RECALL_ALERT", "trial_index": 170}, "uniqueid": "MTK2037:3LRLIPTPERG2U7QY5T6F4LBRTNZKAQ", "dateTime": 1516655077802}, {"current_trial": 171, "trialdata": {"rt": [5759, 9922, 13688, 17691, 20503, 23376, 26154, 30904, 55170], "recwords": ["penguin", "child", "outfit", "suspect", "victim", "teacher", "student", "penguin", "knife"], "key_times": [3117, 3449, 3936, 4520, 4812, 5023, 5391, 5759, 7885, 8405, 8787, 9132, 9573, 9922, 10913, 11499, 11912, 12560, 12826, 13481, 13688, 14983, 15297, 15481, 16140, 16496, 16938, 17263, 17691, 18272, 18534, 18921, 19238, 19888, 20175, 20503, 21350, 21522, 21952, 22330, 22672, 22887, 23123, 23376, 23766, 24095, 24549, 24816, 25054, 25348, 25703, 26154, 28724, 28891, 29339, 29801, 30088, 30273, 30588, 30904, 50961, 51258, 51634, 54416, 54857, 55170], "trial_type": "free-recall", "conditions": [24, 1600, "a", 24000], "internal_node_id": "0.0-126.0-0.0", "key_presses": [80, 69, 78, 71, 85, 73, 78, 13, 67, 72, 73, 76, 68, 13, 79, 85, 84, 70, 73, 84, 13, 83, 85, 83, 80, 69, 67, 84, 13, 86, 73, 67, 84, 73, 77, 13, 84, 69, 65, 67, 72, 69, 82, 13, 83, 84, 85, 68, 69, 78, 84, 13, 80, 69, 78, 71, 85, 73, 78, 13, 75, 78, 73, 70, 69, 13], "trial": 4, "time_elapsed": 974853, "type": "FREE_RECALL", "trial_index": 171}, "uniqueid": "MTK2037:3LRLIPTPERG2U7QY5T6F4LBRTNZKAQ", "dateTime": 1516655137813}, {"current_trial": 172, "trialdata": {"rt": 2068, "trial_type": "text", "internal_node_id": "0.0-127.0", "time_elapsed": 978924, "key_press": 32, "type": "INSTRUCTIONS", "trial_index": 172}, "uniqueid": "MTK2037:3LRLIPTPERG2U7QY5T6F4LBRTNZKAQ", "dateTime": 1516655141882}, {"current_trial": 173, "trialdata": {"rt": [2766, 5464, 7860, 10470, 13305, 15706, 18115, 20508, 23096], "trial_type": "math-distractor", "key_times": [2128, 2292, 2766, 4251, 4952, 5464, 6836, 7349, 7860, 9537, 9999, 10470, 12046, 12717, 13305, 15066, 15398, 15706, 17458, 18115, 19532, 19901, 20508, 22232, 22648, 23096], "responses": ["14", "17", "14", "17", "18", "12", "8", "18", "25"], "num2": [8, 2, 7, 9, 6, 2, 1, 9, 8, 8], "num3": [5, 8, 3, 4, 9, 1, 4, 2, 8, 9], "conditions": [24, 800, "a", 24000], "internal_node_id": "0.0-128.0", "key_presses": [49, 52, 13, 49, 55, 13, 49, 52, 13, 49, 55, 13, 49, 56, 13, 49, 50, 13, 56, 13, 49, 56, 13, 50, 53, 13], "trial": 5, "time_elapsed": 1004936, "type": "DISTRACTOR", "trial_index": 173, "num1": [1, 7, 4, 4, 3, 9, 3, 7, 9, 9]}, "uniqueid": "MTK2037:3LRLIPTPERG2U7QY5T6F4LBRTNZKAQ", "dateTime": 1516655167894}, {"current_trial": 174, "trialdata": {"rt": -1, "trial_type": "single-stim", "stimulus": "<p id=\"stim\">10</p>", "internal_node_id": "0.0-129.0-0.0", "time_elapsed": 1007942, "key_press": -1, "trial_index": 174}, "uniqueid": "MTK2037:3LRLIPTPERG2U7QY5T6F4LBRTNZKAQ", "dateTime": 1516655170900}, {"current_trial": 175, "trialdata": {"rt": -1, "trial_type": "single-stim", "stimulus": "<p id=\"stim\">9</p>", "internal_node_id": "0.0-129.0-1.0", "time_elapsed": 1008945, "key_press": -1, "trial_index": 175}, "uniqueid": "MTK2037:3LRLIPTPERG2U7QY5T6F4LBRTNZKAQ", "dateTime": 1516655171903}, {"current_trial": 176, "trialdata": {"rt": -1, "trial_type": "single-stim", "stimulus": "<p id=\"stim\">8</p>", "internal_node_id": "0.0-129.0-2.0", "time_elapsed": 1009949, "key_press": -1, "trial_index": 176}, "uniqueid": "MTK2037:3LRLIPTPERG2U7QY5T6F4LBRTNZKAQ", "dateTime": 1516655172908}, {"current_trial": 177, "trialdata": {"rt": -1, "trial_type": "single-stim", "stimulus": "<p id=\"stim\">7</p>", "internal_node_id": "0.0-129.0-3.0", "time_elapsed": 1010953, "key_press": -1, "trial_index": 177}, "uniqueid": "MTK2037:3LRLIPTPERG2U7QY5T6F4LBRTNZKAQ", "dateTime": 1516655173911}, {"current_trial": 178, "trialdata": {"rt": -1, "trial_type": "single-stim", "stimulus": "<p id=\"stim\">6</p>", "internal_node_id": "0.0-129.0-4.0", "time_elapsed": 1011957, "key_press": -1, "trial_index": 178}, "uniqueid": "MTK2037:3LRLIPTPERG2U7QY5T6F4LBRTNZKAQ", "dateTime": 1516655174915}, {"current_trial": 179, "trialdata": {"rt": -1, "trial_type": "single-stim", "stimulus": "<p id=\"stim\">5</p>", "internal_node_id": "0.0-129.0-5.0", "time_elapsed": 1012961, "key_press": -1, "trial_index": 179}, "uniqueid": "MTK2037:3LRLIPTPERG2U7QY5T6F4LBRTNZKAQ", "dateTime": 1516655175919}, {"current_trial": 180, "trialdata": {"rt": -1, "trial_type": "single-stim", "stimulus": "<p id=\"stim\">4</p>", "internal_node_id": "0.0-129.0-6.0", "time_elapsed": 1013965, "key_press": -1, "trial_index": 180}, "uniqueid": "MTK2037:3LRLIPTPERG2U7QY5T6F4LBRTNZKAQ", "dateTime": 1516655176923}, {"current_trial": 181, "trialdata": {"rt": -1, "trial_type": "single-stim", "stimulus": "<p id=\"stim\">3</p>", "internal_node_id": "0.0-129.0-7.0", "time_elapsed": 1014969, "key_press": -1, "trial_index": 181}, "uniqueid": "MTK2037:3LRLIPTPERG2U7QY5T6F4LBRTNZKAQ", "dateTime": 1516655177927}, {"current_trial": 182, "trialdata": {"rt": -1, "trial_type": "single-stim", "stimulus": "<p id=\"stim\">2</p>", "internal_node_id": "0.0-129.0-8.0", "time_elapsed": 1015974, "key_press": -1, "trial_index": 182}, "uniqueid": "MTK2037:3LRLIPTPERG2U7QY5T6F4LBRTNZKAQ", "dateTime": 1516655178932}, {"current_trial": 183, "trialdata": {"rt": -1, "trial_type": "single-stim", "stimulus": "<p id=\"stim\">1</p>", "internal_node_id": "0.0-129.0-9.0", "time_elapsed": 1016979, "key_press": -1, "trial_index": 183}, "uniqueid": "MTK2037:3LRLIPTPERG2U7QY5T6F4LBRTNZKAQ", "dateTime": 1516655179937}, {"current_trial": 184, "trialdata": {"rt": -1, "trial_type": "single-stim", "stimulus": "<p id=\"stim\">+</p>", "internal_node_id": "0.0-130.0-0.0", "time_elapsed": 1018485, "key_press": -1, "type": "FIXATION", "trial_index": 184}, "uniqueid": "MTK2037:3LRLIPTPERG2U7QY5T6F4LBRTNZKAQ", "dateTime": 1516655181443}, {"current_trial": 185, "trialdata": {"rt": -1000, "trial_type": "single-audio", "word": "pastry", "stimulus": "/static/audio/wordpool/PASTRY.wav", "conditions": [24, 800, "a", 24000], "internal_node_id": "0.0-131.0", "trial": 5, "time_elapsed": 1020212, "serialpos": 0, "key_press": -1, "wordID": 1021, "type": "PRES_AUD", "trial_index": 185}, "uniqueid": "MTK2037:3LRLIPTPERG2U7QY5T6F4LBRTNZKAQ", "dateTime": 1516655183170}, {"current_trial": 186, "trialdata": {"rt": -1000, "trial_type": "single-audio", "word": "snake", "stimulus": "/static/audio/wordpool/SNAKE.wav", "conditions": [24, 800, "a", 24000], "internal_node_id": "0.0-132.0", "trial": 5, "time_elapsed": 1021975, "serialpos": 1, "key_press": -1, "wordID": 1332, "type": "PRES_AUD", "trial_index": 186}, "uniqueid": "MTK2037:3LRLIPTPERG2U7QY5T6F4LBRTNZKAQ", "dateTime": 1516655184934}, {"current_trial": 187, "trialdata": {"rt": -1000, "trial_type": "single-audio", "word": "shovel", "stimulus": "/static/audio/wordpool/SHOVEL.wav", "conditions": [24, 800, "a", 24000], "internal_node_id": "0.0-133.0", "trial": 5, "time_elapsed": 1023739, "serialpos": 2, "key_press": -1, "wordID": 1294, "type": "PRES_AUD", "trial_index": 187}, "uniqueid": "MTK2037:3LRLIPTPERG2U7QY5T6F4LBRTNZKAQ", "dateTime": 1516655186698}, {"current_trial": 188, "trialdata": {"rt": -1000, "trial_type": "single-audio", "word": "apron", "stimulus": "/static/audio/wordpool/APRON.wav", "conditions": [24, 800, "a", 24000], "internal_node_id": "0.0-134.0", "trial": 5, "time_elapsed": 1025666, "serialpos": 3, "key_press": -1, "wordID": 34, "type": "PRES_AUD", "trial_index": 188}, "uniqueid": "MTK2037:3LRLIPTPERG2U7QY5T6F4LBRTNZKAQ", "dateTime": 1516655188624}, {"current_trial": 189, "trialdata": {"rt": -1000, "trial_type": "single-audio", "word": "freckle", "stimulus": "/static/audio/wordpool/FRECKLE.wav", "conditions": [24, 800, "a", 24000], "internal_node_id": "0.0-135.0", "trial": 5, "time_elapsed": 1027370, "serialpos": 4, "key_press": -1, "wordID": 601, "type": "PRES_AUD", "trial_index": 189}, "uniqueid": "MTK2037:3LRLIPTPERG2U7QY5T6F4LBRTNZKAQ", "dateTime": 1516655190329}, {"current_trial": 190, "trialdata": {"rt": -1000, "trial_type": "single-audio", "word": "carriage", "stimulus": "/static/audio/wordpool/CARRIAGE.wav", "conditions": [24, 800, "a", 24000], "internal_node_id": "0.0-136.0", "trial": 5, "time_elapsed": 1029113, "serialpos": 5, "key_press": -1, "wordID": 247, "type": "PRES_AUD", "trial_index": 190}, "uniqueid": "MTK2037:3LRLIPTPERG2U7QY5T6F4LBRTNZKAQ", "dateTime": 1516655192071}, {"current_trial": 191, "trialdata": {"rt": -1000, "trial_type": "single-audio", "word": "driver", "stimulus": "/static/audio/wordpool/DRIVER.wav", "conditions": [24, 800, "a", 24000], "internal_node_id": "0.0-137.0", "trial": 5, "time_elapsed": 1031015, "serialpos": 6, "key_press": -1, "wordID": 498, "type": "PRES_AUD", "trial_index": 191}, "uniqueid": "MTK2037:3LRLIPTPERG2U7QY5T6F4LBRTNZKAQ", "dateTime": 1516655193973}, {"current_trial": 192, "trialdata": {"rt": -1000, "trial_type": "single-audio", "word": "truck", "stimulus": "/static/audio/wordpool/TRUCK.wav", "conditions": [24, 800, "a", 24000], "internal_node_id": "0.0-138.0", "trial": 5, "time_elapsed": 1032739, "serialpos": 7, "key_press": -1, "wordID": 1511, "type": "PRES_AUD", "trial_index": 192}, "uniqueid": "MTK2037:3LRLIPTPERG2U7QY5T6F4LBRTNZKAQ", "dateTime": 1516655195697}, {"current_trial": 193, "trialdata": {"rt": -1000, "trial_type": "single-audio", "word": "report", "stimulus": "/static/audio/wordpool/REPORT.wav", "conditions": [24, 800, "a", 24000], "internal_node_id": "0.0-139.0", "trial": 5, "time_elapsed": 1034610, "serialpos": 8, "key_press": -1, "wordID": 1183, "type": "PRES_AUD", "trial_index": 193}, "uniqueid": "MTK2037:3LRLIPTPERG2U7QY5T6F4LBRTNZKAQ", "dateTime": 1516655197569}, {"current_trial": 194, "trialdata": {"rt": -1000, "trial_type": "single-audio", "word": "label", "stimulus": "/static/audio/wordpool/LABEL.wav", "conditions": [24, 800, "a", 24000], "internal_node_id": "0.0-140.0", "trial": 5, "time_elapsed": 1036607, "serialpos": 9, "key_press": -1, "wordID": 789, "type": "PRES_AUD", "trial_index": 194}, "uniqueid": "MTK2037:3LRLIPTPERG2U7QY5T6F4LBRTNZKAQ", "dateTime": 1516655199565}, {"current_trial": 195, "trialdata": {"rt": -1000, "trial_type": "single-audio", "word": "custard", "stimulus": "/static/audio/wordpool/CUSTARD.wav", "conditions": [24, 800, "a", 24000], "internal_node_id": "0.0-141.0", "trial": 5, "time_elapsed": 1038472, "serialpos": 10, "key_press": -1, "wordID": 428, "type": "PRES_AUD", "trial_index": 195}, "uniqueid": "MTK2037:3LRLIPTPERG2U7QY5T6F4LBRTNZKAQ", "dateTime": 1516655201430}, {"current_trial": 196, "trialdata": {"rt": -1000, "trial_type": "single-audio", "word": "paper", "stimulus": "/static/audio/wordpool/PAPER.wav", "conditions": [24, 800, "a", 24000], "internal_node_id": "0.0-142.0", "trial": 5, "time_elapsed": 1040310, "serialpos": 11, "key_press": -1, "wordID": 1010, "type": "PRES_AUD", "trial_index": 196}, "uniqueid": "MTK2037:3LRLIPTPERG2U7QY5T6F4LBRTNZKAQ", "dateTime": 1516655203268}, {"current_trial": 197, "trialdata": {"rt": -1000, "trial_type": "single-audio", "word": "concert", "stimulus": "/static/audio/wordpool/CONCERT.wav", "conditions": [24, 800, "a", 24000], "internal_node_id": "0.0-143.0", "trial": 5, "time_elapsed": 1042019, "serialpos": 12, "key_press": -1, "wordID": 359, "type": "PRES_AUD", "trial_index": 197}, "uniqueid": "MTK2037:3LRLIPTPERG2U7QY5T6F4LBRTNZKAQ", "dateTime": 1516655204977}, {"current_trial": 198, "trialdata": {"rt": -1000, "trial_type": "single-audio", "word": "muffin", "stimulus": "/static/audio/wordpool/MUFFIN.wav", "conditions": [24, 800, "a", 24000], "internal_node_id": "0.0-144.0", "trial": 5, "time_elapsed": 1043703, "serialpos": 13, "key_press": -1, "wordID": 928, "type": "PRES_AUD", "trial_index": 198}, "uniqueid": "MTK2037:3LRLIPTPERG2U7QY5T6F4LBRTNZKAQ", "dateTime": 1516655206661}, {"current_trial": 199, "trialdata": {"rt": -1000, "trial_type": "single-audio", "word": "valley", "stimulus": "/static/audio/wordpool/VALLEY.wav", "conditions": [24, 800, "a", 24000], "internal_node_id": "0.0-145.0", "trial": 5, "time_elapsed": 1045554, "serialpos": 14, "key_press": -1, "wordID": 1544, "type": "PRES_AUD", "trial_index": 199}, "uniqueid": "MTK2037:3LRLIPTPERG2U7QY5T6F4LBRTNZKAQ", "dateTime": 1516655208512}, {"current_trial": 200, "trialdata": {"rt": -1000, "trial_type": "single-audio", "word": "fragrance", "stimulus": "/static/audio/wordpool/FRAGRANCE.wav", "conditions": [24, 800, "a", 24000], "internal_node_id": "0.0-146.0", "trial": 5, "time_elapsed": 1047249, "serialpos": 15, "key_press": -1, "wordID": 598, "type": "PRES_AUD", "trial_index": 200}, "uniqueid": "MTK2037:3LRLIPTPERG2U7QY5T6F4LBRTNZKAQ", "dateTime": 1516655210207}, {"current_trial": 201, "trialdata": {"rt": -1000, "trial_type": "single-audio", "word": "shoulder", "stimulus": "/static/audio/wordpool/SHOULDER.wav", "conditions": [24, 800, "a", 24000], "internal_node_id": "0.0-147.0", "trial": 5, "time_elapsed": 1049002, "serialpos": 16, "key_press": -1, "wordID": 1293, "type": "PRES_AUD", "trial_index": 201}, "uniqueid": "MTK2037:3LRLIPTPERG2U7QY5T6F4LBRTNZKAQ", "dateTime": 1516655211960}, {"current_trial": 202, "trialdata": {"rt": -1000, "trial_type": "single-audio", "word": "elbow", "stimulus": "/static/audio/wordpool/ELBOW.wav", "conditions": [24, 800, "a", 24000], "internal_node_id": "0.0-148.0", "trial": 5, "time_elapsed": 1050809, "serialpos": 17, "key_press": -1, "wordID": 519, "type": "PRES_AUD", "trial_index": 202}, "uniqueid": "MTK2037:3LRLIPTPERG2U7QY5T6F4LBRTNZKAQ", "dateTime": 1516655213768}, {"current_trial": 203, "trialdata": {"rt": -1000, "trial_type": "single-audio", "word": "lumber", "stimulus": "/static/audio/wordpool/LUMBER.wav", "conditions": [24, 800, "a", 24000], "internal_node_id": "0.0-149.0", "trial": 5, "time_elapsed": 1052603, "serialpos": 18, "key_press": -1, "wordID": 847, "type": "PRES_AUD", "trial_index": 203}, "uniqueid": "MTK2037:3LRLIPTPERG2U7QY5T6F4LBRTNZKAQ", "dateTime": 1516655215561}, {"current_trial": 204, "trialdata": {"rt": -1000, "trial_type": "single-audio", "word": "cattle", "stimulus": "/static/audio/wordpool/CATTLE.wav", "conditions": [24, 800, "a", 24000], "internal_node_id": "0.0-150.0", "trial": 5, "time_elapsed": 1054594, "serialpos": 19, "key_press": -1, "wordID": 260, "type": "PRES_AUD", "trial_index": 204}, "uniqueid": "MTK2037:3LRLIPTPERG2U7QY5T6F4LBRTNZKAQ", "dateTime": 1516655217552}, {"current_trial": 205, "trialdata": {"rt": -1000, "trial_type": "single-audio", "word": "leg", "stimulus": "/static/audio/wordpool/LEG.wav", "conditions": [24, 800, "a", 24000], "internal_node_id": "0.0-151.0", "trial": 5, "time_elapsed": 1056541, "serialpos": 20, "key_press": -1, "wordID": 808, "type": "PRES_AUD", "trial_index": 205}, "uniqueid": "MTK2037:3LRLIPTPERG2U7QY5T6F4LBRTNZKAQ", "dateTime": 1516655219500}, {"current_trial": 206, "trialdata": {"rt": -1000, "trial_type": "single-audio", "word": "preacher", "stimulus": "/static/audio/wordpool/PREACHER.wav", "conditions": [24, 800, "a", 24000], "internal_node_id": "0.0-152.0", "trial": 5, "time_elapsed": 1058271, "serialpos": 21, "key_press": -1, "wordID": 1118, "type": "PRES_AUD", "trial_index": 206}, "uniqueid": "MTK2037:3LRLIPTPERG2U7QY5T6F4LBRTNZKAQ", "dateTime": 1516655221229}, {"current_trial": 207, "trialdata": {"rt": -1000, "trial_type": "single-audio", "word": "binder", "stimulus": "/static/audio/wordpool/BINDER.wav", "conditions": [24, 800, "a", 24000], "internal_node_id": "0.0-153.0", "trial": 5, "time_elapsed": 1060221, "serialpos": 22, "key_press": -1, "wordID": 126, "type": "PRES_AUD", "trial_index": 207}, "uniqueid": "MTK2037:3LRLIPTPERG2U7QY5T6F4LBRTNZKAQ", "dateTime": 1516655223179}, {"current_trial": 208, "trialdata": {"rt": -1000, "trial_type": "single-audio", "word": "arm", "stimulus": "/static/audio/wordpool/ARM.wav", "conditions": [24, 800, "a", 24000], "internal_node_id": "0.0-154.0", "trial": 5, "time_elapsed": 1061964, "serialpos": 23, "key_press": -1, "wordID": 37, "type": "PRES_AUD", "trial_index": 208}, "uniqueid": "MTK2037:3LRLIPTPERG2U7QY5T6F4LBRTNZKAQ", "dateTime": 1516655224922}, {"current_trial": 209, "trialdata": {"rt": -1, "trial_type": "single-stim", "stimulus": "", "internal_node_id": "0.0-155.0-0.0", "time_elapsed": 1063294, "key_press": -1, "type": "PRE_RECALL_DELAY", "trial_index": 209}, "uniqueid": "MTK2037:3LRLIPTPERG2U7QY5T6F4LBRTNZKAQ", "dateTime": 1516655226252}, {"current_trial": 210, "trialdata": {"rt": -1000, "trial_type": "single-audio", "stimulus": "/static/audio/400Hz.wav", "internal_node_id": "0.0-156.0", "time_elapsed": 1063795, "key_press": -1, "type": "PRE_RECALL_ALERT", "trial_index": 210}, "uniqueid": "MTK2037:3LRLIPTPERG2U7QY5T6F4LBRTNZKAQ", "dateTime": 1516655226753}, {"current_trial": 211, "trialdata": {"rt": [2246, 3953, 7127, 9681, 22307, 24734, 29632, 45563], "recwords": ["arm", "leg", "preacher", "binder", "shoulder", "driver", "truck", "shoulder"], "key_times": [879, 1114, 1583, 2246, 2818, 3092, 3332, 3953, 4750, 4957, 5179, 5761, 5928, 6174, 6326, 6521, 7127, 7789, 8045, 8298, 8484, 8665, 8859, 9681, 19814, 20077, 20508, 20781, 21105, 21593, 21759, 21973, 22307, 22773, 23057, 23199, 23598, 23758, 23982, 24734, 27473, 27782, 28069, 28471, 28713, 29632, 43140, 43414, 43776, 44024, 44301, 44780, 44979, 45216, 45563], "trial_type": "free-recall", "conditions": [24, 800, "a", 24000], "internal_node_id": "0.0-157.0-0.0", "key_presses": [65, 82, 77, 13, 76, 69, 71, 13, 80, 82, 69, 65, 67, 72, 69, 82, 13, 66, 73, 78, 68, 69, 82, 13, 83, 72, 79, 85, 76, 68, 69, 82, 13, 68, 82, 73, 86, 69, 82, 13, 84, 82, 85, 67, 75, 13, 83, 72, 79, 85, 76, 68, 69, 82, 13], "trial": 5, "time_elapsed": 1123802, "type": "FREE_RECALL", "trial_index": 211}, "uniqueid": "MTK2037:3LRLIPTPERG2U7QY5T6F4LBRTNZKAQ", "dateTime": 1516655286764}, {"current_trial": 212, "trialdata": {"rt": 2799, "trial_type": "text", "internal_node_id": "0.0-158.0", "time_elapsed": 1128610, "key_press": 32, "type": "INSTRUCTIONS", "trial_index": 212}, "uniqueid": "MTK2037:3LRLIPTPERG2U7QY5T6F4LBRTNZKAQ", "dateTime": 1516655291568}, {"current_trial": 213, "trialdata": {"rt": [3560, 6761, 9738, 12399, 15094, 19048, 21843], "trial_type": "math-distractor", "key_times": [2092, 2978, 3560, 5769, 6280, 6761, 8599, 9265, 9738, 11377, 11950, 12399, 14038, 14290, 15094, 17736, 18165, 19048, 20630, 21268, 21843, 23610], "responses": ["13", "20", "16", "20", "21", "13", "14"], "num2": [2, 5, 3, 7, 7, 5, 3, 5], "num3": [6, 9, 4, 8, 5, 4, 8, 7], "conditions": [12, 1600, "a", 24000], "internal_node_id": "0.0-159.0", "key_presses": [49, 51, 13, 50, 48, 13, 49, 54, 13, 50, 48, 13, 50, 49, 13, 49, 51, 13, 49, 52, 13, 49], "trial": 6, "time_elapsed": 1154621, "type": "DISTRACTOR", "trial_index": 213, "num1": [5, 6, 9, 5, 9, 4, 3, 5]}, "uniqueid": "MTK2037:3LRLIPTPERG2U7QY5T6F4LBRTNZKAQ", "dateTime": 1516655317579}, {"current_trial": 214, "trialdata": {"rt": -1, "trial_type": "single-stim", "stimulus": "<p id=\"stim\">10</p>", "internal_node_id": "0.0-160.0-0.0", "time_elapsed": 1157629, "key_press": -1, "trial_index": 214}, "uniqueid": "MTK2037:3LRLIPTPERG2U7QY5T6F4LBRTNZKAQ", "dateTime": 1516655320587}, {"current_trial": 215, "trialdata": {"rt": -1, "trial_type": "single-stim", "stimulus": "<p id=\"stim\">9</p>", "internal_node_id": "0.0-160.0-1.0", "time_elapsed": 1158633, "key_press": -1, "trial_index": 215}, "uniqueid": "MTK2037:3LRLIPTPERG2U7QY5T6F4LBRTNZKAQ", "dateTime": 1516655321591}, {"current_trial": 216, "trialdata": {"rt": -1, "trial_type": "single-stim", "stimulus": "<p id=\"stim\">8</p>", "internal_node_id": "0.0-160.0-2.0", "time_elapsed": 1159638, "key_press": -1, "trial_index": 216}, "uniqueid": "MTK2037:3LRLIPTPERG2U7QY5T6F4LBRTNZKAQ", "dateTime": 1516655322596}, {"current_trial": 217, "trialdata": {"rt": -1, "trial_type": "single-stim", "stimulus": "<p id=\"stim\">7</p>", "internal_node_id": "0.0-160.0-3.0", "time_elapsed": 1160642, "key_press": -1, "trial_index": 217}, "uniqueid": "MTK2037:3LRLIPTPERG2U7QY5T6F4LBRTNZKAQ", "dateTime": 1516655323600}, {"current_trial": 218, "trialdata": {"rt": -1, "trial_type": "single-stim", "stimulus": "<p id=\"stim\">6</p>", "internal_node_id": "0.0-160.0-4.0", "time_elapsed": 1161645, "key_press": -1, "trial_index": 218}, "uniqueid": "MTK2037:3LRLIPTPERG2U7QY5T6F4LBRTNZKAQ", "dateTime": 1516655324604}, {"current_trial": 219, "trialdata": {"rt": -1, "trial_type": "single-stim", "stimulus": "<p id=\"stim\">5</p>", "internal_node_id": "0.0-160.0-5.0", "time_elapsed": 1162649, "key_press": -1, "trial_index": 219}, "uniqueid": "MTK2037:3LRLIPTPERG2U7QY5T6F4LBRTNZKAQ", "dateTime": 1516655325608}, {"current_trial": 220, "trialdata": {"rt": -1, "trial_type": "single-stim", "stimulus": "<p id=\"stim\">4</p>", "internal_node_id": "0.0-160.0-6.0", "time_elapsed": 1163654, "key_press": -1, "trial_index": 220}, "uniqueid": "MTK2037:3LRLIPTPERG2U7QY5T6F4LBRTNZKAQ", "dateTime": 1516655326612}, {"current_trial": 221, "trialdata": {"rt": -1, "trial_type": "single-stim", "stimulus": "<p id=\"stim\">3</p>", "internal_node_id": "0.0-160.0-7.0", "time_elapsed": 1164658, "key_press": -1, "trial_index": 221}, "uniqueid": "MTK2037:3LRLIPTPERG2U7QY5T6F4LBRTNZKAQ", "dateTime": 1516655327616}, {"current_trial": 222, "trialdata": {"rt": -1, "trial_type": "single-stim", "stimulus": "<p id=\"stim\">2</p>", "internal_node_id": "0.0-160.0-8.0", "time_elapsed": 1165662, "key_press": -1, "trial_index": 222}, "uniqueid": "MTK2037:3LRLIPTPERG2U7QY5T6F4LBRTNZKAQ", "dateTime": 1516655328621}, {"current_trial": 223, "trialdata": {"rt": -1, "trial_type": "single-stim", "stimulus": "<p id=\"stim\">1</p>", "internal_node_id": "0.0-160.0-9.0", "time_elapsed": 1166666, "key_press": -1, "trial_index": 223}, "uniqueid": "MTK2037:3LRLIPTPERG2U7QY5T6F4LBRTNZKAQ", "dateTime": 1516655329625}, {"current_trial": 224, "trialdata": {"rt": -1, "trial_type": "single-stim", "stimulus": "<p id=\"stim\">+</p>", "internal_node_id": "0.0-161.0-0.0", "time_elapsed": 1168169, "key_press": -1, "type": "FIXATION", "trial_index": 224}, "uniqueid": "MTK2037:3LRLIPTPERG2U7QY5T6F4LBRTNZKAQ", "dateTime": 1516655331127}, {"current_trial": 225, "trialdata": {"rt": -1000, "trial_type": "single-audio", "word": "relish", "stimulus": "/static/audio/wordpool/RELISH.wav", "conditions": [12, 1600, "a", 24000], "internal_node_id": "0.0-162.0", "trial": 6, "time_elapsed": 1170811, "serialpos": 0, "key_press": -1, "wordID": 1182, "type": "PRES_AUD", "trial_index": 225}, "uniqueid": "MTK2037:3LRLIPTPERG2U7QY5T6F4LBRTNZKAQ", "dateTime": 1516655333769}, {"current_trial": 226, "trialdata": {"rt": -1000, "trial_type": "single-audio", "word": "leopard", "stimulus": "/static/audio/wordpool/LEOPARD.wav", "conditions": [12, 1600, "a", 24000], "internal_node_id": "0.0-163.0", "trial": 6, "time_elapsed": 1173306, "serialpos": 1, "key_press": -1, "wordID": 811, "type": "PRES_AUD", "trial_index": 226}, "uniqueid": "MTK2037:3LRLIPTPERG2U7QY5T6F4LBRTNZKAQ", "dateTime": 1516655336264}, {"current_trial": 227, "trialdata": {"rt": -1000, "trial_type": "single-audio", "word": "japan", "stimulus": "/static/audio/wordpool/JAPAN.wav", "conditions": [12, 1600, "a", 24000], "internal_node_id": "0.0-164.0", "trial": 6, "time_elapsed": 1175727, "serialpos": 2, "key_press": -1, "wordID": 748, "type": "PRES_AUD", "trial_index": 227}, "uniqueid": "MTK2037:3LRLIPTPERG2U7QY5T6F4LBRTNZKAQ", "dateTime": 1516655338685}, {"current_trial": 228, "trialdata": {"rt": -1000, "trial_type": "single-audio", "word": "creature", "stimulus": "/static/audio/wordpool/CREATURE.wav", "conditions": [12, 1600, "a", 24000], "internal_node_id": "0.0-165.0", "trial": 6, "time_elapsed": 1178377, "serialpos": 3, "key_press": -1, "wordID": 402, "type": "PRES_AUD", "trial_index": 228}, "uniqueid": "MTK2037:3LRLIPTPERG2U7QY5T6F4LBRTNZKAQ", "dateTime": 1516655341335}, {"current_trial": 229, "trialdata": {"rt": -1000, "trial_type": "single-audio", "word": "pizza", "stimulus": "/static/audio/wordpool/PIZZA.wav", "conditions": [12, 1600, "a", 24000], "internal_node_id": "0.0-166.0", "trial": 6, "time_elapsed": 1180965, "serialpos": 4, "key_press": -1, "wordID": 1078, "type": "PRES_AUD", "trial_index": 229}, "uniqueid": "MTK2037:3LRLIPTPERG2U7QY5T6F4LBRTNZKAQ", "dateTime": 1516655343924}, {"current_trial": 230, "trialdata": {"rt": -1000, "trial_type": "single-audio", "word": "hedge", "stimulus": "/static/audio/wordpool/HEDGE.wav", "conditions": [12, 1600, "a", 24000], "internal_node_id": "0.0-167.0", "trial": 6, "time_elapsed": 1183556, "serialpos": 5, "key_press": -1, "wordID": 698, "type": "PRES_AUD", "trial_index": 230}, "uniqueid": "MTK2037:3LRLIPTPERG2U7QY5T6F4LBRTNZKAQ", "dateTime": 1516655346514}, {"current_trial": 231, "trialdata": {"rt": -1000, "trial_type": "single-audio", "word": "kitchen", "stimulus": "/static/audio/wordpool/KITCHEN.wav", "conditions": [12, 1600, "a", 24000], "internal_node_id": "0.0-168.0", "trial": 6, "time_elapsed": 1186116, "serialpos": 6, "key_press": -1, "wordID": 777, "type": "PRES_AUD", "trial_index": 231}, "uniqueid": "MTK2037:3LRLIPTPERG2U7QY5T6F4LBRTNZKAQ", "dateTime": 1516655349074}, {"current_trial": 232, "trialdata": {"rt": -1000, "trial_type": "single-audio", "word": "cupboard", "stimulus": "/static/audio/wordpool/CUPBOARD.wav", "conditions": [12, 1600, "a", 24000], "internal_node_id": "0.0-169.0", "trial": 6, "time_elapsed": 1188780, "serialpos": 7, "key_press": -1, "wordID": 424, "type": "PRES_AUD", "trial_index": 232}, "uniqueid": "MTK2037:3LRLIPTPERG2U7QY5T6F4LBRTNZKAQ", "dateTime": 1516655351738}, {"current_trial": 233, "trialdata": {"rt": -1000, "trial_type": "single-audio", "word": "bike", "stimulus": "/static/audio/wordpool/BIKE.wav", "conditions": [12, 1600, "a", 24000], "internal_node_id": "0.0-170.0", "trial": 6, "time_elapsed": 1191264, "serialpos": 8, "key_press": -1, "wordID": 124, "type": "PRES_AUD", "trial_index": 233}, "uniqueid": "MTK2037:3LRLIPTPERG2U7QY5T6F4LBRTNZKAQ", "dateTime": 1516655354222}, {"current_trial": 234, "trialdata": {"rt": -1000, "trial_type": "single-audio", "word": "puppy", "stimulus": "/static/audio/wordpool/PUPPY.wav", "conditions": [12, 1600, "a", 24000], "internal_node_id": "0.0-171.0", "trial": 6, "time_elapsed": 1193992, "serialpos": 9, "key_press": -1, "wordID": 1143, "type": "PRES_AUD", "trial_index": 234}, "uniqueid": "MTK2037:3LRLIPTPERG2U7QY5T6F4LBRTNZKAQ", "dateTime": 1516655356950}, {"current_trial": 235, "trialdata": {"rt": -1000, "trial_type": "single-audio", "word": "beast", "stimulus": "/static/audio/wordpool/BEAST.wav", "conditions": [12, 1600, "a", 24000], "internal_node_id": "0.0-172.0", "trial": 6, "time_elapsed": 1196793, "serialpos": 10, "key_press": -1, "wordID": 107, "type": "PRES_AUD", "trial_index": 235}, "uniqueid": "MTK2037:3LRLIPTPERG2U7QY5T6F4LBRTNZKAQ", "dateTime": 1516655359751}, {"current_trial": 236, "trialdata": {"rt": -1000, "trial_type": "single-audio", "word": "fox", "stimulus": "/static/audio/wordpool/FOX.wav", "conditions": [12, 1600, "a", 24000], "internal_node_id": "0.0-173.0", "trial": 6, "time_elapsed": 1199365, "serialpos": 11, "key_press": -1, "wordID": 597, "type": "PRES_AUD", "trial_index": 236}, "uniqueid": "MTK2037:3LRLIPTPERG2U7QY5T6F4LBRTNZKAQ", "dateTime": 1516655362323}, {"current_trial": 237, "trialdata": {"rt": -1, "trial_type": "single-stim", "stimulus": "", "internal_node_id": "0.0-174.0-0.0", "time_elapsed": 1200566, "key_press": -1, "type": "PRE_RECALL_DELAY", "trial_index": 237}, "uniqueid": "MTK2037:3LRLIPTPERG2U7QY5T6F4LBRTNZKAQ", "dateTime": 1516655363524}, {"current_trial": 238, "trialdata": {"rt": -1000, "trial_type": "single-audio", "stimulus": "/static/audio/400Hz.wav", "internal_node_id": "0.0-175.0", "time_elapsed": 1201068, "key_press": -1, "type": "PRE_RECALL_ALERT", "trial_index": 238}, "uniqueid": "MTK2037:3LRLIPTPERG2U7QY5T6F4LBRTNZKAQ", "dateTime": 1516655364027}, {"current_trial": 239, "trialdata": {"rt": [4810, 7349, 9866, 15359, 17842, 24564, 27799], "recwords": ["fox", "beast", "puppy", "kitchen", "pizza", "cupboard", "japan"], "key_times": [3062, 3528, 4007, 4810, 5630, 6036, 6313, 6573, 6920, 7349, 7797, 8235, 8688, 8835, 9329, 9866, 11970, 12206, 12625, 13306, 13760, 14145, 14886, 15359, 15940, 16233, 16722, 16877, 17080, 17842, 18461, 18943, 19522, 20106, 20418, 20903, 22545, 23125, 23448, 23702, 24564, 25147, 25542, 26131, 26716, 27342, 27799], "trial_type": "free-recall", "conditions": [12, 1600, "a", 24000], "internal_node_id": "0.0-176.0-0.0", "key_presses": [70, 79, 88, 13, 66, 69, 65, 83, 84, 13, 80, 85, 80, 80, 89, 13, 75, 73, 84, 67, 72, 69, 78, 13, 80, 73, 90, 90, 65, 13, 67, 85, 80, 66, 79, 82, 8, 65, 82, 68, 13, 74, 65, 80, 65, 78, 13], "trial": 6, "time_elapsed": 1261075, "type": "FREE_RECALL", "trial_index": 239}, "uniqueid": "MTK2037:3LRLIPTPERG2U7QY5T6F4LBRTNZKAQ", "dateTime": 1516655424036}, {"current_trial": 240, "trialdata": {"rt": 2472, "trial_type": "text", "internal_node_id": "0.0-177.0", "time_elapsed": 1265556, "key_press": 32, "type": "INSTRUCTIONS", "trial_index": 240}, "uniqueid": "MTK2037:3LRLIPTPERG2U7QY5T6F4LBRTNZKAQ", "dateTime": 1516655428514}, {"current_trial": 241, "trialdata": {"rt": [3382, 5947, 8787], "trial_type": "math-distractor", "key_times": [2203, 2784, 3382, 4961, 5472, 5947, 7512, 8216, 8787, 11604], "responses": ["14", "10", "17"], "num2": [1, 1, 4, 1], "num3": [4, 2, 4, 2], "conditions": [24, 1600, "a", 12000], "internal_node_id": "0.0-178.0", "key_presses": [49, 52, 13, 49, 48, 13, 49, 55, 13, 57], "trial": 7, "time_elapsed": 1279567, "type": "DISTRACTOR", "trial_index": 241, "num1": [9, 7, 9, 6]}, "uniqueid": "MTK2037:3LRLIPTPERG2U7QY5T6F4LBRTNZKAQ", "dateTime": 1516655442525}, {"current_trial": 242, "trialdata": {"rt": -1, "trial_type": "single-stim", "stimulus": "<p id=\"stim\">10</p>", "internal_node_id": "0.0-179.0-0.0", "time_elapsed": 1282576, "key_press": -1, "trial_index": 242}, "uniqueid": "MTK2037:3LRLIPTPERG2U7QY5T6F4LBRTNZKAQ", "dateTime": 1516655445534}, {"current_trial": 243, "trialdata": {"rt": -1, "trial_type": "single-stim", "stimulus": "<p id=\"stim\">9</p>", "internal_node_id": "0.0-179.0-1.0", "time_elapsed": 1283579, "key_press": -1, "trial_index": 243}, "uniqueid": "MTK2037:3LRLIPTPERG2U7QY5T6F4LBRTNZKAQ", "dateTime": 1516655446537}, {"current_trial": 244, "trialdata": {"rt": -1, "trial_type": "single-stim", "stimulus": "<p id=\"stim\">8</p>", "internal_node_id": "0.0-179.0-2.0", "time_elapsed": 1284584, "key_press": -1, "trial_index": 244}, "uniqueid": "MTK2037:3LRLIPTPERG2U7QY5T6F4LBRTNZKAQ", "dateTime": 1516655447542}, {"current_trial": 245, "trialdata": {"rt": -1, "trial_type": "single-stim", "stimulus": "<p id=\"stim\">7</p>", "internal_node_id": "0.0-179.0-3.0", "time_elapsed": 1285588, "key_press": -1, "trial_index": 245}, "uniqueid": "MTK2037:3LRLIPTPERG2U7QY5T6F4LBRTNZKAQ", "dateTime": 1516655448546}, {"current_trial": 246, "trialdata": {"rt": -1, "trial_type": "single-stim", "stimulus": "<p id=\"stim\">6</p>", "internal_node_id": "0.0-179.0-4.0", "time_elapsed": 1286592, "key_press": -1, "trial_index": 246}, "uniqueid": "MTK2037:3LRLIPTPERG2U7QY5T6F4LBRTNZKAQ", "dateTime": 1516655449550}, {"current_trial": 247, "trialdata": {"rt": -1, "trial_type": "single-stim", "stimulus": "<p id=\"stim\">5</p>", "internal_node_id": "0.0-179.0-5.0", "time_elapsed": 1287596, "key_press": -1, "trial_index": 247}, "uniqueid": "MTK2037:3LRLIPTPERG2U7QY5T6F4LBRTNZKAQ", "dateTime": 1516655450554}, {"current_trial": 248, "trialdata": {"rt": -1, "trial_type": "single-stim", "stimulus": "<p id=\"stim\">4</p>", "internal_node_id": "0.0-179.0-6.0", "time_elapsed": 1288600, "key_press": -1, "trial_index": 248}, "uniqueid": "MTK2037:3LRLIPTPERG2U7QY5T6F4LBRTNZKAQ", "dateTime": 1516655451558}, {"current_trial": 249, "trialdata": {"rt": -1, "trial_type": "single-stim", "stimulus": "<p id=\"stim\">3</p>", "internal_node_id": "0.0-179.0-7.0", "time_elapsed": 1289604, "key_press": -1, "trial_index": 249}, "uniqueid": "MTK2037:3LRLIPTPERG2U7QY5T6F4LBRTNZKAQ", "dateTime": 1516655452562}, {"current_trial": 250, "trialdata": {"rt": -1, "trial_type": "single-stim", "stimulus": "<p id=\"stim\">2</p>", "internal_node_id": "0.0-179.0-8.0", "time_elapsed": 1290609, "key_press": -1, "trial_index": 250}, "uniqueid": "MTK2037:3LRLIPTPERG2U7QY5T6F4LBRTNZKAQ", "dateTime": 1516655453567}, {"current_trial": 251, "trialdata": {"rt": -1, "trial_type": "single-stim", "stimulus": "<p id=\"stim\">1</p>", "internal_node_id": "0.0-179.0-9.0", "time_elapsed": 1291612, "key_press": -1, "trial_index": 251}, "uniqueid": "MTK2037:3LRLIPTPERG2U7QY5T6F4LBRTNZKAQ", "dateTime": 1516655454570}, {"current_trial": 252, "trialdata": {"rt": -1, "trial_type": "single-stim", "stimulus": "<p id=\"stim\">+</p>", "internal_node_id": "0.0-180.0-0.0", "time_elapsed": 1293116, "key_press": -1, "type": "FIXATION", "trial_index": 252}, "uniqueid": "MTK2037:3LRLIPTPERG2U7QY5T6F4LBRTNZKAQ", "dateTime": 1516655456074}, {"current_trial": 253, "trialdata": {"rt": -1000, "trial_type": "single-audio", "word": "swimmer", "stimulus": "/static/audio/wordpool/SWIMMER.wav", "conditions": [24, 1600, "a", 12000], "internal_node_id": "0.0-181.0", "trial": 7, "time_elapsed": 1295818, "serialpos": 0, "key_press": -1, "wordID": 1419, "type": "PRES_AUD", "trial_index": 253}, "uniqueid": "MTK2037:3LRLIPTPERG2U7QY5T6F4LBRTNZKAQ", "dateTime": 1516655458776}, {"current_trial": 254, "trialdata": {"rt": -1000, "trial_type": "single-audio", "word": "diver", "stimulus": "/static/audio/wordpool/DIVER.wav", "conditions": [24, 1600, "a", 12000], "internal_node_id": "0.0-182.0", "trial": 7, "time_elapsed": 1298566, "se