{"assignmentId": "3SBEHTYCWOACKUYDLWZJUREL4BRIY3", "workerId": "MTK2055", "questiondata": {"origin": "United States", "strat-rehearsal": "73", "marital": "Married/Domestic Partnership", "education": "Master's degree", "ethnicity": "Not Hispanic", "color_depth": 24, "distracted": "No", "wrote-notes": "No", "strat-other": "", "screen_width": 1366, "avail_screen_width": 1366, "avail_screen_height": 728, "strat-image": "57", "language": "English", "gender": "Female", "age": "30", "gender_other": "", "race": ["White"], "strat-categorize": "89", "pixel_depth": 24, "strat-spatial": "39", "strat-story": "72", "race_other": "", "screen_height": 768}, "bonus": 0, "hitId": "3JYPJ2TAYIFWE56S3ZSDPJCX2X4PF6", "counterbalance": 1327, "useragent": "Mozilla/5.0 (Windows NT 10.0; WOW64) AppleWebKit/537.36 (KHTML, like Gecko) Chrome/63.0.3239.132 Safari/537.36", "eventdata": [{"eventtype": "initialized", "interval": 0, "value": null, "timestamp": 1516662815014}, {"eventtype": "window_resize", "interval": 0, "value": [1366, 721], "timestamp": 1516662815014}, {"eventtype": "window_resize", "interval": 63780, "value": [1366, 672], "timestamp": 1516662878794}, {"eventtype": "focus", "interval": 718713, "value": "off", "timestamp": 1516663597507}, {"eventtype": "focus", "interval": 44270, "value": "on", "timestamp": 1516663641777}, {"eventtype": "focus", "interval": 1232519, "value": "off", "timestamp": 1516664874296}, {"eventtype": "focus", "interval": 15287, "value": "on", "timestamp": 1516664889583}, {"eventtype": "focus", "interval": 177622, "value": "off", "timestamp": 1516665067205}, {"eventtype": "focus", "interval": 3357106, "value": "on", "timestamp": 1516668424311}, {"eventtype": "focus", "interval": 4628, "value": "off", "timestamp": 1516668428939}, {"eventtype": "focus", "interval": 9227, "value": "on", "timestamp": 1516668438166}], "data": [{"current_trial": 0, "trialdata": {"rt": 1176, "trial_type": "text", "internal_node_id": "0.0-0.0", "time_elapsed": 1186, "key_press": 32, "type": "INSTRUCTIONS", "trial_index": 0}, "uniqueid": "MTK2055:3SBEHTYCWOACKUYDLWZJUREL4BRIY3", "dateTime": 1516662817016}, {"current_trial": 1, "trialdata": {"rt": 13441, "trial_type": "text", "internal_node_id": "0.0-1.0", "time_elapsed": 14637, "key_press": 32, "type": "INSTRUCTIONS", "trial_index": 1}, "uniqueid": "MTK2055:3SBEHTYCWOACKUYDLWZJUREL4BRIY3", "dateTime": 1516662830464}, {"current_trial": 2, "trialdata": {"rt": [57014], "trial_type": "audio-test", "responses": ["ocean"], "internal_node_id": "0.0-2.0", "time_elapsed": 71722, "type": "AUDIO_TEST", "trial_index": 2}, "uniqueid": "MTK2055:3SBEHTYCWOACKUYDLWZJUREL4BRIY3", "dateTime": 1516662887548}, {"current_trial": 3, "trialdata": {"rt": [25848], "trial_type": "audio-test", "responses": ["crystal"], "internal_node_id": "0.0-3.0", "time_elapsed": 97596, "type": "AUDIO_TEST", "trial_index": 3}, "uniqueid": "MTK2055:3SBEHTYCWOACKUYDLWZJUREL4BRIY3", "dateTime": 1516662913422}, {"current_trial": 4, "trialdata": {"rt": [13672], "trial_type": "audio-test", "responses": ["spice"], "internal_node_id": "0.0-4.0", "time_elapsed": 111291, "type": "AUDIO_TEST", "trial_index": 4}, "uniqueid": "MTK2055:3SBEHTYCWOACKUYDLWZJUREL4BRIY3", "dateTime": 1516662927118}, {"current_trial": 5, "trialdata": {"rt": 23222, "trial_type": "survey-text", "responses": "{\"Q0\":\"11:00PM\",\"Q1\":\"7:49AM\",\"Q2\":\"3\"}", "internal_node_id": "0.0-5.0", "time_elapsed": 135274, "type": "SLEEP_SURVEY", "trial_index": 5}, "uniqueid": "MTK2055:3SBEHTYCWOACKUYDLWZJUREL4BRIY3", "dateTime": 1516662951100}, {"current_trial": 6, "trialdata": {"rt": 88499, "trial_type": "text", "internal_node_id": "0.0-6.0", "time_elapsed": 224776, "key_press": 32, "type": "INSTRUCTIONS", "trial_index": 6}, "uniqueid": "MTK2055:3SBEHTYCWOACKUYDLWZJUREL4BRIY3", "dateTime": 1516663040602}, {"current_trial": 7, "trialdata": {"rt": 37644, "trial_type": "text", "internal_node_id": "0.0-7.0", "time_elapsed": 262922, "key_press": 32, "type": "INSTRUCTIONS", "trial_index": 7}, "uniqueid": "MTK2055:3SBEHTYCWOACKUYDLWZJUREL4BRIY3", "dateTime": 1516663078752}, {"current_trial": 8, "trialdata": {"rt": 38898, "trial_type": "text", "internal_node_id": "0.0-8.0", "time_elapsed": 302329, "key_press": 32, "type": "INSTRUCTIONS", "trial_index": 8}, "uniqueid": "MTK2055:3SBEHTYCWOACKUYDLWZJUREL4BRIY3", "dateTime": 1516663118155}, {"current_trial": 9, "trialdata": {"rt": [8429, 11723, 14775, 16768], "trial_type": "math-distractor", "key_times": [5726, 6139, 7085, 8429, 11435, 11723, 14136, 14216, 14775, 16150, 16322, 16768], "responses": ["16 ", "7", "14", "11"], "num2": [6, 2, 8, 4, 2], "num3": [2, 1, 1, 3, 9], "conditions": [18, 1200, "v", 18000], "internal_node_id": "0.0-9.0", "key_presses": [49, 54, 32, 13, 55, 13, 49, 52, 13, 49, 49, 13], "trial": 0, "time_elapsed": 321353, "type": "DISTRACTOR", "trial_index": 9, "num1": [9, 4, 5, 4, 8]}, "uniqueid": "MTK2055:3SBEHTYCWOACKUYDLWZJUREL4BRIY3", "dateTime": 1516663137179}, {"current_trial": 10, "trialdata": {"rt": -1, "trial_type": "single-stim", "stimulus": "<p id=\"stim\">10</p>", "internal_node_id": "0.0-10.0-0.0", "time_elapsed": 324354, "key_press": -1, "trial_index": 10}, "uniqueid": "MTK2055:3SBEHTYCWOACKUYDLWZJUREL4BRIY3", "dateTime": 1516663140180}, {"current_trial": 11, "trialdata": {"rt": -1, "trial_type": "single-stim", "stimulus": "<p id=\"stim\">9</p>", "internal_node_id": "0.0-10.0-1.0", "time_elapsed": 325368, "key_press": -1, "trial_index": 11}, "uniqueid": "MTK2055:3SBEHTYCWOACKUYDLWZJUREL4BRIY3", "dateTime": 1516663141194}, {"current_trial": 12, "trialdata": {"rt": -1, "trial_type": "single-stim", "stimulus": "<p id=\"stim\">8</p>", "internal_node_id": "0.0-10.0-2.0", "time_elapsed": 326369, "key_press": -1, "trial_index": 12}, "uniqueid": "MTK2055:3SBEHTYCWOACKUYDLWZJUREL4BRIY3", "dateTime": 1516663142195}, {"current_trial": 13, "trialdata": {"rt": -1, "trial_type": "single-stim", "stimulus": "<p id=\"stim\">7</p>", "internal_node_id": "0.0-10.0-3.0", "time_elapsed": 327376, "key_press": -1, "trial_index": 13}, "uniqueid": "MTK2055:3SBEHTYCWOACKUYDLWZJUREL4BRIY3", "dateTime": 1516663143202}, {"current_trial": 14, "trialdata": {"rt": -1, "trial_type": "single-stim", "stimulus": "<p id=\"stim\">6</p>", "internal_node_id": "0.0-10.0-4.0", "time_elapsed": 328384, "key_press": -1, "trial_index": 14}, "uniqueid": "MTK2055:3SBEHTYCWOACKUYDLWZJUREL4BRIY3", "dateTime": 1516663144210}, {"current_trial": 15, "trialdata": {"rt": -1, "trial_type": "single-stim", "stimulus": "<p id=\"stim\">5</p>", "internal_node_id": "0.0-10.0-5.0", "time_elapsed": 329391, "key_press": -1, "trial_index": 15}, "uniqueid": "MTK2055:3SBEHTYCWOACKUYDLWZJUREL4BRIY3", "dateTime": 1516663145217}, {"current_trial": 16, "trialdata": {"rt": -1, "trial_type": "single-stim", "stimulus": "<p id=\"stim\">4</p>", "internal_node_id": "0.0-10.0-6.0", "time_elapsed": 330395, "key_press": -1, "trial_index": 16}, "uniqueid": "MTK2055:3SBEHTYCWOACKUYDLWZJUREL4BRIY3", "dateTime": 1516663146221}, {"current_trial": 17, "trialdata": {"rt": -1, "trial_type": "single-stim", "stimulus": "<p id=\"stim\">3</p>", "internal_node_id": "0.0-10.0-7.0", "time_elapsed": 331401, "key_press": -1, "trial_index": 17}, "uniqueid": "MTK2055:3SBEHTYCWOACKUYDLWZJUREL4BRIY3", "dateTime": 1516663147231}, {"current_trial": 18, "trialdata": {"rt": -1, "trial_type": "single-stim", "stimulus": "<p id=\"stim\">2</p>", "internal_node_id": "0.0-10.0-8.0", "time_elapsed": 332409, "key_press": -1, "trial_index": 18}, "uniqueid": "MTK2055:3SBEHTYCWOACKUYDLWZJUREL4BRIY3", "dateTime": 1516663148235}, {"current_trial": 19, "trialdata": {"rt": -1, "trial_type": "single-stim", "stimulus": "<p id=\"stim\">1</p>", "internal_node_id": "0.0-10.0-9.0", "time_elapsed": 333415, "key_press": -1, "trial_index": 19}, "uniqueid": "MTK2055:3SBEHTYCWOACKUYDLWZJUREL4BRIY3", "dateTime": 1516663149241}, {"current_trial": 20, "trialdata": {"rt": -1, "trial_type": "single-stim", "stimulus": "<p id=\"stim\">+</p>", "internal_node_id": "0.0-11.0-0.0", "time_elapsed": 334928, "key_press": -1, "type": "FIXATION", "trial_index": 20}, "uniqueid": "MTK2055:3SBEHTYCWOACKUYDLWZJUREL4BRIY3", "dateTime": 1516663150754}, {"current_trial": 21, "trialdata": {"rt": -1, "trial_type": "single-stim", "word": "costume", "stimulus": "<p id=\"stim\">COSTUME</p>", "conditions": [18, 1200, "v", 18000], "internal_node_id": "0.0-12.0", "trial": 0, "time_elapsed": 336136, "serialpos": 0, "key_press": -1, "wordID": 382, "type": "PRES_VIS", "trial_index": 21}, "uniqueid": "MTK2055:3SBEHTYCWOACKUYDLWZJUREL4BRIY3", "dateTime": 1516663151962}, {"current_trial": 22, "trialdata": {"rt": -1, "trial_type": "single-stim", "word": "lizard", "stimulus": "<p id=\"stim\">LIZARD</p>", "conditions": [18, 1200, "v", 18000], "internal_node_id": "0.0-13.0", "trial": 0, "time_elapsed": 338232, "serialpos": 1, "key_press": -1, "wordID": 833, "type": "PRES_VIS", "trial_index": 22}, "uniqueid": "MTK2055:3SBEHTYCWOACKUYDLWZJUREL4BRIY3", "dateTime": 1516663154058}, {"current_trial": 23, "trialdata": {"rt": -1, "trial_type": "single-stim", "word": "japan", "stimulus": "<p id=\"stim\">JAPAN</p>", "conditions": [18, 1200, "v", 18000], "internal_node_id": "0.0-14.0", "trial": 0, "time_elapsed": 340396, "serialpos": 2, "key_press": -1, "wordID": 748, "type": "PRES_VIS", "trial_index": 23}, "uniqueid": "MTK2055:3SBEHTYCWOACKUYDLWZJUREL4BRIY3", "dateTime": 1516663156222}, {"current_trial": 24, "trialdata": {"rt": -1, "trial_type": "single-stim", "word": "hatchet", "stimulus": "<p id=\"stim\">HATCHET</p>", "conditions": [18, 1200, "v", 18000], "internal_node_id": "0.0-15.0", "trial": 0, "time_elapsed": 342417, "serialpos": 3, "key_press": -1, "wordID": 690, "type": "PRES_VIS", "trial_index": 24}, "uniqueid": "MTK2055:3SBEHTYCWOACKUYDLWZJUREL4BRIY3", "dateTime": 1516663158243}, {"current_trial": 25, "trialdata": {"rt": -1, "trial_type": "single-stim", "word": "cobra", "stimulus": "<p id=\"stim\">COBRA</p>", "conditions": [18, 1200, "v", 18000], "internal_node_id": "0.0-16.0", "trial": 0, "time_elapsed": 344586, "serialpos": 4, "key_press": -1, "wordID": 335, "type": "PRES_VIS", "trial_index": 25}, "uniqueid": "MTK2055:3SBEHTYCWOACKUYDLWZJUREL4BRIY3", "dateTime": 1516663160412}, {"current_trial": 26, "trialdata": {"rt": -1, "trial_type": "single-stim", "word": "girl", "stimulus": "<p id=\"stim\">GIRL</p>", "conditions": [18, 1200, "v", 18000], "internal_node_id": "0.0-17.0", "trial": 0, "time_elapsed": 346650, "serialpos": 5, "key_press": -1, "wordID": 636, "type": "PRES_VIS", "trial_index": 26}, "uniqueid": "MTK2055:3SBEHTYCWOACKUYDLWZJUREL4BRIY3", "dateTime": 1516663162476}, {"current_trial": 27, "trialdata": {"rt": -1, "trial_type": "single-stim", "word": "lace", "stimulus": "<p id=\"stim\">LACE</p>", "conditions": [18, 1200, "v", 18000], "internal_node_id": "0.0-18.0", "trial": 0, "time_elapsed": 348915, "serialpos": 6, "key_press": -1, "wordID": 791, "type": "PRES_VIS", "trial_index": 27}, "uniqueid": "MTK2055:3SBEHTYCWOACKUYDLWZJUREL4BRIY3", "dateTime": 1516663164741}, {"current_trial": 28, "trialdata": {"rt": -1, "trial_type": "single-stim", "word": "sparrow", "stimulus": "<p id=\"stim\">SPARROW</p>", "conditions": [18, 1200, "v", 18000], "internal_node_id": "0.0-19.0", "trial": 0, "time_elapsed": 351060, "serialpos": 7, "key_press": -1, "wordID": 1346, "type": "PRES_VIS", "trial_index": 28}, "uniqueid": "MTK2055:3SBEHTYCWOACKUYDLWZJUREL4BRIY3", "dateTime": 1516663166886}, {"current_trial": 29, "trialdata": {"rt": -1, "trial_type": "single-stim", "word": "plaza", "stimulus": "<p id=\"stim\">PLAZA</p>", "conditions": [18, 1200, "v", 18000], "internal_node_id": "0.0-20.0", "trial": 0, "time_elapsed": 353292, "serialpos": 8, "key_press": -1, "wordID": 1087, "type": "PRES_VIS", "trial_index": 29}, "uniqueid": "MTK2055:3SBEHTYCWOACKUYDLWZJUREL4BRIY3", "dateTime": 1516663169118}, {"current_trial": 30, "trialdata": {"rt": -1, "trial_type": "single-stim", "word": "cafe", "stimulus": "<p id=\"stim\">CAFE</p>", "conditions": [18, 1200, "v", 18000], "internal_node_id": "0.0-21.0", "trial": 0, "time_elapsed": 355686, "serialpos": 9, "key_press": -1, "wordID": 215, "type": "PRES_VIS", "trial_index": 30}, "uniqueid": "MTK2055:3SBEHTYCWOACKUYDLWZJUREL4BRIY3", "dateTime": 1516663171512}, {"current_trial": 31, "trialdata": {"rt": -1, "trial_type": "single-stim", "word": "cabin", "stimulus": "<p id=\"stim\">CABIN</p>", "conditions": [18, 1200, "v", 18000], "internal_node_id": "0.0-22.0", "trial": 0, "time_elapsed": 357699, "serialpos": 10, "key_press": -1, "wordID": 210, "type": "PRES_VIS", "trial_index": 31}, "uniqueid": "MTK2055:3SBEHTYCWOACKUYDLWZJUREL4BRIY3", "dateTime": 1516663173525}, {"current_trial": 32, "trialdata": {"rt": -1, "trial_type": "single-stim", "word": "slug", "stimulus": "<p id=\"stim\">SLUG</p>", "conditions": [18, 1200, "v", 18000], "internal_node_id": "0.0-23.0", "trial": 0, "time_elapsed": 359744, "serialpos": 11, "key_press": -1, "wordID": 1328, "type": "PRES_VIS", "trial_index": 32}, "uniqueid": "MTK2055:3SBEHTYCWOACKUYDLWZJUREL4BRIY3", "dateTime": 1516663175574}, {"current_trial": 33, "trialdata": {"rt": -1, "trial_type": "single-stim", "word": "flag", "stimulus": "<p id=\"stim\">FLAG</p>", "conditions": [18, 1200, "v", 18000], "internal_node_id": "0.0-24.0", "trial": 0, "time_elapsed": 361834, "serialpos": 12, "key_press": -1, "wordID": 572, "type": "PRES_VIS", "trial_index": 33}, "uniqueid": "MTK2055:3SBEHTYCWOACKUYDLWZJUREL4BRIY3", "dateTime": 1516663177660}, {"current_trial": 34, "trialdata": {"rt": -1, "trial_type": "single-stim", "word": "oyster", "stimulus": "<p id=\"stim\">OYSTER</p>", "conditions": [18, 1200, "v", 18000], "internal_node_id": "0.0-25.0", "trial": 0, "time_elapsed": 363905, "serialpos": 13, "key_press": -1, "wordID": 994, "type": "PRES_VIS", "trial_index": 34}, "uniqueid": "MTK2055:3SBEHTYCWOACKUYDLWZJUREL4BRIY3", "dateTime": 1516663179731}, {"current_trial": 35, "trialdata": {"rt": -1, "trial_type": "single-stim", "word": "marsh", "stimulus": "<p id=\"stim\">MARSH</p>", "conditions": [18, 1200, "v", 18000], "internal_node_id": "0.0-26.0", "trial": 0, "time_elapsed": 366255, "serialpos": 14, "key_press": -1, "wordID": 873, "type": "PRES_VIS", "trial_index": 35}, "uniqueid": "MTK2055:3SBEHTYCWOACKUYDLWZJUREL4BRIY3", "dateTime": 1516663182081}, {"current_trial": 36, "trialdata": {"rt": -1, "trial_type": "single-stim", "word": "kitchen", "stimulus": "<p id=\"stim\">KITCHEN</p>", "conditions": [18, 1200, "v", 18000], "internal_node_id": "0.0-27.0", "trial": 0, "time_elapsed": 368625, "serialpos": 15, "key_press": -1, "wordID": 777, "type": "PRES_VIS", "trial_index": 36}, "uniqueid": "MTK2055:3SBEHTYCWOACKUYDLWZJUREL4BRIY3", "dateTime": 1516663184451}, {"current_trial": 37, "trialdata": {"rt": -1, "trial_type": "single-stim", "word": "icing", "stimulus": "<p id=\"stim\">ICING</p>", "conditions": [18, 1200, "v", 18000], "internal_node_id": "0.0-28.0", "trial": 0, "time_elapsed": 370890, "serialpos": 16, "key_press": -1, "wordID": 731, "type": "PRES_VIS", "trial_index": 37}, "uniqueid": "MTK2055:3SBEHTYCWOACKUYDLWZJUREL4BRIY3", "dateTime": 1516663186720}, {"current_trial": 38, "trialdata": {"rt": -1, "trial_type": "single-stim", "word": "mattress", "stimulus": "<p id=\"stim\">MATTRESS</p>", "conditions": [18, 1200, "v", 18000], "internal_node_id": "0.0-29.0", "trial": 0, "time_elapsed": 372971, "serialpos": 17, "key_press": -1, "wordID": 878, "type": "PRES_VIS", "trial_index": 38}, "uniqueid": "MTK2055:3SBEHTYCWOACKUYDLWZJUREL4BRIY3", "dateTime": 1516663188797}, {"current_trial": 39, "trialdata": {"rt": -1, "trial_type": "single-stim", "stimulus": "", "internal_node_id": "0.0-30.0-0.0", "time_elapsed": 375424, "key_press": -1, "type": "PRE_RECALL_DELAY", "trial_index": 39}, "uniqueid": "MTK2055:3SBEHTYCWOACKUYDLWZJUREL4BRIY3", "dateTime": 1516663191250}, {"current_trial": 40, "trialdata": {"rt": -1000, "trial_type": "single-audio", "stimulus": "/static/audio/400Hz.wav", "internal_node_id": "0.0-31.0", "time_elapsed": 375940, "key_press": -1, "type": "PRE_RECALL_ALERT", "trial_index": 40}, "uniqueid": "MTK2055:3SBEHTYCWOACKUYDLWZJUREL4BRIY3", "dateTime": 1516663191766}, {"current_trial": 41, "trialdata": {"rt": [3893, 6967, 8718, 10564, 12003, 13109, 14805, 17147, 18515, 20051, 23028, 36940, 43520, 45689, 50225, 53199, 56582, 58649], "recwords": ["costume", "lizard", "japan", "hatchet", "kitchen", "lace", "girl", "cabin", "icing", "kitchen", "oyster", "woods", "pan", "kitchen", "ocean", "shell", "book", "magazine"], "key_times": [1506, 1762, 1990, 2104, 2220, 2785, 3052, 3444, 3609, 3893, 5635, 5852, 5891, 6126, 6235, 6644, 6967, 7692, 7847, 8121, 8280, 8448, 8718, 9264, 9584, 9699, 9964, 10076, 10201, 10393, 10564, 11002, 11184, 11225, 11452, 11545, 11674, 11762, 12003, 12341, 12447, 12647, 12918, 13109, 13991, 14093, 14181, 14572, 14805, 15203, 15328, 15453, 15924, 16024, 17147, 17481, 17550, 17703, 17798, 17888, 18515, 18824, 19007, 19090, 19373, 19490, 19602, 19734, 20051, 21911, 22133, 22223, 22455, 22643, 22743, 23028, 31646, 31803, 31951, 32084, 32171, 36940, 42696, 43112, 43236, 43520, 44604, 44792, 44856, 45121, 45193, 45357, 45421, 45689, 46787, 46971, 47639, 47839, 49545, 49625, 49805, 49885, 49961, 50225, 52427, 52523, 52695, 52779, 52927, 53199, 55878, 56090, 56222, 56358, 56582, 57258, 57405, 57545, 57693, 58049, 58125, 58257, 58393, 58649], "trial_type": "free-recall", "conditions": [18, 1200, "v", 18000], "internal_node_id": "0.0-32.0-0.0", "key_presses": [67, 79, 83, 84, 69, 8, 85, 77, 69, 13, 76, 73, 90, 65, 82, 68, 13, 74, 65, 80, 65, 78, 13, 72, 65, 84, 67, 72, 69, 84, 13, 75, 73, 84, 67, 72, 69, 78, 13, 76, 65, 67, 69, 32, 71, 73, 82, 76, 13, 67, 65, 66, 73, 78, 13, 73, 67, 73, 78, 71, 13, 75, 73, 84, 67, 72, 69, 78, 13, 79, 89, 83, 84, 69, 82, 13, 87, 79, 79, 68, 83, 13, 80, 65, 78, 13, 75, 73, 84, 67, 72, 69, 78, 13, 66, 65, 8, 8, 79, 67, 69, 65, 78, 13, 83, 72, 69, 76, 76, 13, 66, 79, 79, 75, 13, 77, 65, 71, 65, 90, 73, 78, 69, 13], "trial": 0, "time_elapsed": 435953, "type": "FREE_RECALL", "trial_index": 41}, "uniqueid": "MTK2055:3SBEHTYCWOACKUYDLWZJUREL4BRIY3", "dateTime": 1516663251795}, {"current_trial": 42, "trialdata": {"rt": 1493, "trial_type": "text", "internal_node_id": "0.0-33.0", "time_elapsed": 439465, "key_press": 32, "type": "INSTRUCTIONS", "trial_index": 42}, "uniqueid": "MTK2055:3SBEHTYCWOACKUYDLWZJUREL4BRIY3", "dateTime": 1516663255295}, {"current_trial": 43, "trialdata": {"rt": [2545, 4097, 5947, 9589, 15474, 17394], "trial_type": "math-distractor", "key_times": [2017, 2409, 2545, 3853, 3937, 4097, 5611, 5687, 5947, 9237, 9345, 9589, 13168, 13244, 14798, 15118, 15474, 17238, 17394], "responses": ["16", "12", "10", "13", "13", "5"], "num2": [8, 3, 1, 4, 2, 3, 2], "num3": [6, 2, 5, 6, 7, 1, 7], "conditions": [18, 1200, "v", 18000], "internal_node_id": "0.0-34.0", "key_presses": [49, 54, 13, 49, 50, 13, 49, 48, 13, 49, 51, 13, 49, 50, 8, 51, 13, 53, 13], "trial": 1, "time_elapsed": 459489, "type": "DISTRACTOR", "trial_index": 43, "num1": [2, 7, 4, 3, 4, 1, 8]}, "uniqueid": "MTK2055:3SBEHTYCWOACKUYDLWZJUREL4BRIY3", "dateTime": 1516663275315}, {"current_trial": 44, "trialdata": {"rt": -1, "trial_type": "single-stim", "stimulus": "<p id=\"stim\">10</p>", "internal_node_id": "0.0-35.0-0.0", "time_elapsed": 462516, "key_press": -1, "trial_index": 44}, "uniqueid": "MTK2055:3SBEHTYCWOACKUYDLWZJUREL4BRIY3", "dateTime": 1516663278342}, {"current_trial": 45, "trialdata": {"rt": -1, "trial_type": "single-stim", "stimulus": "<p id=\"stim\">9</p>", "internal_node_id": "0.0-35.0-1.0", "time_elapsed": 463549, "key_press": -1, "trial_index": 45}, "uniqueid": "MTK2055:3SBEHTYCWOACKUYDLWZJUREL4BRIY3", "dateTime": 1516663279375}, {"current_trial": 46, "trialdata": {"rt": -1, "trial_type": "single-stim", "stimulus": "<p id=\"stim\">8</p>", "internal_node_id": "0.0-35.0-2.0", "time_elapsed": 464551, "key_press": -1, "trial_index": 46}, "uniqueid": "MTK2055:3SBEHTYCWOACKUYDLWZJUREL4BRIY3", "dateTime": 1516663280377}, {"current_trial": 47, "trialdata": {"rt": -1, "trial_type": "single-stim", "stimulus": "<p id=\"stim\">7</p>", "internal_node_id": "0.0-35.0-3.0", "time_elapsed": 465553, "key_press": -1, "trial_index": 47}, "uniqueid": "MTK2055:3SBEHTYCWOACKUYDLWZJUREL4BRIY3", "dateTime": 1516663281379}, {"current_trial": 48, "trialdata": {"rt": -1, "trial_type": "single-stim", "stimulus": "<p id=\"stim\">6</p>", "internal_node_id": "0.0-35.0-4.0", "time_elapsed": 466560, "key_press": -1, "trial_index": 48}, "uniqueid": "MTK2055:3SBEHTYCWOACKUYDLWZJUREL4BRIY3", "dateTime": 1516663282386}, {"current_trial": 49, "trialdata": {"rt": -1, "trial_type": "single-stim", "stimulus": "<p id=\"stim\">5</p>", "internal_node_id": "0.0-35.0-5.0", "time_elapsed": 467576, "key_press": -1, "trial_index": 49}, "uniqueid": "MTK2055:3SBEHTYCWOACKUYDLWZJUREL4BRIY3", "dateTime": 1516663283406}, {"current_trial": 50, "trialdata": {"rt": -1, "trial_type": "single-stim", "stimulus": "<p id=\"stim\">4</p>", "internal_node_id": "0.0-35.0-6.0", "time_elapsed": 468582, "key_press": -1, "trial_index": 50}, "uniqueid": "MTK2055:3SBEHTYCWOACKUYDLWZJUREL4BRIY3", "dateTime": 1516663284408}, {"current_trial": 51, "trialdata": {"rt": -1, "trial_type": "single-stim", "stimulus": "<p id=\"stim\">3</p>", "internal_node_id": "0.0-35.0-7.0", "time_elapsed": 469590, "key_press": -1, "trial_index": 51}, "uniqueid": "MTK2055:3SBEHTYCWOACKUYDLWZJUREL4BRIY3", "dateTime": 1516663285416}, {"current_trial": 52, "trialdata": {"rt": -1, "trial_type": "single-stim", "stimulus": "<p id=\"stim\">2</p>", "internal_node_id": "0.0-35.0-8.0", "time_elapsed": 470590, "key_press": -1, "trial_index": 52}, "uniqueid": "MTK2055:3SBEHTYCWOACKUYDLWZJUREL4BRIY3", "dateTime": 1516663286416}, {"current_trial": 53, "trialdata": {"rt": -1, "trial_type": "single-stim", "stimulus": "<p id=\"stim\">1</p>", "internal_node_id": "0.0-35.0-9.0", "time_elapsed": 471594, "key_press": -1, "trial_index": 53}, "uniqueid": "MTK2055:3SBEHTYCWOACKUYDLWZJUREL4BRIY3", "dateTime": 1516663287420}, {"current_trial": 54, "trialdata": {"rt": -1, "trial_type": "single-stim", "stimulus": "<p id=\"stim\">+</p>", "internal_node_id": "0.0-36.0-0.0", "time_elapsed": 473094, "key_press": -1, "type": "FIXATION", "trial_index": 54}, "uniqueid": "MTK2055:3SBEHTYCWOACKUYDLWZJUREL4BRIY3", "dateTime": 1516663288920}, {"current_trial": 55, "trialdata": {"rt": -1, "trial_type": "single-stim", "word": "paper", "stimulus": "<p id=\"stim\">PAPER</p>", "conditions": [18, 1200, "v", 18000], "internal_node_id": "0.0-37.0", "trial": 1, "time_elapsed": 474297, "serialpos": 0, "key_press": -1, "wordID": 1010, "type": "PRES_VIS", "trial_index": 55}, "uniqueid": "MTK2055:3SBEHTYCWOACKUYDLWZJUREL4BRIY3", "dateTime": 1516663290123}, {"current_trial": 56, "trialdata": {"rt": -1, "trial_type": "single-stim", "word": "turnip", "stimulus": "<p id=\"stim\">TURNIP</p>", "conditions": [18, 1200, "v", 18000], "internal_node_id": "0.0-38.0", "trial": 1, "time_elapsed": 476351, "serialpos": 1, "key_press": -1, "wordID": 1520, "type": "PRES_VIS", "trial_index": 56}, "uniqueid": "MTK2055:3SBEHTYCWOACKUYDLWZJUREL4BRIY3", "dateTime": 1516663292177}, {"current_trial": 57, "trialdata": {"rt": -1, "trial_type": "single-stim", "word": "body", "stimulus": "<p id=\"stim\">BODY</p>", "conditions": [18, 1200, "v", 18000], "internal_node_id": "0.0-39.0", "trial": 1, "time_elapsed": 478790, "serialpos": 2, "key_press": -1, "wordID": 144, "type": "PRES_VIS", "trial_index": 57}, "uniqueid": "MTK2055:3SBEHTYCWOACKUYDLWZJUREL4BRIY3", "dateTime": 1516663294616}, {"current_trial": 58, "trialdata": {"rt": -1, "trial_type": "single-stim", "word": "buggy", "stimulus": "<p id=\"stim\">BUGGY</p>", "conditions": [18, 1200, "v", 18000], "internal_node_id": "0.0-40.0", "trial": 1, "time_elapsed": 481157, "serialpos": 3, "key_press": -1, "wordID": 187, "type": "PRES_VIS", "trial_index": 58}, "uniqueid": "MTK2055:3SBEHTYCWOACKUYDLWZJUREL4BRIY3", "dateTime": 1516663296983}, {"current_trial": 59, "trialdata": {"rt": -1, "trial_type": "single-stim", "word": "stone", "stimulus": "<p id=\"stim\">STONE</p>", "conditions": [18, 1200, "v", 18000], "internal_node_id": "0.0-41.0", "trial": 1, "time_elapsed": 483412, "serialpos": 4, "key_press": -1, "wordID": 1384, "type": "PRES_VIS", "trial_index": 59}, "uniqueid": "MTK2055:3SBEHTYCWOACKUYDLWZJUREL4BRIY3", "dateTime": 1516663299238}, {"current_trial": 60, "trialdata": {"rt": -1, "trial_type": "single-stim", "word": "leg", "stimulus": "<p id=\"stim\">LEG</p>", "conditions": [18, 1200, "v", 18000], "internal_node_id": "0.0-42.0", "trial": 1, "time_elapsed": 485663, "serialpos": 5, "key_press": -1, "wordID": 808, "type": "PRES_VIS", "trial_index": 60}, "uniqueid": "MTK2055:3SBEHTYCWOACKUYDLWZJUREL4BRIY3", "dateTime": 1516663301489}, {"current_trial": 61, "trialdata": {"rt": -1, "trial_type": "single-stim", "word": "dime", "stimulus": "<p id=\"stim\">DIME</p>", "conditions": [18, 1200, "v", 18000], "internal_node_id": "0.0-43.0", "trial": 1, "time_elapsed": 487714, "serialpos": 6, "key_press": -1, "wordID": 465, "type": "PRES_VIS", "trial_index": 61}, "uniqueid": "MTK2055:3SBEHTYCWOACKUYDLWZJUREL4BRIY3", "dateTime": 1516663303540}, {"current_trial": 62, "trialdata": {"rt": -1, "trial_type": "single-stim", "word": "viking", "stimulus": "<p id=\"stim\">VIKING</p>", "conditions": [18, 1200, "v", 18000], "internal_node_id": "0.0-44.0", "trial": 1, "time_elapsed": 489833, "serialpos": 7, "key_press": -1, "wordID": 1564, "type": "PRES_VIS", "trial_index": 62}, "uniqueid": "MTK2055:3SBEHTYCWOACKUYDLWZJUREL4BRIY3", "dateTime": 1516663305659}, {"current_trial": 63, "trialdata": {"rt": -1, "trial_type": "single-stim", "word": "author", "stimulus": "<p id=\"stim\">AUTHOR</p>", "conditions": [18, 1200, "v", 18000], "internal_node_id": "0.0-45.0", "trial": 1, "time_elapsed": 492112, "serialpos": 8, "key_press": -1, "wordID": 60, "type": "PRES_VIS", "trial_index": 63}, "uniqueid": "MTK2055:3SBEHTYCWOACKUYDLWZJUREL4BRIY3", "dateTime": 1516663307938}, {"current_trial": 64, "trialdata": {"rt": -1, "trial_type": "single-stim", "word": "taxi", "stimulus": "<p id=\"stim\">TAXI</p>", "conditions": [18, 1200, "v", 18000], "internal_node_id": "0.0-46.0", "trial": 1, "time_elapsed": 494189, "serialpos": 9, "key_press": -1, "wordID": 1437, "type": "PRES_VIS", "trial_index": 64}, "uniqueid": "MTK2055:3SBEHTYCWOACKUYDLWZJUREL4BRIY3", "dateTime": 1516663310015}, {"current_trial": 65, "trialdata": {"rt": -1, "trial_type": "single-stim", "word": "maple", "stimulus": "<p id=\"stim\">MAPLE</p>", "conditions": [18, 1200, "v", 18000], "internal_node_id": "0.0-47.0", "trial": 1, "time_elapsed": 496383, "serialpos": 10, "key_press": -1, "wordID": 865, "type": "PRES_VIS", "trial_index": 65}, "uniqueid": "MTK2055:3SBEHTYCWOACKUYDLWZJUREL4BRIY3", "dateTime": 1516663312209}, {"current_trial": 66, "trialdata": {"rt": -1, "trial_type": "single-stim", "word": "xerox", "stimulus": "<p id=\"stim\">XEROX</p>", "conditions": [18, 1200, "v", 18000], "internal_node_id": "0.0-48.0", "trial": 1, "time_elapsed": 498671, "serialpos": 11, "key_press": -1, "wordID": 1627, "type": "PRES_VIS", "trial_index": 66}, "uniqueid": "MTK2055:3SBEHTYCWOACKUYDLWZJUREL4BRIY3", "dateTime": 1516663314497}, {"current_trial": 67, "trialdata": {"rt": -1, "trial_type": "single-stim", "word": "fleet", "stimulus": "<p id=\"stim\">FLEET</p>", "conditions": [18, 1200, "v", 18000], "internal_node_id": "0.0-49.0", "trial": 1, "time_elapsed": 500847, "serialpos": 12, "key_press": -1, "wordID": 577, "type": "PRES_VIS", "trial_index": 67}, "uniqueid": "MTK2055:3SBEHTYCWOACKUYDLWZJUREL4BRIY3", "dateTime": 1516663316673}, {"current_trial": 68, "trialdata": {"rt": -1, "trial_type": "single-stim", "word": "portrait", "stimulus": "<p id=\"stim\">PORTRAIT</p>", "conditions": [18, 1200, "v", 18000], "internal_node_id": "0.0-50.0", "trial": 1, "time_elapsed": 503192, "serialpos": 13, "key_press": -1, "wordID": 1110, "type": "PRES_VIS", "trial_index": 68}, "uniqueid": "MTK2055:3SBEHTYCWOACKUYDLWZJUREL4BRIY3", "dateTime": 1516663319054}, {"current_trial": 69, "trialdata": {"rt": -1, "trial_type": "single-stim", "word": "lily", "stimulus": "<p id=\"stim\">LILY</p>", "conditions": [18, 1200, "v", 18000], "internal_node_id": "0.0-51.0", "trial": 1, "time_elapsed": 505313, "serialpos": 14, "key_press": -1, "wordID": 820, "type": "PRES_VIS", "trial_index": 69}, "uniqueid": "MTK2055:3SBEHTYCWOACKUYDLWZJUREL4BRIY3", "dateTime": 1516663321139}, {"current_trial": 70, "trialdata": {"rt": -1, "trial_type": "single-stim", "word": "gangster", "stimulus": "<p id=\"stim\">GANGSTER</p>", "conditions": [18, 1200, "v", 18000], "internal_node_id": "0.0-52.0", "trial": 1, "time_elapsed": 507496, "serialpos": 15, "key_press": -1, "wordID": 619, "type": "PRES_VIS", "trial_index": 70}, "uniqueid": "MTK2055:3SBEHTYCWOACKUYDLWZJUREL4BRIY3", "dateTime": 1516663323322}, {"current_trial": 71, "trialdata": {"rt": -1, "trial_type": "single-stim", "word": "plaid", "stimulus": "<p id=\"stim\">PLAID</p>", "conditions": [18, 1200, "v", 18000], "internal_node_id": "0.0-53.0", "trial": 1, "time_elapsed": 509670, "serialpos": 16, "key_press": -1, "wordID": 1079, "type": "PRES_VIS", "trial_index": 71}, "uniqueid": "MTK2055:3SBEHTYCWOACKUYDLWZJUREL4BRIY3", "dateTime": 1516663325496}, {"current_trial": 72, "trialdata": {"rt": -1, "trial_type": "single-stim", "word": "trout", "stimulus": "<p id=\"stim\">TROUT</p>", "conditions": [18, 1200, "v", 18000], "internal_node_id": "0.0-54.0", "trial": 1, "time_elapsed": 511852, "serialpos": 17, "key_press": -1, "wordID": 1510, "type": "PRES_VIS", "trial_index": 72}, "uniqueid": "MTK2055:3SBEHTYCWOACKUYDLWZJUREL4BRIY3", "dateTime": 1516663327678}, {"current_trial": 73, "trialdata": {"rt": -1, "trial_type": "single-stim", "stimulus": "", "internal_node_id": "0.0-55.0-0.0", "time_elapsed": 514072, "key_press": -1, "type": "PRE_RECALL_DELAY", "trial_index": 73}, "uniqueid": "MTK2055:3SBEHTYCWOACKUYDLWZJUREL4BRIY3", "dateTime": 1516663329898}, {"current_trial": 74, "trialdata": {"rt": -1000, "trial_type": "single-audio", "stimulus": "/static/audio/400Hz.wav", "internal_node_id": "0.0-56.0", "time_elapsed": 514578, "key_press": -1, "type": "PRE_RECALL_ALERT", "trial_index": 74}, "uniqueid": "MTK2055:3SBEHTYCWOACKUYDLWZJUREL4BRIY3", "dateTime": 1516663330404}, {"current_trial": 75, "trialdata": {"rt": [2589, 6665, 11145, 15180, 19037, 33346, 37425, 38469, 45011, 45935, 47607], "recwords": ["paper", "trout", "lizard", "viking", "paper", "sheet", "captain", "sea", "boat", "baby", "water"], "key_times": [1771, 1841, 1964, 2169, 2250, 2589, 5406, 5676, 5967, 6031, 6464, 6665, 6974, 7187, 7222, 7663, 7760, 8063, 11145, 13844, 14006, 14253, 14485, 14623, 14711, 15180, 16504, 16607, 16664, 16832, 16912, 19037, 30239, 30324, 30466, 30637, 31111, 31289, 31463, 32645, 32745, 32942, 33202, 33346, 35804, 35928, 36016, 36776, 36928, 37044, 37152, 37425, 37957, 38205, 38289, 38469, 43582, 44459, 44563, 44663, 45011, 45383, 45455, 45551, 45767, 45935, 46799, 46902, 47026, 47170, 47286, 47607], "trial_type": "free-recall", "conditions": [18, 1200, "v", 18000], "internal_node_id": "0.0-57.0-0.0", "key_presses": [80, 65, 80, 69, 82, 13, 84, 82, 79, 85, 84, 13, 76, 73, 90, 65, 82, 68, 13, 86, 73, 75, 73, 78, 71, 13, 80, 65, 80, 69, 82, 13, 83, 74, 69, 69, 8, 8, 8, 72, 69, 69, 84, 13, 67, 65, 80, 84, 65, 73, 78, 13, 83, 69, 65, 13, 66, 79, 65, 84, 13, 66, 65, 66, 89, 13, 87, 65, 84, 69, 82, 13], "trial": 1, "time_elapsed": 574591, "type": "FREE_RECALL", "trial_index": 75}, "uniqueid": "MTK2055:3SBEHTYCWOACKUYDLWZJUREL4BRIY3", "dateTime": 1516663390437}, {"current_trial": 76, "trialdata": {"rt": 3875, "trial_type": "text", "internal_node_id": "0.0-58.0", "time_elapsed": 580490, "key_press": 32, "type": "INSTRUCTIONS", "trial_index": 76}, "uniqueid": "MTK2055:3SBEHTYCWOACKUYDLWZJUREL4BRIY3", "dateTime": 1516663396320}, {"current_trial": 77, "trialdata": {"rt": [2323, 5015, 6345, 9085, 11769], "trial_type": "math-distractor", "key_times": [1955, 2175, 2323, 4463, 4603, 5015, 6105, 6225, 6345, 8571, 8867, 9085, 11521, 11561, 11769], "responses": ["15", "14", "11", "19", "19"], "num2": [4, 4, 7, 8, 4, 3], "num3": [3, 2, 1, 7, 6, 8], "conditions": [24, 1600, "v", 12000], "internal_node_id": "0.0-59.0", "key_presses": [49, 53, 13, 49, 52, 13, 49, 49, 13, 49, 57, 13, 49, 57, 13], "trial": 2, "time_elapsed": 593501, "type": "DISTRACTOR", "trial_index": 77, "num1": [8, 8, 3, 4, 9, 6]}, "uniqueid": "MTK2055:3SBEHTYCWOACKUYDLWZJUREL4BRIY3", "dateTime": 1516663409331}, {"current_trial": 78, "trialdata": {"rt": -1, "trial_type": "single-stim", "stimulus": "<p id=\"stim\">10</p>", "internal_node_id": "0.0-60.0-0.0", "time_elapsed": 596509, "key_press": -1, "trial_index": 78}, "uniqueid": "MTK2055:3SBEHTYCWOACKUYDLWZJUREL4BRIY3", "dateTime": 1516663412335}, {"current_trial": 79, "trialdata": {"rt": -1, "trial_type": "single-stim", "stimulus": "<p id=\"stim\">9</p>", "internal_node_id": "0.0-60.0-1.0", "time_elapsed": 597509, "key_press": -1, "trial_index": 79}, "uniqueid": "MTK2055:3SBEHTYCWOACKUYDLWZJUREL4BRIY3", "dateTime": 1516663413335}, {"current_trial": 80, "trialdata": {"rt": -1, "trial_type": "single-stim", "stimulus": "<p id=\"stim\">8</p>", "internal_node_id": "0.0-60.0-2.0", "time_elapsed": 598509, "key_press": -1, "trial_index": 80}, "uniqueid": "MTK2055:3SBEHTYCWOACKUYDLWZJUREL4BRIY3", "dateTime": 1516663414339}, {"current_trial": 81, "trialdata": {"rt": -1, "trial_type": "single-stim", "stimulus": "<p id=\"stim\">7</p>", "internal_node_id": "0.0-60.0-3.0", "time_elapsed": 599517, "key_press": -1, "trial_index": 81}, "uniqueid": "MTK2055:3SBEHTYCWOACKUYDLWZJUREL4BRIY3", "dateTime": 1516663415343}, {"current_trial": 82, "trialdata": {"rt": -1, "trial_type": "single-stim", "stimulus": "<p id=\"stim\">6</p>", "internal_node_id": "0.0-60.0-4.0", "time_elapsed": 600518, "key_press": -1, "trial_index": 82}, "uniqueid": "MTK2055:3SBEHTYCWOACKUYDLWZJUREL4BRIY3", "dateTime": 1516663416344}, {"current_trial": 83, "trialdata": {"rt": -1, "trial_type": "single-stim", "stimulus": "<p id=\"stim\">5</p>", "internal_node_id": "0.0-60.0-5.0", "time_elapsed": 601519, "key_press": -1, "trial_index": 83}, "uniqueid": "MTK2055:3SBEHTYCWOACKUYDLWZJUREL4BRIY3", "dateTime": 1516663417345}, {"current_trial": 84, "trialdata": {"rt": -1, "trial_type": "single-stim", "stimulus": "<p id=\"stim\">4</p>", "internal_node_id": "0.0-60.0-6.0", "time_elapsed": 602523, "key_press": -1, "trial_index": 84}, "uniqueid": "MTK2055:3SBEHTYCWOACKUYDLWZJUREL4BRIY3", "dateTime": 1516663418349}, {"current_trial": 85, "trialdata": {"rt": -1, "trial_type": "single-stim", "stimulus": "<p id=\"stim\">3</p>", "internal_node_id": "0.0-60.0-7.0", "time_elapsed": 603531, "key_press": -1, "trial_index": 85}, "uniqueid": "MTK2055:3SBEHTYCWOACKUYDLWZJUREL4BRIY3", "dateTime": 1516663419357}, {"current_trial": 86, "trialdata": {"rt": -1, "trial_type": "single-stim", "stimulus": "<p id=\"stim\">2</p>", "internal_node_id": "0.0-60.0-8.0", "time_elapsed": 604539, "key_press": -1, "trial_index": 86}, "uniqueid": "MTK2055:3SBEHTYCWOACKUYDLWZJUREL4BRIY3", "dateTime": 1516663420365}, {"current_trial": 87, "trialdata": {"rt": -1, "trial_type": "single-stim", "stimulus": "<p id=\"stim\">1</p>", "internal_node_id": "0.0-60.0-9.0", "time_elapsed": 605556, "key_press": -1, "trial_index": 87}, "uniqueid": "MTK2055:3SBEHTYCWOACKUYDLWZJUREL4BRIY3", "dateTime": 1516663421382}, {"current_trial": 88, "trialdata": {"rt": -1, "trial_type": "single-stim", "stimulus": "<p id=\"stim\">+</p>", "internal_node_id": "0.0-61.0-0.0", "time_elapsed": 607057, "key_press": -1, "type": "FIXATION", "trial_index": 88}, "uniqueid": "MTK2055:3SBEHTYCWOACKUYDLWZJUREL4BRIY3", "dateTime": 1516663422883}, {"current_trial": 89, "trialdata": {"rt": -1, "trial_type": "single-stim", "word": "bucket", "stimulus": "<p id=\"stim\">BUCKET</p>", "conditions": [24, 1600, "v", 12000], "internal_node_id": "0.0-62.0", "trial": 2, "time_elapsed": 608664, "serialpos": 0, "key_press": -1, "wordID": 183, "type": "PRES_VIS", "trial_index": 89}, "uniqueid": "MTK2055:3SBEHTYCWOACKUYDLWZJUREL4BRIY3", "dateTime": 1516663424490}, {"current_trial": 90, "trialdata": {"rt": -1, "trial_type": "single-stim", "word": "suitcase", "stimulus": "<p id=\"stim\">SUITCASE</p>", "conditions": [24, 1600, "v", 12000], "internal_node_id": "0.0-63.0", "trial": 2, "time_elapsed": 611155, "serialpos": 1, "key_press": -1, "wordID": 1402, "type": "PRES_VIS", "trial_index": 90}, "uniqueid": "MTK2055:3SBEHTYCWOACKUYDLWZJUREL4BRIY3", "dateTime": 1516663426981}, {"current_trial": 91, "trialdata": {"rt": -1, "trial_type": "single-stim", "word": "elbow", "stimulus": "<p id=\"stim\">ELBOW</p>", "conditions": [24, 1600, "v", 12000], "internal_node_id": "0.0-64.0", "trial": 2, "time_elapsed": 613563, "serialpos": 2, "key_press": -1, "wordID": 519, "type": "PRES_VIS", "trial_index": 91}, "uniqueid": "MTK2055:3SBEHTYCWOACKUYDLWZJUREL4BRIY3", "dateTime": 1516663429393}, {"current_trial": 92, "trialdata": {"rt": -1, "trial_type": "single-stim", "word": "wardrobe", "stimulus": "<p id=\"stim\">WARDROBE</p>", "conditions": [24, 1600, "v", 12000], "internal_node_id": "0.0-65.0", "trial": 2, "time_elapsed": 616190, "serialpos": 3, "key_press": -1, "wordID": 1586, "type": "PRES_VIS", "trial_index": 92}, "uniqueid": "MTK2055:3SBEHTYCWOACKUYDLWZJUREL4BRIY3", "dateTime": 1516663432016}, {"current_trial": 93, "trialdata": {"rt": -1, "trial_type": "single-stim", "word": "stove", "stimulus": "<p id=\"stim\">STOVE</p>", "conditions": [24, 1600, "v", 12000], "internal_node_id": "0.0-66.0", "trial": 2, "time_elapsed": 618931, "serialpos": 4, "key_press": -1, "wordID": 1387, "type": "PRES_VIS", "trial_index": 93}, "uniqueid": "MTK2055:3SBEHTYCWOACKUYDLWZJUREL4BRIY3", "dateTime": 1516663434761}, {"current_trial": 94, "trialdata": {"rt": -1, "trial_type": "single-stim", "word": "soda", "stimulus": "<p id=\"stim\">SODA</p>", "conditions": [24, 1600, "v", 12000], "internal_node_id": "0.0-67.0", "trial": 2, "time_elapsed": 621609, "serialpos": 5, "key_press": -1, "wordID": 1340, "type": "PRES_VIS", "trial_index": 94}, "uniqueid": "MTK2055:3SBEHTYCWOACKUYDLWZJUREL4BRIY3", "dateTime": 1516663437435}, {"current_trial": 95, "trialdata": {"rt": -1, "trial_type": "single-stim", "word": "barrel", "stimulus": "<p id=\"stim\">BARREL</p>", "conditions": [24, 1600, "v", 12000], "internal_node_id": "0.0-68.0", "trial": 2, "time_elapsed": 624368, "serialpos": 6, "key_press": -1, "wordID": 90, "type": "PRES_VIS", "trial_index": 95}, "uniqueid": "MTK2055:3SBEHTYCWOACKUYDLWZJUREL4BRIY3", "dateTime": 1516663440194}, {"current_trial": 96, "trialdata": {"rt": -1, "trial_type": "single-stim", "word": "market", "stimulus": "<p id=\"stim\">MARKET</p>", "conditions": [24, 1600, "v", 12000], "internal_node_id": "0.0-69.0", "trial": 2, "time_elapsed": 626881, "serialpos": 7, "key_press": -1, "wordID": 870, "type": "PRES_VIS", "trial_index": 96}, "uniqueid": "MTK2055:3SBEHTYCWOACKUYDLWZJUREL4BRIY3", "dateTime": 1516663442707}, {"current_trial": 97, "trialdata": {"rt": -1, "trial_type": "single-stim", "word": "muffin", "stimulus": "<p id=\"stim\">MUFFIN</p>", "conditions": [24, 1600, "v", 12000], "internal_node_id": "0.0-70.0", "trial": 2, "time_elapsed": 629557, "serialpos": 8, "key_press": -1, "wordID": 928, "type": "PRES_VIS", "trial_index": 97}, "uniqueid": "MTK2055:3SBEHTYCWOACKUYDLWZJUREL4BRIY3", "dateTime": 1516663445383}, {"current_trial": 98, "trialdata": {"rt": -1, "trial_type": "single-stim", "word": "stomach", "stimulus": "<p id=\"stim\">STOMACH</p>", "conditions": [24, 1600, "v", 12000], "internal_node_id": "0.0-71.0", "trial": 2, "time_elapsed": 632255, "serialpos": 9, "key_press": -1, "wordID": 1383, "type": "PRES_VIS", "trial_index": 98}, "uniqueid": "MTK2055:3SBEHTYCWOACKUYDLWZJUREL4BRIY3", "dateTime": 1516663448081}, {"current_trial": 99, "trialdata": {"rt": -1, "trial_type": "single-stim", "word": "chest", "stimulus": "<p id=\"stim\">CHEST</p>", "conditions": [24, 1600, "v", 12000], "internal_node_id": "0.0-72.0", "trial": 2, "time_elapsed": 634823, "serialpos": 10, "key_press": -1, "wordID": 294, "type": "PRES_VIS", "trial_index": 99}, "uniqueid": "MTK2055:3SBEHTYCWOACKUYDLWZJUREL4BRIY3", "dateTime": 1516663450649}, {"current_trial": 100, "trialdata": {"rt": -1, "trial_type": "single-stim", "word": "fireplace", "stimulus": "<p id=\"stim\">FIREPLACE</p>", "conditions": [24, 1600, "v", 12000], "internal_node_id": "0.0-73.0", "trial": 2, "time_elapsed": 637482, "serialpos": 11, "key_press": -1, "wordID": 569, "type": "PRES_VIS", "trial_index": 100}, "uniqueid": "MTK2055:3SBEHTYCWOACKUYDLWZJUREL4BRIY3", "dateTime": 1516663453308}, {"current_trial": 101, "trialdata": {"rt": -1, "trial_type": "single-stim", "word": "scallop", "stimulus": "<p id=\"stim\">SCALLOP</p>", "conditions": [24, 1600, "v", 12000], "internal_node_id": "0.0-74.0", "trial": 2, "time_elapsed": 639917, "serialpos": 12, "key_press": -1, "wordID": 1241, "type": "PRES_VIS", "trial_index": 101}, "uniqueid": "MTK2055:3SBEHTYCWOACKUYDLWZJUREL4BRIY3", "dateTime": 1516663455743}, {"current_trial": 102, "trialdata": {"rt": -1, "trial_type": "single-stim", "word": "grape", "stimulus": "<p id=\"stim\">GRAPE</p>", "conditions": [24, 1600, "v", 12000], "internal_node_id": "0.0-75.0", "trial": 2, "time_elapsed": 642669, "serialpos": 13, "key_press": -1, "wordID": 653, "type": "PRES_VIS", "trial_index": 102}, "uniqueid": "MTK2055:3SBEHTYCWOACKUYDLWZJUREL4BRIY3", "dateTime": 1516663458495}, {"current_trial": 103, "trialdata": {"rt": -1, "trial_type": "single-stim", "word": "peach", "stimulus": "<p id=\"stim\">PEACH</p>", "conditions": [24, 1600, "v", 12000], "internal_node_id": "0.0-76.0", "trial": 2, "time_elapsed": 645287, "serialpos": 14, "key_press": -1, "wordID": 1030, "type": "PRES_VIS", "trial_index": 103}, "uniqueid": "MTK2055:3SBEHTYCWOACKUYDLWZJUREL4BRIY3", "dateTime": 1516663461113}, {"current_trial": 104, "trialdata": {"rt": -1, "trial_type": "single-stim", "word": "item", "stimulus": "<p id=\"stim\">ITEM</p>", "conditions": [24, 1600, "v", 12000], "internal_node_id": "0.0-77.0", "trial": 2, "time_elapsed": 647757, "serialpos": 15, "key_press": -1, "wordID": 745, "type": "PRES_VIS", "trial_index": 104}, "uniqueid": "MTK2055:3SBEHTYCWOACKUYDLWZJUREL4BRIY3", "dateTime": 1516663463583}, {"current_trial": 105, "trialdata": {"rt": -1, "trial_type": "single-stim", "word": "seagull", "stimulus": "<p id=\"stim\">SEAGULL</p>", "conditions": [24, 1600, "v", 12000], "internal_node_id": "0.0-78.0", "trial": 2, "time_elapsed": 650510, "serialpos": 16, "key_press": -1, "wordID": 1260, "type": "PRES_VIS", "trial_index": 105}, "uniqueid": "MTK2055:3SBEHTYCWOACKUYDLWZJUREL4BRIY3", "dateTime": 1516663466336}, {"current_trial": 106, "trialdata": {"rt": -1, "trial_type": "single-stim", "word": "skillet", "stimulus": "<p id=\"stim\">SKILLET</p>", "conditions": [24, 1600, "v", 12000], "internal_node_id": "0.0-79.0", "trial": 2, "time_elapsed": 652933, "serialpos": 17, "key_press": -1, "wordID": 1316, "type": "PRES_VIS", "trial_index": 106}, "uniqueid": "MTK2055:3SBEHTYCWOACKUYDLWZJUREL4BRIY3", "dateTime": 1516663468759}, {"current_trial": 107, "trialdata": {"rt": -1, "trial_type": "single-stim", "word": "chapel", "stimulus": "<p id=\"stim\">CHAPEL</p>", "conditions": [24, 1600, "v", 12000], "internal_node_id": "0.0-80.0", "trial": 2, "time_elapsed": 655379, "serialpos": 18, "key_press": -1, "wordID": 279, "type": "PRES_VIS", "trial_index": 107}, "uniqueid": "MTK2055:3SBEHTYCWOACKUYDLWZJUREL4BRIY3", "dateTime": 1516663471205}, {"current_trial": 108, "trialdata": {"rt": -1, "trial_type": "single-stim", "word": "cashier", "stimulus": "<p id=\"stim\">CASHIER</p>", "conditions": [24, 1600, "v", 12000], "internal_node_id": "0.0-81.0", "trial": 2, "time_elapsed": 657953, "serialpos": 19, "key_press": -1, "wordID": 253, "type": "PRES_VIS", "trial_index": 108}, "uniqueid": "MTK2055:3SBEHTYCWOACKUYDLWZJUREL4BRIY3", "dateTime": 1516663473779}, {"current_trial": 109, "trialdata": {"rt": -1, "trial_type": "single-stim", "word": "rocket", "stimulus": "<p id=\"stim\">ROCKET</p>", "conditions": [24, 1600, "v", 12000], "internal_node_id": "0.0-82.0", "trial": 2, "time_elapsed": 660611, "serialpos": 20, "key_press": -1, "wordID": 1201, "type": "PRES_VIS", "trial_index": 109}, "uniqueid": "MTK2055:3SBEHTYCWOACKUYDLWZJUREL4BRIY3", "dateTime": 1516663476441}, {"current_trial": 110, "trialdata": {"rt": -1, "trial_type": "single-stim", "word": "pistol", "stimulus": "<p id=\"stim\">PISTOL</p>", "conditions": [24, 1600, "v", 12000], "internal_node_id": "0.0-83.0", "trial": 2, "time_elapsed": 663227, "serialpos": 21, "key_press": -1, "wordID": 1074, "type": "PRES_VIS", "trial_index": 110}, "uniqueid": "MTK2055:3SBEHTYCWOACKUYDLWZJUREL4BRIY3", "dateTime": 1516663479053}, {"current_trial": 111, "trialdata": {"rt": -1, "trial_type": "single-stim", "word": "notebook", "stimulus": "<p id=\"stim\">NOTEBOOK</p>", "conditions": [24, 1600, "v", 12000], "internal_node_id": "0.0-84.0", "trial": 2, "time_elapsed": 665860, "serialpos": 22, "key_press": -1, "wordID": 958, "type": "PRES_VIS", "trial_index": 111}, "uniqueid": "MTK2055:3SBEHTYCWOACKUYDLWZJUREL4BRIY3", "dateTime": 1516663481686}, {"current_trial": 112, "trialdata": {"rt": -1, "trial_type": "single-stim", "word": "waitress", "stimulus": "<p id=\"stim\">WAITRESS</p>", "conditions": [24, 1600, "v", 12000], "internal_node_id": "0.0-85.0", "trial": 2, "time_elapsed": 668360, "serialpos": 23, "key_press": -1, "wordID": 1580, "type": "PRES_VIS", "trial_index": 112}, "uniqueid": "MTK2055:3SBEHTYCWOACKUYDLWZJUREL4BRIY3", "dateTime": 1516663484186}, {"current_trial": 113, "trialdata": {"rt": -1, "trial_type": "single-stim", "stimulus": "", "internal_node_id": "0.0-86.0-0.0", "time_elapsed": 670586, "key_press": -1, "type": "PRE_RECALL_DELAY", "trial_index": 113}, "uniqueid": "MTK2055:3SBEHTYCWOACKUYDLWZJUREL4BRIY3", "dateTime": 1516663486412}, {"current_trial": 114, "trialdata": {"rt": -1000, "trial_type": "single-audio", "stimulus": "/static/audio/400Hz.wav", "internal_node_id": "0.0-87.0", "time_elapsed": 671091, "key_press": -1, "type": "PRE_RECALL_ALERT", "trial_index": 114}, "uniqueid": "MTK2055:3SBEHTYCWOACKUYDLWZJUREL4BRIY3", "dateTime": 1516663486917}, {"current_trial": 115, "trialdata": {"rt": [2765, 5113, 6720, 9473, 11606, 18517, 20120, 26749, 27908, 32808, 35625, 42378, 44502, 48512, 52328], "recwords": ["skillet", "cashier", "wallet", "stomach", "chest", "mountain", "tournamen", "speech", "words", "back", "thighs", "hip", "feet", "", "moviie"], "key_times": [1456, 1553, 1734, 1871, 2010, 2116, 2250, 2765, 3203, 3298, 3469, 4613, 4747, 4864, 4945, 5113, 5539, 5619, 5781, 5947, 6036, 6116, 6720, 7821, 8034, 8176, 8288, 8382, 8592, 8671, 9473, 9687, 9917, 10240, 10849, 10939, 11019, 11162, 11606, 15359, 15878, 15937, 16069, 16516, 16682, 16849, 17031, 17451, 17628, 17713, 17937, 18020, 18130, 18181, 18254, 18517, 18865, 19021, 19107, 19208, 19428, 19534, 19639, 19755, 19822, 20120, 25859, 25939, 26061, 26196, 26414, 26474, 26749, 27261, 27338, 27502, 27719, 27800, 27908, 32192, 32286, 32485, 32556, 32808, 33956, 34536, 34649, 34800, 34912, 34996, 35069, 35365, 35625, 40276, 40727, 40819, 41399, 41567, 41948, 42114, 42378, 43806, 43962, 44134, 44394, 44502, 48512, 48684, 48774, 48850, 48970, 49386, 49558, 49726, 49878, 50315, 50487, 50559, 50739, 50815, 51063, 51227, 51383, 51523, 51796, 51880, 51992, 52012, 52104, 52328], "trial_type": "free-recall", "conditions": [24, 1600, "v", 12000], "internal_node_id": "0.0-88.0-0.0", "key_presses": [83, 75, 73, 76, 76, 69, 84, 13, 67, 65, 83, 72, 73, 69, 82, 13, 87, 65, 76, 76, 69, 84, 13, 83, 84, 79, 77, 65, 67, 72, 13, 67, 69, 8, 72, 69, 83, 84, 13, 84, 80, 85, 82, 8, 8, 8, 8, 77, 79, 85, 78, 84, 65, 73, 78, 13, 84, 79, 85, 82, 78, 65, 77, 69, 78, 13, 83, 80, 69, 69, 67, 72, 13, 87, 79, 82, 68, 83, 13, 66, 65, 67, 75, 13, 76, 8, 84, 72, 73, 71, 72, 83, 13, 72, 79, 80, 8, 8, 73, 80, 13, 70, 69, 69, 84, 13, 188, 80, 86, 79, 69, 8, 8, 8, 8, 77, 86, 79, 73, 69, 8, 8, 8, 8, 79, 86, 73, 73, 69, 13], "trial": 2, "time_elapsed": 731102, "type": "FREE_RECALL", "trial_index": 115}, "uniqueid": "MTK2055:3SBEHTYCWOACKUYDLWZJUREL4BRIY3", "dateTime": 1516663546944}, {"current_trial": 116, "trialdata": {"rt": 4879, "trial_type": "text", "internal_node_id": "0.0-89.0", "time_elapsed": 737998, "key_press": 18, "type": "INSTRUCTIONS", "trial_index": 116}, "uniqueid": "MTK2055:3SBEHTYCWOACKUYDLWZJUREL4BRIY3", "dateTime": 1516663553824}, {"current_trial": 117, "trialdata": {"rt": [2942, 4531, 6948, 10217, 13357, 15733, 18178, 19477, 22091], "trial_type": "math-distractor", "key_times": [2681, 2823, 2942, 4296, 4431, 4531, 6321, 6846, 6948, 9120, 9451, 10217, 13245, 13357, 15311, 15589, 15733, 17746, 17786, 18178, 19265, 19377, 19477, 21399, 21803, 22091, 23565, 23961], "responses": ["11", "11", "16", "17", "9", "16", "18", "12", "16"], "num2": [1, 1, 6, 5, 4, 3, 7, 1, 4, 6], "num3": [2, 6, 2, 5, 4, 9, 3, 2, 7, 5], "conditions": [24, 800, "v", 24000], "internal_node_id": "0.0-90.0", "key_presses": [49, 49, 13, 49, 49, 13, 49, 54, 13, 49, 55, 13, 57, 13, 49, 54, 13, 49, 56, 13, 49, 50, 13, 49, 54, 13, 49, 51], "trial": 3, "time_elapsed": 764015, "type": "DISTRACTOR", "trial_index": 117, "num1": [8, 4, 8, 8, 1, 4, 8, 9, 5, 2]}, "uniqueid": "MTK2055:3SBEHTYCWOACKUYDLWZJUREL4BRIY3", "dateTime": 1516663579845}, {"current_trial": 118, "trialdata": {"rt": -1, "trial_type": "single-stim", "stimulus": "<p id=\"stim\">10</p>", "internal_node_id": "0.0-91.0-0.0", "time_elapsed": 767025, "key_press": -1, "trial_index": 118}, "uniqueid": "MTK2055:3SBEHTYCWOACKUYDLWZJUREL4BRIY3", "dateTime": 1516663582851}, {"current_trial": 119, "trialdata": {"rt": -1, "trial_type": "single-stim", "stimulus": "<p id=\"stim\">9</p>", "internal_node_id": "0.0-91.0-1.0", "time_elapsed": 768031, "key_press": -1, "trial_index": 119}, "uniqueid": "MTK2055:3SBEHTYCWOACKUYDLWZJUREL4BRIY3", "dateTime": 1516663583857}, {"current_trial": 120, "trialdata": {"rt": 308, "trial_type": "single-stim", "stimulus": "<p id=\"stim\">8</p>", "internal_node_id": "0.0-91.0-2.0", "time_elapsed": 769039, "key_press": 174, "trial_index": 120}, "uniqueid": "MTK2055:3SBEHTYCWOACKUYDLWZJUREL4BRIY3", "dateTime": 1516663584865}, {"current_trial": 121, "trialdata": {"rt": 108, "trial_type": "single-stim", "stimulus": "<p id=\"stim\">7</p>", "internal_node_id": "0.0-91.0-3.0", "time_elapsed": 770045, "key_press": 174, "trial_index": 121}, "uniqueid": "MTK2055:3SBEHTYCWOACKUYDLWZJUREL4BRIY3", "dateTime": 1516663585871}, {"current_trial": 122, "trialdata": {"rt": -1, "trial_type": "single-stim", "stimulus": "<p id=\"stim\">6</p>", "internal_node_id": "0.0-91.0-4.0", "time_elapsed": 771048, "key_press": -1, "trial_index": 122}, "uniqueid": "MTK2055:3SBEHTYCWOACKUYDLWZJUREL4BRIY3", "dateTime": 1516663586874}, {"current_trial": 123, "trialdata": {"rt": -1, "trial_type": "single-stim", "stimulus": "<p id=\"stim\">5</p>", "internal_node_id": "0.0-91.0-5.0", "time_elapsed": 772050, "key_press": -1, "trial_index": 123}, "uniqueid": "MTK2055:3SBEHTYCWOACKUYDLWZJUREL4BRIY3", "dateTime": 1516663587876}, {"current_trial": 124, "trialdata": {"rt": -1, "trial_type": "single-stim", "stimulus": "<p id=\"stim\">4</p>", "internal_node_id": "0.0-91.0-6.0", "time_elapsed": 773055, "key_press": -1, "trial_index": 124}, "uniqueid": "MTK2055:3SBEHTYCWOACKUYDLWZJUREL4BRIY3", "dateTime": 1516663588881}, {"current_trial": 125, "trialdata": {"rt": -1, "trial_type": "single-stim", "stimulus": "<p id=\"stim\">3</p>", "internal_node_id": "0.0-91.0-7.0", "time_elapsed": 774058, "key_press": -1, "trial_index": 125}, "uniqueid": "MTK2055:3SBEHTYCWOACKUYDLWZJUREL4BRIY3", "dateTime": 1516663589884}, {"current_trial": 126, "trialdata": {"rt": -1, "trial_type": "single-stim", "stimulus": "<p id=\"stim\">2</p>", "internal_node_id": "0.0-91.0-8.0", "time_elapsed": 775065, "key_press": -1, "trial_index": 126}, "uniqueid": "MTK2055:3SBEHTYCWOACKUYDLWZJUREL4BRIY3", "dateTime": 1516663590891}, {"current_trial": 127, "trialdata": {"rt": -1, "trial_type": "single-stim", "stimulus": "<p id=\"stim\">1</p>", "internal_node_id": "0.0-91.0-9.0", "time_elapsed": 776067, "key_press": -1, "trial_index": 127}, "uniqueid": "MTK2055:3SBEHTYCWOACKUYDLWZJUREL4BRIY3", "dateTime": 1516663591893}, {"current_trial": 128, "trialdata": {"rt": -1, "trial_type": "single-stim", "stimulus": "<p id=\"stim\">+</p>", "internal_node_id": "0.0-92.0-0.0", "time_elapsed": 777572, "key_press": -1, "type": "FIXATION", "trial_index": 128}, "uniqueid": "MTK2055:3SBEHTYCWOACKUYDLWZJUREL4BRIY3", "dateTime": 1516663593398}, {"current_trial": 129, "trialdata": {"rt": -1, "trial_type": "single-stim", "word": "wasp", "stimulus": "<p id=\"stim\">WASP</p>", "conditions": [24, 800, "v", 24000], "internal_node_id": "0.0-93.0", "trial": 3, "time_elapsed": 778372, "serialpos": 0, "key_press": -1, "wordID": 1592, "type": "PRES_VIS", "trial_index": 129}, "uniqueid": "MTK2055:3SBEHTYCWOACKUYDLWZJUREL4BRIY3", "dateTime": 1516663594198}, {"current_trial": 130, "trialdata": {"rt": -1, "trial_type": "single-stim", "word": "basement", "stimulus": "<p id=\"stim\">BASEMENT</p>", "conditions": [24, 800, "v", 24000], "internal_node_id": "0.0-94.0", "trial": 3, "time_elapsed": 780093, "serialpos": 1, "key_press": -1, "wordID": 93, "type": "PRES_VIS", "trial_index": 130}, "uniqueid": "MTK2055:3SBEHTYCWOACKUYDLWZJUREL4BRIY3", "dateTime": 1516663595919}, {"current_trial": 131, "trialdata": {"rt": 392, "trial_type": "single-stim", "word": "slope", "stimulus": "<p id=\"stim\">SLOPE</p>", "conditions": [24, 800, "v", 24000], "internal_node_id": "0.0-95.0", "trial": 3, "time_elapsed": 782085, "serialpos": 2, "key_press": 9, "wordID": 1327, "type": "PRES_VIS", "trial_index": 131}, "uniqueid": "MTK2055:3SBEHTYCWOACKUYDLWZJUREL4BRIY3", "dateTime": 1516663597911}, {"current_trial": 132, "trialdata": {"rt": -1, "trial_type": "single-stim", "word": "orchid", "stimulus": "<p id=\"stim\">ORCHID</p>", "conditions": [24, 800, "v", 24000], "internal_node_id": "0.0-96.0", "trial": 3, "time_elapsed": 783713, "serialpos": 3, "key_press": -1, "wordID": 981, "type": "PRES_VIS", "trial_index": 132}, "uniqueid": "MTK2055:3SBEHTYCWOACKUYDLWZJUREL4BRIY3", "dateTime": 1516663599539}, {"current_trial": 133, "trialdata": {"rt": -1, "trial_type": "single-stim", "word": "pasta", "stimulus": "<p id=\"stim\">PASTA</p>", "conditions": [24, 800, "v", 24000], "internal_node_id": "0.0-97.0", "trial": 3, "time_elapsed": 785474, "serialpos": 4, "key_press": -1, "wordID": 1020, "type": "PRES_VIS", "trial_index": 133}, "uniqueid": "MTK2055:3SBEHTYCWOACKUYDLWZJUREL4BRIY3", "dateTime": 1516663601300}, {"current_trial": 134, "trialdata": {"rt": -1, "trial_type": "single-stim", "word": "queen", "stimulus": "<p id=\"stim\">QUEEN</p>", "conditions": [24, 800, "v", 24000], "internal_node_id": "0.0-98.0", "trial": 3, "time_elapsed": 787421, "serialpos": 5, "key_press": -1, "wordID": 1148, "type": "PRES_VIS", "trial_index": 134}, "uniqueid": "MTK2055:3SBEHTYCWOACKUYDLWZJUREL4BRIY3", "dateTime": 1516663603247}, {"current_trial": 135, "trialdata": {"rt": -1, "trial_type": "single-stim", "word": "princess", "stimulus": "<p id=\"stim\">PRINCESS</p>", "conditions": [24, 800, "v", 24000], "internal_node_id": "0.0-99.0", "trial": 3, "time_elapsed": 789273, "serialpos": 6, "key_press": -1, "wordID": 1124, "type": "PRES_VIS", "trial_index": 135}, "uniqueid": "MTK2055:3SBEHTYCWOACKUYDLWZJUREL4BRIY3", "dateTime": 1516663605099}, {"current_trial": 136, "trialdata": {"rt": -1, "trial_type": "single-stim", "word": "mister", "stimulus": "<p id=\"stim\">MISTER</p>", "conditions": [24, 800, "v", 24000], "internal_node_id": "0.0-100.0", "trial": 3, "time_elapsed": 791049, "serialpos": 7, "key_press": -1, "wordID": 900, "type": "PRES_VIS", "trial_index": 136}, "uniqueid": "MTK2055:3SBEHTYCWOACKUYDLWZJUREL4BRIY3", "dateTime": 1516663606875}, {"current_trial": 137, "trialdata": {"rt": -1, "trial_type": "single-stim", "word": "parsley", "stimulus": "<p id=\"stim\">PARSLEY</p>", "conditions": [24, 800, "v", 24000], "internal_node_id": "0.0-101.0", "trial": 3, "time_elapsed": 792672, "serialpos": 8, "key_press": -1, "wordID": 1015, "type": "PRES_VIS", "trial_index": 137}, "uniqueid": "MTK2055:3SBEHTYCWOACKUYDLWZJUREL4BRIY3", "dateTime": 1516663608498}, {"current_trial": 138, "trialdata": {"rt": -1, "trial_type": "single-stim", "word": "bunny", "stimulus": "<p id=\"stim\">BUNNY</p>", "conditions": [24, 800, "v", 24000], "internal_node_id": "0.0-102.0", "trial": 3, "time_elapsed": 794439, "serialpos": 9, "key_press": -1, "wordID": 197, "type": "PRES_VIS", "trial_index": 138}, "uniqueid": "MTK2055:3SBEHTYCWOACKUYDLWZJUREL4BRIY3", "dateTime": 1516663610265}, {"current_trial": 139, "trialdata": {"rt": -1, "trial_type": "single-stim", "word": "spider", "stimulus": "<p id=\"stim\">SPIDER</p>", "conditions": [24, 800, "v", 24000], "internal_node_id": "0.0-103.0", "trial": 3, "time_elapsed": 796058, "serialpos": 10, "key_press": -1, "wordID": 1350, "type": "PRES_VIS", "trial_index": 139}, "uniqueid": "MTK2055:3SBEHTYCWOACKUYDLWZJUREL4BRIY3", "dateTime": 1516663611884}, {"current_trial": 140, "trialdata": {"rt": -1, "trial_type": "single-stim", "word": "perch", "stimulus": "<p id=\"stim\">PERCH</p>", "conditions": [24, 800, "v", 24000], "internal_node_id": "0.0-104.0", "trial": 3, "time_elapsed": 797958, "serialpos": 11, "key_press": -1, "wordID": 1047, "type": "PRES_VIS", "trial_index": 140}, "uniqueid": "MTK2055:3SBEHTYCWOACKUYDLWZJUREL4BRIY3", "dateTime": 1516663613789}, {"current_trial": 141, "trialdata": {"rt": -1, "trial_type": "single-stim", "word": "pocket", "stimulus": "<p id=\"stim\">POCKET</p>", "conditions": [24, 800, "v", 24000], "internal_node_id": "0.0-105.0", "trial": 3, "time_elapsed": 799760, "serialpos": 12, "key_press": -1, "wordID": 1092, "type": "PRES_VIS", "trial_index": 141}, "uniqueid": "MTK2055:3SBEHTYCWOACKUYDLWZJUREL4BRIY3", "dateTime": 1516663615586}, {"current_trial": 142, "trialdata": {"rt": -1, "trial_type": "single-stim", "word": "ox", "stimulus": "<p id=\"stim\">OX</p>", "conditions": [24, 800, "v", 24000], "internal_node_id": "0.0-106.0", "trial": 3, "time_elapsed": 801752, "serialpos": 13, "key_press": -1, "wordID": 993, "type": "PRES_VIS", "trial_index": 142}, "uniqueid": "MTK2055:3SBEHTYCWOACKUYDLWZJUREL4BRIY3", "dateTime": 1516663617578}, {"current_trial": 143, "trialdata": {"rt": -1, "trial_type": "single-stim", "word": "bank", "stimulus": "<p id=\"stim\">BANK</p>", "conditions": [24, 800, "v", 24000], "internal_node_id": "0.0-107.0", "trial": 3, "time_elapsed": 803704, "serialpos": 14, "key_press": -1, "wordID": 82, "type": "PRES_VIS", "trial_index": 143}, "uniqueid": "MTK2055:3SBEHTYCWOACKUYDLWZJUREL4BRIY3", "dateTime": 1516663619530}, {"current_trial": 144, "trialdata": {"rt": -1, "trial_type": "single-stim", "word": "banker", "stimulus": "<p id=\"stim\">BANKER</p>", "conditions": [24, 800, "v", 24000], "internal_node_id": "0.0-108.0", "trial": 3, "time_elapsed": 805490, "serialpos": 15, "key_press": -1, "wordID": 83, "type": "PRES_VIS", "trial_index": 144}, "uniqueid": "MTK2055:3SBEHTYCWOACKUYDLWZJUREL4BRIY3", "dateTime": 1516663621316}, {"current_trial": 145, "trialdata": {"rt": -1, "trial_type": "single-stim", "word": "briefcase", "stimulus": "<p id=\"stim\">BRIEFCASE</p>", "conditions": [24, 800, "v", 24000], "internal_node_id": "0.0-109.0", "trial": 3, "time_elapsed": 807212, "serialpos": 16, "key_press": -1, "wordID": 174, "type": "PRES_VIS", "trial_index": 145}, "uniqueid": "MTK2055:3SBEHTYCWOACKUYDLWZJUREL4BRIY3", "dateTime": 1516663623038}, {"current_trial": 146, "trialdata": {"rt": -1, "trial_type": "single-stim", "word": "sunrise", "stimulus": "<p id=\"stim\">SUNRISE</p>", "conditions": [24, 800, "v", 24000], "internal_node_id": "0.0-110.0", "trial": 3, "time_elapsed": 808881, "serialpos": 17, "key_press": -1, "wordID": 1406, "type": "PRES_VIS", "trial_index": 146}, "uniqueid": "MTK2055:3SBEHTYCWOACKUYDLWZJUREL4BRIY3", "dateTime": 1516663624707}, {"current_trial": 147, "trialdata": {"rt": -1, "trial_type": "single-stim", "word": "shortcake", "stimulus": "<p id=\"stim\">SHORTCAKE</p>", "conditions": [24, 800, "v", 24000], "internal_node_id": "0.0-111.0", "trial": 3, "time_elapsed": 810549, "serialpos": 18, "key_press": -1, "wordID": 1291, "type": "PRES_VIS", "trial_index": 147}, "uniqueid": "MTK2055:3SBEHTYCWOACKUYDLWZJUREL4BRIY3", "dateTime": 1516663626375}, {"current_trial": 148, "trialdata": {"rt": -1, "trial_type": "single-stim", "word": "breast", "stimulus": "<p id=\"stim\">BREAST</p>", "conditions": [24, 800, "v", 24000], "internal_node_id": "0.0-112.0", "trial": 3, "time_elapsed": 812193, "serialpos": 19, "key_press": -1, "wordID": 170, "type": "PRES_VIS", "trial_index": 148}, "uniqueid": "MTK2055:3SBEHTYCWOACKUYDLWZJUREL4BRIY3", "dateTime": 1516663628019}, {"current_trial": 149, "trialdata": {"rt": -1, "trial_type": "single-stim", "word": "beaver", "stimulus": "<p id=\"stim\">BEAVER</p>", "conditions": [24, 800, "v", 24000], "internal_node_id": "0.0-113.0", "trial": 3, "time_elapsed": 813996, "serialpos": 20, "key_press": -1, "wordID": 108, "type": "PRES_VIS", "trial_index": 149}, "uniqueid": "MTK2055:3SBEHTYCWOACKUYDLWZJUREL4BRIY3", "dateTime": 1516663629822}, {"current_trial": 150, "trialdata": {"rt": -1, "trial_type": "single-stim", "word": "robot", "stimulus": "<p id=\"stim\">ROBOT</p>", "conditions": [24, 800, "v", 24000], "internal_node_id": "0.0-114.0", "trial": 3, "time_elapsed": 815888, "serialpos": 21, "key_press": -1, "wordID": 1199, "type": "PRES_VIS", "trial_index": 150}, "uniqueid": "MTK2055:3SBEHTYCWOACKUYDLWZJUREL4BRIY3", "dateTime": 1516663631714}, {"current_trial": 151, "trialdata": {"rt": -1, "trial_type": "single-stim", "word": "tortoise", "stimulus": "<p id=\"stim\">TORTOISE</p>", "conditions": [24, 800, "v", 24000], "internal_node_id": "0.0-115.0", "trial": 3, "time_elapsed": 817884, "serialpos": 22, "key_press": -1, "wordID": 1485, "type": "PRES_VIS", "trial_index": 151}, "uniqueid": "MTK2055:3SBEHTYCWOACKUYDLWZJUREL4BRIY3", "dateTime": 1516663633710}, {"current_trial": 152, "trialdata": {"rt": -1, "trial_type": "single-stim", "word": "bacon", "stimulus": "<p id=\"stim\">BACON</p>", "conditions": [24, 800, "v", 24000], "internal_node_id": "0.0-116.0", "trial": 3, "time_elapsed": 819845, "serialpos": 23, "key_press": -1, "wordID": 66, "type": "PRES_VIS", "trial_index": 152}, "uniqueid": "MTK2055:3SBEHTYCWOACKUYDLWZJUREL4BRIY3", "dateTime": 1516663635671}, {"current_trial": 153, "trialdata": {"rt": -1, "trial_type": "single-stim", "stimulus": "", "internal_node_id": "0.0-117.0-0.0", "time_elapsed": 822032, "key_press": -1, "type": "PRE_RECALL_DELAY", "trial_index": 153}, "uniqueid": "MTK2055:3SBEHTYCWOACKUYDLWZJUREL4BRIY3", "dateTime": 1516663637858}, {"current_trial": 154, "trialdata": {"rt": -1000, "trial_type": "single-audio", "stimulus": "/static/audio/400Hz.wav", "internal_node_id": "0.0-118.0", "time_elapsed": 822534, "key_press": -1, "type": "PRE_RECALL_ALERT", "trial_index": 154}, "uniqueid": "MTK2055:3SBEHTYCWOACKUYDLWZJUREL4BRIY3", "dateTime": 1516663638360}, {"current_trial": 155, "trialdata": {"rt": [5738, 8536, 14644, 17313, 32028, 39763, 44749, 45970, 48713, 53127, 59547], "recwords": ["queen", "princess", "breast", "beaver", "brillo", "ostritch", "castle", "perch", "watch", "crown", "land"], "key_times": [4674, 4823, 5290, 5444, 5509, 5738, 6062, 6194, 6393, 6709, 6867, 7004, 7409, 7506, 7627, 7912, 8024, 8216, 8241, 8418, 8536, 12366, 12655, 12740, 12823, 12967, 13229, 14644, 15015, 15140, 15246, 15482, 15705, 15769, 17313, 21355, 21565, 21609, 22120, 22298, 22451, 30300, 30484, 30844, 31354, 31530, 31747, 32028, 36127, 36747, 37968, 38096, 38312, 38548, 38684, 39030, 39294, 39358, 39763, 43413, 43605, 43733, 44029, 44305, 44465, 44749, 45125, 45225, 45285, 45517, 45565, 45970, 47219, 47303, 47447, 47715, 47779, 48713, 50983, 51595, 52377, 52482, 52671, 53127, 58651, 58747, 58871, 59187, 59547, 59955], "trial_type": "free-recall", "conditions": [24, 800, "v", 24000], "internal_node_id": "0.0-119.0-0.0", "key_presses": [81, 85, 69, 69, 78, 13, 82, 73, 78, 8, 8, 8, 80, 82, 73, 78, 67, 69, 83, 83, 13, 66, 82, 69, 65, 83, 84, 13, 66, 69, 65, 86, 69, 82, 13, 75, 73, 84, 8, 8, 8, 66, 82, 73, 76, 76, 79, 13, 80, 8, 79, 83, 84, 82, 73, 84, 67, 72, 13, 67, 65, 83, 84, 76, 69, 13, 80, 69, 82, 67, 72, 13, 87, 65, 84, 67, 72, 13, 67, 82, 79, 87, 78, 13, 76, 65, 78, 68, 13, 75], "trial": 3, "time_elapsed": 882547, "type": "FREE_RECALL", "trial_index": 155}, "uniqueid": "MTK2055:3SBEHTYCWOACKUYDLWZJUREL4BRIY3", "dateTime": 1516663698393}, {"current_trial": 156, "trialdata": {"rt": 3411, "trial_type": "text", "internal_node_id": "0.0-120.0", "time_elapsed": 887981, "key_press": 32, "type": "INSTRUCTIONS", "trial_index": 156}, "uniqueid": "MTK2055:3SBEHTYCWOACKUYDLWZJUREL4BRIY3", "dateTime": 1516663703807}, {"current_trial": 157, "trialdata": {"rt": [], "trial_type": "math-distractor", "key_times": [], "responses": [], "num2": [1], "num3": [1], "conditions": [12, 800, "v", 12000], "internal_node_id": "0.0-121.0", "key_presses": [], "trial": 4, "time_elapsed": 902009, "type": "DISTRACTOR", "trial_index": 157, "num1": [4]}, "uniqueid": "MTK2055:3SBEHTYCWOACKUYDLWZJUREL4BRIY3", "dateTime": 1516663717839}, {"current_trial": 158, "trialdata": {"rt": -1, "trial_type": "single-stim", "stimulus": "<p id=\"stim\">10</p>", "internal_node_id": "0.0-122.0-0.0", "time_elapsed": 905031, "key_press": -1, "trial_index": 158}, "uniqueid": "MTK2055:3SBEHTYCWOACKUYDLWZJUREL4BRIY3", "dateTime": 1516663720857}, {"current_trial": 159, "trialdata": {"rt": -1, "trial_type": "single-stim", "stimulus": "<p id=\"stim\">9</p>", "internal_node_id": "0.0-122.0-1.0", "time_elapsed": 906044, "key_press": -1, "trial_index": 159}, "uniqueid": "MTK2055:3SBEHTYCWOACKUYDLWZJUREL4BRIY3", "dateTime": 1516663721870}, {"current_trial": 160, "trialdata": {"rt": -1, "trial_type": "single-stim", "stimulus": "<p id=\"stim\">8</p>", "internal_node_id": "0.0-122.0-2.0", "time_elapsed": 907050, "key_press": -1, "trial_index": 160}, "uniqueid": "MTK2055:3SBEHTYCWOACKUYDLWZJUREL4BRIY3", "dateTime": 1516663722876}, {"current_trial": 161, "trialdata": {"rt": -1, "trial_type": "single-stim", "stimulus": "<p id=\"stim\">7</p>", "internal_node_id": "0.0-122.0-3.0", "time_elapsed": 908050, "key_press": -1, "trial_index": 161}, "uniqueid": "MTK2055:3SBEHTYCWOACKUYDLWZJUREL4BRIY3", "dateTime": 1516663723876}, {"current_trial": 162, "trialdata": {"rt": -1, "trial_type": "single-stim", "stimulus": "<p id=\"stim\">6</p>", "internal_node_id": "0.0-122.0-4.0", "time_elapsed": 909051, "key_press": -1, "trial_index": 162}, "uniqueid": "MTK2055:3SBEHTYCWOACKUYDLWZJUREL4BRIY3", "dateTime": 1516663724877}, {"current_trial": 163, "trialdata": {"rt": -1, "trial_type": "single-stim", "stimulus": "<p id=\"stim\">5</p>", "internal_node_id": "0.0-122.0-5.0", "time_elapsed": 910051, "key_press": -1, "trial_index": 163}, "uniqueid": "MTK2055:3SBEHTYCWOACKUYDLWZJUREL4BRIY3", "dateTime": 1516663725877}, {"current_trial": 164, "trialdata": {"rt": -1, "trial_type": "single-stim", "stimulus": "<p id=\"stim\">4</p>", "internal_node_id": "0.0-122.0-6.0", "time_elapsed": 911059, "key_press": -1, "trial_index": 164}, "uniqueid": "MTK2055:3SBEHTYCWOACKUYDLWZJUREL4BRIY3", "dateTime": 1516663726885}, {"current_trial": 165, "trialdata": {"rt": -1, "trial_type": "single-stim", "stimulus": "<p id=\"stim\">3</p>", "internal_node_id": "0.0-122.0-7.0", "time_elapsed": 912063, "key_press": -1, "trial_index": 165}, "uniqueid": "MTK2055:3SBEHTYCWOACKUYDLWZJUREL4BRIY3", "dateTime": 1516663727893}, {"current_trial": 166, "trialdata": {"rt": -1, "trial_type": "single-stim", "stimulus": "<p id=\"stim\">2</p>", "internal_node_id": "0.0-122.0-8.0", "time_elapsed": 913073, "key_press": -1, "trial_index": 166}, "uniqueid": "MTK2055:3SBEHTYCWOACKUYDLWZJUREL4BRIY3", "dateTime": 1516663728899}, {"current_trial": 167, "trialdata": {"rt": -1, "trial_type": "single-stim", "stimulus": "<p id=\"stim\">1</p>", "internal_node_id": "0.0-122.0-9.0", "time_elapsed": 914077, "key_press": -1, "trial_index": 167}, "uniqueid": "MTK2055:3SBEHTYCWOACKUYDLWZJUREL4BRIY3", "dateTime": 1516663729903}, {"current_trial": 168, "trialdata": {"rt": -1, "trial_type": "single-stim", "stimulus": "<p id=\"stim\">+</p>", "internal_node_id": "0.0-123.0-0.0", "time_elapsed": 915590, "key_press": -1, "type": "FIXATION", "trial_index": 168}, "uniqueid": "MTK2055:3SBEHTYCWOACKUYDLWZJUREL4BRIY3", "dateTime": 1516663731416}, {"current_trial": 169, "trialdata": {"rt": -1, "trial_type": "single-stim", "word": "river", "stimulus": "<p id=\"stim\">RIVER</p>", "conditions": [12, 800, "v", 12000], "internal_node_id": "0.0-124.0", "trial": 4, "time_elapsed": 916451, "serialpos": 0, "key_press": -1, "wordID": 1193, "type": "PRES_VIS", "trial_index": 169}, "uniqueid": "MTK2055:3SBEHTYCWOACKUYDLWZJUREL4BRIY3", "dateTime": 1516663732277}, {"current_trial": 170, "trialdata": {"rt": -1, "trial_type": "single-stim", "word": "flesh", "stimulus": "<p id=\"stim\">FLESH</p>", "conditions": [12, 800, "v", 12000], "internal_node_id": "0.0-125.0", "trial": 4, "time_elapsed": 918311, "serialpos": 1, "key_press": -1, "wordID": 578, "type": "PRES_VIS", "trial_index": 170}, "uniqueid": "MTK2055:3SBEHTYCWOACKUYDLWZJUREL4BRIY3", "dateTime": 1516663734141}, {"current_trial": 171, "trialdata": {"rt": -1, "trial_type": "single-stim", "word": "yarn", "stimulus": "<p id=\"stim\">YARN</p>", "conditions": [12, 800, "v", 12000], "internal_node_id": "0.0-126.0", "trial": 4, "time_elapsed": 919973, "serialpos": 2, "key_press": -1, "wordID": 1630, "type": "PRES_VIS", "trial_index": 171}, "uniqueid": "MTK2055:3SBEHTYCWOACKUYDLWZJUREL4BRIY3", "dateTime": 1516663735803}, {"current_trial": 172, "trialdata": {"rt": -1, "trial_type": "single-stim", "word": "lettuce", "stimulus": "<p id=\"stim\">LETTUCE</p>", "conditions": [12, 800, "v", 12000], "internal_node_id": "0.0-127.0", "trial": 4, "time_elapsed": 921609, "serialpos": 3, "key_press": -1, "wordID": 813, "type": "PRES_VIS", "trial_index": 172}, "uniqueid": "MTK2055:3SBEHTYCWOACKUYDLWZJUREL4BRIY3", "dateTime": 1516663737435}, {"current_trial": 173, "trialdata": {"rt": -1, "trial_type": "single-stim", "word": "outdoors", "stimulus": "<p id=\"stim\">OUTDOORS</p>", "conditions": [12, 800, "v", 12000], "internal_node_id": "0.0-128.0", "trial": 4, "time_elapsed": 923229, "serialpos": 4, "key_press": -1, "wordID": 986, "type": "PRES_VIS", "trial_index": 173}, "uniqueid": "MTK2055:3SBEHTYCWOACKUYDLWZJUREL4BRIY3", "dateTime": 1516663739055}, {"current_trial": 174, "trialdata": {"rt": -1, "trial_type": "single-stim", "word": "turtle", "stimulus": "<p id=\"stim\">TURTLE</p>", "conditions": [12, 800, "v", 12000], "internal_node_id": "0.0-129.0", "trial": 4, "time_elapsed": 925021, "serialpos": 5, "key_press": -1, "wordID": 1521, "type": "PRES_VIS", "trial_index": 174}, "uniqueid": "MTK2055:3SBEHTYCWOACKUYDLWZJUREL4BRIY3", "dateTime": 1516663740847}, {"current_trial": 175, "trialdata": {"rt": -1, "trial_type": "single-stim", "word": "penguin", "stimulus": "<p id=\"stim\">PENGUIN</p>", "conditions": [12, 800, "v", 12000], "internal_node_id": "0.0-130.0", "trial": 4, "time_elapsed": 926767, "serialpos": 6, "key_press": -1, "wordID": 1043, "type": "PRES_VIS", "trial_index": 175}, "uniqueid": "MTK2055:3SBEHTYCWOACKUYDLWZJUREL4BRIY3", "dateTime": 1516663742593}, {"current_trial": 176, "trialdata": {"rt": -1, "trial_type": "single-stim", "word": "world", "stimulus": "<p id=\"stim\">WORLD</p>", "conditions": [12, 800, "v", 12000], "internal_node_id": "0.0-131.0", "trial": 4, "time_elapsed": 928769, "serialpos": 7, "key_press": -1, "wordID": 1621, "type": "PRES_VIS", "trial_index": 176}, "uniqueid": "MTK2055:3SBEHTYCWOACKUYDLWZJUREL4BRIY3", "dateTime": 1516663744595}, {"current_trial": 177, "trialdata": {"rt": -1, "trial_type": "single-stim", "word": "dresser", "stimulus": "<p id=\"stim\">DRESSER</p>", "conditions": [12, 800, "v", 12000], "internal_node_id": "0.0-132.0", "trial": 4, "time_elapsed": 930522, "serialpos": 8, "key_press": -1, "wordID": 495, "type": "PRES_VIS", "trial_index": 177}, "uniqueid": "MTK2055:3SBEHTYCWOACKUYDLWZJUREL4BRIY3", "dateTime": 1516663746352}, {"current_trial": 178, "trialdata": {"rt": -1, "trial_type": "single-stim", "word": "blueprint", "stimulus": "<p id=\"stim\">BLUEPRINT</p>", "conditions": [12, 800, "v", 12000], "internal_node_id": "0.0-133.0", "trial": 4, "time_elapsed": 932167, "serialpos": 9, "key_press": -1, "wordID": 141, "type": "PRES_VIS", "trial_index": 178}, "uniqueid": "MTK2055:3SBEHTYCWOACKUYDLWZJUREL4BRIY3", "dateTime": 1516663747993}, {"current_trial": 179, "trialdata": {"rt": -1, "trial_type": "single-stim", "word": "atlas", "stimulus": "<p id=\"stim\">ATLAS</p>", "conditions": [12, 800, "v", 12000], "internal_node_id": "0.0-134.0", "trial": 4, "time_elapsed": 933875, "serialpos": 10, "key_press": -1, "wordID": 52, "type": "PRES_VIS", "trial_index": 179}, "uniqueid": "MTK2055:3SBEHTYCWOACKUYDLWZJUREL4BRIY3", "dateTime": 1516663749705}, {"current_trial": 180, "trialdata": {"rt": -1, "trial_type": "single-stim", "word": "cupboard", "stimulus": "<p id=\"stim\">CUPBOARD</p>", "conditions": [12, 800, "v", 12000], "internal_node_id": "0.0-135.0", "trial": 4, "time_elapsed": 935815, "serialpos": 11, "key_press": -1, "wordID": 424, "type": "PRES_VIS", "trial_index": 180}, "uniqueid": "MTK2055:3SBEHTYCWOACKUYDLWZJUREL4BRIY3", "dateTime": 1516663751641}, {"current_trial": 181, "trialdata": {"rt": -1, "trial_type": "single-stim", "stimulus": "", "internal_node_id": "0.0-136.0-0.0", "time_elapsed": 938183, "key_press": -1, "type": "PRE_RECALL_DELAY", "trial_index": 181}, "uniqueid": "MTK2055:3SBEHTYCWOACKUYDLWZJUREL4BRIY3", "dateTime": 1516663754013}, {"current_trial": 182, "trialdata": {"rt": -1000, "trial_type": "single-audio", "stimulus": "/static/audio/400Hz.wav", "internal_node_id": "0.0-137.0", "time_elapsed": 938692, "key_press": -1, "type": "PRE_RECALL_ALERT", "trial_index": 182}, "uniqueid": "MTK2055:3SBEHTYCWOACKUYDLWZJUREL4BRIY3", "dateTime": 1516663754519}, {"current_trial": 183, "trialdata": {"rt": [6522, 7898, 9708, 11035, 15093, 21292, 25951, 30606, 32521, 43224, 49216, 52842, 55522], "recwords": ["river", "lacee", "lace", "bunny", "gild", "face", "perfection", "wait", "dog", "", "swiss", "hp", "holiday"], "key_times": [4000, 4012, 4605, 4869, 4980, 5372, 5546, 6022, 6077, 6253, 6338, 6522, 7077, 7143, 7310, 7649, 7675, 7898, 9200, 9287, 9385, 9601, 9708, 10008, 10406, 10655, 10776, 10858, 11035, 11350, 11436, 11568, 11763, 11928, 12359, 12522, 12700, 12886, 13068, 13962, 14420, 14744, 14869, 15093, 20110, 20191, 20443, 20968, 21061, 21136, 21292, 24198, 24319, 24369, 24593, 24728, 24925, 25194, 25274, 25435, 25490, 25951, 27723, 27804, 27935, 28024, 28600, 28765, 29020, 29082, 30606, 31845, 31945, 32085, 32521, 43224, 46286, 46646, 46754, 46870, 47030, 47422, 47582, 47746, 48010, 48500, 48784, 48908, 49068, 49216, 51657, 52546, 52842, 54063, 54319, 54575, 54779, 54835, 54907, 55127, 55522], "trial_type": "free-recall", "conditions": [12, 800, "v", 12000], "internal_node_id": "0.0-138.0-0.0", "key_presses": [82, 79, 8, 79, 86, 8, 8, 73, 86, 69, 82, 13, 76, 65, 67, 69, 69, 13, 76, 65, 67, 69, 13, 66, 85, 78, 78, 89, 13, 81, 85, 69, 69, 78, 8, 8, 8, 8, 8, 71, 73, 76, 68, 13, 70, 65, 69, 8, 67, 69, 13, 80, 69, 82, 70, 69, 67, 84, 73, 79, 78, 13, 87, 65, 79, 84, 8, 8, 73, 84, 13, 68, 79, 71, 13, 186, 83, 87, 79, 83, 83, 8, 8, 8, 79, 8, 73, 83, 83, 13, 72, 80, 186, 72, 79, 76, 73, 68, 65, 89, 13], "trial": 4, "time_elapsed": 998702, "type": "FREE_RECALL", "trial_index": 183}, "uniqueid": "MTK2055:3SBEHTYCWOACKUYDLWZJUREL4BRIY3", "dateTime": 1516663814540}, {"current_trial": 184, "trialdata": {"rt": 14746, "trial_type": "text", "internal_node_id": "0.0-139.0", "time_elapsed": 1015472, "key_press": 32, "type": "INSTRUCTIONS", "trial_index": 184}, "uniqueid": "MTK2055:3SBEHTYCWOACKUYDLWZJUREL4BRIY3", "dateTime": 1516663831298}, {"current_trial": 185, "trialdata": {"rt": [5606, 7343], "trial_type": "math-distractor", "key_times": [4930, 5194, 5606, 6999, 7071, 7343, 11508, 11736], "responses": ["15", "18"], "num2": [5, 5, 6], "num3": [1, 8, 9], "conditions": [12, 800, "v", 12000], "internal_node_id": "0.0-140.0", "key_presses": [49, 53, 13, 49, 56, 13, 50, 53], "trial": 5, "time_elapsed": 1029488, "type": "DISTRACTOR", "trial_index": 185, "num1": [9, 5, 8]}, "uniqueid": "MTK2055:3SBEHTYCWOACKUYDLWZJUREL4BRIY3", "dateTime": 1516663845314}, {"current_trial": 186, "trialdata": {"rt": -1, "trial_type": "single-stim", "stimulus": "<p id=\"stim\">10</p>", "internal_node_id": "0.0-141.0-0.0", "time_elapsed": 1032496, "key_press": -1, "trial_index": 186}, "uniqueid": "MTK2055:3SBEHTYCWOACKUYDLWZJUREL4BRIY3", "dateTime": 1516663848322}, {"current_trial": 187, "trialdata": {"rt": -1, "trial_type": "single-stim", "stimulus": "<p id=\"stim\">9</p>", "internal_node_id": "0.0-141.0-1.0", "time_elapsed": 1033497, "key_press": -1, "trial_index": 187}, "uniqueid": "MTK2055:3SBEHTYCWOACKUYDLWZJUREL4BRIY3", "dateTime": 1516663849323}, {"current_trial": 188, "trialdata": {"rt": -1, "trial_type": "single-stim", "stimulus": "<p id=\"stim\">8</p>", "internal_node_id": "0.0-141.0-2.0", "time_elapsed": 1034497, "key_press": -1, "trial_index": 188}, "uniqueid": "MTK2055:3SBEHTYCWOACKUYDLWZJUREL4BRIY3", "dateTime": 1516663850323}, {"current_trial": 189, "trialdata": {"rt": -1, "trial_type": "single-stim", "stimulus": "<p id=\"stim\">7</p>", "internal_node_id": "0.0-141.0-3.0", "time_elapsed": 1035501, "key_press": -1, "trial_index": 189}, "uniqueid": "MTK2055:3SBEHTYCWOACKUYDLWZJUREL4BRIY3", "dateTime": 1516663851327}, {"current_trial": 190, "trialdata": {"rt": -1, "trial_type": "single-stim", "stimulus": "<p id=\"stim\">6</p>", "internal_node_id": "0.0-141.0-4.0", "time_elapsed": 1036505, "key_press": -1, "trial_index": 190}, "uniqueid": "MTK2055:3SBEHTYCWOACKUYDLWZJUREL4BRIY3", "dateTime": 1516663852331}, {"current_trial": 191, "trialdata": {"rt": -1, "trial_type": "single-stim", "stimulus": "<p id=\"stim\">5</p>", "internal_node_id": "0.0-141.0-5.0", "time_elapsed": 1037509, "key_press": -1, "trial_index": 191}, "uniqueid": "MTK2055:3SBEHTYCWOACKUYDLWZJUREL4BRIY3", "dateTime": 1516663853335}, {"current_trial": 192, "trialdata": {"rt": -1, "trial_type": "single-stim", "stimulus": "<p id=\"stim\">4</p>", "internal_node_id": "0.0-141.0-6.0", "time_elapsed": 1038512, "key_press": -1, "trial_index": 192}, "uniqueid": "MTK2055:3SBEHTYCWOACKUYDLWZJUREL4BRIY3", "dateTime": 1516663854338}, {"current_trial": 193, "trialdata": {"rt": -1, "trial_type": "single-stim", "stimulus": "<p id=\"stim\">3</p>", "internal_node_id": "0.0-141.0-7.0", "time_elapsed": 1039518, "key_press": -1, "trial_index": 193}, "uniqueid": "MTK2055:3SBEHTYCWOACKUYDLWZJUREL4BRIY3", "dateTime": 1516663855348}, {"current_trial": 194, "trialdata": {"rt": 8, "trial_type": "single-stim", "stimulus": "<p id=\"stim\">2</p>", "internal_node_id": "0.0-141.0-8.0", "time_elapsed": 1040528, "key_press": 13, "trial_index": 194}, "uniqueid": "MTK2055:3SBEHTYCWOACKUYDLWZJUREL4BRIY3", "dateTime": 1516663856354}, {"current_trial": 195, "trialdata": {"rt": -1, "trial_type": "single-stim", "stimulus": "<p id=\"stim\">1</p>", "internal_node_id": "0.0-141.0-9.0", "time_elapsed": 1041528, "key_press": -1, "trial_index": 195}, "uniqueid": "MTK2055:3SBEHTYCWOACKUYDLWZJUREL4BRIY3", "dateTime": 1516663857354}, {"current_trial": 196, "trialdata": {"rt": -1, "trial_type": "single-stim", "stimulus": "<p id=\"stim\">+</p>", "internal_node_id": "0.0-142.0-0.0", "time_elapsed": 1043030, "key_press": -1, "type": "FIXATION", "trial_index": 196}, "uniqueid": "MTK2055:3SBEHTYCWOACKUYDLWZJUREL4BRIY3", "dateTime": 1516663858856}, {"current_trial": 197, "trialdata": {"rt": -1, "trial_type": "single-stim", "word": "quarter", "stimulus": "<p id=\"stim\">QUARTER</p>", "conditions": [12, 800, "v", 12000], "internal_node_id": "0.0-143.0", "trial": 5, "time_elapsed": 1043831, "serialpos": 0, "key_press": -1, "wordID": 1147, "type": "PRES_VIS", "trial_index": 197}, "uniqueid": "MTK2055:3SBEHTYCWOACKUYDLWZJUREL4BRIY3", "dateTime": 1516663859657}, {"current_trial": 198, "trialdata": {"rt": -1, "trial_type": "single-stim", "word": "hornet", "stimulus": "<p id=\"stim\">HORNET</p>", "conditions": [12, 800, "v", 12000], "internal_node_id": "0.0-144.0", "trial": 5, "time_elapsed": 1045662, "serialpos": 1, "key_press": -1, "wordID": 717, "type": "PRES_VIS", "trial_index": 198}, "uniqueid": "MTK2055:3SBEHTYCWOACKUYDLWZJUREL4BRIY3", "dateTime": 1516663861488}, {"current_trial": 199, "trialdata": {"rt": -1, "trial_type": "single-stim", "word": "shorts", "stimulus": "<p id=\"stim\">SHORTS</p>", "conditions": [12, 800, "v", 12000], "internal_node_id": "0.0-145.0", "trial": 5, "time_elapsed": 1047440, "serialpos": 2, "key_press": -1, "wordID": 1292, "type": "PRES_VIS", "trial_index": 199}, "uniqueid": "MTK2055:3SBEHTYCWOACKUYDLWZJUREL4BRIY3", "dateTime": 1516663863266}, {"current_trial": 200, "trialdata": {"rt": -1, "trial_type": "single-stim", "word": "college", "stimulus": "<p id=\"stim\">COLLEGE</p>", "conditions": [12, 800, "v", 12000], "internal_node_id": "0.0-146.0", "trial": 5, "time_elapsed": 1049226, "serialpos": 3, "key_press": -1, "wordID": 345, "type": "PRES_VIS", "trial_index": 200}, "uniqueid": "MTK2055:3SBEHTYCWOACKUYDLWZJUREL4BRIY3", "dateTime": 1516663865052}, {"current_trial": 201, "trialdata": {"rt": -1, "trial_type": "single-stim", "word": "mailman", "stimulus": "<p id=\"stim\">MAILMAN</p>", "conditions": [12, 800, "v", 12000], "internal_node_id": "0.0-147.0", "trial": 5, "time_elapsed": 1051162, "serialpos": 4, "key_press": -1, "wordID": 857, "type": "PRES_VIS", "trial_index": 201}, "uniqueid": "MTK2055:3SBEHTYCWOACKUYDLWZJUREL4BRIY3", "dateTime": 1516663866988}, {"current_trial": 202, "trialdata": {"rt": -1, "trial_type": "single-stim", "word": "tuba", "stimulus": "<p id=\"stim\">TUBA</p>", "conditions": [12, 800, "v", 12000], "internal_node_id": "0.0-148.0", "trial": 5, "time_elapsed": 1052800, "serialpos": 5, "key_press": -1, "wordID": 1514, "type": "PRES_VIS", "trial_index": 202}, "uniqueid": "MTK2055:3SBEHTYCWOACKUYDLWZJUREL4BRIY3", "dateTime": 1516663868626}, {"current_trial": 203, "trialdata": {"rt": -1, "trial_type": "single-stim", "word": "piano", "stimulus": "<p id=\"stim\">PIANO</p>", "conditions": [12, 800, "v", 12000], "internal_node_id": "0.0-149.0", "trial": 5, "time_elapsed": 1054837, "serialpos": 6, "key_press": -1, "wordID": 1056, "type": "PRES_VIS", "trial_index": 203}, "uniqueid": "MTK2055:3SBEHTYCWOACKUYDLWZJUREL4BRIY3", "dateTime": 1516663870663}, {"current_trial": 204, "trialdata": {"rt": -1, "trial_type": "single-stim", "word": "diner", "stimulus": "<p id=\"stim\">DINER</p>", "conditions": [12, 800, "v", 12000], "internal_node_id": "0.0-150.0", "trial": 5, "time_elapsed": 1056794, "serialpos": 7, "key_press": -1, "wordID": 466, "type": "PRES_VIS", "trial_index": 204}, "uniqueid": "MTK2055:3SBEHTYCWOACKUYDLWZJUREL4BRIY3", "dateTime": 1516663872620}, {"current_trial": 205, "trialdata": {"rt": -1, "trial_type": "single-stim", "word": "puppy", "stimulus": "<p id=\"stim\">PUPPY</p>", "conditions": [12, 800, "v", 12000], "internal_node_id": "0.0-151.0", "trial": 5, "time_elapsed": 1058506, "serialpos": 8, "key_press": -1, "wordID": 1143, "type": "PRES_VIS", "trial_index": 205}, "uniqueid": "MTK2055:3SBEHTYCWOACKUYDLWZJUREL4BRIY3", "dateTime": 1516663874332}, {"current_trial": 206, "trialdata": {"rt": -1, "trial_type": "single-stim", "word": "brother", "stimulus": "<p id=\"stim\">BROTHER</p>", "conditions": [12, 800, "v", 12000], "internal_node_id": "0.0-152.0", "trial": 5, "time_elapsed": 1060156, "serialpos": 9, "key_press": -1, "wordID": 178, "type": "PRES_VIS", "trial_index": 206}, "uniqueid": "MTK2055:3SBEHTYCWOACKUYDLWZJUREL4BRIY3", "dateTime": 1516663875982}, {"current_trial": 207, "trialdata": {"rt": -1, "trial_type": "single-stim", "word": "mailbox", "stimulus": "<p id=\"stim\">MAILBOX</p>", "conditions": [12, 800, "v", 12000], "internal_node_id": "0.0-153.0", "trial": 5, "time_elapsed": 1061812, "serialpos": 10, "key_press": -1, "wordID": 856, "type": "PRES_VIS", "trial_index": 207}, "uniqueid": "MTK2055:3SBEHTYCWOACKUYDLWZJUREL4BRIY3", "dateTime": 1516663877638}, {"current_trial": 208, "trialdata": {"rt": -1, "trial_type": "single-stim", "word": "daisy", "stimulus": "<p id=\"stim\">DAISY</p>", "conditions": [12, 800, "v", 12000], "internal_node_id": "0.0-154.0", "trial": 5, "time_elapsed": 1063609, "serialpos": 11, "key_press": -1, "wordID": 434, "type": "PRES_VIS", "trial_index": 208}, "uniqueid": "MTK2055:3SBEHTYCWOACKUYDLWZJUREL4BRIY3", "dateTime": 1516663879435}, {"current_trial": 209, "trialdata": {"rt": -1, "trial_type": "single-stim", "stimulus": "", "internal_node_id": "0.0-155.0-0.0", "time_elapsed": 1066038, "key_press": -1, "type": "PRE_RECALL_DELAY", "trial_index": 209}, "uniqueid": "MTK2055:3SBEHTYCWOACKUYDLWZJUREL4BRIY3", "dateTime": 1516663881864}, {"current_trial": 210, "trialdata": {"rt": -1000, "trial_type": "single-audio", "stimulus": "/static/audio/400Hz.wav", "internal_node_id": "0.0-156.0", "time_elapsed": 1066543, "key_press": -1, "type": "PRE_RECALL_ALERT", "trial_index": 210}, "uniqueid": "MTK2055:3SBEHTYCWOACKUYDLWZJUREL4BRIY3", "dateTime": 1516663882369}, {"current_trial": 211, "trialdata": {"rt": [1965, 3108, 4225, 5638, 9751, 20415, 22121, 25741, 26551, 32099, 33049, 37040, 42947, 43643, 46427, 50988, 54090], "recwords": ["brother", "diner", "daisy", "mailman", "industry", "sandwich", "shutdown", "senate", "house", "striking", "deal", "showdown", "deal", "po", "political", "funding", "hill"], "key_times": [1108, 1237, 1405, 1539, 1665, 1750, 1815, 1965, 2255, 2378, 2547, 2640, 2719, 3108, 3451, 3532, 3673, 3765, 3937, 4225, 4469, 4571, 4673, 4801, 5136, 5230, 5321, 5638, 7106, 7536, 7729, 7947, 8125, 8391, 8488, 8597, 9147, 9285, 9355, 9579, 9751, 18580, 18711, 18948, 19353, 19803, 19912, 20035, 20109, 20415, 20672, 20784, 20916, 21042, 21579, 21665, 21766, 21855, 22121, 22954, 23170, 23290, 23377, 23726, 23875, 24258, 24381, 24667, 24825, 25154, 25215, 25275, 25391, 25741, 26026, 26195, 26265, 26325, 26367, 26551, 29542, 29745, 29953, 30049, 30220, 30670, 30810, 31298, 31498, 31712, 31804, 31864, 32099, 32401, 32576, 32660, 32732, 33049, 35507, 35611, 36075, 36177, 36485, 36581, 36661, 36765, 37040, 40325, 40525, 40613, 41693, 42299, 42711, 42947, 43291, 43407, 43643, 43895, 44435, 44583, 44997, 45093, 45301, 45481, 45549, 45641, 45761, 45865, 45941, 46427, 49403, 49499, 49727, 49807, 49983, 50076, 50132, 50988, 53328, 53480, 53712, 53816, 54090], "trial_type": "free-recall", "conditions": [12, 800, "v", 12000], "internal_node_id": "0.0-157.0-0.0", "key_presses": [66, 82, 79, 84, 72, 69, 82, 13, 68, 73, 78, 69, 82, 13, 68, 65, 73, 83, 89, 13, 77, 65, 73, 76, 77, 65, 78, 13, 73, 78, 68, 85, 83, 84, 89, 82, 8, 8, 82, 89, 13, 83, 65, 78, 68, 87, 73, 67, 72, 13, 83, 72, 85, 84, 68, 79, 87, 78, 13, 83, 69, 65, 78, 8, 8, 65, 84, 8, 8, 78, 65, 84, 69, 13, 72, 79, 85, 83, 69, 13, 83, 84, 82, 79, 76, 8, 8, 73, 75, 73, 78, 71, 13, 68, 69, 65, 76, 13, 83, 72, 79, 87, 68, 79, 87, 78, 13, 68, 69, 65, 75, 8, 76, 13, 80, 79, 186, 79, 8, 8, 80, 79, 76, 73, 84, 73, 67, 65, 76, 13, 70, 85, 78, 68, 73, 78, 71, 13, 72, 73, 76, 76, 13], "trial": 5, "time_elapsed": 1126556, "type": "FREE_RECALL", "trial_index": 211}, "uniqueid": "MTK2055:3SBEHTYCWOACKUYDLWZJUREL4BRIY3", "dateTime": 1516663942402}, {"current_trial": 212, "trialdata": {"rt": 51199, "trial_type": "text", "internal_node_id": "0.0-158.0", "time_elapsed": 1179775, "key_press": 13, "type": "INSTRUCTIONS", "trial_index": 212}, "uniqueid": "MTK2055:3SBEHTYCWOACKUYDLWZJUREL4BRIY3", "dateTime": 1516663995605}, {"current_trial": 213, "trialdata": {"rt": [12145, 21087], "trial_type": "math-distractor", "key_times": [10649, 11317, 12145, 13729, 21087, 23286, 23664], "responses": ["10", "6"], "num2": [4, 2, 8], "num3": [4, 3, 2], "conditions": [24, 1600, "v", 24000], "internal_node_id": "0.0-159.0", "key_presses": [49, 48, 13, 54, 13, 49, 53], "trial": 6, "time_elapsed": 1205795, "type": "DISTRACTOR", "trial_index": 213, "num1": [2, 1, 5]}, "uniqueid": "MTK2055:3SBEHTYCWOACKUYDLWZJUREL4BRIY3", "dateTime": 1516664021621}, {"current_trial": 214, "trialdata": {"rt": -1, "trial_type": "single-stim", "stimulus": "<p id=\"stim\">10</p>", "internal_node_id": "0.0-160.0-0.0", "time_elapsed": 1208798, "key_press": -1, "trial_index": 214}, "uniqueid": "MTK2055:3SBEHTYCWOACKUYDLWZJUREL4BRIY3", "dateTime": 1516664024624}, {"current_trial": 215, "trialdata": {"rt": -1, "trial_type": "single-stim", "stimulus": "<p id=\"stim\">9</p>", "internal_node_id": "0.0-160.0-1.0", "time_elapsed": 1209800, "key_press": -1, "trial_index": 215}, "uniqueid": "MTK2055:3SBEHTYCWOACKUYDLWZJUREL4BRIY3", "dateTime": 1516664025626}, {"current_trial": 216, "trialdata": {"rt": -1, "trial_type": "single-stim", "stimulus": "<p id=\"stim\">8</p>", "internal_node_id": "0.0-160.0-2.0", "time_elapsed": 1210800, "key_press": -1, "trial_index": 216}, "uniqueid": "MTK2055:3SBEHTYCWOACKUYDLWZJUREL4BRIY3", "dateTime": 1516664026626}, {"current_trial": 217, "trialdata": {"rt": -1, "trial_type": "single-stim", "stimulus": "<p id=\"stim\">7</p>", "internal_node_id": "0.0-160.0-3.0", "time_elapsed": 1211802, "key_press": -1, "trial_index": 217}, "uniqueid": "MTK2055:3SBEHTYCWOACKUYDLWZJUREL4BRIY3", "dateTime": 1516664027628}, {"current_trial": 218, "trialdata": {"rt": -1, "trial_type": "single-stim", "stimulus": "<p id=\"stim\">6</p>", "internal_node_id": "0.0-160.0-4.0", "time_elapsed": 1212803, "key_press": -1, "trial_index": 218}, "uniqueid": "MTK2055:3SBEHTYCWOACKUYDLWZJUREL4BRIY3", "dateTime": 1516664028629}, {"current_trial": 219, "trialdata": {"rt": -1, "trial_type": "single-stim", "stimulus": "<p id=\"stim\">5</p>", "internal_node_id": "0.0-160.0-5.0", "time_elapsed": 1213804, "key_press": -1, "trial_index": 219}, "uniqueid": "MTK2055:3SBEHTYCWOACKUYDLWZJUREL4BRIY3", "dateTime": 1516664029630}, {"current_trial": 220, "trialdata": {"rt": -1, "trial_type": "single-stim", "stimulus": "<p id=\"stim\">4</p>", "internal_node_id": "0.0-160.0-6.0", "time_elapsed": 1214808, "key_press": -1, "trial_index": 220}, "uniqueid": "MTK2055:3SBEHTYCWOACKUYDLWZJUREL4BRIY3", "dateTime": 1516664030638}, {"current_trial": 221, "trialdata": {"rt": -1, "trial_type": "single-stim", "stimulus": "<p id=\"stim\">3</p>", "internal_node_id": "0.0-160.0-7.0", "time_elapsed": 1215812, "key_press": -1, "trial_index": 221}, "uniqueid": "MTK2055:3SBEHTYCWOACKUYDLWZJUREL4BRIY3", "dateTime": 1516664031638}, {"current_trial": 222, "trialdata": {"rt": -1, "trial_type": "single-stim", "stimulus": "<p id=\"stim\">2</p>", "internal_node_id": "0.0-160.0-8.0", "time_elapsed": 1216820, "key_press": -1, "trial_index": 222}, "uniqueid": "MTK2055:3SBEHTYCWOACKUYDLWZJUREL4BRIY3", "dateTime": 1516664032646}, {"current_trial": 223, "trialdata": {"rt": -1, "trial_type": "single-stim", "stimulus": "<p id=\"stim\">1</p>", "internal_node_id": "0.0-160.0-9.0", "time_elapsed": 1217820, "key_press": -1, "trial_index": 223}, "uniqueid": "MTK2055:3SBEHTYCWOACKUYDLWZJUREL4BRIY3", "dateTime": 1516664033646}, {"current_trial": 224, "trialdata": {"rt": -1, "trial_type": "single-stim", "stimulus": "<p id=\"stim\">+</p>", "internal_node_id": "0.0-161.0-0.0", "time_elapsed": 1219326, "key_press": -1, "type": "FIXATION", "trial_index": 224}, "uniqueid": "MTK2055:3SBEHTYCWOACKUYDLWZJUREL4BRIY3", "dateTime": 1516664035152}, {"current_trial": 225, "trialdata": {"rt": -1, "trial_type": "single-stim", "word": "peanut", "stimulus": "<p id=\"stim\">PEANUT</p>", "conditions": [24, 1600, "v", 24000], "internal_node_id": "0.0-162.0", "trial": 6, "time_elapsed": 1220934, "serialpos": 0, "key_press": -1, "wordID": 1031, "type": "PRES_VIS", "trial_index": 225}, "uniqueid": "MTK2055:3SBEHTYCWOACKUYDLWZJUREL4BRIY3", "dateTime": 1516664036760}, {"current_trial": 226, "trialdata": {"rt": -1, "trial_type": "single-stim", "word": "twister", "stimulus": "<p id=\"stim\">TWISTER</p>", "conditions": [24, 1600, "v", 24000], "internal_node_id": "0.0-163.0", "trial": 6, "time_elapsed": 1223712, "serialpos": 1, "key_press": -1, "wordID": 1529, "type": "PRES_VIS", "trial_index": 226}, "uniqueid": "MTK2055:3SBEHTYCWOACKUYDLWZJUREL4BRIY3", "dateTime": 1516664039538}, {"current_trial": 227, "trialdata": {"rt": -1, "trial_type": "single-stim", "word": "frame", "stimulus": "<p id=\"stim\">FRAME</p>", "conditions": [24, 1600, "v", 24000], "internal_node_id": "0.0-164.0", "trial": 6, "time_elapsed": 1226317, "serialpos": 2, "key_press": -1, "wordID": 599, "type": "PRES_VIS", "trial_index": 227}, "uniqueid": "MTK2055:3SBEHTYCWOACKUYDLWZJUREL4BRIY3", "dateTime": 1516664042143}, {"current_trial": 228, "trialdata": {"rt": -1, "trial_type": "single-stim", "word": "curtain", "stimulus": "<p id=\"stim\">CURTAIN</p>", "conditions": [24, 1600, "v", 24000], "internal_node_id": "0.0-165.0", "trial": 6, "time_elapsed": 1228950, "serialpos": 3, "key_press": -1, "wordID": 426, "type": "PRES_VIS", "trial_index": 228}, "uniqueid": "MTK2055:3SBEHTYCWOACKUYDLWZJUREL4BRIY3", "dateTime": 1516664044784}, {"current_trial": 229, "trialdata": {"rt": -1, "trial_type": "single-stim", "word": "statue", "stimulus": "<p id=\"stim\">STATUE</p>", "conditions": [24, 1600, "v", 24000], "internal_node_id": "0.0-166.0", "trial": 6, "time_elapsed": 1231691, "serialpos": 4, "key_press": -1, "wordID": 1373, "type": "PRES_VIS", "trial_index": 229}, "uniqueid": "MTK2055:3SBEHTYCWOACKUYDLWZJUREL4BRIY3", "dateTime": 1516664047517}, {"current_trial": 230, "trialdata": {"rt": -1, "trial_type": "single-stim", "word": "pliers", "stimulus": "<p id=\"stim\">PLIERS</p>", "conditions": [24, 1600, "v", 24000], "internal_node_id": "0.0-167.0", "trial": 6, "time_elapsed": 1234208, "serialpos": 5, "key_press": -1, "wordID": 1088, "type": "PRES_VIS", "trial_index": 230}, "uniqueid": "MTK2055:3SBEHTYCWOACKUYDLWZJUREL4BRIY3", "dateTime": 1516664050034}, {"current_trial": 231, "trialdata": {"rt": -1, "trial_type": "single-stim", "word": "tweezers", "stimulus": "<p id=\"stim\">TWEEZERS</p>", "conditions": [24, 1600, "v", 24000], "internal_node_id": "0.0-168.0", "trial": 6, "time_elapsed": 1236788, "serialpos": 6, "key_press": -1, "wordID": 1525, "type": "PRES_VIS", "trial_index": 231}, "uniqueid": "MTK2055:3SBEHTYCWOACKUYDLWZJUREL4BRIY3", "dateTime": 1516664052614}, {"current_trial": 232, "trialdata": {"rt": -1, "trial_type": "single-stim", "word": "relish", "stimulus": "<p id=\"stim\">RELISH</p>", "conditions": [24, 1600, "v", 24000], "internal_node_id": "0.0-169.0", "trial": 6, "time_elapsed": 1239504, "serialpos": 7, "key_press": -1, "wordID": 1182, "type": "PRES_VIS", "trial_index": 232}, "uniqueid": "MTK2055:3SBEHTYCWOACKUYDLWZJUREL4BRIY3", "dateTime": 1516664055330}, {"current_trial": 233, "trialdata": {"rt": -1, "trial_type": "single-stim", "word": "drug", "stimulus": "<p id=\"stim\">DRUG</p>", "conditions": [24, 1600, "v", 24000], "internal_node_id": "0.0-170.0", "trial": 6, "time_elapsed": 1242190, "serialpos": 8, "key_press": -1, "wordID": 500, "type": "PRES_VIS", "trial_index": 233}, "uniqueid": "MTK2055:3SBEHTYCWOACKUYDLWZJUREL4BRIY3", "dateTime": 1516664058019}, {"current_trial": 234, "trialdata": {"rt": -1, "trial_type": "single-stim", "word": "pecan", "stimulus": "<p id=\"stim\">PECAN</p>", "conditions": [24, 1600, "v", 24000], "internal_node_id": "0.0-171.0", "trial": 6, "time_elapsed": 1244968, "serialpos": 9, "key_press": -1, "wordID": 1035, "type": "PRES_VIS", "trial_index": 234}, "uniqueid": "MTK2055:3SBEHTYCWOACKUYDLWZJUREL4BRIY3", "dateTime": 1516664060794}, {"current_trial": 235, "trialdata": {"rt": -1, "trial_type": "single-stim", "word": "honey", "stimulus": "<p id=\"stim\">HONEY</p>", "conditions": [24, 1600, "v", 24000], "internal_node_id": "0.0-172.0", "trial": 6, "time_elapsed": 1247746, "serialpos": 10, "key_press": -1, "wordID": 712, "type": "PRES_VIS", "trial_index": 235}, "uniqueid": "MTK2055:3SBEHTYCWOACKUYDLWZJUREL4BRIY3", "dateTime": 1516664063572}, {"current_trial": 236, "trialdata": {"rt": -1, "trial_type": "single-stim", "word": "knife", "stimulus": "<p id=\"stim\">KNIFE</p>", "conditions": [24, 1600, "v", 24000], "internal_node_id": "0.0-173.0", "trial": 6, "time_elapsed": 1250526, "serialpos": 11, "key_press": -1, "wordID": 784, "type": "PRES_VIS", "trial_index": 236}, "uniqueid": "MTK2055:3SBEHTYCWOACKUYDLWZJUREL4BRIY3", "dateTime": 1516664066352}, {"current_trial": 237, "trialdata": {"rt": -1, "trial_type": "single-stim", "word": "softball", "stimulus": "<p id=\"stim\">SOFTBALL</p>", "conditions": [24, 1600, "v", 24000], "internal_node_id": "0.0-174.0", "trial": 6, "time_elapsed": 1253272, "serialpos": 12, "key_press": -1, "wordID": 1342, "type": "PRES_VIS", "trial_index": 237}, "uniqueid": "MTK2055:3SBEHTYCWOACKUYDLWZJUREL4BRIY3", "dateTime": 1516664069101}, {"current_trial": 238, "trialdata": {"rt": -1, "trial_type": "single-stim", "word": "gallon", "stimulus": "<p id=\"stim\">GALLON</p>", "conditions": [24, 1600, "v", 24000], "internal_node_id": "0.0-175.0", "trial": 6, "time_elapsed": 1255686, "serialpos": 13, "key_press": -1, "wordID": 617, "type": "PRES_VIS", "trial_index": 238}, "uniqueid": "MTK2055:3SBEHTYCWOACKUYDLWZJUREL4BRIY3", "dateTime": 1516664071512}, {"current_trial": 239, "trialdata": {"rt": -1, "trial_type": "single-stim", "word": "brandy", "stimulus": "<p id=\"stim\">BRANDY</p>", "conditions": [24, 1600, "v", 24000], "internal_node_id": "0.0-176.0", "trial": 6, "time_elapsed": 1258211, "serialpos": 14, "key_press": -1, "wordID": 168, "type": "PRES_VIS", "trial_index": 239}, "uniqueid": "MTK2055:3SBEHTYCWOACKUYDLWZJUREL4BRIY3", "dateTime": 1516664074037}, {"current_trial": 240, "trialdata": {"rt": -1, "trial_type": "single-stim", "word": "garlic", "stimulus": "<p id=\"stim\">GARLIC</p>", "conditions": [24, 1600, "v", 24000], "internal_node_id": "0.0-177.0", "trial": 6, "time_elapsed": 1260881, "serialpos": 15, "key_press": -1, "wordID": 623, "type": "PRES_VIS", "trial_index": 240}, "uniqueid": "MTK2055:3SBEHTYCWOACKUYDLWZJUREL4BRIY3", "dateTime": 1516664076707}, {"current_trial": 241, "trialdata": {"rt": -1, "trial_type": "single-stim", "word": "cabbage", "stimulus": "<p id=\"stim\">CABBAGE</p>", "conditions": [24, 1600, "v", 24000], "internal_node_id": "0.0-178.0", "trial": 6, "time_elapsed": 1263514, "serialpos": 16, "key_press": -1, "wordID": 209, "type": "PRES_VIS", "trial_index": 241}, "uniqueid": "MTK2055:3SBEHTYCWOACKUYDLWZJUREL4BRIY3", "dateTime": 1516664079340}, {"current_trial": 242, "trialdata": {"rt": -1, "trial_type": "single-stim", "word": "crib", "stimulus": "<p id=\"stim\">CRIB</p>", "conditions": [24, 1600, "v", 24000], "internal_node_id": "0.0-179.0", "trial": 6, "time_elapsed": 1266140, "serialpos": 17, "key_press": -1, "wordID": 406, "type": "PRES_VIS", "trial_index": 242}, "uniqueid": "MTK2055:3SBEHTYCWOACKUYDLWZJUREL4BRIY3", "dateTime": 1516664081966}, {"current_trial": 243, "trialdata": {"rt": -1, "trial_type": "single-stim", "word": "swimmer", "stimulus": "<p id=\"stim\">SWIMMER</p>", "conditions": [24, 1600, "v", 24000], "internal_node_id": "0.0-180.0", "trial": 6, "time_elapsed": 1268857, "serialpos": 18, "key_press": -1, "wordID": 1419, "type": "PRES_VIS", "trial_index": 243}, "uniqueid": "MTK2055:3SBEHTYCWOACKUYDLWZJUREL4BRIY3", "dateTime": 1516664084683}, {"current_trial": 244, "trialdata": {"rt": -1, "trial_type": "single-stim", "word": "glass", "stimulus": "<p id=\"stim\">GLASS</p>", "conditions": [24, 1600, "v", 24000], "internal_node_id": "0.0-181.0", "trial": 6, "time_elapsed": 1271581, "serialpos": 19, "key_press": -1, "wordID": 638, "type": "PRES_VIS", "trial_index": 244}, "uniqueid": "MTK2055:3SBEHTYCWOACKUYDLWZJUREL4BRIY3", "dateTime": 1516664087407}, {"current_trial": 245, "trialdata"