{"assignmentId": "3VD82FOHKRV9DD8BNZUZHXIOEJJOCI", "workerId": "MTK2304", "questiondata": {"origin": "United States", "strat-rehearsal": "75", "marital": "Married/Domestic Partnership", "education": "Master's degree", "ethnicity": "Not Hispanic", "color_depth": 24, "distracted": "No", "wrote-notes": "Yes", "strat-other": "na", "screen_width": 1366, "avail_screen_width": 1366, "avail_screen_height": 706, "strat-image": "65", "language": "english", "gender": "Male", "age": "42", "gender_other": "", "race": ["Asian"], "strat-categorize": "15", "pixel_depth": 24, "strat-spatial": "25", "strat-story": "15", "race_other": "", "screen_height": 768}, "bonus": 0, "hitId": "3IJ95K7NDXJ2PKQAY4L33F7E353NGN", "counterbalance": 2890, "useragent": "Mozilla/5.0 (Windows NT 6.1; Win64; x64) AppleWebKit/537.36 (KHTML, like Gecko) Chrome/63.0.3239.84 Safari/537.36", "eventdata": [{"eventtype": "initialized", "interval": 0, "value": null, "timestamp": 1516985411480}, {"eventtype": "window_resize", "interval": 0, "value": [1366, 656], "timestamp": 1516985411480}, {"eventtype": "focus", "interval": 1344166, "value": "off", "timestamp": 1516986755646}, {"eventtype": "focus", "interval": 5213, "value": "on", "timestamp": 1516986760859}, {"eventtype": "focus", "interval": 863487, "value": "off", "timestamp": 1516987624346}, {"eventtype": "focus", "interval": 3262, "value": "on", "timestamp": 1516987627608}, {"eventtype": "focus", "interval": 234289, "value": "off", "timestamp": 1516987861897}, {"eventtype": "focus", "interval": 409746, "value": "on", "timestamp": 1516988271643}, {"eventtype": "focus", "interval": 1129856, "value": "off", "timestamp": 1516989401499}, {"eventtype": "focus", "interval": 124235, "value": "on", "timestamp": 1516989525734}, {"eventtype": "focus", "interval": 574794, "value": "off", "timestamp": 1516990100528}, {"eventtype": "focus", "interval": 19808, "value": "on", "timestamp": 1516990120336}, {"eventtype": "focus", "interval": 2561, "value": "off", "timestamp": 1516990122897}, {"eventtype": "focus", "interval": 8503, "value": "on", "timestamp": 1516990131400}, {"eventtype": "focus", "interval": 1933, "value": "off", "timestamp": 1516990133333}, {"eventtype": "focus", "interval": 23532, "value": "on", "timestamp": 1516990156865}, {"eventtype": "focus", "interval": 202952, "value": "off", "timestamp": 1516990359817}, {"eventtype": "focus", "interval": 1494, "value": "on", "timestamp": 1516990361311}, {"eventtype": "focus", "interval": 2990, "value": "off", "timestamp": 1516990364301}, {"eventtype": "focus", "interval": 102, "value": "on", "timestamp": 1516990364403}], "data": [{"current_trial": 0, "trialdata": {"rt": 1653, "trial_type": "text", "internal_node_id": "0.0-0.0", "time_elapsed": 1656, "key_press": 32, "type": "INSTRUCTIONS", "trial_index": 0}, "uniqueid": "MTK2304:3VD82FOHKRV9DD8BNZUZHXIOEJJOCI", "dateTime": 1516985413372}, {"current_trial": 1, "trialdata": {"rt": 12958, "trial_type": "text", "internal_node_id": "0.0-1.0", "time_elapsed": 14617, "key_press": 32, "type": "INSTRUCTIONS", "trial_index": 1}, "uniqueid": "MTK2304:3VD82FOHKRV9DD8BNZUZHXIOEJJOCI", "dateTime": 1516985426332}, {"current_trial": 2, "trialdata": {"rt": [5373], "trial_type": "audio-test", "responses": ["ocean"], "internal_node_id": "0.0-2.0", "time_elapsed": 20000, "type": "AUDIO_TEST", "trial_index": 2}, "uniqueid": "MTK2304:3VD82FOHKRV9DD8BNZUZHXIOEJJOCI", "dateTime": 1516985431714}, {"current_trial": 3, "trialdata": {"rt": [5512], "trial_type": "audio-test", "responses": ["crystal"], "internal_node_id": "0.0-3.0", "time_elapsed": 25519, "type": "AUDIO_TEST", "trial_index": 3}, "uniqueid": "MTK2304:3VD82FOHKRV9DD8BNZUZHXIOEJJOCI", "dateTime": 1516985437233}, {"current_trial": 4, "trialdata": {"rt": [5104], "trial_type": "audio-test", "responses": ["spice"], "internal_node_id": "0.0-4.0", "time_elapsed": 30631, "type": "AUDIO_TEST", "trial_index": 4}, "uniqueid": "MTK2304:3VD82FOHKRV9DD8BNZUZHXIOEJJOCI", "dateTime": 1516985442345}, {"current_trial": 5, "trialdata": {"rt": 35518, "trial_type": "survey-text", "responses": "{\"Q0\":\"10pm\",\"Q1\":\"7am\",\"Q2\":\"5\"}", "internal_node_id": "0.0-5.0", "time_elapsed": 66905, "type": "SLEEP_SURVEY", "trial_index": 5}, "uniqueid": "MTK2304:3VD82FOHKRV9DD8BNZUZHXIOEJJOCI", "dateTime": 1516985478619}, {"current_trial": 6, "trialdata": {"rt": 45601, "trial_type": "text", "internal_node_id": "0.0-6.0", "time_elapsed": 113508, "key_press": 32, "type": "INSTRUCTIONS", "trial_index": 6}, "uniqueid": "MTK2304:3VD82FOHKRV9DD8BNZUZHXIOEJJOCI", "dateTime": 1516985525222}, {"current_trial": 7, "trialdata": {"rt": 239652, "trial_type": "text", "internal_node_id": "0.0-7.0", "time_elapsed": 353662, "key_press": 32, "type": "INSTRUCTIONS", "trial_index": 7}, "uniqueid": "MTK2304:3VD82FOHKRV9DD8BNZUZHXIOEJJOCI", "dateTime": 1516985765376}, {"current_trial": 8, "trialdata": {"rt": 12437, "trial_type": "text", "internal_node_id": "0.0-8.0", "time_elapsed": 366600, "key_press": 32, "type": "INSTRUCTIONS", "trial_index": 8}, "uniqueid": "MTK2304:3VD82FOHKRV9DD8BNZUZHXIOEJJOCI", "dateTime": 1516985778315}, {"current_trial": 9, "trialdata": {"rt": [4506, 10239, 13878, 16174], "trial_type": "math-distractor", "key_times": [2171, 2252, 4506, 8220, 8563, 10239, 13248, 13306, 13878, 15867, 15979, 16174, 17893], "responses": ["13", "25", "16", "12"], "num2": [9, 8, 4, 1, 2], "num3": [3, 8, 4, 3, 3], "conditions": [18, 1200, "v", 18000], "internal_node_id": "0.0-9.0", "key_presses": [49, 51, 13, 50, 53, 13, 49, 54, 13, 49, 50, 13, 49], "trial": 0, "time_elapsed": 385611, "type": "DISTRACTOR", "trial_index": 9, "num1": [1, 9, 8, 8, 6]}, "uniqueid": "MTK2304:3VD82FOHKRV9DD8BNZUZHXIOEJJOCI", "dateTime": 1516985797325}, {"current_trial": 10, "trialdata": {"rt": -1, "trial_type": "single-stim", "stimulus": "<p id=\"stim\">10</p>", "internal_node_id": "0.0-10.0-0.0", "time_elapsed": 388615, "key_press": -1, "trial_index": 10}, "uniqueid": "MTK2304:3VD82FOHKRV9DD8BNZUZHXIOEJJOCI", "dateTime": 1516985800330}, {"current_trial": 11, "trialdata": {"rt": -1, "trial_type": "single-stim", "stimulus": "<p id=\"stim\">9</p>", "internal_node_id": "0.0-10.0-1.0", "time_elapsed": 389618, "key_press": -1, "trial_index": 11}, "uniqueid": "MTK2304:3VD82FOHKRV9DD8BNZUZHXIOEJJOCI", "dateTime": 1516985801332}, {"current_trial": 12, "trialdata": {"rt": -1, "trial_type": "single-stim", "stimulus": "<p id=\"stim\">8</p>", "internal_node_id": "0.0-10.0-2.0", "time_elapsed": 390620, "key_press": -1, "trial_index": 12}, "uniqueid": "MTK2304:3VD82FOHKRV9DD8BNZUZHXIOEJJOCI", "dateTime": 1516985802334}, {"current_trial": 13, "trialdata": {"rt": -1, "trial_type": "single-stim", "stimulus": "<p id=\"stim\">7</p>", "internal_node_id": "0.0-10.0-3.0", "time_elapsed": 391622, "key_press": -1, "trial_index": 13}, "uniqueid": "MTK2304:3VD82FOHKRV9DD8BNZUZHXIOEJJOCI", "dateTime": 1516985803336}, {"current_trial": 14, "trialdata": {"rt": -1, "trial_type": "single-stim", "stimulus": "<p id=\"stim\">6</p>", "internal_node_id": "0.0-10.0-4.0", "time_elapsed": 392624, "key_press": -1, "trial_index": 14}, "uniqueid": "MTK2304:3VD82FOHKRV9DD8BNZUZHXIOEJJOCI", "dateTime": 1516985804338}, {"current_trial": 15, "trialdata": {"rt": -1, "trial_type": "single-stim", "stimulus": "<p id=\"stim\">5</p>", "internal_node_id": "0.0-10.0-5.0", "time_elapsed": 393626, "key_press": -1, "trial_index": 15}, "uniqueid": "MTK2304:3VD82FOHKRV9DD8BNZUZHXIOEJJOCI", "dateTime": 1516985805340}, {"current_trial": 16, "trialdata": {"rt": -1, "trial_type": "single-stim", "stimulus": "<p id=\"stim\">4</p>", "internal_node_id": "0.0-10.0-6.0", "time_elapsed": 394628, "key_press": -1, "trial_index": 16}, "uniqueid": "MTK2304:3VD82FOHKRV9DD8BNZUZHXIOEJJOCI", "dateTime": 1516985806342}, {"current_trial": 17, "trialdata": {"rt": -1, "trial_type": "single-stim", "stimulus": "<p id=\"stim\">3</p>", "internal_node_id": "0.0-10.0-7.0", "time_elapsed": 395631, "key_press": -1, "trial_index": 17}, "uniqueid": "MTK2304:3VD82FOHKRV9DD8BNZUZHXIOEJJOCI", "dateTime": 1516985807345}, {"current_trial": 18, "trialdata": {"rt": -1, "trial_type": "single-stim", "stimulus": "<p id=\"stim\">2</p>", "internal_node_id": "0.0-10.0-8.0", "time_elapsed": 396633, "key_press": -1, "trial_index": 18}, "uniqueid": "MTK2304:3VD82FOHKRV9DD8BNZUZHXIOEJJOCI", "dateTime": 1516985808347}, {"current_trial": 19, "trialdata": {"rt": -1, "trial_type": "single-stim", "stimulus": "<p id=\"stim\">1</p>", "internal_node_id": "0.0-10.0-9.0", "time_elapsed": 397635, "key_press": -1, "trial_index": 19}, "uniqueid": "MTK2304:3VD82FOHKRV9DD8BNZUZHXIOEJJOCI", "dateTime": 1516985809349}, {"current_trial": 20, "trialdata": {"rt": -1, "trial_type": "single-stim", "stimulus": "<p id=\"stim\">+</p>", "internal_node_id": "0.0-11.0-0.0", "time_elapsed": 399137, "key_press": -1, "type": "FIXATION", "trial_index": 20}, "uniqueid": "MTK2304:3VD82FOHKRV9DD8BNZUZHXIOEJJOCI", "dateTime": 1516985810851}, {"current_trial": 21, "trialdata": {"rt": -1, "trial_type": "single-stim", "word": "girl", "stimulus": "<p id=\"stim\">GIRL</p>", "conditions": [18, 1200, "v", 18000], "internal_node_id": "0.0-12.0", "trial": 0, "time_elapsed": 400339, "serialpos": 0, "key_press": -1, "wordID": 636, "type": "PRES_VIS", "trial_index": 21}, "uniqueid": "MTK2304:3VD82FOHKRV9DD8BNZUZHXIOEJJOCI", "dateTime": 1516985812053}, {"current_trial": 22, "trialdata": {"rt": -1, "trial_type": "single-stim", "word": "carriage", "stimulus": "<p id=\"stim\">CARRIAGE</p>", "conditions": [18, 1200, "v", 18000], "internal_node_id": "0.0-13.0", "trial": 0, "time_elapsed": 402673, "serialpos": 1, "key_press": -1, "wordID": 247, "type": "PRES_VIS", "trial_index": 22}, "uniqueid": "MTK2304:3VD82FOHKRV9DD8BNZUZHXIOEJJOCI", "dateTime": 1516985814387}, {"current_trial": 23, "trialdata": {"rt": -1, "trial_type": "single-stim", "word": "rabbit", "stimulus": "<p id=\"stim\">RABBIT</p>", "conditions": [18, 1200, "v", 18000], "internal_node_id": "0.0-14.0", "trial": 0, "time_elapsed": 404954, "serialpos": 2, "key_press": -1, "wordID": 1151, "type": "PRES_VIS", "trial_index": 23}, "uniqueid": "MTK2304:3VD82FOHKRV9DD8BNZUZHXIOEJJOCI", "dateTime": 1516985816668}, {"current_trial": 24, "trialdata": {"rt": -1, "trial_type": "single-stim", "word": "rifle", "stimulus": "<p id=\"stim\">RIFLE</p>", "conditions": [18, 1200, "v", 18000], "internal_node_id": "0.0-15.0", "trial": 0, "time_elapsed": 407103, "serialpos": 3, "key_press": -1, "wordID": 1191, "type": "PRES_VIS", "trial_index": 24}, "uniqueid": "MTK2304:3VD82FOHKRV9DD8BNZUZHXIOEJJOCI", "dateTime": 1516985818817}, {"current_trial": 25, "trialdata": {"rt": -1, "trial_type": "single-stim", "word": "yarn", "stimulus": "<p id=\"stim\">YARN</p>", "conditions": [18, 1200, "v", 18000], "internal_node_id": "0.0-16.0", "trial": 0, "time_elapsed": 409112, "serialpos": 4, "key_press": -1, "wordID": 1630, "type": "PRES_VIS", "trial_index": 25}, "uniqueid": "MTK2304:3VD82FOHKRV9DD8BNZUZHXIOEJJOCI", "dateTime": 1516985820826}, {"current_trial": 26, "trialdata": {"rt": -1, "trial_type": "single-stim", "word": "primate", "stimulus": "<p id=\"stim\">PRIMATE</p>", "conditions": [18, 1200, "v", 18000], "internal_node_id": "0.0-17.0", "trial": 0, "time_elapsed": 411341, "serialpos": 5, "key_press": -1, "wordID": 1122, "type": "PRES_VIS", "trial_index": 26}, "uniqueid": "MTK2304:3VD82FOHKRV9DD8BNZUZHXIOEJJOCI", "dateTime": 1516985823055}, {"current_trial": 27, "trialdata": {"rt": -1, "trial_type": "single-stim", "word": "sponge", "stimulus": "<p id=\"stim\">SPONGE</p>", "conditions": [18, 1200, "v", 18000], "internal_node_id": "0.0-18.0", "trial": 0, "time_elapsed": 413712, "serialpos": 6, "key_press": -1, "wordID": 1354, "type": "PRES_VIS", "trial_index": 27}, "uniqueid": "MTK2304:3VD82FOHKRV9DD8BNZUZHXIOEJJOCI", "dateTime": 1516985825426}, {"current_trial": 28, "trialdata": {"rt": -1, "trial_type": "single-stim", "word": "handbag", "stimulus": "<p id=\"stim\">HANDBAG</p>", "conditions": [18, 1200, "v", 18000], "internal_node_id": "0.0-19.0", "trial": 0, "time_elapsed": 416102, "serialpos": 7, "key_press": -1, "wordID": 683, "type": "PRES_VIS", "trial_index": 28}, "uniqueid": "MTK2304:3VD82FOHKRV9DD8BNZUZHXIOEJJOCI", "dateTime": 1516985827816}, {"current_trial": 29, "trialdata": {"rt": -1, "trial_type": "single-stim", "word": "glass", "stimulus": "<p id=\"stim\">GLASS</p>", "conditions": [18, 1200, "v", 18000], "internal_node_id": "0.0-20.0", "trial": 0, "time_elapsed": 418472, "serialpos": 8, "key_press": -1, "wordID": 638, "type": "PRES_VIS", "trial_index": 29}, "uniqueid": "MTK2304:3VD82FOHKRV9DD8BNZUZHXIOEJJOCI", "dateTime": 1516985830186}, {"current_trial": 30, "trialdata": {"rt": -1, "trial_type": "single-stim", "word": "convict", "stimulus": "<p id=\"stim\">CONVICT</p>", "conditions": [18, 1200, "v", 18000], "internal_node_id": "0.0-21.0", "trial": 0, "time_elapsed": 420847, "serialpos": 9, "key_press": -1, "wordID": 370, "type": "PRES_VIS", "trial_index": 30}, "uniqueid": "MTK2304:3VD82FOHKRV9DD8BNZUZHXIOEJJOCI", "dateTime": 1516985832561}, {"current_trial": 31, "trialdata": {"rt": -1, "trial_type": "single-stim", "word": "plaid", "stimulus": "<p id=\"stim\">PLAID</p>", "conditions": [18, 1200, "v", 18000], "internal_node_id": "0.0-22.0", "trial": 0, "time_elapsed": 422920, "serialpos": 10, "key_press": -1, "wordID": 1079, "type": "PRES_VIS", "trial_index": 31}, "uniqueid": "MTK2304:3VD82FOHKRV9DD8BNZUZHXIOEJJOCI", "dateTime": 1516985834634}, {"current_trial": 32, "trialdata": {"rt": -1, "trial_type": "single-stim", "word": "diver", "stimulus": "<p id=\"stim\">DIVER</p>", "conditions": [18, 1200, "v", 18000], "internal_node_id": "0.0-23.0", "trial": 0, "time_elapsed": 425216, "serialpos": 11, "key_press": -1, "wordID": 475, "type": "PRES_VIS", "trial_index": 32}, "uniqueid": "MTK2304:3VD82FOHKRV9DD8BNZUZHXIOEJJOCI", "dateTime": 1516985836930}, {"current_trial": 33, "trialdata": {"rt": -1, "trial_type": "single-stim", "word": "bullet", "stimulus": "<p id=\"stim\">BULLET</p>", "conditions": [18, 1200, "v", 18000], "internal_node_id": "0.0-24.0", "trial": 0, "time_elapsed": 427229, "serialpos": 12, "key_press": -1, "wordID": 193, "type": "PRES_VIS", "trial_index": 33}, "uniqueid": "MTK2304:3VD82FOHKRV9DD8BNZUZHXIOEJJOCI", "dateTime": 1516985838943}, {"current_trial": 34, "trialdata": {"rt": -1, "trial_type": "single-stim", "word": "honey", "stimulus": "<p id=\"stim\">HONEY</p>", "conditions": [18, 1200, "v", 18000], "internal_node_id": "0.0-25.0", "trial": 0, "time_elapsed": 429343, "serialpos": 13, "key_press": -1, "wordID": 712, "type": "PRES_VIS", "trial_index": 34}, "uniqueid": "MTK2304:3VD82FOHKRV9DD8BNZUZHXIOEJJOCI", "dateTime": 1516985841058}, {"current_trial": 35, "trialdata": {"rt": -1, "trial_type": "single-stim", "word": "gangster", "stimulus": "<p id=\"stim\">GANGSTER</p>", "conditions": [18, 1200, "v", 18000], "internal_node_id": "0.0-26.0", "trial": 0, "time_elapsed": 431656, "serialpos": 14, "key_press": -1, "wordID": 619, "type": "PRES_VIS", "trial_index": 35}, "uniqueid": "MTK2304:3VD82FOHKRV9DD8BNZUZHXIOEJJOCI", "dateTime": 1516985843371}, {"current_trial": 36, "trialdata": {"rt": -1, "trial_type": "single-stim", "word": "lettuce", "stimulus": "<p id=\"stim\">LETTUCE</p>", "conditions": [18, 1200, "v", 18000], "internal_node_id": "0.0-27.0", "trial": 0, "time_elapsed": 433733, "serialpos": 15, "key_press": -1, "wordID": 813, "type": "PRES_VIS", "trial_index": 36}, "uniqueid": "MTK2304:3VD82FOHKRV9DD8BNZUZHXIOEJJOCI", "dateTime": 1516985845447}, {"current_trial": 37, "trialdata": {"rt": -1, "trial_type": "single-stim", "word": "parrot", "stimulus": "<p id=\"stim\">PARROT</p>", "conditions": [18, 1200, "v", 18000], "internal_node_id": "0.0-28.0", "trial": 0, "time_elapsed": 436103, "serialpos": 16, "key_press": -1, "wordID": 1014, "type": "PRES_VIS", "trial_index": 37}, "uniqueid": "MTK2304:3VD82FOHKRV9DD8BNZUZHXIOEJJOCI", "dateTime": 1516985847817}, {"current_trial": 38, "trialdata": {"rt": -1, "trial_type": "single-stim", "word": "panther", "stimulus": "<p id=\"stim\">PANTHER</p>", "conditions": [18, 1200, "v", 18000], "internal_node_id": "0.0-29.0", "trial": 0, "time_elapsed": 438187, "serialpos": 17, "key_press": -1, "wordID": 1008, "type": "PRES_VIS", "trial_index": 38}, "uniqueid": "MTK2304:3VD82FOHKRV9DD8BNZUZHXIOEJJOCI", "dateTime": 1516985849901}, {"current_trial": 39, "trialdata": {"rt": -1, "trial_type": "single-stim", "stimulus": "", "internal_node_id": "0.0-30.0-0.0", "time_elapsed": 440488, "key_press": -1, "type": "PRE_RECALL_DELAY", "trial_index": 39}, "uniqueid": "MTK2304:3VD82FOHKRV9DD8BNZUZHXIOEJJOCI", "dateTime": 1516985852202}, {"current_trial": 40, "trialdata": {"rt": -1000, "trial_type": "single-audio", "stimulus": "/static/audio/400Hz.wav", "internal_node_id": "0.0-31.0", "time_elapsed": 440991, "key_press": -1, "type": "PRE_RECALL_ALERT", "trial_index": 40}, "uniqueid": "MTK2304:3VD82FOHKRV9DD8BNZUZHXIOEJJOCI", "dateTime": 1516985852705}, {"current_trial": 41, "trialdata": {"rt": [3038, 5537, 13612, 21282, 31883, 42198, 51013, 56646, 57335, 58169], "recwords": ["girl", "gangster", "primate", "rifle", "carriage", "diver", "prism", "bullet", "", ""], "key_times": [2334, 2413, 2555, 2662, 3038, 4132, 4361, 4486, 4643, 4899, 5156, 5300, 5398, 5537, 12382, 12570, 12695, 12912, 13004, 13315, 13407, 13612, 19830, 19911, 20188, 20328, 20850, 21282, 29284, 29516, 29751, 29919, 30027, 30194, 30481, 30563, 31883, 41244, 41508, 41684, 41907, 41992, 42198, 50003, 50131, 50325, 50477, 50619, 51013, 55379, 55571, 55810, 55981, 56083, 56253, 56646, 57335, 58169], "trial_type": "free-recall", "conditions": [18, 1200, "v", 18000], "internal_node_id": "0.0-32.0-0.0", "key_presses": [71, 73, 82, 76, 13, 71, 65, 78, 71, 83, 84, 69, 82, 13, 80, 82, 73, 77, 65, 84, 69, 13, 82, 73, 70, 76, 69, 13, 67, 65, 82, 82, 73, 65, 71, 69, 13, 68, 73, 86, 69, 82, 13, 80, 82, 73, 83, 77, 13, 66, 85, 76, 76, 69, 84, 13, 13, 13], "trial": 0, "time_elapsed": 500998, "type": "FREE_RECALL", "trial_index": 41}, "uniqueid": "MTK2304:3VD82FOHKRV9DD8BNZUZHXIOEJJOCI", "dateTime": 1516985912716}, {"current_trial": 42, "trialdata": {"rt": 82491, "trial_type": "text", "internal_node_id": "0.0-33.0", "time_elapsed": 585495, "key_press": 32, "type": "INSTRUCTIONS", "trial_index": 42}, "uniqueid": "MTK2304:3VD82FOHKRV9DD8BNZUZHXIOEJJOCI", "dateTime": 1516985997210}, {"current_trial": 43, "trialdata": {"rt": [2948, 4946, 7213, 10489, 12540, 14421, 16479], "trial_type": "math-distractor", "key_times": [2161, 2198, 2948, 4745, 4826, 4946, 6803, 7083, 7213, 8798, 9593, 10221, 10489, 12050, 12278, 12540, 14048, 14149, 14421, 16159, 16343, 16479], "responses": ["18", "21", "14", "8", "18", "12", "11"], "num2": [3, 4, 4, 1, 7, 5, 4, 9], "num3": [8, 8, 6, 2, 5, 6, 3, 6], "conditions": [18, 1200, "v", 18000], "internal_node_id": "0.0-34.0", "key_presses": [49, 56, 13, 50, 49, 13, 49, 52, 13, 49, 8, 56, 13, 49, 56, 13, 49, 50, 13, 49, 49, 13], "trial": 1, "time_elapsed": 605500, "type": "DISTRACTOR", "trial_index": 43, "num1": [7, 9, 4, 5, 6, 1, 4, 7]}, "uniqueid": "MTK2304:3VD82FOHKRV9DD8BNZUZHXIOEJJOCI", "dateTime": 1516986017214}, {"current_trial": 44, "trialdata": {"rt": -1, "trial_type": "single-stim", "stimulus": "<p id=\"stim\">10</p>", "internal_node_id": "0.0-35.0-0.0", "time_elapsed": 608502, "key_press": -1, "trial_index": 44}, "uniqueid": "MTK2304:3VD82FOHKRV9DD8BNZUZHXIOEJJOCI", "dateTime": 1516986020217}, {"current_trial": 45, "trialdata": {"rt": -1, "trial_type": "single-stim", "stimulus": "<p id=\"stim\">9</p>", "internal_node_id": "0.0-35.0-1.0", "time_elapsed": 609504, "key_press": -1, "trial_index": 45}, "uniqueid": "MTK2304:3VD82FOHKRV9DD8BNZUZHXIOEJJOCI", "dateTime": 1516986021219}, {"current_trial": 46, "trialdata": {"rt": -1, "trial_type": "single-stim", "stimulus": "<p id=\"stim\">8</p>", "internal_node_id": "0.0-35.0-2.0", "time_elapsed": 610506, "key_press": -1, "trial_index": 46}, "uniqueid": "MTK2304:3VD82FOHKRV9DD8BNZUZHXIOEJJOCI", "dateTime": 1516986022221}, {"current_trial": 47, "trialdata": {"rt": -1, "trial_type": "single-stim", "stimulus": "<p id=\"stim\">7</p>", "internal_node_id": "0.0-35.0-3.0", "time_elapsed": 611508, "key_press": -1, "trial_index": 47}, "uniqueid": "MTK2304:3VD82FOHKRV9DD8BNZUZHXIOEJJOCI", "dateTime": 1516986023223}, {"current_trial": 48, "trialdata": {"rt": -1, "trial_type": "single-stim", "stimulus": "<p id=\"stim\">6</p>", "internal_node_id": "0.0-35.0-4.0", "time_elapsed": 612511, "key_press": -1, "trial_index": 48}, "uniqueid": "MTK2304:3VD82FOHKRV9DD8BNZUZHXIOEJJOCI", "dateTime": 1516986024225}, {"current_trial": 49, "trialdata": {"rt": -1, "trial_type": "single-stim", "stimulus": "<p id=\"stim\">5</p>", "internal_node_id": "0.0-35.0-5.0", "time_elapsed": 613513, "key_press": -1, "trial_index": 49}, "uniqueid": "MTK2304:3VD82FOHKRV9DD8BNZUZHXIOEJJOCI", "dateTime": 1516986025227}, {"current_trial": 50, "trialdata": {"rt": -1, "trial_type": "single-stim", "stimulus": "<p id=\"stim\">4</p>", "internal_node_id": "0.0-35.0-6.0", "time_elapsed": 614515, "key_press": -1, "trial_index": 50}, "uniqueid": "MTK2304:3VD82FOHKRV9DD8BNZUZHXIOEJJOCI", "dateTime": 1516986026229}, {"current_trial": 51, "trialdata": {"rt": -1, "trial_type": "single-stim", "stimulus": "<p id=\"stim\">3</p>", "internal_node_id": "0.0-35.0-7.0", "time_elapsed": 615517, "key_press": -1, "trial_index": 51}, "uniqueid": "MTK2304:3VD82FOHKRV9DD8BNZUZHXIOEJJOCI", "dateTime": 1516986027231}, {"current_trial": 52, "trialdata": {"rt": -1, "trial_type": "single-stim", "stimulus": "<p id=\"stim\">2</p>", "internal_node_id": "0.0-35.0-8.0", "time_elapsed": 616519, "key_press": -1, "trial_index": 52}, "uniqueid": "MTK2304:3VD82FOHKRV9DD8BNZUZHXIOEJJOCI", "dateTime": 1516986028233}, {"current_trial": 53, "trialdata": {"rt": -1, "trial_type": "single-stim", "stimulus": "<p id=\"stim\">1</p>", "internal_node_id": "0.0-35.0-9.0", "time_elapsed": 617521, "key_press": -1, "trial_index": 53}, "uniqueid": "MTK2304:3VD82FOHKRV9DD8BNZUZHXIOEJJOCI", "dateTime": 1516986029235}, {"current_trial": 54, "trialdata": {"rt": -1, "trial_type": "single-stim", "stimulus": "<p id=\"stim\">+</p>", "internal_node_id": "0.0-36.0-0.0", "time_elapsed": 619023, "key_press": -1, "type": "FIXATION", "trial_index": 54}, "uniqueid": "MTK2304:3VD82FOHKRV9DD8BNZUZHXIOEJJOCI", "dateTime": 1516986030737}, {"current_trial": 55, "trialdata": {"rt": -1, "trial_type": "single-stim", "word": "label", "stimulus": "<p id=\"stim\">LABEL</p>", "conditions": [18, 1200, "v", 18000], "internal_node_id": "0.0-37.0", "trial": 1, "time_elapsed": 620225, "serialpos": 0, "key_press": -1, "wordID": 789, "type": "PRES_VIS", "trial_index": 55}, "uniqueid": "MTK2304:3VD82FOHKRV9DD8BNZUZHXIOEJJOCI", "dateTime": 1516986031939}, {"current_trial": 56, "trialdata": {"rt": -1, "trial_type": "single-stim", "word": "fleet", "stimulus": "<p id=\"stim\">FLEET</p>", "conditions": [18, 1200, "v", 18000], "internal_node_id": "0.0-38.0", "trial": 1, "time_elapsed": 622333, "serialpos": 1, "key_press": -1, "wordID": 577, "type": "PRES_VIS", "trial_index": 56}, "uniqueid": "MTK2304:3VD82FOHKRV9DD8BNZUZHXIOEJJOCI", "dateTime": 1516986034047}, {"current_trial": 57, "trialdata": {"rt": -1, "trial_type": "single-stim", "word": "body", "stimulus": "<p id=\"stim\">BODY</p>", "conditions": [18, 1200, "v", 18000], "internal_node_id": "0.0-39.0", "trial": 1, "time_elapsed": 624463, "serialpos": 2, "key_press": -1, "wordID": 144, "type": "PRES_VIS", "trial_index": 57}, "uniqueid": "MTK2304:3VD82FOHKRV9DD8BNZUZHXIOEJJOCI", "dateTime": 1516986036177}, {"current_trial": 58, "trialdata": {"rt": -1, "trial_type": "single-stim", "word": "infant", "stimulus": "<p id=\"stim\">INFANT</p>", "conditions": [18, 1200, "v", 18000], "internal_node_id": "0.0-40.0", "trial": 1, "time_elapsed": 626629, "serialpos": 3, "key_press": -1, "wordID": 736, "type": "PRES_VIS", "trial_index": 58}, "uniqueid": "MTK2304:3VD82FOHKRV9DD8BNZUZHXIOEJJOCI", "dateTime": 1516986038343}, {"current_trial": 59, "trialdata": {"rt": -1, "trial_type": "single-stim", "word": "temple", "stimulus": "<p id=\"stim\">TEMPLE</p>", "conditions": [18, 1200, "v", 18000], "internal_node_id": "0.0-41.0", "trial": 1, "time_elapsed": 628830, "serialpos": 4, "key_press": -1, "wordID": 1447, "type": "PRES_VIS", "trial_index": 59}, "uniqueid": "MTK2304:3VD82FOHKRV9DD8BNZUZHXIOEJJOCI", "dateTime": 1516986040544}, {"current_trial": 60, "trialdata": {"rt": -1, "trial_type": "single-stim", "word": "bouquet", "stimulus": "<p id=\"stim\">BOUQUET</p>", "conditions": [18, 1200, "v", 18000], "internal_node_id": "0.0-42.0", "trial": 1, "time_elapsed": 630982, "serialpos": 5, "key_press": -1, "wordID": 156, "type": "PRES_VIS", "trial_index": 60}, "uniqueid": "MTK2304:3VD82FOHKRV9DD8BNZUZHXIOEJJOCI", "dateTime": 1516986042696}, {"current_trial": 61, "trialdata": {"rt": -1, "trial_type": "single-stim", "word": "mister", "stimulus": "<p id=\"stim\">MISTER</p>", "conditions": [18, 1200, "v", 18000], "internal_node_id": "0.0-43.0", "trial": 1, "time_elapsed": 633017, "serialpos": 6, "key_press": -1, "wordID": 900, "type": "PRES_VIS", "trial_index": 61}, "uniqueid": "MTK2304:3VD82FOHKRV9DD8BNZUZHXIOEJJOCI", "dateTime": 1516986044731}, {"current_trial": 62, "trialdata": {"rt": -1, "trial_type": "single-stim", "word": "paper", "stimulus": "<p id=\"stim\">PAPER</p>", "conditions": [18, 1200, "v", 18000], "internal_node_id": "0.0-44.0", "trial": 1, "time_elapsed": 635264, "serialpos": 7, "key_press": -1, "wordID": 1010, "type": "PRES_VIS", "trial_index": 62}, "uniqueid": "MTK2304:3VD82FOHKRV9DD8BNZUZHXIOEJJOCI", "dateTime": 1516986046978}, {"current_trial": 63, "trialdata": {"rt": -1, "trial_type": "single-stim", "word": "crab", "stimulus": "<p id=\"stim\">CRAB</p>", "conditions": [18, 1200, "v", 18000], "internal_node_id": "0.0-45.0", "trial": 1, "time_elapsed": 637573, "serialpos": 8, "key_press": -1, "wordID": 396, "type": "PRES_VIS", "trial_index": 63}, "uniqueid": "MTK2304:3VD82FOHKRV9DD8BNZUZHXIOEJJOCI", "dateTime": 1516986049287}, {"current_trial": 64, "trialdata": {"rt": -1, "trial_type": "single-stim", "word": "truck", "stimulus": "<p id=\"stim\">TRUCK</p>", "conditions": [18, 1200, "v", 18000], "internal_node_id": "0.0-46.0", "trial": 1, "time_elapsed": 639917, "serialpos": 9, "key_press": -1, "wordID": 1511, "type": "PRES_VIS", "trial_index": 64}, "uniqueid": "MTK2304:3VD82FOHKRV9DD8BNZUZHXIOEJJOCI", "dateTime": 1516986051631}, {"current_trial": 65, "trialdata": {"rt": -1, "trial_type": "single-stim", "word": "frame", "stimulus": "<p id=\"stim\">FRAME</p>", "conditions": [18, 1200, "v", 18000], "internal_node_id": "0.0-47.0", "trial": 1, "time_elapsed": 642023, "serialpos": 10, "key_press": -1, "wordID": 599, "type": "PRES_VIS", "trial_index": 65}, "uniqueid": "MTK2304:3VD82FOHKRV9DD8BNZUZHXIOEJJOCI", "dateTime": 1516986053737}, {"current_trial": 66, "trialdata": {"rt": -1, "trial_type": "single-stim", "word": "braces", "stimulus": "<p id=\"stim\">BRACES</p>", "conditions": [18, 1200, "v", 18000], "internal_node_id": "0.0-48.0", "trial": 1, "time_elapsed": 644383, "serialpos": 11, "key_press": -1, "wordID": 163, "type": "PRES_VIS", "trial_index": 66}, "uniqueid": "MTK2304:3VD82FOHKRV9DD8BNZUZHXIOEJJOCI", "dateTime": 1516986056097}, {"current_trial": 67, "trialdata": {"rt": -1, "trial_type": "single-stim", "word": "sword", "stimulus": "<p id=\"stim\">SWORD</p>", "conditions": [18, 1200, "v", 18000], "internal_node_id": "0.0-49.0", "trial": 1, "time_elapsed": 646781, "serialpos": 12, "key_press": -1, "wordID": 1422, "type": "PRES_VIS", "trial_index": 67}, "uniqueid": "MTK2304:3VD82FOHKRV9DD8BNZUZHXIOEJJOCI", "dateTime": 1516986058495}, {"current_trial": 68, "trialdata": {"rt": -1, "trial_type": "single-stim", "word": "motel", "stimulus": "<p id=\"stim\">MOTEL</p>", "conditions": [18, 1200, "v", 18000], "internal_node_id": "0.0-50.0", "trial": 1, "time_elapsed": 649053, "serialpos": 13, "key_press": -1, "wordID": 918, "type": "PRES_VIS", "trial_index": 68}, "uniqueid": "MTK2304:3VD82FOHKRV9DD8BNZUZHXIOEJJOCI", "dateTime": 1516986060772}, {"current_trial": 69, "trialdata": {"rt": -1, "trial_type": "single-stim", "word": "mars", "stimulus": "<p id=\"stim\">MARS</p>", "conditions": [18, 1200, "v", 18000], "internal_node_id": "0.0-51.0", "trial": 1, "time_elapsed": 651110, "serialpos": 14, "key_press": -1, "wordID": 872, "type": "PRES_VIS", "trial_index": 69}, "uniqueid": "MTK2304:3VD82FOHKRV9DD8BNZUZHXIOEJJOCI", "dateTime": 1516986062824}, {"current_trial": 70, "trialdata": {"rt": -1, "trial_type": "single-stim", "word": "lodge", "stimulus": "<p id=\"stim\">LODGE</p>", "conditions": [18, 1200, "v", 18000], "internal_node_id": "0.0-52.0", "trial": 1, "time_elapsed": 653358, "serialpos": 15, "key_press": -1, "wordID": 838, "type": "PRES_VIS", "trial_index": 70}, "uniqueid": "MTK2304:3VD82FOHKRV9DD8BNZUZHXIOEJJOCI", "dateTime": 1516986065072}, {"current_trial": 71, "trialdata": {"rt": -1, "trial_type": "single-stim", "word": "brother", "stimulus": "<p id=\"stim\">BROTHER</p>", "conditions": [18, 1200, "v", 18000], "internal_node_id": "0.0-53.0", "trial": 1, "time_elapsed": 655629, "serialpos": 16, "key_press": -1, "wordID": 178, "type": "PRES_VIS", "trial_index": 71}, "uniqueid": "MTK2304:3VD82FOHKRV9DD8BNZUZHXIOEJJOCI", "dateTime": 1516986067343}, {"current_trial": 72, "trialdata": {"rt": -1, "trial_type": "single-stim", "word": "knapsack", "stimulus": "<p id=\"stim\">KNAPSACK</p>", "conditions": [18, 1200, "v", 18000], "internal_node_id": "0.0-54.0", "trial": 1, "time_elapsed": 658004, "serialpos": 17, "key_press": -1, "wordID": 782, "type": "PRES_VIS", "trial_index": 72}, "uniqueid": "MTK2304:3VD82FOHKRV9DD8BNZUZHXIOEJJOCI", "dateTime": 1516986069718}, {"current_trial": 73, "trialdata": {"rt": -1, "trial_type": "single-stim", "stimulus": "", "internal_node_id": "0.0-55.0-0.0", "time_elapsed": 660279, "key_press": -1, "type": "PRE_RECALL_DELAY", "trial_index": 73}, "uniqueid": "MTK2304:3VD82FOHKRV9DD8BNZUZHXIOEJJOCI", "dateTime": 1516986071993}, {"current_trial": 74, "trialdata": {"rt": -1000, "trial_type": "single-audio", "stimulus": "/static/audio/400Hz.wav", "internal_node_id": "0.0-56.0", "time_elapsed": 660781, "key_press": -1, "type": "PRE_RECALL_ALERT", "trial_index": 74}, "uniqueid": "MTK2304:3VD82FOHKRV9DD8BNZUZHXIOEJJOCI", "dateTime": 1516986072495}, {"current_trial": 75, "trialdata": {"rt": [4594, 6220, 7546, 34886, 36522, 47696], "recwords": ["knapsack", "crab", "race", "fleet", "body", "baby"], "key_times": [2017, 2224, 2412, 2583, 3154, 3356, 3509, 4019, 4198, 4305, 4594, 5371, 5585, 5768, 5925, 6220, 6818, 7022, 7272, 7363, 7546, 34049, 34139, 34349, 34529, 34677, 34886, 35381, 35665, 35862, 35995, 36522, 46866, 46960, 47084, 47323, 47696], "trial_type": "free-recall", "conditions": [18, 1200, "v", 18000], "internal_node_id": "0.0-57.0-0.0", "key_presses": [75, 78, 65, 80, 83, 65, 75, 8, 67, 75, 13, 67, 82, 65, 66, 13, 82, 65, 67, 69, 13, 70, 76, 69, 69, 84, 13, 66, 79, 68, 89, 13, 66, 65, 66, 89, 13], "trial": 1, "time_elapsed": 720787, "type": "FREE_RECALL", "trial_index": 75}, "uniqueid": "MTK2304:3VD82FOHKRV9DD8BNZUZHXIOEJJOCI", "dateTime": 1516986132504}, {"current_trial": 76, "trialdata": {"rt": 118049, "trial_type": "text", "internal_node_id": "0.0-58.0", "time_elapsed": 840841, "key_press": 32, "type": "INSTRUCTIONS", "trial_index": 76}, "uniqueid": "MTK2304:3VD82FOHKRV9DD8BNZUZHXIOEJJOCI", "dateTime": 1516986252555}, {"current_trial": 77, "trialdata": {"rt": [2515, 4334, 6327, 8273, 10295, 12846, 15891, 17804, 20363, 22447], "trial_type": "math-distractor", "key_times": [2131, 2211, 2515, 4206, 4334, 5854, 6121, 6327, 7998, 8175, 8273, 9686, 9973, 10295, 12355, 12701, 12846, 15587, 15783, 15891, 17258, 17437, 17804, 20079, 20204, 20363, 21859, 22160, 22447, 23795], "responses": ["17", "7", "14", "11", "17", "16", "22", "11", "21", "17"], "num2": [7, 5, 7, 2, 7, 2, 5, 1, 9, 6, 1], "num3": [7, 1, 4, 6, 7, 8, 8, 6, 8, 5, 9], "conditions": [24, 1600, "v", 24000], "internal_node_id": "0.0-59.0", "key_presses": [49, 55, 13, 55, 13, 49, 52, 13, 49, 49, 13, 49, 55, 13, 49, 54, 13, 50, 50, 13, 49, 49, 13, 50, 49, 13, 49, 55, 13, 49], "trial": 2, "time_elapsed": 865846, "type": "DISTRACTOR", "trial_index": 77, "num1": [3, 1, 3, 3, 3, 6, 9, 4, 4, 6, 3]}, "uniqueid": "MTK2304:3VD82FOHKRV9DD8BNZUZHXIOEJJOCI", "dateTime": 1516986277560}, {"current_trial": 78, "trialdata": {"rt": -1, "trial_type": "single-stim", "stimulus": "<p id=\"stim\">10</p>", "internal_node_id": "0.0-60.0-0.0", "time_elapsed": 868849, "key_press": -1, "trial_index": 78}, "uniqueid": "MTK2304:3VD82FOHKRV9DD8BNZUZHXIOEJJOCI", "dateTime": 1516986280564}, {"current_trial": 79, "trialdata": {"rt": -1, "trial_type": "single-stim", "stimulus": "<p id=\"stim\">9</p>", "internal_node_id": "0.0-60.0-1.0", "time_elapsed": 869852, "key_press": -1, "trial_index": 79}, "uniqueid": "MTK2304:3VD82FOHKRV9DD8BNZUZHXIOEJJOCI", "dateTime": 1516986281566}, {"current_trial": 80, "trialdata": {"rt": -1, "trial_type": "single-stim", "stimulus": "<p id=\"stim\">8</p>", "internal_node_id": "0.0-60.0-2.0", "time_elapsed": 870854, "key_press": -1, "trial_index": 80}, "uniqueid": "MTK2304:3VD82FOHKRV9DD8BNZUZHXIOEJJOCI", "dateTime": 1516986282568}, {"current_trial": 81, "trialdata": {"rt": -1, "trial_type": "single-stim", "stimulus": "<p id=\"stim\">7</p>", "internal_node_id": "0.0-60.0-3.0", "time_elapsed": 871856, "key_press": -1, "trial_index": 81}, "uniqueid": "MTK2304:3VD82FOHKRV9DD8BNZUZHXIOEJJOCI", "dateTime": 1516986283570}, {"current_trial": 82, "trialdata": {"rt": -1, "trial_type": "single-stim", "stimulus": "<p id=\"stim\">6</p>", "internal_node_id": "0.0-60.0-4.0", "time_elapsed": 872858, "key_press": -1, "trial_index": 82}, "uniqueid": "MTK2304:3VD82FOHKRV9DD8BNZUZHXIOEJJOCI", "dateTime": 1516986284572}, {"current_trial": 83, "trialdata": {"rt": -1, "trial_type": "single-stim", "stimulus": "<p id=\"stim\">5</p>", "internal_node_id": "0.0-60.0-5.0", "time_elapsed": 873860, "key_press": -1, "trial_index": 83}, "uniqueid": "MTK2304:3VD82FOHKRV9DD8BNZUZHXIOEJJOCI", "dateTime": 1516986285574}, {"current_trial": 84, "trialdata": {"rt": -1, "trial_type": "single-stim", "stimulus": "<p id=\"stim\">4</p>", "internal_node_id": "0.0-60.0-6.0", "time_elapsed": 874862, "key_press": -1, "trial_index": 84}, "uniqueid": "MTK2304:3VD82FOHKRV9DD8BNZUZHXIOEJJOCI", "dateTime": 1516986286576}, {"current_trial": 85, "trialdata": {"rt": -1, "trial_type": "single-stim", "stimulus": "<p id=\"stim\">3</p>", "internal_node_id": "0.0-60.0-7.0", "time_elapsed": 875864, "key_press": -1, "trial_index": 85}, "uniqueid": "MTK2304:3VD82FOHKRV9DD8BNZUZHXIOEJJOCI", "dateTime": 1516986287578}, {"current_trial": 86, "trialdata": {"rt": -1, "trial_type": "single-stim", "stimulus": "<p id=\"stim\">2</p>", "internal_node_id": "0.0-60.0-8.0", "time_elapsed": 876867, "key_press": -1, "trial_index": 86}, "uniqueid": "MTK2304:3VD82FOHKRV9DD8BNZUZHXIOEJJOCI", "dateTime": 1516986288581}, {"current_trial": 87, "trialdata": {"rt": -1, "trial_type": "single-stim", "stimulus": "<p id=\"stim\">1</p>", "internal_node_id": "0.0-60.0-9.0", "time_elapsed": 877868, "key_press": -1, "trial_index": 87}, "uniqueid": "MTK2304:3VD82FOHKRV9DD8BNZUZHXIOEJJOCI", "dateTime": 1516986289582}, {"current_trial": 88, "trialdata": {"rt": -1, "trial_type": "single-stim", "stimulus": "<p id=\"stim\">+</p>", "internal_node_id": "0.0-61.0-0.0", "time_elapsed": 879370, "key_press": -1, "type": "FIXATION", "trial_index": 88}, "uniqueid": "MTK2304:3VD82FOHKRV9DD8BNZUZHXIOEJJOCI", "dateTime": 1516986291084}, {"current_trial": 89, "trialdata": {"rt": -1, "trial_type": "single-stim", "word": "cigar", "stimulus": "<p id=\"stim\">CIGAR</p>", "conditions": [24, 1600, "v", 24000], "internal_node_id": "0.0-62.0", "trial": 2, "time_elapsed": 880972, "serialpos": 0, "key_press": -1, "wordID": 307, "type": "PRES_VIS", "trial_index": 89}, "uniqueid": "MTK2304:3VD82FOHKRV9DD8BNZUZHXIOEJJOCI", "dateTime": 1516986292686}, {"current_trial": 90, "trialdata": {"rt": -1, "trial_type": "single-stim", "word": "radish", "stimulus": "<p id=\"stim\">RADISH</p>", "conditions": [24, 1600, "v", 24000], "internal_node_id": "0.0-63.0", "trial": 2, "time_elapsed": 883564, "serialpos": 1, "key_press": -1, "wordID": 1157, "type": "PRES_VIS", "trial_index": 90}, "uniqueid": "MTK2304:3VD82FOHKRV9DD8BNZUZHXIOEJJOCI", "dateTime": 1516986295278}, {"current_trial": 91, "trialdata": {"rt": -1, "trial_type": "single-stim", "word": "cod", "stimulus": "<p id=\"stim\">COD</p>", "conditions": [24, 1600, "v", 24000], "internal_node_id": "0.0-64.0", "trial": 2, "time_elapsed": 886280, "serialpos": 2, "key_press": -1, "wordID": 339, "type": "PRES_VIS", "trial_index": 91}, "uniqueid": "MTK2304:3VD82FOHKRV9DD8BNZUZHXIOEJJOCI", "dateTime": 1516986297995}, {"current_trial": 92, "trialdata": {"rt": -1, "trial_type": "single-stim", "word": "europe", "stimulus": "<p id=\"stim\">EUROPE</p>", "conditions": [24, 1600, "v", 24000], "internal_node_id": "0.0-65.0", "trial": 2, "time_elapsed": 888695, "serialpos": 3, "key_press": -1, "wordID": 540, "type": "PRES_VIS", "trial_index": 92}, "uniqueid": "MTK2304:3VD82FOHKRV9DD8BNZUZHXIOEJJOCI", "dateTime": 1516986300409}, {"current_trial": 93, "trialdata": {"rt": -1, "trial_type": "single-stim", "word": "mailman", "stimulus": "<p id=\"stim\">MAILMAN</p>", "conditions": [24, 1600, "v", 24000], "internal_node_id": "0.0-66.0", "trial": 2, "time_elapsed": 891316, "serialpos": 4, "key_press": -1, "wordID": 857, "type": "PRES_VIS", "trial_index": 93}, "uniqueid": "MTK2304:3VD82FOHKRV9DD8BNZUZHXIOEJJOCI", "dateTime": 1516986303030}, {"current_trial": 94, "trialdata": {"rt": -1, "trial_type": "single-stim", "word": "witness", "stimulus": "<p id=\"stim\">WITNESS</p>", "conditions": [24, 1600, "v", 24000], "internal_node_id": "0.0-67.0", "trial": 2, "time_elapsed": 893955, "serialpos": 5, "key_press": -1, "wordID": 1617, "type": "PRES_VIS", "trial_index": 94}, "uniqueid": "MTK2304:3VD82FOHKRV9DD8BNZUZHXIOEJJOCI", "dateTime": 1516986305670}, {"current_trial": 95, "trialdata": {"rt": -1, "trial_type": "single-stim", "word": "monster", "stimulus": "<p id=\"stim\">MONSTER</p>", "conditions": [24, 1600, "v", 24000], "internal_node_id": "0.0-68.0", "trial": 2, "time_elapsed": 896745, "serialpos": 6, "key_press": -1, "wordID": 911, "type": "PRES_VIS", "trial_index": 95}, "uniqueid": "MTK2304:3VD82FOHKRV9DD8BNZUZHXIOEJJOCI", "dateTime": 1516986308459}, {"current_trial": 96, "trialdata": {"rt": -1, "trial_type": "single-stim", "word": "supper", "stimulus": "<p id=\"stim\">SUPPER</p>", "conditions": [24, 1600, "v", 24000], "internal_node_id": "0.0-69.0", "trial": 2, "time_elapsed": 899475, "serialpos": 7, "key_press": -1, "wordID": 1410, "type": "PRES_VIS", "trial_index": 96}, "uniqueid": "MTK2304:3VD82FOHKRV9DD8BNZUZHXIOEJJOCI", "dateTime": 1516986311189}, {"current_trial": 97, "trialdata": {"rt": -1, "trial_type": "single-stim", "word": "passage", "stimulus": "<p id=\"stim\">PASSAGE</p>", "conditions": [24, 1600, "v", 24000], "internal_node_id": "0.0-70.0", "trial": 2, "time_elapsed": 901899, "serialpos": 8, "key_press": -1, "wordID": 1018, "type": "PRES_VIS", "trial_index": 97}, "uniqueid": "MTK2304:3VD82FOHKRV9DD8BNZUZHXIOEJJOCI", "dateTime": 1516986313613}, {"current_trial": 98, "trialdata": {"rt": -1, "trial_type": "single-stim", "word": "onion", "stimulus": "<p id=\"stim\">ONION</p>", "conditions": [24, 1600, "v", 24000], "internal_node_id": "0.0-71.0", "trial": 2, "time_elapsed": 904595, "serialpos": 9, "key_press": -1, "wordID": 976, "type": "PRES_VIS", "trial_index": 98}, "uniqueid": "MTK2304:3VD82FOHKRV9DD8BNZUZHXIOEJJOCI", "dateTime": 1516986316309}, {"current_trial": 99, "trialdata": {"rt": -1, "trial_type": "single-stim", "word": "lagoon", "stimulus": "<p id=\"stim\">LAGOON</p>", "conditions": [24, 1600, "v", 24000], "internal_node_id": "0.0-72.0", "trial": 2, "time_elapsed": 907025, "serialpos": 10, "key_press": -1, "wordID": 794, "type": "PRES_VIS", "trial_index": 99}, "uniqueid": "MTK2304:3VD82FOHKRV9DD8BNZUZHXIOEJJOCI", "dateTime": 1516986318739}, {"current_trial": 100, "trialdata": {"rt": -1, "trial_type": "single-stim", "word": "river", "stimulus": "<p id=\"stim\">RIVER</p>", "conditions": [24, 1600, "v", 24000], "internal_node_id": "0.0-73.0", "trial": 2, "time_elapsed": 909536, "serialpos": 11, "key_press": -1, "wordID": 1193, "type": "PRES_VIS", "trial_index": 100}, "uniqueid": "MTK2304:3VD82FOHKRV9DD8BNZUZHXIOEJJOCI", "dateTime": 1516986321250}, {"current_trial": 101, "trialdata": {"rt": -1, "trial_type": "single-stim", "word": "liver", "stimulus": "<p id=\"stim\">LIVER</p>", "conditions": [24, 1600, "v", 24000], "internal_node_id": "0.0-74.0", "trial": 2, "time_elapsed": 911943, "serialpos": 12, "key_press": -1, "wordID": 832, "type": "PRES_VIS", "trial_index": 101}, "uniqueid": "MTK2304:3VD82FOHKRV9DD8BNZUZHXIOEJJOCI", "dateTime": 1516986323657}, {"current_trial": 102, "trialdata": {"rt": -1, "trial_type": "single-stim", "word": "marrow", "stimulus": "<p id=\"stim\">MARROW</p>", "conditions": [24, 1600, "v", 24000], "internal_node_id": "0.0-75.0", "trial": 2, "time_elapsed": 914505, "serialpos": 13, "key_press": -1, "wordID": 871, "type": "PRES_VIS", "trial_index": 102}, "uniqueid": "MTK2304:3VD82FOHKRV9DD8BNZUZHXIOEJJOCI", "dateTime": 1516986326219}, {"current_trial": 103, "trialdata": {"rt": -1, "trial_type": "single-stim", "word": "leg", "stimulus": "<p id=\"stim\">LEG</p>", "conditions": [24, 1600, "v", 24000], "internal_node_id": "0.0-76.0", "trial": 2, "time_elapsed": 917109, "serialpos": 14, "key_press": -1, "wordID": 808, "type": "PRES_VIS", "trial_index": 103}, "uniqueid": "MTK2304:3VD82FOHKRV9DD8BNZUZHXIOEJJOCI", "dateTime": 1516986328823}, {"current_trial": 104, "trialdata": {"rt": -1, "trial_type": "single-stim", "word": "spouse", "stimulus": "<p id=\"stim\">SPOUSE</p>", "conditions": [24, 1600, "v", 24000], "internal_node_id": "0.0-77.0", "trial": 2, "time_elapsed": 919652, "serialpos": 15, "key_press": -1, "wordID": 1357, "type": "PRES_VIS", "trial_index": 104}, "uniqueid": "MTK2304:3VD82FOHKRV9DD8BNZUZHXIOEJJOCI", "dateTime": 1516986331366}, {"current_trial": 105, "trialdata": {"rt": -1, "trial_type": "single-stim", "word": "daughter", "stimulus": "<p id=\"stim\">DAUGHTER</p>", "conditions": [24, 1600, "v", 24000], "internal_node_id": "0.0-78.0", "trial": 2, "time_elapsed": 922395, "serialpos": 16, "key_press": -1, "wordID": 441, "type": "PRES_VIS", "trial_index": 105}, "uniqueid": "MTK2304:3VD82FOHKRV9DD8BNZUZHXIOEJJOCI", "dateTime": 1516986334109}, {"current_trial": 106, "trialdata": {"rt": -1, "trial_type": "single-stim", "word": "clamp", "stimulus": "<p id=\"stim\">CLAMP</p>", "conditions": [24, 1600, "v", 24000], "internal_node_id": "0.0-79.0", "trial": 2, "time_elapsed": 924856, "serialpos": 17, "key_press": -1, "wordID": 315, "type": "PRES_VIS", "trial_index": 106}, "uniqueid": "MTK2304:3VD82FOHKRV9DD8BNZUZHXIOEJJOCI", "dateTime": 1516986336570}, {"current_trial": 107, "trialdata": {"rt": -1, "trial_type": "single-stim", "word": "puddle", "stimulus": "<p id=\"stim\">PUDDLE</p>", "conditions": [24, 1600, "v", 24000], "internal_node_id": "0.0-80.0", "trial": 2, "time_elapsed": 927309, "serialpos": 18, "key_press": -1, "wordID": 1139, "type": "PRES_VIS", "trial_index": 107}, "uniqueid": "MTK2304:3VD82FOHKRV9DD8BNZUZHXIOEJJOCI", "dateTime": 1516986339023}, {"current_trial": 108, "trialdata": {"rt": -1, "trial_type": "single-stim", "word": "shrub", "stimulus": "<p id=\"stim\">SHRUB</p>", "conditions": [24, 1600, "v", 24000], "internal_node_id": "0.0-81.0", "trial": 2, "time_elapsed": 929857, "serialpos": 19, "key_press": -1, "wordID": 1298, "type": "PRES_VIS", "trial_index": 108}, "uniqueid": "MTK2304:3VD82FOHKRV9DD8BNZUZHXIOEJJOCI", "dateTime": 1516986341571}, {"current_trial": 109, "trialdata": {"rt": -1, "trial_type": "single-stim", "word": "spoon", "stimulus": "<p id=\"stim\">SPOON</p>", "conditions": [24, 1600, "v", 24000], "internal_node_id": "0.0-82.0", "trial": 2, "time_elapsed": 932291, "serialpos": 20, "key_press": -1, "wordID": 1356, "type": "PRES_VIS", "trial_index": 109}, "uniqueid": "MTK2304:3VD82FOHKRV9DD8BNZUZHXIOEJJOCI", "dateTime": 1516986344005}, {"current_trial": 110, "trialdata": {"rt": -1, "trial_type": "single-stim", "word": "blackboard", "stimulus": "<p id=\"stim\">BLACKBOARD</p>", "conditions": [24, 1600, "v", 24000], "internal_node_id": "0.0-83.0", "trial": 2, "time_elapsed": 934906, "serialpos": 21, "key_press": -1, "wordID": 132, "type": "PRES_VIS", "trial_index": 110}, "uniqueid": "MTK2304:3VD82FOHKRV9DD8BNZUZHXIOEJJOCI", "dateTime": 1516986346621}, {"current_trial": 111, "trialdata": {"rt": -1, "trial_type": "single-stim", "word": "flag", "stimulus": "<p id=\"stim\">FLAG</p>", "conditions": [24, 1600, "v", 24000], "internal_node_id": "0.0-84.0", "trial": 2, "time_elapsed": 937472, "serialpos": 22, "key_press": -1, "wordID": 572, "type": "PRES_VIS", "trial_index": 111}, "uniqueid": "MTK2304:3VD82FOHKRV9DD8BNZUZHXIOEJJOCI", "dateTime": 1516986349186}, {"current_trial": 112, "trialdata": {"rt": -1, "trial_type": "single-stim", "word": "wrist", "stimulus": "<p id=\"stim\">WRIST</p>", "conditions": [24, 1600, "v", 24000], "internal_node_id": "0.0-85.0", "trial": 2, "time_elapsed": 939892, "serialpos": 23, "key_press": -1, "wordID": 1625, "type": "PRES_VIS", "trial_index": 112}, "uniqueid": "MTK2304:3VD82FOHKRV9DD8BNZUZHXIOEJJOCI", "dateTime": 1516986351606}, {"current_trial": 113, "trialdata": {"rt": -1, "trial_type": "single-stim", "stimulus": "", "internal_node_id": "0.0-86.0-0.0", "time_elapsed": 942148, "key_press": -1, "type": "PRE_RECALL_DELAY", "trial_index": 113}, "uniqueid": "MTK2304:3VD82FOHKRV9DD8BNZUZHXIOEJJOCI", "dateTime": 1516986353862}, {"current_trial": 114, "trialdata": {"rt": -1000, "trial_type": "single-audio", "stimulus": "/static/audio/400Hz.wav", "internal_node_id": "0.0-87.0", "time_elapsed": 942649, "key_press": -1, "type": "PRE_RECALL_ALERT", "trial_index": 114}, "uniqueid": "MTK2304:3VD82FOHKRV9DD8BNZUZHXIOEJJOCI", "dateTime": 1516986354364}, {"current_trial": 115, "trialdata": {"rt": [3373, 5877, 8783, 11413, 12493, 14890, 18198, 46669], "recwords": ["leg", "monster", "liver", "shrub", "spoon", "cod", "cigar", "marrow"], "key_times": [3004, 3070, 3309, 3373, 4896, 4947, 5190, 5250, 5484, 5634, 5736, 5877, 8123, 8222, 8373, 8572, 8659, 8783, 10379, 10438, 10629, 10754, 11034, 11413, 11628, 11725, 11952, 12100, 12262, 12493, 14445, 14523, 14683, 14890, 16927, 17015, 17248, 17609, 17807, 18198, 45690, 45790, 46013, 46159, 46257, 46416, 46669], "trial_type": "free-recall", "conditions": [24, 1600, "v", 24000], "internal_node_id": "0.0-88.0-0.0", "key_presses": [76, 69, 71, 13, 77, 79, 78, 83, 84, 69, 82, 13, 76, 73, 86, 69, 82, 13, 83, 72, 82, 85, 66, 13, 83, 80, 79, 79, 78, 13, 67, 79, 68, 13, 67, 73, 71, 65, 82, 13, 77, 65, 82, 82, 79, 87, 13], "trial": 2, "time_elapsed": 1002655, "type": "FREE_RECALL", "trial_index": 115}, "uniqueid": "MTK2304:3VD82FOHKRV9DD8BNZUZHXIOEJJOCI", "dateTime": 1516986414372}, {"current_trial": 116, "trialdata": {"rt": 1723, "trial_type": "text", "internal_node_id": "0.0-89.0", "time_elapsed": 1006384, "key_press": 32, "type": "INSTRUCTIONS", "trial_index": 116}, "uniqueid": "MTK2304:3VD82FOHKRV9DD8BNZUZHXIOEJJOCI", "dateTime": 1516986418098}, {"current_trial": 117, "trialdata": {"rt": [4013, 6698, 9288, 11085], "trial_type": "math-distractor", "key_times": [2560, 2687, 3712, 4013, 5631, 6091, 6698, 8789, 9085, 9288, 10766, 10961, 11085], "responses": ["6", "16", "10", "13"], "num2": [3, 6, 3, 8, 8], "num3": [2, 2, 1, 3, 7], "conditions": [24, 800, "v", 12000], "internal_node_id": "0.0-90.0", "key_presses": [54, 220, 8, 13, 49, 54, 13, 49, 48, 13, 49, 51, 13], "trial": 3, "time_elapsed": 1020389, "type": "DISTRACTOR", "trial_index": 117, "num1": [1, 8, 6, 2, 1]}, "uniqueid": "MTK2304:3VD82FOHKRV9DD8BNZUZHXIOEJJOCI", "dateTime": 1516986432103}, {"current_trial": 118, "trialdata": {"rt": -1, "trial_type": "single-stim", "stimulus": "<p id=\"stim\">10</p>", "internal_node_id": "0.0-91.0-0.0", "time_elapsed": 1023392, "key_press": -1, "trial_index": 118}, "uniqueid": "MTK2304:3VD82FOHKRV9DD8BNZUZHXIOEJJOCI", "dateTime": 1516986435106}, {"current_trial": 119, "trialdata": {"rt": -1, "trial_type": "single-stim", "stimulus": "<p id=\"stim\">9</p>", "internal_node_id": "0.0-91.0-1.0", "time_elapsed": 1024394, "key_press": -1, "trial_index": 119}, "uniqueid": "MTK2304:3VD82FOHKRV9DD8BNZUZHXIOEJJOCI", "dateTime": 1516986436108}, {"current_trial": 120, "trialdata": {"rt": -1, "trial_type": "single-stim", "stimulus": "<p id=\"stim\">8</p>", "internal_node_id": "0.0-91.0-2.0", "time_elapsed": 1025396, "key_press": -1, "trial_index": 120}, "uniqueid": "MTK2304:3VD82FOHKRV9DD8BNZUZHXIOEJJOCI", "dateTime": 1516986437111}, {"current_trial": 121, "trialdata": {"rt": -1, "trial_type": "single-stim", "stimulus": "<p id=\"stim\">7</p>", "internal_node_id": "0.0-91.0-3.0", "time_elapsed": 1026399, "key_press": -1, "trial_index": 121}, "uniqueid": "MTK2304:3VD82FOHKRV9DD8BNZUZHXIOEJJOCI", "dateTime": 1516986438113}, {"current_trial": 122, "trialdata": {"rt": -1, "trial_type": "single-stim", "stimulus": "<p id=\"stim\">6</p>", "internal_node_id": "0.0-91.0-4.0", "time_elapsed": 1027401, "key_press": -1, "trial_index": 122}, "uniqueid": "MTK2304:3VD82FOHKRV9DD8BNZUZHXIOEJJOCI", "dateTime": 1516986439117}, {"current_trial": 123, "trialdata": {"rt": -1, "trial_type": "single-stim", "stimulus": "<p id=\"stim\">5</p>", "internal_node_id": "0.0-91.0-5.0", "time_elapsed": 1028405, "key_press": -1, "trial_index": 123}, "uniqueid": "MTK2304:3VD82FOHKRV9DD8BNZUZHXIOEJJOCI", "dateTime": 1516986440119}, {"current_trial": 124, "trialdata": {"rt": -1, "trial_type": "single-stim", "stimulus": "<p id=\"stim\">4</p>", "internal_node_id": "0.0-91.0-6.0", "time_elapsed": 1029407, "key_press": -1, "trial_index": 124}, "uniqueid": "MTK2304:3VD82FOHKRV9DD8BNZUZHXIOEJJOCI", "dateTime": 1516986441121}, {"current_trial": 125, "trialdata": {"rt": -1, "trial_type": "single-stim", "stimulus": "<p id=\"stim\">3</p>", "internal_node_id": "0.0-91.0-7.0", "time_elapsed": 1030409, "key_press": -1, "trial_index": 125}, "uniqueid": "MTK2304:3VD82FOHKRV9DD8BNZUZHXIOEJJOCI", "dateTime": 1516986442123}, {"current_trial": 126, "trialdata": {"rt": -1, "trial_type": "single-stim", "stimulus": "<p id=\"stim\">2</p>", "internal_node_id": "0.0-91.0-8.0", "time_elapsed": 1031411, "key_press": -1, "trial_index": 126}, "uniqueid": "MTK2304:3VD82FOHKRV9DD8BNZUZHXIOEJJOCI", "dateTime": 1516986443125}, {"current_trial": 127, "trialdata": {"rt": -1, "trial_type": "single-stim", "stimulus": "<p id=\"stim\">1</p>", "internal_node_id": "0.0-91.0-9.0", "time_elapsed": 1032413, "key_press": -1, "trial_index": 127}, "uniqueid": "MTK2304:3VD82FOHKRV9DD8BNZUZHXIOEJJOCI", "dateTime": 1516986444127}, {"current_trial": 128, "trialdata": {"rt": -1, "trial_type": "single-stim", "stimulus": "<p id=\"stim\">+</p>", "internal_node_id": "0.0-92.0-0.0", "time_elapsed": 1033915, "key_press": -1, "type": "FIXATION", "trial_index": 128}, "uniqueid": "MTK2304:3VD82FOHKRV9DD8BNZUZHXIOEJJOCI", "dateTime": 1516986445629}, {"current_trial": 129, "trialdata": {"rt": -1, "trial_type": "single-stim", "word": "princess", "stimulus": "<p id=\"stim\">PRINCESS</p>", "conditions": [24, 800, "v", 12000], "internal_node_id": "0.0-93.0", "trial": 3, "time_elapsed": 1034717, "serialpos": 0, "key_press": -1, "wordID": 1124, "type": "PRES_VIS", "trial_index": 129}, "uniqueid": "MTK2304:3VD82FOHKRV9DD8BNZUZHXIOEJJOCI", "dateTime": 1516986446431}, {"current_trial": 130, "trialdata": {"rt": -1, "trial_type": "single-stim", "word": "crown", "stimulus": "<p id=\"stim\">CROWN</p>", "conditions": [24, 800, "v", 12000], "internal_node_id": "0.0-94.0", "trial": 3, "time_elapsed": 1036665, "serialpos": 1, "key_press": -1, "wordID": 414, "type": "PRES_VIS", "trial_index": 130}, "uniqueid": "MTK2304:3VD82FOHKRV9DD8BNZUZHXIOEJJOCI", "dateTime": 1516986448379}, {"current_trial": 131, "trialdata": {"rt": -1, "trial_type": "single-stim", "word": "kitchen", "stimulus": "<p id=\"stim\">KITCHEN</p>", "conditions": [24, 800, "v", 12000], "internal_node_id": "0.0-95.0", "trial": 3, "time_elapsed": 1038274, "serialpos": 2, "key_press": -1, "wordID": 777, "type": "PRES_VIS", "trial_index": 131}, "uniqueid": "MTK2304:3VD82FOHKRV9DD8BNZUZHXIOEJJOCI", "dateTime": 1516986449988}, {"current_trial": 132, "trialdata": {"rt": -1, "trial_type": "single-stim", "word": "waiter", "stimulus": "<p id=\"stim\">WAITER</p>", "conditions": [24, 800, "v", 12000], "internal_node_id": "0.0-96.0", "trial": 3, "time_elapsed": 1039999, "serialpos": 3, "key_press": -1, "wordID": 1579, "type": "PRES_VIS", "trial_index": 132}, "uniqueid": "MTK2304:3VD82FOHKRV9DD8BNZUZHXIOEJJOCI", "dateTime": 1516986451713}, {"current_trial": 133, "trialdata": {"rt": -1, "trial_type": "single-stim", "word": "jelly", "stimulus": "<p id=\"stim\">JELLY</p>", "conditions": [24, 800, "v", 12000], "internal_node_id": "0.0-97.0", "trial": 3, "time_elapsed": 1041843, "serialpos": 4, "key_press": -1, "wordID": 754, "type": "PRES_VIS", "trial_index": 133}, "uniqueid": "MTK2304:3VD82FOHKRV9DD8BNZUZHXIOEJJOCI", "dateTime": 1516986453557}, {"current_trial": 134, "trialdata": {"rt": -1, "trial_type": "single-stim", "word": "flute", "stimulus": "<p id=\"stim\">FLUTE</p>", "conditions": [24, 800, "v", 12000], "internal_node_id": "0.0-98.0", "trial": 3, "time_elapsed": 1043767, "serialpos": 5, "key_press": -1, "wordID": 584, "type": "PRES_VIS", "trial_index": 134}, "uniqueid": "MTK2304:3VD82FOHKRV9DD8BNZUZHXIOEJJOCI", "dateTime": 1516986455481}, {"current_trial": 135, "trialdata": {"rt": -1, "trial_type": "single-stim", "word": "cobra", "stimulus": "<p id=\"stim\">COBRA</p>", "conditions": [24, 800, "v", 12000], "internal_node_id": "0.0-99.0", "trial": 3, "time_elapsed": 1045512, "serialpos": 6, "key_press": -1, "wordID": 335, "type": "PRES_VIS", "trial_index": 135}, "uniqueid": "MTK2304:3VD82FOHKRV9DD8BNZUZHXIOEJJOCI", "dateTime": 1516986457226}, {"current_trial": 136, "trialdata": {"rt": -1, "trial_type": "single-stim", "word": "flashlight", "stimulus": "<p id=\"stim\">FLASHLIGHT</p>", "conditions": [24, 800, "v", 12000], "internal_node_id": "0.0-100.0", "trial": 3, "time_elapsed": 1047342, "serialpos": 7, "key_press": -1, "wordID": 574, "type": "PRES_VIS", "trial_index": 136}, "uniqueid": "MTK2304:3VD82FOHKRV9DD8BNZUZHXIOEJJOCI", "dateTime": 1516986459056}, {"current_trial": 137, "trialdata": {"rt": -1, "trial_type": "single-stim", "word": "rug", "stimulus": "<p id=\"stim\">RUG</p>", "conditions": [24, 800, "v", 12000], "internal_node_id": "0.0-101.0", "trial": 3, "time_elapsed": 1049235, "serialpos": 8, "key_press": -1, "wordID": 1214, "type": "PRES_VIS", "trial_index": 137}, "uniqueid": "MTK2304:3VD82FOHKRV9DD8BNZUZHXIOEJJOCI", "dateTime": 1516986460950}, {"current_trial": 138, "trialdata": {"rt": -1, "trial_type": "single-stim", "word": "world", "stimulus": "<p id=\"stim\">WORLD</p>", "conditions": [24, 800, "v", 12000], "internal_node_id": "0.0-102.0", "trial": 3, "time_elapsed": 1051099, "serialpos": 9, "key_press": -1, "wordID": 1621, "type": "PRES_VIS", "trial_index": 138}, "uniqueid": "MTK2304:3VD82FOHKRV9DD8BNZUZHXIOEJJOCI", "dateTime": 1516986462813}, {"current_trial": 139, "trialdata": {"rt": -1, "trial_type": "single-stim", "word": "country", "stimulus": "<p id=\"stim\">COUNTRY</p>", "conditions": [24, 800, "v", 12000], "internal_node_id": "0.0-103.0", "trial": 3, "time_elapsed": 1052994, "serialpos": 10, "key_press": -1, "wordID": 387, "type": "PRES_VIS", "trial_index": 139}, "uniqueid": "MTK2304:3VD82FOHKRV9DD8BNZUZHXIOEJJOCI", "dateTime": 1516986464708}, {"current_trial": 140, "trialdata": {"rt": -1, "trial_type": "single-stim", "word": "diner", "stimulus": "<p id=\"stim\">DINER</p>", "conditions": [24, 800, "v", 12000], "internal_node_id": "0.0-104.0", "trial": 3, "time_elapsed": 1054666, "serialpos": 11, "key_press": -1, "wordID": 466, "type": "PRES_VIS", "trial_index": 140}, "uniqueid": "MTK2304:3VD82FOHKRV9DD8BNZUZHXIOEJJOCI", "dateTime": 1516986466381}, {"current_trial": 141, "trialdata": {"rt": -1, "trial_type": "single-stim", "word": "mattress", "stimulus": "<p id=\"stim\">MATTRESS</p>", "conditions": [24, 800, "v", 12000], "internal_node_id": "0.0-105.0", "trial": 3, "time_elapsed": 1056460, "serialpos": 12, "key_press": -1, "wordID": 878, "type": "PRES_VIS", "trial_index": 141}, "uniqueid": "MTK2304:3VD82FOHKRV9DD8BNZUZHXIOEJJOCI", "dateTime": 1516986468175}, {"current_trial": 142, "trialdata": {"rt": -1, "trial_type": "single-stim", "word": "shelter", "stimulus": "<p id=\"stim\">SHELTER</p>", "conditions": [24, 800, "v", 12000], "internal_node_id": "0.0-106.0", "trial": 3, "time_elapsed": 1058213, "serialpos": 13, "key_press": -1, "wordID": 1281, "type": "PRES_VIS", "trial_index": 142}, "uniqueid": "MTK2304:3VD82FOHKRV9DD8BNZUZHXIOEJJOCI", "dateTime": 1516986469927}, {"current_trial": 143, "trialdata": {"rt": -1, "trial_type": "single-stim", "word": "padding", "stimulus": "<p id=\"stim\">PADDING</p>", "conditions": [24, 800, "v", 12000], "internal_node_id": "0.0-107.0", "trial": 3, "time_elapsed": 1060191, "serialpos": 14, "key_press": -1, "wordID": 998, "type": "PRES_VIS", "trial_index": 143}, "uniqueid": "MTK2304:3VD82FOHKRV9DD8BNZUZHXIOEJJOCI", "dateTime": 1516986471905}, {"current_trial": 144, "trialdata": {"rt": -1, "trial_type": "single-stim", "word": "couch", "stimulus": "<p id=\"stim\">COUCH</p>", "conditions": [24, 800, "v", 12000], "internal_node_id": "0.0-108.0", "trial": 3, "time_elapsed": 1061828, "serialpos": 15, "key_press": -1, "wordID": 385, "type": "PRES_VIS", "trial_index": 144}, "uniqueid": "MTK2304:3VD82FOHKRV9DD8BNZUZHXIOEJJOCI", "dateTime": 1516986473542}, {"current_trial": 145, "trialdata": {"rt": -1, "trial_type": "single-stim", "word": "portrait", "stimulus": "<p id=\"stim\">PORTRAIT</p>", "conditions": [24, 800, "v", 12000], "internal_node_id": "0.0-109.0", "trial": 3, "time_elapsed": 1063692, "serialpos": 16, "key_press": -1, "wordID": 1110, "type": "PRES_VIS", "trial_index": 145}, "uniqueid": "MTK2304:3VD82FOHKRV9DD8BNZUZHXIOEJJOCI", "dateTime": 1516986475406}, {"current_trial": 146, "trialdata": {"rt": -1, "trial_type": "single-stim", "word": "beaver", "stimulus": "<p id=\"stim\">BEAVER</p>", "conditions": [24, 800, "v", 12000], "internal_node_id": "0.0-110.0", "trial": 3, "time_elapsed": 1065604, "serialpos": 17, "key_press": -1, "wordID": 108, "type": "PRES_VIS", "trial_index": 146}, "uniqueid": "MTK2304:3VD82FOHKRV9DD8BNZUZHXIOEJJOCI", "dateTime": 1516986477318}, {"current_trial": 147, "trialdata": {"rt": -1, "trial_type": "single-stim", "word": "pepper", "stimulus": "<p id=\"stim\">PEPPER</p>", "conditions": [24, 800, "v", 12000], "internal_node_id": "0.0-111.0", "trial": 3, "time_elapsed": 1067471, "serialpos": 18, "key_press": -1, "wordID": 1046, "type": "PRES_VIS", "trial_index": 147}, "uniqueid": "MTK2304:3VD82FOHKRV9DD8BNZUZHXIOEJJOCI", "dateTime": 1516986479185}, {"current_trial": 148, "trialdata": {"rt": -1, "trial_type": "single-stim", "word": "parsley", "stimulus": "<p id=\"stim\">PARSLEY</p>", "conditions": [24, 800, "v", 12000], "internal_node_id": "0.0-112.0", "trial": 3, "time_elapsed": 1069410, "serialpos": 19, "key_press": -1, "wordID": 1015, "type": "PRES_VIS", "trial_index": 148}, "uniqueid": "MTK2304:3VD82FOHKRV9DD8BNZUZHXIOEJJOCI", "dateTime": 1516986481124}, {"current_trial": 149, "trialdata": {"rt": -1, "trial_type": "single-stim", "word": "smog", "stimulus": "<p id=\"stim\">SMOG</p>", "conditions": [24, 800, "v", 12000], "internal_node_id": "0.0-113.0", "trial": 3, "time_elapsed": 1071181, "serialpos": 20, "key_press": -1, "wordID": 1329, "type": "PRES_VIS", "trial_index": 149}, "uniqueid": "MTK2304:3VD82FOHKRV9DD8BNZUZHXIOEJJOCI", "dateTime": 1516986482895}, {"current_trial": 150, "trialdata": {"rt": -1, "trial_type": "single-stim", "word": "tortoise", "stimulus": "<p id=\"stim\">TORTOISE</p>", "conditions": [24, 800, "v", 12000], "internal_node_id": "0.0-114.0", "trial": 3, "time_elapsed": 1072807, "serialpos": 21, "key_press": -1, "wordID": 1485, "type": "PRES_VIS", "trial_index": 150}, "uniqueid": "MTK2304:3VD82FOHKRV9DD8BNZUZHXIOEJJOCI", "dateTime": 1516986484521}, {"current_trial": 151, "trialdata": {"rt": -1, "trial_type": "single-stim", "word": "crayon", "stimulus": "<p id=\"stim\">CRAYON</p>", "conditions": [24, 800, "v", 12000], "internal_node_id": "0.0-115.0", "trial": 3, "time_elapsed": 1074616, "serialpos": 22, "key_press": -1, "wordID": 400, "type": "PRES_VIS", "trial_index": 151}, "uniqueid": "MTK2304:3VD82FOHKRV9DD8BNZUZHXIOEJJOCI", "dateTime": 1516986486330}, {"current_trial": 152, "trialdata": {"rt": -1, "trial_type": "single-stim", "word": "paddle", "stimulus": "<p id=\"stim\">PADDLE</p>", "conditions": [24, 800, "v", 12000], "internal_node_id": "0.0-116.0", "trial": 3, "time_elapsed": 1076245, "serialpos": 23, "key_press": -1, "wordID": 999, "type": "PRES_VIS", "trial_index": 152}, "uniqueid": "MTK2304:3VD82FOHKRV9DD8BNZUZHXIOEJJOCI", "dateTime": 1516986487960}, {"current_trial": 153, "trialdata": {"rt": -1, "trial_type": "single-stim", "stimulus": "", "internal_node_id": "0.0-117.0-0.0", "time_elapsed": 1078617, "key_press": -1, "type": "PRE_RECALL_DELAY", "trial_index": 153}, "uniqueid": "MTK2304:3VD82FOHKRV9DD8BNZUZHXIOEJJOCI", "dateTime": 1516986490331}, {"current_trial": 154, "trialdata": {"rt": -1000, "trial_type": "single-audio", "stimulus": "/static/audio/400Hz.wav", "internal_node_id": "0.0-118.0", "time_elapsed": 1079119, "key_press": -1, "type": "PRE_RECALL_ALERT", "trial_index": 154}, "uniqueid": "MTK2304:3VD82FOHKRV9DD8BNZUZHXIOEJJOCI", "dateTime": 1516986490833}, {"current_trial": 155, "trialdata": {"rt": [4070, 6404, 9226, 11706, 13490, 16784, 18284, 23859], "recwords": ["diner", "paddle", "crayon", "smog", "pepper", "flute", "cobra", "crown"], "key_times": [3453, 3555, 3653, 3839, 3936, 4070, 5507, 5654, 5833, 6005, 6133, 6268, 6404, 7198, 7436, 7615, 7724, 7993, 8320, 9226, 9544, 9596, 9816, 9960, 11706, 12735, 12858, 13010, 13146, 13188, 13270, 13490, 16141, 16260, 16373, 16491, 16583, 16784, 17277, 17343, 17568, 17665, 17879, 18284, 23016, 23326, 23423, 23540, 23618, 23859], "trial_type": "free-recall", "conditions": [24, 800, "v", 12000], "internal_node_id": "0.0-119.0-0.0", "key_presses": [68, 73, 78, 69, 82, 13, 80, 65, 68, 68, 76, 69, 13, 67, 82, 65, 89, 79, 78, 13, 83, 77, 79, 71, 13, 80, 69, 80, 80, 69, 82, 13, 70, 76, 85, 84, 69, 13, 67, 79, 66, 82, 65, 13, 67, 82, 79, 87, 78, 13], "trial": 3, "time_elapsed": 1139125, "type": "FREE_RECALL", "trial_index": 155}, "uniqueid": "MTK2304:3VD82FOHKRV9DD8BNZUZHXIOEJJOCI", "dateTime": 1516986550843}, {"current_trial": 156, "trialdata": {"rt": 3290, "trial_type": "text", "internal_node_id": "0.0-120.0", "time_elapsed": 1144421, "key_press": 32, "type": "INSTRUCTIONS", "trial_index": 156}, "uniqueid": "MTK2304:3VD82FOHKRV9DD8BNZUZHXIOEJJOCI", "dateTime": 1516986556135}, {"current_trial": 157, "trialdata": {"rt": [2751, 4398, 6737, 7985, 10371], "trial_type": "math-distractor", "key_times": [2318, 2457, 2751, 3988, 4280, 4398, 6015, 6650, 6737, 7723, 7901, 7985, 10159, 10268, 10371, 11841], "responses": ["20", "14", "16", "11", "21"], "num2": [7, 9, 9, 2, 4, 7], "num3": [8, 4, 4, 1, 8, 6], "conditions": [24, 800, "v", 12000], "internal_node_id": "0.0-121.0", "key_presses": [50, 48, 13, 49, 52, 13, 49, 54, 13, 49, 49, 13, 50, 49, 13, 49], "trial": 4, "time_elapsed": 1158425, "type": "DISTRACTOR", "trial_index": 157, "num1": [5, 1, 3, 8, 9, 2]}, "uniqueid": "MTK2304:3VD82FOHKRV9DD8BNZUZHXIOEJJOCI", "dateTime": 1516986570139}, {"current_trial": 158, "trialdata": {"rt": -1, "trial_type": "single-stim", "stimulus": "<p id=\"stim\">10</p>", "internal_node_id": "0.0-122.0-0.0", "time_elapsed": 1161428, "key_press": -1, "trial_index": 158}, "uniqueid": "MTK2304:3VD82FOHKRV9DD8BNZUZHXIOEJJOCI", "dateTime": 1516986573142}, {"current_trial": 159, "trialdata": {"rt": -1, "trial_type": "single-stim", "stimulus": "<p id=\"stim\">9</p>", "internal_node_id": "0.0-122.0-1.0", "time_elapsed": 1162430, "key_press": -1, "trial_index": 159}, "uniqueid": "MTK2304:3VD82FOHKRV9DD8BNZUZHXIOEJJOCI", "dateTime": 1516986574144}, {"current_trial": 160, "trialdata": {"rt": -1, "trial_type": "single-stim", "stimulus": "<p id=\"stim\">8</p>", "internal_node_id": "0.0-122.0-2.0", "time_elapsed": 1163432, "key_press": -1, "trial_index": 160}, "uniqueid": "MTK2304:3VD82FOHKRV9DD8BNZUZHXIOEJJOCI", "dateTime": 1516986575146}, {"current_trial": 161, "trialdata": {"rt": -1, "trial_type": "single-stim", "stimulus": "<p id=\"stim\">7</p>", "internal_node_id": "0.0-122.0-3.0", "time_elapsed": 1164434, "key_press": -1, "trial_index": 161}, "uniqueid": "MTK2304:3VD82FOHKRV9DD8BNZUZHXIOEJJOCI", "dateTime": 1516986576148}, {"current_trial": 162, "trialdata": {"rt": -1, "trial_type": "single-stim", "stimulus": "<p id=\"stim\">6</p>", "internal_node_id": "0.0-122.0-4.0", "time_elapsed": 1165436, "key_press": -1, "trial_index": 162}, "uniqueid": "MTK2304:3VD82FOHKRV9DD8BNZUZHXIOEJJOCI", "dateTime": 1516986577150}, {"current_trial": 163, "trialdata": {"rt": -1, "trial_type": "single-stim", "stimulus": "<p id=\"stim\">5</p>", "internal_node_id": "0.0-122.0-5.0", "time_elapsed": 1166438, "key_press": -1, "trial_index": 163}, "uniqueid": "MTK2304:3VD82FOHKRV9DD8BNZUZHXIOEJJOCI", "dateTime": 1516986578152}, {"current_trial": 164, "trialdata": {"rt": -1, "trial_type": "single-stim", "stimulus": "<p id=\"stim\">4</p>", "internal_node_id": "0.0-122.0-6.0", "time_elapsed": 1167440, "key_press": -1, "trial_index": 164}, "uniqueid": "MTK2304:3VD82FOHKRV9DD8BNZUZHXIOEJJOCI", "dateTime": 1516986579154}, {"current_trial": 165, "trialdata": {"rt": -1, "trial_type": "single-stim", "stimulus": "<p id=\"stim\">3</p>", "internal_node_id": "0.0-122.0-7.0", "time_elapsed": 1168442, "key_press": -1, "trial_index": 165}, "uniqueid": "MTK2304:3VD82FOHKRV9DD8BNZUZHXIOEJJOCI", "dateTime": 1516986580157}, {"current_trial": 166, "trialdata": {"rt": -1, "trial_type": "single-stim", "stimulus": "<p id=\"stim\">2</p>", "internal_node_id": "0.0-122.0-8.0", "time_elapsed": 1169444, "key_press": -1, "trial_index": 166}, "uniqueid": "MTK2304:3VD82FOHKRV9DD8BNZUZHXIOEJJOCI", "dateTime": 1516986581158}, {"current_trial": 167, "trialdata": {"rt": -1, "trial_type": "single-stim", "stimulus": "<p id=\"stim\">1</p>", "internal_node_id": "0.0-122.0-9.0", "time_elapsed": 1170446, "key_press": -1, "trial_index": 167}, "uniqueid": "MTK2304:3VD82FOHKRV9DD8BNZUZHXIOEJJOCI", "dateTime": 1516986582160}, {"current_trial": 168, "trialdata": {"rt": -1, "trial_type": "single-stim", "stimulus": "<p id=\"stim\">+</p>", "internal_node_id": "0.0-123.0-0.0", "time_elapsed": 1171949, "key_press": -1, "type": "FIXATION", "trial_index": 168}, "uniqueid": "MTK2304:3VD82FOHKRV9DD8BNZUZHXIOEJJOCI", "dateTime": 1516986583663}, {"current_trial": 169, "trialdata": {"rt": -1, "trial_type": "single-stim", "word": "rooster", "stimulus": "<p id=\"stim\">ROOSTER</p>", "conditions": [24, 800, "v", 12000], "internal_node_id": "0.0-124.0", "trial": 4, "time_elapsed": 1172750, "serialpos": 0, "key_press": -1, "wordID": 1208, "type": "PRES_VIS", "trial_index": 169}, "uniqueid": "MTK2304:3VD82FOHKRV9DD8BNZUZHXIOEJJOCI", "dateTime": 1516986584464}, {"current_trial": 170, "trialdata": {"rt": -1, "trial_type": "single-stim", "word": "brick", "stimulus": "<p id=\"stim\">BRICK</p>", "conditions": [24, 800, "v", 12000], "internal_node_id": "0.0-125.0", "trial": 4, "time_elapsed": 1174378, "serialpos": 1, "key_press": -1, "wordID": 171, "type": "PRES_VIS", "trial_index": 170}, "uniqueid": "MTK2304:3VD82FOHKRV9DD8BNZUZHXIOEJJOCI", "dateTime": 1516986586092}, {"current_trial": 171, "trialdata": {"rt": -1, "trial_type": "single-stim", "word": "freezer", "stimulus": "<p id=\"stim\">FREEZER</p>", "conditions": [24, 800, "v", 12000], "internal_node_id": "0.0-126.0", "trial": 4, "time_elapsed": 1176090, "serialpos": 2, "key_press": -1, "wordID": 603, "type": "PRES_VIS", "trial_index": 171}, "uniqueid": "MTK2304:3VD82FOHKRV9DD8BNZUZHXIOEJJOCI", "dateTime": 1516986587804}, {"current_trial": 172, "trialdata": {"rt": -1, "trial_type": "single-stim", "word": "dress", "stimulus": "<p id=\"stim\">DRESS</p>", "conditions": [24, 800, "v", 12000], "internal_node_id": "0.0-127.0", "trial": 4, "time_elapsed": 1177901, "serialpos": 3, "key_press": -1, "wordID": 494, "type": "PRES_VIS", "trial_index": 172}, "uniqueid": "MTK2304:3VD82FOHKRV9DD8BNZUZHXIOEJJOCI", "dateTime": 1516986589615}, {"current_trial": 173, "trialdata": {"rt": -1, "trial_type": "single-stim", "word": "wardrobe", "stimulus": "<p id=\"stim\">WARDROBE</p>", "conditions": [24, 800, "v", 12000], "internal_node_id": "0.0-128.0", "trial": 4, "time_elapsed": 1179510, "serialpos": 4, "key_press": -1, "wordID": 1586, "type": "PRES_VIS", "trial_index": 173}, "uniqueid": "MTK2304:3VD82FOHKRV9DD8BNZUZHXIOEJJOCI", "dateTime": 1516986591225}, {"current_trial": 174, "trialdata": {"rt": -1, "trial_type": "single-stim", "word": "tile", "stimulus": "<p id=\"stim\">TILE</p>", "conditions": [24, 800, "v", 12000], "internal_node_id": "0.0-129.0", "trial": 4, "time_elapsed": 1181490, "serialpos": 5, "key_press": -1, "wordID": 1467, "type": "PRES_VIS", "trial_index": 174}, "uniqueid": "MTK2304:3VD82FOHKRV9DD8BNZUZHXIOEJJOCI", "dateTime": 1516986593205}, {"current_trial": 175, "trialdata": {"rt": -1, "trial_type": "single-stim", "word": "foot", "stimulus": "<p id=\"stim\">FOOT</p>", "conditions": [24, 800, "v", 12000], "internal_node_id": "0.0-130.0", "trial": 4, "time_elapsed": 1183302, "serialpos": 6, "key_press": -1, "wordID": 589, "type": "PRES_VIS", "trial_index": 175}, "uniqueid": "MTK2304:3VD82FOHKRV9DD8BNZUZHXIOEJJOCI", "dateTime": 1516986595017}, {"current_trial": 176, "trialdata": {"rt": -1, "trial_type": "single-stim", "word": "sketch", "stimulus": "<p id=\"stim\">SKETCH</p>", "conditions": [24, 800, "v", 12000], "internal_node_id": "0.0-131.0", "trial": 4, "time_elapsed": 1185014, "serialpos": 7, "key_press": -1, "wordID": 1314, "type": "PRES_VIS", "trial_index": 176}, "uniqueid": "MTK2304:3VD82FOHKRV9DD8BNZUZHXIOEJJOCI", "dateTime": 1516986596728}, {"current_trial": 177, "trialdata": {"rt": -1, "trial_type": "single-stim", "word": "sparrow", "stimulus": "<p id=\"stim\">SPARROW</p>", "conditions": [24, 800, "v", 12000], "internal_node_id": "0.0-132.0", "trial": 4, "time_elapsed": 1186768, "serialpos": 8, "key_press": -1, "wordID": 1346, "type": "PRES_VIS", "trial_index": 177}, "uniqueid": "MTK2304:3VD82FOHKRV9DD8BNZUZHXIOEJJOCI", "dateTime": 1516986598482}, {"current_trial": 178, "trialdata": {"rt": -1, "trial_type": "single-stim", "word": "hawk", "stimulus": "<p id=\"stim\">HAWK</p>", "conditions": [24, 800, "v", 12000], "internal_node_id": "0.0-133.0", "trial": 4, "time_elapsed": 1188416, "serialpos": 9, "key_press": -1, "wordID": 691, "type": "PRES_VIS", "trial_index": 178}, "uniqueid": "MTK2304:3VD82FOHKRV9DD8BNZUZHXIOEJJOCI", "dateTime": 1516986600130}, {"current_trial": 179, "trialdata": {"rt": -1, "trial_type": "single-stim", "word": "kidney", "stimulus": "<p id=\"stim\">KIDNEY</p>", "conditions": [24, 800, "v", 12000], "internal_node_id": "0.0-134.0", "trial": 4, "time_elapsed": 1190205, "serialpos": 10, "key_press": -1, "wordID": 775, "type": "PRES_VIS", "trial_index": 179}, "uniqueid": "MTK2304:3VD82FOHKRV9DD8BNZUZHXIOEJJOCI", "dateTime": 1516986601919}, {"current_trial": 180, "trialdata": {"rt": -1, "trial_type": "single-stim", "word": "sunset", "stimulus": "<p id=\"stim\">SUNSET</p>", "conditions": [24, 800, "v", 12000], "internal_node_id": "0.0-135.0", "trial": 4, "time_elapsed": 1192187, "serialpos": 11, "key_press": -1, "wordID": 1407, "type": "PRES_VIS", "trial_index": 180}, "uniqueid": "MTK2304:3VD82FOHKRV9DD8BNZUZHXIOEJJOCI", "dateTime": 1516986603901}, {"current_trial": 181, "trialdata": {"rt": -1, "trial_type": "single-stim", "word": "hook", "stimulus": "<p id=\"stim\">HOOK</p>", "conditions": [24, 800, "v", 12000], "internal_node_id": "0.0-136.0", "trial": 4, "time_elapsed": 1194025, "serialpos": 12, "key_press": -1, "wordID": 714, "type": "PRES_VIS", "trial_index": 181}, "uniqueid": "MTK2304:3VD82FOHKRV9DD8BNZUZHXIOEJJOCI", "dateTime": 1516986605739}, {"current_trial": 182, "trialdata": {"rt": -1, "trial_type": "single-stim", "word": "softball", "stimulus": "<p id=\"stim\">SOFTBALL</p>", "conditions": [24, 800, "v", 12000], "internal_node_id": "0.0-137.0", "trial": 4, "time_elapsed": 1195819, "serialpos": 13, "key_press": -1, "wordID": 1342, "type": "PRES_VIS", "trial_index": 182}, "uniqueid": "MTK2304:3VD82FOHKRV9DD8BNZUZHXIOEJJOCI", "dateTime": 1516986607533}, {"current_trial": 183, "trialdata": {"rt": -1, "trial_type": "single-stim", "word": "snail", "stimulus": "<p id=\"stim\">SNAIL</p>", "conditions": [24, 800, "v", 12000], "internal_node_id": "0.0-138.0", "trial": 4, "time_elapsed": 1197500, "serialpos": 14, "key_press": -1, "wordID": 1331, "type": "PRES_VIS", "trial_index": 183}, "uniqueid": "MTK2304:3VD82FOHKRV9DD8BNZUZHXIOEJJOCI", "dateTime": 1516986609215}, {"current_trial": 184, "trialdata": {"rt": -1, "trial_type": "single-stim", "word": "breast", "stimulus": "<p id=\"stim\">BREAST</p>", "conditions": [24, 800, "v", 12000], "internal_node_id": "0.0-139.0", "trial": 4, "time_elapsed": 1199229, "serialpos": 15, "key_press": -1, "wordID": 170, "type": "PRES_VIS", "trial_index": 184}, "uniqueid": "MTK2304:3VD82FOHKRV9DD8BNZUZHXIOEJJOCI", "dateTime": 1516986610943}, {"current_trial": 185, "trialdata": {"rt": -1, "trial_type": "single-stim", "word": "sphinx", "stimulus": "<p id=\"stim\">SPHINX</p>", "conditions": [24, 800, "v", 12000], "internal_node_id": "0.0-140.0", "trial": 4, "time_elapsed": 1201212, "serialpos": 16, "key_press": -1, "wordID": 1348, "type": "PRES_VIS", "trial_index": 185}, "uniqueid": "MTK2304:3VD82FOHKRV9DD8BNZUZHXIOEJJOCI", "dateTime": 1516986612926}, {"current_trial": 186, "trialdata": {"rt": -1, "trial_type": "single-stim", "word": "receipt", "stimulus": "<p id=\"stim\">RECEIPT</p>", "conditions": [24, 800, "v", 12000], "internal_node_id": "0.0-141.0", "trial": 4, "time_elapsed": 1203209, "serialpos": 17, "key_press": -1, "wordID": 1172, "type": "PRES_VIS", "trial_index": 186}, "uniqueid": "MTK2304:3VD82FOHKRV9DD8BNZUZHXIOEJJOCI", "dateTime": 1516986614923}, {"current_trial": 187, "trialdata": {"rt": -1, "trial_type": "single-stim", "word": "lizard", "stimulus": "<p id=\"stim\">LIZARD</p>", "conditions": [24, 800, "v", 12000], "internal_node_id": "0.0-142.0", "trial": 4, "time_elapsed": 1205165, "serialpos": 18, "key_press": -1, "wordID": 833, "type": "PRES_VIS", "trial_index": 187}, "uniqueid": "MTK2304:3VD82FOHKRV9DD8BNZUZHXIOEJJOCI", "dateTime": 1516986616879}, {"current_trial": 188, "trialdata": {"rt": -1, "trial_type": "single-stim", "word": "goblin", "stimulus": "<p id=\"stim\">GOBLIN</p>", "conditions": [24, 800, "v", 12000], "internal_node_id": "0.0-143.0", "trial": 4, "time_elapsed": 1206916, "serialpos": 19, "key_press": -1, "wordID": 644, "type": "PRES_VIS", "trial_index": 188}, "uniqueid": "MTK2304:3VD82FOHKRV9DD8BNZUZHXIOEJJOCI", "dateTime": 1516986618630}, {"current_trial": 189, "trialdata": {"rt": -1, "trial_type": "single-stim", "word": "dragon", "stimulus": "<p id=\"stim\">DRAGON</p>", "conditions": [24, 800, "v", 12000], "internal_node_id": "0.0-144.0", "trial": 4, "time_elapsed": 1208724, "serialpos": 20, "key_press": -1, "wordID": 491, "type": "PRES_VIS", "trial_index": 189}, "uniqueid": "MTK2304:3VD82FOHKRV9DD8BNZUZHXIOEJJOCI", "dateTime": 1516986620438}, {"current_trial": 190, "trialdata": {"rt": -1, "trial_type": "single-stim", "word": "catcher", "stimulus": "<p id=\"stim\">CATCHER</p>", "conditions": [24, 800, "v", 12000], "internal_node_id": "0.0-145.0", "trial": 4, "time_elapsed": 1210496, "serialpos": 21, "key_press": -1, "wordID": 257, "type": "PRES_VIS", "trial_index": 190}, "uniqueid": "MTK2304:3VD82FOHKRV9DD8BNZUZHXIOEJJOCI", "dateTime": 1516986622210}, {"current_trial": 191, "trialdata": {"rt": -1, "trial_type": "single-stim", "word": "drill", "stimulus": "<p id=\"stim\">DRILL</p>", "conditions": [24, 800, "v", 12000], "internal_node_id": "0.0-146.0", "trial": 4, "time_elapsed": 1212496, "serialpos": 22, "key_press": -1, "wordID": 496, "type": "PRES_VIS", "trial_index": 191}, "uniqueid": "MTK2304:3VD82FOHKRV9DD8BNZUZHXIOEJJOCI", "dateTime": 1516986624210}, {"current_trial": 192, "trialdata": {"rt": -1, "trial_type": "single-stim", "word": "snake", "stimulus": "<p id=\"stim\">SNAKE</p>", "conditions": [24, 800, "v", 12000], "internal_node_id": "0.0-147.0", "trial": 4, "time_elapsed": 1214429, "serialpos": 23, "key_press": -1, "wordID": 1332, "type": "PRES_VIS", "trial_index": 192}, "uniqueid": "MTK2304:3VD82FOHKRV9DD8BNZUZHXIOEJJOCI", "dateTime": 1516986626143}, {"current_trial": 193, "trialdata": {"rt": -1, "trial_type": "single-stim", "stimulus": "", "internal_node_id": "0.0-148.0-0.0", "time_elapsed": 1216452, "key_press": -1, "type": "PRE_RECALL_DELAY", "trial_index": 193}, "uniqueid": "MTK2304:3VD82FOHKRV9DD8BNZUZHXIOEJJOCI", "dateTime": 1516986628167}, {"current_trial": 194, "trialdata": {"rt": -1000, "trial_type": "single-audio", "stimulus": "/static/audio/400Hz.wav", "internal_node_id": "0.0-149.0", "time_elapsed": 1216954, "key_press": -1, "type": "PRE_RECALL_ALERT", "trial_index": 194}, "uniqueid": "MTK2304:3VD82FOHKRV9DD8BNZUZHXIOEJJOCI", "dateTime": 1516986628668}, {"current_trial": 195, "trialdata": {"rt": [3237, 4538, 7836, 12032, 15078, 18082, 20646, 26022, 31574, 46263], "recwords": ["snake", "drill", "dragon", "hook", "hawk", "foot", "brick", "kidney", "sketch", "tile"], "key_times": [2599, 2657, 2801, 2866, 3029, 3237, 3648, 3870, 3941, 4207, 4356, 4538, 6526, 6755, 6936, 7255, 7347, 7535, 7836, 10815, 11094, 11302, 11549, 12032, 14220, 14407, 14525, 14622, 15078, 17066, 17212, 17369, 17481, 18082, 19234, 19369, 19537, 19661, 19831, 20646, 23961, 24197, 24329, 24455, 24618, 24754, 26022, 26756, 26843, 27055, 27234, 27477, 27590, 31574, 44505, 44820, 45047, 45710, 46263], "trial_type": "free-recall", "conditions": [24, 800, "v", 12000], "internal_node_id": "0.0-150.0-0.0", "key_presses": [83, 78, 65, 75, 69, 13, 68, 82, 73, 76, 76, 13, 68, 82, 65, 71, 79, 78, 13, 72, 79, 79, 75, 13, 72, 65, 87, 75, 13, 70, 79, 79, 84, 13, 66, 82, 73, 67, 75, 13, 75, 73, 68, 78, 69, 89, 13, 83, 75, 69, 84, 67, 72, 13, 84, 73, 76, 69, 13], "trial": 4, "time_elapsed": 1276961, "type": "FREE_RECALL", "trial_index": 195}, "uniqueid": "MTK2304:3VD82FOHKRV9DD8BNZUZHXIOEJJOCI", "dateTime": 1516986688681}, {"current_trial": 196, "trialdata": {"rt": 71285, "trial_type": "text", "internal_node_id": "0.0-151.0", "time_elapsed": 1350253, "key_press": 32, "type": "INSTRUCTIONS", "trial_index": 196}, "uniqueid": "MTK2304:3VD82FOHKRV9DD8BNZUZHXIOEJJOCI", "dateTime": 1516986761968}, {"current_trial": 197, "trialdata": {"rt": [3035, 5718, 7128, 8776], "trial_type": "math-distractor", "key_times": [1636, 2417, 2664, 2719, 3035, 5366, 5512, 5718, 6830, 7021, 7128, 8128, 8695, 8776, 11770], "responses": ["10", "20", "11", "17"], "num2": [7, 3, 7, 2, 9], "num3": [1, 9, 1, 7, 2], "conditions": [12, 800, "v", 12000], "internal_node_id": "0.0-152.0", "key_presses": [57, 8, 49, 48, 13, 50, 48, 13, 49, 49, 13, 49, 55, 13, 49], "trial": 5, "time_elapsed": 1364262, "type": "DISTRACTOR", "trial_index": 197, "num1": [2, 8, 3, 8, 4]}, "uniqueid": "MTK2304:3VD82FOHKRV9DD8BNZUZHXIOEJJOCI", "dateTime": 1516986775976}, {"current_trial": 198, "trialdata": {"rt": -1, "trial_type": "single-stim", "stimulus": "<p id=\"stim\">10</p>", "internal_node_id": "0.0-153.0-0.0", "time_elapsed": 1367265, "key_press": -1, "trial_index": 198}, "uniqueid": "MTK2304:3VD82FOHKRV9DD8BNZUZHXIOEJJOCI", "dateTime": 1516986778979}, {"current_trial": 199, "trialdata": {"rt": -1, "trial_type": "single-stim", "stimulus": "<p id=\"stim\">9</p>", "internal_node_id": "0.0-153.0-1.0", "time_elapsed": 1368267, "key_press": -1, "trial_index": 199}, "uniqueid": "MTK2304:3VD82FOHKRV9DD8BNZUZHXIOEJJOCI", "dateTime": 1516986779981}, {"current_trial": 200, "trialdata": {"rt": -1, "trial_type": "single-stim", "stimulus": "<p id=\"stim\">8</p>", "internal_node_id": "0.0-153.0-2.0", "time_elapsed": 1369269, "key_press": -1, "trial_index": 200}, "uniqueid": "MTK2304:3VD82FOHKRV9DD8BNZUZHXIOEJJOCI", "dateTime": 1516986780983}, {"current_trial": 201, "trialdata": {"rt": -1, "trial_type": "single-stim", "stimulus": "<p id=\"stim\">7</p>", "internal_node_id": "0.0-153.0-3.0", "time_elapsed": 1370271, "key_press": -1, "trial_index": 201}, "uniqueid": "MTK2304:3VD82FOHKRV9DD8BNZUZHXIOEJJOCI", "dateTime": 1516986781985}, {"current_trial": 202, "trialdata": {"rt": -1, "trial_type": "single-stim", "stimulus": "<p id=\"stim\">6</p>", "internal_node_id": "0.0-153.0-4.0", "time_elapsed": 1371274, "key_press": -1, "trial_index": 202}, "uniqueid": "MTK2304:3VD82FOHKRV9DD8BNZUZHXIOEJJOCI", "dateTime": 1516986782988}, {"current_trial": 203, "trialdata": {"rt": -1, "trial_type": "single-stim", "stimulus": "<p id=\"stim\">5</p>", "internal_node_id": "0.0-153.0-5.0", "time_elapsed": 1372276, "key_press": -1, "trial_index": 203}, "uniqueid": "MTK2304:3VD82FOHKRV9DD8BNZUZHXIOEJJOCI", "dateTime": 1516986783990}, {"current_trial": 204, "trialdata": {"rt": -1, "trial_type": "single-stim", "stimulus": "<p id=\"stim\">4</p>", "internal_node_id": "0.0-153.0-6.0", "time_elapsed": 1373278, "key_press": -1, "trial_index": 204}, "uniqueid": "MTK2304:3VD82FOHKRV9DD8BNZUZHXIOEJJOCI", "dateTime": 1516986784992}, {"current_trial": 205, "trialdata": {"rt": -1, "trial_type": "single-stim", "stimulus": "<p id=\"stim\">3</p>", "internal_node_id": "0.0-153.0-7.0", "time_elapsed": 1374280, "key_press": -1, "trial_index": 205}, "uniqueid": "MTK2304:3VD82FOHKRV9DD8BNZUZHXIOEJJOCI", "dateTime": 1516986785995}, {"current_trial": 206, "trialdata": {"rt": -1, "trial_type": "single-stim", "stimulus": "<p id=\"stim\">2</p>", "internal_node_id": "0.0-153.0-8.0", "time_elapsed": 1375282, "key_press": -1, "trial_index": 206}, "uniqueid": "MTK2304:3VD82FOHKRV9DD8BNZUZHXIOEJJOCI", "dateTime": 1516986786996}, {"current_trial": 207, "trialdata": {"rt": -1, "trial_type": "single-stim", "stimulus": "<p id=\"stim\">1</p>", "internal_node_id": "0.0-153.0-9.0", "time_elapsed": 1376284, "key_press": -1, "trial_index": 207}, "uniqueid": "MTK2304:3VD82FOHKRV9DD8BNZUZHXIOEJJOCI", "dateTime": 1516986787998}, {"current_trial": 208, "trialdata": {"rt": -1, "trial_type": "single-stim", "stimulus": "<p id=\"stim\">+</p>", "internal_node_id": "0.0-154.0-0.0", "time_elapsed": 1377786, "key_press": -1, "type": "FIXATION", "trial_index": 208}, "uniqueid": "MTK2304:3VD82FOHKRV9DD8BNZUZHXIOEJJOCI", "dateTime": 1516986789500}, {"current_trial": 209, "trialdata": {"rt": -1, "trial_type": "single-stim", "word": "fox", "stimulus": "<p id=\"stim\">FOX</p>", "conditions": [12, 800, "v", 12000], "internal_node_id": "0.0-155.0", "trial": 5, "time_elapsed": 1378588, "serialpos": 0, "key_press": -1, "wordID": 597, "type": "PRES_VIS", "trial_index": 209}, "uniqueid": "MTK2304:3VD82FOHKRV9DD8BNZUZHXIOEJJOCI", "dateTime": 1516986790302}, {"current_trial": 210, "trialdata": {"rt": -1, "trial_type": "single-stim", "word": "possum", "stimulus": "<p id=\"stim\">POSSUM</p>", "conditions": [12, 800, "v", 12000], "internal_node_id": "0.0-156.0", "trial": 5, "time_elapsed": 1380344, "serialpos": 1, "key_press": -1, "wordID": 1111, "type": "PRES_VIS", "trial_index": 210}, "uniqueid": "MTK2304:3VD82FOHKRV9DD8BNZUZHXIOEJJOCI", "dateTime": 1516986792058}, {"current_trial": 211, "trialdata": {"rt": -1, "trial_type": "single-stim", "word": "shelf", "stimulus": "<p id=\"stim\">SHELF</p>", "conditions": [12, 800, "v", 12000], "internal_node_id": "0.0-157.0", "trial": 5, "time_elapsed": 1381953, "serialpos": 2, "key_press": -1, "wordID": 1279, "type": "PRES_VIS", "trial_index": 211}, "uniqueid": "MTK2304:3VD82FOHKRV9DD8BNZUZHXIOEJJOCI", "dateTime": 1516986793667}, {"current_trial": 212, "trialdata": {"rt": -1, "trial_type": "single-stim", "word": "beaker", "stimulus": "<p id=\"stim\">BEAKER</p>", "conditions": [12, 800, "v", 12000], "internal_node_id": "0.0-158.0", "trial": 5, "time_elapsed": 1383677, "serialpos": 3, "key_press": -1, "wordID": 103, "type": "PRES_VIS", "trial_index": 212}, "uniqueid": "MTK2304:3VD82FOHKRV9DD8BNZUZHXIOEJJOCI", "dateTime": 1516986795392}, {"current_trial": 213, "trialdata": {"rt": -1, "trial_type": "single-stim", "word": "virus", "stimulus": "<p id=\"stim\">VIRUS</p>", "conditions": [12, 800, "v", 12000], "internal_node_id": "0.0-159.0", "trial": 5, "time_elapsed": 1385448, "serialpos": 4, "key_press": -1, "wordID": 1571, "type": "PRES_VIS", "trial_index": 213}, "uniqueid": "MTK2304:3VD82FOHKRV9DD8BNZUZHXIOEJJOCI", "dateTime": 1516986797162}, {"current_trial": 214, "trialdata": {"rt": -1, "trial_type": "single-stim", "word": "peanut", "stimulus": "<p id=\"stim\">PEANUT</p>", "conditions": [12, 800, "v", 12000], "internal_node_id": "0.0-160.0", "trial": 5, "time_elapsed": 1387134, "serialpos": 5, "key_press": -1, "wordID": 1031, "type": "PRES_VIS", "trial_index": 214}, "uniqueid": "MTK2304:3VD82FOHKRV9DD8BNZUZHXIOEJJOCI", "dateTime": 1516986798848}, {"current_trial": 215, "trialdata": {"rt": -1, "trial_type": "single-stim", "word": "briefcase", "stimulus": "<p id=\"stim\">BRIEFCASE</p>", "conditions": [12, 800, "v", 12000], "internal_node_id": "0.0-161.0", "trial": 5, "time_elapsed": 1388748, "serialpos": 6, "key_press": -1, "wordID": 174, "type": "PRES_VIS", "trial_index": 215}, "uniqueid": "MTK2304:3VD82FOHKRV9DD8BNZUZHXIOEJJOCI", "dateTime": 1516986800463}, {"current_trial": 216, "trialdata": {"rt": -1, "trial_type": "single-stim", "word": "glove", "stimulus": "<p id=\"stim\">GLOVE</p>", "conditions": [12, 800, "v", 12000], "internal_node_id": "0.0-162.0", "trial": 5, "time_elapsed": 1390535, "serialpos": 7, "key_press": -1, "wordID": 641, "type": "PRES_VIS", "trial_index": 216}, "uniqueid": "MTK2304:3VD82FOHKRV9DD8BNZUZHXIOEJJOCI", "dateTime": 1516986802250}, {"current_trial": 217, "trialdata": {"rt": -1, "trial_type": "single-stim", "word": "flask", "stimulus": "<p id=\"stim\">FLASK</p>", "conditions": [12, 800, "v", 12000], "internal_node_id": "0.0-163.0", "trial": 5, "time_elapsed": 1392460, "serialpos": 8, "key_press": -1, "wordID": 575, "type": "PRES_VIS", "trial_index": 217}, "uniqueid": "MTK2304:3VD82FOHKRV9DD8BNZUZHXIOEJJOCI", "dateTime": 1516986804175}, {"current_trial": 218, "trialdata": {"rt": -1, "trial_type": "single-stim", "word": "robber", "stimulus": "<p id=\"stim\">ROBBER</p>", "conditions": [12, 800, "v", 12000], "internal_node_id": "0.0-164.0", "trial": 5, "time_elapsed": 1394179, "serialpos": 9, "key_press": -1, "wordID": 1196, "type": "PRES_VIS", "trial_index": 218}, "uniqueid": "MTK2304:3VD82FOHKRV9DD8BNZUZHXIOEJJOCI", "dateTime": 1516986805894}, {"current_trial": 219, "trialdata": {"rt": -1, "trial_type": "single-stim", "word": "omelet", "stimulus": "<p id=\"stim\">OMELET</p>", "conditions": [12, 800, "v", 12000], "internal_node_id": "0.0-165.0", "trial": 5, "time_elapsed": 1395980, "serialpos": 10, "key_press": -1, "wordID": 975, "type": "PRES_VIS", "trial_index": 219}, "uniqueid": "MTK2304:3VD82FOHKRV9DD8BNZUZHXIOEJJOCI", "dateTime": 1516986807694}, {"current_trial": 220, "trialdata": {"rt": -1, "trial_type": "single-stim", "word": "sunrise", "stimulus": "<p id=\"stim\">SUNRISE</p>", "conditions": [12, 800, "v", 12000], "internal_node_id": "0.0-166.0", "trial": 5, "time_elapsed": 1397943, "serialpos": 11, "key_press": -1, "wordID": 1406, "type": "PRES_VIS", "trial_index": 220}, "uniqueid": "MTK2304:3VD82FOHKRV9DD8BNZUZHXIOEJJOCI", "dateTime": 1516986809658}, {"current_trial": 221, "trialdata": {"rt": -1, "trial_type": "single-stim", "stimulus": "", "internal_node_id": "0.0-167.0-0.0", "time_elapsed": 1400312, "key_press": -1, "type": "PRE_RECALL_DELAY", "trial_index": 221}, "uniqueid": "MTK2304:3VD82FOHKRV9DD8BNZUZHXIOEJJOCI", "dateTime": 1516986812026}, {"current_trial": 222, "trialdata": {"rt": -1000, "trial_type": "single-audio", "stimulus": "/static/audio/400Hz.wav", "internal_node_id": "0.0-168.0", "time_elapsed": 1400813, "key_press": -1, "type": "PRE_RECALL_ALERT", "trial_index": 222}, "uniqueid": "MTK2304:3VD82FOHKRV9DD8BNZUZHXIOEJJOCI", "dateTime": 1516986812527}, {"current_trial": 223, "trialdata": {"rt": [3060, 4414, 9543, 12086], "recwords": ["sunrise", "robber", "virus", "fox"], "key_times": [2055, 2125, 2328, 2485, 2598, 2688, 2796, 3060, 3546, 3672, 3884, 4084, 4144, 4213, 4414, 8027, 8201, 8362, 8574, 8893, 9543, 11623, 11694, 11891, 12086], "trial_type": "free-recall", "conditions": [12, 800, "v", 12000], "internal_node_id": "0.0-169.0-0.0", "key_presses": [83, 85, 78, 82, 73, 83, 69, 13, 82, 79, 66, 66, 69, 82, 13, 86, 73, 82, 85, 83, 13, 70, 79, 88, 13], "trial": 5, "time_elapsed": 1460819, "type": "FREE_RECALL", "trial_index": 223}, "uniqueid": "MTK2304:3VD82FOHKRV9DD8BNZUZHXIOEJJOCI", "dateTime": 1516986872538}, {"current_trial": 224, "trialdata": {"rt": 12989, "trial_type": "text", "internal_node_id": "0.0-170.0", "time_elapsed": 1475815, "key_press": 32, "type": "INSTRUCTIONS", "trial_index": 224}, "uniqueid": "MTK2304:3VD82FOHKRV9DD8BNZUZHXIOEJJOCI", "dateTime": 1516986887529}, {"current_trial": 225, "trialdata": {"rt": [3064, 5412, 8776, 11265, 14288, 15779, 18377, 21603, 23608], "trial_type": "math-distractor", "key_times": [2749, 2799, 3064, 4641, 5167, 5412, 7593, 8527, 8776, 11042, 11139, 11265, 14018, 14076, 14288, 15644, 15779, 18113, 18377, 21063, 21484, 21603, 23082, 23526, 23608], "responses": ["20", "16", "15", "21", "20", "4", "2", "16", "17"], "num2": [5, 9, 7, 7, 5, 2, 6, 4, 4, 6], "num3": [7, 4, 7, 6, 7, 1, 7, 7, 6, 1], "conditions": [24, 800, "v", 24000], "internal_node_id": "0.0-171.0", "key_presses": [50, 48, 13, 49, 54, 13, 49, 53, 13, 50, 49, 13, 50, 48, 13, 52, 13, 50, 13, 49, 54, 13, 49, 55, 13], "trial": 6, "time_elapsed": 1501823, "type": "DISTRACTOR", "trial_index": 225, "num1": [8, 3, 5, 8, 8, 1, 9, 5, 7, 5]}, "uniqueid": "MTK2304:3VD82FOHKRV9DD8BNZUZHXIOEJJOCI", "dateTime": 1516986913537}, {"current_trial": 226, "trialdata": {"rt": -1, "trial_type": "single-stim", "stimulus": "<p id=\"stim\">10</p>", "internal_node_id": "0.0-172.0-0.0", "time_elapsed": 1504825, "key_press": -1, "trial_index": 226}, "uniqueid": "MTK2304:3VD82FOHKRV9DD8BNZUZHXIOEJJOCI", "dateTime": 1516986916540}, {"current_trial": 227, "trialdata": {"rt": -1, "trial_type": "single-stim", "stimulus": "<p id=\"stim\">9</p>", "internal_node_id": "0.0-172.0-1.0", "time_elapsed": 1505827, "key_press": -1, "trial_index": 227}, "uniqueid": "MTK2304:3VD82FOHKRV9DD8BNZUZHXIOEJJOCI", "dateTime": 1516986917541}, {"current_trial": 228, "trialdata": {"rt": -1, "trial_type": "single-stim", "stimulus": "<p id=\"stim\">8</p>", "internal_node_id": "0.0-172.0-2.0", "time_elapsed": 1506829, "key_press": -1, "trial_index": 228}, "uniqueid": "MTK2304:3VD82FOHKRV9DD8BNZUZHXIOEJJOCI", "dateTime": 1516986918544}, {"current_trial": 229, "trialdata": {"rt": -1, "trial_type": "single-stim", "stimulus": "<p id=\"stim\">7</p>", "internal_node_id": "0.0-172.0-3.0", "time_elapsed": 1507831, "key_press": -1, "trial_index": 229}, "uniqueid": "MTK2304:3VD82FOHKRV9DD8BNZUZHXIOEJJOCI", "dateTime": 1516986919546}, {"current_trial": 230, "trialdata": {"rt": -1, "trial_type": "single-stim", "stimulus": "<p id=\"stim\">6</p>", "internal_node_id": "0.0-172.0-4.0", "time_elapsed": 1508834, "key_press": -1, "trial_index": 230}, "uniqueid": "MTK2304:3VD82FOHKRV9DD8BNZUZHXIOEJJOCI", "dateTime": 1516986920549}, {"current_trial": 231, "trialdata": {"rt": -1, "trial_type": "single-stim", "stimulus": "<p id=\"stim\">5</p>", "internal_node_id": "0.0-172.0-5.0", "time_elapsed": 1509836, "key_press": -1, "trial_index": 231}, "uniqueid": "MTK2304:3VD82FOHKRV9DD8BNZUZHXIOEJJOCI", "dateTime": 1516986921550}, {"current_trial": 232, "trialdata": {"rt": -1, "trial_type": "single-stim", "stimulus": "<p id=\"stim\">4</p>", "internal_node_id": "0.0-172.0-6.0", "time_elapsed": 1510838, "key_press": -1, "trial_index": 232}, "uniqueid": "MTK2304:3VD82FOHKRV9DD8BNZUZHXIOEJJOCI", "dateTime": 1516986922552}, {"current_trial": 233, "trialdata": {"rt": -1, "trial_type": "single-stim", "stimulus": "<p id=\"stim\">3</p>", "internal_node_id": "0.0-172.0-7.0", "time_elapsed": 1511840, "key_press": -1, "trial_index": 233}, "uniqueid": "MTK2304:3VD82FOHKRV9DD8BNZUZHXIOEJJOCI", "dateTime": 1516986923554}, {"current_trial": 234, "trialdata": {"rt": -1, "trial_type": "single-stim", "stimulus": "<p id=\"stim\">2</p>", "internal_node_id": "0.0-172.0-8.0", "time_elapsed": 1512843, "key_press": -1, "trial_index": 234}, "uniqueid": "MTK2304:3VD82FOHKRV9DD8BNZUZHXIOEJJOCI", "dateTime": 1516986924557}, {"current_trial": 235, "trialdata": {"rt": -1, "trial_type": "single-stim", "stimulus": "<p id=\"stim\">1</p>", "internal_node_id": "0.0-172.0-9.0", "time_elapsed": 1513844, "key_press": -1, "trial_index": 235}, "uniqueid": "MTK2304:3VD82FOHKRV9DD8BNZUZHXIOEJJOCI", "dateTime": 1516986925558}, {"current_trial": 236, "trialdata": {"rt": -1, "trial_type": "single-stim", "stimulus": "<p id=\"stim\">+</p>", "internal_node_id": "0.0-173.0-0.0", "time_elapsed": 1515346, "key_press": -1, "type": "FIXATION", "trial_index": 236}, "uniqueid": "MTK2304:3VD82FOHKRV9DD8BNZUZHXIOEJJOCI", "dateTime": 1516986927061}, {"current_trial": 237, "trialdata": {"rt": -1, "trial_type": "single-stim", "word": "comet", "stimulus": "<p id=\"stim\">COMET</p>", "conditions": [24, 800, "v", 24000], "internal_node_id": "0.0-174.0", "trial": 6, "time_elapsed": 1516149, "serialpos": 0, "key_press": -1, "wordID": 352, "type": "PRES_VIS", "trial_index": 237}, "uniqueid": "MTK2304:3VD82FOHKRV9DD8BNZUZHXIOEJJOCI", "dateTime": 1516986927863}, {"current_trial": 238, "trialdata": {"rt": -1, "trial_type": "single-stim", "word": "barley", "stimulus": "<p id=\"stim\">BARLEY</p>", "conditions": [24, 800, "v", 24000], "internal_node_id": "0.0-175.0", "trial": 6, "time_elapsed": 1518122, "serialpos": 1, "key_press": -1, "wordID": 87, "type": "PRES_VIS", "trial_index": 238}, "uniqueid": "MTK2304:3VD82FOHKRV9DD8BNZUZHXIOEJJOCI", "dateTime": 1516986929837}, {"current_trial": 239, "trialdata": {"rt": -1, "trial_type": "single-stim", "word": "lady", "stimulus": "<p id=\"stim\">LADY</p>", "conditions": [24, 800, "v", 24000], "internal_node_id": "0.0-176.0", "trial": 6, "time_elapsed": 1520107, "serialpos": 2, "key_press": -1, "wordID": 793, "type": "PRES_VIS", "trial_index": 239}, "uniqueid": "MTK2304:3VD82FOHKRV9DD8BNZUZHXIOEJJOCI", "dateTime": 1516986931822}, {"current_trial": 240, "trialdata": {"rt": -1, "trial_type": "single-stim", "word": "scissors", "stimulus": "<p id=\"stim\">SCISSORS</p>", "conditions": [24, 800, "v", 24000], "internal_node_id": "0.0-177.0", "trial": 6, "time_elapsed": 1521809, "serialpos": 3, "key_press": -1, "wordID": 1249, "type": "PRES_VIS", "trial_index": 240}, "uniqueid": "MTK2304:3VD82FOHKRV9DD8BNZUZHXIOEJJOCI", "dateTime": 1516986933524}, {"current_trial": 241, "trialdata": {"rt": -1, "trial_type": "single-stim", "word": "pliers", "stimulus": "<p id=\"stim\">PLIERS</p>", "conditions": [24, 800, "v", 24000], "internal_node_id": "0.0-178.0", "trial": 6, "time_elapsed": 1523582, "serialpos": 4, "key_press": -1, "wordID": 1088, "type": "PRES_VIS", "trial_index": 241}, "uniqueid": "MTK2304:3VD82FOHKRV9DD8BNZUZHXIOEJJOCI", "dateTime": 1516986935297}, {"current_trial": 242, "trialdata": {"rt": -1, "trial_type": "single-stim", "word": "match", "stimulus": "<p id=\"stim\">MATCH</p>", "conditions": [24, 800, "v", 24000], "internal_node_id": "0.0-179.0", "trial": 6, "time_elapsed": 1525436, "serialpos": 5, "key_press": -1, "wordID": 877, "type": "PRES_VIS", "trial_index": 242}, "uniqueid": "MTK2304:3VD82FOHKRV9DD8BNZUZHXIOEJJOCI", "dateTime": 1516986937150}, {"current_trial": 243, "trialdata": {"rt": -1, "trial_type": "single-stim", "word": "woman", "stimulus": "<p id=\"stim\">WOMAN</p>", "conditions": [24, 800, "v", 24000], "internal_node_id": "0.0-180.0", "trial": 6, "time_elapsed": 1527196, "serialpos": 6, "key_press": -1, "wordID": 1619, "type": "PRES_VIS", "trial_index": 243}, "uniqueid": "MTK2304:3VD82FOHKRV9DD8BNZUZHXIOEJJOCI", "dateTime": 1516986938910}, {"current_trial": 244, "trialdata": {"rt": -1, "trial_type": "single-stim", "word": "freckle", "stimulus": "<p id=\"stim\">FRECKLE</p>", "conditions": [24, 800, "v", 24000], "internal_node_id": "0.0-181.0", "trial": 6, "time_elapsed": 1529036, "serialpos": 7, "key_press": -1, "wordID": 601, "type": "PRES_VIS", "trial_index": 244}, "uniqueid": "MTK2304:3VD82FOHKRV9DD8BNZUZHXIOEJJOCI", "dateTime": 1516986940750}, {"current_trial": 245, "trialdata": {"rt": -1, "trial_type": "single-stim", "word": "quarter", "stimulus": "<p id=\"stim\">QUARTER</p>", "conditions": [24, 800, "v", 24000], "internal_node_id": "0.0-182.0", "trial": 6, "time_elapsed": 1530835, "serialpos": 8, "key_press": -1, "wordID": 1147, "type": "PRES_VIS", "trial_index": 245}, "uniqueid": "MTK2304:3VD82FOHKRV9DD8BNZUZHXIOEJJOCI", "dateTime": 1516986942549}, {"current_trial": 246, "trialdata": {"rt": -1, "trial_type": "single-stim", "word": "pluto", "stimulus": "<p id=\"stim\">PLUTO</p>", "conditions": [24, 800, "v", 24000], "internal_node_id": "0.0-183.0", "trial": 6, "time_elapsed": 1532829, "serialpos": 9, "key_press": -1, "wordID": 1091, "type": "PRES_VIS", "trial_index": 246}, "uniqueid": "MTK2304:3VD82FOHKRV9DD8BNZUZHXIOEJJOCI", "dateTime": 1516986944543}, {"current_trial": 247, "trialdata": {"rt": -1, "trial_type": "single-stim", "word": "japan", "stimulus": "<p id=\"stim\">JAPAN</p>", "conditions": [24, 800, "v", 24000], "internal_node_id": "0.0-184.0", "trial": 6, "time_elapsed": 1534485, "serialpos": 10, "key_press": -1, "wordID": 748, "type": "PRES_VIS", "trial_index": 247}, "uniqueid": "MTK2304:3VD82FOHKRV9DD8BNZUZHXIOEJJOCI", "dateTime": 1516986946199}, {"current_trial": 248, "trialdata": {"rt": -1, "trial_type": "single-stim", "word": "message", "stimulus": "<p id=\"stim\">MESSAGE</p>", "conditions": [24, 800, "v", 24000], "internal_node_id": "0.0-185.0", "trial": 6, "time_elapsed": 1536223, "serialpos": 11, "key_press": -1, "wordID": 887, "type": "PRES_VIS", "trial_index": 248}, "uniqueid": "MTK2304:3VD82FOHKRV9DD8BNZUZHXIOEJJOCI", "dateTime": 1516986947937}, {"current_trial": 249, "trialdata": {"rt": -1, "trial_type": "single-stim", "word": "poison", "stimulus": "<p id=\"stim\">POISON</p>", "conditions": [24, 800, "v", 24000], "internal_node_id": "0.0-186.0", "trial": 6, "time_elapsed": 1538207, "serialpos": 12, "key_press": -1, "wordID": 1095, "type": "PRES_VIS", "trial_index": 249}, "uniqueid": "MTK2304:3VD82FOHKRV9DD8BNZUZHXIOEJJOCI", "dateTime": 1516986949921}, {"current_trial": 250, "trialdata": {"rt": -1, "trial_type": "single-stim", "word": "actor", "stimulus": "<p id=\"stim\">ACTOR</p>", "conditions": [24, 800, "v", 24000], "internal_node_id": "0.0-187.0", "trial": 6, "time_elapsed": 1539981, "serialpos": 13, "key_press": -1, "wordID": 4, "type": "PRES_VIS", "trial_index": 250}, "uniqueid": "MTK2304:3VD82FOHKRV9DD8BNZUZHXIOEJJOCI", "dateTime": 1516986951695}, {"current_trial": 251, "trialdata": {"rt": -1, "trial_type": "single-stim", "word": "igloo", "stimulus": "<p id=\"stim\">IGLOO</p>", "conditions": [24, 800, "v", 24000], "internal_node_id": "0.0-188.0", "trial": 6, "time_elapsed": 1541749, "serialpos": 14, "key_press": -1, "wordID": 733, "type": "PRES_VIS", "trial_index": 251}, "uniqueid": "MTK2304:3VD82FOHKRV9DD8BNZUZHXIOEJJOCI", "dateTime": 1516986953463}, {"current_trial": 252, "trialdata": {"rt": -1, "trial_type": "single-stim", "word": "trombone", "stimulus": "<p id=\"stim\">TROMBONE</p>", "conditions": [24, 800, "v", 24000], "internal_node_id": "0.0-189.0", "trial": 6, "time_elapsed": 1543585, "serialpos": 15, "key_press": -1, "wordID": 1507, "type": "PRES_VIS", "trial_index": 252}, "uniqueid": "MTK23