{"assignmentId": "3DPNQGW4LMMGT3PSUO2NHZK931A46Q", "workerId": "MTK2717", "questiondata": {"origin": "United States", "strat-rehearsal": "16", "marital": "Not Reported", "education": "Master's degree", "ethnicity": "Not Hispanic", "color_depth": 24, "distracted": "No", "wrote-notes": "No", "strat-other": "saying words out loud", "screen_width": 1280, "avail_screen_width": 1280, "avail_screen_height": 728, "strat-image": "51", "language": "English", "gender": "Female", "age": "64", "gender_other": "", "race": ["American Indian/Alaskan Native", "White"], "strat-categorize": "25", "pixel_depth": 24, "strat-spatial": "6", "strat-story": "11", "race_other": "", "screen_height": 768}, "bonus": 0, "hitId": "3GV1I4SEO9WA4RYJAEW2EWQ04F76LB", "counterbalance": 1929, "useragent": "Mozilla/5.0 (Windows NT 6.3; Win64; x64) AppleWebKit/537.36 (KHTML, like Gecko) Chrome/63.0.3239.132 Safari/537.36", "eventdata": [{"eventtype": "initialized", "interval": 0, "value": null, "timestamp": 1519249506962}, {"eventtype": "window_resize", "interval": 0, "value": [1276, 713], "timestamp": 1519249506962}, {"eventtype": "window_resize", "interval": 760438, "value": [1417, 792], "timestamp": 1519250267400}, {"eventtype": "window_resize", "interval": 6076, "value": [1422, 752], "timestamp": 1519250273476}], "data": [{"current_trial": 0, "trialdata": {"rt": 2772, "trial_type": "text", "internal_node_id": "0.0-0.0", "time_elapsed": 2775, "key_press": 75, "type": "INSTRUCTIONS", "trial_index": 0}, "uniqueid": "MTK2717:3DPNQGW4LMMGT3PSUO2NHZK931A46Q", "dateTime": 1519249529878}, {"current_trial": 1, "trialdata": {"rt": 148715, "trial_type": "text", "internal_node_id": "0.0-1.0", "time_elapsed": 151492, "key_press": 75, "type": "INSTRUCTIONS", "trial_index": 1}, "uniqueid": "MTK2717:3DPNQGW4LMMGT3PSUO2NHZK931A46Q", "dateTime": 1519249678595}, {"current_trial": 2, "trialdata": {"rt": [15303], "trial_type": "audio-test", "responses": ["ocean"], "internal_node_id": "0.0-2.0", "time_elapsed": 166826, "type": "AUDIO_TEST", "trial_index": 2}, "uniqueid": "MTK2717:3DPNQGW4LMMGT3PSUO2NHZK931A46Q", "dateTime": 1519249693929}, {"current_trial": 3, "trialdata": {"rt": [8373], "trial_type": "audio-test", "responses": ["crystal"], "internal_node_id": "0.0-3.0", "time_elapsed": 175205, "type": "AUDIO_TEST", "trial_index": 3}, "uniqueid": "MTK2717:3DPNQGW4LMMGT3PSUO2NHZK931A46Q", "dateTime": 1519249702309}, {"current_trial": 4, "trialdata": {"rt": [10121], "trial_type": "audio-test", "responses": ["spice"], "internal_node_id": "0.0-4.0", "time_elapsed": 185333, "type": "AUDIO_TEST", "trial_index": 4}, "uniqueid": "MTK2717:3DPNQGW4LMMGT3PSUO2NHZK931A46Q", "dateTime": 1519249712436}, {"current_trial": 5, "trialdata": {"rt": 38978, "trial_type": "survey-text", "responses": "{\"Q0\":\"10:30 PM\",\"Q1\":\"7:30 AM\",\"Q2\":\"2\"}", "internal_node_id": "0.0-5.0", "time_elapsed": 225064, "type": "SLEEP_SURVEY", "trial_index": 5}, "uniqueid": "MTK2717:3DPNQGW4LMMGT3PSUO2NHZK931A46Q", "dateTime": 1519249752167}, {"current_trial": 6, "trialdata": {"rt": 65403, "trial_type": "text", "internal_node_id": "0.0-6.0", "time_elapsed": 291468, "key_press": 78, "type": "INSTRUCTIONS", "trial_index": 6}, "uniqueid": "MTK2717:3DPNQGW4LMMGT3PSUO2NHZK931A46Q", "dateTime": 1519249818571}, {"current_trial": 7, "trialdata": {"rt": 21432, "trial_type": "text", "internal_node_id": "0.0-7.0", "time_elapsed": 313400, "key_press": 77, "type": "INSTRUCTIONS", "trial_index": 7}, "uniqueid": "MTK2717:3DPNQGW4LMMGT3PSUO2NHZK931A46Q", "dateTime": 1519249840504}, {"current_trial": 8, "trialdata": {"rt": 11491, "trial_type": "text", "internal_node_id": "0.0-8.0", "time_elapsed": 325394, "key_press": 77, "type": "INSTRUCTIONS", "trial_index": 8}, "uniqueid": "MTK2717:3DPNQGW4LMMGT3PSUO2NHZK931A46Q", "dateTime": 1519249852497}, {"current_trial": 9, "trialdata": {"rt": [3553, 8590, 12026, 15703], "trial_type": "math-distractor", "key_times": [2910, 3553, 7855, 8139, 8590, 11101, 11437, 12026, 13982, 14983, 15703, 17320, 17717], "responses": ["9", "26", "17", "16"], "num2": [4, 9, 3, 7, 5], "num3": [2, 8, 9, 1, 5], "conditions": [18, 1200, "a", 18000], "internal_node_id": "0.0-9.0", "key_presses": [105, 13, 98, 102, 13, 97, 103, 13, 97, 102, 13, 97, 99], "trial": 0, "time_elapsed": 344402, "type": "DISTRACTOR", "trial_index": 9, "num1": [3, 9, 5, 8, 3]}, "uniqueid": "MTK2717:3DPNQGW4LMMGT3PSUO2NHZK931A46Q", "dateTime": 1519249871505}, {"current_trial": 10, "trialdata": {"rt": -1, "trial_type": "single-stim", "stimulus": "<p id=\"stim\">10</p>", "internal_node_id": "0.0-10.0-0.0", "time_elapsed": 347405, "key_press": -1, "trial_index": 10}, "uniqueid": "MTK2717:3DPNQGW4LMMGT3PSUO2NHZK931A46Q", "dateTime": 1519249874508}, {"current_trial": 11, "trialdata": {"rt": -1, "trial_type": "single-stim", "stimulus": "<p id=\"stim\">9</p>", "internal_node_id": "0.0-10.0-1.0", "time_elapsed": 348406, "key_press": -1, "trial_index": 11}, "uniqueid": "MTK2717:3DPNQGW4LMMGT3PSUO2NHZK931A46Q", "dateTime": 1519249875509}, {"current_trial": 12, "trialdata": {"rt": -1, "trial_type": "single-stim", "stimulus": "<p id=\"stim\">8</p>", "internal_node_id": "0.0-10.0-2.0", "time_elapsed": 349408, "key_press": -1, "trial_index": 12}, "uniqueid": "MTK2717:3DPNQGW4LMMGT3PSUO2NHZK931A46Q", "dateTime": 1519249876511}, {"current_trial": 13, "trialdata": {"rt": -1, "trial_type": "single-stim", "stimulus": "<p id=\"stim\">7</p>", "internal_node_id": "0.0-10.0-3.0", "time_elapsed": 350410, "key_press": -1, "trial_index": 13}, "uniqueid": "MTK2717:3DPNQGW4LMMGT3PSUO2NHZK931A46Q", "dateTime": 1519249877513}, {"current_trial": 14, "trialdata": {"rt": -1, "trial_type": "single-stim", "stimulus": "<p id=\"stim\">6</p>", "internal_node_id": "0.0-10.0-4.0", "time_elapsed": 351411, "key_press": -1, "trial_index": 14}, "uniqueid": "MTK2717:3DPNQGW4LMMGT3PSUO2NHZK931A46Q", "dateTime": 1519249878514}, {"current_trial": 15, "trialdata": {"rt": -1, "trial_type": "single-stim", "stimulus": "<p id=\"stim\">5</p>", "internal_node_id": "0.0-10.0-5.0", "time_elapsed": 352412, "key_press": -1, "trial_index": 15}, "uniqueid": "MTK2717:3DPNQGW4LMMGT3PSUO2NHZK931A46Q", "dateTime": 1519249879515}, {"current_trial": 16, "trialdata": {"rt": -1, "trial_type": "single-stim", "stimulus": "<p id=\"stim\">4</p>", "internal_node_id": "0.0-10.0-6.0", "time_elapsed": 353415, "key_press": -1, "trial_index": 16}, "uniqueid": "MTK2717:3DPNQGW4LMMGT3PSUO2NHZK931A46Q", "dateTime": 1519249880518}, {"current_trial": 17, "trialdata": {"rt": -1, "trial_type": "single-stim", "stimulus": "<p id=\"stim\">3</p>", "internal_node_id": "0.0-10.0-7.0", "time_elapsed": 354418, "key_press": -1, "trial_index": 17}, "uniqueid": "MTK2717:3DPNQGW4LMMGT3PSUO2NHZK931A46Q", "dateTime": 1519249881521}, {"current_trial": 18, "trialdata": {"rt": -1, "trial_type": "single-stim", "stimulus": "<p id=\"stim\">2</p>", "internal_node_id": "0.0-10.0-8.0", "time_elapsed": 355419, "key_press": -1, "trial_index": 18}, "uniqueid": "MTK2717:3DPNQGW4LMMGT3PSUO2NHZK931A46Q", "dateTime": 1519249882522}, {"current_trial": 19, "trialdata": {"rt": -1, "trial_type": "single-stim", "stimulus": "<p id=\"stim\">1</p>", "internal_node_id": "0.0-10.0-9.0", "time_elapsed": 356420, "key_press": -1, "trial_index": 19}, "uniqueid": "MTK2717:3DPNQGW4LMMGT3PSUO2NHZK931A46Q", "dateTime": 1519249883523}, {"current_trial": 20, "trialdata": {"rt": -1, "trial_type": "single-stim", "stimulus": "<p id=\"stim\">+</p>", "internal_node_id": "0.0-11.0-0.0", "time_elapsed": 357922, "key_press": -1, "type": "FIXATION", "trial_index": 20}, "uniqueid": "MTK2717:3DPNQGW4LMMGT3PSUO2NHZK931A46Q", "dateTime": 1519249885025}, {"current_trial": 21, "trialdata": {"rt": -1000, "trial_type": "single-audio", "word": "body", "stimulus": "/static/audio/wordpool/BODY.wav", "conditions": [18, 1200, "a", 18000], "internal_node_id": "0.0-12.0", "trial": 0, "time_elapsed": 360166, "serialpos": 0, "key_press": -1, "wordID": 144, "type": "PRES_AUD", "trial_index": 21}, "uniqueid": "MTK2717:3DPNQGW4LMMGT3PSUO2NHZK931A46Q", "dateTime": 1519249887269}, {"current_trial": 22, "trialdata": {"rt": -1000, "trial_type": "single-audio", "word": "wrench", "stimulus": "/static/audio/wordpool/WRENCH.wav", "conditions": [18, 1200, "a", 18000], "internal_node_id": "0.0-13.0", "trial": 0, "time_elapsed": 362170, "serialpos": 1, "key_press": -1, "wordID": 1624, "type": "PRES_AUD", "trial_index": 22}, "uniqueid": "MTK2717:3DPNQGW4LMMGT3PSUO2NHZK931A46Q", "dateTime": 1519249889273}, {"current_trial": 23, "trialdata": {"rt": -1000, "trial_type": "single-audio", "word": "parrot", "stimulus": "/static/audio/wordpool/PARROT.wav", "conditions": [18, 1200, "a", 18000], "internal_node_id": "0.0-14.0", "trial": 0, "time_elapsed": 364251, "serialpos": 2, "key_press": -1, "wordID": 1014, "type": "PRES_AUD", "trial_index": 23}, "uniqueid": "MTK2717:3DPNQGW4LMMGT3PSUO2NHZK931A46Q", "dateTime": 1519249891354}, {"current_trial": 24, "trialdata": {"rt": -1000, "trial_type": "single-audio", "word": "onion", "stimulus": "/static/audio/wordpool/ONION.wav", "conditions": [18, 1200, "a", 18000], "internal_node_id": "0.0-15.0", "trial": 0, "time_elapsed": 366533, "serialpos": 3, "key_press": -1, "wordID": 976, "type": "PRES_AUD", "trial_index": 24}, "uniqueid": "MTK2717:3DPNQGW4LMMGT3PSUO2NHZK931A46Q", "dateTime": 1519249893636}, {"current_trial": 25, "trialdata": {"rt": -1000, "trial_type": "single-audio", "word": "cottage", "stimulus": "/static/audio/wordpool/COTTAGE.wav", "conditions": [18, 1200, "a", 18000], "internal_node_id": "0.0-16.0", "trial": 0, "time_elapsed": 368623, "serialpos": 4, "key_press": -1, "wordID": 383, "type": "PRES_AUD", "trial_index": 25}, "uniqueid": "MTK2717:3DPNQGW4LMMGT3PSUO2NHZK931A46Q", "dateTime": 1519249895726}, {"current_trial": 26, "trialdata": {"rt": -1000, "trial_type": "single-audio", "word": "cashier", "stimulus": "/static/audio/wordpool/CASHIER.wav", "conditions": [18, 1200, "a", 18000], "internal_node_id": "0.0-17.0", "trial": 0, "time_elapsed": 370964, "serialpos": 5, "key_press": -1, "wordID": 253, "type": "PRES_AUD", "trial_index": 26}, "uniqueid": "MTK2717:3DPNQGW4LMMGT3PSUO2NHZK931A46Q", "dateTime": 1519249898067}, {"current_trial": 27, "trialdata": {"rt": -1000, "trial_type": "single-audio", "word": "driver", "stimulus": "/static/audio/wordpool/DRIVER.wav", "conditions": [18, 1200, "a", 18000], "internal_node_id": "0.0-18.0", "trial": 0, "time_elapsed": 373176, "serialpos": 6, "key_press": -1, "wordID": 498, "type": "PRES_AUD", "trial_index": 27}, "uniqueid": "MTK2717:3DPNQGW4LMMGT3PSUO2NHZK931A46Q", "dateTime": 1519249900280}, {"current_trial": 28, "trialdata": {"rt": -1000, "trial_type": "single-audio", "word": "world", "stimulus": "/static/audio/wordpool/WORLD.wav", "conditions": [18, 1200, "a", 18000], "internal_node_id": "0.0-19.0", "trial": 0, "time_elapsed": 375457, "serialpos": 7, "key_press": -1, "wordID": 1621, "type": "PRES_AUD", "trial_index": 28}, "uniqueid": "MTK2717:3DPNQGW4LMMGT3PSUO2NHZK931A46Q", "dateTime": 1519249902560}, {"current_trial": 29, "trialdata": {"rt": -1000, "trial_type": "single-audio", "word": "liver", "stimulus": "/static/audio/wordpool/LIVER.wav", "conditions": [18, 1200, "a", 18000], "internal_node_id": "0.0-20.0", "trial": 0, "time_elapsed": 377778, "serialpos": 8, "key_press": -1, "wordID": 832, "type": "PRES_AUD", "trial_index": 29}, "uniqueid": "MTK2717:3DPNQGW4LMMGT3PSUO2NHZK931A46Q", "dateTime": 1519249904881}, {"current_trial": 30, "trialdata": {"rt": -1000, "trial_type": "single-audio", "word": "guitar", "stimulus": "/static/audio/wordpool/GUITAR.wav", "conditions": [18, 1200, "a", 18000], "internal_node_id": "0.0-21.0", "trial": 0, "time_elapsed": 379919, "serialpos": 9, "key_press": -1, "wordID": 669, "type": "PRES_AUD", "trial_index": 30}, "uniqueid": "MTK2717:3DPNQGW4LMMGT3PSUO2NHZK931A46Q", "dateTime": 1519249907022}, {"current_trial": 31, "trialdata": {"rt": -1000, "trial_type": "single-audio", "word": "clam", "stimulus": "/static/audio/wordpool/CLAM.wav", "conditions": [18, 1200, "a", 18000], "internal_node_id": "0.0-22.0", "trial": 0, "time_elapsed": 382174, "serialpos": 10, "key_press": -1, "wordID": 314, "type": "PRES_AUD", "trial_index": 31}, "uniqueid": "MTK2717:3DPNQGW4LMMGT3PSUO2NHZK931A46Q", "dateTime": 1519249909277}, {"current_trial": 32, "trialdata": {"rt": -1000, "trial_type": "single-audio", "word": "empire", "stimulus": "/static/audio/wordpool/EMPIRE.wav", "conditions": [18, 1200, "a", 18000], "internal_node_id": "0.0-23.0", "trial": 0, "time_elapsed": 384283, "serialpos": 11, "key_press": -1, "wordID": 529, "type": "PRES_AUD", "trial_index": 32}, "uniqueid": "MTK2717:3DPNQGW4LMMGT3PSUO2NHZK931A46Q", "dateTime": 1519249911387}, {"current_trial": 33, "trialdata": {"rt": -1000, "trial_type": "single-audio", "word": "quail", "stimulus": "/static/audio/wordpool/QUAIL.wav", "conditions": [18, 1200, "a", 18000], "internal_node_id": "0.0-24.0", "trial": 0, "time_elapsed": 386554, "serialpos": 12, "key_press": -1, "wordID": 1146, "type": "PRES_AUD", "trial_index": 33}, "uniqueid": "MTK2717:3DPNQGW4LMMGT3PSUO2NHZK931A46Q", "dateTime": 1519249913657}, {"current_trial": 34, "trialdata": {"rt": -1000, "trial_type": "single-audio", "word": "buggy", "stimulus": "/static/audio/wordpool/BUGGY.wav", "conditions": [18, 1200, "a", 18000], "internal_node_id": "0.0-25.0", "trial": 0, "time_elapsed": 388556, "serialpos": 13, "key_press": -1, "wordID": 187, "type": "PRES_AUD", "trial_index": 34}, "uniqueid": "MTK2717:3DPNQGW4LMMGT3PSUO2NHZK931A46Q", "dateTime": 1519249915659}, {"current_trial": 35, "trialdata": {"rt": -1000, "trial_type": "single-audio", "word": "lunch", "stimulus": "/static/audio/wordpool/LUNCH.wav", "conditions": [18, 1200, "a", 18000], "internal_node_id": "0.0-26.0", "trial": 0, "time_elapsed": 390757, "serialpos": 14, "key_press": -1, "wordID": 848, "type": "PRES_AUD", "trial_index": 35}, "uniqueid": "MTK2717:3DPNQGW4LMMGT3PSUO2NHZK931A46Q", "dateTime": 1519249917860}, {"current_trial": 36, "trialdata": {"rt": -1000, "trial_type": "single-audio", "word": "snail", "stimulus": "/static/audio/wordpool/SNAIL.wav", "conditions": [18, 1200, "a", 18000], "internal_node_id": "0.0-27.0", "trial": 0, "time_elapsed": 392809, "serialpos": 15, "key_press": -1, "wordID": 1331, "type": "PRES_AUD", "trial_index": 36}, "uniqueid": "MTK2717:3DPNQGW4LMMGT3PSUO2NHZK931A46Q", "dateTime": 1519249919912}, {"current_trial": 37, "trialdata": {"rt": -1000, "trial_type": "single-audio", "word": "shelter", "stimulus": "/static/audio/wordpool/SHELTER.wav", "conditions": [18, 1200, "a", 18000], "internal_node_id": "0.0-28.0", "trial": 0, "time_elapsed": 394975, "serialpos": 16, "key_press": -1, "wordID": 1281, "type": "PRES_AUD", "trial_index": 37}, "uniqueid": "MTK2717:3DPNQGW4LMMGT3PSUO2NHZK931A46Q", "dateTime": 1519249922078}, {"current_trial": 38, "trialdata": {"rt": -1000, "trial_type": "single-audio", "word": "peanut", "stimulus": "/static/audio/wordpool/PEANUT.wav", "conditions": [18, 1200, "a", 18000], "internal_node_id": "0.0-29.0", "trial": 0, "time_elapsed": 397310, "serialpos": 17, "key_press": -1, "wordID": 1031, "type": "PRES_AUD", "trial_index": 38}, "uniqueid": "MTK2717:3DPNQGW4LMMGT3PSUO2NHZK931A46Q", "dateTime": 1519249924413}, {"current_trial": 39, "trialdata": {"rt": -1, "trial_type": "single-stim", "stimulus": "", "internal_node_id": "0.0-30.0-0.0", "time_elapsed": 398684, "key_press": -1, "type": "PRE_RECALL_DELAY", "trial_index": 39}, "uniqueid": "MTK2717:3DPNQGW4LMMGT3PSUO2NHZK931A46Q", "dateTime": 1519249925787}, {"current_trial": 40, "trialdata": {"rt": -1000, "trial_type": "single-audio", "stimulus": "/static/audio/400Hz.wav", "internal_node_id": "0.0-31.0", "time_elapsed": 399185, "key_press": -1, "type": "PRE_RECALL_ALERT", "trial_index": 40}, "uniqueid": "MTK2717:3DPNQGW4LMMGT3PSUO2NHZK931A46Q", "dateTime": 1519249926289}, {"current_trial": 41, "trialdata": {"rt": [4846, 6681, 8283, 10396, 13575, 16743, 20137, 22332, 44399, 56333], "recwords": ["seltzer", "peanut", "body", "wrench", "buzzy", "quail", "carrot", "onion", "empire", "umpire"], "key_times": [2517, 2691, 2826, 3175, 3494, 3808, 3909, 4846, 5432, 5510, 5647, 5859, 6087, 6288, 6681, 7239, 7314, 7530, 7613, 8283, 8613, 8810, 8998, 9161, 9376, 9490, 10396, 11884, 11972, 12223, 12420, 12542, 13575, 14964, 15074, 15273, 15610, 15868, 16743, 17972, 18173, 18881, 19054, 19161, 19452, 20137, 20554, 20742, 20927, 21065, 21252, 22332, 43037, 43127, 43340, 43546, 43847, 44034, 44399, 53194, 53496, 53732, 54545, 54855, 55014, 56333], "trial_type": "free-recall", "conditions": [18, 1200, "a", 18000], "internal_node_id": "0.0-32.0-0.0", "key_presses": [83, 69, 76, 84, 90, 69, 82, 13, 80, 69, 65, 78, 85, 84, 13, 66, 79, 68, 89, 13, 87, 82, 69, 78, 67, 72, 13, 66, 85, 90, 90, 89, 13, 81, 85, 65, 73, 76, 13, 67, 65, 82, 82, 79, 84, 13, 79, 78, 73, 79, 78, 13, 69, 77, 80, 73, 82, 69, 13, 85, 77, 80, 73, 82, 69, 13], "trial": 0, "time_elapsed": 459190, "type": "FREE_RECALL", "trial_index": 41}, "uniqueid": "MTK2717:3DPNQGW4LMMGT3PSUO2NHZK931A46Q", "dateTime": 1519249986295}, {"current_trial": 42, "trialdata": {"rt": 1317, "trial_type": "text", "internal_node_id": "0.0-33.0", "time_elapsed": 462511, "key_press": 74, "type": "INSTRUCTIONS", "trial_index": 42}, "uniqueid": "MTK2717:3DPNQGW4LMMGT3PSUO2NHZK931A46Q", "dateTime": 1519249989614}, {"current_trial": 43, "trialdata": {"rt": [5077, 7681, 9777, 12015, 14161, 16699], "trial_type": "math-distractor", "key_times": [3806, 4116, 5077, 7119, 7681, 9239, 9777, 11347, 11647, 12015, 13762, 14161, 16114, 16328, 16699], "responses": ["17", "7", "7", "19", "9", "12"], "num2": [8, 2, 1, 1, 2, 9, 4], "num3": [5, 3, 1, 9, 6, 1, 4], "conditions": [18, 1200, "a", 18000], "internal_node_id": "0.0-34.0", "key_presses": [97, 103, 13, 103, 13, 103, 13, 97, 105, 13, 105, 13, 97, 98, 13], "trial": 1, "time_elapsed": 482514, "type": "DISTRACTOR", "trial_index": 43, "num1": [4, 2, 5, 9, 1, 2, 5]}, "uniqueid": "MTK2717:3DPNQGW4LMMGT3PSUO2NHZK931A46Q", "dateTime": 1519250009617}, {"current_trial": 44, "trialdata": {"rt": -1, "trial_type": "single-stim", "stimulus": "<p id=\"stim\">10</p>", "internal_node_id": "0.0-35.0-0.0", "time_elapsed": 485517, "key_press": -1, "trial_index": 44}, "uniqueid": "MTK2717:3DPNQGW4LMMGT3PSUO2NHZK931A46Q", "dateTime": 1519250012620}, {"current_trial": 45, "trialdata": {"rt": -1, "trial_type": "single-stim", "stimulus": "<p id=\"stim\">9</p>", "internal_node_id": "0.0-35.0-1.0", "time_elapsed": 486518, "key_press": -1, "trial_index": 45}, "uniqueid": "MTK2717:3DPNQGW4LMMGT3PSUO2NHZK931A46Q", "dateTime": 1519250013621}, {"current_trial": 46, "trialdata": {"rt": -1, "trial_type": "single-stim", "stimulus": "<p id=\"stim\">8</p>", "internal_node_id": "0.0-35.0-2.0", "time_elapsed": 487520, "key_press": -1, "trial_index": 46}, "uniqueid": "MTK2717:3DPNQGW4LMMGT3PSUO2NHZK931A46Q", "dateTime": 1519250014623}, {"current_trial": 47, "trialdata": {"rt": -1, "trial_type": "single-stim", "stimulus": "<p id=\"stim\">7</p>", "internal_node_id": "0.0-35.0-3.0", "time_elapsed": 488521, "key_press": -1, "trial_index": 47}, "uniqueid": "MTK2717:3DPNQGW4LMMGT3PSUO2NHZK931A46Q", "dateTime": 1519250015624}, {"current_trial": 48, "trialdata": {"rt": -1, "trial_type": "single-stim", "stimulus": "<p id=\"stim\">6</p>", "internal_node_id": "0.0-35.0-4.0", "time_elapsed": 489522, "key_press": -1, "trial_index": 48}, "uniqueid": "MTK2717:3DPNQGW4LMMGT3PSUO2NHZK931A46Q", "dateTime": 1519250016626}, {"current_trial": 49, "trialdata": {"rt": -1, "trial_type": "single-stim", "stimulus": "<p id=\"stim\">5</p>", "internal_node_id": "0.0-35.0-5.0", "time_elapsed": 490524, "key_press": -1, "trial_index": 49}, "uniqueid": "MTK2717:3DPNQGW4LMMGT3PSUO2NHZK931A46Q", "dateTime": 1519250017627}, {"current_trial": 50, "trialdata": {"rt": -1, "trial_type": "single-stim", "stimulus": "<p id=\"stim\">4</p>", "internal_node_id": "0.0-35.0-6.0", "time_elapsed": 491525, "key_press": -1, "trial_index": 50}, "uniqueid": "MTK2717:3DPNQGW4LMMGT3PSUO2NHZK931A46Q", "dateTime": 1519250018628}, {"current_trial": 51, "trialdata": {"rt": -1, "trial_type": "single-stim", "stimulus": "<p id=\"stim\">3</p>", "internal_node_id": "0.0-35.0-7.0", "time_elapsed": 492526, "key_press": -1, "trial_index": 51}, "uniqueid": "MTK2717:3DPNQGW4LMMGT3PSUO2NHZK931A46Q", "dateTime": 1519250019630}, {"current_trial": 52, "trialdata": {"rt": -1, "trial_type": "single-stim", "stimulus": "<p id=\"stim\">2</p>", "internal_node_id": "0.0-35.0-8.0", "time_elapsed": 493528, "key_press": -1, "trial_index": 52}, "uniqueid": "MTK2717:3DPNQGW4LMMGT3PSUO2NHZK931A46Q", "dateTime": 1519250020631}, {"current_trial": 53, "trialdata": {"rt": -1, "trial_type": "single-stim", "stimulus": "<p id=\"stim\">1</p>", "internal_node_id": "0.0-35.0-9.0", "time_elapsed": 494529, "key_press": -1, "trial_index": 53}, "uniqueid": "MTK2717:3DPNQGW4LMMGT3PSUO2NHZK931A46Q", "dateTime": 1519250021632}, {"current_trial": 54, "trialdata": {"rt": -1, "trial_type": "single-stim", "stimulus": "<p id=\"stim\">+</p>", "internal_node_id": "0.0-36.0-0.0", "time_elapsed": 496031, "key_press": -1, "type": "FIXATION", "trial_index": 54}, "uniqueid": "MTK2717:3DPNQGW4LMMGT3PSUO2NHZK931A46Q", "dateTime": 1519250023134}, {"current_trial": 55, "trialdata": {"rt": -1000, "trial_type": "single-audio", "word": "waiter", "stimulus": "/static/audio/wordpool/WAITER.wav", "conditions": [18, 1200, "a", 18000], "internal_node_id": "0.0-37.0", "trial": 1, "time_elapsed": 498229, "serialpos": 0, "key_press": -1, "wordID": 1579, "type": "PRES_AUD", "trial_index": 55}, "uniqueid": "MTK2717:3DPNQGW4LMMGT3PSUO2NHZK931A46Q", "dateTime": 1519250025332}, {"current_trial": 56, "trialdata": {"rt": -1000, "trial_type": "single-audio", "word": "waitress", "stimulus": "/static/audio/wordpool/WAITRESS.wav", "conditions": [18, 1200, "a", 18000], "internal_node_id": "0.0-38.0", "trial": 1, "time_elapsed": 500565, "serialpos": 1, "key_press": -1, "wordID": 1580, "type": "PRES_AUD", "trial_index": 56}, "uniqueid": "MTK2717:3DPNQGW4LMMGT3PSUO2NHZK931A46Q", "dateTime": 1519250027668}, {"current_trial": 57, "trialdata": {"rt": -1000, "trial_type": "single-audio", "word": "witness", "stimulus": "/static/audio/wordpool/WITNESS.wav", "conditions": [18, 1200, "a", 18000], "internal_node_id": "0.0-39.0", "trial": 1, "time_elapsed": 502916, "serialpos": 2, "key_press": -1, "wordID": 1617, "type": "PRES_AUD", "trial_index": 57}, "uniqueid": "MTK2717:3DPNQGW4LMMGT3PSUO2NHZK931A46Q", "dateTime": 1519250030019}, {"current_trial": 58, "trialdata": {"rt": -1000, "trial_type": "single-audio", "word": "sibling", "stimulus": "/static/audio/wordpool/SIBLING.wav", "conditions": [18, 1200, "a", 18000], "internal_node_id": "0.0-40.0", "trial": 1, "time_elapsed": 505142, "serialpos": 3, "key_press": -1, "wordID": 1300, "type": "PRES_AUD", "trial_index": 58}, "uniqueid": "MTK2717:3DPNQGW4LMMGT3PSUO2NHZK931A46Q", "dateTime": 1519250032245}, {"current_trial": 59, "trialdata": {"rt": -1000, "trial_type": "single-audio", "word": "hatchet", "stimulus": "/static/audio/wordpool/HATCHET.wav", "conditions": [18, 1200, "a", 18000], "internal_node_id": "0.0-41.0", "trial": 1, "time_elapsed": 507258, "serialpos": 4, "key_press": -1, "wordID": 690, "type": "PRES_AUD", "trial_index": 59}, "uniqueid": "MTK2717:3DPNQGW4LMMGT3PSUO2NHZK931A46Q", "dateTime": 1519250034361}, {"current_trial": 60, "trialdata": {"rt": -1000, "trial_type": "single-audio", "word": "stallion", "stimulus": "/static/audio/wordpool/STALLION.wav", "conditions": [18, 1200, "a", 18000], "internal_node_id": "0.0-42.0", "trial": 1, "time_elapsed": 509418, "serialpos": 5, "key_press": -1, "wordID": 1368, "type": "PRES_AUD", "trial_index": 60}, "uniqueid": "MTK2717:3DPNQGW4LMMGT3PSUO2NHZK931A46Q", "dateTime": 1519250036521}, {"current_trial": 61, "trialdata": {"rt": -1000, "trial_type": "single-audio", "word": "backbone", "stimulus": "/static/audio/wordpool/BACKBONE.wav", "conditions": [18, 1200, "a", 18000], "internal_node_id": "0.0-43.0", "trial": 1, "time_elapsed": 511802, "serialpos": 6, "key_press": -1, "wordID": 65, "type": "PRES_AUD", "trial_index": 61}, "uniqueid": "MTK2717:3DPNQGW4LMMGT3PSUO2NHZK931A46Q", "dateTime": 1519250038905}, {"current_trial": 62, "trialdata": {"rt": -1000, "trial_type": "single-audio", "word": "husband", "stimulus": "/static/audio/wordpool/HUSBAND.wav", "conditions": [18, 1200, "a", 18000], "internal_node_id": "0.0-44.0", "trial": 1, "time_elapsed": 514153, "serialpos": 7, "key_press": -1, "wordID": 727, "type": "PRES_AUD", "trial_index": 62}, "uniqueid": "MTK2717:3DPNQGW4LMMGT3PSUO2NHZK931A46Q", "dateTime": 1519250041256}, {"current_trial": 63, "trialdata": {"rt": -1000, "trial_type": "single-audio", "word": "swimmer", "stimulus": "/static/audio/wordpool/SWIMMER.wav", "conditions": [18, 1200, "a", 18000], "internal_node_id": "0.0-45.0", "trial": 1, "time_elapsed": 516531, "serialpos": 8, "key_press": -1, "wordID": 1419, "type": "PRES_AUD", "trial_index": 63}, "uniqueid": "MTK2717:3DPNQGW4LMMGT3PSUO2NHZK931A46Q", "dateTime": 1519250043634}, {"current_trial": 64, "trialdata": {"rt": -1000, "trial_type": "single-audio", "word": "sculpture", "stimulus": "/static/audio/wordpool/SCULPTURE.wav", "conditions": [18, 1200, "a", 18000], "internal_node_id": "0.0-46.0", "trial": 1, "time_elapsed": 518894, "serialpos": 9, "key_press": -1, "wordID": 1257, "type": "PRES_AUD", "trial_index": 64}, "uniqueid": "MTK2717:3DPNQGW4LMMGT3PSUO2NHZK931A46Q", "dateTime": 1519250045998}, {"current_trial": 65, "trialdata": {"rt": -1000, "trial_type": "single-audio", "word": "xerox", "stimulus": "/static/audio/wordpool/XEROX.wav", "conditions": [18, 1200, "a", 18000], "internal_node_id": "0.0-47.0", "trial": 1, "time_elapsed": 521018, "serialpos": 10, "key_press": -1, "wordID": 1627, "type": "PRES_AUD", "trial_index": 65}, "uniqueid": "MTK2717:3DPNQGW4LMMGT3PSUO2NHZK931A46Q", "dateTime": 1519250048121}, {"current_trial": 66, "trialdata": {"rt": -1000, "trial_type": "single-audio", "word": "sponge", "stimulus": "/static/audio/wordpool/SPONGE.wav", "conditions": [18, 1200, "a", 18000], "internal_node_id": "0.0-48.0", "trial": 1, "time_elapsed": 523266, "serialpos": 11, "key_press": -1, "wordID": 1354, "type": "PRES_AUD", "trial_index": 66}, "uniqueid": "MTK2717:3DPNQGW4LMMGT3PSUO2NHZK931A46Q", "dateTime": 1519250050369}, {"current_trial": 67, "trialdata": {"rt": -1000, "trial_type": "single-audio", "word": "gangster", "stimulus": "/static/audio/wordpool/GANGSTER.wav", "conditions": [18, 1200, "a", 18000], "internal_node_id": "0.0-49.0", "trial": 1, "time_elapsed": 525267, "serialpos": 12, "key_press": -1, "wordID": 619, "type": "PRES_AUD", "trial_index": 67}, "uniqueid": "MTK2717:3DPNQGW4LMMGT3PSUO2NHZK931A46Q", "dateTime": 1519250052371}, {"current_trial": 68, "trialdata": {"rt": -1000, "trial_type": "single-audio", "word": "motor", "stimulus": "/static/audio/wordpool/MOTOR.wav", "conditions": [18, 1200, "a", 18000], "internal_node_id": "0.0-50.0", "trial": 1, "time_elapsed": 527580, "serialpos": 13, "key_press": -1, "wordID": 921, "type": "PRES_AUD", "trial_index": 68}, "uniqueid": "MTK2717:3DPNQGW4LMMGT3PSUO2NHZK931A46Q", "dateTime": 1519250054685}, {"current_trial": 69, "trialdata": {"rt": -1000, "trial_type": "single-audio", "word": "fungus", "stimulus": "/static/audio/wordpool/FUNGUS.wav", "conditions": [18, 1200, "a", 18000], "internal_node_id": "0.0-51.0", "trial": 1, "time_elapsed": 529896, "serialpos": 14, "key_press": -1, "wordID": 613, "type": "PRES_AUD", "trial_index": 69}, "uniqueid": "MTK2717:3DPNQGW4LMMGT3PSUO2NHZK931A46Q", "dateTime": 1519250057000}, {"current_trial": 70, "trialdata": {"rt": -1000, "trial_type": "single-audio", "word": "scarf", "stimulus": "/static/audio/wordpool/SCARF.wav", "conditions": [18, 1200, "a", 18000], "internal_node_id": "0.0-52.0", "trial": 1, "time_elapsed": 532020, "serialpos": 15, "key_press": -1, "wordID": 1245, "type": "PRES_AUD", "trial_index": 70}, "uniqueid": "MTK2717:3DPNQGW4LMMGT3PSUO2NHZK931A46Q", "dateTime": 1519250059123}, {"current_trial": 71, "trialdata": {"rt": -1000, "trial_type": "single-audio", "word": "whistle", "stimulus": "/static/audio/wordpool/WHISTLE.wav", "conditions": [18, 1200, "a", 18000], "internal_node_id": "0.0-53.0", "trial": 1, "time_elapsed": 534169, "serialpos": 16, "key_press": -1, "wordID": 1605, "type": "PRES_AUD", "trial_index": 71}, "uniqueid": "MTK2717:3DPNQGW4LMMGT3PSUO2NHZK931A46Q", "dateTime": 1519250061272}, {"current_trial": 72, "trialdata": {"rt": -1000, "trial_type": "single-audio", "word": "puppy", "stimulus": "/static/audio/wordpool/PUPPY.wav", "conditions": [18, 1200, "a", 18000], "internal_node_id": "0.0-54.0", "trial": 1, "time_elapsed": 536465, "serialpos": 17, "key_press": -1, "wordID": 1143, "type": "PRES_AUD", "trial_index": 72}, "uniqueid": "MTK2717:3DPNQGW4LMMGT3PSUO2NHZK931A46Q", "dateTime": 1519250063568}, {"current_trial": 73, "trialdata": {"rt": -1, "trial_type": "single-stim", "stimulus": "", "internal_node_id": "0.0-55.0-0.0", "time_elapsed": 537854, "key_press": -1, "type": "PRE_RECALL_DELAY", "trial_index": 73}, "uniqueid": "MTK2717:3DPNQGW4LMMGT3PSUO2NHZK931A46Q", "dateTime": 1519250064957}, {"current_trial": 74, "trialdata": {"rt": -1000, "trial_type": "single-audio", "stimulus": "/static/audio/400Hz.wav", "internal_node_id": "0.0-56.0", "time_elapsed": 538355, "key_press": -1, "type": "PRE_RECALL_ALERT", "trial_index": 74}, "uniqueid": "MTK2717:3DPNQGW4LMMGT3PSUO2NHZK931A46Q", "dateTime": 1519250065458}, {"current_trial": 75, "trialdata": {"rt": [5015, 7491, 12248, 15160, 24415], "recwords": ["puppy", "husband", "subling", "motor", "fungus"], "key_times": [1963, 2196, 2574, 2834, 3585, 4101, 4453, 5015, 5236, 5439, 5571, 5832, 5968, 6079, 6248, 7491, 8006, 8133, 8404, 8569, 8751, 8895, 8936, 9108, 9901, 10047, 10228, 10391, 11253, 11449, 11602, 12248, 13755, 13920, 14098, 14230, 14404, 15160, 22889, 22950, 23185, 23410, 23481, 23755, 24415], "trial_type": "free-recall", "conditions": [18, 1200, "a", 18000], "internal_node_id": "0.0-57.0-0.0", "key_presses": [80, 85, 80, 89, 8, 80, 89, 32, 72, 85, 83, 66, 65, 78, 68, 13, 83, 85, 66, 76, 73, 73, 78, 71, 8, 8, 8, 8, 73, 78, 71, 13, 77, 79, 84, 79, 82, 13, 70, 85, 78, 71, 85, 83, 13], "trial": 1, "time_elapsed": 598358, "type": "FREE_RECALL", "trial_index": 75}, "uniqueid": "MTK2717:3DPNQGW4LMMGT3PSUO2NHZK931A46Q", "dateTime": 1519250125464}, {"current_trial": 76, "trialdata": {"rt": 2743, "trial_type": "text", "internal_node_id": "0.0-58.0", "time_elapsed": 603106, "key_press": 75, "type": "INSTRUCTIONS", "trial_index": 76}, "uniqueid": "MTK2717:3DPNQGW4LMMGT3PSUO2NHZK931A46Q", "dateTime": 1519250130209}, {"current_trial": 77, "trialdata": {"rt": [3094, 6004, 9548], "trial_type": "math-distractor", "key_times": [2230, 2572, 3094, 4757, 6004, 8908, 9110, 9548], "responses": ["19", "8", "21"], "num2": [7, 4, 9, 5], "num3": [3, 3, 8, 8], "conditions": [24, 1600, "a", 12000], "internal_node_id": "0.0-59.0", "key_presses": [97, 105, 13, 104, 13, 98, 97, 13], "trial": 2, "time_elapsed": 616111, "type": "DISTRACTOR", "trial_index": 77, "num1": [9, 1, 4, 6]}, "uniqueid": "MTK2717:3DPNQGW4LMMGT3PSUO2NHZK931A46Q", "dateTime": 1519250143214}, {"current_trial": 78, "trialdata": {"rt": -1, "trial_type": "single-stim", "stimulus": "<p id=\"stim\">10</p>", "internal_node_id": "0.0-60.0-0.0", "time_elapsed": 619113, "key_press": -1, "trial_index": 78}, "uniqueid": "MTK2717:3DPNQGW4LMMGT3PSUO2NHZK931A46Q", "dateTime": 1519250146216}, {"current_trial": 79, "trialdata": {"rt": -1, "trial_type": "single-stim", "stimulus": "<p id=\"stim\">9</p>", "internal_node_id": "0.0-60.0-1.0", "time_elapsed": 620114, "key_press": -1, "trial_index": 79}, "uniqueid": "MTK2717:3DPNQGW4LMMGT3PSUO2NHZK931A46Q", "dateTime": 1519250147217}, {"current_trial": 80, "trialdata": {"rt": -1, "trial_type": "single-stim", "stimulus": "<p id=\"stim\">8</p>", "internal_node_id": "0.0-60.0-2.0", "time_elapsed": 621115, "key_press": -1, "trial_index": 80}, "uniqueid": "MTK2717:3DPNQGW4LMMGT3PSUO2NHZK931A46Q", "dateTime": 1519250148218}, {"current_trial": 81, "trialdata": {"rt": -1, "trial_type": "single-stim", "stimulus": "<p id=\"stim\">7</p>", "internal_node_id": "0.0-60.0-3.0", "time_elapsed": 622117, "key_press": -1, "trial_index": 81}, "uniqueid": "MTK2717:3DPNQGW4LMMGT3PSUO2NHZK931A46Q", "dateTime": 1519250149220}, {"current_trial": 82, "trialdata": {"rt": -1, "trial_type": "single-stim", "stimulus": "<p id=\"stim\">6</p>", "internal_node_id": "0.0-60.0-4.0", "time_elapsed": 623118, "key_press": -1, "trial_index": 82}, "uniqueid": "MTK2717:3DPNQGW4LMMGT3PSUO2NHZK931A46Q", "dateTime": 1519250150221}, {"current_trial": 83, "trialdata": {"rt": -1, "trial_type": "single-stim", "stimulus": "<p id=\"stim\">5</p>", "internal_node_id": "0.0-60.0-5.0", "time_elapsed": 624119, "key_press": -1, "trial_index": 83}, "uniqueid": "MTK2717:3DPNQGW4LMMGT3PSUO2NHZK931A46Q", "dateTime": 1519250151222}, {"current_trial": 84, "trialdata": {"rt": -1, "trial_type": "single-stim", "stimulus": "<p id=\"stim\">4</p>", "internal_node_id": "0.0-60.0-6.0", "time_elapsed": 625120, "key_press": -1, "trial_index": 84}, "uniqueid": "MTK2717:3DPNQGW4LMMGT3PSUO2NHZK931A46Q", "dateTime": 1519250152223}, {"current_trial": 85, "trialdata": {"rt": -1, "trial_type": "single-stim", "stimulus": "<p id=\"stim\">3</p>", "internal_node_id": "0.0-60.0-7.0", "time_elapsed": 626122, "key_press": -1, "trial_index": 85}, "uniqueid": "MTK2717:3DPNQGW4LMMGT3PSUO2NHZK931A46Q", "dateTime": 1519250153225}, {"current_trial": 86, "trialdata": {"rt": -1, "trial_type": "single-stim", "stimulus": "<p id=\"stim\">2</p>", "internal_node_id": "0.0-60.0-8.0", "time_elapsed": 627123, "key_press": -1, "trial_index": 86}, "uniqueid": "MTK2717:3DPNQGW4LMMGT3PSUO2NHZK931A46Q", "dateTime": 1519250154226}, {"current_trial": 87, "trialdata": {"rt": -1, "trial_type": "single-stim", "stimulus": "<p id=\"stim\">1</p>", "internal_node_id": "0.0-60.0-9.0", "time_elapsed": 628125, "key_press": -1, "trial_index": 87}, "uniqueid": "MTK2717:3DPNQGW4LMMGT3PSUO2NHZK931A46Q", "dateTime": 1519250155228}, {"current_trial": 88, "trialdata": {"rt": -1, "trial_type": "single-stim", "stimulus": "<p id=\"stim\">+</p>", "internal_node_id": "0.0-61.0-0.0", "time_elapsed": 629625, "key_press": -1, "type": "FIXATION", "trial_index": 88}, "uniqueid": "MTK2717:3DPNQGW4LMMGT3PSUO2NHZK931A46Q", "dateTime": 1519250156729}, {"current_trial": 89, "trialdata": {"rt": -1000, "trial_type": "single-audio", "word": "milk", "stimulus": "/static/audio/wordpool/MILK.wav", "conditions": [24, 1600, "a", 12000], "internal_node_id": "0.0-62.0", "trial": 2, "time_elapsed": 632422, "serialpos": 0, "key_press": -1, "wordID": 894, "type": "PRES_AUD", "trial_index": 89}, "uniqueid": "MTK2717:3DPNQGW4LMMGT3PSUO2NHZK931A46Q", "dateTime": 1519250159528}, {"current_trial": 90, "trialdata": {"rt": -1000, "trial_type": "single-audio", "word": "bureau", "stimulus": "/static/audio/wordpool/BUREAU.wav", "conditions": [24, 1600, "a", 12000], "internal_node_id": "0.0-63.0", "trial": 2, "time_elapsed": 634878, "serialpos": 1, "key_press": -1, "wordID": 198, "type": "PRES_AUD", "trial_index": 90}, "uniqueid": "MTK2717:3DPNQGW4LMMGT3PSUO2NHZK931A46Q", "dateTime": 1519250161981}, {"current_trial": 91, "trialdata": {"rt": -1000, "trial_type": "single-audio", "word": "pilot", "stimulus": "/static/audio/wordpool/PILOT.wav", "conditions": [24, 1600, "a", 12000], "internal_node_id": "0.0-64.0", "trial": 2, "time_elapsed": 637390, "serialpos": 2, "key_press": -1, "wordID": 1069, "type": "PRES_AUD", "trial_index": 91}, "uniqueid": "MTK2717:3DPNQGW4LMMGT3PSUO2NHZK931A46Q", "dateTime": 1519250164493}, {"current_trial": 92, "trialdata": {"rt": -1000, "trial_type": "single-audio", "word": "nurse", "stimulus": "/static/audio/wordpool/NURSE.wav", "conditions": [24, 1600, "a", 12000], "internal_node_id": "0.0-65.0", "trial": 2, "time_elapsed": 639989, "serialpos": 3, "key_press": -1, "wordID": 962, "type": "PRES_AUD", "trial_index": 92}, "uniqueid": "MTK2717:3DPNQGW4LMMGT3PSUO2NHZK931A46Q", "dateTime": 1519250167092}, {"current_trial": 93, "trialdata": {"rt": -1000, "trial_type": "single-audio", "word": "rebel", "stimulus": "/static/audio/wordpool/REBEL.wav", "conditions": [24, 1600, "a", 12000], "internal_node_id": "0.0-66.0", "trial": 2, "time_elapsed": 642405, "serialpos": 4, "key_press": -1, "wordID": 1171, "type": "PRES_AUD", "trial_index": 93}, "uniqueid": "MTK2717:3DPNQGW4LMMGT3PSUO2NHZK931A46Q", "dateTime": 1519250169509}, {"current_trial": 94, "trialdata": {"rt": -1000, "trial_type": "single-audio", "word": "cyclone", "stimulus": "/static/audio/wordpool/CYCLONE.wav", "conditions": [24, 1600, "a", 12000], "internal_node_id": "0.0-67.0", "trial": 2, "time_elapsed": 644950, "serialpos": 5, "key_press": -1, "wordID": 430, "type": "PRES_AUD", "trial_index": 94}, "uniqueid": "MTK2717:3DPNQGW4LMMGT3PSUO2NHZK931A46Q", "dateTime": 1519250172053}, {"current_trial": 95, "trialdata": {"rt": -1000, "trial_type": "single-audio", "word": "harp", "stimulus": "/static/audio/wordpool/HARP.wav", "conditions": [24, 1600, "a", 12000], "internal_node_id": "0.0-68.0", "trial": 2, "time_elapsed": 647600, "serialpos": 6, "key_press": -1, "wordID": 688, "type": "PRES_AUD", "trial_index": 95}, "uniqueid": "MTK2717:3DPNQGW4LMMGT3PSUO2NHZK931A46Q", "dateTime": 1519250174703}, {"current_trial": 96, "trialdata": {"rt": -1000, "trial_type": "single-audio", "word": "tuba", "stimulus": "/static/audio/wordpool/TUBA.wav", "conditions": [24, 1600, "a", 12000], "internal_node_id": "0.0-69.0", "trial": 2, "time_elapsed": 650143, "serialpos": 7, "key_press": -1, "wordID": 1514, "type": "PRES_AUD", "trial_index": 96}, "uniqueid": "MTK2717:3DPNQGW4LMMGT3PSUO2NHZK931A46Q", "dateTime": 1519250177246}, {"current_trial": 97, "trialdata": {"rt": -1000, "trial_type": "single-audio", "word": "shark", "stimulus": "/static/audio/wordpool/SHARK.wav", "conditions": [24, 1600, "a", 12000], "internal_node_id": "0.0-70.0", "trial": 2, "time_elapsed": 652609, "serialpos": 8, "key_press": -1, "wordID": 1274, "type": "PRES_AUD", "trial_index": 97}, "uniqueid": "MTK2717:3DPNQGW4LMMGT3PSUO2NHZK931A46Q", "dateTime": 1519250179712}, {"current_trial": 98, "trialdata": {"rt": -1000, "trial_type": "single-audio", "word": "patient", "stimulus": "/static/audio/wordpool/PATIENT.wav", "conditions": [24, 1600, "a", 12000], "internal_node_id": "0.0-71.0", "trial": 2, "time_elapsed": 655317, "serialpos": 9, "key_press": -1, "wordID": 1023, "type": "PRES_AUD", "trial_index": 98}, "uniqueid": "MTK2717:3DPNQGW4LMMGT3PSUO2NHZK931A46Q", "dateTime": 1519250182421}, {"current_trial": 99, "trialdata": {"rt": -1000, "trial_type": "single-audio", "word": "juggler", "stimulus": "/static/audio/wordpool/JUGGLER.wav", "conditions": [24, 1600, "a", 12000], "internal_node_id": "0.0-72.0", "trial": 2, "time_elapsed": 658010, "serialpos": 10, "key_press": -1, "wordID": 762, "type": "PRES_AUD", "trial_index": 99}, "uniqueid": "MTK2717:3DPNQGW4LMMGT3PSUO2NHZK931A46Q", "dateTime": 1519250185113}, {"current_trial": 100, "trialdata": {"rt": -1000, "trial_type": "single-audio", "word": "island", "stimulus": "/static/audio/wordpool/ISLAND.wav", "conditions": [24, 1600, "a", 12000], "internal_node_id": "0.0-73.0", "trial": 2, "time_elapsed": 660673, "serialpos": 11, "key_press": -1, "wordID": 744, "type": "PRES_AUD", "trial_index": 100}, "uniqueid": "MTK2717:3DPNQGW4LMMGT3PSUO2NHZK931A46Q", "dateTime": 1519250187776}, {"current_trial": 101, "trialdata": {"rt": -1000, "trial_type": "single-audio", "word": "custard", "stimulus": "/static/audio/wordpool/CUSTARD.wav", "conditions": [24, 1600, "a", 12000], "internal_node_id": "0.0-74.0", "trial": 2, "time_elapsed": 663372, "serialpos": 12, "key_press": -1, "wordID": 428, "type": "PRES_AUD", "trial_index": 101}, "uniqueid": "MTK2717:3DPNQGW4LMMGT3PSUO2NHZK931A46Q", "dateTime": 1519250190475}, {"current_trial": 102, "trialdata": {"rt": -1000, "trial_type": "single-audio", "word": "stove", "stimulus": "/static/audio/wordpool/STOVE.wav", "conditions": [24, 1600, "a", 12000], "internal_node_id": "0.0-75.0", "trial": 2, "time_elapsed": 665790, "serialpos": 13, "key_press": -1, "wordID": 1387, "type": "PRES_AUD", "trial_index": 102}, "uniqueid": "MTK2717:3DPNQGW4LMMGT3PSUO2NHZK931A46Q", "dateTime": 1519250192893}, {"current_trial": 103, "trialdata": {"rt": -1000, "trial_type": "single-audio", "word": "grave", "stimulus": "/static/audio/wordpool/GRAVE.wav", "conditions": [24, 1600, "a", 12000], "internal_node_id": "0.0-76.0", "trial": 2, "time_elapsed": 668429, "serialpos": 14, "key_press": -1, "wordID": 657, "type": "PRES_AUD", "trial_index": 103}, "uniqueid": "MTK2717:3DPNQGW4LMMGT3PSUO2NHZK931A46Q", "dateTime": 1519250195532}, {"current_trial": 104, "trialdata": {"rt": -1000, "trial_type": "single-audio", "word": "country", "stimulus": "/static/audio/wordpool/COUNTRY.wav", "conditions": [24, 1600, "a", 12000], "internal_node_id": "0.0-77.0", "trial": 2, "time_elapsed": 670852, "serialpos": 15, "key_press": -1, "wordID": 387, "type": "PRES_AUD", "trial_index": 104}, "uniqueid": "MTK2717:3DPNQGW4LMMGT3PSUO2NHZK931A46Q", "dateTime": 1519250197955}, {"current_trial": 105, "trialdata": {"rt": -1000, "trial_type": "single-audio", "word": "flashlight", "stimulus": "/static/audio/wordpool/FLASHLIGHT.wav", "conditions": [24, 1600, "a", 12000], "internal_node_id": "0.0-78.0", "trial": 2, "time_elapsed": 673573, "serialpos": 16, "key_press": -1, "wordID": 574, "type": "PRES_AUD", "trial_index": 105}, "uniqueid": "MTK2717:3DPNQGW4LMMGT3PSUO2NHZK931A46Q", "dateTime": 1519250200676}, {"current_trial": 106, "trialdata": {"rt": -1000, "trial_type": "single-audio", "word": "bubble", "stimulus": "/static/audio/wordpool/BUBBLE.wav", "conditions": [24, 1600, "a", 12000], "internal_node_id": "0.0-79.0", "trial": 2, "time_elapsed": 676120, "serialpos": 17, "key_press": -1, "wordID": 182, "type": "PRES_AUD", "trial_index": 106}, "uniqueid": "MTK2717:3DPNQGW4LMMGT3PSUO2NHZK931A46Q", "dateTime": 1519250203223}, {"current_trial": 107, "trialdata": {"rt": -1000, "trial_type": "single-audio", "word": "brook", "stimulus": "/static/audio/wordpool/BROOK.wav", "conditions": [24, 1600, "a", 12000], "internal_node_id": "0.0-80.0", "trial": 2, "time_elapsed": 678762, "serialpos": 18, "key_press": -1, "wordID": 176, "type": "PRES_AUD", "trial_index": 107}, "uniqueid": "MTK2717:3DPNQGW4LMMGT3PSUO2NHZK931A46Q", "dateTime": 1519250205865}, {"current_trial": 108, "trialdata": {"rt": -1000, "trial_type": "single-audio", "word": "velvet", "stimulus": "/static/audio/wordpool/VELVET.wav", "conditions": [24, 1600, "a", 12000], "internal_node_id": "0.0-81.0", "trial": 2, "time_elapsed": 681223, "serialpos": 19, "key_press": -1, "wordID": 1554, "type": "PRES_AUD", "trial_index": 108}, "uniqueid": "MTK2717:3DPNQGW4LMMGT3PSUO2NHZK931A46Q", "dateTime": 1519250208326}, {"current_trial": 109, "trialdata": {"rt": -1000, "trial_type": "single-audio", "word": "silk", "stimulus": "/static/audio/wordpool/SILK.wav", "conditions": [24, 1600, "a", 12000], "internal_node_id": "0.0-82.0", "trial": 2, "time_elapsed": 683984, "serialpos": 20, "key_press": -1, "wordID": 1306, "type": "PRES_AUD", "trial_index": 109}, "uniqueid": "MTK2717:3DPNQGW4LMMGT3PSUO2NHZK931A46Q", "dateTime": 1519250211087}, {"current_trial": 110, "trialdata": {"rt": -1000, "trial_type": "single-audio", "word": "gymnast", "stimulus": "/static/audio/wordpool/GYMNAST.wav", "conditions": [24, 1600, "a", 12000], "internal_node_id": "0.0-83.0", "trial": 2, "time_elapsed": 686717, "serialpos": 21, "key_press": -1, "wordID": 674, "type": "PRES_AUD", "trial_index": 110}, "uniqueid": "MTK2717:3DPNQGW4LMMGT3PSUO2NHZK931A46Q", "dateTime": 1519250213820}, {"current_trial": 111, "trialdata": {"rt": -1000, "trial_type": "single-audio", "word": "dustpan", "stimulus": "/static/audio/wordpool/DUSTPAN.wav", "conditions": [24, 1600, "a", 12000], "internal_node_id": "0.0-84.0", "trial": 2, "time_elapsed": 689214, "serialpos": 22, "key_press": -1, "wordID": 508, "type": "PRES_AUD", "trial_index": 111}, "uniqueid": "MTK2717:3DPNQGW4LMMGT3PSUO2NHZK931A46Q", "dateTime": 1519250216317}, {"current_trial": 112, "trialdata": {"rt": -1000, "trial_type": "single-audio", "word": "pudding", "stimulus": "/static/audio/wordpool/PUDDING.wav", "conditions": [24, 1600, "a", 12000], "internal_node_id": "0.0-85.0", "trial": 2, "time_elapsed": 691801, "serialpos": 23, "key_press": -1, "wordID": 1138, "type": "PRES_AUD", "trial_index": 112}, "uniqueid": "MTK2717:3DPNQGW4LMMGT3PSUO2NHZK931A46Q", "dateTime": 1519250218904}, {"current_trial": 113, "trialdata": {"rt": -1, "trial_type": "single-stim", "stimulus": "", "internal_node_id": "0.0-86.0-0.0", "time_elapsed": 693177, "key_press": -1, "type": "PRE_RECALL_DELAY", "trial_index": 113}, "uniqueid": "MTK2717:3DPNQGW4LMMGT3PSUO2NHZK931A46Q", "dateTime": 1519250220280}, {"current_trial": 114, "trialdata": {"rt": -1000, "trial_type": "single-audio", "stimulus": "/static/audio/400Hz.wav", "internal_node_id": "0.0-87.0", "time_elapsed": 693678, "key_press": -1, "type": "PRE_RECALL_ALERT", "trial_index": 114}, "uniqueid": "MTK2717:3DPNQGW4LMMGT3PSUO2NHZK931A46Q", "dateTime": 1519250220781}, {"current_trial": 115, "trialdata": {"rt": [3698, 7623, 9464, 11210, 16495, 19032, 21594, 28988, 33221], "recwords": ["pudding", "gymnast", "custard", "stove", "rebel", "pilot", "nurse", "velvet", "cyclone"], "key_times": [2228, 2488, 2763, 2942, 3049, 3219, 3382, 3698, 4528, 4634, 5815, 6162, 6338, 6586, 6889, 7623, 8113, 8199, 8407, 8623, 8772, 8926, 9181, 9464, 9705, 9852, 9962, 10157, 10414, 11210, 14497, 14741, 15095, 15368, 15505, 16495, 17951, 18173, 18400, 18604, 18802, 19032, 19593, 19860, 20006, 20291, 20555, 21594, 26964, 27172, 27266, 27667, 27897, 28172, 28988, 31717, 31810, 32066, 32161, 32361, 32537, 32702, 33221, 46105, 46117], "trial_type": "free-recall", "conditions": [24, 1600, "a", 12000], "internal_node_id": "0.0-88.0-0.0", "key_presses": [80, 85, 68, 68, 73, 78, 71, 13, 71, 89, 77, 78, 65, 83, 84, 13, 67, 85, 83, 84, 65, 82, 68, 13, 83, 84, 79, 86, 69, 13, 82, 69, 66, 69, 76, 13, 80, 73, 76, 79, 84, 13, 78, 85, 82, 83, 69, 13, 86, 69, 76, 86, 69, 84, 13, 67, 89, 67, 76, 79, 78, 69, 13, 17, 17], "trial": 2, "time_elapsed": 753681, "type": "FREE_RECALL", "trial_index": 115}, "uniqueid": "MTK2717:3DPNQGW4LMMGT3PSUO2NHZK931A46Q", "dateTime": 1519250280787}, {"current_trial": 116, "trialdata": {"rt": 2753, "trial_type": "text", "internal_node_id": "0.0-89.0", "time_elapsed": 758439, "key_press": 75, "type": "INSTRUCTIONS", "trial_index": 116}, "uniqueid": "MTK2717:3DPNQGW4LMMGT3PSUO2NHZK931A46Q", "dateTime": 1519250285542}, {"current_trial": 117, "trialdata": {"rt": [2876, 5700, 8446, 13457, 15841, 19605, 22526], "trial_type": "math-distractor", "key_times": [1990, 2361, 2876, 4967, 5257, 5700, 7734, 8034, 8446, 12473, 12771, 13457, 15172, 15363, 15841, 19106, 19605, 21710, 22058, 22526], "responses": ["17", "15", "19", "24", "11", "8", "19"], "num2": [9, 3, 2, 9, 1, 1, 6, 3], "num3": [6, 3, 9, 8, 3, 2, 5, 6], "conditions": [24, 800, "a", 24000], "internal_node_id": "0.0-90.0", "key_presses": [97, 103, 13, 97, 101, 13, 97, 105, 13, 98, 100, 13, 97, 97, 13, 104, 13, 97, 105, 13], "trial": 3, "time_elapsed": 784447, "type": "DISTRACTOR", "trial_index": 117, "num1": [2, 9, 8, 7, 7, 5, 8, 7]}, "uniqueid": "MTK2717:3DPNQGW4LMMGT3PSUO2NHZK931A46Q", "dateTime": 1519250311550}, {"current_trial": 118, "trialdata": {"rt": -1, "trial_type": "single-stim", "stimulus": "<p id=\"stim\">10</p>", "internal_node_id": "0.0-91.0-0.0", "time_elapsed": 787450, "key_press": -1, "trial_index": 118}, "uniqueid": "MTK2717:3DPNQGW4LMMGT3PSUO2NHZK931A46Q", "dateTime": 1519250314553}, {"current_trial": 119, "trialdata": {"rt": -1, "trial_type": "single-stim", "stimulus": "<p id=\"stim\">9</p>", "internal_node_id": "0.0-91.0-1.0", "time_elapsed": 788452, "key_press": -1, "trial_index": 119}, "uniqueid": "MTK2717:3DPNQGW4LMMGT3PSUO2NHZK931A46Q", "dateTime": 1519250315555}, {"current_trial": 120, "trialdata": {"rt": -1, "trial_type": "single-stim", "stimulus": "<p id=\"stim\">8</p>", "internal_node_id": "0.0-91.0-2.0", "time_elapsed": 789453, "key_press": -1, "trial_index": 120}, "uniqueid": "MTK2717:3DPNQGW4LMMGT3PSUO2NHZK931A46Q", "dateTime": 1519250316556}, {"current_trial": 121, "trialdata": {"rt": -1, "trial_type": "single-stim", "stimulus": "<p id=\"stim\">7</p>", "internal_node_id": "0.0-91.0-3.0", "time_elapsed": 790454, "key_press": -1, "trial_index": 121}, "uniqueid": "MTK2717:3DPNQGW4LMMGT3PSUO2NHZK931A46Q", "dateTime": 1519250317557}, {"current_trial": 122, "trialdata": {"rt": -1, "trial_type": "single-stim", "stimulus": "<p id=\"stim\">6</p>", "internal_node_id": "0.0-91.0-4.0", "time_elapsed": 791455, "key_press": -1, "trial_index": 122}, "uniqueid": "MTK2717:3DPNQGW4LMMGT3PSUO2NHZK931A46Q", "dateTime": 1519250318558}, {"current_trial": 123, "trialdata": {"rt": -1, "trial_type": "single-stim", "stimulus": "<p id=\"stim\">5</p>", "internal_node_id": "0.0-91.0-5.0", "time_elapsed": 792456, "key_press": -1, "trial_index": 123}, "uniqueid": "MTK2717:3DPNQGW4LMMGT3PSUO2NHZK931A46Q", "dateTime": 1519250319559}, {"current_trial": 124, "trialdata": {"rt": -1, "trial_type": "single-stim", "stimulus": "<p id=\"stim\">4</p>", "internal_node_id": "0.0-91.0-6.0", "time_elapsed": 793458, "key_press": -1, "trial_index": 124}, "uniqueid": "MTK2717:3DPNQGW4LMMGT3PSUO2NHZK931A46Q", "dateTime": 1519250320561}, {"current_trial": 125, "trialdata": {"rt": -1, "trial_type": "single-stim", "stimulus": "<p id=\"stim\">3</p>", "internal_node_id": "0.0-91.0-7.0", "time_elapsed": 794459, "key_press": -1, "trial_index": 125}, "uniqueid": "MTK2717:3DPNQGW4LMMGT3PSUO2NHZK931A46Q", "dateTime": 1519250321562}, {"current_trial": 126, "trialdata": {"rt": -1, "trial_type": "single-stim", "stimulus": "<p id=\"stim\">2</p>", "internal_node_id": "0.0-91.0-8.0", "time_elapsed": 795461, "key_press": -1, "trial_index": 126}, "uniqueid": "MTK2717:3DPNQGW4LMMGT3PSUO2NHZK931A46Q", "dateTime": 1519250322564}, {"current_trial": 127, "trialdata": {"rt": -1, "trial_type": "single-stim", "stimulus": "<p id=\"stim\">1</p>", "internal_node_id": "0.0-91.0-9.0", "time_elapsed": 796462, "key_press": -1, "trial_index": 127}, "uniqueid": "MTK2717:3DPNQGW4LMMGT3PSUO2NHZK931A46Q", "dateTime": 1519250323565}, {"current_trial": 128, "trialdata": {"rt": -1, "trial_type": "single-stim", "stimulus": "<p id=\"stim\">+</p>", "internal_node_id": "0.0-92.0-0.0", "time_elapsed": 797964, "key_press": -1, "type": "FIXATION", "trial_index": 128}, "uniqueid": "MTK2717:3DPNQGW4LMMGT3PSUO2NHZK931A46Q", "dateTime": 1519250325067}, {"current_trial": 129, "trialdata": {"rt": -1000, "trial_type": "single-audio", "word": "muffin", "stimulus": "/static/audio/wordpool/MUFFIN.wav", "conditions": [24, 800, "a", 24000], "internal_node_id": "0.0-93.0", "trial": 3, "time_elapsed": 799708, "serialpos": 0, "key_press": -1, "wordID": 928, "type": "PRES_AUD", "trial_index": 129}, "uniqueid": "MTK2717:3DPNQGW4LMMGT3PSUO2NHZK931A46Q", "dateTime": 1519250326811}, {"current_trial": 130, "trialdata": {"rt": -1000, "trial_type": "single-audio", "word": "london", "stimulus": "/static/audio/wordpool/LONDON.wav", "conditions": [24, 800, "a", 24000], "internal_node_id": "0.0-94.0", "trial": 3, "time_elapsed": 801538, "serialpos": 1, "key_press": -1, "wordID": 842, "type": "PRES_AUD", "trial_index": 130}, "uniqueid": "MTK2717:3DPNQGW4LMMGT3PSUO2NHZK931A46Q", "dateTime": 1519250328641}, {"current_trial": 131, "trialdata": {"rt": -1000, "trial_type": "single-audio", "word": "saddle", "stimulus": "/static/audio/wordpool/SADDLE.wav", "conditions": [24, 800, "a", 24000], "internal_node_id": "0.0-95.0", "trial": 3, "time_elapsed": 803353, "serialpos": 2, "key_press": -1, "wordID": 1220, "type": "PRES_AUD", "trial_index": 131}, "uniqueid": "MTK2717:3DPNQGW4LMMGT3PSUO2NHZK931A46Q", "dateTime": 1519250330457}, {"current_trial": 132, "trialdata": {"rt": -1000, "trial_type": "single-audio", "word": "paddle", "stimulus": "/static/audio/wordpool/PADDLE.wav", "conditions": [24, 800, "a", 24000], "internal_node_id": "0.0-96.0", "trial": 3, "time_elapsed": 805307, "serialpos": 3, "key_press": -1, "wordID": 999, "type": "PRES_AUD", "trial_index": 132}, "uniqueid": "MTK2717:3DPNQGW4LMMGT3PSUO2NHZK931A46Q", "dateTime": 1519250332411}, {"current_trial": 133, "trialdata": {"rt": -1000, "trial_type": "single-audio", "word": "chemist", "stimulus": "/static/audio/wordpool/CHEMIST.wav", "conditions": [24, 800, "a", 24000], "internal_node_id": "0.0-97.0", "trial": 3, "time_elapsed": 807085, "serialpos": 4, "key_press": -1, "wordID": 291, "type": "PRES_AUD", "trial_index": 133}, "uniqueid": "MTK2717:3DPNQGW4LMMGT3PSUO2NHZK931A46Q", "dateTime": 1519250334188}, {"current_trial": 134, "trialdata": {"rt": -1000, "trial_type": "single-audio", "word": "snack", "stimulus": "/static/audio/wordpool/SNACK.wav", "conditions": [24, 800, "a", 24000], "internal_node_id": "0.0-98.0", "trial": 3, "time_elapsed": 808927, "serialpos": 5, "key_press": -1, "wordID": 1330, "type": "PRES_AUD", "trial_index": 134}, "uniqueid": "MTK2717:3DPNQGW4LMMGT3PSUO2NHZK931A46Q", "dateTime": 1519250336030}, {"current_trial": 135, "trialdata": {"rt": -1000, "trial_type": "single-audio", "word": "mister", "stimulus": "/static/audio/wordpool/MISTER.wav", "conditions": [24, 800, "a", 24000], "internal_node_id": "0.0-99.0", "trial": 3, "time_elapsed": 810618, "serialpos": 6, "key_press": -1, "wordID": 900, "type": "PRES_AUD", "trial_index": 135}, "uniqueid": "MTK2717:3DPNQGW4LMMGT3PSUO2NHZK931A46Q", "dateTime": 1519250337722}, {"current_trial": 136, "trialdata": {"rt": -1000, "trial_type": "single-audio", "word": "tutu", "stimulus": "/static/audio/wordpool/TUTU.wav", "conditions": [24, 800, "a", 24000], "internal_node_id": "0.0-100.0", "trial": 3, "time_elapsed": 812445, "serialpos": 7, "key_press": -1, "wordID": 1523, "type": "PRES_AUD", "trial_index": 136}, "uniqueid": "MTK2717:3DPNQGW4LMMGT3PSUO2NHZK931A46Q", "dateTime": 1519250339548}, {"current_trial": 137, "trialdata": {"rt": -1000, "trial_type": "single-audio", "word": "nightgown", "stimulus": "/static/audio/wordpool/NIGHTGOWN.wav", "conditions": [24, 800, "a", 24000], "internal_node_id": "0.0-101.0", "trial": 3, "time_elapsed": 814265, "serialpos": 8, "key_press": -1, "wordID": 952, "type": "PRES_AUD", "trial_index": 137}, "uniqueid": "MTK2717:3DPNQGW4LMMGT3PSUO2NHZK931A46Q", "dateTime": 1519250341368}, {"current_trial": 138, "trialdata": {"rt": -1000, "trial_type": "single-audio", "word": "airport", "stimulus": "/static/audio/wordpool/AIRPORT.wav", "conditions": [24, 800, "a", 24000], "internal_node_id": "0.0-102.0", "trial": 3, "time_elapsed": 816156, "serialpos": 9, "key_press": -1, "wordID": 12, "type": "PRES_AUD", "trial_index": 138}, "uniqueid": "MTK2717:3DPNQGW4LMMGT3PSUO2NHZK931A46Q", "dateTime": 1519250343259}, {"current_trial": 139, "trialdata": {"rt": -1000, "trial_type": "single-audio", "word": "peach", "stimulus": "/static/audio/wordpool/PEACH.wav", "conditions": [24, 800, "a", 24000], "internal_node_id": "0.0-103.0", "trial": 3, "time_elapsed": 818035, "serialpos": 10, "key_press": -1, "wordID": 1030, "type": "PRES_AUD", "trial_index": 139}, "uniqueid": "MTK2717:3DPNQGW4LMMGT3PSUO2NHZK931A46Q", "dateTime": 1519250345138}, {"current_trial": 140, "trialdata": {"rt": -1000, "trial_type": "single-audio", "word": "uncle", "stimulus": "/static/audio/wordpool/UNCLE.wav", "conditions": [24, 800, "a", 24000], "internal_node_id": "0.0-104.0", "trial": 3, "time_elapsed": 820035, "serialpos": 11, "key_press": -1, "wordID": 1535, "type": "PRES_AUD", "trial_index": 140}, "uniqueid": "MTK2717:3DPNQGW4LMMGT3PSUO2NHZK931A46Q", "dateTime": 1519250347138}, {"current_trial": 141, "trialdata": {"rt": -1000, "trial_type": "single-audio", "word": "stone", "stimulus": "/static/audio/wordpool/STONE.wav", "conditions": [24, 800, "a", 24000], "internal_node_id": "0.0-105.0", "trial": 3, "time_elapsed": 821768, "serialpos": 12, "key_press": -1, "wordID": 1384, "type": "PRES_AUD", "trial_index": 141}, "uniqueid": "MTK2717:3DPNQGW4LMMGT3PSUO2NHZK931A46Q", "dateTime": 1519250348872}, {"current_trial": 142, "trialdata": {"rt": -1000, "trial_type": "single-audio", "word": "shortcake", "stimulus": "/static/audio/wordpool/SHORTCAKE.wav", "conditions": [24, 800, "a", 24000], "internal_node_id": "0.0-106.0", "trial": 3, "time_elapsed": 823686, "serialpos": 13, "key_press": -1, "wordID": 1291, "type": "PRES_AUD", "trial_index": 142}, "uniqueid": "MTK2717:3DPNQGW4LMMGT3PSUO2NHZK931A46Q", "dateTime": 1519250350789}, {"current_trial": 143, "trialdata": {"rt": -1000, "trial_type": "single-audio", "word": "ketchup", "stimulus": "/static/audio/wordpool/KETCHUP.wav", "conditions": [24, 800, "a", 24000], "internal_node_id": "0.0-107.0", "trial": 3, "time_elapsed": 825506, "serialpos": 14, "key_press": -1, "wordID": 770, "type": "PRES_AUD", "trial_index": 143}, "uniqueid": "MTK2717:3DPNQGW4LMMGT3PSUO2NHZK931A46Q", "dateTime": 1519250352609}, {"current_trial": 144, "trialdata": {"rt": -1000, "trial_type": "single-audio", "word": "smog", "stimulus": "/static/audio/wordpool/SMOG.wav", "conditions": [24, 800, "a", 24000], "internal_node_id": "0.0-108.0", "trial": 3, "time_elapsed": 827460, "serialpos": 15, "key_press": -1, "wordID": 1329, "type": "PRES_AUD", "trial_index": 144}, "uniqueid": "MTK2717:3DPNQGW4LMMGT3PSUO2NHZK931A46Q", "dateTime": 1519250354564}, {"current_trial": 145, "trialdata": {"rt": -1000, "trial_type": "single-audio", "word": "piston", "stimulus": "/static/audio/wordpool/PISTON.wav", "conditions": [24, 800, "a", 24000], "internal_node_id": "0.0-109.0", "trial": 3, "time_elapsed": 829117, "serialpos": 16, "key_press": -1, "wordID": 1075, "type": "PRES_AUD", "trial_index": 145}, "uniqueid": "MTK2717:3DPNQGW4LMMGT3PSUO2NHZK931A46Q", "dateTime": 1519250356220}, {"current_trial": 146, "trialdata": {"rt": -1000, "trial_type": "single-audio", "word": "valve", "stimulus": "/static/audio/wordpool/VALVE.wav", "conditions": [24, 800, "a", 24000], "internal_node_id": "0.0-110.0", "trial": 3, "time_elapsed": 830954, "serialpos": 17, "key_press": -1, "wordID": 1545, "type": "PRES_AUD", "trial_index": 146}, "uniqueid": "MTK2717:3DPNQGW4LMMGT3PSUO2NHZK931A46Q", "dateTime": 1519250358057}, {"current_trial": 147, "trialdata": {"rt": -1000, "trial_type": "single-audio", "word": "camel", "stimulus": "/static/audio/wordpool/CAMEL.wav", "conditions": [24, 800, "a", 24000], "internal_node_id": "0.0-111.0", "trial": 3, "time_elapsed": 832935, "serialpos": 18, "key_press": -1, "wordID": 222, "type": "PRES_AUD", "trial_index": 147}, "uniqueid": "MTK2717:3DPNQGW4LMMGT3PSUO2NHZK931A46Q", "dateTime": 1519250360039}, {"current_trial": 148, "trialdata": {"rt": -1000, "trial_type": "single-audio", "word": "child", "stimulus": "/static/audio/wordpool/CHILD.wav", "conditions": [24, 800, "a", 24000], "internal_node_id": "0.0-112.0", "trial": 3, "time_elapsed": 834824, "serialpos": 19, "key_press": -1, "wordID": 298, "type": "PRES_AUD", "trial_index": 148}, "uniqueid": "MTK2717:3DPNQGW4LMMGT3PSUO2NHZK931A46Q", "dateTime": 1519250361927}, {"current_trial": 149, "trialdata": {"rt": -1000, "trial_type": "single-audio", "word": "yacht", "stimulus": "/static/audio/wordpool/YACHT.wav", "conditions": [24, 800, "a", 24000], "internal_node_id": "0.0-113.0", "trial": 3, "time_elapsed": 836484, "serialpos": 20, "key_press": -1, "wordID": 1628, "type": "PRES_AUD", "trial_index": 149}, "uniqueid": "MTK2717:3DPNQGW4LMMGT3PSUO2NHZK931A46Q", "dateTime": 1519250363587}, {"current_trial": 150, "trialdata": {"rt": -1000, "trial_type": "single-audio", "word": "neutron", "stimulus": "/static/audio/wordpool/NEUTRON.wav", "conditions": [24, 800, "a", 24000], "internal_node_id": "0.0-114.0", "trial": 3, "time_elapsed": 838347, "serialpos": 21, "key_press": -1, "wordID": 946, "type": "PRES_AUD", "trial_index": 150}, "uniqueid": "MTK2717:3DPNQGW4LMMGT3PSUO2NHZK931A46Q", "dateTime": 1519250365450}, {"current_trial": 151, "trialdata": {"rt": -1000, "trial_type": "single-audio", "word": "fireman", "stimulus": "/static/audio/wordpool/FIREMAN.wav", "conditions": [24, 800, "a", 24000], "internal_node_id": "0.0-115.0", "trial": 3, "time_elapsed": 840011, "serialpos": 22, "key_press": -1, "wordID": 568, "type": "PRES_AUD", "trial_index": 151}, "uniqueid": "MTK2717:3DPNQGW4LMMGT3PSUO2NHZK931A46Q", "dateTime": 1519250367114}, {"current_trial": 152, "trialdata": {"rt": -1000, "trial_type": "single-audio", "word": "brick", "stimulus": "/static/audio/wordpool/BRICK.wav", "conditions": [24, 800, "a", 24000], "internal_node_id": "0.0-116.0", "trial": 3, "time_elapsed": 841803, "serialpos": 23, "key_press": -1, "wordID": 171, "type": "PRES_AUD", "trial_index": 152}, "uniqueid": "MTK2717:3DPNQGW4LMMGT3PSUO2NHZK931A46Q", "dateTime": 1519250368906}, {"current_trial": 153, "trialdata": {"rt": -1, "trial_type": "single-stim", "stimulus": "", "internal_node_id": "0.0-117.0-0.0", "time_elapsed": 843148, "key_press": -1, "type": "PRE_RECALL_DELAY", "trial_index": 153}, "uniqueid": "MTK2717:3DPNQGW4LMMGT3PSUO2NHZK931A46Q", "dateTime": 1519250370251}, {"current_trial": 154, "trialdata": {"rt": -1000, "trial_type": "single-audio", "stimulus": "/static/audio/400Hz.wav", "internal_node_id": "0.0-118.0", "time_elapsed": 843650, "key_press": -1, "type": "PRE_RECALL_ALERT", "trial_index": 154}, "uniqueid": "MTK2717:3DPNQGW4LMMGT3PSUO2NHZK931A46Q", "dateTime": 1519250370753}, {"current_trial": 155, "trialdata": {"rt": [6701, 9389, 10749, 13709, 15577, 17522, 19853, 22594, 24647, 31752], "recwords": ["diamond", "neutron", "stone", "shortcake", "smog", "valve", "camel", "child", "yacht", "cattle"], "key_times": [4569, 4667, 4894, 5133, 5306, 5488, 5789, 6701, 7522, 7600, 7767, 8066, 8336, 8428, 8664, 9389, 9713, 9902, 9942, 10131, 10308, 10749, 11173, 11703, 11992, 12100, 12380, 12722, 12939, 13170, 13287, 13709, 14562, 14667, 14808, 15058, 15577, 16201, 16426, 16486, 16794, 17050, 17522, 17871, 18061, 18181, 18354, 18478, 19853, 21283, 21407, 21627, 21833, 22007, 22594, 23177, 23342, 23676, 23819, 24066, 24647, 28842, 29080, 30419, 30631, 30883, 31016, 31752], "trial_type": "free-recall", "conditions": [24, 800, "a", 24000], "internal_node_id": "0.0-119.0-0.0", "key_presses": [68, 73, 65, 77, 79, 78, 68, 13, 78, 69, 85, 84, 82, 79, 78, 13, 83, 84, 79, 78, 69, 13, 83, 72, 79, 82, 84, 67, 65, 75, 69, 13, 83, 77, 79, 71, 13, 86, 65, 76, 86, 69, 13, 67, 65, 77, 69, 76, 13, 67, 72, 73, 76, 68, 13, 89, 65, 67, 72, 84, 13, 67, 65, 84, 84, 76, 69, 13], "trial": 3, "time_elapsed": 903653, "type": "FREE_RECALL", "trial_index": 155}, "uniqueid": "MTK2717:3DPNQGW4LMMGT3PSUO2NHZK931A46Q", "dateTime": 1519250430759}, {"current_trial": 156, "trialdata": {"rt": 1711, "trial_type": "text", "internal_node_id": "0.0-120.0", "time_elapsed": 907369, "key_press": 75, "type": "INSTRUCTIONS", "trial_index": 156}, "uniqueid": "MTK2717:3DPNQGW4LMMGT3PSUO2NHZK931A46Q", "dateTime": 1519250434472}, {"current_trial": 157, "trialdata": {"rt": [3163, 5853, 9744], "trial_type": "math-distractor", "key_times": [2376, 2557, 3163, 5106, 5295, 5853, 8979, 9240, 9744], "responses": ["22", "11", "18"], "num2": [9, 4, 4, 5], "num3": [8, 2, 9, 8], "conditions": [24, 1600, "a", 12000], "internal_node_id": "0.0-121.0", "key_presses": [98, 98, 13, 97, 97, 13, 97, 104, 13], "trial": 4, "time_elapsed": 921373, "type": "DISTRACTOR", "trial_index": 157, "num1": [5, 5, 5, 9]}, "uniqueid": "MTK2717:3DPNQGW4LMMGT3PSUO2NHZK931A46Q", "dateTime": 1519250448476}, {"current_trial": 158, "trialdata": {"rt": -1, "trial_type": "single-stim", "stimulus": "<p id=\"stim\">10</p>", "internal_node_id": "0.0-122.0-0.0", "time_elapsed": 924375, "key_press": -1, "trial_index": 158}, "uniqueid": "MTK2717:3DPNQGW4LMMGT3PSUO2NHZK931A46Q", "dateTime": 1519250451478}, {"current_trial": 159, "trialdata": {"rt": -1, "trial_type": "single-stim", "stimulus": "<p id=\"stim\">9</p>", "internal_node_id": "0.0-122.0-1.0", "time_elapsed": 925376, "key_press": -1, "trial_index": 159}, "uniqueid": "MTK2717:3DPNQGW4LMMGT3PSUO2NHZK931A46Q", "dateTime": 1519250452479}, {"current_trial": 160, "trialdata": {"rt": -1, "trial_type": "single-stim", "stimulus": "<p id=\"stim\">8</p>", "internal_node_id": "0.0-122.0-2.0", "time_elapsed": 926378, "key_press": -1, "trial_index": 160}, "uniqueid": "MTK2717:3DPNQGW4LMMGT3PSUO2NHZK931A46Q", "dateTime": 1519250453481}, {"current_trial": 161, "trialdata": {"rt": -1, "trial_type": "single-stim", "stimulus": "<p id=\"stim\">7</p>", "internal_node_id": "0.0-122.0-3.0", "time_elapsed": 927379, "key_press": -1, "trial_index": 161}, "uniqueid": "MTK2717:3DPNQGW4LMMGT3PSUO2NHZK931A46Q", "dateTime": 1519250454482}, {"current_trial": 162, "trialdata": {"rt": -1, "trial_type": "single-stim", "stimulus": "<p id=\"stim\">6</p>", "internal_node_id": "0.0-122.0-4.0", "time_elapsed": 928380, "key_press": -1, "trial_index": 162}, "uniqueid": "MTK2717:3DPNQGW4LMMGT3PSUO2NHZK931A46Q", "dateTime": 1519250455483}, {"current_trial": 163, "trialdata": {"rt": -1, "trial_type": "single-stim", "stimulus": "<p id=\"stim\">5</p>", "internal_node_id": "0.0-122.0-5.0", "time_elapsed": 929381, "key_press": -1, "trial_index": 163}, "uniqueid": "MTK2717:3DPNQGW4LMMGT3PSUO2NHZK931A46Q", "dateTime": 1519250456485}, {"current_trial": 164, "trialdata": {"rt": -1, "trial_type": "single-stim", "stimulus": "<p id=\"stim\">4</p>", "internal_node_id": "0.0-122.0-6.0", "time_elapsed": 930383, "key_press": -1, "trial_index": 164}, "uniqueid": "MTK2717:3DPNQGW4LMMGT3PSUO2NHZK931A46Q", "dateTime": 1519250457486}, {"current_trial": 165, "trialdata": {"rt": -1, "trial_type": "single-stim", "stimulus": "<p id=\"stim\">3</p>", "internal_node_id": "0.0-122.0-7.0", "time_elapsed": 931385, "key_press": -1, "trial_index": 165}, "uniqueid": "MTK2717:3DPNQGW4LMMGT3PSUO2NHZK931A46Q", "dateTime": 1519250458488}, {"current_trial": 166, "trialdata": {"rt": -1, "trial_type": "single-stim", "stimulus": "<p id=\"stim\">2</p>", "internal_node_id": "0.0-122.0-8.0", "time_elapsed": 932386, "key_press": -1, "trial_index": 166}, "uniqueid": "MTK2717:3DPNQGW4LMMGT3PSUO2NHZK931A46Q", "dateTime": 1519250459489}, {"current_trial": 167, "trialdata": {"rt": -1, "trial_type": "single-stim", "stimulus": "<p id=\"stim\">1</p>", "internal_node_id": "0.0-122.0-9.0", "time_elapsed": 933387, "key_press": -1, "trial_index": 167}, "uniqueid": "MTK2717:3DPNQGW4LMMGT3PSUO2NHZK931A46Q", "dateTime": 1519250460490}, {"current_trial": 168, "trialdata": {"rt": -1, "trial_type": "single-stim", "stimulus": "<p id=\"stim\">+</p>", "internal_node_id": "0.0-123.0-0.0", "time_elapsed": 934889, "key_press": -1, "type": "FIXATION", "trial_index": 168}, "uniqueid": "MTK2717:3DPNQGW4LMMGT3PSUO2NHZK931A46Q", "dateTime": 1519250461992}, {"current_trial": 169, "trialdata": {"rt": -1000, "trial_type": "single-audio", "word": "blackboard", "stimulus": "/static/audio/wordpool/BLACKBOARD.wav", "conditions": [24, 1600, "a", 12000], "internal_node_id": "0.0-124.0", "trial": 4, "time_elapsed": 937518, "serialpos": 0, "key_press": -1, "wordID": 132, "type": "PRES_AUD", "trial_index": 169}, "uniqueid": "MTK2717:3DPNQGW4LMMGT3PSUO2NHZK931A46Q", "dateTime": 1519250464621}, {"current_trial": 170, "trialdata": {"rt": -1000, "trial_type": "single-audio", "word": "lodge", "stimulus": "/static/audio/wordpool/LODGE.wav", "conditions": [24, 1600, "a", 12000], "internal_node_id": "0.0-125.0", "trial": 4, "time_elapsed": 940171, "serialpos": 1, "key_press": -1, "wordID": 838, "type": "PRES_AUD", "trial_index": 170}, "uniqueid": "MTK2717:3DPNQGW4LMMGT3PSUO2NHZK931A46Q", "dateTime": 1519250467274}, {"current_trial": 171, "trialdata": {"rt": -1000, "trial_type": "single-audio", "word": "briefcase", "stimulus": "/static/audio/wordpool/BRIEFCASE.wav", "conditions": [24, 1600, "a", 12000], "internal_node_id": "0.0-126.0", "trial": 4, "time_elapsed": 942864, "serialpos": 2, "key_press": -1, "wordID": 174, "type": "PRES_AUD", "trial_index": 171}, "uniqueid": "MTK2717:3DPNQGW4LMMGT3PSUO2NHZK931A46Q", "dateTime": 1519250469967}, {"current_trial": 172, "trialdata": {"rt": -1000, "trial_type": "single-audio", "word": "knapsack", "stimulus": "/static/audio/wordpool/KNAPSACK.wav", "conditions": [24, 1600, "a", 12000], "internal_node_id": "0.0-127.0", "trial": 4, "time_elapsed": 945551, "serialpos": 3, "key_press": -1, "wordID": 782, "type": "PRES_AUD", "trial_index": 172}, "uniqueid": "MTK2717:3DPNQGW4LMMGT3PSUO2NHZK931A46Q", "dateTime": 1519250472654}, {"current_trial": 173, "trialdata": {"rt": -1000, "trial_type": "single-audio", "word": "fiddle", "stimulus": "/static/audio/wordpool/FIDDLE.wav", "conditions": [24, 1600, "a", 12000], "internal_node_id": "0.0-128.0", "trial": 4, "time_elapsed": 948073, "serialpos": 4, "key_press": -1, "wordID": 560, "type": "PRES_AUD", "trial_index": 173}, "uniqueid": "MTK2717:3DPNQGW4LMMGT3PSUO2NHZK931A46Q", "dateTime": 1519250475176}, {"current_trial": 174, "trialdata": {"rt": -1000, "trial_type": "single-audio", "word": "tile", "stimulus": "/static/audio/wordpool/TILE.wav", "conditions": [24, 1600, "a", 12000], "internal_node_id": "0.0-129.0", "trial": 4, "time_elapsed": 950685, "serialpos": 5, "key_press": -1, "wordID": 1467, "type": "PRES_AUD", "trial_index": 174}, "uniqueid": "MTK2717:3DPNQGW4LMMGT3PSUO2NHZK931A46Q", "dateTime": 1519250477788}, {"current_trial": 175, "trialdata": {"rt": -1000, "trial_type": "single-audio", "word": "citrus", "stimulus": "/static/audio/wordpool/CITRUS.wav", "conditions": [24, 1600, "a", 12000], "internal_node_id": "0.0-130.0", "trial": 4, "time_elapsed": 953198, "serialpos": 6, "key_press": -1, "wordID": 312, "type": "PRES_AUD", "trial_index": 175}, "uniqueid": "MTK2717:3DPNQGW4LMMGT3PSUO2NHZK931A46Q", "dateTime": 1519250480301}, {"current_trial": 176, "trialdata": {"rt": -1000, "trial_type": "single-audio", "word": "shoulder", "stimulus": "/static/audio/wordpool/SHOULDER.wav", "conditions": [24, 1600, "a", 12000], "internal_node_id": "0.0-131.0", "trial": 4, "time_elapsed": 955958, "serialpos": 7, "key_press": -1, "wordID": 1293, "type": "PRES_AUD", "trial_index": 176}, "uniqueid": "MTK2717:3DPNQGW4LMMGT3PSUO2NHZK931A46Q", "dateTime": 1519250483061}, {"current_trial": 177, "trialdata": {"rt": -1000, "trial_type": "single-audio", "word": "helmet", "stimulus": "/static/audio/wordpool/HELMET.wav", "conditions": [24, 1600, "a", 12000], "internal_node_id": "0.0-132.0", "trial": 4, "time_elapsed": 958595, "serialpos": 8, "key_press": -1, "wordID": 701, "type": "PRES_AUD", "trial_index": 177}, "uniqueid": "MTK2717:3DPNQGW4LMMGT3PSUO2NHZK931A46Q", "dateTime": 1519250485698}, {"current_trial": 178, "trialdata": {"rt": -1000, "trial_type": "single-audio", "word": "rust", "stimulus": "/static/audio/wordpool/RUST.wav", "conditions": [24, 1600, "a", 12000], "internal_node_id": "0.0-133.0", "trial": 4, "time_elapsed": 961040, "serialpos": 9, "key_press": -1, "wordID": 1218, "type": "PRES_AUD", "trial_index": 178}, "uniqueid": "MTK2717:3DPNQGW4LMMGT3PSUO2NHZK931A46Q", "dateTime": 1519250488143}, {"current_trial": 179, "trialdata": {"rt": -1000, "trial_type": "single-audio", "word": "flute", "stimulus": "/static/audio/wordpool/FLUTE.wav", "conditions": [24, 1600, "a", 12000], "internal_node_id": "0.0-134.0", "trial": 4, "time_elapsed": 963764, "serialpos": 10, "key_press": -1, "wordID": 584, "type": "PRES_AUD", "trial_index": 179}, "uniqueid": "MTK2717:3DPNQGW4LMMGT3PSUO2NHZK931A46Q", "dateTime": 1519250490867}, {"current_trial": 180, "trialdata": {"rt": -1000, "trial_type": "single-audio", "word": "racket", "stimulus": "/static/audio/wordpool/RACKET.wav", "conditions": [24, 1600, "a", 12000], "internal_node_id": "0.0-135.0", "trial": 4, "time_elapsed": 966453, "serialpos": 11, "key_press": -1, "wordID": 1154, "type": "PRES_AUD", "trial_index": 180}, "uniqueid": "MTK2717:3DPNQGW4LMMGT3PSUO2NHZK931A46Q", "dateTime": 1519250493556}, {"current_trial": 181, "trialdata": {"rt": -1000, "trial_type": "single-audio", "word": "bacon", "stimulus": "/static/audio/wordpool/BACON.wav", "conditions": [24, 1600, "a", 12000], "internal_node_id": "0.0-136.0", "trial": 4, "time_elapsed": 969011, "serialpos": 12, "key_press": -1, "wordID": 66, "type": "PRES_AUD", "trial_index": 181}, "uniqueid": "MTK2717:3DPNQGW4LMMGT3PSUO2NHZK931A46Q", "dateTime": 1519250496114}, {"current_trial": 182, "trialdata": {"rt": -1000, "trial_type": "single-audio", "word": "money", "stimulus": "/static/audio/wordpool/MONEY.wav", "conditions": [24, 1600, "a", 12000], "internal_node_id": "0.0-137.0", "trial": 4, "time_elapsed": 971425, "serialpos": 13, "key_press": -1, "wordID": 907, "type": "PRES_AUD", "trial_index": 182}, "uniqueid": "MTK2717:3DPNQGW4LMMGT3PSUO2NHZK931A46Q", "dateTime": 1519250498529}, {"current_trial": 183, "trialdata": {"rt": -1000, "trial_type": "single-audio", "word": "belly", "stimulus": "/static/audio/wordpool/BELLY.wav", "conditions": [24, 1600, "a", 12000], "internal_node_id": "0.0-138.0", "trial": 4, "time_elapsed": 973840, "serialpos": 14, "key_press": -1, "wordID": 118, "type": "PRES_AUD", "trial_index": 183}, "uniqueid": "MTK2717:3DPNQGW4LMMGT3PSUO2NHZK931A46Q", "dateTime": 1519250500943}, {"current_trial": 184, "trialdata": {"rt": -1000, "trial_type": "single-audio", "word": "pork", "stimulus": "/static/audio/wordpool/PORK.wav", "conditions": [24, 1600, "a", 12000], "internal_node_id": "0.0-139.0", "trial": 4, "time_elapsed": 976337, "serialpos": 15, "key_press": -1, "wordID": 1107, "type": "PRES_AUD", "trial_index": 184}, "uniqueid": "MTK2717:3DPNQGW4LMMGT3PSUO2NHZK931A46Q", "dateTime": 1519250503440}, {"current_trial": 185, "trialdata": {"rt": -1000, "trial_type": "single-audio", "word": "cattle", "stimulus": "/static/audio/wordpool/CATTLE.wav", "conditions": [24, 1600, "a", 12000], "internal_node_id": "0.0-140.0", "trial": 4, "time_elapsed": 978803, "serialpos": 16, "key_press": -1, "wordID": 260, "type": "PRES_AUD", "trial_index": 185}, "uniqueid": "MTK2717:3DPNQGW4LMMGT3PSUO2NHZK931A46Q", "dateTime": 1519250505906}, {"current_trial": 186, "trialdata": {"rt": -1000, "trial_type": "single-audio", "word": "beef", "stimulus": "/static/audio/wordpool/BEEF.wav", "conditions": [24, 1600, "a", 12000], "internal_node_id": "0.0-141.0", "trial": 4, "time_elapsed": 981452, "serialpos": 17, "key_press": -1, "wordID": 112, "type": "PRES_AUD", "trial_index": 186}, "uniqueid": "MTK2717:3DPNQGW4LMMGT3PSUO2NHZK931A46Q", "dateTime": 1519250508555}, {"current_trial": 187, "trialdata": {"rt": -1000, "trial_type": "single-audio", "word": "canal", "stimulus": "/static/audio/wordpool/CANAL.wav", "conditions": [24, 1600, "a", 12000], "internal_node_id": "0.0-142.0", "trial": 4, "time_elapsed": 983900, "serialpos": 18, "key_press": -1, "wordID": 225, "type": "PRES_AUD", "trial_index": 187}, "uniqueid": "MTK2717:3DPNQGW4LMMGT3PSUO2NHZK931A46Q", "dateTime": 1519250511004}, {"current_trial": 188, "trialdata": {"rt": -1000, "trial_type": "single-audio", "word": "truck", "stimulus": "/static/audio/wordpool/TRUCK.wav", "conditions": [24, 1600, "a", 12000], "internal_node_id": "0.0-143.0", "trial": 4, "time_elapsed": 986370, "serialpos": 19, "key_press": -1, "wordID": 1511, "type": "PRES_AUD", "trial_index": 188}, "uniqueid": "MTK2717:3DPNQGW4LMMGT3PSUO2NHZK931A46Q", "dateTime": 1519250513473}, {"current_trial": 189, "trialdata": {"rt": -1000, "trial_type": "single-audio", "word": "receipt", "stimulus": "/static/audio/wordpool/RECEIPT.wav", "conditions": [24, 1600, "a", 12000], "internal_node_id": "0.0-144.0", "trial": 4, "time_elapsed": 988841, "serialpos": 20, "key_press": -1, "wordID": 1172, "type": "PRES_AUD", "trial_index": 189}, "uniqueid": "MTK2717:3DPNQGW4LMMGT3PSUO2NHZK931A46Q", "dateTime": 1519250515944}, {"current_trial": 190, "trialdata": {"rt": -1000, "trial_type": "single-audio", "word": "keeper", "stimulus": "/static/audio/wordpool/KEEPER.wav", "conditions": [24, 1600, "a", 12000], "internal_node_id": "0.0-145.0", "trial": 4, "time_elapsed": 991337, "serialpos": 21, "key_press": -1, "wordID": 768, "type": "PRES_AUD", "trial_index": 190}, "uniqueid": "MTK2717:3DPNQGW4LMMGT3PSUO2NHZK931A46Q", "dateTime": 1519250518440}, {"current_trial": 191, "trialdata": {"rt": -1000, "trial_type": "single-audio", "word": "compass", "stimulus": "/static/audio/wordpool/COMPASS.wav", "conditions": [24, 1600, "a", 12000], "internal_node_id": "0.0-146.0", "trial": 4, "time_elapsed": 994128, "serialpos": 22, "key_press": -1, "wordID": 357, "type": "PRES_AUD", "trial_index": 191}, "uniqueid": "MTK2717:3DPNQGW4LMMGT3PSUO2NHZK931A46Q", "dateTime": 1519250521231}, {"current_trial": 192, "trialdata": {"rt": -1000, "trial_type": "single-audio", "word": "space", "stimulus": "/static/audio/wordpool/SPACE.wav", "conditions": [24, 1600, "a", 12000], "internal_node_id": "0.0-147.0", "trial": 4, "time_elapsed": 996660, "serialpos": 23, "key_press": -1, "wordID": 1344, "type": "PRES_AUD", "trial_index": 192}, "uniqueid": "MTK2717:3DPNQGW4LMMGT3PSUO2NHZK931A46Q", "dateTime": 1519250523763}, {"current_trial": 193, "trialdata": {"rt": -1, "trial_type": "single-stim", "stimulus": "", "internal_node_id": "0.0-148.0-0.0", "time_elapsed": 997942, "key_press": -1, "type": "PRE_RECALL_DELAY", "trial_index": 193}, "uniqueid": "MTK2717:3DPNQGW4LMMGT3PSUO2NHZK931A46Q", "dateTime": 1519250525046}, {"current_trial": 194, "trialdata": {"rt": -1000, "trial_type": "single-audio", "stimulus": "/static/audio/400Hz.wav", "internal_node_id": "0.0-149.0", "time_elapsed": 998444, "key_press": -1, "type": "PRE_RECALL_ALERT", "trial_index": 194}, "uniqueid": "MTK2717:3DPNQGW4LMMGT3PSUO2NHZK931A46Q", "dateTime": 1519250525547}, {"current_trial": 195, "trialdata": {"rt": [5451, 7808, 11656, 14665, 17779, 21007, 23808, 32736, 37089, 40544, 53357], "recwords": ["bacon", "space", "compass", "canal", "flute", "jacket", "cattle", "blackboard", "fiddle", "knapsack", "shoulder"], "key_times": [3851, 4001, 4320, 4460, 4712, 5451, 6279, 6381, 6598, 6862, 7159, 7808, 8883, 8972, 9232, 9449, 9593, 10509, 10748, 11656, 13265, 13461, 13583, 13768, 13889, 14665, 15574, 15653, 15919, 16292, 16523, 17779, 18769, 18916, 19258, 19414, 19689, 20032, 21007, 21455, 21630, 21871, 22063, 22207, 22408, 23808, 29543, 29699, 29851, 30105, 30233, 30818, 30920, 31081, 31268, 31583, 32736, 33933, 34021, 34322, 34871, 35207, 35431, 35562, 35787, 37089, 37842, 38023, 38246, 38355, 38807, 38978, 39326, 39539, 40544, 51784, 51904, 52160, 52297, 52542, 52722, 52947, 53075, 53357], "trial_type": "free-recall", "conditions": [24, 1600, "a", 12000], "internal_node_id": "0.0-150.0-0.0", "key_presses": [66, 65, 67, 79, 78, 13, 83, 80, 65, 67, 69, 13, 67, 79, 77, 80, 65, 83, 83, 13, 67, 65, 78, 65, 76, 13, 70, 76, 85, 84, 69, 13, 74, 65, 67, 75, 69, 84, 13, 67, 65, 84, 84, 76, 69, 13, 66, 76, 65, 67, 75, 66, 79, 65, 82, 68, 13, 70, 73, 76, 8, 68, 68, 76, 69, 13, 75, 78, 65, 80, 83, 65, 67, 75, 13, 83, 72, 79, 85, 76, 68, 69, 82, 13], "trial": 4, "time_elapsed": 1058447, "type": "FREE_RECALL", "trial_index": 195}, "uniqueid": "MTK2717:3DPNQGW4LMMGT3PSUO2NHZK931A46Q", "dateTime": 1519250585553}, {"current_trial": 196, "trialdata": {"rt": 12015, "trial_type": "text", "internal_node_id": "0.0-151.0", "time_elapsed": 1072467, "key_press": 75, "type": "INSTRUCTIONS", "trial_index": 196}, "uniqueid": "MTK2717:3DPNQGW4LMMGT3PSUO2NHZK931A46Q", "dateTime": 1519250599570}, {"current_trial": 197, "trialdata": {"rt": [2616, 4710, 7282, 9188, 11759], "trial_type": "math-distractor", "key_times": [1998, 2223, 2616, 4099, 4298, 4710, 6646, 6912, 7282, 8753, 9188, 11264, 11483, 11759], "responses": ["16", "14", "16", "7", "23"], "num2": [6, 6, 6, 2, 8, 3], "num3": [6, 1, 7, 4, 9, 9], "conditions": [12, 1600, "a", 12000], "internal_node_id": "0.0-152.0", "key_presses": [97, 102, 13, 97, 100, 13, 97, 102, 13, 103, 13, 98, 99, 13], "trial": 5, "time_elapsed": 1086470, "type": "DISTRACTOR", "trial_index": 197, "num1": [4, 7, 3, 1, 6, 9]}, "uniqueid": "MTK2717:3DPNQGW4LMMGT3PSUO2NHZK931A46Q", "dateTime": 1519250613573}, {"current_trial": 198, "trialdata": {"rt": -1, "trial_type": "single-stim", "stimulus": "<p id=\"stim\">10</p>", "internal_node_id": "0.0-153.0-0.0", "time_elapsed": 1089472, "key_press": -1, "trial_index": 198}, "uniqueid": "MTK2717:3DPNQGW4LMMGT3PSUO2NHZK931A46Q", "dateTime": 1519250616575}, {"current_trial": 199, "trialdata": {"rt": -1, "trial_type": "single-stim", "stimulus": "<p id=\"stim\">9</p>", "internal_node_id": "0.0-153.0-1.0", "time_elapsed": 1090473, "key_press": -1, "trial_index": 199}, "uniqueid": "MTK2717:3DPNQGW4LMMGT3PSUO2NHZK931A46Q", "dateTime": 1519250617577}, {"current_trial": 200, "trialdata": {"rt": -1, "trial_type": "single-stim", "stimulus": "<p id=\"stim\">8</p>", "internal_node_id": "0.0-153.0-2.0", "time_elapsed": 1091474, "key_press": -1, "trial_index": 200}, "uniqueid": "MTK2717:3DPNQGW4LMMGT3PSUO2NHZK931A46Q", "dateTime": 1519250618578}, {"current_trial": 201, "trialdata": {"rt": -1, "trial_type": "single-stim", "stimulus": "<p id=\"stim\">7</p>", "internal_node_id": "0.0-153.0-3.0", "time_elapsed": 1092476, "key_press": -1, "trial_index": 201}, "uniqueid": "MTK2717:3DPNQGW4LMMGT3PSUO2NHZK931A46Q", "dateTime": 1519250619579}, {"current_trial": 202, "trialdata": {"rt": -1, "trial_type": "single-stim", "stimulus": "<p id=\"stim\">6</p>", "internal_node_id": "0.0-153.0-4.0", "time_elapsed": 1093477, "key_press": -1, "trial_index": 202}, "uniqueid": "MTK2717:3DPNQGW4LMMGT3PSUO2NHZK931A46Q", "dateTime": 1519250620580}, {"current_trial": 203, "trialdata": {"rt": -1, "trial_type": "single-stim", "stimulus": "<p id=\"stim\">5</p>", "internal_node_id": "0.0-153.0-5.0", "time_elapsed": 1094478, "key_press": -1, "trial_index": 203}, "uniqueid": "MTK2717:3DPNQGW4LMMGT3PSUO2NHZK931A46Q", "dateTime": 1519250621581}, {"current_trial": 204, "trialdata": {"rt": -1, "trial_type": "single-stim", "stimulus": "<p id=\"stim\">4</p>", "internal_node_id": "0.0-153.0-6.0", "time_elapsed": 1095479, "key_press": -1, "trial_index": 204}, "uniqueid": "MTK2717:3DPNQGW4LMMGT3PSUO2NHZK931A46Q", "dateTime": 1519250622582}, {"current_trial": 205, "trialdata": {"rt": -1, "trial_type": "single-stim", "stimulus": "<p id=\"stim\">3</p>", "internal_node_id": "0.0-153.0-7.0", "time_elapsed": 1096481, "key_press": -1, "trial_index": 205}, "uniqueid": "MTK2717:3DPNQGW4LMMGT3PSUO2NHZK931A46Q", "dateTime": 1519250623584}, {"current_trial": 206, "trialdata": {"rt": -1, "trial_type": "single-stim", "stimulus": "<p id=\"stim\">2</p>", "internal_node_id": "0.0-153.0-8.0", "time_elapsed": 1097483, "key_press": -1, "trial_index": 206}, "uniqueid": "MTK2717:3DPNQGW4LMMGT3PSUO2NHZK931A46Q", "dateTime": 1519250624586}, {"current_trial": 207, "trialdata": {"rt": -1, "trial_type": "single-stim", "stimulus": "<p id=\"stim\">1</p>", "internal_node_id": "0.0-153.0-9.0", "time_elapsed": 1098484, "key_press": -1, "trial_index": 207}, "uniqueid": "MTK2717:3DPNQGW4LMMGT3PSUO2NHZK931A46Q", "dateTime": 1519250625587}, {"current_trial": 208, "trialdata": {"rt": -1, "trial_type": "single-stim", "stimulus": "<p id=\"stim\">+</p>", "internal_node_id": "0.0-154.0-0.0", "time_elapsed": 1099985, "key_press": -1, "type": "FIXATION", "trial_index": 208}, "uniqueid": "MTK2717:3DPNQGW4LMMGT3PSUO2NHZK931A46Q", "dateTime": 1519250627089}, {"current_trial": 209, "trialdata": {"rt": -1000, "trial_type": "single-audio", "word": "cafe", "stimulus": "/static/audio/wordpool/CAFE.wav", "conditions": [12, 1600, "a", 12000], "internal_node_id": "0.0-155.0", "trial": 5, "time_elapsed": 1102671, "serialpos": 0, "key_press": -1, "wordID": 215, "type": "PRES_AUD", "trial_index": 209}, "uniqueid": "MTK2717:3DPNQGW4LMMGT3PSUO2NHZK931A46Q", "dateTime": 1519250629774}, {"current_trial": 210, "trialdata": {"rt": -1000, "trial_type": "single-audio", "word": "diner", "stimulus": "/static/audio/wordpool/DINER.wav", "conditions": [12, 1600, "a", 12000], "internal_node_id": "0.0-156.0", "trial": 5, "time_elapsed": 1105112, "serialpos": 1, "key_press": -1, "wordID": 466, "type": "PRES_AUD", "trial_index": 210}, "uniqueid": "MTK2717:3DPNQGW4LMMGT3PSUO2NHZK931A46Q", "dateTime": 1519250632215}, {"current_trial": 211, "trialdata": {"rt": -1000, "trial_type": "single-audio", "word": "flower", "stimulus": "/static/audio/wordpool/FLOWER.wav", "conditions": [12, 1600, "a", 12000], "internal_node_id": "0.0-157.0", "trial": 5, "time_elapsed": 1107742, "serialpos": 2, "key_press": -1, "wordID": 583, "type": "PRES_AUD", "trial_index": 211}, "uniqueid": "MTK2717:3DPNQGW4LMMGT3PSUO2NHZK931A46Q", "dateTime": 1519250634845}, {"current_trial": 212, "trialdata": {"rt": -1000, "trial_type": "single-audio", "word": "bullet", "stimulus": "/static/audio/wordpool/BULLET.wav", "conditions": [12, 1600, "a", 12000], "internal_node_id": "0.0-158.0", "trial": 5, "time_elapsed": 1110185, "serialpos": 3, "key_press": -1, "wordID": 193, "type": "PRES_AUD", "trial_index": 212}, "uniqueid": "MTK2717:3DPNQGW4LMMGT3PSUO2NHZK931A46Q", "dateTime": 1519250637288}, {"current_trial": 213, "trialdata": {"rt": -1000, "trial_type": "single-audio", "word": "crater", "stimulus": "/static/audio/wordpool/CRATER.wav", "conditions": [12, 1600, "a", 12000], "internal_node_id": "0.0-159.0", "trial": 5, "time_elapsed": 1112869, "serialpos": 4, "key_press": -1, "wordID": 399, "type": "PRES_AUD", "trial_index": 213}, "uniqueid": "MTK2717:3DPNQGW4LMMGT3PSUO2NHZK931A46Q", "dateTime": 1519250639972}, {"current_trial": 214, "trialdata": {"rt": -1000, "trial_type": "single-audio", "word": "salmon", "stimulus": "/static/audio/wordpool/SALMON.wav", "conditions": [12, 1600, "a", 12000], "internal_node_id": "0.0-160.0", "trial": 5, "time_elapsed": 1115488, "serialpos": 5, "key_press": -1, "wordID": 1226, "type": "PRES_AUD", "trial_index": 214}, "uniqueid": "MTK2717:3DPNQGW4LMMGT3PSUO2NHZK931A46Q", "dateTime": 1519250642591}, {"current_trial": 215, "trialdata": {"rt": -1000, "trial_type": "single-audio", "word": "queen", "stimulus": "/static/audio/wordpool/QUEEN.wav", "conditions": [12, 1600, "a", 12000], "internal_node_id": "0.0-161.0", "trial": 5, "time_elapsed": 1118124, "serialpos": 6, "key_press": -1, "wordID": 1148, "type": "PRES_AUD", "trial_index": 215}, "uniqueid": "MTK2717:3DPNQGW4LMMGT3PSUO2NHZK931A46Q", "dateTime": 1519250645227}, {"current_trial": 216, "trialdata": {"rt": -1000, "trial_type": "single-audio", "word": "lava", "stimulus": "/static/audio/wordpool/LAVA.wav", "conditions": [12, 1600, "a", 12000], "internal_node_id": "0.0-162.0", "trial": 5, "time_elapsed": 1120658, "serialpos": 7, "key_press": -1, "wordID": 803, "type": "PRES_AUD", "trial_index": 216}, "uniqueid": "MTK2717:3DPNQGW4LMMGT3PSUO2NHZK931A46Q", "dateTime": 1519250647761}, {"current_trial": 217, "trialdata": {"rt": -1000, "trial_type": "single-audio", "word": "notebook", "stimulus": "/static/audio/wordpool/NOTEBOOK.wav", "conditions": [12, 1600, "a", 12000], "internal_node_id": "0.0-163.0", "trial": 5, "time_elapsed": 1123304, "serialpos": 8, "key_press": -1, "wordID": 958, "type": "PRES_AUD", "trial_index": 217}, "uniqueid": "MTK2717:3DPNQGW4LMMGT3PSUO2NHZK931A46Q", "dateTime": 1519250650408}, {"current_trial": 218, "trialdata": {"rt": -1000, "trial_type": "single-audio", "word": "cross", "stimulus": "/static/audio/wordpool/CROSS.wav", "conditions": [12, 1600, "a", 12000], "internal_node_id": "0.0-164.0", "trial": 5, "time_elapsed": 1125905, "serialpos": 9, "key_press": -1, "wordID": 412, "type": "PRES_AUD", "trial_index": 218}, "uniqueid": "MTK2717:3DPNQGW4LMMGT3PSUO2NHZK931A46Q", "dateTime": 1519250653008}, {"current_trial": 219, "trialdata": {"rt": -1000, "trial_type": "single-audio", "word": "orange", "stimulus": "/static/audio/wordpool/ORANGE.wav", "conditions": [12, 1600, "a", 12000], "internal_node_id": "0.0-165.0", "trial": 5, "time_elapsed": 1128653, "serialpos": 10, "key_press": -1, "wordID": 979, "type": "PRES_AUD", "trial_index": 219}, "uniqueid": "MTK2717:3DPNQGW4LMMGT3PSUO2NHZK931A46Q", "dateTime": 1519250655756}, {"current_trial": 220, "trialdata": {"rt": -1000, "trial_type": "single-audio", "word": "garlic", "stimulus": "/static/audio/wordpool/GARLIC.wav", "conditions": [12, 1600, "a", 12000], "internal_node_id": "0.0-166.0", "trial": 5, "time_elapsed": 1131391, "serialpos": 11, "key_press": -1, "wordID": 623, "type": "PRES_AUD", "trial_index": 220}, "uniqueid": "MTK2717:3DPNQGW4LMMGT3PSUO2NHZK931A46Q", "dateTime": 1519250658494}, {"current_trial": 221, "trialdata": {"rt": -1, "trial_type": "single-stim", "stimulus": "", "internal_node_id": "0.0-167.0-0.0", "time_elapsed": 1132599, "key_press": -1, "type": "PRE_RECALL_DELAY", "trial_index": 221}, "uniqueid": "MTK2717:3DPNQGW4LMMGT3PSUO2NHZK931A46Q", "dateTime": 1519250659702}, {"current_trial": 222, "trialdata": {"rt": -1000, "trial_type": "single-audio", "stimulus": "/static/audio/400Hz.wav", "internal_node_id": "0.0-168.0", "time_elapsed": 1133100, "key_press": -1, "type": "PRE_RECALL_ALERT", "trial_index": 222}, "uniqueid": "MTK2717:3DPNQGW4LMMGT3PSUO2NHZK931A46Q", "dateTime": 1519250660203}, {"current_trial": 223, "trialdata": {"rt": [6962, 13681, 17147, 19989, 23484, 26574, 30593, 41314], "recwords": ["cafe", "diner", "garlic", "orange", "salmon", "lava", "notebook", "crop"], "key_times": [3877, 4278, 5005, 5286, 6962, 11975, 12061, 12300, 12461, 12589, 13681, 15226, 15396, 15591, 15895, 16086, 16239, 17147, 18016, 18205, 18416, 18582, 18829, 19096, 19989, 21924, 22124, 22237, 22475, 22622, 22770, 23484, 25542, 25652, 25893, 26094, 26574, 27812, 27950, 28044, 28312, 28675, 28860, 29003, 29241, 30593, 38720, 39188, 39531, 39779, 41314], "trial_type": "free-recall", "conditions": [12, 1600, "a", 12000], "internal_node_id": "0.0-169.0-0.0", "key_presses": [67, 65, 70, 69, 13, 68, 73, 78, 69, 82, 13, 71, 65, 82, 76, 73, 67, 13, 79, 82, 65, 78, 71, 69, 13, 83, 65, 76, 77, 79, 78, 13, 76, 65, 86, 65, 13, 78, 79, 84, 69, 66, 79, 79, 75, 13, 67, 82, 79, 80, 13], "trial": 5, "time_elapsed": 1193103, "type": "FREE_RECALL", "trial_index": 223}, "uniqueid": "MTK2717:3DPNQGW4LMMGT3PSUO2NHZK931A46Q", "dateTime": 1519250720211}, {"current_trial": 224, "trialdata": {"rt": 1237, "trial_type": "text", "internal_node_id": "0.0-170.0", "time_elapsed": 1196346, "key_press": 75, "type": "INSTRUCTIONS", "trial_index": 224}, "uniqueid": "MTK2717:3DPNQGW4LMMGT3PSUO2NHZK931A46Q", "dateTime": 1519250723450}, {"current_trial": 225, "trialdata": {"rt": [3196, 5458, 7976, 10421], "trial_type": "math-distractor", "key_times": [2410, 2597, 3196, 4917, 5097, 5458, 7321, 7531, 7976, 9803, 9994, 10421, 11746], "responses": ["11", "21", "14", "14"], "num2": [5, 8, 4, 4, 5], "num3": [3, 4, 9, 8, 8], "conditions": [12, 800, "a", 12000], "internal_node_id": "0.0-171.0", "key_presses": [97, 97, 13, 98, 97, 13, 97, 100, 13, 97, 100, 13, 97], "trial": 6, "time_elapsed": 1210351, "type": "DISTRACTOR", "trial_index": 225, "num1": [3, 9, 1, 2, 5]}, "uniqueid": "MTK2717:3DPNQGW4LMMGT3PSUO2NHZK931A46Q", "dateTime": 1519250737454}, {"current_trial": 226, "trialdata": {"rt": -1, "trial_type": "single-stim", "stimulus": "<p id=\"stim\">10</p>", "internal_node_id": "0.0-172.0-0.0", "time_elapsed": 1213353, "key_press": -1, "trial_index": 226}, "uniqueid": "MTK2717:3DPNQGW4LMMGT3PSUO2NHZK931A46Q", "dateTime": 1519250740456}, {"current_trial": 227, "trialdata": {"rt": -1, "trial_type": "single-stim", "stimulus": "<p id=\"stim\">9</p>", "internal_node_id": "0.0-172.0-1.0", "time_elapsed": 1214355, "key_press": -1, "trial_index": 227}, "uniqueid": "MTK2717:3DPNQGW4LMMGT3PSUO2NHZK931A46Q", "dateTime": 1519250741458}, {"current_trial": 228, "trialdata": {"rt": -1, "trial_type": "single-stim", "stimulus": "<p id=\"stim\">8</p>", "internal_node_id": "0.0-172.0-2.0", "time_elapsed": 1215357, "key_press": -1, "trial_index": 228}, "uniqueid": "MTK2717:3DPNQGW4LMMGT3PSUO2NHZK931A46Q", "dateTime": 1519250742460}, {"current_trial": 229, "trialdata": {"rt": -1, "trial_type": "single-stim", "stimulus": "<p id=\"stim\">7</p>", "internal_node_id": "0.0-172.0-3.0", "time_elapsed": 1216358, "key_press": -1, "trial_index": 229}, "uniqueid": "MTK2717:3DPNQGW4LMMGT3PSUO2NHZK931A46Q", "dateTime": 1519250743462}, {"current_trial": 230, "trialdata": {"rt": -1, "trial_type": "single-stim", "stimulus": "<p id=\"stim\">6</p>", "internal_node_id": "0.0-172.0-4.0", "time_elapsed": 1217359, "key_press": -1, "trial_index": 230}, "uniqueid": "MTK2717:3DPNQGW4LMMGT3PSUO2NHZK931A46Q", "dateTime": 1519250744463}, {"current_trial": 231, "trialdata": {"rt": -1, "trial_type": "single-stim", "stimulus": "<p id=\"stim\">5</p>", "internal_node_id": "0.0-172.0-5.0", "time_elapsed": 1218361, "key_press": -1, "trial_index": 231}, "uniqueid": "MTK2717:3DPNQGW4LMMGT3PSUO2NHZK931A46Q", "dateTime": 1519250745464}, {"current_trial": 232, "trialdata": {"rt": -1, "trial_type": "single-stim", "stimulus": "<p id=\"stim\">4</p>", "internal_node_id": "0.0-172.0-6.0", "time_elapsed": 1219362, "key_press": -1, "trial_index": 232}, "uniqueid": "MTK2717:3DPNQGW4LMMGT3PSUO2NHZK931A46Q", "dateTime": 1519250746465}, {"current_trial": 233, "trialdata": {"rt": -1, "trial_type": "single-stim", "stimulus": "<p id=\"stim\">3</p>", "internal_node_id": "0.0-172.0-7.0", "time_elapsed": 1220364, "key_press": -1, "trial_index": 233}, "uniqueid": "MTK2717:3DPNQGW4LMMGT3PSUO2NHZK931A46Q", "dateTime": 1519250747467}, {"current_trial": 234, "trialdata": {"rt": -1, "trial_type": "single-stim", "stimulus": "<p id=\"stim\">2</p>", "internal_node_id": "0.0-172.0-8.0", "time_elapsed": 1221365, "key_press": -1, "trial_index": 234}, "uniqueid": "MTK2717:3DPNQGW4LMMGT3PSUO2NHZK931A46Q", "dateTime": 1519250748468}, {"current_trial": 235, "trialdata": {"rt": -1, "trial_type": "single-stim", "stimulus": "<p id=\"stim\">1</p>", "internal_node_id": "0.0-172.0-9.0", "time_elapsed": 1222367, "key_press": -1, "trial_index": 235}, "uniqueid": "MTK2717:3DPNQGW4LMMGT3PSUO2NHZK931A46Q", "dateTime": 1519250749471}, {"current_trial": 236, "trialdata": {"rt": -1, "trial_type": "single-stim", "stimulus": "<p id=\"stim\">+</p>", "internal_node_id": "0.0-173.0-0.0", "time_elapsed": 1223869, "key_press": -1, "type": "FIXATION", "trial_index": 236}, "uniqueid": "MTK2717:3DPNQGW4LMMGT3PSUO2NHZK931A46Q", "dateTime": 1519250750972}, {"current_trial": 237, "trialdata": {"rt": -1000, "trial_type": "single-audio", "word": "carriage", "stimulus": "/static/audio/wordpool/CARRIAGE.wav", "conditions": [12, 800, "a", 12000], "internal_node_id": "0.0-174.0", "trial": 6, "time_elapsed": 1225507, "serialpos": 0, "key_press": -1, "wordID": 247, "type": "PRES_AUD", "trial_index": 237}, "uniqueid": "MTK2717:3DPNQGW4LMMGT3PSUO2NHZK931A46Q", "dateTime": 1519250752610}, {"current_trial": 238, "trialdata": {"rt": -1000, "trial_type": "single-audio", "word": "beast", "stimulus": "/static/audio/wordpool/BEAST.wav", "conditions": [12, 800, "a", 12000], "internal_node_id": "0.0-175.0", "trial": 6, "time_elapsed": 1227483, "serialpos": 1, "key_press": -1, "wordID": 107, "type": "PRES_AUD", "trial_index": 238}, "uniqueid": "MTK2717:3DPNQGW4LMMGT3PSUO2NHZK931A46Q", "dateTime": 1519250754586}, {"current_trial": 239, "trialdata": {"rt": -1000, "trial_type": "single-audio", "word": "monster", "stimulus": "/static/audio/wordpool/MONSTER.wav", "conditions": [12, 800, "a", 12000], "internal_node_id": "0.0-176.0", "trial": 6, "time_elapsed": 1229129, "serialpos": 2, "key_press": -1, "wordID": 911, "type": "PRES_AUD", "trial_index": 239}, "uniqueid": "MTK2717:3DPNQGW4LMMGT3PSUO2NHZK931A46Q", "dateTime": 1519250756232}, {"current_trial": 240, "trialdata": {"rt": -1000, "trial_type": "single-audio", "word": "tourist", "stimulus": "/static/audio/wordpool/TOURIST.wav", "conditions": [12, 800, "a", 12000], "internal_node_id": "0.0-177.0", "trial": 6, "time_elapsed": 1231001, "serialpos": 3, "key_press": -1, "wordID": 1487, "type": "PRES_AUD", "trial_index": 240}, "uniqueid": "MTK2717:3DPNQGW4LMMGT3PSUO2NHZK931A46Q", "dateTime": 1519250758104}, {"current_trial": 241, "trialdata": {"rt": -1000, "trial_type": "single-audio", "word": "dragon", "stimulus": "/static/audio/wordpool/DRAGON.wav", "conditions": [12, 800, "a", 12000], "internal_node_id": "0.0-178.0", "trial": 6, "time_elapsed": 1232951, "serialpos": 4, "key_press": -1, "wordID": 491, "type": "PRES_AUD", "trial_index": 241}, "uniqueid": "MTK2717:3DPNQGW4LMMGT3PSUO2NHZK931A46Q", "dateTime": 1519250760054}, {"current_trial": 242, "trialdata": {"rt": -1000, "trial_type": "single-audio", "word": "spouse", "stimulus": "/static/audio/wordpool/SPOUSE.wav", "conditions": [12, 800, "a", 12000], "internal_node_id": "0.0-179.0", "trial": 6, "time_elapsed": 1234833, "serialpos": 5, "key_press": -1, "wordID": 1357, "type": "PRES_AUD", "trial_index": 242}, "uniqueid": "MTK2717:3DPNQGW4LMMGT3PSUO2NHZK931A46Q", "dateTime": 1519250761936}, {"current_trial": 243, "trialdata": {"rt": -1000, "trial_type": "single-audio", "word": "lady", "stimulus": "/static/audio/wordpool/LADY.wav", "conditions": [12, 800, "a", 12000], "internal_node_id": "0.0-180.0", "trial": 6, "time_elapsed": 1236477, "serialpos": 6, "key_press": -1, "wordID": 793, "type": "PRES_AUD", "trial_index": 243}, "uniqueid": "MTK2717:3DPNQGW4LMMGT3PSUO2NHZK931A46Q", "dateTime": 1519250763580}, {"current_trial": 244, "trialdata": {"rt": -1000, "trial_type": "single-audio", "word": "mattress", "stimulus": "/static/audio/wordpool/MATTRESS.wav", "conditions": [12, 800, "a", 12000], "internal_node_id": "0.0-181.0", "trial": 6, "time_elapsed": 1238282, "serialpos": 7, "key_press": -1, "wordID": 878, "type": "PRES_AUD", "trial_index": 244}, "uniqueid": "MTK2717:3DPNQGW4LMMGT3PSUO2NHZK931A46Q", "dateTime": 1519250765385}, {"current_trial": 245, "trialdata": {"rt": -1000, "trial_type": "single-audio", "word": "softball", "stimulus": "/static/audio/wordpool/SOFTBALL.wav", "conditions": [12, 800, "a", 12000], "internal_node_id": "0.0-182.0", "trial": 6, "time_elapsed": 1239907, "serialpos": 8, "key_press": -1, "wordID": 1342, "type": "PRES_AUD", "trial_index": 245}, "uniqueid": "MTK2717:3DPNQGW4LMMGT3PSUO2NHZK931A46Q", "dateTime": 1519250767010}, {"current_trial": 246, "trialdata": {"rt": -1000, "trial_type": "single-audio", "word": "chapel", "stimulus": "/static/audio/wordpool/CHAPEL.wav", "conditions": [12, 800, "a", 12000], "internal_node_id": "0.0-183.0", "trial": 6, "time_elapsed": 1241589, "serialpos": 9, "key_press": -1, "wordID": 279, "type": "PRES_AUD", "trial_index": 246}, "uniqueid": "MTK2717:3DPNQGW4LMMGT3PSUO2NHZK931A46Q", "dateTime": 1519250768692}, {"current_trial": 247, "trialdata": {"rt": -1000, "trial_type": "single-audio", "word": "goblin", "stimulus": "/static/audio/wordpool/GOBLIN.wav", "conditions": [12, 800, "a", 12000], "internal_node_id": "0.0-184.0", "trial": 6, "time_elapsed": 1243476, "serialpos": 10, "key_press": -1, "wordID": 644, "type": "PRES_AUD", "trial_index": 247}, "uniqueid": "MTK2717:3DPNQGW4LMMGT3PSUO2NHZK931A46Q", "dateTime": 1519250770579}, {"current_trial": 248, "trialdata": {"rt": -1000, "trial_type": "single-audio", "word": "glove", "stimulus": "/static/audio/wordpool/GLOVE.wav", "conditions": [12, 800, "a", 12000], "internal_node_id": "0.0-185.0", "trial": 6, "time_elapsed": 1245332, "serialpos": 11, "key_press": -1, "wordID": 641, "type": "PRES_AUD", "trial_index": 248}, "uniqueid": "MTK2717:3DPNQGW4LMMGT3PSUO2NHZK931A46Q", "dateTime": 1519250772435}, {"current_trial": 249, "trialdata": {"rt": -1, "trial_type": "single-stim", "stimulus": "", "internal_node_id": "0.0-186.0-0.0", "time_elapsed": 1246687, "key_press": -1, "type": "PRE_RECALL_DELAY", "trial_index": 249}, "uniqueid": "MTK2717:3DPNQGW4LMMGT3PSUO2NHZK931A46Q", "dateTime": 1519250773790}, {"current_trial": 250, "trialdata": {"rt": -1000, "trial_type": "single-audio", "stimulus": "/static/audio/400Hz.wav", "internal_node_id": "0.0-187.0", "time_elapsed": 1247188, "key_press": -1, "type": "PRE_RECALL_ALERT", "trial_index": 250}, "uniqueid": "MTK2717:3DPNQGW4LMMGT3PSUO2NHZK931A46Q", "dateTime": 1519250774291}, {"current_trial": 251, "trialdata": {"rt": [7805, 10303, 12756, 15883, 185