{"assignmentId": "3PMBY0YE28A66Q45LABHK7NZJBN9CX", "workerId": "MTK2500", "questiondata": {"avail_screen_height": 1040, "color_depth": 24, "screen_width": 2560, "pixel_depth": 24, "avail_screen_width": 2560, "screen_height": 1080}, "bonus": 0, "hitId": "32L724R85LRGOW8I47YYSGPPI4KPIF", "counterbalance": 1224, "useragent": "Mozilla/5.0 (Windows NT 10.0; Win64; x64) AppleWebKit/537.36 (KHTML, like Gecko) Chrome/63.0.3239.132 Safari/537.36", "eventdata": [{"eventtype": "initialized", "interval": 0, "value": null, "timestamp": 1517861411144}, {"eventtype": "window_resize", "interval": 0, "value": [2560, 1033], "timestamp": 1517861411144}, {"eventtype": "focus", "interval": 1319904, "value": "off", "timestamp": 1517862731048}, {"eventtype": "focus", "interval": 7931, "value": "on", "timestamp": 1517862738979}, {"eventtype": "focus", "interval": 109911, "value": "off", "timestamp": 1517862848890}, {"eventtype": "focus", "interval": 12577, "value": "on", "timestamp": 1517862861467}, {"eventtype": "focus", "interval": 387106, "value": "off", "timestamp": 1517863248573}, {"eventtype": "focus", "interval": 10692, "value": "on", "timestamp": 1517863259265}, {"eventtype": "focus", "interval": 7878, "value": "off", "timestamp": 1517863267143}, {"eventtype": "focus", "interval": 176, "value": "on", "timestamp": 1517863267319}, {"eventtype": "focus", "interval": 2890, "value": "off", "timestamp": 1517863270209}, {"eventtype": "focus", "interval": 5312, "value": "on", "timestamp": 1517863275521}], "data": [{"current_trial": 0, "trialdata": {"rt": 3670, "trial_type": "text", "internal_node_id": "0.0-0.0", "time_elapsed": 3671, "key_press": 32, "type": "INSTRUCTIONS", "trial_index": 0}, "uniqueid": "MTK2500:3PMBY0YE28A66Q45LABHK7NZJBN9CX", "dateTime": 1517861420317}, {"current_trial": 1, "trialdata": {"rt": 2510, "trial_type": "text", "internal_node_id": "0.0-1.0", "time_elapsed": 6182, "key_press": 32, "type": "INSTRUCTIONS", "trial_index": 1}, "uniqueid": "MTK2500:3PMBY0YE28A66Q45LABHK7NZJBN9CX", "dateTime": 1517861422828}, {"current_trial": 2, "trialdata": {"rt": [9949], "trial_type": "audio-test", "responses": ["ocean"], "internal_node_id": "0.0-2.0", "time_elapsed": 16134, "type": "AUDIO_TEST", "trial_index": 2}, "uniqueid": "MTK2500:3PMBY0YE28A66Q45LABHK7NZJBN9CX", "dateTime": 1517861432780}, {"current_trial": 3, "trialdata": {"rt": [7750], "trial_type": "audio-test", "responses": ["crystal"], "internal_node_id": "0.0-3.0", "time_elapsed": 23886, "type": "AUDIO_TEST", "trial_index": 3}, "uniqueid": "MTK2500:3PMBY0YE28A66Q45LABHK7NZJBN9CX", "dateTime": 1517861440532}, {"current_trial": 4, "trialdata": {"rt": [4158], "trial_type": "audio-test", "responses": ["spice"], "internal_node_id": "0.0-4.0", "time_elapsed": 28045, "type": "AUDIO_TEST", "trial_index": 4}, "uniqueid": "MTK2500:3PMBY0YE28A66Q45LABHK7NZJBN9CX", "dateTime": 1517861444692}, {"current_trial": 5, "trialdata": {"rt": 17248, "trial_type": "survey-text", "responses": "{\"Q0\":\"2:00 a.m\",\"Q1\":\"7:00 a.m\",\"Q2\":\"5\"}", "internal_node_id": "0.0-5.0", "time_elapsed": 46046, "type": "SLEEP_SURVEY", "trial_index": 5}, "uniqueid": "MTK2500:3PMBY0YE28A66Q45LABHK7NZJBN9CX", "dateTime": 1517861462692}, {"current_trial": 6, "trialdata": {"rt": 63518, "trial_type": "text", "internal_node_id": "0.0-6.0", "time_elapsed": 110565, "key_press": 32, "type": "INSTRUCTIONS", "trial_index": 6}, "uniqueid": "MTK2500:3PMBY0YE28A66Q45LABHK7NZJBN9CX", "dateTime": 1517861527211}, {"current_trial": 7, "trialdata": {"rt": 19875, "trial_type": "text", "internal_node_id": "0.0-7.0", "time_elapsed": 130941, "key_press": 32, "type": "INSTRUCTIONS", "trial_index": 7}, "uniqueid": "MTK2500:3PMBY0YE28A66Q45LABHK7NZJBN9CX", "dateTime": 1517861547587}, {"current_trial": 8, "trialdata": {"rt": 5715, "trial_type": "text", "internal_node_id": "0.0-8.0", "time_elapsed": 137158, "key_press": 32, "type": "INSTRUCTIONS", "trial_index": 8}, "uniqueid": "MTK2500:3PMBY0YE28A66Q45LABHK7NZJBN9CX", "dateTime": 1517861553804}, {"current_trial": 9, "trialdata": {"rt": [4138, 9050, 13562], "trial_type": "math-distractor", "key_times": [3506, 3754, 4138, 7602, 7826, 9050, 13058, 13266, 13562], "responses": ["10", "15", "11"], "num2": [4, 8, 1, 8], "num3": [3, 3, 7, 1], "conditions": [18, 1200, "a", 18000], "internal_node_id": "0.0-9.0", "key_presses": [97, 96, 13, 97, 101, 13, 97, 97, 13], "trial": 0, "time_elapsed": 156164, "type": "DISTRACTOR", "trial_index": 9, "num1": [3, 4, 3, 5]}, "uniqueid": "MTK2500:3PMBY0YE28A66Q45LABHK7NZJBN9CX", "dateTime": 1517861572810}, {"current_trial": 10, "trialdata": {"rt": -1, "trial_type": "single-stim", "stimulus": "<p id=\"stim\">10</p>", "internal_node_id": "0.0-10.0-0.0", "time_elapsed": 159168, "key_press": -1, "trial_index": 10}, "uniqueid": "MTK2500:3PMBY0YE28A66Q45LABHK7NZJBN9CX", "dateTime": 1517861575814}, {"current_trial": 11, "trialdata": {"rt": -1, "trial_type": "single-stim", "stimulus": "<p id=\"stim\">9</p>", "internal_node_id": "0.0-10.0-1.0", "time_elapsed": 160170, "key_press": -1, "trial_index": 11}, "uniqueid": "MTK2500:3PMBY0YE28A66Q45LABHK7NZJBN9CX", "dateTime": 1517861576816}, {"current_trial": 12, "trialdata": {"rt": -1, "trial_type": "single-stim", "stimulus": "<p id=\"stim\">8</p>", "internal_node_id": "0.0-10.0-2.0", "time_elapsed": 161171, "key_press": -1, "trial_index": 12}, "uniqueid": "MTK2500:3PMBY0YE28A66Q45LABHK7NZJBN9CX", "dateTime": 1517861577818}, {"current_trial": 13, "trialdata": {"rt": -1, "trial_type": "single-stim", "stimulus": "<p id=\"stim\">7</p>", "internal_node_id": "0.0-10.0-3.0", "time_elapsed": 162173, "key_press": -1, "trial_index": 13}, "uniqueid": "MTK2500:3PMBY0YE28A66Q45LABHK7NZJBN9CX", "dateTime": 1517861578819}, {"current_trial": 14, "trialdata": {"rt": -1, "trial_type": "single-stim", "stimulus": "<p id=\"stim\">6</p>", "internal_node_id": "0.0-10.0-4.0", "time_elapsed": 163175, "key_press": -1, "trial_index": 14}, "uniqueid": "MTK2500:3PMBY0YE28A66Q45LABHK7NZJBN9CX", "dateTime": 1517861579821}, {"current_trial": 15, "trialdata": {"rt": -1, "trial_type": "single-stim", "stimulus": "<p id=\"stim\">5</p>", "internal_node_id": "0.0-10.0-5.0", "time_elapsed": 164177, "key_press": -1, "trial_index": 15}, "uniqueid": "MTK2500:3PMBY0YE28A66Q45LABHK7NZJBN9CX", "dateTime": 1517861580823}, {"current_trial": 16, "trialdata": {"rt": -1, "trial_type": "single-stim", "stimulus": "<p id=\"stim\">4</p>", "internal_node_id": "0.0-10.0-6.0", "time_elapsed": 165179, "key_press": -1, "trial_index": 16}, "uniqueid": "MTK2500:3PMBY0YE28A66Q45LABHK7NZJBN9CX", "dateTime": 1517861581825}, {"current_trial": 17, "trialdata": {"rt": -1, "trial_type": "single-stim", "stimulus": "<p id=\"stim\">3</p>", "internal_node_id": "0.0-10.0-7.0", "time_elapsed": 166181, "key_press": -1, "trial_index": 17}, "uniqueid": "MTK2500:3PMBY0YE28A66Q45LABHK7NZJBN9CX", "dateTime": 1517861582827}, {"current_trial": 18, "trialdata": {"rt": -1, "trial_type": "single-stim", "stimulus": "<p id=\"stim\">2</p>", "internal_node_id": "0.0-10.0-8.0", "time_elapsed": 167182, "key_press": -1, "trial_index": 18}, "uniqueid": "MTK2500:3PMBY0YE28A66Q45LABHK7NZJBN9CX", "dateTime": 1517861583828}, {"current_trial": 19, "trialdata": {"rt": -1, "trial_type": "single-stim", "stimulus": "<p id=\"stim\">1</p>", "internal_node_id": "0.0-10.0-9.0", "time_elapsed": 168183, "key_press": -1, "trial_index": 19}, "uniqueid": "MTK2500:3PMBY0YE28A66Q45LABHK7NZJBN9CX", "dateTime": 1517861584829}, {"current_trial": 20, "trialdata": {"rt": -1, "trial_type": "single-stim", "stimulus": "<p id=\"stim\">+</p>", "internal_node_id": "0.0-11.0-0.0", "time_elapsed": 169684, "key_press": -1, "type": "FIXATION", "trial_index": 20}, "uniqueid": "MTK2500:3PMBY0YE28A66Q45LABHK7NZJBN9CX", "dateTime": 1517861586330}, {"current_trial": 21, "trialdata": {"rt": -1000, "trial_type": "single-audio", "word": "muffin", "stimulus": "/static/audio/wordpool/MUFFIN.wav", "conditions": [18, 1200, "a", 18000], "internal_node_id": "0.0-12.0", "trial": 0, "time_elapsed": 171757, "serialpos": 0, "key_press": -1, "wordID": 928, "type": "PRES_AUD", "trial_index": 21}, "uniqueid": "MTK2500:3PMBY0YE28A66Q45LABHK7NZJBN9CX", "dateTime": 1517861588403}, {"current_trial": 22, "trialdata": {"rt": -1000, "trial_type": "single-audio", "word": "witness", "stimulus": "/static/audio/wordpool/WITNESS.wav", "conditions": [18, 1200, "a", 18000], "internal_node_id": "0.0-13.0", "trial": 0, "time_elapsed": 174136, "serialpos": 1, "key_press": -1, "wordID": 1617, "type": "PRES_AUD", "trial_index": 22}, "uniqueid": "MTK2500:3PMBY0YE28A66Q45LABHK7NZJBN9CX", "dateTime": 1517861590782}, {"current_trial": 23, "trialdata": {"rt": -1000, "trial_type": "single-audio", "word": "picture", "stimulus": "/static/audio/wordpool/PICTURE.wav", "conditions": [18, 1200, "a", 18000], "internal_node_id": "0.0-14.0", "trial": 0, "time_elapsed": 176322, "serialpos": 2, "key_press": -1, "wordID": 1060, "type": "PRES_AUD", "trial_index": 23}, "uniqueid": "MTK2500:3PMBY0YE28A66Q45LABHK7NZJBN9CX", "dateTime": 1517861592968}, {"current_trial": 24, "trialdata": {"rt": -1000, "trial_type": "single-audio", "word": "mummy", "stimulus": "/static/audio/wordpool/MUMMY.wav", "conditions": [18, 1200, "a", 18000], "internal_node_id": "0.0-15.0", "trial": 0, "time_elapsed": 178489, "serialpos": 3, "key_press": -1, "wordID": 931, "type": "PRES_AUD", "trial_index": 24}, "uniqueid": "MTK2500:3PMBY0YE28A66Q45LABHK7NZJBN9CX", "dateTime": 1517861595135}, {"current_trial": 25, "trialdata": {"rt": -1000, "trial_type": "single-audio", "word": "virus", "stimulus": "/static/audio/wordpool/VIRUS.wav", "conditions": [18, 1200, "a", 18000], "internal_node_id": "0.0-16.0", "trial": 0, "time_elapsed": 180674, "serialpos": 4, "key_press": -1, "wordID": 1571, "type": "PRES_AUD", "trial_index": 25}, "uniqueid": "MTK2500:3PMBY0YE28A66Q45LABHK7NZJBN9CX", "dateTime": 1517861597320}, {"current_trial": 26, "trialdata": {"rt": -1000, "trial_type": "single-audio", "word": "transplant", "stimulus": "/static/audio/wordpool/TRANSPLANT.wav", "conditions": [18, 1200, "a", 18000], "internal_node_id": "0.0-17.0", "trial": 0, "time_elapsed": 182998, "serialpos": 5, "key_press": -1, "wordID": 1495, "type": "PRES_AUD", "trial_index": 26}, "uniqueid": "MTK2500:3PMBY0YE28A66Q45LABHK7NZJBN9CX", "dateTime": 1517861599644}, {"current_trial": 27, "trialdata": {"rt": -1000, "trial_type": "single-audio", "word": "bunny", "stimulus": "/static/audio/wordpool/BUNNY.wav", "conditions": [18, 1200, "a", 18000], "internal_node_id": "0.0-18.0", "trial": 0, "time_elapsed": 185272, "serialpos": 6, "key_press": -1, "wordID": 197, "type": "PRES_AUD", "trial_index": 27}, "uniqueid": "MTK2500:3PMBY0YE28A66Q45LABHK7NZJBN9CX", "dateTime": 1517861601918}, {"current_trial": 28, "trialdata": {"rt": -1000, "trial_type": "single-audio", "word": "tribe", "stimulus": "/static/audio/wordpool/TRIBE.wav", "conditions": [18, 1200, "a", 18000], "internal_node_id": "0.0-19.0", "trial": 0, "time_elapsed": 187318, "serialpos": 7, "key_press": -1, "wordID": 1504, "type": "PRES_AUD", "trial_index": 28}, "uniqueid": "MTK2500:3PMBY0YE28A66Q45LABHK7NZJBN9CX", "dateTime": 1517861603964}, {"current_trial": 29, "trialdata": {"rt": -1000, "trial_type": "single-audio", "word": "laser", "stimulus": "/static/audio/wordpool/LASER.wav", "conditions": [18, 1200, "a", 18000], "internal_node_id": "0.0-20.0", "trial": 0, "time_elapsed": 189705, "serialpos": 8, "key_press": -1, "wordID": 800, "type": "PRES_AUD", "trial_index": 29}, "uniqueid": "MTK2500:3PMBY0YE28A66Q45LABHK7NZJBN9CX", "dateTime": 1517861606351}, {"current_trial": 30, "trialdata": {"rt": -1000, "trial_type": "single-audio", "word": "girl", "stimulus": "/static/audio/wordpool/GIRL.wav", "conditions": [18, 1200, "a", 18000], "internal_node_id": "0.0-21.0", "trial": 0, "time_elapsed": 191710, "serialpos": 9, "key_press": -1, "wordID": 636, "type": "PRES_AUD", "trial_index": 30}, "uniqueid": "MTK2500:3PMBY0YE28A66Q45LABHK7NZJBN9CX", "dateTime": 1517861608356}, {"current_trial": 31, "trialdata": {"rt": -1000, "trial_type": "single-audio", "word": "stove", "stimulus": "/static/audio/wordpool/STOVE.wav", "conditions": [18, 1200, "a", 18000], "internal_node_id": "0.0-22.0", "trial": 0, "time_elapsed": 193815, "serialpos": 10, "key_press": -1, "wordID": 1387, "type": "PRES_AUD", "trial_index": 31}, "uniqueid": "MTK2500:3PMBY0YE28A66Q45LABHK7NZJBN9CX", "dateTime": 1517861610461}, {"current_trial": 32, "trialdata": {"rt": -1000, "trial_type": "single-audio", "word": "church", "stimulus": "/static/audio/wordpool/CHURCH.wav", "conditions": [18, 1200, "a", 18000], "internal_node_id": "0.0-23.0", "trial": 0, "time_elapsed": 195957, "serialpos": 11, "key_press": -1, "wordID": 306, "type": "PRES_AUD", "trial_index": 32}, "uniqueid": "MTK2500:3PMBY0YE28A66Q45LABHK7NZJBN9CX", "dateTime": 1517861612603}, {"current_trial": 33, "trialdata": {"rt": -1000, "trial_type": "single-audio", "word": "hawk", "stimulus": "/static/audio/wordpool/HAWK.wav", "conditions": [18, 1200, "a", 18000], "internal_node_id": "0.0-24.0", "trial": 0, "time_elapsed": 198090, "serialpos": 12, "key_press": -1, "wordID": 691, "type": "PRES_AUD", "trial_index": 33}, "uniqueid": "MTK2500:3PMBY0YE28A66Q45LABHK7NZJBN9CX", "dateTime": 1517861614736}, {"current_trial": 34, "trialdata": {"rt": -1000, "trial_type": "single-audio", "word": "knapsack", "stimulus": "/static/audio/wordpool/KNAPSACK.wav", "conditions": [18, 1200, "a", 18000], "internal_node_id": "0.0-25.0", "trial": 0, "time_elapsed": 200332, "serialpos": 13, "key_press": -1, "wordID": 782, "type": "PRES_AUD", "trial_index": 34}, "uniqueid": "MTK2500:3PMBY0YE28A66Q45LABHK7NZJBN9CX", "dateTime": 1517861616978}, {"current_trial": 35, "trialdata": {"rt": -1000, "trial_type": "single-audio", "word": "wrench", "stimulus": "/static/audio/wordpool/WRENCH.wav", "conditions": [18, 1200, "a", 18000], "internal_node_id": "0.0-26.0", "trial": 0, "time_elapsed": 202665, "serialpos": 14, "key_press": -1, "wordID": 1624, "type": "PRES_AUD", "trial_index": 35}, "uniqueid": "MTK2500:3PMBY0YE28A66Q45LABHK7NZJBN9CX", "dateTime": 1517861619311}, {"current_trial": 36, "trialdata": {"rt": -1000, "trial_type": "single-audio", "word": "cousin", "stimulus": "/static/audio/wordpool/COUSIN.wav", "conditions": [18, 1200, "a", 18000], "internal_node_id": "0.0-27.0", "trial": 0, "time_elapsed": 204824, "serialpos": 15, "key_press": -1, "wordID": 391, "type": "PRES_AUD", "trial_index": 36}, "uniqueid": "MTK2500:3PMBY0YE28A66Q45LABHK7NZJBN9CX", "dateTime": 1517861621470}, {"current_trial": 37, "trialdata": {"rt": -1000, "trial_type": "single-audio", "word": "child", "stimulus": "/static/audio/wordpool/CHILD.wav", "conditions": [18, 1200, "a", 18000], "internal_node_id": "0.0-28.0", "trial": 0, "time_elapsed": 207169, "serialpos": 16, "key_press": -1, "wordID": 298, "type": "PRES_AUD", "trial_index": 37}, "uniqueid": "MTK2500:3PMBY0YE28A66Q45LABHK7NZJBN9CX", "dateTime": 1517861623815}, {"current_trial": 38, "trialdata": {"rt": -1000, "trial_type": "single-audio", "word": "agent", "stimulus": "/static/audio/wordpool/AGENT.wav", "conditions": [18, 1200, "a", 18000], "internal_node_id": "0.0-29.0", "trial": 0, "time_elapsed": 209270, "serialpos": 17, "key_press": -1, "wordID": 9, "type": "PRES_AUD", "trial_index": 38}, "uniqueid": "MTK2500:3PMBY0YE28A66Q45LABHK7NZJBN9CX", "dateTime": 1517861625916}, {"current_trial": 39, "trialdata": {"rt": -1, "trial_type": "single-stim", "stimulus": "", "internal_node_id": "0.0-30.0-0.0", "time_elapsed": 210602, "key_press": -1, "type": "PRE_RECALL_DELAY", "trial_index": 39}, "uniqueid": "MTK2500:3PMBY0YE28A66Q45LABHK7NZJBN9CX", "dateTime": 1517861627248}, {"current_trial": 40, "trialdata": {"rt": -1000, "trial_type": "single-audio", "stimulus": "/static/audio/400Hz.wav", "internal_node_id": "0.0-31.0", "time_elapsed": 211104, "key_press": -1, "type": "PRE_RECALL_ALERT", "trial_index": 40}, "uniqueid": "MTK2500:3PMBY0YE28A66Q45LABHK7NZJBN9CX", "dateTime": 1517861627750}, {"current_trial": 41, "trialdata": {"rt": [9420, 14133, 17636, 20813, 22549, 25460, 29660], "recwords": ["mommy", "napsack", "wrench", "cousin", "child", "agent", "shark"], "key_times": [5413, 5740, 5980, 6804, 7316, 8116, 8484, 9420, 10245, 10396, 10884, 11420, 11828, 12077, 12533, 14133, 15997, 16493, 16684, 16837, 17148, 17268, 17636, 19069, 19260, 19765, 19940, 20117, 20357, 20813, 21221, 21404, 21660, 21908, 22164, 22549, 23053, 23509, 23957, 24109, 24253, 25460, 28493, 28653, 28780, 29005, 29204, 29660], "trial_type": "free-recall", "conditions": [18, 1200, "a", 18000], "internal_node_id": "0.0-32.0-0.0", "key_presses": [77, 79, 79, 8, 77, 77, 89, 13, 78, 65, 80, 83, 65, 67, 75, 32, 87, 82, 69, 78, 67, 72, 13, 67, 79, 85, 83, 73, 78, 32, 67, 72, 73, 76, 68, 32, 65, 71, 69, 78, 84, 13, 83, 72, 65, 82, 75, 13], "trial": 0, "time_elapsed": 271106, "type": "FREE_RECALL", "trial_index": 41}, "uniqueid": "MTK2500:3PMBY0YE28A66Q45LABHK7NZJBN9CX", "dateTime": 1517861687753}, {"current_trial": 42, "trialdata": {"rt": 2825, "trial_type": "text", "internal_node_id": "0.0-33.0", "time_elapsed": 275933, "key_press": 32, "type": "INSTRUCTIONS", "trial_index": 42}, "uniqueid": "MTK2500:3PMBY0YE28A66Q45LABHK7NZJBN9CX", "dateTime": 1517861692579}, {"current_trial": 43, "trialdata": {"rt": [5358, 9814, 14134, 16886], "trial_type": "math-distractor", "key_times": [4862, 5054, 5358, 9110, 9390, 9814, 13622, 13870, 14134, 16366, 16550, 16886], "responses": ["20", "17", "16", "12"], "num2": [9, 6, 7, 2, 8], "num3": [8, 9, 8, 3, 7], "conditions": [18, 1200, "a", 18000], "internal_node_id": "0.0-34.0", "key_presses": [98, 96, 13, 97, 103, 13, 97, 102, 13, 97, 98, 13], "trial": 1, "time_elapsed": 295936, "type": "DISTRACTOR", "trial_index": 43, "num1": [3, 2, 1, 7, 6]}, "uniqueid": "MTK2500:3PMBY0YE28A66Q45LABHK7NZJBN9CX", "dateTime": 1517861712582}, {"current_trial": 44, "trialdata": {"rt": -1, "trial_type": "single-stim", "stimulus": "<p id=\"stim\">10</p>", "internal_node_id": "0.0-35.0-0.0", "time_elapsed": 298938, "key_press": -1, "trial_index": 44}, "uniqueid": "MTK2500:3PMBY0YE28A66Q45LABHK7NZJBN9CX", "dateTime": 1517861715584}, {"current_trial": 45, "trialdata": {"rt": -1, "trial_type": "single-stim", "stimulus": "<p id=\"stim\">9</p>", "internal_node_id": "0.0-35.0-1.0", "time_elapsed": 299939, "key_press": -1, "trial_index": 45}, "uniqueid": "MTK2500:3PMBY0YE28A66Q45LABHK7NZJBN9CX", "dateTime": 1517861716585}, {"current_trial": 46, "trialdata": {"rt": -1, "trial_type": "single-stim", "stimulus": "<p id=\"stim\">8</p>", "internal_node_id": "0.0-35.0-2.0", "time_elapsed": 300940, "key_press": -1, "trial_index": 46}, "uniqueid": "MTK2500:3PMBY0YE28A66Q45LABHK7NZJBN9CX", "dateTime": 1517861717586}, {"current_trial": 47, "trialdata": {"rt": -1, "trial_type": "single-stim", "stimulus": "<p id=\"stim\">7</p>", "internal_node_id": "0.0-35.0-3.0", "time_elapsed": 301941, "key_press": -1, "trial_index": 47}, "uniqueid": "MTK2500:3PMBY0YE28A66Q45LABHK7NZJBN9CX", "dateTime": 1517861718587}, {"current_trial": 48, "trialdata": {"rt": -1, "trial_type": "single-stim", "stimulus": "<p id=\"stim\">6</p>", "internal_node_id": "0.0-35.0-4.0", "time_elapsed": 302942, "key_press": -1, "trial_index": 48}, "uniqueid": "MTK2500:3PMBY0YE28A66Q45LABHK7NZJBN9CX", "dateTime": 1517861719588}, {"current_trial": 49, "trialdata": {"rt": -1, "trial_type": "single-stim", "stimulus": "<p id=\"stim\">5</p>", "internal_node_id": "0.0-35.0-5.0", "time_elapsed": 303943, "key_press": -1, "trial_index": 49}, "uniqueid": "MTK2500:3PMBY0YE28A66Q45LABHK7NZJBN9CX", "dateTime": 1517861720589}, {"current_trial": 50, "trialdata": {"rt": -1, "trial_type": "single-stim", "stimulus": "<p id=\"stim\">4</p>", "internal_node_id": "0.0-35.0-6.0", "time_elapsed": 304944, "key_press": -1, "trial_index": 50}, "uniqueid": "MTK2500:3PMBY0YE28A66Q45LABHK7NZJBN9CX", "dateTime": 1517861721590}, {"current_trial": 51, "trialdata": {"rt": -1, "trial_type": "single-stim", "stimulus": "<p id=\"stim\">3</p>", "internal_node_id": "0.0-35.0-7.0", "time_elapsed": 305946, "key_press": -1, "trial_index": 51}, "uniqueid": "MTK2500:3PMBY0YE28A66Q45LABHK7NZJBN9CX", "dateTime": 1517861722592}, {"current_trial": 52, "trialdata": {"rt": -1, "trial_type": "single-stim", "stimulus": "<p id=\"stim\">2</p>", "internal_node_id": "0.0-35.0-8.0", "time_elapsed": 306947, "key_press": -1, "trial_index": 52}, "uniqueid": "MTK2500:3PMBY0YE28A66Q45LABHK7NZJBN9CX", "dateTime": 1517861723593}, {"current_trial": 53, "trialdata": {"rt": -1, "trial_type": "single-stim", "stimulus": "<p id=\"stim\">1</p>", "internal_node_id": "0.0-35.0-9.0", "time_elapsed": 307948, "key_press": -1, "trial_index": 53}, "uniqueid": "MTK2500:3PMBY0YE28A66Q45LABHK7NZJBN9CX", "dateTime": 1517861724594}, {"current_trial": 54, "trialdata": {"rt": -1, "trial_type": "single-stim", "stimulus": "<p id=\"stim\">+</p>", "internal_node_id": "0.0-36.0-0.0", "time_elapsed": 309449, "key_press": -1, "type": "FIXATION", "trial_index": 54}, "uniqueid": "MTK2500:3PMBY0YE28A66Q45LABHK7NZJBN9CX", "dateTime": 1517861726095}, {"current_trial": 55, "trialdata": {"rt": -1000, "trial_type": "single-audio", "word": "canal", "stimulus": "/static/audio/wordpool/CANAL.wav", "conditions": [18, 1200, "a", 18000], "internal_node_id": "0.0-37.0", "trial": 1, "time_elapsed": 311537, "serialpos": 0, "key_press": -1, "wordID": 225, "type": "PRES_AUD", "trial_index": 55}, "uniqueid": "MTK2500:3PMBY0YE28A66Q45LABHK7NZJBN9CX", "dateTime": 1517861728183}, {"current_trial": 56, "trialdata": {"rt": -1000, "trial_type": "single-audio", "word": "barrel", "stimulus": "/static/audio/wordpool/BARREL.wav", "conditions": [18, 1200, "a", 18000], "internal_node_id": "0.0-38.0", "trial": 1, "time_elapsed": 313805, "serialpos": 1, "key_press": -1, "wordID": 90, "type": "PRES_AUD", "trial_index": 56}, "uniqueid": "MTK2500:3PMBY0YE28A66Q45LABHK7NZJBN9CX", "dateTime": 1517861730451}, {"current_trial": 57, "trialdata": {"rt": -1000, "trial_type": "single-audio", "word": "market", "stimulus": "/static/audio/wordpool/MARKET.wav", "conditions": [18, 1200, "a", 18000], "internal_node_id": "0.0-39.0", "trial": 1, "time_elapsed": 316142, "serialpos": 2, "key_press": -1, "wordID": 870, "type": "PRES_AUD", "trial_index": 57}, "uniqueid": "MTK2500:3PMBY0YE28A66Q45LABHK7NZJBN9CX", "dateTime": 1517861732788}, {"current_trial": 58, "trialdata": {"rt": -1000, "trial_type": "single-audio", "word": "nurse", "stimulus": "/static/audio/wordpool/NURSE.wav", "conditions": [18, 1200, "a", 18000], "internal_node_id": "0.0-40.0", "trial": 1, "time_elapsed": 318344, "serialpos": 3, "key_press": -1, "wordID": 962, "type": "PRES_AUD", "trial_index": 58}, "uniqueid": "MTK2500:3PMBY0YE28A66Q45LABHK7NZJBN9CX", "dateTime": 1517861734990}, {"current_trial": 59, "trialdata": {"rt": -1000, "trial_type": "single-audio", "word": "worker", "stimulus": "/static/audio/wordpool/WORKER.wav", "conditions": [18, 1200, "a", 18000], "internal_node_id": "0.0-41.0", "trial": 1, "time_elapsed": 320388, "serialpos": 4, "key_press": -1, "wordID": 1620, "type": "PRES_AUD", "trial_index": 59}, "uniqueid": "MTK2500:3PMBY0YE28A66Q45LABHK7NZJBN9CX", "dateTime": 1517861737034}, {"current_trial": 60, "trialdata": {"rt": -1000, "trial_type": "single-audio", "word": "glove", "stimulus": "/static/audio/wordpool/GLOVE.wav", "conditions": [18, 1200, "a", 18000], "internal_node_id": "0.0-42.0", "trial": 1, "time_elapsed": 322449, "serialpos": 5, "key_press": -1, "wordID": 641, "type": "PRES_AUD", "trial_index": 60}, "uniqueid": "MTK2500:3PMBY0YE28A66Q45LABHK7NZJBN9CX", "dateTime": 1517861739095}, {"current_trial": 61, "trialdata": {"rt": -1000, "trial_type": "single-audio", "word": "marrow", "stimulus": "/static/audio/wordpool/MARROW.wav", "conditions": [18, 1200, "a", 18000], "internal_node_id": "0.0-43.0", "trial": 1, "time_elapsed": 324545, "serialpos": 6, "key_press": -1, "wordID": 871, "type": "PRES_AUD", "trial_index": 61}, "uniqueid": "MTK2500:3PMBY0YE28A66Q45LABHK7NZJBN9CX", "dateTime": 1517861741191}, {"current_trial": 62, "trialdata": {"rt": -1000, "trial_type": "single-audio", "word": "server", "stimulus": "/static/audio/wordpool/SERVER.wav", "conditions": [18, 1200, "a", 18000], "internal_node_id": "0.0-44.0", "trial": 1, "time_elapsed": 326740, "serialpos": 7, "key_press": -1, "wordID": 1271, "type": "PRES_AUD", "trial_index": 62}, "uniqueid": "MTK2500:3PMBY0YE28A66Q45LABHK7NZJBN9CX", "dateTime": 1517861743386}, {"current_trial": 63, "trialdata": {"rt": -1000, "trial_type": "single-audio", "word": "climber", "stimulus": "/static/audio/wordpool/CLIMBER.wav", "conditions": [18, 1200, "a", 18000], "internal_node_id": "0.0-45.0", "trial": 1, "time_elapsed": 329054, "serialpos": 8, "key_press": -1, "wordID": 322, "type": "PRES_AUD", "trial_index": 63}, "uniqueid": "MTK2500:3PMBY0YE28A66Q45LABHK7NZJBN9CX", "dateTime": 1517861745700}, {"current_trial": 64, "trialdata": {"rt": -1000, "trial_type": "single-audio", "word": "beaker", "stimulus": "/static/audio/wordpool/BEAKER.wav", "conditions": [18, 1200, "a", 18000], "internal_node_id": "0.0-46.0", "trial": 1, "time_elapsed": 331441, "serialpos": 9, "key_press": -1, "wordID": 103, "type": "PRES_AUD", "trial_index": 64}, "uniqueid": "MTK2500:3PMBY0YE28A66Q45LABHK7NZJBN9CX", "dateTime": 1517861748088}, {"current_trial": 65, "trialdata": {"rt": -1000, "trial_type": "single-audio", "word": "office", "stimulus": "/static/audio/wordpool/OFFICE.wav", "conditions": [18, 1200, "a", 18000], "internal_node_id": "0.0-47.0", "trial": 1, "time_elapsed": 333541, "serialpos": 10, "key_press": -1, "wordID": 971, "type": "PRES_AUD", "trial_index": 65}, "uniqueid": "MTK2500:3PMBY0YE28A66Q45LABHK7NZJBN9CX", "dateTime": 1517861750187}, {"current_trial": 66, "trialdata": {"rt": -1000, "trial_type": "single-audio", "word": "dress", "stimulus": "/static/audio/wordpool/DRESS.wav", "conditions": [18, 1200, "a", 18000], "internal_node_id": "0.0-48.0", "trial": 1, "time_elapsed": 335679, "serialpos": 11, "key_press": -1, "wordID": 494, "type": "PRES_AUD", "trial_index": 66}, "uniqueid": "MTK2500:3PMBY0YE28A66Q45LABHK7NZJBN9CX", "dateTime": 1517861752325}, {"current_trial": 67, "trialdata": {"rt": -1000, "trial_type": "single-audio", "word": "bike", "stimulus": "/static/audio/wordpool/BIKE.wav", "conditions": [18, 1200, "a", 18000], "internal_node_id": "0.0-49.0", "trial": 1, "time_elapsed": 337949, "serialpos": 12, "key_press": -1, "wordID": 124, "type": "PRES_AUD", "trial_index": 67}, "uniqueid": "MTK2500:3PMBY0YE28A66Q45LABHK7NZJBN9CX", "dateTime": 1517861754595}, {"current_trial": 68, "trialdata": {"rt": -1000, "trial_type": "single-audio", "word": "rabbit", "stimulus": "/static/audio/wordpool/RABBIT.wav", "conditions": [18, 1200, "a", 18000], "internal_node_id": "0.0-50.0", "trial": 1, "time_elapsed": 339978, "serialpos": 13, "key_press": -1, "wordID": 1151, "type": "PRES_AUD", "trial_index": 68}, "uniqueid": "MTK2500:3PMBY0YE28A66Q45LABHK7NZJBN9CX", "dateTime": 1517861756627}, {"current_trial": 69, "trialdata": {"rt": -1000, "trial_type": "single-audio", "word": "wagon", "stimulus": "/static/audio/wordpool/WAGON.wav", "conditions": [18, 1200, "a", 18000], "internal_node_id": "0.0-51.0", "trial": 1, "time_elapsed": 342028, "serialpos": 14, "key_press": -1, "wordID": 1577, "type": "PRES_AUD", "trial_index": 69}, "uniqueid": "MTK2500:3PMBY0YE28A66Q45LABHK7NZJBN9CX", "dateTime": 1517861758675}, {"current_trial": 70, "trialdata": {"rt": -1000, "trial_type": "single-audio", "word": "compass", "stimulus": "/static/audio/wordpool/COMPASS.wav", "conditions": [18, 1200, "a", 18000], "internal_node_id": "0.0-52.0", "trial": 1, "time_elapsed": 344374, "serialpos": 15, "key_press": -1, "wordID": 357, "type": "PRES_AUD", "trial_index": 70}, "uniqueid": "MTK2500:3PMBY0YE28A66Q45LABHK7NZJBN9CX", "dateTime": 1517861761020}, {"current_trial": 71, "trialdata": {"rt": -1000, "trial_type": "single-audio", "word": "arm", "stimulus": "/static/audio/wordpool/ARM.wav", "conditions": [18, 1200, "a", 18000], "internal_node_id": "0.0-53.0", "trial": 1, "time_elapsed": 346764, "serialpos": 16, "key_press": -1, "wordID": 37, "type": "PRES_AUD", "trial_index": 71}, "uniqueid": "MTK2500:3PMBY0YE28A66Q45LABHK7NZJBN9CX", "dateTime": 1517861763411}, {"current_trial": 72, "trialdata": {"rt": -1000, "trial_type": "single-audio", "word": "bureau", "stimulus": "/static/audio/wordpool/BUREAU.wav", "conditions": [18, 1200, "a", 18000], "internal_node_id": "0.0-54.0", "trial": 1, "time_elapsed": 348779, "serialpos": 17, "key_press": -1, "wordID": 198, "type": "PRES_AUD", "trial_index": 72}, "uniqueid": "MTK2500:3PMBY0YE28A66Q45LABHK7NZJBN9CX", "dateTime": 1517861765425}, {"current_trial": 73, "trialdata": {"rt": -1, "trial_type": "single-stim", "stimulus": "", "internal_node_id": "0.0-55.0-0.0", "time_elapsed": 350116, "key_press": -1, "type": "PRE_RECALL_DELAY", "trial_index": 73}, "uniqueid": "MTK2500:3PMBY0YE28A66Q45LABHK7NZJBN9CX", "dateTime": 1517861766762}, {"current_trial": 74, "trialdata": {"rt": -1000, "trial_type": "single-audio", "stimulus": "/static/audio/400Hz.wav", "internal_node_id": "0.0-56.0", "time_elapsed": 350617, "key_press": -1, "type": "PRE_RECALL_ALERT", "trial_index": 74}, "uniqueid": "MTK2500:3PMBY0YE28A66Q45LABHK7NZJBN9CX", "dateTime": 1517861767263}, {"current_trial": 75, "trialdata": {"rt": [8931, 10755, 13475, 17667, 19891, 23084, 30635, 34931, 39612, 44139, 46859, 50403, 52068, 55291, 58195], "recwords": ["conail", "barral", "market", "nurse", "worker", "glove", "marral", "server", "climber", "beaker", "office", "dress", "wagon", "compass", "arm"], "key_times": [5612, 5899, 6171, 6716, 6923, 7124, 8931, 9444, 9603, 9843, 10003, 10195, 10347, 10755, 12059, 12203, 12395, 12651, 12771, 12995, 13475, 15019, 15339, 15563, 15860, 16531, 17667, 18323, 18499, 18715, 18875, 19067, 19251, 19891, 21251, 21403, 21651, 22060, 22235, 23084, 23883, 24091, 24403, 24563, 25715, 25923, 27547, 27787, 28651, 29491, 30635, 33211, 33404, 33587, 33884, 34043, 34203, 34931, 35948, 36307, 36675, 37636, 37755, 38627, 38868, 39612, 43044, 43187, 43363, 43635, 43699, 43907, 44139, 45668, 45939, 46107, 46291, 46556, 46691, 46859, 48691, 48995, 49212, 49980, 50188, 50403, 50739, 50932, 51180, 51500, 51732, 52068, 53444, 53940, 54203, 54411, 54580, 54820, 55020, 55291, 56628, 57012, 57411, 58195, 58755, 59116, 59979], "trial_type": "free-recall", "conditions": [18, 1200, "a", 18000], "internal_node_id": "0.0-57.0-0.0", "key_presses": [67, 79, 78, 65, 73, 76, 32, 66, 65, 82, 82, 65, 76, 32, 77, 65, 82, 75, 69, 84, 32, 78, 85, 82, 83, 69, 32, 87, 79, 82, 75, 69, 82, 32, 71, 76, 79, 86, 69, 32, 77, 65, 82, 82, 79, 76, 8, 8, 65, 76, 32, 83, 69, 82, 86, 69, 82, 32, 67, 76, 73, 77, 66, 69, 82, 32, 66, 69, 65, 75, 69, 82, 32, 79, 70, 70, 73, 67, 69, 32, 68, 82, 69, 83, 83, 32, 87, 65, 71, 79, 78, 32, 67, 79, 77, 80, 65, 83, 83, 32, 65, 82, 77, 32, 66, 69, 82], "trial": 1, "time_elapsed": 410619, "type": "FREE_RECALL", "trial_index": 75}, "uniqueid": "MTK2500:3PMBY0YE28A66Q45LABHK7NZJBN9CX", "dateTime": 1517861827267}, {"current_trial": 76, "trialdata": {"rt": 14088, "trial_type": "text", "internal_node_id": "0.0-58.0", "time_elapsed": 426711, "key_press": 32, "type": "INSTRUCTIONS", "trial_index": 76}, "uniqueid": "MTK2500:3PMBY0YE28A66Q45LABHK7NZJBN9CX", "dateTime": 1517861843357}, {"current_trial": 77, "trialdata": {"rt": [4437, 7941, 9949, 14629, 18301, 21005], "trial_type": "math-distractor", "key_times": [2926, 3237, 4437, 7326, 7645, 7941, 9414, 9606, 9949, 13941, 14222, 14629, 17813, 18014, 18301, 20375, 20566, 21005], "responses": ["16", "17", "12", "13", "14", "12"], "num2": [7, 6, 2, 2, 3, 2, 6], "num3": [8, 7, 1, 7, 3, 7, 6], "conditions": [24, 1600, "a", 24000], "internal_node_id": "0.0-59.0", "key_presses": [97, 102, 13, 97, 103, 13, 97, 98, 13, 97, 99, 13, 97, 100, 13, 97, 98, 13], "trial": 2, "time_elapsed": 451714, "type": "DISTRACTOR", "trial_index": 77, "num1": [1, 4, 9, 4, 8, 3, 9]}, "uniqueid": "MTK2500:3PMBY0YE28A66Q45LABHK7NZJBN9CX", "dateTime": 1517861868360}, {"current_trial": 78, "trialdata": {"rt": -1, "trial_type": "single-stim", "stimulus": "<p id=\"stim\">10</p>", "internal_node_id": "0.0-60.0-0.0", "time_elapsed": 454716, "key_press": -1, "trial_index": 78}, "uniqueid": "MTK2500:3PMBY0YE28A66Q45LABHK7NZJBN9CX", "dateTime": 1517861871362}, {"current_trial": 79, "trialdata": {"rt": -1, "trial_type": "single-stim", "stimulus": "<p id=\"stim\">9</p>", "internal_node_id": "0.0-60.0-1.0", "time_elapsed": 455717, "key_press": -1, "trial_index": 79}, "uniqueid": "MTK2500:3PMBY0YE28A66Q45LABHK7NZJBN9CX", "dateTime": 1517861872363}, {"current_trial": 80, "trialdata": {"rt": -1, "trial_type": "single-stim", "stimulus": "<p id=\"stim\">8</p>", "internal_node_id": "0.0-60.0-2.0", "time_elapsed": 456718, "key_press": -1, "trial_index": 80}, "uniqueid": "MTK2500:3PMBY0YE28A66Q45LABHK7NZJBN9CX", "dateTime": 1517861873364}, {"current_trial": 81, "trialdata": {"rt": -1, "trial_type": "single-stim", "stimulus": "<p id=\"stim\">7</p>", "internal_node_id": "0.0-60.0-3.0", "time_elapsed": 457719, "key_press": -1, "trial_index": 81}, "uniqueid": "MTK2500:3PMBY0YE28A66Q45LABHK7NZJBN9CX", "dateTime": 1517861874365}, {"current_trial": 82, "trialdata": {"rt": -1, "trial_type": "single-stim", "stimulus": "<p id=\"stim\">6</p>", "internal_node_id": "0.0-60.0-4.0", "time_elapsed": 458720, "key_press": -1, "trial_index": 82}, "uniqueid": "MTK2500:3PMBY0YE28A66Q45LABHK7NZJBN9CX", "dateTime": 1517861875366}, {"current_trial": 83, "trialdata": {"rt": -1, "trial_type": "single-stim", "stimulus": "<p id=\"stim\">5</p>", "internal_node_id": "0.0-60.0-5.0", "time_elapsed": 459721, "key_press": -1, "trial_index": 83}, "uniqueid": "MTK2500:3PMBY0YE28A66Q45LABHK7NZJBN9CX", "dateTime": 1517861876367}, {"current_trial": 84, "trialdata": {"rt": -1, "trial_type": "single-stim", "stimulus": "<p id=\"stim\">4</p>", "internal_node_id": "0.0-60.0-6.0", "time_elapsed": 460722, "key_press": -1, "trial_index": 84}, "uniqueid": "MTK2500:3PMBY0YE28A66Q45LABHK7NZJBN9CX", "dateTime": 1517861877368}, {"current_trial": 85, "trialdata": {"rt": -1, "trial_type": "single-stim", "stimulus": "<p id=\"stim\">3</p>", "internal_node_id": "0.0-60.0-7.0", "time_elapsed": 461723, "key_press": -1, "trial_index": 85}, "uniqueid": "MTK2500:3PMBY0YE28A66Q45LABHK7NZJBN9CX", "dateTime": 1517861878369}, {"current_trial": 86, "trialdata": {"rt": -1, "trial_type": "single-stim", "stimulus": "<p id=\"stim\">2</p>", "internal_node_id": "0.0-60.0-8.0", "time_elapsed": 462724, "key_press": -1, "trial_index": 86}, "uniqueid": "MTK2500:3PMBY0YE28A66Q45LABHK7NZJBN9CX", "dateTime": 1517861879370}, {"current_trial": 87, "trialdata": {"rt": -1, "trial_type": "single-stim", "stimulus": "<p id=\"stim\">1</p>", "internal_node_id": "0.0-60.0-9.0", "time_elapsed": 463726, "key_press": -1, "trial_index": 87}, "uniqueid": "MTK2500:3PMBY0YE28A66Q45LABHK7NZJBN9CX", "dateTime": 1517861880372}, {"current_trial": 88, "trialdata": {"rt": -1, "trial_type": "single-stim", "stimulus": "<p id=\"stim\">+</p>", "internal_node_id": "0.0-61.0-0.0", "time_elapsed": 465226, "key_press": -1, "type": "FIXATION", "trial_index": 88}, "uniqueid": "MTK2500:3PMBY0YE28A66Q45LABHK7NZJBN9CX", "dateTime": 1517861881872}, {"current_trial": 89, "trialdata": {"rt": -1000, "trial_type": "single-audio", "word": "crater", "stimulus": "/static/audio/wordpool/CRATER.wav", "conditions": [24, 1600, "a", 24000], "internal_node_id": "0.0-62.0", "trial": 2, "time_elapsed": 467667, "serialpos": 0, "key_press": -1, "wordID": 399, "type": "PRES_AUD", "trial_index": 89}, "uniqueid": "MTK2500:3PMBY0YE28A66Q45LABHK7NZJBN9CX", "dateTime": 1517861884313}, {"current_trial": 90, "trialdata": {"rt": -1000, "trial_type": "single-audio", "word": "stream", "stimulus": "/static/audio/wordpool/STREAM.wav", "conditions": [24, 1600, "a", 24000], "internal_node_id": "0.0-63.0", "trial": 2, "time_elapsed": 470452, "serialpos": 1, "key_press": -1, "wordID": 1391, "type": "PRES_AUD", "trial_index": 90}, "uniqueid": "MTK2500:3PMBY0YE28A66Q45LABHK7NZJBN9CX", "dateTime": 1517861887098}, {"current_trial": 91, "trialdata": {"rt": -1000, "trial_type": "single-audio", "word": "brandy", "stimulus": "/static/audio/wordpool/BRANDY.wav", "conditions": [24, 1600, "a", 24000], "internal_node_id": "0.0-64.0", "trial": 2, "time_elapsed": 472876, "serialpos": 2, "key_press": -1, "wordID": 168, "type": "PRES_AUD", "trial_index": 91}, "uniqueid": "MTK2500:3PMBY0YE28A66Q45LABHK7NZJBN9CX", "dateTime": 1517861889522}, {"current_trial": 92, "trialdata": {"rt": -1000, "trial_type": "single-audio", "word": "jello", "stimulus": "/static/audio/wordpool/JELLO.wav", "conditions": [24, 1600, "a", 24000], "internal_node_id": "0.0-65.0", "trial": 2, "time_elapsed": 475480, "serialpos": 3, "key_press": -1, "wordID": 753, "type": "PRES_AUD", "trial_index": 92}, "uniqueid": "MTK2500:3PMBY0YE28A66Q45LABHK7NZJBN9CX", "dateTime": 1517861892126}, {"current_trial": 93, "trialdata": {"rt": -1000, "trial_type": "single-audio", "word": "crib", "stimulus": "/static/audio/wordpool/CRIB.wav", "conditions": [24, 1600, "a", 24000], "internal_node_id": "0.0-66.0", "trial": 2, "time_elapsed": 478097, "serialpos": 4, "key_press": -1, "wordID": 406, "type": "PRES_AUD", "trial_index": 93}, "uniqueid": "MTK2500:3PMBY0YE28A66Q45LABHK7NZJBN9CX", "dateTime": 1517861894743}, {"current_trial": 94, "trialdata": {"rt": -1000, "trial_type": "single-audio", "word": "body", "stimulus": "/static/audio/wordpool/BODY.wav", "conditions": [24, 1600, "a", 24000], "internal_node_id": "0.0-67.0", "trial": 2, "time_elapsed": 480786, "serialpos": 5, "key_press": -1, "wordID": 144, "type": "PRES_AUD", "trial_index": 94}, "uniqueid": "MTK2500:3PMBY0YE28A66Q45LABHK7NZJBN9CX", "dateTime": 1517861897432}, {"current_trial": 95, "trialdata": {"rt": -1000, "trial_type": "single-audio", "word": "twister", "stimulus": "/static/audio/wordpool/TWISTER.wav", "conditions": [24, 1600, "a", 24000], "internal_node_id": "0.0-68.0", "trial": 2, "time_elapsed": 483293, "serialpos": 6, "key_press": -1, "wordID": 1529, "type": "PRES_AUD", "trial_index": 95}, "uniqueid": "MTK2500:3PMBY0YE28A66Q45LABHK7NZJBN9CX", "dateTime": 1517861899939}, {"current_trial": 96, "trialdata": {"rt": -1000, "trial_type": "single-audio", "word": "lava", "stimulus": "/static/audio/wordpool/LAVA.wav", "conditions": [24, 1600, "a", 24000], "internal_node_id": "0.0-69.0", "trial": 2, "time_elapsed": 486006, "serialpos": 7, "key_press": -1, "wordID": 803, "type": "PRES_AUD", "trial_index": 96}, "uniqueid": "MTK2500:3PMBY0YE28A66Q45LABHK7NZJBN9CX", "dateTime": 1517861902652}, {"current_trial": 97, "trialdata": {"rt": -1000, "trial_type": "single-audio", "word": "mailbox", "stimulus": "/static/audio/wordpool/MAILBOX.wav", "conditions": [24, 1600, "a", 24000], "internal_node_id": "0.0-70.0", "trial": 2, "time_elapsed": 488443, "serialpos": 8, "key_press": -1, "wordID": 856, "type": "PRES_AUD", "trial_index": 97}, "uniqueid": "MTK2500:3PMBY0YE28A66Q45LABHK7NZJBN9CX", "dateTime": 1517861905089}, {"current_trial": 98, "trialdata": {"rt": -1000, "trial_type": "single-audio", "word": "scarf", "stimulus": "/static/audio/wordpool/SCARF.wav", "conditions": [24, 1600, "a", 24000], "internal_node_id": "0.0-71.0", "trial": 2, "time_elapsed": 491226, "serialpos": 9, "key_press": -1, "wordID": 1245, "type": "PRES_AUD", "trial_index": 98}, "uniqueid": "MTK2500:3PMBY0YE28A66Q45LABHK7NZJBN9CX", "dateTime": 1517861907872}, {"current_trial": 99, "trialdata": {"rt": -1000, "trial_type": "single-audio", "word": "shirt", "stimulus": "/static/audio/wordpool/SHIRT.wav", "conditions": [24, 1600, "a", 24000], "internal_node_id": "0.0-72.0", "trial": 2, "time_elapsed": 493963, "serialpos": 10, "key_press": -1, "wordID": 1286, "type": "PRES_AUD", "trial_index": 99}, "uniqueid": "MTK2500:3PMBY0YE28A66Q45LABHK7NZJBN9CX", "dateTime": 1517861910609}, {"current_trial": 100, "trialdata": {"rt": -1000, "trial_type": "single-audio", "word": "pebble", "stimulus": "/static/audio/wordpool/PEBBLE.wav", "conditions": [24, 1600, "a", 24000], "internal_node_id": "0.0-73.0", "trial": 2, "time_elapsed": 496534, "serialpos": 11, "key_press": -1, "wordID": 1034, "type": "PRES_AUD", "trial_index": 100}, "uniqueid": "MTK2500:3PMBY0YE28A66Q45LABHK7NZJBN9CX", "dateTime": 1517861913180}, {"current_trial": 101, "trialdata": {"rt": -1000, "trial_type": "single-audio", "word": "motel", "stimulus": "/static/audio/wordpool/MOTEL.wav", "conditions": [24, 1600, "a", 24000], "internal_node_id": "0.0-74.0", "trial": 2, "time_elapsed": 498980, "serialpos": 12, "key_press": -1, "wordID": 918, "type": "PRES_AUD", "trial_index": 101}, "uniqueid": "MTK2500:3PMBY0YE28A66Q45LABHK7NZJBN9CX", "dateTime": 1517861915626}, {"current_trial": 102, "trialdata": {"rt": -1000, "trial_type": "single-audio", "word": "panther", "stimulus": "/static/audio/wordpool/PANTHER.wav", "conditions": [24, 1600, "a", 24000], "internal_node_id": "0.0-75.0", "trial": 2, "time_elapsed": 501406, "serialpos": 13, "key_press": -1, "wordID": 1008, "type": "PRES_AUD", "trial_index": 102}, "uniqueid": "MTK2500:3PMBY0YE28A66Q45LABHK7NZJBN9CX", "dateTime": 1517861918053}, {"current_trial": 103, "trialdata": {"rt": -1000, "trial_type": "single-audio", "word": "spider", "stimulus": "/static/audio/wordpool/SPIDER.wav", "conditions": [24, 1600, "a", 24000], "internal_node_id": "0.0-76.0", "trial": 2, "time_elapsed": 504023, "serialpos": 14, "key_press": -1, "wordID": 1350, "type": "PRES_AUD", "trial_index": 103}, "uniqueid": "MTK2500:3PMBY0YE28A66Q45LABHK7NZJBN9CX", "dateTime": 1517861920669}, {"current_trial": 104, "trialdata": {"rt": -1000, "trial_type": "single-audio", "word": "cookbook", "stimulus": "/static/audio/wordpool/COOKBOOK.wav", "conditions": [24, 1600, "a", 24000], "internal_node_id": "0.0-77.0", "trial": 2, "time_elapsed": 506425, "serialpos": 15, "key_press": -1, "wordID": 372, "type": "PRES_AUD", "trial_index": 104}, "uniqueid": "MTK2500:3PMBY0YE28A66Q45LABHK7NZJBN9CX", "dateTime": 1517861923071}, {"current_trial": 105, "trialdata": {"rt": -1000, "trial_type": "single-audio", "word": "lettuce", "stimulus": "/static/audio/wordpool/LETTUCE.wav", "conditions": [24, 1600, "a", 24000], "internal_node_id": "0.0-78.0", "trial": 2, "time_elapsed": 509028, "serialpos": 16, "key_press": -1, "wordID": 813, "type": "PRES_AUD", "trial_index": 105}, "uniqueid": "MTK2500:3PMBY0YE28A66Q45LABHK7NZJBN9CX", "dateTime": 1517861925674}, {"current_trial": 106, "trialdata": {"rt": -1000, "trial_type": "single-audio", "word": "onion", "stimulus": "/static/audio/wordpool/ONION.wav", "conditions": [24, 1600, "a", 24000], "internal_node_id": "0.0-79.0", "trial": 2, "time_elapsed": 511528, "serialpos": 17, "key_press": -1, "wordID": 976, "type": "PRES_AUD", "trial_index": 106}, "uniqueid": "MTK2500:3PMBY0YE28A66Q45LABHK7NZJBN9CX", "dateTime": 1517861928174}, {"current_trial": 107, "trialdata": {"rt": -1000, "trial_type": "single-audio", "word": "finger", "stimulus": "/static/audio/wordpool/FINGER.wav", "conditions": [24, 1600, "a", 24000], "internal_node_id": "0.0-80.0", "trial": 2, "time_elapsed": 514140, "serialpos": 18, "key_press": -1, "wordID": 566, "type": "PRES_AUD", "trial_index": 107}, "uniqueid": "MTK2500:3PMBY0YE28A66Q45LABHK7NZJBN9CX", "dateTime": 1517861930786}, {"current_trial": 108, "trialdata": {"rt": -1000, "trial_type": "single-audio", "word": "gymnast", "stimulus": "/static/audio/wordpool/GYMNAST.wav", "conditions": [24, 1600, "a", 24000], "internal_node_id": "0.0-81.0", "trial": 2, "time_elapsed": 516706, "serialpos": 19, "key_press": -1, "wordID": 674, "type": "PRES_AUD", "trial_index": 108}, "uniqueid": "MTK2500:3PMBY0YE28A66Q45LABHK7NZJBN9CX", "dateTime": 1517861933352}, {"current_trial": 109, "trialdata": {"rt": -1000, "trial_type": "single-audio", "word": "fox", "stimulus": "/static/audio/wordpool/FOX.wav", "conditions": [24, 1600, "a", 24000], "internal_node_id": "0.0-82.0", "trial": 2, "time_elapsed": 519475, "serialpos": 20, "key_press": -1, "wordID": 597, "type": "PRES_AUD", "trial_index": 109}, "uniqueid": "MTK2500:3PMBY0YE28A66Q45LABHK7NZJBN9CX", "dateTime": 1517861936122}, {"current_trial": 110, "trialdata": {"rt": -1000, "trial_type": "single-audio", "word": "eagle", "stimulus": "/static/audio/wordpool/EAGLE.wav", "conditions": [24, 1600, "a", 24000], "internal_node_id": "0.0-83.0", "trial": 2, "time_elapsed": 522242, "serialpos": 21, "key_press": -1, "wordID": 511, "type": "PRES_AUD", "trial_index": 110}, "uniqueid": "MTK2500:3PMBY0YE28A66Q45LABHK7NZJBN9CX", "dateTime": 1517861938888}, {"current_trial": 111, "trialdata": {"rt": -1000, "trial_type": "single-audio", "word": "wrist", "stimulus": "/static/audio/wordpool/WRIST.wav", "conditions": [24, 1600, "a", 24000], "internal_node_id": "0.0-84.0", "trial": 2, "time_elapsed": 524789, "serialpos": 22, "key_press": -1, "wordID": 1625, "type": "PRES_AUD", "trial_index": 111}, "uniqueid": "MTK2500:3PMBY0YE28A66Q45LABHK7NZJBN9CX", "dateTime": 1517861941435}, {"current_trial": 112, "trialdata": {"rt": -1000, "trial_type": "single-audio", "word": "county", "stimulus": "/static/audio/wordpool/COUNTY.wav", "conditions": [24, 1600, "a", 24000], "internal_node_id": "0.0-85.0", "trial": 2, "time_elapsed": 527426, "serialpos": 23, "key_press": -1, "wordID": 388, "type": "PRES_AUD", "trial_index": 112}, "uniqueid": "MTK2500:3PMBY0YE28A66Q45LABHK7NZJBN9CX", "dateTime": 1517861944072}, {"current_trial": 113, "trialdata": {"rt": -1, "trial_type": "single-stim", "stimulus": "", "internal_node_id": "0.0-86.0-0.0", "time_elapsed": 528652, "key_press": -1, "type": "PRE_RECALL_DELAY", "trial_index": 113}, "uniqueid": "MTK2500:3PMBY0YE28A66Q45LABHK7NZJBN9CX", "dateTime": 1517861945298}, {"current_trial": 114, "trialdata": {"rt": -1000, "trial_type": "single-audio", "stimulus": "/static/audio/400Hz.wav", "internal_node_id": "0.0-87.0", "time_elapsed": 529154, "key_press": -1, "type": "PRE_RECALL_ALERT", "trial_index": 114}, "uniqueid": "MTK2500:3PMBY0YE28A66Q45LABHK7NZJBN9CX", "dateTime": 1517861945800}, {"current_trial": 115, "trialdata": {"rt": [7147, 10123, 13411, 15491, 17299, 19611, 22803, 25875, 30083, 34179, 36891, 39507, 42507, 45043, 48475, 51507, 54075, 55827, 57747], "recwords": ["grater", "stream", "brandie", "jello", "crib", "body", "twister", "lava", "mailbox", "scarf", "shirt", "pebble", "motal", "panther", "spider", "cookbook", "lettuce", "onion", "finger"], "key_times": [4604, 4835, 5035, 5211, 5827, 6067, 7147, 8715, 8979, 9179, 9363, 9523, 9747, 10123, 11180, 11451, 11627, 11795, 12339, 12531, 12651, 13411, 14196, 14355, 14627, 14827, 15067, 15491, 16203, 16515, 16779, 17027, 17299, 18747, 18979, 19139, 19411, 19611, 21259, 21555, 21835, 21963, 22155, 22315, 22459, 22803, 24123, 24851, 25099, 25259, 25875, 26499, 26659, 26859, 27043, 27491, 28203, 28675, 28971, 29891, 30083, 32211, 32427, 32603, 33691, 33899, 34179, 35851, 36027, 36291, 36459, 36683, 36891, 37867, 38123, 38603, 38755, 39019, 39211, 39507, 40643, 40987, 41283, 41435, 41595, 42507, 43867, 44059, 44219, 44435, 44579, 44699, 44867, 45043, 47076, 47475, 47795, 47923, 48123, 48307, 48475, 49451, 49635, 49843, 50059, 50483, 50835, 51035, 51251, 51507, 52227, 52539, 52947, 53091, 53259, 53691, 53835, 54075, 54779, 54995, 55259, 55419, 55667, 55827, 56651, 56827, 57019, 57195, 57355, 57523, 57747, 59107, 59467], "trial_type": "free-recall", "conditions": [24, 1600, "a", 24000], "internal_node_id": "0.0-88.0-0.0", "key_presses": [71, 82, 65, 84, 69, 82, 32, 83, 84, 82, 69, 65, 77, 32, 66, 82, 65, 78, 68, 73, 69, 32, 74, 69, 76, 76, 79, 32, 67, 82, 73, 66, 32, 66, 79, 68, 89, 32, 84, 87, 73, 83, 84, 69, 82, 32, 76, 65, 86, 65, 32, 77, 65, 73, 76, 86, 8, 66, 79, 88, 32, 83, 67, 65, 82, 70, 32, 83, 72, 73, 82, 84, 32, 80, 69, 66, 66, 76, 69, 32, 77, 79, 84, 65, 76, 32, 80, 65, 78, 84, 72, 69, 82, 32, 83, 80, 73, 68, 69, 82, 32, 67, 79, 79, 75, 66, 79, 79, 75, 32, 76, 69, 84, 84, 85, 67, 69, 32, 79, 78, 73, 79, 78, 32, 70, 73, 78, 71, 69, 82, 32, 71, 89], "trial": 2, "time_elapsed": 589155, "type": "FREE_RECALL", "trial_index": 115}, "uniqueid": "MTK2500:3PMBY0YE28A66Q45LABHK7NZJBN9CX", "dateTime": 1517862005803}, {"current_trial": 116, "trialdata": {"rt": 2424, "trial_type": "text", "internal_node_id": "0.0-89.0", "time_elapsed": 593582, "key_press": 32, "type": "INSTRUCTIONS", "trial_index": 116}, "uniqueid": "MTK2500:3PMBY0YE28A66Q45LABHK7NZJBN9CX", "dateTime": 1517862010228}, {"current_trial": 117, "trialdata": {"rt": [4542, 7662, 11934, 17734, 19982], "trial_type": "math-distractor", "key_times": [4038, 4238, 4542, 7166, 7366, 7662, 11342, 11622, 11934, 16926, 17294, 17734, 19502, 19686, 19982], "responses": ["15", "12", "18", "17", "11"], "num2": [3, 3, 6, 5, 9, 7], "num3": [3, 6, 3, 3, 1, 9], "conditions": [12, 800, "a", 24000], "internal_node_id": "0.0-90.0", "key_presses": [97, 101, 13, 97, 98, 13, 97, 104, 13, 97, 103, 13, 97, 97, 13], "trial": 3, "time_elapsed": 619584, "type": "DISTRACTOR", "trial_index": 117, "num1": [9, 3, 9, 9, 1, 5]}, "uniqueid": "MTK2500:3PMBY0YE28A66Q45LABHK7NZJBN9CX", "dateTime": 1517862036230}, {"current_trial": 118, "trialdata": {"rt": -1, "trial_type": "single-stim", "stimulus": "<p id=\"stim\">10</p>", "internal_node_id": "0.0-91.0-0.0", "time_elapsed": 622586, "key_press": -1, "trial_index": 118}, "uniqueid": "MTK2500:3PMBY0YE28A66Q45LABHK7NZJBN9CX", "dateTime": 1517862039232}, {"current_trial": 119, "trialdata": {"rt": -1, "trial_type": "single-stim", "stimulus": "<p id=\"stim\">9</p>", "internal_node_id": "0.0-91.0-1.0", "time_elapsed": 623587, "key_press": -1, "trial_index": 119}, "uniqueid": "MTK2500:3PMBY0YE28A66Q45LABHK7NZJBN9CX", "dateTime": 1517862040233}, {"current_trial": 120, "trialdata": {"rt": -1, "trial_type": "single-stim", "stimulus": "<p id=\"stim\">8</p>", "internal_node_id": "0.0-91.0-2.0", "time_elapsed": 624588, "key_press": -1, "trial_index": 120}, "uniqueid": "MTK2500:3PMBY0YE28A66Q45LABHK7NZJBN9CX", "dateTime": 1517862041234}, {"current_trial": 121, "trialdata": {"rt": -1, "trial_type": "single-stim", "stimulus": "<p id=\"stim\">7</p>", "internal_node_id": "0.0-91.0-3.0", "time_elapsed": 625589, "key_press": -1, "trial_index": 121}, "uniqueid": "MTK2500:3PMBY0YE28A66Q45LABHK7NZJBN9CX", "dateTime": 1517862042235}, {"current_trial": 122, "trialdata": {"rt": -1, "trial_type": "single-stim", "stimulus": "<p id=\"stim\">6</p>", "internal_node_id": "0.0-91.0-4.0", "time_elapsed": 626590, "key_press": -1, "trial_index": 122}, "uniqueid": "MTK2500:3PMBY0YE28A66Q45LABHK7NZJBN9CX", "dateTime": 1517862043236}, {"current_trial": 123, "trialdata": {"rt": -1, "trial_type": "single-stim", "stimulus": "<p id=\"stim\">5</p>", "internal_node_id": "0.0-91.0-5.0", "time_elapsed": 627591, "key_press": -1, "trial_index": 123}, "uniqueid": "MTK2500:3PMBY0YE28A66Q45LABHK7NZJBN9CX", "dateTime": 1517862044237}, {"current_trial": 124, "trialdata": {"rt": -1, "trial_type": "single-stim", "stimulus": "<p id=\"stim\">4</p>", "internal_node_id": "0.0-91.0-6.0", "time_elapsed": 628592, "key_press": -1, "trial_index": 124}, "uniqueid": "MTK2500:3PMBY0YE28A66Q45LABHK7NZJBN9CX", "dateTime": 1517862045238}, {"current_trial": 125, "trialdata": {"rt": -1, "trial_type": "single-stim", "stimulus": "<p id=\"stim\">3</p>", "internal_node_id": "0.0-91.0-7.0", "time_elapsed": 629593, "key_press": -1, "trial_index": 125}, "uniqueid": "MTK2500:3PMBY0YE28A66Q45LABHK7NZJBN9CX", "dateTime": 1517862046239}, {"current_trial": 126, "trialdata": {"rt": -1, "trial_type": "single-stim", "stimulus": "<p id=\"stim\">2</p>", "internal_node_id": "0.0-91.0-8.0", "time_elapsed": 630594, "key_press": -1, "trial_index": 126}, "uniqueid": "MTK2500:3PMBY0YE28A66Q45LABHK7NZJBN9CX", "dateTime": 1517862047240}, {"current_trial": 127, "trialdata": {"rt": -1, "trial_type": "single-stim", "stimulus": "<p id=\"stim\">1</p>", "internal_node_id": "0.0-91.0-9.0", "time_elapsed": 631595, "key_press": -1, "trial_index": 127}, "uniqueid": "MTK2500:3PMBY0YE28A66Q45LABHK7NZJBN9CX", "dateTime": 1517862048241}, {"current_trial": 128, "trialdata": {"rt": -1, "trial_type": "single-stim", "stimulus": "<p id=\"stim\">+</p>", "internal_node_id": "0.0-92.0-0.0", "time_elapsed": 633096, "key_press": -1, "type": "FIXATION", "trial_index": 128}, "uniqueid": "MTK2500:3PMBY0YE28A66Q45LABHK7NZJBN9CX", "dateTime": 1517862049742}, {"current_trial": 129, "trialdata": {"rt": -1000, "trial_type": "single-audio", "word": "possum", "stimulus": "/static/audio/wordpool/POSSUM.wav", "conditions": [12, 800, "a", 24000], "internal_node_id": "0.0-93.0", "trial": 3, "time_elapsed": 634800, "serialpos": 0, "key_press": -1, "wordID": 1111, "type": "PRES_AUD", "trial_index": 129}, "uniqueid": "MTK2500:3PMBY0YE28A66Q45LABHK7NZJBN9CX", "dateTime": 1517862051446}, {"current_trial": 130, "trialdata": {"rt": -1000, "trial_type": "single-audio", "word": "japan", "stimulus": "/static/audio/wordpool/JAPAN.wav", "conditions": [12, 800, "a", 24000], "internal_node_id": "0.0-94.0", "trial": 3, "time_elapsed": 636669, "serialpos": 1, "key_press": -1, "wordID": 748, "type": "PRES_AUD", "trial_index": 130}, "uniqueid": "MTK2500:3PMBY0YE28A66Q45LABHK7NZJBN9CX", "dateTime": 1517862053315}, {"current_trial": 131, "trialdata": {"rt": -1000, "trial_type": "single-audio", "word": "juggler", "stimulus": "/static/audio/wordpool/JUGGLER.wav", "conditions": [12, 800, "a", 24000], "internal_node_id": "0.0-95.0", "trial": 3, "time_elapsed": 638306, "serialpos": 2, "key_press": -1, "wordID": 762, "type": "PRES_AUD", "trial_index": 131}, "uniqueid": "MTK2500:3PMBY0YE28A66Q45LABHK7NZJBN9CX", "dateTime": 1517862054952}, {"current_trial": 132, "trialdata": {"rt": -1000, "trial_type": "single-audio", "word": "leg", "stimulus": "/static/audio/wordpool/LEG.wav", "conditions": [12, 800, "a", 24000], "internal_node_id": "0.0-96.0", "trial": 3, "time_elapsed": 640001, "serialpos": 3, "key_press": -1, "wordID": 808, "type": "PRES_AUD", "trial_index": 132}, "uniqueid": "MTK2500:3PMBY0YE28A66Q45LABHK7NZJBN9CX", "dateTime": 1517862056647}, {"current_trial": 133, "trialdata": {"rt": -1000, "trial_type": "single-audio", "word": "puppy", "stimulus": "/static/audio/wordpool/PUPPY.wav", "conditions": [12, 800, "a", 24000], "internal_node_id": "0.0-97.0", "trial": 3, "time_elapsed": 641782, "serialpos": 4, "key_press": -1, "wordID": 1143, "type": "PRES_AUD", "trial_index": 133}, "uniqueid": "MTK2500:3PMBY0YE28A66Q45LABHK7NZJBN9CX", "dateTime": 1517862058428}, {"current_trial": 134, "trialdata": {"rt": -1000, "trial_type": "single-audio", "word": "snake", "stimulus": "/static/audio/wordpool/SNAKE.wav", "conditions": [12, 800, "a", 24000], "internal_node_id": "0.0-98.0", "trial": 3, "time_elapsed": 643400, "serialpos": 5, "key_press": -1, "wordID": 1332, "type": "PRES_AUD", "trial_index": 134}, "uniqueid": "MTK2500:3PMBY0YE28A66Q45LABHK7NZJBN9CX", "dateTime": 1517862060046}, {"current_trial": 135, "trialdata": {"rt": -1000, "trial_type": "single-audio", "word": "sunrise", "stimulus": "/static/audio/wordpool/SUNRISE.wav", "conditions": [12, 800, "a", 24000], "internal_node_id": "0.0-99.0", "trial": 3, "time_elapsed": 645169, "serialpos": 6, "key_press": -1, "wordID": 1406, "type": "PRES_AUD", "trial_index": 135}, "uniqueid": "MTK2500:3PMBY0YE28A66Q45LABHK7NZJBN9CX", "dateTime": 1517862061815}, {"current_trial": 136, "trialdata": {"rt": -1000, "trial_type": "single-audio", "word": "hound", "stimulus": "/static/audio/wordpool/HOUND.wav", "conditions": [12, 800, "a", 24000], "internal_node_id": "0.0-100.0", "trial": 3, "time_elapsed": 646891, "serialpos": 7, "key_press": -1, "wordID": 723, "type": "PRES_AUD", "trial_index": 136}, "uniqueid": "MTK2500:3PMBY0YE28A66Q45LABHK7NZJBN9CX", "dateTime": 1517862063537}, {"current_trial": 137, "trialdata": {"rt": -1000, "trial_type": "single-audio", "word": "expert", "stimulus": "/static/audio/wordpool/EXPERT.wav", "conditions": [12, 800, "a", 24000], "internal_node_id": "0.0-101.0", "trial": 3, "time_elapsed": 648533, "serialpos": 8, "key_press": -1, "wordID": 542, "type": "PRES_AUD", "trial_index": 137}, "uniqueid": "MTK2500:3PMBY0YE28A66Q45LABHK7NZJBN9CX", "dateTime": 1517862065179}, {"current_trial": 138, "trialdata": {"rt": -1000, "trial_type": "single-audio", "word": "crevice", "stimulus": "/static/audio/wordpool/CREVICE.wav", "conditions": [12, 800, "a", 24000], "internal_node_id": "0.0-102.0", "trial": 3, "time_elapsed": 650276, "serialpos": 9, "key_press": -1, "wordID": 404, "type": "PRES_AUD", "trial_index": 138}, "uniqueid": "MTK2500:3PMBY0YE28A66Q45LABHK7NZJBN9CX", "dateTime": 1517862066922}, {"current_trial": 139, "trialdata": {"rt": -1000, "trial_type": "single-audio", "word": "world", "stimulus": "/static/audio/wordpool/WORLD.wav", "conditions": [12, 800, "a", 24000], "internal_node_id": "0.0-103.0", "trial": 3, "time_elapsed": 652164, "serialpos": 10, "key_press": -1, "wordID": 1621, "type": "PRES_AUD", "trial_index": 139}, "uniqueid": "MTK2500:3PMBY0YE28A66Q45LABHK7NZJBN9CX", "dateTime": 1517862068810}, {"current_trial": 140, "trialdata": {"rt": -1000, "trial_type": "single-audio", "word": "globe", "stimulus": "/static/audio/wordpool/GLOBE.wav", "conditions": [12, 800, "a", 24000], "internal_node_id": "0.0-104.0", "trial": 3, "time_elapsed": 653913, "serialpos": 11, "key_press": -1, "wordID": 640, "type": "PRES_AUD", "trial_index": 140}, "uniqueid": "MTK2500:3PMBY0YE28A66Q45LABHK7NZJBN9CX", "dateTime": 1517862070559}, {"current_trial": 141, "trialdata": {"rt": -1, "trial_type": "single-stim", "stimulus": "", "internal_node_id": "0.0-105.0-0.0", "time_elapsed": 655190, "key_press": -1, "type": "PRE_RECALL_DELAY", "trial_index": 141}, "uniqueid": "MTK2500:3PMBY0YE28A66Q45LABHK7NZJBN9CX", "dateTime": 1517862071836}, {"current_trial": 142, "trialdata": {"rt": -1000, "trial_type": "single-audio", "stimulus": "/static/audio/400Hz.wav", "internal_node_id": "0.0-106.0", "time_elapsed": 655691, "key_press": -1, "type": "PRE_RECALL_ALERT", "trial_index": 142}, "uniqueid": "MTK2500:3PMBY0YE28A66Q45LABHK7NZJBN9CX", "dateTime": 1517862072337}, {"current_trial": 143, "trialdata": {"rt": [6227, 10034, 12178, 14186, 16394, 18082, 21338, 25370, 28850, 34162], "recwords": ["poosum", "japan", "juggler", "leg", "puppy", "snake", "sunrise", "hound", "world", "globe"], "key_times": [3714, 3978, 4378, 4738, 5594, 5866, 6227, 8682, 9178, 9506, 9674, 9858, 10034, 10762, 11034, 11410, 11562, 11730, 11858, 12026, 12178, 13466, 13650, 13898, 14186, 14922, 15162, 15538, 15794, 16194, 16394, 17098, 17410, 17578, 17802, 17954, 18082, 19802, 19970, 20202, 20458, 20642, 20922, 21114, 21338, 23210, 24418, 24642, 24882, 25034, 25370, 26922, 27138, 27330, 27554, 28170, 28482, 28658, 28850, 30802, 30962, 31170, 31426, 32106, 34162], "trial_type": "free-recall", "conditions": [12, 800, "a", 24000], "internal_node_id": "0.0-107.0-0.0", "key_presses": [80, 79, 79, 83, 85, 77, 32, 74, 65, 80, 65, 78, 32, 74, 85, 71, 71, 76, 69, 82, 32, 76, 69, 71, 32, 80, 85, 80, 80, 89, 32, 83, 78, 65, 75, 69, 32, 83, 85, 78, 82, 73, 83, 69, 32, 72, 79, 85, 78, 68, 32, 87, 79, 82, 75, 8, 76, 68, 32, 71, 76, 79, 66, 69, 32], "trial": 3, "time_elapsed": 715693, "type": "FREE_RECALL", "trial_index": 143}, "uniqueid": "MTK2500:3PMBY0YE28A66Q45LABHK7NZJBN9CX", "dateTime": 1517862132341}, {"current_trial": 144, "trialdata": {"rt": 9806, "trial_type": "text", "internal_node_id": "0.0-108.0", "time_elapsed": 727502, "key_press": 32, "type": "INSTRUCTIONS", "trial_index": 144}, "uniqueid": "MTK2500:3PMBY0YE28A66Q45LABHK7NZJBN9CX", "dateTime": 1517862144148}, {"current_trial": 145, "trialdata": {"rt": [3903, 6343, 8879, 12951, 15911, 16079, 19007, 22831], "trial_type": "math-distractor", "key_times": [3431, 3599, 3903, 5911, 6127, 6343, 8567, 8879, 12471, 12735, 12951, 15407, 15591, 15911, 16079, 18623, 18791, 19007, 22407, 22591, 22831], "responses": ["15", "16", "8", "13", "14", "", "11", "15"], "num2": [7, 8, 1, 6, 3, 8, 5, 3, 9], "num3": [6, 6, 3, 5, 5, 8, 3, 8, 5], "conditions": [12, 1600, "a", 24000], "internal_node_id": "0.0-109.0", "key_presses": [97, 101, 13, 97, 102, 13, 104, 13, 97, 99, 13, 97, 100, 13, 13, 97, 97, 13, 97, 101, 13], "trial": 4, "time_elapsed": 753504, "type": "DISTRACTOR", "trial_index": 145, "num1": [2, 2, 4, 2, 6, 8, 3, 4, 8]}, "uniqueid": "MTK2500:3PMBY0YE28A66Q45LABHK7NZJBN9CX", "dateTime": 1517862170150}, {"current_trial": 146, "trialdata": {"rt": -1, "trial_type": "single-stim", "stimulus": "<p id=\"stim\">10</p>", "internal_node_id": "0.0-110.0-0.0", "time_elapsed": 756506, "key_press": -1, "trial_index": 146}, "uniqueid": "MTK2500:3PMBY0YE28A66Q45LABHK7NZJBN9CX", "dateTime": 1517862173152}, {"current_trial": 147, "trialdata": {"rt": -1, "trial_type": "single-stim", "stimulus": "<p id=\"stim\">9</p>", "internal_node_id": "0.0-110.0-1.0", "time_elapsed": 757507, "key_press": -1, "trial_index": 147}, "uniqueid": "MTK2500:3PMBY0YE28A66Q45LABHK7NZJBN9CX", "dateTime": 1517862174153}, {"current_trial": 148, "trialdata": {"rt": -1, "trial_type": "single-stim", "stimulus": "<p id=\"stim\">8</p>", "internal_node_id": "0.0-110.0-2.0", "time_elapsed": 758508, "key_press": -1, "trial_index": 148}, "uniqueid": "MTK2500:3PMBY0YE28A66Q45LABHK7NZJBN9CX", "dateTime": 1517862175154}, {"current_trial": 149, "trialdata": {"rt": -1, "trial_type": "single-stim", "stimulus": "<p id=\"stim\">7</p>", "internal_node_id": "0.0-110.0-3.0", "time_elapsed": 759509, "key_press": -1, "trial_index": 149}, "uniqueid": "MTK2500:3PMBY0YE28A66Q45LABHK7NZJBN9CX", "dateTime": 1517862176155}, {"current_trial": 150, "trialdata": {"rt": -1, "trial_type": "single-stim", "stimulus": "<p id=\"stim\">6</p>", "internal_node_id": "0.0-110.0-4.0", "time_elapsed": 760510, "key_press": -1, "trial_index": 150}, "uniqueid": "MTK2500:3PMBY0YE28A66Q45LABHK7NZJBN9CX", "dateTime": 1517862177156}, {"current_trial": 151, "trialdata": {"rt": -1, "trial_type": "single-stim", "stimulus": "<p id=\"stim\">5</p>", "internal_node_id": "0.0-110.0-5.0", "time_elapsed": 761512, "key_press": -1, "trial_index": 151}, "uniqueid": "MTK2500:3PMBY0YE28A66Q45LABHK7NZJBN9CX", "dateTime": 1517862178158}, {"current_trial": 152, "trialdata": {"rt": -1, "trial_type": "single-stim", "stimulus": "<p id=\"stim\">4</p>", "internal_node_id": "0.0-110.0-6.0", "time_elapsed": 762513, "key_press": -1, "trial_index": 152}, "uniqueid": "MTK2500:3PMBY0YE28A66Q45LABHK7NZJBN9CX", "dateTime": 1517862179159}, {"current_trial": 153, "trialdata": {"rt": -1, "trial_type": "single-stim", "stimulus": "<p id=\"stim\">3</p>", "internal_node_id": "0.0-110.0-7.0", "time_elapsed": 763514, "key_press": -1, "trial_index": 153}, "uniqueid": "MTK2500:3PMBY0YE28A66Q45LABHK7NZJBN9CX", "dateTime": 1517862180160}, {"current_trial": 154, "trialdata": {"rt": -1, "trial_type": "single-stim", "stimulus": "<p id=\"stim\">2</p>", "internal_node_id": "0.0-110.0-8.0", "time_elapsed": 764515, "key_press": -1, "trial_index": 154}, "uniqueid": "MTK2500:3PMBY0YE28A66Q45LABHK7NZJBN9CX", "dateTime": 1517862181161}, {"current_trial": 155, "trialdata": {"rt": -1, "trial_type": "single-stim", "stimulus": "<p id=\"stim\">1</p>", "internal_node_id": "0.0-110.0-9.0", "time_elapsed": 765516, "key_press": -1, "trial_index": 155}, "uniqueid": "MTK2500:3PMBY0YE28A66Q45LABHK7NZJBN9CX", "dateTime": 1517862182162}, {"current_trial": 156, "trialdata": {"rt": -1, "trial_type": "single-stim", "stimulus": "<p id=\"stim\">+</p>", "internal_node_id": "0.0-111.0-0.0", "time_elapsed": 767017, "key_press": -1, "type": "FIXATION", "trial_index": 156}, "uniqueid": "MTK2500:3PMBY0YE28A66Q45LABHK7NZJBN9CX", "dateTime": 1517862183663}, {"current_trial": 157, "trialdata": {"rt": -1000, "trial_type": "single-audio", "word": "hand", "stimulus": "/static/audio/wordpool/HAND.wav", "conditions": [12, 1600, "a", 24000], "internal_node_id": "0.0-112.0", "trial": 4, "time_elapsed": 769483, "serialpos": 0, "key_press": -1, "wordID": 682, "type": "PRES_AUD", "trial_index": 157}, "uniqueid": "MTK2500:3PMBY0YE28A66Q45LABHK7NZJBN9CX", "dateTime": 1517862186129}, {"current_trial": 158, "trialdata": {"rt": -1000, "trial_type": "single-audio", "word": "lizard", "stimulus": "/static/audio/wordpool/LIZARD.wav", "conditions": [12, 1600, "a", 24000], "internal_node_id": "0.0-113.0", "trial": 4, "time_elapsed": 772069, "serialpos": 1, "key_press": -1, "wordID": 833, "type": "PRES_AUD", "trial_index": 158}, "uniqueid": "MTK2500:3PMBY0YE28A66Q45LABHK7NZJBN9CX", "dateTime": 1517862188715}, {"current_trial": 159, "trialdata": {"rt": -1000, "trial_type": "single-audio", "word": "waiter", "stimulus": "/static/audio/wordpool/WAITER.wav", "conditions": [12, 1600, "a", 24000], "internal_node_id": "0.0-114.0", "trial": 4, "time_elapsed": 774703, "serialpos": 2, "key_press": -1, "wordID": 1579, "type": "PRES_AUD", "trial_index": 159}, "uniqueid": "MTK2500:3PMBY0YE28A66Q45LABHK7NZJBN9CX", "dateTime": 1517862191349}, {"current_trial": 160, "trialdata": {"rt": -1000, "trial_type": "single-audio", "word": "cashier", "stimulus": "/static/audio/wordpool/CASHIER.wav", "conditions": [12, 1600, "a", 24000], "internal_node_id": "0.0-115.0", "trial": 4, "time_elapsed": 777239, "serialpos": 3, "key_press": -1, "wordID": 253, "type": "PRES_AUD", "trial_index": 160}, "uniqueid": "MTK2500:3PMBY0YE28A66Q45LABHK7NZJBN9CX", "dateTime": 1517862193885}, {"current_trial": 161, "trialdata": {"rt": -1000, "trial_type": "single-audio", "word": "maple", "stimulus": "/static/audio/wordpool/MAPLE.wav", "conditions": [12, 1600, "a", 24000], "internal_node_id": "0.0-116.0", "trial": 4, "time_elapsed": 779829, "serialpos": 4, "key_press": -1, "wordID": 865, "type": "PRES_AUD", "trial_index": 161}, "uniqueid": "MTK2500:3PMBY0YE28A66Q45LABHK7NZJBN9CX", "dateTime": 1517862196475}, {"current_trial": 162, "trialdata": {"rt": -1000, "trial_type": "single-audio", "word": "proton", "stimulus": "/static/audio/wordpool/PROTON.wav", "conditions": [12, 1600, "a", 24000], "internal_node_id": "0.0-117.0", "trial": 4, "time_elapsed": 782448, "serialpos": 5, "key_press": -1, "wordID": 1131, "type": "PRES_AUD", "trial_index": 162}, "uniqueid": "MTK2500:3PMBY0YE28A66Q45LABHK7NZJBN9CX", "dateTime": 1517862199094}, {"current_trial": 163, "trialdata": {"rt": -1000, "trial_type": "single-audio", "word": "ointment", "stimulus": "/static/audio/wordpool/OINTMENT.wav", "conditions": [12, 1600, "a", 24000], "internal_node_id": "0.0-118.0", "trial": 4, "time_elapsed": 785191, "serialpos": 6, "key_press": -1, "wordID": 973, "type": "PRES_AUD", "trial_index": 163}, "uniqueid": "MTK2500:3PMBY0YE28A66Q45LABHK7NZJBN9CX", "dateTime": 1517862201837}, {"current_trial": 164, "trialdata": {"rt": -1000, "trial_type": "single-audio", "word": "survey", "stimulus": "/static/audio/wordpool/SURVEY.wav", "conditions": [12, 1600, "a", 24000], "internal_node_id": "0.0-119.0", "trial": 4, "time_elapsed": 787722, "serialpos": 7, "key_press": -1, "wordID": 1413, "type": "PRES_AUD", "trial_index": 164}, "uniqueid": "MTK2500:3PMBY0YE28A66Q45LABHK7NZJBN9CX", "dateTime": 1517862204368}, {"current_trial": 165, "trialdata": {"rt": -1000, "trial_type": "single-audio", "word": "xerox", "stimulus": "/static/audio/wordpool/XEROX.wav", "conditions": [12, 1600, "a", 24000], "internal_node_id": "0.0-120.0", "trial": 4, "time_elapsed": 790197, "serialpos": 8, "key_press": -1, "wordID": 1627, "type": "PRES_AUD", "trial_index": 165}, "uniqueid": "MTK2500:3PMBY0YE28A66Q45LABHK7NZJBN9CX", "dateTime": 1517862206843}, {"current_trial": 166, "trialdata": {"rt": -1000, "trial_type": "single-audio", "word": "paper", "stimulus": "/static/audio/wordpool/PAPER.wav", "conditions": [12, 1600, "a", 24000], "internal_node_id": "0.0-121.0", "trial": 4, "time_elapsed": 792795, "serialpos": 9, "key_press": -1, "wordID": 1010, "type": "PRES_AUD", "trial_index": 166}, "uniqueid": "MTK2500:3PMBY0YE28A66Q45LABHK7NZJBN9CX", "dateTime": 1517862209441}, {"current_trial": 167, "trialdata": {"rt": -1000, "trial_type": "single-audio", "word": "napkin", "stimulus": "/static/audio/wordpool/NAPKIN.wav", "conditions": [12, 1600, "a", 24000], "internal_node_id": "0.0-122.0", "trial": 4, "time_elapsed": 795381, "serialpos": 10, "key_press": -1, "wordID": 936, "type": "PRES_AUD", "trial_index": 167}, "uniqueid": "MTK2500:3PMBY0YE28A66Q45LABHK7NZJBN9CX", "dateTime": 1517862212027}, {"current_trial": 168, "trialdata": {"rt": -1000, "trial_type": "single-audio", "word": "cobra", "stimulus": "/static/audio/wordpool/COBRA.wav", "conditions": [12, 1600, "a", 24000], "internal_node_id": "0.0-123.0", "trial": 4, "time_elapsed": 797819, "serialpos": 11, "key_press": -1, "wordID": 335, "type": "PRES_AUD", "trial_index": 168}, "uniqueid": "MTK2500:3PMBY0YE28A66Q45LABHK7NZJBN9CX", "dateTime": 1517862214465}, {"current_trial": 169, "trialdata": {"rt": -1, "trial_type": "single-stim", "stimulus": "", "internal_node_id": "0.0-124.0-0.0", "time_elapsed": 799196, "key_press": -1, "type": "PRE_RECALL_DELAY", "trial_index": 169}, "uniqueid": "MTK2500:3PMBY0YE28A66Q45LABHK7NZJBN9CX", "dateTime": 1517862215842}, {"current_trial": 170, "trialdata": {"rt": -1000, "trial_type": "single-audio", "stimulus": "/static/audio/400Hz.wav", "internal_node_id": "0.0-125.0", "time_elapsed": 799697, "key_press": -1, "type": "PRE_RECALL_ALERT", "trial_index": 170}, "uniqueid": "MTK2500:3PMBY0YE28A66Q45LABHK7NZJBN9CX", "dateTime": 1517862216343}, {"current_trial": 171, "trialdata": {"rt": [3964, 6836, 8620, 11764, 15180, 19116, 23540, 26820, 29740, 32436, 35733, 38588], "recwords": ["hand", "lizzard", "waiter", "cashier", "maple", "proton", "ointment", "survey", "xerox", "paper", "napkin", "cobra"], "key_times": [2556, 2756, 2828, 3084, 3964, 4764, 5004, 5524, 5708, 5924, 6300, 6532, 6836, 7564, 7812, 7996, 8164, 8324, 8484, 8620, 10492, 10676, 10836, 10996, 11292, 11452, 11668, 11764, 13684, 13852, 14300, 14492, 14644, 15180, 16140, 16356, 16540, 16788, 16932, 17197, 17202, 17876, 18132, 18948, 19116, 20996, 21228, 22452, 22708, 22948, 23124, 23228, 23372, 23540, 25452, 25788, 25964, 26284, 26436, 26620, 26820, 28100, 28420, 28652, 28836, 29404, 29740, 31356, 31524, 31692, 32036, 32276, 32436, 33724, 34116, 34588, 34964, 35164, 35316, 35733, 36997, 37212, 37492, 37804, 37980, 38588], "trial_type": "free-recall", "conditions": [12, 1600, "a", 24000], "internal_node_id": "0.0-126.0-0.0", "key_presses": [72, 65, 78, 68, 32, 76, 73, 90, 90, 65, 82, 68, 32, 87, 65, 73, 84, 69, 82, 32, 67, 65, 83, 72, 73, 69, 82, 32, 77, 65, 80, 76, 69, 32, 80, 82, 79, 84, 79, 77, 78, 8, 8, 78, 32, 79, 73, 78, 84, 77, 69, 78, 84, 32, 83, 85, 82, 86, 69, 89, 32, 88, 69, 82, 79, 88, 32, 80, 65, 80, 69, 82, 32, 78, 65, 80, 75, 73, 78, 32, 67, 79, 66, 82, 65, 32], "trial": 4, "time_elapsed": 859699, "type": "FREE_RECALL", "trial_index": 171}, "uniqueid": "MTK2500:3PMBY0YE28A66Q45LABHK7NZJBN9CX", "dateTime": 1517862276352}, {"current_trial": 172, "trialdata": {"rt": 1485, "trial_type": "text", "internal_node_id": "0.0-127.0", "time_elapsed": 863191, "key_press": 32, "type": "INSTRUCTIONS", "trial_index": 172}, "uniqueid": "MTK2500:3PMBY0YE28A66Q45LABHK7NZJBN9CX", "dateTime": 1517862279837}, {"current_trial": 173, "trialdata": {"rt": [4644, 6684, 10404], "trial_type": "math-distractor", "key_times": [3956, 4277, 4644, 6220, 6412, 6684, 9764, 10100, 10404], "responses": ["17", "14", "17"], "num2": [9, 9, 7, 3], "num3": [6, 4, 7, 6], "conditions": [24, 1600, "a", 12000], "internal_node_id": "0.0-128.0", "key_presses": [97, 103, 13, 97, 100, 13, 97, 103, 13], "trial": 5, "time_elapsed": 877195, "type": "DISTRACTOR", "trial_index": 173, "num1": [2, 1, 3, 2]}, "uniqueid": "MTK2500:3PMBY0YE28A66Q45LABHK7NZJBN9CX", "dateTime": 1517862293842}, {"current_trial": 174, "trialdata": {"rt": -1, "trial_type": "single-stim", "stimulus": "<p id=\"stim\">10</p>", "internal_node_id": "0.0-129.0-0.0", "time_elapsed": 880198, "key_press": -1, "trial_index": 174}, "uniqueid": "MTK2500:3PMBY0YE28A66Q45LABHK7NZJBN9CX", "dateTime": 1517862296844}, {"current_trial": 175, "trialdata": {"rt": -1, "trial_type": "single-stim", "stimulus": "<p id=\"stim\">9</p>", "internal_node_id": "0.0-129.0-1.0", "time_elapsed": 881200, "key_press": -1, "trial_index": 175}, "uniqueid": "MTK2500:3PMBY0YE28A66Q45LABHK7NZJBN9CX", "dateTime": 1517862297846}, {"current_trial": 176, "trialdata": {"rt": -1, "trial_type": "single-stim", "stimulus": "<p id=\"stim\">8</p>", "internal_node_id": "0.0-129.0-2.0", "time_elapsed": 882202, "key_press": -1, "trial_index": 176}, "uniqueid": "MTK2500:3PMBY0YE28A66Q45LABHK7NZJBN9CX", "dateTime": 1517862298848}, {"current_trial": 177, "trialdata": {"rt": -1, "trial_type": "single-stim", "stimulus": "<p id=\"stim\">7</p>", "internal_node_id": "0.0-129.0-3.0", "time_elapsed": 883204, "key_press": -1, "trial_index": 177}, "uniqueid": "MTK2500:3PMBY0YE28A66Q45LABHK7NZJBN9CX", "dateTime": 1517862299850}, {"current_trial": 178, "trialdata": {"rt": -1, "trial_type": "single-stim", "stimulus": "<p id=\"stim\">6</p>", "internal_node_id": "0.0-129.0-4.0", "time_elapsed": 884206, "key_press": -1, "trial_index": 178}, "uniqueid": "MTK2500:3PMBY0YE28A66Q45LABHK7NZJBN9CX", "dateTime": 1517862300852}, {"current_trial": 179, "trialdata": {"rt": -1, "trial_type": "single-stim", "stimulus": "<p id=\"stim\">5</p>", "internal_node_id": "0.0-129.0-5.0", "time_elapsed": 885208, "key_press": -1, "trial_index": 179}, "uniqueid": "MTK2500:3PMBY0YE28A66Q45LABHK7NZJBN9CX", "dateTime": 1517862301854}, {"current_trial": 180, "trialdata": {"rt": -1, "trial_type": "single-stim", "stimulus": "<p id=\"stim\">4</p>", "internal_node_id": "0.0-129.0-6.0", "time_elapsed": 886210, "key_press": -1, "trial_index": 180}, "uniqueid": "MTK2500:3PMBY0YE28A66Q45LABHK7NZJBN9CX", "dateTime": 1517862302856}, {"current_trial": 181, "trialdata": {"rt": -1, "trial_type": "single-stim", "stimulus": "<p id=\"stim\">3</p>", "internal_node_id": "0.0-129.0-7.0", "time_elapsed": 887212, "key_press": -1, "trial_index": 181}, "uniqueid": "MTK2500:3PMBY0YE28A66Q45LABHK7NZJBN9CX", "dateTime": 1517862303858}, {"current_trial": 182, "trialdata": {"rt": -1, "trial_type": "single-stim", "stimulus": "<p id=\"stim\">2</p>", "internal_node_id": "0.0-129.0-8.0", "time_elapsed": 888214, "key_press": -1, "trial_index": 182}, "uniqueid": "MTK2500:3PMBY0YE28A66Q45LABHK7NZJBN9CX", "dateTime": 1517862304860}, {"current_trial": 183, "trialdata": {"rt": -1, "trial_type": "single-stim", "stimulus": "<p id=\"stim\">1</p>", "internal_node_id": "0.0-129.0-9.0", "time_elapsed": 889214, "key_press": -1, "trial_index": 183}, "uniqueid": "MTK2500:3PMBY0YE28A66Q45LABHK7NZJBN9CX", "dateTime": 1517862305861}, {"current_trial": 184, "trialdata": {"rt": -1, "trial_type": "single-stim", "stimulus": "<p id=\"stim\">+</p>", "internal_node_id": "0.0-130.0-0.0", "time_elapsed": 890715, "key_press": -1, "type": "FIXATION", "trial_index": 184}, "uniqueid": "MTK2500:3PMBY0YE28A66Q45LABHK7NZJBN9CX", "dateTime": 1517862307361}, {"current_trial": 185, "trialdata": {"rt": -1000, "trial_type": "single-audio", "word": "stone", "stimulus": "/static/audio/wordpool/STONE.wav", "conditions": [24, 1600, "a", 12000], "internal_node_id": "0.0-131.0", "trial": 5, "time_elapsed": 893200, "serialpos": 0, "key_press": -1, "wordID": 1384, "type": "PRES_AUD", "trial_index": 185}, "uniqueid": "MTK2500:3PMBY0YE28A66Q45LABHK7NZJBN9CX", "dateTime": 1517862309846}, {"current_trial": 186, "trialdata": {"rt": -1000, "trial_type": "single-audio", "word": "foot", "stimulus": "/static/audio/wordpool/FOOT.wav", "conditions": [24, 1600, "a", 12000], "internal_node_id": "0.0-132.0", "trial": 5, "time_elapsed": 895876, "serialpos": 1, "key_press": -1, "wordID": 589, "type": "PRES_AUD", "trial_index": 186}, "uniqueid": "MTK2500:3PMBY0YE28A66Q45LABHK7NZJBN9CX", "dateTime": 1517862312522}, {"current_trial": 187, "trialdata": {"rt": -1000, "trial_type": "single-audio", "word": "dustpan", "stimulus": "/static/audio/wordpool/DUSTPAN.wav", "conditions": [24, 1600, "a", 12000], "internal_node_id": "0.0-133.0", "trial": 5, "time_elapsed": 898675, "serialpos": 2, "key_press": -1, "wordID": 508, "type": "PRES_AUD", "trial_index": 187}, "uniqueid": "MTK2500:3PMBY0YE28A66Q45LABHK7NZJBN9CX", "dateTime": 1517862315322}, {"current_trial": 188, "trialdata": {"rt": -1000, "trial_type": "single-audio", "word": "beaver", "stimulus": "/static/audio/wordpool/BEAVER.wav", "conditions": [24, 1600, "a", 12000], "internal_node_id": "0.0-134.0", "trial": 5, "time_elapsed": 901389, "serialpos": 3, "key_press": -1, "wordID": 108, "type": "PRES_AUD", "trial_index": 188}, "uniqueid": "MTK2500:3PMBY0YE28A66Q45LABHK7NZJBN9CX", "dateTime": 1517862318035}, {"current_trial": 189, "trialdata": {"rt": -1000, "trial_type": "single-audio", "word": "zipper", "stimulus": "/static/audio/wordpool/ZIPPER.wav", "conditions": [24, 1600, "a", 12000], "internal_node_id": "0.0-135.0", "trial": 5, "time_elapsed": 904093, "serialpos": 4, "key_press": -1, "wordID": 1635, "type": "PRES_AUD", "trial_index": 189}, "uniqueid": "MTK2500:3PMBY0YE28A66Q45LABHK7NZJBN9CX", "dateTime": 1517862320739}, {"current_trial": 190, "trialdata": {"rt": -1000, "trial_type": "single-audio", "word": "rebel", "stimulus": "/static/audio/wordpool/REBEL.wav", "conditions": [24, 1600, "a", 12000], "internal_node_id": "0.0-136.0", "trial": 5, "time_elapsed": 906620, "serialpos": 5, "key_press": -1, "wordID": 1171, "type": "PRES_AUD", "trial_index": 190}, "uniqueid": "MTK2500:3PMBY0YE28A66Q45LABHK7NZJBN9CX", "dateTime": 1517862323266}, {"current_trial": 191, "trialdata": {"rt": -1000, "trial_type": "single-audio", "word": "pilot", "stimulus": "/static/audio/wordpool/PILOT.wav", "conditions": [24, 1600, "a", 12000], "internal_node_id": "0.0-137.0", "trial": 5, "time_elapsed": 909051, "serialpos": 6, "key_press": -1, "wordID": 1069, "type": "PRES_AUD", "trial_index": 191}, "uniqueid": "MTK2500:3PMBY0YE28A66Q45LABHK7NZJBN9CX", "dateTime": 1517862325697}, {"current_trial": 192, "trialdata": {"rt": -1000, "trial_type": "single-audio", "word": "igloo", "stimulus": "/static/audio/wordpool/IGLOO.wav", "conditions": [24, 1600, "a", 12000], "internal_node_id": "0.0-138.0", "trial": 5, "time_elapsed": 911631, "serialpos": 7, "key_press": -1, "wordID": 733, "type": "PRES_AUD", "trial_index": 192}, "uniqueid": "MTK2500:3PMBY0YE28A66Q45LABHK7NZJBN9CX", "dateTime": 1517862328277}, {"current_trial": 193, "trialdata": {"rt": -1000, "trial_type": "single-audio", "word": "river", "stimulus": "/static/audio/wordpool/RIVER.wav", "conditions": [24, 1600, "a", 12000], "internal_node_id": "0.0-139.0", "trial": 5, "time_elapsed": 914299, "serialpos": 8, "key_press": -1, "wordID": 1193, "type": "PRES_AUD", "trial_index": 193}, "uniqueid": "MTK2500:3PMBY0YE28A66Q45LABHK7NZJBN9CX", "dateTime": 1517862330946}, {"current_trial": 194, "trialdata": {"rt": -1000, "trial_type": "single-audio", "word": "lake", "stimulus": "/static/audio/wordpool/LAKE.wav", "conditions": [24, 1600, "a", 12000], "internal_node_id": "0.0-140.0", "trial": 5, "time_elapsed": 916835, "serialpos": 9, "key_press": -1, "wordID": 795, "type": "PRES_AUD", "trial_index": 194}, "uniqueid": "MTK2500:3PMBY0YE28A66Q45LABHK7NZJBN9CX", "dateTime": 1517862333481}, {"current_trial": 195, "trialdata": {"rt": -1000, "trial_type": "single-audio", "word": "saddle", "stimulus": "/static/audio/wordpool/SADDLE.wav", "conditions": [24, 1600, "a", 12000], "internal_node_id": "0.0-141.0", "trial": 5, "time_elapsed": 919568, "serialpos": 10, "key_press": -1, "wordID": 1220, "type": "PRES_AUD", "trial_index": 195}, "uniqueid": "MTK2500:3PMBY0YE28A66Q45LABHK7NZJBN9CX", "dateTime": 1517862336215}, {"current_trial": 196, "trialdata": {"rt": -1000, "trial_type": "single-audio", "word": "chipmunk", "stimulus": "/static/audio/wordpool/CHIPMUNK.wav", "conditions": [24, 1600, "a", 12000], "internal_node_id": "0.0-142.0", "trial": 5, "time_elapsed": 922327, "serialpos": 11, "key_press": -1, "wordID": 303, "type": "PRES_AUD", "trial_index": 196}, "uniqueid": "MTK2500:3PMBY0YE28A66Q45LABHK7NZJBN9CX", "dateTime": 1517862338973}, {"current_trial": 197, "trialdata": {"rt": -1000, "trial_type": "single-audio", "word": "cross", "stimulus": "/static/audio/wordpool/CROSS.wav", "conditions": [24, 1600, "a", 12000], "internal_node_id": "0.0-143.0", "trial": 5, "time_elapsed": 924876, "serialpos": 12, "key_press": -1, "wordID": 412, "type": "PRES_AUD", "trial_index": 197}, "uniqueid": "MTK2500:3PMBY0YE28A66Q45LABHK7NZJBN9CX", "dateTime": 1517862341522}, {"current_trial": 198, "trialdata": {"rt": -1000, "trial_type": "single-audio", "word": "umpire", "stimulus": "/static/audio/wordpool/UMPIRE.wav", "conditions": [24, 1600, "a", 12000], "internal_node_id": "0.0-144.0", "trial": 5, "time_elapsed": 927387, "serialpos": 13, "key_press": -1, "wordID": 1534, "type": "PRES_AUD", "trial_index": 198}, "uniqueid": "MTK2500:3PMBY0YE28A66Q45LABHK7NZJBN9CX", "dateTime": 1517862344033}, {"current_trial": 199, "trialdata": {"rt": -1000, "trial_type": "single-audio", "word": "slime", "stimulus": "/static/audio/wordpool/SLIME.wav", "conditions": [24, 1600, "a", 12000], "internal_node_id": "0.0-145.0", "trial": 5, "time_elapsed": 929961, "serialpos": 14, "key_press": -1, "wordID": 1326, "type": "PRES_AUD", "trial_index": 199}, "uniqueid": "MTK2500:3PMBY0YE28A66Q45LABHK7NZJBN9CX", "dateTime": 1517862346608}, {"current_trial": 200, "trialdata": {"rt": -1000, "trial_type": "single-audio", "word": "supper", "stimulus": "/static/audio/wordpool/SUPPER.wav", "conditions": [24, 1600, "a", 12000], "internal_node_id": "0.0-146.0", "trial": 5, "time_elapsed": 932736, "serialpos": 15, "key_press": -1, "wordID": 1410, "type": "PRES_AUD", "trial_index": 200}, "uniqueid": "MTK2500:3PMBY0YE28A66Q45LABHK7NZJBN9CX", "dateTime": 1517862349382}, {"current_trial": 201, "trialdata": {"rt": -1000, "trial_type": "single-audio", "word": "bug", "stimulus": "/static/audio/wordpool/BUG.wav", "conditions": [24, 1600, "a", 12000], "internal_node_id": "0.0-147.0", "trial": 5, "time_elapsed": 935383, "serialpos": 16, "key_press": -1, "wordID": 186, "type": "PRES_AUD", "trial_index": 201}, "uniqueid": "MTK2500:3PMBY0YE28A66Q45LABHK7NZJBN9CX", "dateTime": 1517862352029}, {"current_trial": 202, "trialdata": {"rt": -1000, "trial_type": "single-audio", "word": "lady", "stimulus": "/static/audio/wordpool/LADY.wav", "conditions": [24, 1600, "a", 12000], "internal_node_id": "0.0-148.0", "trial": 5, "time_elapsed": 937924, "serialpos": 17, "key_press": -1, "wordID": 793, "type": "PRES_AUD", "trial_index": 202}, "uniqueid": "MTK2500:3PMBY0YE28A66Q45LABHK7NZJBN9CX", "dateTime": 1517862354570}, {"current_trial": 203, "trialdata": {"rt": -1000, "trial_type": "single-audio", "word": "subway", "stimulus": "/static/audio/wordpool/SUBWAY.wav", "conditions": [24, 1600, "a", 12000], "internal_node_id": "0.0-149.0", "trial": 5, "time_elapsed": 940656, "serialpos": 18, "key_press": -1, "wordID": 1399, "type": "PRES_AUD", "trial_index": 203}, "uniqueid": "MTK2500:3PMBY0YE28A66Q45LABHK7NZJBN9CX", "dateTime": 1517862357302}, {"current_trial": 204, "trialdata": {"rt": -1000, "trial_type": "single-audio", "word": "tourist", "stimulus": "/static/audio/wordpool/TOURIST.wav", "conditions": [24, 1600, "a", 12000], "internal_node_id": "0.0-150.0", "trial": 5, "time_elapsed": 943360, "serialpos": 19, "key_press": -1, "wordID": 1487, "type": "PRES_AUD", "trial_index": 204}, "uniqueid": "MTK2500:3PMBY0YE28A66Q45LABHK7NZJBN9CX", "dateTime": 1517862360006}, {"current_trial": 205, "trialdata": {"rt": -1000, "trial_type": "single-audio", "word": "banquet", "stimulus": "/static/audio/wordpool/BANQUET.wav", "conditions": [24, 1600, "a", 12000], "internal_node_id": "0.0-151.0", "trial": 5, "time_elapsed": 945905, "serialpos": 20, "key_press": -1, "wordID": 85, "type": "PRES_AUD", "trial_index": 205}, "uniqueid": "MTK2500:3PMBY0YE28A66Q45LABHK7NZJBN9CX", "dateTime": 1517862362551}, {"current_trial": 206, "trialdata": {"rt": -1000, "trial_type": "single-audio", "word": "cowboy", "stimulus": "/static/audio/wordpool/COWBOY.wav", "conditions": [24, 1600, "a", 12000], "internal_node_id": "0.0-152.0", "trial": 5, "time_elapsed": 948606, "serialpos": 21, "key_press": -1, "wordID": 394, "type": "PRES_AUD", "trial_index": 206}, "uniqueid": "MTK2500:3PMBY0YE28A66Q45LABHK7NZJBN9CX", "dateTime": 1517862365252}, {"current_trial": 207, "trialdata": {"rt": -1000, "trial_type": "single-audio", "word": "stomach", "stimulus": "/static/audio/wordpool/STOMACH.wav", "conditions": [24, 1600, "a", 12000], "internal_node_id": "0.0-153.0", "trial": 5, "time_elapsed": 951176, "serialpos": 22, "key_press": -1, "wordID": 1383, "type": "PRES_AUD", "trial_index": 207}, "uniqueid": "MTK2500:3PMBY0YE28A66Q45LABHK7NZJBN9CX", "dateTime": 1517862367822}, {"current_trial": 208, "trialdata": {"rt": -1000, "trial_type": "single-audio", "word": "chest", "stimulus": "/static/audio/wordpool/CHEST.wav", "conditions": [24, 1600, "a", 12000], "internal_node_id": "0.0-154.0", "trial": 5, "time_elapsed": 953747, "serialpos": 23, "key_press": -1, "wordID": 294, "type": "PRES_AUD", "trial_index": 208}, "uniqueid": "MTK2500:3PMBY0YE28A66Q45LABHK7NZJBN9CX", "dateTime": 1517862370393}, {"current_trial": 209, "trialdata": {"rt": -1, "trial_type": "single-stim", "stimulus": "", "internal_node_id": "0.0-155.0-0.0", "time_elapsed": 955088, "key_press": -1, "type": "PRE_RECALL_DELAY", "trial_index": 209}, "uniqueid": "MTK2500:3PMBY0YE28A66Q45LABHK7NZJBN9CX", "dateTime": 1517862371734}, {"current_trial": 210, "trialdata": {"rt": -1000, "trial_type": "single-audio", "stimulus": "/static/audio/400Hz.wav", "internal_node_id": "0.0-156.0", "time_elapsed": 955589, "key_press": -1, "type": "PRE_RECALL_ALERT", "trial_index": 210}, "uniqueid": "MTK2500:3PMBY0YE28A66Q45LABHK7NZJBN9CX", "dateTime": 1517862372235}, {"current_trial": 211, "trialdata": {"rt": [5496, 7920, 11192, 14016, 16840, 19520, 22560, 25776, 28488, 30089, 33080, 37528, 42096, 46480, 49488, 51609, 53640, 55520, 58184], "recwords": ["stone", "foot", "dustpan", "beaver", "zipper", "rebel", "pilot", "igloo", "river", "lake", "saddle", "chipmonl", "cross", "empirer", "slime", "supper", "bug", "lady", "subway"], "key_times": [4408, 4744, 4952, 5192, 5336, 5496, 6968, 7424, 7624, 7768, 7920, 9328, 9552, 9664, 9856, 10416, 10608, 10824, 11192, 12880, 13040, 13216, 13464, 13632, 13808, 14016, 15632, 15752, 16144, 16352, 16504, 16664, 16840, 18320, 18464, 18752, 18976, 19120, 19520, 21408, 21720, 21960, 22160, 22400, 22560, 24912, 25112, 25232, 25464, 25632, 25776, 27424, 27576, 27921, 28096, 28272, 28488, 29416, 29632, 29792, 29936, 30089, 31192, 32161, 32544, 32704, 32824, 32968, 33080, 34840, 34984, 35384, 35809, 36576, 36912, 37128, 37336, 37528, 40832, 41104, 41577, 41768, 41936, 42096, 43320, 43681, 44104, 44360, 44362, 45312, 45856, 46136, 46312, 46480, 48608, 48720, 48952, 49192, 49336, 49488, 50160, 50352, 50824, 51016, 51160, 51328, 51609, 53129, 53336, 53504, 53640, 54600, 54752, 55032, 55376, 55520, 56384, 56848, 57129, 57561, 57744, 57928, 58184, 59064, 59248, 59464, 59624, 59728, 59872], "trial_type": "free-recall", "conditions": [24, 1600, "a", 12000], "internal_node_id": "0.0-157.0-0.0", "key_presses": [83, 84, 79, 78, 69, 32, 70, 79, 79, 84, 32, 68, 85, 83, 84, 80, 65, 78, 32, 66, 69, 65, 86, 69, 82, 32, 90, 73, 80, 80, 69, 82, 32, 82, 69, 66, 69, 76, 32, 80, 73, 76, 79, 84, 32, 73, 71, 76, 79, 79, 32, 82, 73, 86, 69, 82, 32, 76, 65, 75, 69, 32, 83, 65, 68, 68, 76, 69, 32, 67, 72, 73, 80, 77, 79, 78, 76, 32, 67, 82, 79, 83, 83, 32, 69, 77, 80, 73, 85, 8, 82, 69, 82, 32, 83, 76, 73, 77, 69, 32, 83, 85, 80, 80, 69, 82, 32, 66, 85, 71, 32, 76, 65, 68, 89, 32, 83, 85, 66, 87, 65, 89, 32, 84, 79, 82, 82, 73, 69], "trial": 5, "time_elapsed": 1015592, "type": "FREE_RECALL", "trial_index": 211}, "uniqueid": "MTK2500:3PMBY0YE28A66Q45LABHK7NZJBN9CX", "dateTime": 1517862432240}, {"current_trial": 212, "trialdata": {"rt": 739, "trial_type": "text", "internal_node_id": "0.0-158.0", "time_elapsed": 1018335, "key_press": 32, "type": "INSTRUCTIONS", "trial_index": 212}, "uniqueid": "MTK2500:3PMBY0YE28A66Q45LABHK7NZJBN9CX", "dateTime": 1517862434981}, {"current_trial": 213, "trialdata": {"rt": [3317, 6477, 9758, 12189, 15564, 18084, 20284], "trial_type": "math-distractor", "key_times": [2830, 3021, 3317, 6045, 6229, 6477, 9326, 9533, 9758, 11549, 11933, 12189, 15086, 15292, 15564, 17621, 17804, 18084, 19685, 19924, 20284], "responses": ["16", "14", "15", "16", "18", "14", "12"], "num2": [7, 7, 1, 7, 6, 2, 1, 5], "num3": [3, 4, 6, 6, 3, 5, 9, 2], "conditions": [24, 1600, "a", 24000], "internal_node_id": "0.0-159.0", "key_presses": [97, 102, 13, 97, 100, 13, 97, 101, 13, 97, 102, 13, 97, 104, 13, 97, 100, 13, 97, 98, 13], "trial": 6, "time_elapsed": 1044337, "type": "DISTRACTOR", "trial_index": 213, "num1": [6, 3, 8, 3, 9, 7, 2, 9]}, "uniqueid": "MTK2500:3PMBY0YE28A66Q45LABHK7NZJBN9CX", "dateTime": 1517862460983}, {"current_trial": 214, "trialdata": {"rt": -1, "trial_type": "single-stim", "stimulus": "<p id=\"stim\">10</p>", "internal_node_id": "0.0-160.0-0.0", "time_elapsed": 1047339, "key_press": -1, "trial_index": 214}, "uniqueid": "MTK2500:3PMBY0YE28A66Q45LABHK7NZJBN9CX", "dateTime": 1517862463985}, {"current_trial": 215, "trialdata": {"rt": -1, "trial_type": "single-stim", "stimulus": "<p id=\"stim\">9</p>", "internal_node_id": "0.0-160.0-1.0", "time_elapsed": 1048341, "key_press": -1, "trial_index": 215}, "uniqueid": "MTK2500:3PMBY0YE28A66Q45LABHK7NZJBN9CX", "dateTime": 1517862464987}, {"current_trial": 216, "trialdata": {"rt": -1, "trial_type": "single-stim", "stimulus": "<p id=\"stim\">8</p>", "internal_node_id": "0.0-160.0-2.0", "time_elapsed": 1049342, "key_press": -1, "trial_index": 216}, "uniqueid": "MTK2500:3PMBY0YE28A66Q45LABHK7NZJBN9CX", "dateTime": 1517862465988}, {"current_trial": 217, "trialdata": {"rt": -1, "trial_type": "single-stim", "stimulus": "<p id=\"stim\">7</p>", "internal_node_id": "0.0-160.0-3.0", "time_elapsed": 1050344, "key_press": -1, "trial_index": 217}, "uniqueid": "MTK2500:3PMBY0YE28A66Q45LABHK7NZJBN9CX", "dateTime": 1517862466990}, {"current_trial": 218, "trialdata": {"rt": -1, "trial_type": "single-stim", "stimulus": "<p id=\"stim\">6</p>", "internal_node_id": "0.0-160.0-4.0", "time_elapsed": 1051345, "key_press": -1, "trial_index": 218}, "uniqueid": "MTK2500:3PMBY0YE28A66Q45LABHK7NZJBN9CX", "dateTime": 1517862467991}, {"current_trial": 219, "trialdata": {"rt": -1, "trial_type": "single-stim", "stimulus": "<p id=\"stim\">5</p>", "internal_node_id": "0.0-160.0-5.0", "time_elapsed": 1052347, "key_press": -1, "trial_index": 219}, "uniqueid": "MTK2500:3PMBY0YE28A66Q45LABHK7NZJBN9CX", "dateTime": 1517862468993}, {"current_trial": 220, "trialdata": {"rt": -1, "trial_type": "single-stim", "stimulus": "<p id=\"stim\">4</p>", "internal_node_id": "0.0-160.0-6.0", "time_elapsed": 1053348, "key_press": -1, "trial_index": 220}, "uniqueid": "MTK2500:3PMBY0YE28A66Q45LABHK7NZJBN9CX", "dateTime": 1517862469994}, {"current_trial": 221, "trialdata": {"rt": -1, "trial_type": "single-stim", "stimulus": "<p id=\"stim\">3</p>", "internal_node_id": "0.0-160.0-7.0", "time_elapsed": 1054350, "key_press": -1, "trial_index": 221}, "uniqueid": "MTK2500:3PMBY0YE28A66Q45LABHK7NZJBN9CX", "dateTime": 1517862470996}, {"current_trial": 222, "trialdata": {"rt": -1, "trial_type": "single-stim", "stimulus": "<p id=\"stim\">2</p>", "internal_node_id": "0.0-160.0-8.0", "time_elapsed": 1055351, "key_press": -1, "trial_index": 222}, "uniqueid": "MTK2500:3PMBY0YE28A66Q45LABHK7NZJBN9CX", "dateTime": 1517862471997}, {"current_trial": 223, "trialdata": {"rt": -1, "trial_type": "single-stim", "stimulus": "<p id=\"stim\">1</p>", "internal_node_id": "0.0-160.0-9.0", "time_elapsed": 1056352, "key_press": -1, "trial_index": 223}, "uniqueid": "MTK2500:3PMBY0YE28A66Q45LABHK7NZJBN9CX", "dateTime": 1517862472999}, {"current_trial": 224, "trialdata": {"rt": -1, "trial_type": "single-stim", "stimulus": "<p id=\"stim\">+</p>", "internal_node_id": "0.0-161.0-0.0", "time_elapsed": 1057853, "key_press": -1, "type": "FIXATION", "trial_index": 224}, "uniqueid": "MTK2500:3PMBY0YE28A66Q45LABHK7NZJBN9CX", "dateTime": 1517862474499}, {"current_trial": 225, "trialdata": {"rt": -1000, "trial_type": "single-audio", "word": "postage", "stimulus": "/static/audio/wordpool/POSTAGE.wav", "conditions": [24, 1600, "a", 24000], "internal_node_id": "0.0-162.0", "trial": 6, "time_elapsed": 1060598, "serialpos": 0, "key_press": -1, "wordID": 1112, "type": "PRES_AUD", "trial_index": 225}, "uniqueid": "MTK2500:3PMBY0YE28A66Q45LABHK7NZJBN9CX", "dateTime": 1517862477244}, {"current_trial": 226, "trialdata": {"rt": -1000, "trial_type": "single-audio", "word": "scotch", "stimulus": "/static/audio/wordpool/SCOTCH.wav", "conditions": [24, 1600, "a", 24000], "internal_node_id": "0.0-163.0", "trial": 6, "time_elapsed": 1063028, "serialpos": 1, "key_press": -1, "wordID": 1250, "type": "PRES_AUD", "trial_index": 226}, "uniqueid": "MTK2500:3PMBY0YE28A66Q45LABHK7NZJBN9CX", "dateTime": 1517862479675}, {"current_trial": 227, "trialdata": {"rt": -1000, "trial_type": "single-audio", "word": "slug", "stimulus": "/static/audio/wordpool/SLUG.wav", "conditions": [24, 1600, "a", 24000], "internal_node_id": "0.0-164.0", "trial": 6, "time_elapsed": 1065552, "serialpos": 2, "key_press": -1, "wordID": 1328, "type": "PRES_AUD", "trial_index": 227}, "uniqueid": "MTK2500:3PMBY0YE28A66Q45LABHK7NZJBN9CX", "dateTime": 1517862482198}, {"current_trial": 228, "trialdata": {"rt": -1000, "trial_type": "single-audio", "word": "branch", "stimulus": "/static/audio/wordpool/BRANCH.wav", "conditions": [24, 1600, "a", 24000], "internal_node_id": "0.0-165.0", "trial": 6, "time_elapsed": 1068217, "serialpos": 3, "key_press": -1, "wordID": 167, "type": "PRES_AUD", "trial_index": 228}, "uniqueid": "MTK2500:3PMBY0YE28A66Q45LABHK7NZJBN9CX", "dateTime": 1517862484863}, {"current_trial": 229, "trialdata": {"rt": -1000, "trial_type": "single-audio", "word": "bank", "stimulus": "/static/audio/wordpool/BANK.wav", "conditions": [24, 1600, "a", 24000], "internal_node_id": "0.0-166.0", "trial": 6, "time_elapsed": 1070904, "serialpos": 4, "key_press": -1, "wordID": 82, "type": "PRES_AUD", "trial_index": 229}, "uniqueid": "MTK2500:3PMBY0YE28A66Q45LABHK7NZJBN9CX", "dateTime": 1517862487550}, {"current_trial": 230, "trialdata": {"rt": -1000, "trial_type": "single-audio", "word": "table", "stimulus": "/static/audio/wordpool/TABLE.wav", "conditions": [24, 1600, "a", 24000], "internal_node_id": "0.0-167.0", "trial": 6, "time_elapsed": 1073432, "serialpos": 5, "key_press": -1, "wordID": 1425, "type": "PRES_AUD", "trial_index": 230}, "uniqueid": "MTK2500:3PMBY0YE28A66Q45LABHK7NZJBN9CX", "dateTime": 1517862490078}, {"current_trial": 231, "trialdata": {"rt": -1000, "trial_type": "single-audio", "word": "cupboard", "stimulus": "/static/audio/wordpool/CUPBOARD.wav", "conditions": [24, 1600, "a", 24000], "internal_node_id": "0.0-168.0", "trial": 6, "time_elapsed": 1075886, "serialpos": 6, "key_press": -1, "wordID": 424, "type": "PRES_AUD", "trial_index": 231}, "uniqueid": "MTK2500:3PMBY0YE28A66Q45LABHK7NZJBN9CX", "dateTime": 1517862492532}, {"current_trial": 232, "trialdata": {"rt": -1000, "trial_type": "single-audio", "word": "pizza", "stimulus": "/static/audio/wordpool/PIZZA.wav", "conditions": [24, 1600, "a", 24000], "internal_node_id": "0.0-169.0", "trial": 6, "time_elapsed": 1078679, "serialpos": 7, "key_press": -1, "wordID": 1078, "type": "PRES_AUD", "trial_index": 232}, "uniqueid": "MTK2500:3PMBY0YE28A66Q45LABHK7NZJBN9CX", "dateTime": 1517862495325}, {"current_trial": 233, "trialdata": {"rt": -1000, "trial_type": "single-audio", "word": "pimple", "stimulus": "/static/audio/wordpool/PIMPLE.wav", "conditions": [24, 1600, "a", 24000], "internal_node_id": "0.0-170.0", "trial": 6, "time_elapsed": 1081153, "serialpos": 8, "key_press": -1, "wordID": 1070, "type": "PRES_AUD", "trial_index": 233}, "uniqueid": "MTK2500:3PMBY0YE28A66Q45LABHK7NZJBN9CX", "dateTime": 1517862497799}, {"current_trial": 234, "trialdata": {"rt": -1000, "trial_type": "single-audio", "word": "princess", "stimulus": "/static/audio/wordpool/PRINCESS.wav", "conditions": [24, 1600, "a", 24000], "internal_node_id": "0.0-171.0", "trial": 6, "time_elapsed": 1083804, "serialpos": 9, "key_press": -1, "wordID": 1124, "type": "PRES_AUD", "trial_index": 234}, "uniqueid": "MTK2500:3PMBY0YE28A66Q45LABHK7NZJBN9CX", "dateTime": 1517862500450}, {"current_trial": 235, "trialdata": {"rt": -1000, "trial_type": "single-audio", "word": "dresser", "stimulus": "/static/audio/wordpool/DRESSER.wav", "conditions": [24, 1600, "a", 24000], "internal_node_id": "0.0-172.0", "trial": 6, "time_elapsed": 1086281, "serialpos": 10, "key_press": -1, "wordID": 495, "type": "PRES_AUD", "trial_index": 235}, "uniqueid": "MTK2500:3PMBY0YE28A66Q45LABHK7NZJBN9CX", "dateTime": 1517862502927}, {"current_trial": 236, "trialdata": {"rt": -1000, "trial_type": "single-audio", "word": "army", "stimulus": "/static/audio/wordpool/ARMY.wav", "conditions": [24, 1600, "a", 24000], "internal_node_id": "0.0-173.0", "trial": 6, "time_elapsed": 1088854, "serialpos": 11, "key_press": -1, "wordID": 38, "type": "PRES_AUD", "trial_index": 236}, "uniqueid": "MTK2500:3PMBY0YE28A66Q45LABHK7NZJBN9CX", "dateTime": 1517862505500}, {"current_trial": 237, "trialdata": {"rt": -1000, "trial_type": "single-audio", "word": "chauffeur", "stimulus": "/static/audio/wordpool/CHAUFFEUR.wav", "conditions": [24, 1600, "a", 24000], "internal_node_id": "0.0-174.0", "trial": 6, "time_elapsed": 1091550, "serialpos": 12, "key_press": -1, "wordID": 282, "type": "PRES_AUD", "trial_index": 237}, "uniqueid": "MTK2500:3PMBY0YE28A66Q45LABHK7NZJBN9CX", "dateTime": 1517862508196}, {"current_trial": 238, "trialdata": {"rt": -1000, "trial_type": "single-audio", "word": "pastry", "stimulus": "/static/audio/wordpool/PASTRY.wav", "conditions": [24, 1600, "a", 24000], "internal_node_id": "0.0-175.0", "trial": 6, "time_elapsed": 1094335, "serialpos": 13, "key_press": -1, "wordID": 1021, "type": "PRES_AUD", "trial_index": 238}, "uniqueid": "MTK2500:3PMBY0YE28A66Q45LABHK7NZJBN9CX", "dateTime": 1517862510981}, {"current_trial": 239, "trialdata": {"rt": -1000, "trial_type": "single-audio", "word": "racket", "stimulus": "/static/audio/wordpool/RACKET.wav", "conditions": [24, 1600, "a", 24000], "internal_node_id": "0.0-176.0", "trial": 6, "time_elapsed": 1097064, "serialpos": 14, "key_press": -1, "wordID": 1154, "type": "PRES_AUD", "trial_index": 239}, "uniqueid": "MTK2500:3PMBY0YE28A66Q45LABHK7NZJBN9CX", "dateTime": 1517862513711}, {"current_trial": 240, "trialdata": {"rt": -1000, "trial_type": "single-audio", "word": "coin", "stimulus": "/static/audio/wordpool/COIN.wav", "conditions": [24, 1600, "a", 24000], "internal_node_id": "0.0-177.0", "trial": 6, "time_elapsed": 1099649, "serialpos": 15, "key_press": -1, "wordID": 342, "type": "PRES_AUD", "trial_index": 240}, "uniqueid": "MTK2500:3PMBY0YE28A66Q45LABHK7NZJBN9CX", "dateTime": 1517862516295}, {"current_trial": 241, "trialdata": {"rt": -1000, "trial_type": "single-audio", "word": "shortcake", "stimulus": "/static/audio/wordpool/SHORTCAKE.wav", "conditions": [24, 1600, "a", 24000], "internal_node_id": "0.0-178.0", "trial": 6, "time_elapsed": 1102288, "serialpos": 16, "key_press": -1, "wordID": 1291, "type": "PRES_AUD", "trial_index": 241}, "uniqueid": "MTK2500:3PMBY0YE28A66Q45LABHK7NZJBN9CX", "dateTime": 1517862518934}, {"current_trial": 242, "trialdata": {"rt": -1000, "trial_type": "single-audio", "word": "airport", "stimulus": "/static/audio/wordpool/AIRPORT.wav", "conditions": [24, 1600, "a", 24000], "internal_node_id": "0.0-179.0", "trial": 6, "time_elapsed": 1104968, "serialpos": 17, "key_press": -1, "wordID": 12, "type": "PRES_AUD", "trial_index": 242}, "uniqueid": "MTK2500:3PMBY0YE28A66Q45LABHK7NZJBN9CX", "dateTime": 1517862521614}, {"current_trial": 243, "trialdata": {"rt": -1000, "trial_type": "single-audio", "word": "police", "stimulus": "/static/audio/wordpool/POLICE.wav", "conditions": [24, 1600, "a", 24000], "internal_node_id": "0.0-180.0", "trial": 6, "time_elapsed": 1107613, "serialpos": 18, "key_press": -1, "wordID"