{"assignmentId": "39ASUFLU6YEB4K6HKHNQQY9KAJUEX2", "workerId": "MTK2116", "questiondata": {"origin": "United States", "strat-rehearsal": "50", "marital": "Married/Domestic Partnership", "education": "Master's degree", "ethnicity": "Not Hispanic", "color_depth": 24, "distracted": "No", "wrote-notes": "No", "strat-other": "n/a", "screen_width": 1093, "avail_screen_width": 1093, "avail_screen_height": 576, "strat-image": "12", "language": "English", "gender": "Female", "age": "32", "gender_other": "", "race": ["Black"], "strat-categorize": "25", "pixel_depth": 24, "strat-spatial": "0", "strat-story": "13", "race_other": "", "screen_height": 615}, "bonus": 0, "hitId": "31KSVEGZ34ZJ14826G62Y2YCYM7RWV", "counterbalance": 1082, "useragent": "Mozilla/5.0 (Windows NT 6.1; Win64; x64) AppleWebKit/537.36 (KHTML, like Gecko) Chrome/63.0.3239.132 Safari/537.36", "eventdata": [{"eventtype": "initialized", "interval": 0, "value": null, "timestamp": 1516735182497}, {"eventtype": "window_resize", "interval": 0, "value": [1096, 568], "timestamp": 1516735182497}, {"eventtype": "focus", "interval": 10361, "value": "off", "timestamp": 1516735192858}, {"eventtype": "focus", "interval": 8032, "value": "on", "timestamp": 1516735200890}, {"eventtype": "window_resize", "interval": 107296, "value": [1094, 527], "timestamp": 1516735308186}], "data": [{"current_trial": 0, "trialdata": {"rt": 1761, "trial_type": "text", "internal_node_id": "0.0-0.0", "time_elapsed": 1765, "key_press": 32, "type": "INSTRUCTIONS", "trial_index": 0}, "uniqueid": "MTK2116:39ASUFLU6YEB4K6HKHNQQY9KAJUEX2", "dateTime": 1516735208948}, {"current_trial": 1, "trialdata": {"rt": 2147, "trial_type": "text", "internal_node_id": "0.0-1.0", "time_elapsed": 3916, "key_press": 38, "type": "INSTRUCTIONS", "trial_index": 1}, "uniqueid": "MTK2116:39ASUFLU6YEB4K6HKHNQQY9KAJUEX2", "dateTime": 1516735211098}, {"current_trial": 2, "trialdata": {"rt": [25205], "trial_type": "audio-test", "responses": ["ocean"], "internal_node_id": "0.0-2.0", "time_elapsed": 29292, "type": "AUDIO_TEST", "trial_index": 2}, "uniqueid": "MTK2116:39ASUFLU6YEB4K6HKHNQQY9KAJUEX2", "dateTime": 1516735236475}, {"current_trial": 3, "trialdata": {"rt": [8242], "trial_type": "audio-test", "responses": ["crystal"], "internal_node_id": "0.0-3.0", "time_elapsed": 37545, "type": "AUDIO_TEST", "trial_index": 3}, "uniqueid": "MTK2116:39ASUFLU6YEB4K6HKHNQQY9KAJUEX2", "dateTime": 1516735244727}, {"current_trial": 4, "trialdata": {"rt": [6072], "trial_type": "audio-test", "responses": ["spice"], "internal_node_id": "0.0-4.0", "time_elapsed": 43627, "type": "AUDIO_TEST", "trial_index": 4}, "uniqueid": "MTK2116:39ASUFLU6YEB4K6HKHNQQY9KAJUEX2", "dateTime": 1516735250809}, {"current_trial": 5, "trialdata": {"rt": 86836, "trial_type": "survey-text", "responses": "{\"Q0\":\"1:30 a.m.\",\"Q1\":\"8:00 a.m.\",\"Q2\":\"5\"}", "internal_node_id": "0.0-5.0", "time_elapsed": 131219, "type": "SLEEP_SURVEY", "trial_index": 5}, "uniqueid": "MTK2116:39ASUFLU6YEB4K6HKHNQQY9KAJUEX2", "dateTime": 1516735338402}, {"current_trial": 6, "trialdata": {"rt": 41314, "trial_type": "text", "internal_node_id": "0.0-6.0", "time_elapsed": 173536, "key_press": 32, "type": "INSTRUCTIONS", "trial_index": 6}, "uniqueid": "MTK2116:39ASUFLU6YEB4K6HKHNQQY9KAJUEX2", "dateTime": 1516735380718}, {"current_trial": 7, "trialdata": {"rt": 58486, "trial_type": "text", "internal_node_id": "0.0-7.0", "time_elapsed": 232524, "key_press": 32, "type": "INSTRUCTIONS", "trial_index": 7}, "uniqueid": "MTK2116:39ASUFLU6YEB4K6HKHNQQY9KAJUEX2", "dateTime": 1516735439706}, {"current_trial": 8, "trialdata": {"rt": 10376, "trial_type": "text", "internal_node_id": "0.0-8.0", "time_elapsed": 243402, "key_press": 32, "type": "INSTRUCTIONS", "trial_index": 8}, "uniqueid": "MTK2116:39ASUFLU6YEB4K6HKHNQQY9KAJUEX2", "dateTime": 1516735450584}, {"current_trial": 9, "trialdata": {"rt": [3917, 7242, 10065, 12029, 14854, 16715], "trial_type": "math-distractor", "key_times": [2670, 3917, 6295, 6442, 7242, 9045, 9343, 10065, 11523, 11742, 12029, 14255, 14854, 16213, 16434, 16715, 17809], "responses": ["9", "17", "18", "13", "9", "14"], "num2": [3, 8, 1, 8, 3, 9, 5], "num3": [5, 1, 8, 4, 2, 1, 5], "conditions": [18, 1200, "a", 18000], "internal_node_id": "0.0-9.0", "key_presses": [57, 13, 49, 55, 13, 49, 56, 13, 49, 51, 13, 57, 13, 49, 52, 13, 49], "trial": 0, "time_elapsed": 262417, "type": "DISTRACTOR", "trial_index": 9, "num1": [1, 8, 9, 1, 4, 4, 5]}, "uniqueid": "MTK2116:39ASUFLU6YEB4K6HKHNQQY9KAJUEX2", "dateTime": 1516735469599}, {"current_trial": 10, "trialdata": {"rt": -1, "trial_type": "single-stim", "stimulus": "<p id=\"stim\">10</p>", "internal_node_id": "0.0-10.0-0.0", "time_elapsed": 265422, "key_press": -1, "trial_index": 10}, "uniqueid": "MTK2116:39ASUFLU6YEB4K6HKHNQQY9KAJUEX2", "dateTime": 1516735472604}, {"current_trial": 11, "trialdata": {"rt": -1, "trial_type": "single-stim", "stimulus": "<p id=\"stim\">9</p>", "internal_node_id": "0.0-10.0-1.0", "time_elapsed": 266425, "key_press": -1, "trial_index": 11}, "uniqueid": "MTK2116:39ASUFLU6YEB4K6HKHNQQY9KAJUEX2", "dateTime": 1516735473607}, {"current_trial": 12, "trialdata": {"rt": -1, "trial_type": "single-stim", "stimulus": "<p id=\"stim\">8</p>", "internal_node_id": "0.0-10.0-2.0", "time_elapsed": 267426, "key_press": -1, "trial_index": 12}, "uniqueid": "MTK2116:39ASUFLU6YEB4K6HKHNQQY9KAJUEX2", "dateTime": 1516735474608}, {"current_trial": 13, "trialdata": {"rt": -1, "trial_type": "single-stim", "stimulus": "<p id=\"stim\">7</p>", "internal_node_id": "0.0-10.0-3.0", "time_elapsed": 268428, "key_press": -1, "trial_index": 13}, "uniqueid": "MTK2116:39ASUFLU6YEB4K6HKHNQQY9KAJUEX2", "dateTime": 1516735475610}, {"current_trial": 14, "trialdata": {"rt": -1, "trial_type": "single-stim", "stimulus": "<p id=\"stim\">6</p>", "internal_node_id": "0.0-10.0-4.0", "time_elapsed": 269430, "key_press": -1, "trial_index": 14}, "uniqueid": "MTK2116:39ASUFLU6YEB4K6HKHNQQY9KAJUEX2", "dateTime": 1516735476613}, {"current_trial": 15, "trialdata": {"rt": -1, "trial_type": "single-stim", "stimulus": "<p id=\"stim\">5</p>", "internal_node_id": "0.0-10.0-5.0", "time_elapsed": 270434, "key_press": -1, "trial_index": 15}, "uniqueid": "MTK2116:39ASUFLU6YEB4K6HKHNQQY9KAJUEX2", "dateTime": 1516735477616}, {"current_trial": 16, "trialdata": {"rt": -1, "trial_type": "single-stim", "stimulus": "<p id=\"stim\">4</p>", "internal_node_id": "0.0-10.0-6.0", "time_elapsed": 271437, "key_press": -1, "trial_index": 16}, "uniqueid": "MTK2116:39ASUFLU6YEB4K6HKHNQQY9KAJUEX2", "dateTime": 1516735478619}, {"current_trial": 17, "trialdata": {"rt": -1, "trial_type": "single-stim", "stimulus": "<p id=\"stim\">3</p>", "internal_node_id": "0.0-10.0-7.0", "time_elapsed": 272438, "key_press": -1, "trial_index": 17}, "uniqueid": "MTK2116:39ASUFLU6YEB4K6HKHNQQY9KAJUEX2", "dateTime": 1516735479620}, {"current_trial": 18, "trialdata": {"rt": -1, "trial_type": "single-stim", "stimulus": "<p id=\"stim\">2</p>", "internal_node_id": "0.0-10.0-8.0", "time_elapsed": 273439, "key_press": -1, "trial_index": 18}, "uniqueid": "MTK2116:39ASUFLU6YEB4K6HKHNQQY9KAJUEX2", "dateTime": 1516735480621}, {"current_trial": 19, "trialdata": {"rt": -1, "trial_type": "single-stim", "stimulus": "<p id=\"stim\">1</p>", "internal_node_id": "0.0-10.0-9.0", "time_elapsed": 274440, "key_press": -1, "trial_index": 19}, "uniqueid": "MTK2116:39ASUFLU6YEB4K6HKHNQQY9KAJUEX2", "dateTime": 1516735481622}, {"current_trial": 20, "trialdata": {"rt": -1, "trial_type": "single-stim", "stimulus": "<p id=\"stim\">+</p>", "internal_node_id": "0.0-11.0-0.0", "time_elapsed": 275941, "key_press": -1, "type": "FIXATION", "trial_index": 20}, "uniqueid": "MTK2116:39ASUFLU6YEB4K6HKHNQQY9KAJUEX2", "dateTime": 1516735483123}, {"current_trial": 21, "trialdata": {"rt": -1000, "trial_type": "single-audio", "word": "toaster", "stimulus": "/static/audio/wordpool/TOASTER.wav", "conditions": [18, 1200, "a", 18000], "internal_node_id": "0.0-12.0", "trial": 0, "time_elapsed": 278171, "serialpos": 0, "key_press": -1, "wordID": 1471, "type": "PRES_AUD", "trial_index": 21}, "uniqueid": "MTK2116:39ASUFLU6YEB4K6HKHNQQY9KAJUEX2", "dateTime": 1516735485353}, {"current_trial": 22, "trialdata": {"rt": -1000, "trial_type": "single-audio", "word": "tourist", "stimulus": "/static/audio/wordpool/TOURIST.wav", "conditions": [18, 1200, "a", 18000], "internal_node_id": "0.0-13.0", "trial": 0, "time_elapsed": 280548, "serialpos": 1, "key_press": -1, "wordID": 1487, "type": "PRES_AUD", "trial_index": 22}, "uniqueid": "MTK2116:39ASUFLU6YEB4K6HKHNQQY9KAJUEX2", "dateTime": 1516735487730}, {"current_trial": 23, "trialdata": {"rt": -1000, "trial_type": "single-audio", "word": "stream", "stimulus": "/static/audio/wordpool/STREAM.wav", "conditions": [18, 1200, "a", 18000], "internal_node_id": "0.0-14.0", "trial": 0, "time_elapsed": 282944, "serialpos": 2, "key_press": -1, "wordID": 1391, "type": "PRES_AUD", "trial_index": 23}, "uniqueid": "MTK2116:39ASUFLU6YEB4K6HKHNQQY9KAJUEX2", "dateTime": 1516735490126}, {"current_trial": 24, "trialdata": {"rt": -1000, "trial_type": "single-audio", "word": "blockade", "stimulus": "/static/audio/wordpool/BLOCKADE.wav", "conditions": [18, 1200, "a", 18000], "internal_node_id": "0.0-15.0", "trial": 0, "time_elapsed": 285168, "serialpos": 3, "key_press": -1, "wordID": 136, "type": "PRES_AUD", "trial_index": 24}, "uniqueid": "MTK2116:39ASUFLU6YEB4K6HKHNQQY9KAJUEX2", "dateTime": 1516735492350}, {"current_trial": 25, "trialdata": {"rt": -1000, "trial_type": "single-audio", "word": "space", "stimulus": "/static/audio/wordpool/SPACE.wav", "conditions": [18, 1200, "a", 18000], "internal_node_id": "0.0-16.0", "trial": 0, "time_elapsed": 287231, "serialpos": 4, "key_press": -1, "wordID": 1344, "type": "PRES_AUD", "trial_index": 25}, "uniqueid": "MTK2116:39ASUFLU6YEB4K6HKHNQQY9KAJUEX2", "dateTime": 1516735494413}, {"current_trial": 26, "trialdata": {"rt": -1000, "trial_type": "single-audio", "word": "whiskers", "stimulus": "/static/audio/wordpool/WHISKERS.wav", "conditions": [18, 1200, "a", 18000], "internal_node_id": "0.0-17.0", "trial": 0, "time_elapsed": 289549, "serialpos": 5, "key_press": -1, "wordID": 1604, "type": "PRES_AUD", "trial_index": 26}, "uniqueid": "MTK2116:39ASUFLU6YEB4K6HKHNQQY9KAJUEX2", "dateTime": 1516735496731}, {"current_trial": 27, "trialdata": {"rt": -1000, "trial_type": "single-audio", "word": "drill", "stimulus": "/static/audio/wordpool/DRILL.wav", "conditions": [18, 1200, "a", 18000], "internal_node_id": "0.0-18.0", "trial": 0, "time_elapsed": 291732, "serialpos": 6, "key_press": -1, "wordID": 496, "type": "PRES_AUD", "trial_index": 27}, "uniqueid": "MTK2116:39ASUFLU6YEB4K6HKHNQQY9KAJUEX2", "dateTime": 1516735498914}, {"current_trial": 28, "trialdata": {"rt": -1000, "trial_type": "single-audio", "word": "shelter", "stimulus": "/static/audio/wordpool/SHELTER.wav", "conditions": [18, 1200, "a", 18000], "internal_node_id": "0.0-19.0", "trial": 0, "time_elapsed": 293749, "serialpos": 7, "key_press": -1, "wordID": 1281, "type": "PRES_AUD", "trial_index": 28}, "uniqueid": "MTK2116:39ASUFLU6YEB4K6HKHNQQY9KAJUEX2", "dateTime": 1516735500931}, {"current_trial": 29, "trialdata": {"rt": -1000, "trial_type": "single-audio", "word": "concert", "stimulus": "/static/audio/wordpool/CONCERT.wav", "conditions": [18, 1200, "a", 18000], "internal_node_id": "0.0-20.0", "trial": 0, "time_elapsed": 296133, "serialpos": 8, "key_press": -1, "wordID": 359, "type": "PRES_AUD", "trial_index": 29}, "uniqueid": "MTK2116:39ASUFLU6YEB4K6HKHNQQY9KAJUEX2", "dateTime": 1516735503315}, {"current_trial": 30, "trialdata": {"rt": -1000, "trial_type": "single-audio", "word": "county", "stimulus": "/static/audio/wordpool/COUNTY.wav", "conditions": [18, 1200, "a", 18000], "internal_node_id": "0.0-21.0", "trial": 0, "time_elapsed": 298354, "serialpos": 9, "key_press": -1, "wordID": 388, "type": "PRES_AUD", "trial_index": 30}, "uniqueid": "MTK2116:39ASUFLU6YEB4K6HKHNQQY9KAJUEX2", "dateTime": 1516735505536}, {"current_trial": 31, "trialdata": {"rt": -1000, "trial_type": "single-audio", "word": "lady", "stimulus": "/static/audio/wordpool/LADY.wav", "conditions": [18, 1200, "a", 18000], "internal_node_id": "0.0-22.0", "trial": 0, "time_elapsed": 300443, "serialpos": 10, "key_press": -1, "wordID": 793, "type": "PRES_AUD", "trial_index": 31}, "uniqueid": "MTK2116:39ASUFLU6YEB4K6HKHNQQY9KAJUEX2", "dateTime": 1516735507625}, {"current_trial": 32, "trialdata": {"rt": -1000, "trial_type": "single-audio", "word": "monster", "stimulus": "/static/audio/wordpool/MONSTER.wav", "conditions": [18, 1200, "a", 18000], "internal_node_id": "0.0-23.0", "trial": 0, "time_elapsed": 302553, "serialpos": 11, "key_press": -1, "wordID": 911, "type": "PRES_AUD", "trial_index": 32}, "uniqueid": "MTK2116:39ASUFLU6YEB4K6HKHNQQY9KAJUEX2", "dateTime": 1516735509735}, {"current_trial": 33, "trialdata": {"rt": -1000, "trial_type": "single-audio", "word": "lake", "stimulus": "/static/audio/wordpool/LAKE.wav", "conditions": [18, 1200, "a", 18000], "internal_node_id": "0.0-24.0", "trial": 0, "time_elapsed": 304882, "serialpos": 12, "key_press": -1, "wordID": 795, "type": "PRES_AUD", "trial_index": 33}, "uniqueid": "MTK2116:39ASUFLU6YEB4K6HKHNQQY9KAJUEX2", "dateTime": 1516735512064}, {"current_trial": 34, "trialdata": {"rt": -1000, "trial_type": "single-audio", "word": "brandy", "stimulus": "/static/audio/wordpool/BRANDY.wav", "conditions": [18, 1200, "a", 18000], "internal_node_id": "0.0-25.0", "trial": 0, "time_elapsed": 306960, "serialpos": 13, "key_press": -1, "wordID": 168, "type": "PRES_AUD", "trial_index": 34}, "uniqueid": "MTK2116:39ASUFLU6YEB4K6HKHNQQY9KAJUEX2", "dateTime": 1516735514142}, {"current_trial": 35, "trialdata": {"rt": -1000, "trial_type": "single-audio", "word": "receipt", "stimulus": "/static/audio/wordpool/RECEIPT.wav", "conditions": [18, 1200, "a", 18000], "internal_node_id": "0.0-26.0", "trial": 0, "time_elapsed": 309094, "serialpos": 14, "key_press": -1, "wordID": 1172, "type": "PRES_AUD", "trial_index": 35}, "uniqueid": "MTK2116:39ASUFLU6YEB4K6HKHNQQY9KAJUEX2", "dateTime": 1516735516277}, {"current_trial": 36, "trialdata": {"rt": -1000, "trial_type": "single-audio", "word": "clamp", "stimulus": "/static/audio/wordpool/CLAMP.wav", "conditions": [18, 1200, "a", 18000], "internal_node_id": "0.0-27.0", "trial": 0, "time_elapsed": 311257, "serialpos": 15, "key_press": -1, "wordID": 315, "type": "PRES_AUD", "trial_index": 36}, "uniqueid": "MTK2116:39ASUFLU6YEB4K6HKHNQQY9KAJUEX2", "dateTime": 1516735518439}, {"current_trial": 37, "trialdata": {"rt": -1000, "trial_type": "single-audio", "word": "yacht", "stimulus": "/static/audio/wordpool/YACHT.wav", "conditions": [18, 1200, "a", 18000], "internal_node_id": "0.0-28.0", "trial": 0, "time_elapsed": 313394, "serialpos": 16, "key_press": -1, "wordID": 1628, "type": "PRES_AUD", "trial_index": 37}, "uniqueid": "MTK2116:39ASUFLU6YEB4K6HKHNQQY9KAJUEX2", "dateTime": 1516735520578}, {"current_trial": 38, "trialdata": {"rt": -1000, "trial_type": "single-audio", "word": "sculpture", "stimulus": "/static/audio/wordpool/SCULPTURE.wav", "conditions": [18, 1200, "a", 18000], "internal_node_id": "0.0-29.0", "trial": 0, "time_elapsed": 315587, "serialpos": 17, "key_press": -1, "wordID": 1257, "type": "PRES_AUD", "trial_index": 38}, "uniqueid": "MTK2116:39ASUFLU6YEB4K6HKHNQQY9KAJUEX2", "dateTime": 1516735522769}, {"current_trial": 39, "trialdata": {"rt": -1, "trial_type": "single-stim", "stimulus": "", "internal_node_id": "0.0-30.0-0.0", "time_elapsed": 316853, "key_press": -1, "type": "PRE_RECALL_DELAY", "trial_index": 39}, "uniqueid": "MTK2116:39ASUFLU6YEB4K6HKHNQQY9KAJUEX2", "dateTime": 1516735524035}, {"current_trial": 40, "trialdata": {"rt": -1000, "trial_type": "single-audio", "stimulus": "/static/audio/400Hz.wav", "internal_node_id": "0.0-31.0", "time_elapsed": 317355, "key_press": -1, "type": "PRE_RECALL_ALERT", "trial_index": 40}, "uniqueid": "MTK2116:39ASUFLU6YEB4K6HKHNQQY9KAJUEX2", "dateTime": 1516735524538}, {"current_trial": 41, "trialdata": {"rt": [6709, 8955, 11060, 12796, 15818, 18162, 20575], "recwords": ["toaster", "tourist", "stream", "lady", "yatch", "counter", "stream"], "key_times": [1308, 1554, 1688, 1885, 2032, 2111, 2219, 3264, 3453, 3619, 3801, 3959, 4660, 5371, 5511, 5657, 5811, 5918, 6045, 6709, 7603, 7737, 7883, 8053, 8336, 8498, 8780, 8955, 9280, 9549, 9816, 9959, 10143, 10338, 11060, 11471, 11702, 11982, 12124, 12796, 13546, 14143, 14416, 14667, 14937, 15818, 16269, 16475, 16639, 16872, 17010, 17247, 17387, 18162, 18866, 19151, 19360, 19482, 19656, 19842, 20575], "trial_type": "free-recall", "conditions": [18, 1200, "a", 18000], "internal_node_id": "0.0-32.0-0.0", "key_presses": [84, 65, 79, 83, 84, 69, 82, 8, 8, 8, 8, 8, 8, 79, 65, 83, 84, 69, 82, 13, 84, 79, 85, 82, 73, 83, 84, 13, 83, 84, 82, 69, 65, 77, 13, 76, 65, 68, 89, 13, 89, 65, 84, 67, 72, 13, 67, 79, 85, 78, 84, 69, 82, 13, 83, 84, 82, 69, 65, 77, 13], "trial": 0, "time_elapsed": 377364, "type": "FREE_RECALL", "trial_index": 41}, "uniqueid": "MTK2116:39ASUFLU6YEB4K6HKHNQQY9KAJUEX2", "dateTime": 1516735584549}, {"current_trial": 42, "trialdata": {"rt": 1575, "trial_type": "text", "internal_node_id": "0.0-33.0", "time_elapsed": 380944, "key_press": 32, "type": "INSTRUCTIONS", "trial_index": 42}, "uniqueid": "MTK2116:39ASUFLU6YEB4K6HKHNQQY9KAJUEX2", "dateTime": 1516735588127}, {"current_trial": 43, "trialdata": {"rt": [3452, 5399, 7471, 9427, 13187], "trial_type": "math-distractor", "key_times": [2883, 3203, 3452, 4879, 5100, 5399, 6861, 7066, 7471, 8818, 9427, 12508, 12939, 13187, 15050, 15731], "responses": ["15", "13", "16", "9", "15"], "num2": [8, 2, 7, 1, 9, 5], "num3": [4, 4, 4, 7, 3, 9], "conditions": [18, 1200, "a", 18000], "internal_node_id": "0.0-34.0", "key_presses": [49, 53, 13, 49, 51, 13, 49, 54, 13, 57, 13, 49, 53, 13, 49, 55], "trial": 1, "time_elapsed": 400950, "type": "DISTRACTOR", "trial_index": 43, "num1": [3, 7, 5, 1, 3, 3]}, "uniqueid": "MTK2116:39ASUFLU6YEB4K6HKHNQQY9KAJUEX2", "dateTime": 1516735608132}, {"current_trial": 44, "trialdata": {"rt": -1, "trial_type": "single-stim", "stimulus": "<p id=\"stim\">10</p>", "internal_node_id": "0.0-35.0-0.0", "time_elapsed": 403952, "key_press": -1, "trial_index": 44}, "uniqueid": "MTK2116:39ASUFLU6YEB4K6HKHNQQY9KAJUEX2", "dateTime": 1516735611134}, {"current_trial": 45, "trialdata": {"rt": -1, "trial_type": "single-stim", "stimulus": "<p id=\"stim\">9</p>", "internal_node_id": "0.0-35.0-1.0", "time_elapsed": 404954, "key_press": -1, "trial_index": 45}, "uniqueid": "MTK2116:39ASUFLU6YEB4K6HKHNQQY9KAJUEX2", "dateTime": 1516735612136}, {"current_trial": 46, "trialdata": {"rt": -1, "trial_type": "single-stim", "stimulus": "<p id=\"stim\">8</p>", "internal_node_id": "0.0-35.0-2.0", "time_elapsed": 405956, "key_press": -1, "trial_index": 46}, "uniqueid": "MTK2116:39ASUFLU6YEB4K6HKHNQQY9KAJUEX2", "dateTime": 1516735613138}, {"current_trial": 47, "trialdata": {"rt": -1, "trial_type": "single-stim", "stimulus": "<p id=\"stim\">7</p>", "internal_node_id": "0.0-35.0-3.0", "time_elapsed": 406958, "key_press": -1, "trial_index": 47}, "uniqueid": "MTK2116:39ASUFLU6YEB4K6HKHNQQY9KAJUEX2", "dateTime": 1516735614140}, {"current_trial": 48, "trialdata": {"rt": -1, "trial_type": "single-stim", "stimulus": "<p id=\"stim\">6</p>", "internal_node_id": "0.0-35.0-4.0", "time_elapsed": 407959, "key_press": -1, "trial_index": 48}, "uniqueid": "MTK2116:39ASUFLU6YEB4K6HKHNQQY9KAJUEX2", "dateTime": 1516735615142}, {"current_trial": 49, "trialdata": {"rt": -1, "trial_type": "single-stim", "stimulus": "<p id=\"stim\">5</p>", "internal_node_id": "0.0-35.0-5.0", "time_elapsed": 408961, "key_press": -1, "trial_index": 49}, "uniqueid": "MTK2116:39ASUFLU6YEB4K6HKHNQQY9KAJUEX2", "dateTime": 1516735616143}, {"current_trial": 50, "trialdata": {"rt": -1, "trial_type": "single-stim", "stimulus": "<p id=\"stim\">4</p>", "internal_node_id": "0.0-35.0-6.0", "time_elapsed": 409963, "key_press": -1, "trial_index": 50}, "uniqueid": "MTK2116:39ASUFLU6YEB4K6HKHNQQY9KAJUEX2", "dateTime": 1516735617145}, {"current_trial": 51, "trialdata": {"rt": -1, "trial_type": "single-stim", "stimulus": "<p id=\"stim\">3</p>", "internal_node_id": "0.0-35.0-7.0", "time_elapsed": 410965, "key_press": -1, "trial_index": 51}, "uniqueid": "MTK2116:39ASUFLU6YEB4K6HKHNQQY9KAJUEX2", "dateTime": 1516735618147}, {"current_trial": 52, "trialdata": {"rt": -1, "trial_type": "single-stim", "stimulus": "<p id=\"stim\">2</p>", "internal_node_id": "0.0-35.0-8.0", "time_elapsed": 411967, "key_press": -1, "trial_index": 52}, "uniqueid": "MTK2116:39ASUFLU6YEB4K6HKHNQQY9KAJUEX2", "dateTime": 1516735619149}, {"current_trial": 53, "trialdata": {"rt": -1, "trial_type": "single-stim", "stimulus": "<p id=\"stim\">1</p>", "internal_node_id": "0.0-35.0-9.0", "time_elapsed": 412968, "key_press": -1, "trial_index": 53}, "uniqueid": "MTK2116:39ASUFLU6YEB4K6HKHNQQY9KAJUEX2", "dateTime": 1516735620150}, {"current_trial": 54, "trialdata": {"rt": -1, "trial_type": "single-stim", "stimulus": "<p id=\"stim\">+</p>", "internal_node_id": "0.0-36.0-0.0", "time_elapsed": 414469, "key_press": -1, "type": "FIXATION", "trial_index": 54}, "uniqueid": "MTK2116:39ASUFLU6YEB4K6HKHNQQY9KAJUEX2", "dateTime": 1516735621652}, {"current_trial": 55, "trialdata": {"rt": -1000, "trial_type": "single-audio", "word": "supper", "stimulus": "/static/audio/wordpool/SUPPER.wav", "conditions": [18, 1200, "a", 18000], "internal_node_id": "0.0-37.0", "trial": 1, "time_elapsed": 416865, "serialpos": 0, "key_press": -1, "wordID": 1410, "type": "PRES_AUD", "trial_index": 55}, "uniqueid": "MTK2116:39ASUFLU6YEB4K6HKHNQQY9KAJUEX2", "dateTime": 1516735624048}, {"current_trial": 56, "trialdata": {"rt": -1000, "trial_type": "single-audio", "word": "beast", "stimulus": "/static/audio/wordpool/BEAST.wav", "conditions": [18, 1200, "a", 18000], "internal_node_id": "0.0-38.0", "trial": 1, "time_elapsed": 418982, "serialpos": 1, "key_press": -1, "wordID": 107, "type": "PRES_AUD", "trial_index": 56}, "uniqueid": "MTK2116:39ASUFLU6YEB4K6HKHNQQY9KAJUEX2", "dateTime": 1516735626164}, {"current_trial": 57, "trialdata": {"rt": -1000, "trial_type": "single-audio", "word": "luggage", "stimulus": "/static/audio/wordpool/LUGGAGE.wav", "conditions": [18, 1200, "a", 18000], "internal_node_id": "0.0-39.0", "trial": 1, "time_elapsed": 421326, "serialpos": 2, "key_press": -1, "wordID": 846, "type": "PRES_AUD", "trial_index": 57}, "uniqueid": "MTK2116:39ASUFLU6YEB4K6HKHNQQY9KAJUEX2", "dateTime": 1516735628509}, {"current_trial": 58, "trialdata": {"rt": -1000, "trial_type": "single-audio", "word": "novel", "stimulus": "/static/audio/wordpool/NOVEL.wav", "conditions": [18, 1200, "a", 18000], "internal_node_id": "0.0-40.0", "trial": 1, "time_elapsed": 423549, "serialpos": 3, "key_press": -1, "wordID": 959, "type": "PRES_AUD", "trial_index": 58}, "uniqueid": "MTK2116:39ASUFLU6YEB4K6HKHNQQY9KAJUEX2", "dateTime": 1516735630731}, {"current_trial": 59, "trialdata": {"rt": -1000, "trial_type": "single-audio", "word": "child", "stimulus": "/static/audio/wordpool/CHILD.wav", "conditions": [18, 1200, "a", 18000], "internal_node_id": "0.0-41.0", "trial": 1, "time_elapsed": 425925, "serialpos": 4, "key_press": -1, "wordID": 298, "type": "PRES_AUD", "trial_index": 59}, "uniqueid": "MTK2116:39ASUFLU6YEB4K6HKHNQQY9KAJUEX2", "dateTime": 1516735633107}, {"current_trial": 60, "trialdata": {"rt": -1000, "trial_type": "single-audio", "word": "nightgown", "stimulus": "/static/audio/wordpool/NIGHTGOWN.wav", "conditions": [18, 1200, "a", 18000], "internal_node_id": "0.0-42.0", "trial": 1, "time_elapsed": 428232, "serialpos": 5, "key_press": -1, "wordID": 952, "type": "PRES_AUD", "trial_index": 60}, "uniqueid": "MTK2116:39ASUFLU6YEB4K6HKHNQQY9KAJUEX2", "dateTime": 1516735635414}, {"current_trial": 61, "trialdata": {"rt": -1000, "trial_type": "single-audio", "word": "slime", "stimulus": "/static/audio/wordpool/SLIME.wav", "conditions": [18, 1200, "a", 18000], "internal_node_id": "0.0-43.0", "trial": 1, "time_elapsed": 430268, "serialpos": 6, "key_press": -1, "wordID": 1326, "type": "PRES_AUD", "trial_index": 61}, "uniqueid": "MTK2116:39ASUFLU6YEB4K6HKHNQQY9KAJUEX2", "dateTime": 1516735637450}, {"current_trial": 62, "trialdata": {"rt": -1000, "trial_type": "single-audio", "word": "postage", "stimulus": "/static/audio/wordpool/POSTAGE.wav", "conditions": [18, 1200, "a", 18000], "internal_node_id": "0.0-44.0", "trial": 1, "time_elapsed": 432639, "serialpos": 7, "key_press": -1, "wordID": 1112, "type": "PRES_AUD", "trial_index": 62}, "uniqueid": "MTK2116:39ASUFLU6YEB4K6HKHNQQY9KAJUEX2", "dateTime": 1516735639821}, {"current_trial": 63, "trialdata": {"rt": -1000, "trial_type": "single-audio", "word": "radish", "stimulus": "/static/audio/wordpool/RADISH.wav", "conditions": [18, 1200, "a", 18000], "internal_node_id": "0.0-45.0", "trial": 1, "time_elapsed": 434915, "serialpos": 8, "key_press": -1, "wordID": 1157, "type": "PRES_AUD", "trial_index": 63}, "uniqueid": "MTK2116:39ASUFLU6YEB4K6HKHNQQY9KAJUEX2", "dateTime": 1516735642097}, {"current_trial": 64, "trialdata": {"rt": -1000, "trial_type": "single-audio", "word": "doughnut", "stimulus": "/static/audio/wordpool/DOUGHNUT.wav", "conditions": [18, 1200, "a", 18000], "internal_node_id": "0.0-46.0", "trial": 1, "time_elapsed": 437001, "serialpos": 9, "key_press": -1, "wordID": 489, "type": "PRES_AUD", "trial_index": 64}, "uniqueid": "MTK2116:39ASUFLU6YEB4K6HKHNQQY9KAJUEX2", "dateTime": 1516735644183}, {"current_trial": 65, "trialdata": {"rt": -1000, "trial_type": "single-audio", "word": "buggy", "stimulus": "/static/audio/wordpool/BUGGY.wav", "conditions": [18, 1200, "a", 18000], "internal_node_id": "0.0-47.0", "trial": 1, "time_elapsed": 439342, "serialpos": 10, "key_press": -1, "wordID": 187, "type": "PRES_AUD", "trial_index": 65}, "uniqueid": "MTK2116:39ASUFLU6YEB4K6HKHNQQY9KAJUEX2", "dateTime": 1516735646524}, {"current_trial": 66, "trialdata": {"rt": -1000, "trial_type": "single-audio", "word": "servant", "stimulus": "/static/audio/wordpool/SERVANT.wav", "conditions": [18, 1200, "a", 18000], "internal_node_id": "0.0-48.0", "trial": 1, "time_elapsed": 441498, "serialpos": 11, "key_press": -1, "wordID": 1270, "type": "PRES_AUD", "trial_index": 66}, "uniqueid": "MTK2116:39ASUFLU6YEB4K6HKHNQQY9KAJUEX2", "dateTime": 1516735648680}, {"current_trial": 67, "trialdata": {"rt": -1000, "trial_type": "single-audio", "word": "pecan", "stimulus": "/static/audio/wordpool/PECAN.wav", "conditions": [18, 1200, "a", 18000], "internal_node_id": "0.0-49.0", "trial": 1, "time_elapsed": 443812, "serialpos": 12, "key_press": -1, "wordID": 1035, "type": "PRES_AUD", "trial_index": 67}, "uniqueid": "MTK2116:39ASUFLU6YEB4K6HKHNQQY9KAJUEX2", "dateTime": 1516735650994}, {"current_trial": 68, "trialdata": {"rt": -1000, "trial_type": "single-audio", "word": "valve", "stimulus": "/static/audio/wordpool/VALVE.wav", "conditions": [18, 1200, "a", 18000], "internal_node_id": "0.0-50.0", "trial": 1, "time_elapsed": 445915, "serialpos": 13, "key_press": -1, "wordID": 1545, "type": "PRES_AUD", "trial_index": 68}, "uniqueid": "MTK2116:39ASUFLU6YEB4K6HKHNQQY9KAJUEX2", "dateTime": 1516735653139}, {"current_trial": 69, "trialdata": {"rt": -1000, "trial_type": "single-audio", "word": "balloon", "stimulus": "/static/audio/wordpool/BALLOON.wav", "conditions": [18, 1200, "a", 18000], "internal_node_id": "0.0-51.0", "trial": 1, "time_elapsed": 447983, "serialpos": 14, "key_press": -1, "wordID": 74, "type": "PRES_AUD", "trial_index": 69}, "uniqueid": "MTK2116:39ASUFLU6YEB4K6HKHNQQY9KAJUEX2", "dateTime": 1516735655165}, {"current_trial": 70, "trialdata": {"rt": -1000, "trial_type": "single-audio", "word": "waitress", "stimulus": "/static/audio/wordpool/WAITRESS.wav", "conditions": [18, 1200, "a", 18000], "internal_node_id": "0.0-52.0", "trial": 1, "time_elapsed": 450348, "serialpos": 15, "key_press": -1, "wordID": 1580, "type": "PRES_AUD", "trial_index": 70}, "uniqueid": "MTK2116:39ASUFLU6YEB4K6HKHNQQY9KAJUEX2", "dateTime": 1516735657530}, {"current_trial": 71, "trialdata": {"rt": -1000, "trial_type": "single-audio", "word": "milk", "stimulus": "/static/audio/wordpool/MILK.wav", "conditions": [18, 1200, "a", 18000], "internal_node_id": "0.0-53.0", "trial": 1, "time_elapsed": 452697, "serialpos": 16, "key_press": -1, "wordID": 894, "type": "PRES_AUD", "trial_index": 71}, "uniqueid": "MTK2116:39ASUFLU6YEB4K6HKHNQQY9KAJUEX2", "dateTime": 1516735659879}, {"current_trial": 72, "trialdata": {"rt": -1000, "trial_type": "single-audio", "word": "grill", "stimulus": "/static/audio/wordpool/GRILL.wav", "conditions": [18, 1200, "a", 18000], "internal_node_id": "0.0-54.0", "trial": 1, "time_elapsed": 454857, "serialpos": 17, "key_press": -1, "wordID": 660, "type": "PRES_AUD", "trial_index": 72}, "uniqueid": "MTK2116:39ASUFLU6YEB4K6HKHNQQY9KAJUEX2", "dateTime": 1516735662039}, {"current_trial": 73, "trialdata": {"rt": -1, "trial_type": "single-stim", "stimulus": "", "internal_node_id": "0.0-55.0-0.0", "time_elapsed": 456218, "key_press": -1, "type": "PRE_RECALL_DELAY", "trial_index": 73}, "uniqueid": "MTK2116:39ASUFLU6YEB4K6HKHNQQY9KAJUEX2", "dateTime": 1516735663400}, {"current_trial": 74, "trialdata": {"rt": -1000, "trial_type": "single-audio", "stimulus": "/static/audio/400Hz.wav", "internal_node_id": "0.0-56.0", "time_elapsed": 456720, "key_press": -1, "type": "PRE_RECALL_ALERT", "trial_index": 74}, "uniqueid": "MTK2116:39ASUFLU6YEB4K6HKHNQQY9KAJUEX2", "dateTime": 1516735663902}, {"current_trial": 75, "trialdata": {"rt": [5311, 7149, 9993, 12125, 14536, 16312, 20268, 21976, 23643], "recwords": ["supper", "beach", "luggage", "pecan", "radish", "milk", "nightgown", "slime", "baby"], "key_times": [1436, 1832, 1991, 2746, 2905, 3070, 3824, 4145, 4342, 4509, 4598, 4745, 5311, 5780, 5897, 6077, 6269, 6456, 7149, 7679, 7930, 8170, 8335, 8542, 9046, 9333, 9993, 10366, 10537, 10789, 11024, 11223, 12125, 12713, 12925, 13134, 13279, 13434, 13663, 14536, 15020, 15233, 15422, 15597, 16312, 16775, 16967, 17083, 17207, 17341, 19041, 19249, 19359, 19545, 20268, 20722, 20902, 21080, 21255, 21449, 21976, 22419, 22560, 22687, 22906, 23643], "trial_type": "free-recall", "conditions": [18, 1200, "a", 18000], "internal_node_id": "0.0-57.0-0.0", "key_presses": [85, 80, 80, 8, 8, 8, 83, 85, 80, 80, 69, 82, 13, 66, 69, 65, 67, 72, 13, 76, 85, 71, 71, 65, 71, 69, 13, 80, 69, 67, 65, 78, 13, 82, 65, 68, 73, 83, 72, 13, 77, 73, 76, 75, 13, 78, 73, 71, 72, 84, 71, 79, 87, 78, 13, 83, 76, 73, 77, 69, 13, 66, 65, 66, 89, 13], "trial": 1, "time_elapsed": 516739, "type": "FREE_RECALL", "trial_index": 75}, "uniqueid": "MTK2116:39ASUFLU6YEB4K6HKHNQQY9KAJUEX2", "dateTime": 1516735723927}, {"current_trial": 76, "trialdata": {"rt": 2823, "trial_type": "text", "internal_node_id": "0.0-58.0", "time_elapsed": 521569, "key_press": 32, "type": "INSTRUCTIONS", "trial_index": 76}, "uniqueid": "MTK2116:39ASUFLU6YEB4K6HKHNQQY9KAJUEX2", "dateTime": 1516735728751}, {"current_trial": 77, "trialdata": {"rt": [4344, 9143, 10564], "trial_type": "math-distractor", "key_times": [3072, 3304, 4344, 8323, 8460, 9143, 10342, 10564], "responses": ["14", "16", "5"], "num2": [7, 7, 2, 5], "num3": [2, 4, 2, 6], "conditions": [24, 800, "a", 12000], "internal_node_id": "0.0-59.0", "key_presses": [49, 52, 13, 49, 54, 13, 53, 13], "trial": 2, "time_elapsed": 534575, "type": "DISTRACTOR", "trial_index": 77, "num1": [5, 5, 1, 1]}, "uniqueid": "MTK2116:39ASUFLU6YEB4K6HKHNQQY9KAJUEX2", "dateTime": 1516735741757}, {"current_trial": 78, "trialdata": {"rt": -1, "trial_type": "single-stim", "stimulus": "<p id=\"stim\">10</p>", "internal_node_id": "0.0-60.0-0.0", "time_elapsed": 537578, "key_press": -1, "trial_index": 78}, "uniqueid": "MTK2116:39ASUFLU6YEB4K6HKHNQQY9KAJUEX2", "dateTime": 1516735744760}, {"current_trial": 79, "trialdata": {"rt": -1, "trial_type": "single-stim", "stimulus": "<p id=\"stim\">9</p>", "internal_node_id": "0.0-60.0-1.0", "time_elapsed": 538580, "key_press": -1, "trial_index": 79}, "uniqueid": "MTK2116:39ASUFLU6YEB4K6HKHNQQY9KAJUEX2", "dateTime": 1516735745762}, {"current_trial": 80, "trialdata": {"rt": -1, "trial_type": "single-stim", "stimulus": "<p id=\"stim\">8</p>", "internal_node_id": "0.0-60.0-2.0", "time_elapsed": 539582, "key_press": -1, "trial_index": 80}, "uniqueid": "MTK2116:39ASUFLU6YEB4K6HKHNQQY9KAJUEX2", "dateTime": 1516735746765}, {"current_trial": 81, "trialdata": {"rt": -1, "trial_type": "single-stim", "stimulus": "<p id=\"stim\">7</p>", "internal_node_id": "0.0-60.0-3.0", "time_elapsed": 540584, "key_press": -1, "trial_index": 81}, "uniqueid": "MTK2116:39ASUFLU6YEB4K6HKHNQQY9KAJUEX2", "dateTime": 1516735747766}, {"current_trial": 82, "trialdata": {"rt": -1, "trial_type": "single-stim", "stimulus": "<p id=\"stim\">6</p>", "internal_node_id": "0.0-60.0-4.0", "time_elapsed": 541586, "key_press": -1, "trial_index": 82}, "uniqueid": "MTK2116:39ASUFLU6YEB4K6HKHNQQY9KAJUEX2", "dateTime": 1516735748768}, {"current_trial": 83, "trialdata": {"rt": -1, "trial_type": "single-stim", "stimulus": "<p id=\"stim\">5</p>", "internal_node_id": "0.0-60.0-5.0", "time_elapsed": 542587, "key_press": -1, "trial_index": 83}, "uniqueid": "MTK2116:39ASUFLU6YEB4K6HKHNQQY9KAJUEX2", "dateTime": 1516735749769}, {"current_trial": 84, "trialdata": {"rt": -1, "trial_type": "single-stim", "stimulus": "<p id=\"stim\">4</p>", "internal_node_id": "0.0-60.0-6.0", "time_elapsed": 543588, "key_press": -1, "trial_index": 84}, "uniqueid": "MTK2116:39ASUFLU6YEB4K6HKHNQQY9KAJUEX2", "dateTime": 1516735750770}, {"current_trial": 85, "trialdata": {"rt": -1, "trial_type": "single-stim", "stimulus": "<p id=\"stim\">3</p>", "internal_node_id": "0.0-60.0-7.0", "time_elapsed": 544590, "key_press": -1, "trial_index": 85}, "uniqueid": "MTK2116:39ASUFLU6YEB4K6HKHNQQY9KAJUEX2", "dateTime": 1516735751772}, {"current_trial": 86, "trialdata": {"rt": -1, "trial_type": "single-stim", "stimulus": "<p id=\"stim\">2</p>", "internal_node_id": "0.0-60.0-8.0", "time_elapsed": 545592, "key_press": -1, "trial_index": 86}, "uniqueid": "MTK2116:39ASUFLU6YEB4K6HKHNQQY9KAJUEX2", "dateTime": 1516735752775}, {"current_trial": 87, "trialdata": {"rt": -1, "trial_type": "single-stim", "stimulus": "<p id=\"stim\">1</p>", "internal_node_id": "0.0-60.0-9.0", "time_elapsed": 546594, "key_press": -1, "trial_index": 87}, "uniqueid": "MTK2116:39ASUFLU6YEB4K6HKHNQQY9KAJUEX2", "dateTime": 1516735753777}, {"current_trial": 88, "trialdata": {"rt": -1, "trial_type": "single-stim", "stimulus": "<p id=\"stim\">+</p>", "internal_node_id": "0.0-61.0-0.0", "time_elapsed": 548098, "key_press": -1, "type": "FIXATION", "trial_index": 88}, "uniqueid": "MTK2116:39ASUFLU6YEB4K6HKHNQQY9KAJUEX2", "dateTime": 1516735755280}, {"current_trial": 89, "trialdata": {"rt": -1000, "trial_type": "single-audio", "word": "swimmer", "stimulus": "/static/audio/wordpool/SWIMMER.wav", "conditions": [24, 800, "a", 12000], "internal_node_id": "0.0-62.0", "trial": 2, "time_elapsed": 549846, "serialpos": 0, "key_press": -1, "wordID": 1419, "type": "PRES_AUD", "trial_index": 89}, "uniqueid": "MTK2116:39ASUFLU6YEB4K6HKHNQQY9KAJUEX2", "dateTime": 1516735757028}, {"current_trial": 90, "trialdata": {"rt": -1000, "trial_type": "single-audio", "word": "valley", "stimulus": "/static/audio/wordpool/VALLEY.wav", "conditions": [24, 800, "a", 12000], "internal_node_id": "0.0-63.0", "trial": 2, "time_elapsed": 551465, "serialpos": 1, "key_press": -1, "wordID": 1544, "type": "PRES_AUD", "trial_index": 90}, "uniqueid": "MTK2116:39ASUFLU6YEB4K6HKHNQQY9KAJUEX2", "dateTime": 1516735758647}, {"current_trial": 91, "trialdata": {"rt": -1000, "trial_type": "single-audio", "word": "spool", "stimulus": "/static/audio/wordpool/SPOOL.wav", "conditions": [24, 800, "a", 12000], "internal_node_id": "0.0-64.0", "trial": 2, "time_elapsed": 553234, "serialpos": 2, "key_press": -1, "wordID": 1355, "type": "PRES_AUD", "trial_index": 91}, "uniqueid": "MTK2116:39ASUFLU6YEB4K6HKHNQQY9KAJUEX2", "dateTime": 1516735760416}, {"current_trial": 92, "trialdata": {"rt": -1000, "trial_type": "single-audio", "word": "beaver", "stimulus": "/static/audio/wordpool/BEAVER.wav", "conditions": [24, 800, "a", 12000], "internal_node_id": "0.0-65.0", "trial": 2, "time_elapsed": 555110, "serialpos": 3, "key_press": -1, "wordID": 108, "type": "PRES_AUD", "trial_index": 92}, "uniqueid": "MTK2116:39ASUFLU6YEB4K6HKHNQQY9KAJUEX2", "dateTime": 1516735762292}, {"current_trial": 93, "trialdata": {"rt": -1000, "trial_type": "single-audio", "word": "plaid", "stimulus": "/static/audio/wordpool/PLAID.wav", "conditions": [24, 800, "a", 12000], "internal_node_id": "0.0-66.0", "trial": 2, "time_elapsed": 557038, "serialpos": 4, "key_press": -1, "wordID": 1079, "type": "PRES_AUD", "trial_index": 93}, "uniqueid": "MTK2116:39ASUFLU6YEB4K6HKHNQQY9KAJUEX2", "dateTime": 1516735764220}, {"current_trial": 94, "trialdata": {"rt": -1000, "trial_type": "single-audio", "word": "portrait", "stimulus": "/static/audio/wordpool/PORTRAIT.wav", "conditions": [24, 800, "a", 12000], "internal_node_id": "0.0-67.0", "trial": 2, "time_elapsed": 558899, "serialpos": 5, "key_press": -1, "wordID": 1110, "type": "PRES_AUD", "trial_index": 94}, "uniqueid": "MTK2116:39ASUFLU6YEB4K6HKHNQQY9KAJUEX2", "dateTime": 1516735766081}, {"current_trial": 95, "trialdata": {"rt": -1000, "trial_type": "single-audio", "word": "shelf", "stimulus": "/static/audio/wordpool/SHELF.wav", "conditions": [24, 800, "a", 12000], "internal_node_id": "0.0-68.0", "trial": 2, "time_elapsed": 560775, "serialpos": 6, "key_press": -1, "wordID": 1279, "type": "PRES_AUD", "trial_index": 95}, "uniqueid": "MTK2116:39ASUFLU6YEB4K6HKHNQQY9KAJUEX2", "dateTime": 1516735767957}, {"current_trial": 96, "trialdata": {"rt": -1000, "trial_type": "single-audio", "word": "brook", "stimulus": "/static/audio/wordpool/BROOK.wav", "conditions": [24, 800, "a", 12000], "internal_node_id": "0.0-69.0", "trial": 2, "time_elapsed": 562659, "serialpos": 7, "key_press": -1, "wordID": 176, "type": "PRES_AUD", "trial_index": 96}, "uniqueid": "MTK2116:39ASUFLU6YEB4K6HKHNQQY9KAJUEX2", "dateTime": 1516735769841}, {"current_trial": 97, "trialdata": {"rt": -1000, "trial_type": "single-audio", "word": "river", "stimulus": "/static/audio/wordpool/RIVER.wav", "conditions": [24, 800, "a", 12000], "internal_node_id": "0.0-70.0", "trial": 2, "time_elapsed": 564504, "serialpos": 8, "key_press": -1, "wordID": 1193, "type": "PRES_AUD", "trial_index": 97}, "uniqueid": "MTK2116:39ASUFLU6YEB4K6HKHNQQY9KAJUEX2", "dateTime": 1516735771687}, {"current_trial": 98, "trialdata": {"rt": -1000, "trial_type": "single-audio", "word": "brick", "stimulus": "/static/audio/wordpool/BRICK.wav", "conditions": [24, 800, "a", 12000], "internal_node_id": "0.0-71.0", "trial": 2, "time_elapsed": 566349, "serialpos": 9, "key_press": -1, "wordID": 171, "type": "PRES_AUD", "trial_index": 98}, "uniqueid": "MTK2116:39ASUFLU6YEB4K6HKHNQQY9KAJUEX2", "dateTime": 1516735773531}, {"current_trial": 99, "trialdata": {"rt": -1000, "trial_type": "single-audio", "word": "foot", "stimulus": "/static/audio/wordpool/FOOT.wav", "conditions": [24, 800, "a", 12000], "internal_node_id": "0.0-72.0", "trial": 2, "time_elapsed": 568122, "serialpos": 10, "key_press": -1, "wordID": 589, "type": "PRES_AUD", "trial_index": 99}, "uniqueid": "MTK2116:39ASUFLU6YEB4K6HKHNQQY9KAJUEX2", "dateTime": 1516735775304}, {"current_trial": 100, "trialdata": {"rt": -1000, "trial_type": "single-audio", "word": "canyon", "stimulus": "/static/audio/wordpool/CANYON.wav", "conditions": [24, 800, "a", 12000], "internal_node_id": "0.0-73.0", "trial": 2, "time_elapsed": 570073, "serialpos": 11, "key_press": -1, "wordID": 234, "type": "PRES_AUD", "trial_index": 100}, "uniqueid": "MTK2116:39ASUFLU6YEB4K6HKHNQQY9KAJUEX2", "dateTime": 1516735777255}, {"current_trial": 101, "trialdata": {"rt": -1000, "trial_type": "single-audio", "word": "turtle", "stimulus": "/static/audio/wordpool/TURTLE.wav", "conditions": [24, 800, "a", 12000], "internal_node_id": "0.0-74.0", "trial": 2, "time_elapsed": 571931, "serialpos": 12, "key_press": -1, "wordID": 1521, "type": "PRES_AUD", "trial_index": 101}, "uniqueid": "MTK2116:39ASUFLU6YEB4K6HKHNQQY9KAJUEX2", "dateTime": 1516735779113}, {"current_trial": 102, "trialdata": {"rt": -1000, "trial_type": "single-audio", "word": "lizard", "stimulus": "/static/audio/wordpool/LIZARD.wav", "conditions": [24, 800, "a", 12000], "internal_node_id": "0.0-75.0", "trial": 2, "time_elapsed": 573647, "serialpos": 13, "key_press": -1, "wordID": 833, "type": "PRES_AUD", "trial_index": 102}, "uniqueid": "MTK2116:39ASUFLU6YEB4K6HKHNQQY9KAJUEX2", "dateTime": 1516735780829}, {"current_trial": 103, "trialdata": {"rt": -1000, "trial_type": "single-audio", "word": "chauffeur", "stimulus": "/static/audio/wordpool/CHAUFFEUR.wav", "conditions": [24, 800, "a", 12000], "internal_node_id": "0.0-76.0", "trial": 2, "time_elapsed": 575640, "serialpos": 14, "key_press": -1, "wordID": 282, "type": "PRES_AUD", "trial_index": 103}, "uniqueid": "MTK2116:39ASUFLU6YEB4K6HKHNQQY9KAJUEX2", "dateTime": 1516735782822}, {"current_trial": 104, "trialdata": {"rt": -1000, "trial_type": "single-audio", "word": "baby", "stimulus": "/static/audio/wordpool/BABY.wav", "conditions": [24, 800, "a", 12000], "internal_node_id": "0.0-77.0", "trial": 2, "time_elapsed": 577246, "serialpos": 15, "key_press": -1, "wordID": 63, "type": "PRES_AUD", "trial_index": 104}, "uniqueid": "MTK2116:39ASUFLU6YEB4K6HKHNQQY9KAJUEX2", "dateTime": 1516735784429}, {"current_trial": 105, "trialdata": {"rt": -1000, "trial_type": "single-audio", "word": "pluto", "stimulus": "/static/audio/wordpool/PLUTO.wav", "conditions": [24, 800, "a", 12000], "internal_node_id": "0.0-78.0", "trial": 2, "time_elapsed": 578992, "serialpos": 16, "key_press": -1, "wordID": 1091, "type": "PRES_AUD", "trial_index": 105}, "uniqueid": "MTK2116:39ASUFLU6YEB4K6HKHNQQY9KAJUEX2", "dateTime": 1516735786174}, {"current_trial": 106, "trialdata": {"rt": -1000, "trial_type": "single-audio", "word": "pizza", "stimulus": "/static/audio/wordpool/PIZZA.wav", "conditions": [24, 800, "a", 12000], "internal_node_id": "0.0-79.0", "trial": 2, "time_elapsed": 580816, "serialpos": 17, "key_press": -1, "wordID": 1078, "type": "PRES_AUD", "trial_index": 106}, "uniqueid": "MTK2116:39ASUFLU6YEB4K6HKHNQQY9KAJUEX2", "dateTime": 1516735787998}, {"current_trial": 107, "trialdata": {"rt": -1000, "trial_type": "single-audio", "word": "tunnel", "stimulus": "/static/audio/wordpool/TUNNEL.wav", "conditions": [24, 800, "a", 12000], "internal_node_id": "0.0-80.0", "trial": 2, "time_elapsed": 582787, "serialpos": 18, "key_press": -1, "wordID": 1518, "type": "PRES_AUD", "trial_index": 107}, "uniqueid": "MTK2116:39ASUFLU6YEB4K6HKHNQQY9KAJUEX2", "dateTime": 1516735789969}, {"current_trial": 108, "trialdata": {"rt": -1000, "trial_type": "single-audio", "word": "silk", "stimulus": "/static/audio/wordpool/SILK.wav", "conditions": [24, 800, "a", 12000], "internal_node_id": "0.0-81.0", "trial": 2, "time_elapsed": 584728, "serialpos": 19, "key_press": -1, "wordID": 1306, "type": "PRES_AUD", "trial_index": 108}, "uniqueid": "MTK2116:39ASUFLU6YEB4K6HKHNQQY9KAJUEX2", "dateTime": 1516735791910}, {"current_trial": 109, "trialdata": {"rt": -1000, "trial_type": "single-audio", "word": "pasta", "stimulus": "/static/audio/wordpool/PASTA.wav", "conditions": [24, 800, "a", 12000], "internal_node_id": "0.0-82.0", "trial": 2, "time_elapsed": 586637, "serialpos": 20, "key_press": -1, "wordID": 1020, "type": "PRES_AUD", "trial_index": 109}, "uniqueid": "MTK2116:39ASUFLU6YEB4K6HKHNQQY9KAJUEX2", "dateTime": 1516735793819}, {"current_trial": 110, "trialdata": {"rt": -1000, "trial_type": "single-audio", "word": "plaza", "stimulus": "/static/audio/wordpool/PLAZA.wav", "conditions": [24, 800, "a", 12000], "internal_node_id": "0.0-83.0", "trial": 2, "time_elapsed": 588340, "serialpos": 21, "key_press": -1, "wordID": 1087, "type": "PRES_AUD", "trial_index": 110}, "uniqueid": "MTK2116:39ASUFLU6YEB4K6HKHNQQY9KAJUEX2", "dateTime": 1516735795522}, {"current_trial": 111, "trialdata": {"rt": -1000, "trial_type": "single-audio", "word": "office", "stimulus": "/static/audio/wordpool/OFFICE.wav", "conditions": [24, 800, "a", 12000], "internal_node_id": "0.0-84.0", "trial": 2, "time_elapsed": 590046, "serialpos": 22, "key_press": -1, "wordID": 971, "type": "PRES_AUD", "trial_index": 111}, "uniqueid": "MTK2116:39ASUFLU6YEB4K6HKHNQQY9KAJUEX2", "dateTime": 1516735797229}, {"current_trial": 112, "trialdata": {"rt": -1000, "trial_type": "single-audio", "word": "pebble", "stimulus": "/static/audio/wordpool/PEBBLE.wav", "conditions": [24, 800, "a", 12000], "internal_node_id": "0.0-85.0", "trial": 2, "time_elapsed": 591953, "serialpos": 23, "key_press": -1, "wordID": 1034, "type": "PRES_AUD", "trial_index": 112}, "uniqueid": "MTK2116:39ASUFLU6YEB4K6HKHNQQY9KAJUEX2", "dateTime": 1516735799135}, {"current_trial": 113, "trialdata": {"rt": -1, "trial_type": "single-stim", "stimulus": "", "internal_node_id": "0.0-86.0-0.0", "time_elapsed": 593190, "key_press": -1, "type": "PRE_RECALL_DELAY", "trial_index": 113}, "uniqueid": "MTK2116:39ASUFLU6YEB4K6HKHNQQY9KAJUEX2", "dateTime": 1516735800372}, {"current_trial": 114, "trialdata": {"rt": -1000, "trial_type": "single-audio", "stimulus": "/static/audio/400Hz.wav", "internal_node_id": "0.0-87.0", "time_elapsed": 593693, "key_press": -1, "type": "PRE_RECALL_ALERT", "trial_index": 114}, "uniqueid": "MTK2116:39ASUFLU6YEB4K6HKHNQQY9KAJUEX2", "dateTime": 1516735800875}, {"current_trial": 115, "trialdata": {"rt": [2766, 5249, 6418, 9211, 11071, 12666, 15552, 22835], "recwords": ["swimmer", "valley", "baby", "plaid", "tunnel", "office", "turtle", "pizza"], "key_times": [1076, 1561, 1805, 2059, 2210, 2314, 2456, 2766, 3725, 3895, 4032, 4274, 4792, 4964, 5249, 5646, 5772, 5875, 6085, 6418, 7063, 7255, 7425, 7535, 7681, 9211, 9640, 9794, 10003, 10132, 10268, 10400, 11071, 11447, 11638, 11834, 11936, 12074, 12188, 12666, 13443, 13593, 13801, 14923, 15085, 15226, 15552, 21920, 22107, 22268, 22444, 22663, 22835], "trial_type": "free-recall", "conditions": [24, 800, "a", 12000], "internal_node_id": "0.0-88.0-0.0", "key_presses": [83, 87, 73, 77, 77, 69, 82, 13, 86, 65, 76, 76, 69, 89, 13, 66, 65, 66, 89, 13, 80, 76, 65, 73, 68, 13, 84, 85, 78, 78, 69, 76, 13, 79, 70, 70, 73, 67, 69, 13, 84, 85, 82, 84, 76, 69, 13, 80, 73, 90, 90, 65, 13], "trial": 2, "time_elapsed": 653699, "type": "FREE_RECALL", "trial_index": 115}, "uniqueid": "MTK2116:39ASUFLU6YEB4K6HKHNQQY9KAJUEX2", "dateTime": 1516735860886}, {"current_trial": 116, "trialdata": {"rt": 2268, "trial_type": "text", "internal_node_id": "0.0-89.0", "time_elapsed": 657972, "key_press": 32, "type": "INSTRUCTIONS", "trial_index": 116}, "uniqueid": "MTK2116:39ASUFLU6YEB4K6HKHNQQY9KAJUEX2", "dateTime": 1516735865154}, {"current_trial": 117, "trialdata": {"rt": [2169, 3597, 5773, 8796, 10644, 12919, 15065, 16848, 18986, 21672, 23130], "trial_type": "math-distractor", "key_times": [1874, 2169, 3331, 3597, 5172, 5598, 5773, 8525, 8796, 10460, 10644, 11999, 12624, 12919, 14484, 14872, 15065, 16286, 16662, 16848, 18486, 18790, 18986, 20889, 21455, 21672, 22747, 22956, 23130], "responses": ["9", "9", "16", "9", "7", "11", "13", "15", "13", "17", "11"], "num2": [1, 2, 2, 1, 1, 1, 1, 9, 4, 6, 5, 8], "num3": [2, 1, 6, 3, 4, 9, 8, 1, 6, 8, 1, 5], "conditions": [24, 1600, "a", 24000], "internal_node_id": "0.0-90.0", "key_presses": [57, 13, 57, 13, 49, 54, 13, 57, 13, 55, 13, 49, 49, 13, 49, 51, 13, 49, 53, 13, 49, 51, 13, 49, 55, 13, 49, 49, 13], "trial": 3, "time_elapsed": 683979, "type": "DISTRACTOR", "trial_index": 117, "num1": [6, 6, 8, 5, 2, 1, 4, 5, 3, 3, 5, 8]}, "uniqueid": "MTK2116:39ASUFLU6YEB4K6HKHNQQY9KAJUEX2", "dateTime": 1516735891161}, {"current_trial": 118, "trialdata": {"rt": -1, "trial_type": "single-stim", "stimulus": "<p id=\"stim\">10</p>", "internal_node_id": "0.0-91.0-0.0", "time_elapsed": 686981, "key_press": -1, "trial_index": 118}, "uniqueid": "MTK2116:39ASUFLU6YEB4K6HKHNQQY9KAJUEX2", "dateTime": 1516735894163}, {"current_trial": 119, "trialdata": {"rt": -1, "trial_type": "single-stim", "stimulus": "<p id=\"stim\">9</p>", "internal_node_id": "0.0-91.0-1.0", "time_elapsed": 687983, "key_press": -1, "trial_index": 119}, "uniqueid": "MTK2116:39ASUFLU6YEB4K6HKHNQQY9KAJUEX2", "dateTime": 1516735895165}, {"current_trial": 120, "trialdata": {"rt": -1, "trial_type": "single-stim", "stimulus": "<p id=\"stim\">8</p>", "internal_node_id": "0.0-91.0-2.0", "time_elapsed": 688984, "key_press": -1, "trial_index": 120}, "uniqueid": "MTK2116:39ASUFLU6YEB4K6HKHNQQY9KAJUEX2", "dateTime": 1516735896166}, {"current_trial": 121, "trialdata": {"rt": -1, "trial_type": "single-stim", "stimulus": "<p id=\"stim\">7</p>", "internal_node_id": "0.0-91.0-3.0", "time_elapsed": 689985, "key_press": -1, "trial_index": 121}, "uniqueid": "MTK2116:39ASUFLU6YEB4K6HKHNQQY9KAJUEX2", "dateTime": 1516735897167}, {"current_trial": 122, "trialdata": {"rt": -1, "trial_type": "single-stim", "stimulus": "<p id=\"stim\">6</p>", "internal_node_id": "0.0-91.0-4.0", "time_elapsed": 690986, "key_press": -1, "trial_index": 122}, "uniqueid": "MTK2116:39ASUFLU6YEB4K6HKHNQQY9KAJUEX2", "dateTime": 1516735898168}, {"current_trial": 123, "trialdata": {"rt": -1, "trial_type": "single-stim", "stimulus": "<p id=\"stim\">5</p>", "internal_node_id": "0.0-91.0-5.0", "time_elapsed": 691988, "key_press": -1, "trial_index": 123}, "uniqueid": "MTK2116:39ASUFLU6YEB4K6HKHNQQY9KAJUEX2", "dateTime": 1516735899171}, {"current_trial": 124, "trialdata": {"rt": -1, "trial_type": "single-stim", "stimulus": "<p id=\"stim\">4</p>", "internal_node_id": "0.0-91.0-6.0", "time_elapsed": 692990, "key_press": -1, "trial_index": 124}, "uniqueid": "MTK2116:39ASUFLU6YEB4K6HKHNQQY9KAJUEX2", "dateTime": 1516735900173}, {"current_trial": 125, "trialdata": {"rt": -1, "trial_type": "single-stim", "stimulus": "<p id=\"stim\">3</p>", "internal_node_id": "0.0-91.0-7.0", "time_elapsed": 693996, "key_press": -1, "trial_index": 125}, "uniqueid": "MTK2116:39ASUFLU6YEB4K6HKHNQQY9KAJUEX2", "dateTime": 1516735901178}, {"current_trial": 126, "trialdata": {"rt": -1, "trial_type": "single-stim", "stimulus": "<p id=\"stim\">2</p>", "internal_node_id": "0.0-91.0-8.0", "time_elapsed": 694998, "key_press": -1, "trial_index": 126}, "uniqueid": "MTK2116:39ASUFLU6YEB4K6HKHNQQY9KAJUEX2", "dateTime": 1516735902180}, {"current_trial": 127, "trialdata": {"rt": -1, "trial_type": "single-stim", "stimulus": "<p id=\"stim\">1</p>", "internal_node_id": "0.0-91.0-9.0", "time_elapsed": 696003, "key_press": -1, "trial_index": 127}, "uniqueid": "MTK2116:39ASUFLU6YEB4K6HKHNQQY9KAJUEX2", "dateTime": 1516735903185}, {"current_trial": 128, "trialdata": {"rt": -1, "trial_type": "single-stim", "stimulus": "<p id=\"stim\">+</p>", "internal_node_id": "0.0-92.0-0.0", "time_elapsed": 697505, "key_press": -1, "type": "FIXATION", "trial_index": 128}, "uniqueid": "MTK2116:39ASUFLU6YEB4K6HKHNQQY9KAJUEX2", "dateTime": 1516735904687}, {"current_trial": 129, "trialdata": {"rt": -1000, "trial_type": "single-audio", "word": "canal", "stimulus": "/static/audio/wordpool/CANAL.wav", "conditions": [24, 1600, "a", 24000], "internal_node_id": "0.0-93.0", "trial": 3, "time_elapsed": 700101, "serialpos": 0, "key_press": -1, "wordID": 225, "type": "PRES_AUD", "trial_index": 129}, "uniqueid": "MTK2116:39ASUFLU6YEB4K6HKHNQQY9KAJUEX2", "dateTime": 1516735907283}, {"current_trial": 130, "trialdata": {"rt": -1000, "trial_type": "single-audio", "word": "teacher", "stimulus": "/static/audio/wordpool/TEACHER.wav", "conditions": [24, 1600, "a", 24000], "internal_node_id": "0.0-94.0", "trial": 3, "time_elapsed": 702552, "serialpos": 1, "key_press": -1, "wordID": 1439, "type": "PRES_AUD", "trial_index": 130}, "uniqueid": "MTK2116:39ASUFLU6YEB4K6HKHNQQY9KAJUEX2", "dateTime": 1516735909734}, {"current_trial": 131, "trialdata": {"rt": -1000, "trial_type": "single-audio", "word": "antler", "stimulus": "/static/audio/wordpool/ANTLER.wav", "conditions": [24, 1600, "a", 24000], "internal_node_id": "0.0-95.0", "trial": 3, "time_elapsed": 704989, "serialpos": 2, "key_press": -1, "wordID": 28, "type": "PRES_AUD", "trial_index": 131}, "uniqueid": "MTK2116:39ASUFLU6YEB4K6HKHNQQY9KAJUEX2", "dateTime": 1516735912171}, {"current_trial": 132, "trialdata": {"rt": -1000, "trial_type": "single-audio", "word": "fungus", "stimulus": "/static/audio/wordpool/FUNGUS.wav", "conditions": [24, 1600, "a", 24000], "internal_node_id": "0.0-96.0", "trial": 3, "time_elapsed": 707462, "serialpos": 3, "key_press": -1, "wordID": 613, "type": "PRES_AUD", "trial_index": 132}, "uniqueid": "MTK2116:39ASUFLU6YEB4K6HKHNQQY9KAJUEX2", "dateTime": 1516735914644}, {"current_trial": 133, "trialdata": {"rt": -1000, "trial_type": "single-audio", "word": "branch", "stimulus": "/static/audio/wordpool/BRANCH.wav", "conditions": [24, 1600, "a", 24000], "internal_node_id": "0.0-97.0", "trial": 3, "time_elapsed": 710044, "serialpos": 4, "key_press": -1, "wordID": 167, "type": "PRES_AUD", "trial_index": 133}, "uniqueid": "MTK2116:39ASUFLU6YEB4K6HKHNQQY9KAJUEX2", "dateTime": 1516735917226}, {"current_trial": 134, "trialdata": {"rt": -1000, "trial_type": "single-audio", "word": "pepper", "stimulus": "/static/audio/wordpool/PEPPER.wav", "conditions": [24, 1600, "a", 24000], "internal_node_id": "0.0-98.0", "trial": 3, "time_elapsed": 712493, "serialpos": 5, "key_press": -1, "wordID": 1046, "type": "PRES_AUD", "trial_index": 134}, "uniqueid": "MTK2116:39ASUFLU6YEB4K6HKHNQQY9KAJUEX2", "dateTime": 1516735919675}, {"current_trial": 135, "trialdata": {"rt": -1000, "trial_type": "single-audio", "word": "garlic", "stimulus": "/static/audio/wordpool/GARLIC.wav", "conditions": [24, 1600, "a", 24000], "internal_node_id": "0.0-99.0", "trial": 3, "time_elapsed": 714995, "serialpos": 6, "key_press": -1, "wordID": 623, "type": "PRES_AUD", "trial_index": 135}, "uniqueid": "MTK2116:39ASUFLU6YEB4K6HKHNQQY9KAJUEX2", "dateTime": 1516735922177}, {"current_trial": 136, "trialdata": {"rt": -1000, "trial_type": "single-audio", "word": "cashew", "stimulus": "/static/audio/wordpool/CASHEW.wav", "conditions": [24, 1600, "a", 24000], "internal_node_id": "0.0-100.0", "trial": 3, "time_elapsed": 717723, "serialpos": 7, "key_press": -1, "wordID": 252, "type": "PRES_AUD", "trial_index": 136}, "uniqueid": "MTK2116:39ASUFLU6YEB4K6HKHNQQY9KAJUEX2", "dateTime": 1516735924905}, {"current_trial": 137, "trialdata": {"rt": -1000, "trial_type": "single-audio", "word": "rocket", "stimulus": "/static/audio/wordpool/ROCKET.wav", "conditions": [24, 1600, "a", 24000], "internal_node_id": "0.0-101.0", "trial": 3, "time_elapsed": 720421, "serialpos": 8, "key_press": -1, "wordID": 1201, "type": "PRES_AUD", "trial_index": 137}, "uniqueid": "MTK2116:39ASUFLU6YEB4K6HKHNQQY9KAJUEX2", "dateTime": 1516735927603}, {"current_trial": 138, "trialdata": {"rt": -1000, "trial_type": "single-audio", "word": "student", "stimulus": "/static/audio/wordpool/STUDENT.wav", "conditions": [24, 1600, "a", 24000], "internal_node_id": "0.0-102.0", "trial": 3, "time_elapsed": 722940, "serialpos": 9, "key_press": -1, "wordID": 1394, "type": "PRES_AUD", "trial_index": 138}, "uniqueid": "MTK2116:39ASUFLU6YEB4K6HKHNQQY9KAJUEX2", "dateTime": 1516735930122}, {"current_trial": 139, "trialdata": {"rt": -1000, "trial_type": "single-audio", "word": "witness", "stimulus": "/static/audio/wordpool/WITNESS.wav", "conditions": [24, 1600, "a", 24000], "internal_node_id": "0.0-103.0", "trial": 3, "time_elapsed": 725388, "serialpos": 10, "key_press": -1, "wordID": 1617, "type": "PRES_AUD", "trial_index": 139}, "uniqueid": "MTK2116:39ASUFLU6YEB4K6HKHNQQY9KAJUEX2", "dateTime": 1516735932570}, {"current_trial": 140, "trialdata": {"rt": -1000, "trial_type": "single-audio", "word": "bank", "stimulus": "/static/audio/wordpool/BANK.wav", "conditions": [24, 1600, "a", 24000], "internal_node_id": "0.0-104.0", "trial": 3, "time_elapsed": 727874, "serialpos": 11, "key_press": -1, "wordID": 82, "type": "PRES_AUD", "trial_index": 140}, "uniqueid": "MTK2116:39ASUFLU6YEB4K6HKHNQQY9KAJUEX2", "dateTime": 1516735935057}, {"current_trial": 141, "trialdata": {"rt": -1000, "trial_type": "single-audio", "word": "nurse", "stimulus": "/static/audio/wordpool/NURSE.wav", "conditions": [24, 1600, "a", 24000], "internal_node_id": "0.0-105.0", "trial": 3, "time_elapsed": 730426, "serialpos": 12, "key_press": -1, "wordID": 962, "type": "PRES_AUD", "trial_index": 141}, "uniqueid": "MTK2116:39ASUFLU6YEB4K6HKHNQQY9KAJUEX2", "dateTime": 1516735937609}, {"current_trial": 142, "trialdata": {"rt": -1000, "trial_type": "single-audio", "word": "patient", "stimulus": "/static/audio/wordpool/PATIENT.wav", "conditions": [24, 1600, "a", 24000], "internal_node_id": "0.0-106.0", "trial": 3, "time_elapsed": 732888, "serialpos": 13, "key_press": -1, "wordID": 1023, "type": "PRES_AUD", "trial_index": 142}, "uniqueid": "MTK2116:39ASUFLU6YEB4K6HKHNQQY9KAJUEX2", "dateTime": 1516735940071}, {"current_trial": 143, "trialdata": {"rt": -1000, "trial_type": "single-audio", "word": "france", "stimulus": "/static/audio/wordpool/FRANCE.wav", "conditions": [24, 1600, "a", 24000], "internal_node_id": "0.0-107.0", "trial": 3, "time_elapsed": 735457, "serialpos": 14, "key_press": -1, "wordID": 600, "type": "PRES_AUD", "trial_index": 143}, "uniqueid": "MTK2116:39ASUFLU6YEB4K6HKHNQQY9KAJUEX2", "dateTime": 1516735942639}, {"current_trial": 144, "trialdata": {"rt": -1000, "trial_type": "single-audio", "word": "wrench", "stimulus": "/static/audio/wordpool/WRENCH.wav", "conditions": [24, 1600, "a", 24000], "internal_node_id": "0.0-108.0", "trial": 3, "time_elapsed": 738067, "serialpos": 15, "key_press": -1, "wordID": 1624, "type": "PRES_AUD", "trial_index": 144}, "uniqueid": "MTK2116:39ASUFLU6YEB4K6HKHNQQY9KAJUEX2", "dateTime": 1516735945249}, {"current_trial": 145, "trialdata": {"rt": -1000, "trial_type": "single-audio", "word": "flower", "stimulus": "/static/audio/wordpool/FLOWER.wav", "conditions": [24, 1600, "a", 24000], "internal_node_id": "0.0-109.0", "trial": 3, "time_elapsed": 740694, "serialpos": 16, "key_press": -1, "wordID": 583, "type": "PRES_AUD", "trial_index": 145}, "uniqueid": "MTK2116:39ASUFLU6YEB4K6HKHNQQY9KAJUEX2", "dateTime": 1516735947876}, {"current_trial": 146, "trialdata": {"rt": -1000, "trial_type": "single-audio", "word": "creature", "stimulus": "/static/audio/wordpool/CREATURE.wav", "conditions": [24, 1600, "a", 24000], "internal_node_id": "0.0-110.0", "trial": 3, "time_elapsed": 743111, "serialpos": 17, "key_press": -1, "wordID": 402, "type": "PRES_AUD", "trial_index": 146}, "uniqueid": "MTK2116:39ASUFLU6YEB4K6HKHNQQY9KAJUEX2", "dateTime": 1516735950293}, {"current_trial": 147, "trialdata": {"rt": -1000, "trial_type": "single-audio", "word": "iceberg", "stimulus": "/static/audio/wordpool/ICEBERG.wav", "conditions": [24, 1600, "a", 24000], "internal_node_id": "0.0-111.0", "trial": 3, "time_elapsed": 745724, "serialpos": 18, "key_press": -1, "wordID": 730, "type": "PRES_AUD", "trial_index": 147}, "uniqueid": "MTK2116:39ASUFLU6YEB4K6HKHNQQY9KAJUEX2", "dateTime": 1516735952906}, {"current_trial": 148, "trialdata": {"rt": -1000, "trial_type": "single-audio", "word": "forest", "stimulus": "/static/audio/wordpool/FOREST.wav", "conditions": [24, 1600, "a", 24000], "internal_node_id": "0.0-112.0", "trial": 3, "time_elapsed": 748249, "serialpos": 19, "key_press": -1, "wordID": 592, "type": "PRES_AUD", "trial_index": 148}, "uniqueid": "MTK2116:39ASUFLU6YEB4K6HKHNQQY9KAJUEX2", "dateTime": 1516735955431}, {"current_trial": 149, "trialdata": {"rt": -1000, "trial_type": "single-audio", "word": "turkey", "stimulus": "/static/audio/wordpool/TURKEY.wav", "conditions": [24, 1600, "a", 24000], "internal_node_id": "0.0-113.0", "trial": 3, "time_elapsed": 750689, "serialpos": 20, "key_press": -1, "wordID": 1519, "type": "PRES_AUD", "trial_index": 149}, "uniqueid": "MTK2116:39ASUFLU6YEB4K6HKHNQQY9KAJUEX2", "dateTime": 1516735957871}, {"current_trial": 150, "trialdata": {"rt": -1000, "trial_type": "single-audio", "word": "cowboy", "stimulus": "/static/audio/wordpool/COWBOY.wav", "conditions": [24, 1600, "a", 24000], "internal_node_id": "0.0-114.0", "trial": 3, "time_elapsed": 753233, "serialpos": 21, "key_press": -1, "wordID": 394, "type": "PRES_AUD", "trial_index": 150}, "uniqueid": "MTK2116:39ASUFLU6YEB4K6HKHNQQY9KAJUEX2", "dateTime": 1516735960415}, {"current_trial": 151, "trialdata": {"rt": -1000, "trial_type": "single-audio", "word": "drawing", "stimulus": "/static/audio/wordpool/DRAWING.wav", "conditions": [24, 1600, "a", 24000], "internal_node_id": "0.0-115.0", "trial": 3, "time_elapsed": 755904, "serialpos": 22, "key_press": -1, "wordID": 493, "type": "PRES_AUD", "trial_index": 151}, "uniqueid": "MTK2116:39ASUFLU6YEB4K6HKHNQQY9KAJUEX2", "dateTime": 1516735963086}, {"current_trial": 152, "trialdata": {"rt": -1000, "trial_type": "single-audio", "word": "london", "stimulus": "/static/audio/wordpool/LONDON.wav", "conditions": [24, 1600, "a", 24000], "internal_node_id": "0.0-116.0", "trial": 3, "time_elapsed": 758646, "serialpos": 23, "key_press": -1, "wordID": 842, "type": "PRES_AUD", "trial_index": 152}, "uniqueid": "MTK2116:39ASUFLU6YEB4K6HKHNQQY9KAJUEX2", "dateTime": 1516735965828}, {"current_trial": 153, "trialdata": {"rt": -1, "trial_type": "single-stim", "stimulus": "", "internal_node_id": "0.0-117.0-0.0", "time_elapsed": 759984, "key_press": -1, "type": "PRE_RECALL_DELAY", "trial_index": 153}, "uniqueid": "MTK2116:39ASUFLU6YEB4K6HKHNQQY9KAJUEX2", "dateTime": 1516735967166}, {"current_trial": 154, "trialdata": {"rt": -1000, "trial_type": "single-audio", "stimulus": "/static/audio/400Hz.wav", "internal_node_id": "0.0-118.0", "time_elapsed": 760485, "key_press": -1, "type": "PRE_RECALL_ALERT", "trial_index": 154}, "uniqueid": "MTK2116:39ASUFLU6YEB4K6HKHNQQY9KAJUEX2", "dateTime": 1516735967668}, {"current_trial": 155, "trialdata": {"rt": [2684, 4654, 5930, 7674, 10795, 12398, 14306], "recwords": ["canal", "teacher", "branch", "fungus", "teacher", "london", "france"], "key_times": [1020, 1335, 1478, 1646, 1826, 2684, 2977, 3183, 3379, 3566, 3768, 3874, 3970, 4654, 5002, 5086, 5262, 5405, 5488, 5684, 5930, 6397, 6527, 6722, 6968, 7084, 7269, 7674, 8023, 8258, 8443, 8604, 8772, 8877, 9014, 10795, 11219, 11393, 11644, 11812, 11947, 12041, 12171, 12398, 12928, 13073, 13309, 13507, 13689, 13739, 13952, 14306], "trial_type": "free-recall", "conditions": [24, 1600, "a", 24000], "internal_node_id": "0.0-119.0-0.0", "key_presses": [67, 65, 78, 65, 76, 13, 84, 69, 65, 67, 72, 69, 82, 13, 66, 82, 65, 78, 67, 72, 13, 70, 85, 78, 71, 85, 83, 13, 84, 69, 65, 67, 72, 69, 82, 13, 16, 76, 79, 78, 68, 79, 78, 13, 16, 70, 82, 65, 78, 67, 69, 13], "trial": 3, "time_elapsed": 820492, "type": "FREE_RECALL", "trial_index": 155}, "uniqueid": "MTK2116:39ASUFLU6YEB4K6HKHNQQY9KAJUEX2", "dateTime": 1516736027679}, {"current_trial": 156, "trialdata": {"rt": 1858, "trial_type": "text", "internal_node_id": "0.0-120.0", "time_elapsed": 824359, "key_press": 32, "type": "INSTRUCTIONS", "trial_index": 156}, "uniqueid": "MTK2116:39ASUFLU6YEB4K6HKHNQQY9KAJUEX2", "dateTime": 1516736031542}, {"current_trial": 157, "trialdata": {"rt": [4783, 10984, 13301, 16538], "trial_type": "math-distractor", "key_times": [4260, 4512, 4783, 10623, 10822, 10984, 12757, 12963, 13301, 16048, 16436, 16538, 18309, 18957, 23603, 23812], "responses": ["22", "22", "11", "13"], "num2": [9, 7, 1, 5, 5], "num3": [5, 9, 7, 7, 8], "conditions": [12, 1600, "a", 24000], "internal_node_id": "0.0-121.0", "key_presses": [50, 50, 13, 50, 50, 13, 49, 49, 13, 49, 51, 13, 49, 56, 8, 8], "trial": 4, "time_elapsed": 850366, "type": "DISTRACTOR", "trial_index": 157, "num1": [8, 6, 3, 1, 7]}, "uniqueid": "MTK2116:39ASUFLU6YEB4K6HKHNQQY9KAJUEX2", "dateTime": 1516736057548}, {"current_trial": 158, "trialdata": {"rt": -1, "trial_type": "single-stim", "stimulus": "<p id=\"stim\">10</p>", "internal_node_id": "0.0-122.0-0.0", "time_elapsed": 853370, "key_press": -1, "trial_index": 158}, "uniqueid": "MTK2116:39ASUFLU6YEB4K6HKHNQQY9KAJUEX2", "dateTime": 1516736060552}, {"current_trial": 159, "trialdata": {"rt": -1, "trial_type": "single-stim", "stimulus": "<p id=\"stim\">9</p>", "internal_node_id": "0.0-122.0-1.0", "time_elapsed": 854371, "key_press": -1, "trial_index": 159}, "uniqueid": "MTK2116:39ASUFLU6YEB4K6HKHNQQY9KAJUEX2", "dateTime": 1516736061555}, {"current_trial": 160, "trialdata": {"rt": -1, "trial_type": "single-stim", "stimulus": "<p id=\"stim\">8</p>", "internal_node_id": "0.0-122.0-2.0", "time_elapsed": 855375, "key_press": -1, "trial_index": 160}, "uniqueid": "MTK2116:39ASUFLU6YEB4K6HKHNQQY9KAJUEX2", "dateTime": 1516736062557}, {"current_trial": 161, "trialdata": {"rt": -1, "trial_type": "single-stim", "stimulus": "<p id=\"stim\">7</p>", "internal_node_id": "0.0-122.0-3.0", "time_elapsed": 856377, "key_press": -1, "trial_index": 161}, "uniqueid": "MTK2116:39ASUFLU6YEB4K6HKHNQQY9KAJUEX2", "dateTime": 1516736063559}, {"current_trial": 162, "trialdata": {"rt": -1, "trial_type": "single-stim", "stimulus": "<p id=\"stim\">6</p>", "internal_node_id": "0.0-122.0-4.0", "time_elapsed": 857379, "key_press": -1, "trial_index": 162}, "uniqueid": "MTK2116:39ASUFLU6YEB4K6HKHNQQY9KAJUEX2", "dateTime": 1516736064561}, {"current_trial": 163, "trialdata": {"rt": -1, "trial_type": "single-stim", "stimulus": "<p id=\"stim\">5</p>", "internal_node_id": "0.0-122.0-5.0", "time_elapsed": 858380, "key_press": -1, "trial_index": 163}, "uniqueid": "MTK2116:39ASUFLU6YEB4K6HKHNQQY9KAJUEX2", "dateTime": 1516736065563}, {"current_trial": 164, "trialdata": {"rt": -1, "trial_type": "single-stim", "stimulus": "<p id=\"stim\">4</p>", "internal_node_id": "0.0-122.0-6.0", "time_elapsed": 859383, "key_press": -1, "trial_index": 164}, "uniqueid": "MTK2116:39ASUFLU6YEB4K6HKHNQQY9KAJUEX2", "dateTime": 1516736066565}, {"current_trial": 165, "trialdata": {"rt": -1, "trial_type": "single-stim", "stimulus": "<p id=\"stim\">3</p>", "internal_node_id": "0.0-122.0-7.0", "time_elapsed": 860384, "key_press": -1, "trial_index": 165}, "uniqueid": "MTK2116:39ASUFLU6YEB4K6HKHNQQY9KAJUEX2", "dateTime": 1516736067567}, {"current_trial": 166, "trialdata": {"rt": -1, "trial_type": "single-stim", "stimulus": "<p id=\"stim\">2</p>", "internal_node_id": "0.0-122.0-8.0", "time_elapsed": 861387, "key_press": -1, "trial_index": 166}, "uniqueid": "MTK2116:39ASUFLU6YEB4K6HKHNQQY9KAJUEX2", "dateTime": 1516736068569}, {"current_trial": 167, "trialdata": {"rt": -1, "trial_type": "single-stim", "stimulus": "<p id=\"stim\">1</p>", "internal_node_id": "0.0-122.0-9.0", "time_elapsed": 862389, "key_press": -1, "trial_index": 167}, "uniqueid": "MTK2116:39ASUFLU6YEB4K6HKHNQQY9KAJUEX2", "dateTime": 1516736069571}, {"current_trial": 168, "trialdata": {"rt": -1, "trial_type": "single-stim", "stimulus": "<p id=\"stim\">+</p>", "internal_node_id": "0.0-123.0-0.0", "time_elapsed": 863891, "key_press": -1, "type": "FIXATION", "trial_index": 168}, "uniqueid": "MTK2116:39ASUFLU6YEB4K6HKHNQQY9KAJUEX2", "dateTime": 1516736071073}, {"current_trial": 169, "trialdata": {"rt": -1000, "trial_type": "single-audio", "word": "lagoon", "stimulus": "/static/audio/wordpool/LAGOON.wav", "conditions": [12, 1600, "a", 24000], "internal_node_id": "0.0-124.0", "trial": 4, "time_elapsed": 866319, "serialpos": 0, "key_press": -1, "wordID": 794, "type": "PRES_AUD", "trial_index": 169}, "uniqueid": "MTK2116:39ASUFLU6YEB4K6HKHNQQY9KAJUEX2", "dateTime": 1516736073501}, {"current_trial": 170, "trialdata": {"rt": -1000, "trial_type": "single-audio", "word": "marsh", "stimulus": "/static/audio/wordpool/MARSH.wav", "conditions": [12, 1600, "a", 24000], "internal_node_id": "0.0-125.0", "trial": 4, "time_elapsed": 868913, "serialpos": 1, "key_press": -1, "wordID": 873, "type": "PRES_AUD", "trial_index": 170}, "uniqueid": "MTK2116:39ASUFLU6YEB4K6HKHNQQY9KAJUEX2", "dateTime": 1516736076095}, {"current_trial": 171, "trialdata": {"rt": -1000, "trial_type": "single-audio", "word": "ozone", "stimulus": "/static/audio/wordpool/OZONE.wav", "conditions": [12, 1600, "a", 24000], "internal_node_id": "0.0-126.0", "trial": 4, "time_elapsed": 871625, "serialpos": 2, "key_press": -1, "wordID": 995, "type": "PRES_AUD", "trial_index": 171}, "uniqueid": "MTK2116:39ASUFLU6YEB4K6HKHNQQY9KAJUEX2", "dateTime": 1516736078807}, {"current_trial": 172, "trialdata": {"rt": -1000, "trial_type": "single-audio", "word": "couch", "stimulus": "/static/audio/wordpool/COUCH.wav", "conditions": [12, 1600, "a", 24000], "internal_node_id": "0.0-127.0", "trial": 4, "time_elapsed": 874413, "serialpos": 3, "key_press": -1, "wordID": 385, "type": "PRES_AUD", "trial_index": 172}, "uniqueid": "MTK2116:39ASUFLU6YEB4K6HKHNQQY9KAJUEX2", "dateTime": 1516736081595}, {"current_trial": 173, "trialdata": {"rt": -1000, "trial_type": "single-audio", "word": "sponge", "stimulus": "/static/audio/wordpool/SPONGE.wav", "conditions": [12, 1600, "a", 24000], "internal_node_id": "0.0-128.0", "trial": 4, "time_elapsed": 877057, "serialpos": 4, "key_press": -1, "wordID": 1354, "type": "PRES_AUD", "trial_index": 173}, "uniqueid": "MTK2116:39ASUFLU6YEB4K6HKHNQQY9KAJUEX2", "dateTime": 1516736084239}, {"current_trial": 174, "trialdata": {"rt": -1000, "trial_type": "single-audio", "word": "orchid", "stimulus": "/static/audio/wordpool/ORCHID.wav", "conditions": [12, 1600, "a", 24000], "internal_node_id": "0.0-129.0", "trial": 4, "time_elapsed": 879612, "serialpos": 5, "key_press": -1, "wordID": 981, "type": "PRES_AUD", "trial_index": 174}, "uniqueid": "MTK2116:39ASUFLU6YEB4K6HKHNQQY9KAJUEX2", "dateTime": 1516736086794}, {"current_trial": 175, "trialdata": {"rt": -1000, "trial_type": "single-audio", "word": "scarecrow", "stimulus": "/static/audio/wordpool/SCARECROW.wav", "conditions": [12, 1600, "a", 24000], "internal_node_id": "0.0-130.0", "trial": 4, "time_elapsed": 882264, "serialpos": 6, "key_press": -1, "wordID": 1244, "type": "PRES_AUD", "trial_index": 175}, "uniqueid": "MTK2116:39ASUFLU6YEB4K6HKHNQQY9KAJUEX2", "dateTime": 1516736089446}, {"current_trial": 176, "trialdata": {"rt": -1000, "trial_type": "single-audio", "word": "smog", "stimulus": "/static/audio/wordpool/SMOG.wav", "conditions": [12, 1600, "a", 24000], "internal_node_id": "0.0-131.0", "trial": 4, "time_elapsed": 884891, "serialpos": 7, "key_press": -1, "wordID": 1329, "type": "PRES_AUD", "trial_index": 176}, "uniqueid": "MTK2116:39ASUFLU6YEB4K6HKHNQQY9KAJUEX2", "dateTime": 1516736092073}, {"current_trial": 177, "trialdata": {"rt": -1000, "trial_type": "single-audio", "word": "seafood", "stimulus": "/static/audio/wordpool/SEAFOOD.wav", "conditions": [12, 1600, "a", 24000], "internal_node_id": "0.0-132.0", "trial": 4, "time_elapsed": 887660, "serialpos": 8, "key_press": -1, "wordID": 1259, "type": "PRES_AUD", "trial_index": 177}, "uniqueid": "MTK2116:39ASUFLU6YEB4K6HKHNQQY9KAJUEX2", "dateTime": 1516736094842}, {"current_trial": 178, "trialdata": {"rt": -1000, "trial_type": "single-audio", "word": "hostess", "stimulus": "/static/audio/wordpool/HOSTESS.wav", "conditions": [12, 1600, "a", 24000], "internal_node_id": "0.0-133.0", "trial": 4, "time_elapsed": 890335, "serialpos": 9, "key_press": -1, "wordID": 722, "type": "PRES_AUD", "trial_index": 178}, "uniqueid": "MTK2116:39ASUFLU6YEB4K6HKHNQQY9KAJUEX2", "dateTime": 1516736097517}, {"current_trial": 179, "trialdata": {"rt": -1000, "trial_type": "single-audio", "word": "saddle", "stimulus": "/static/audio/wordpool/SADDLE.wav", "conditions": [12, 1600, "a", 24000], "internal_node_id": "0.0-134.0", "trial": 4, "time_elapsed": 892737, "serialpos": 10, "key_press": -1, "wordID": 1220, "type": "PRES_AUD", "trial_index": 179}, "uniqueid": "MTK2116:39ASUFLU6YEB4K6HKHNQQY9KAJUEX2", "dateTime": 1516736099920}, {"current_trial": 180, "trialdata": {"rt": -1000, "trial_type": "single-audio", "word": "umpire", "stimulus": "/static/audio/wordpool/UMPIRE.wav", "conditions": [12, 1600, "a", 24000], "internal_node_id": "0.0-135.0", "trial": 4, "time_elapsed": 895425, "serialpos": 11, "key_press": -1, "wordID": 1534, "type": "PRES_AUD", "trial_index": 180}, "uniqueid": "MTK2116:39ASUFLU6YEB4K6HKHNQQY9KAJUEX2", "dateTime": 1516736102607}, {"current_trial": 181, "trialdata": {"rt": -1, "trial_type": "single-stim", "stimulus": "", "internal_node_id": "0.0-136.0-0.0", "time_elapsed": 896772, "key_press": -1, "type": "PRE_RECALL_DELAY", "trial_index": 181}, "uniqueid": "MTK2116:39ASUFLU6YEB4K6HKHNQQY9KAJUEX2", "dateTime": 1516736103954}, {"current_trial": 182, "trialdata": {"rt": -1000, "trial_type": "single-audio", "stimulus": "/static/audio/400Hz.wav", "internal_node_id": "0.0-137.0", "time_elapsed": 897274, "key_press": -1, "type": "PRE_RECALL_ALERT", "trial_index": 182}, "uniqueid": "MTK2116:39ASUFLU6YEB4K6HKHNQQY9KAJUEX2", "dateTime": 1516736104456}, {"current_trial": 183, "trialdata": {"rt": [2796, 4428, 7131, 9814, 14715, 21014, 24289], "recwords": ["couch", "seafood", "umpire", "orchid", "couch", "lagoon", "hostess"], "key_times": [1293, 1455, 1614, 2049, 2276, 2796, 3042, 3279, 3512, 3745, 3921, 4080, 4254, 4428, 5172, 5558, 5975, 6539, 6732, 6921, 7131, 8820, 8902, 9140, 9257, 9342, 9543, 9814, 13919, 14052, 14193, 14349, 14447, 14715, 19685, 19860, 20106, 20295, 20447, 20657, 21014, 23024, 23190, 23290, 23494, 23691, 23956, 24138, 24289], "trial_type": "free-recall", "conditions": [12, 1600, "a", 24000], "internal_node_id": "0.0-138.0-0.0", "key_presses": [67, 79, 85, 67, 72, 13, 83, 69, 65, 70, 79, 79, 68, 13, 85, 77, 80, 73, 82, 69, 13, 79, 82, 67, 72, 73, 68, 13, 67, 79, 85, 67, 72, 13, 76, 65, 71, 79, 79, 78, 13, 72, 79, 83, 84, 69, 83, 83, 13], "trial": 4, "time_elapsed": 957279, "type": "FREE_RECALL", "trial_index": 183}, "uniqueid": "MTK2116:39ASUFLU6YEB4K6HKHNQQY9KAJUEX2", "dateTime": 1516736164466}, {"current_trial": 184, "trialdata": {"rt": 23939, "trial_type": "text", "internal_node_id": "0.0-139.0", "time_elapsed": 983230, "key_press": 32, "type": "INSTRUCTIONS", "trial_index": 184}, "uniqueid": "MTK2116:39ASUFLU6YEB4K6HKHNQQY9KAJUEX2", "dateTime": 1516736190412}, {"current_trial": 185, "trialdata": {"rt": [4282, 6151, 8746, 10740, 13606, 15817, 17746, 21318, 23617], "trial_type": "math-distractor", "key_times": [3441, 3882, 4282, 5733, 5850, 6151, 8337, 8521, 8746, 10332, 10532, 10740, 13236, 13405, 13606, 15466, 15632, 15817, 17224, 17439, 17746, 20933, 21118, 21318, 23147, 23442, 23617], "responses": ["16", "16", "19", "20", "10", "18", "18", "17", "13"], "num2": [5, 5, 3, 3, 7, 6, 6, 7, 4, 9], "num3": [7, 5, 8, 8, 1, 4, 6, 6, 6, 9], "conditions": [24, 1600, "a", 24000], "internal_node_id": "0.0-140.0", "key_presses": [49, 54, 13, 49, 54, 13, 49, 57, 13, 50, 48, 13, 49, 48, 13, 49, 56, 13, 49, 56, 13, 49, 55, 13, 49, 51, 13], "trial": 5, "time_elapsed": 1009236, "type": "DISTRACTOR", "trial_index": 185, "num1": [4, 6, 8, 9, 2, 8, 6, 4, 3, 4]}, "uniqueid": "MTK2116:39ASUFLU6YEB4K6HKHNQQY9KAJUEX2", "dateTime": 1516736216418}, {"current_trial": 186, "trialdata": {"rt": -1, "trial_type": "single-stim", "stimulus": "<p id=\"stim\">10</p>", "internal_node_id": "0.0-141.0-0.0", "time_elapsed": 1012239, "key_press": -1, "trial_index": 186}, "uniqueid": "MTK2116:39ASUFLU6YEB4K6HKHNQQY9KAJUEX2", "dateTime": 1516736219421}, {"current_trial": 187, "trialdata": {"rt": -1, "trial_type": "single-stim", "stimulus": "<p id=\"stim\">9</p>", "internal_node_id": "0.0-141.0-1.0", "time_elapsed": 1013242, "key_press": -1, "trial_index": 187}, "uniqueid": "MTK2116:39ASUFLU6YEB4K6HKHNQQY9KAJUEX2", "dateTime": 1516736220424}, {"current_trial": 188, "trialdata": {"rt": -1, "trial_type": "single-stim", "stimulus": "<p id=\"stim\">8</p>", "internal_node_id": "0.0-141.0-2.0", "time_elapsed": 1014244, "key_press": -1, "trial_index": 188}, "uniqueid": "MTK2116:39ASUFLU6YEB4K6HKHNQQY9KAJUEX2", "dateTime": 1516736221426}, {"current_trial": 189, "trialdata": {"rt": -1, "trial_type": "single-stim", "stimulus": "<p id=\"stim\">7</p>", "internal_node_id": "0.0-141.0-3.0", "time_elapsed": 1015247, "key_press": -1, "trial_index": 189}, "uniqueid": "MTK2116:39ASUFLU6YEB4K6HKHNQQY9KAJUEX2", "dateTime": 1516736222429}, {"current_trial": 190, "trialdata": {"rt": -1, "trial_type": "single-stim", "stimulus": "<p id=\"stim\">6</p>", "internal_node_id": "0.0-141.0-4.0", "time_elapsed": 1016250, "key_press": -1, "trial_index": 190}, "uniqueid": "MTK2116:39ASUFLU6YEB4K6HKHNQQY9KAJUEX2", "dateTime": 1516736223432}, {"current_trial": 191, "trialdata": {"rt": -1, "trial_type": "single-stim", "stimulus": "<p id=\"stim\">5</p>", "internal_node_id": "0.0-141.0-5.0", "time_elapsed": 1017252, "key_press": -1, "trial_index": 191}, "uniqueid": "MTK2116:39ASUFLU6YEB4K6HKHNQQY9KAJUEX2", "dateTime": 1516736224434}, {"current_trial": 192, "trialdata": {"rt": -1, "trial_type": "single-stim", "stimulus": "<p id=\"stim\">4</p>", "internal_node_id": "0.0-141.0-6.0", "time_elapsed": 1018254, "key_press": -1, "trial_index": 192}, "uniqueid": "MTK2116:39ASUFLU6YEB4K6HKHNQQY9KAJUEX2", "dateTime": 1516736225436}, {"current_trial": 193, "trialdata": {"rt": -1, "trial_type": "single-stim", "stimulus": "<p id=\"stim\">3</p>", "internal_node_id": "0.0-141.0-7.0", "time_elapsed": 1019256, "key_press": -1, "trial_index": 193}, "uniqueid": "MTK2116:39ASUFLU6YEB4K6HKHNQQY9KAJUEX2", "dateTime": 1516736226438}, {"current_trial": 194, "trialdata": {"rt": -1, "trial_type": "single-stim", "stimulus": "<p id=\"stim\">2</p>", "internal_node_id": "0.0-141.0-8.0", "time_elapsed": 1020258, "key_press": -1, "trial_index": 194}, "uniqueid": "MTK2116:39ASUFLU6YEB4K6HKHNQQY9KAJUEX2", "dateTime": 1516736227440}, {"current_trial": 195, "trialdata": {"rt": -1, "trial_type": "single-stim", "stimulus": "<p id=\"stim\">1</p>", "internal_node_id": "0.0-141.0-9.0", "time_elapsed": 1021260, "key_press": -1, "trial_index": 195}, "uniqueid": "MTK2116:39ASUFLU6YEB4K6HKHNQQY9KAJUEX2", "dateTime": 1516736228442}, {"current_trial": 196, "trialdata": {"rt": -1, "trial_type": "single-stim", "stimulus": "<p id=\"stim\">+</p>", "internal_node_id": "0.0-142.0-0.0", "time_elapsed": 1022762, "key_press": -1, "type": "FIXATION", "trial_index": 196}, "uniqueid": "MTK2116:39ASUFLU6YEB4K6HKHNQQY9KAJUEX2", "dateTime": 1516736229944}, {"current_trial": 197, "trialdata": {"rt": -1000, "trial_type": "single-audio", "word": "parsley", "stimulus": "/static/audio/wordpool/PARSLEY.wav", "conditions": [24, 1600, "a", 24000], "internal_node_id": "0.0-143.0", "trial": 5, "time_elapsed": 1025441, "serialpos": 0, "key_press": -1, "wordID": 1015, "type": "PRES_AUD", "trial_index": 197}, "uniqueid": "MTK2116:39ASUFLU6YEB4K6HKHNQQY9KAJUEX2", "dateTime": 1516736232623}, {"current_trial": 198, "trialdata": {"rt": -1000, "trial_type": "single-audio", "word": "chemist", "stimulus": "/static/audio/wordpool/CHEMIST.wav", "conditions": [24, 1600, "a", 24000], "internal_node_id": "0.0-144.0", "trial": 5, "time_elapsed": 1028016, "serialpos": 1, "key_press": -1, "wordID": 291, "type": "PRES_AUD", "trial_index": 198}, "uniqueid": "MTK2116:39ASUFLU6YEB4K6HKHNQQY9KAJUEX2", "dateTime": 1516736235198}, {"current_trial": 199, "trialdata": {"rt": -1000, "trial_type": "single-audio", "word": "pigment", "stimulus": "/static/audio/wordpool/PIGMENT.wav", "conditions": [24, 1600, "a", 24000], "internal_node_id": "0.0-145.0", "trial": 5, "time_elapsed": 1030676, "serialpos": 2, "key_press": -1, "wordID": 1065, "type": "PRES_AUD", "trial_index": 199}, "uniqueid": "MTK2116:39ASUFLU6YEB4K6HKHNQQY9KAJUEX2", "dateTime": 1516736237859}, {"current_trial": 200, "trialdata": {"rt": -1000, "trial_type": "single-audio", "word": "bunny", "stimulus": "/static/audio/wordpool/BUNNY.wav", "conditions": [24, 1600, "a", 24000], "internal_node_id": "0.0-146.0", "trial": 5, "time_elapsed": 1033429, "serialpos": 3, "key_press": -1, "wordID": 197, "type": "PRES_AUD", "trial_index": 200}, "uniqueid": "MTK2116:39ASUFLU6YEB4K6HKHNQQY9KAJUEX2", "dateTime": 1516736240612}, {"current_trial": 201, "trialdata": {"rt": -1000, "trial_type": "single-audio", "word": "film", "stimulus": "/static/audio/wordpool/FILM.wav", "conditions": [24, 1600, "a", 24000], "internal_node_id": "0.0-147.0", "trial": 5, "time_elapsed": 1036209, "serialpos": 4, "key_press": -1, "wordID": 564, "type": "PRES_AUD", "trial_index": 201}, "uniqueid": "MTK2116:39ASUFLU6YEB4K6HKHNQQY9KAJUEX2", "dateTime": 1516736243392}, {"current_trial": 202, "trialdata": {"rt": -1000, "trial_type": "single-audio", "word": "actor", "stimulus": "/static/audio/wordpool/ACTOR.wav", "conditions": [24, 1600, "a", 24000], "internal_node_id": "0.0-148.0", "trial": 5, "time_elapsed": 1038918, "serialpos": 5, "key_press": -1, "wordID": 4, "type": "PRES_AUD", "trial_index": 202}, "uniqueid": "MTK2116:39ASUFLU6YEB4K6HKHNQQY9KAJUEX2", "dateTime": 1516736246101}, {"current_trial": 203, "trialdata": {"rt": -1000, "trial_type": "single-audio", "word": "globe", "stimulus": "/static/audio/wordpool/GLOBE.wav", "conditions": [24, 1600, "a", 24000], "internal_node_id": "0.0-149.0", "trial": 5, "time_elapsed": 1041681, "serialpos": 6, "key_press": -1, "wordID": 640, "type": "PRES_AUD", "trial_index": 203}, "uniqueid": "MTK2116:39ASUFLU6YEB4K6HKHNQQY9KAJUEX2", "dateTime": 1516736248864}, {"current_trial": 204, "trialdata": {"rt": -1000, "trial_type": "single-audio", "word": "chipmunk", "stimulus": "/static/audio/wordpool/CHIPMUNK.wav", "conditions": [24, 1600, "a", 24000], "internal_node_id": "0.0-150.0", "trial": 5, "time_elapsed": 1044183, "serialpos": 7, "key_press": -1, "wordID": 303, "type": "PRES_AUD", "trial_index": 204}, "uniqueid": "MTK2116:39ASUFLU6YEB4K6HKHNQQY9KAJUEX2", "dateTime": 1516736251365}, {"current_trial": 205, "trialdata": {"rt": -1000, "trial_type": "single-audio", "word": "taxi", "stimulus": "/static/audio/wordpool/TAXI.wav", "conditions": [24, 1600, "a", 24000], "internal_node_id": "0.0-151.0", "trial": 5, "time_elapsed": 1046617, "serialpos": 8, "key_press": -1, "wordID": 1437, "type": "PRES_AUD", "trial_index": 205}, "uniqueid": "MTK2116:39ASUFLU6YEB4K6HKHNQQY9KAJUEX2", "dateTime": 1516736253799}, {"current_trial": 206, "trialdata": {"rt": -1000, "trial_type": "single-audio", "word": "mister", "stimulus": "/static/audio/wordpool/MISTER.wav", "conditions": [24, 1600, "a", 24000], "internal_node_id": "0.0-152.0", "trial": 5, "time_elapsed": 1049222, "serialpos": 9, "key_press": -1, "wordID": 900, "type": "PRES_AUD", "trial_index": 206}, "uniqueid": "MTK2116:39ASUFLU6YEB4K6HKHNQQY9KAJUEX2", "dateTime": 1516736256404}, {"current_trial": 207, "trialdata": {"rt": -1000, "trial_type": "single-audio", "word": "europe", "stimulus": "/static/audio/wordpool/EUROPE.wav", "conditions": [24, 1600, "a", 24000], "internal_node_id": "0.0-153.0", "trial": 5, "time_elapsed": 1051899, "serialpos": 10, "key_press": -1, "wordID": 540, "type": "PRES_AUD", "trial_index": 207}, "uniqueid": "MTK2116:39ASUFLU6YEB4K6HKHNQQY9KAJUEX2", "dateTime": 1516736259081}, {"current_trial": 208, "trialdata": {"rt": -1000, "trial_type": "single-audio", "word": "fiddle", "stimulus": "/static/audio/wordpool/FIDDLE.wav", "conditions": [24, 1600, "a", 24000], "internal_node_id": "0.0-154.0", "trial": 5, "time_elapsed": 1054648, "serialpos": 11, "key_press": -1, "wordID": 560, "type": "PRES_AUD", "trial_index": 208}, "uniqueid": "MTK2116:39ASUFLU6YEB4K6HKHNQQY9KAJUEX2", "dateTime": 1516736261831}, {"current_trial": 209, "trialdata": {"rt": -1000, "trial_type": "single-audio", "word": "donkey", "stimulus": "/static/audio/wordpool/DONKEY.wav", "conditions": [24, 1600, "a", 24000], "internal_node_id": "0.0-155.0", "trial": 5, "time_elapsed": 1057359, "serialpos": 12, "key_press": -1, "wordID": 483, "type": "PRES_AUD", "trial_index": 209}, "uniqueid": "MTK2116:39ASUFLU6YEB4K6HKHNQQY9KAJUEX2", "dateTime": 1516736264542}, {"current_trial": 210, "trialdata": {"rt": -1000, "trial_type": "single-audio", "word": "snake", "stimulus": "/static/audio/wordpool/SNAKE.wav", "conditions": [24, 1600, "a", 24000], "internal_node_id": "0.0-156.0", "trial": 5, "time_elapsed": 1060136, "serialpos": 13, "key_press": -1, "wordID": 1332, "type": "PRES_AUD", "trial_index": 210}, "uniqueid": "MTK2116:39ASUFLU6YEB4K6HKHNQQY9KAJUEX2", "dateTime": 1516736267319}, {"current_trial": 211, "trialdata": {"rt": -1000, "trial_type": "single-audio", "word": "popcorn", "stimulus": "/static/audio/wordpool/POPCORN.wav", "conditions": [24, 1600, "a", 24000], "internal_node_id": "0.0-157.0", "trial": 5, "time_elapsed": 1062625, "serialpos": 14, "key_press": -1, "wordID": 1103, "type": "PRES_AUD", "trial_index": 211}, "uniqueid": "MTK2116:39ASUFLU6YEB4K6HKHNQQY9KAJUEX2", "dateTime": 1516736269807}, {"current_trial": 212, "trialdata": {"rt": -1000, "trial_type": "single-audio", "word": "blender", "stimulus": "/static/audio/wordpool/BLENDER.wav", "conditions": [24, 1600, "a", 24000], "internal_node_id": "0.0-158.0", "trial": 5, "time_elapsed": 1065368, "serialpos": 15, "key_press": -1, "wordID": 135, "type": "PRES_AUD", "trial_index": 212}, "uniqueid": "MTK2116:39ASUFLU6YEB4K6HKHNQQY9KAJUEX2", "dateTime": 1516736272551}, {"current_trial": 213, "trialdata": {"rt": -1000, "trial_type": "single-audio", "word": "penguin", "stimulus": "/static/audio/wordpool/PENGUIN.wav", "conditions": [24, 1600, "a", 24000], "internal_node_id": "0.0-159.0", "trial": 5, "time_elapsed": 1068007, "serialpos": 16, "key_press": -1, "wordID": 1043, "type": "PRES_AUD", "trial_index": 213}, "uniqueid": "MTK2116:39ASUFLU6YEB4K6HKHNQQY9KAJUEX2", "dateTime": 1516736275190}, {"current_trial": 214, "trialdata": {"rt": -1000, "trial_type": "single-audio", "word": "napkin", "stimulus": "/static/audio/wordpool/NAPKIN.wav", "conditions": [24, 1600, "a", 24000], "internal_node_id": "0.0-160.0", "trial": 5, "time_elapsed": 1070637, "serialpos": 17, "key_press": -1, "wordID": 936, "type": "PRES_AUD", "trial_index": 214}, "uniqueid": "MTK2116:39ASUFLU6YEB4K6HKHNQQY9KAJUEX2", "dateTime": 1516736277819}, {"current_trial": 215, "trialdata": {"rt": -1000, "trial_type": "single-audio", "word": "tortoise", "stimulus": "/static/audio/wordpool/TORTOISE.wav", "conditions": [24, 1600, "a", 24000], "internal_node_id": "0.0-161.0", "trial": 5, "time_elapsed": 1073162, "serialpos": 18, "key_press": -1, "wordID": 1485, "type": "PRES_AUD", "trial_index": 215}, "uniqueid": "MTK2116:39ASUFLU6YEB4K6HKHNQQY9KAJUEX2", "dateTime": 1516736280344}, {"current_trial": 216, "trialdata": {"rt": -1000, "trial_type": "single-audio", "word": "dragon", "stimulus": "/static/audio/wordpool/DRAGON.wav", "conditions": [24, 1600, "a", 24000], "internal_node_id": "0.0-162.0", "trial": 5, "time_elapsed": 1075744, "serialpos": 19, "key_press": -1, "wordID": 491, "type": "PRES_AUD", "trial_index": 216}, "uniqueid": "MTK2116:39ASUFLU6YEB4K6HKHNQQY9KAJUEX2", "dateTime": 1516736282926}, {"current_trial": 217, "trialdata": {"rt": -1000, "trial_type": "single-audio", "word": "spouse", "stimulus": "/static/audio/wordpool/SPOUSE.wav", "conditions": [24, 1600, "a", 24000], "internal_node_id": "0.0-163.0", "trial": 5, "time_elapsed": 1078409, "serialpos": 20, "key_press": -1, "wordID": 1357, "type": "PRES_AUD", "trial_index": 217}, "uniqueid": "MTK2116:39ASUFLU6YEB4K6HKHNQQY9KAJUEX2", "dateTime": 1516736285591}, {"current_trial": 218, "trialdata": {"rt": -1000, "trial_type": "single-audio", "word": "husband", "stimulus": "/static/audio/wordpool/HUSBAND.wav", "conditions": [24, 1600, "a", 24000], "internal_node_id": "0.0-164.0", "trial": 5, "time_elapsed": 1080912, "serialpos": 21, "key_press": -1, "wordID": 727, "type": "PRES_AUD", "trial_index": 218}, "uniqueid": "MTK2116:39ASUFLU6YEB4K6HKHNQQY9KAJUEX2", "dateTime": 1516736288094}, {"current_trial": 219, "trialdata": {"rt": -1000, "trial_type": "single-audio", "word": "dolphin", "stimulus": "/static/audio/wordpool/DOLPHIN.wav", "conditions": [24, 1600, "a", 24000], "internal_node_id": "0.0-165.0", "trial": 5, "time_elapsed": 1083522, "serialpos": 22, "key_press": -1, "wordID": 482, "type": "PRES_AUD", "trial_index": 219}, "uniqueid": "MTK2116:39ASUFLU6YEB4K6HKHNQQY9KAJUEX2", "dateTime": 1516736290704}, {"current_trial": 220, "trialdata": {"rt": -1000, "trial_type": "single-audio", "word": "drink", "stimulus": "/static/audio/wordpool/DRINK.wav", "conditions": [24, 1600, "a", 24000], "internal_node_id": "0.0-166.0", "trial": 5, "time_elapsed": 1086197, "serialpos": 23, "key_press": -1, "wordID": 497, "type": "PRES_AUD", "trial_index": 220}, "uniqueid": "MTK2116:39ASUFLU6YEB4K6HKHNQQY9KAJUEX2", "dateTime": 1516736293379}, {"current_trial": 221, "trialdata": {"rt": -1, "trial_type": "single-stim", "stimulus": "", "internal_node_id": "0.0-167.0-0.0", "time_elapsed": 1087461, "key_press": -1, "type": "PRE_RECALL_DELAY", "trial_index": 221}, "uniqueid": "MTK2116:39ASUFLU6YEB4K6HKHNQQY9KAJUEX2", "dateTime": 1516736294643}, {"current_trial": 222, "trialdata": {"rt": -1000, "trial_type": "single-audio", "stimulus": "/static/audio/400Hz.wav", "internal_node_id": "0.0-168.0", "time_elapsed": 1087963, "key_press": -1, "type": "PRE_RECALL_ALERT", "trial_index": 222}, "uniqueid": "MTK2116:39ASUFLU6YEB4K6HKHNQQY9KAJUEX2", "dateTime": 1516736295145}, {"current_trial": 223, "trialdata": {"rt": [2342, 3509, 4815, 6191, 7647, 9797, 11387, 15799, 31460, 34625, 39564], "recwords": ["film", "actor", "globe", "mister", "spouse", "husband", "drink", "tortoise", "napkin", "popcorn", "blender"], "key_times": [1473, 1617, 1806, 1922, 2342, 2583, 2743, 3074, 3137, 3271, 3509, 3953, 4186, 4340, 4437, 4685, 4815, 5057, 5234, 5367, 5623, 5740, 5890, 6191, 6561, 6839, 6997, 7170, 7294, 7482, 7647, 8166, 8284, 8474, 9070, 9228, 9385, 9526, 9797, 10381, 10633, 10722, 10883, 11018, 11387, 12158, 12302, 12495, 13270, 15071, 15185, 15296, 15541, 15799, 30228, 30387, 30517, 30697, 30878, 31090, 31460, 32560, 32793, 32918, 33170, 33787, 33969, 34185, 34625, 38177, 38385, 38478, 38672, 38747, 38930, 39038, 39564], "trial_type": "free-recall", "conditions": [24, 1600, "a", 24000], "internal_node_id": "0.0-169.0-0.0", "key_presses": [70, 73, 76, 77, 13, 65, 67, 84, 79, 82, 13, 71, 76, 79, 66, 69, 13, 77, 73, 83, 84, 69, 82, 13, 83, 80, 79, 85, 83, 69, 13, 72, 85, 83, 66, 65, 78, 68, 13, 68, 82, 73, 78, 75, 13, 84, 79, 82, 84, 79, 73, 83, 69, 13, 78, 65, 80, 75, 73, 78, 13, 80, 79, 80, 67, 79, 82, 78, 13, 66, 76, 69, 78, 68, 69, 82, 13], "trial": 5, "time_elapsed": 1147969, "type": "FREE_RECALL", "trial_index": 223}, "uniqueid": "MTK2116:39ASUFLU6YEB4K6HKHNQQY9KAJUEX2", "dateTime": 1516736355161}, {"current_trial": 224, "trialdata": {"rt": 1553, "trial_type": "text", "internal_node_id": "0.0-170.0", "time_elapsed": 1151540, "key_press": 32, "type": "INSTRUCTIONS", "trial_index": 224}, "uniqueid": "MTK2116:39ASUFLU6YEB4K6HKHNQQY9KAJUEX2", "dateTime": 1516736358722}, {"current_trial": 225, "trialdata": {"rt": [2324, 6683], "trial_type": "math-distractor", "key_times": [1933, 2122, 2324, 6072, 6512, 6683, 11145, 11296], "responses": ["18", "15"], "num2": [5, 5, 6], "num3": [4, 4, 8], "conditions": [24, 1600, "a", 12000], "internal_node_id": "0.0-171.0", "key_presses": [49, 56, 13, 49, 53, 13, 50, 51], "trial": 6, "time_elapsed": 1165546, "type": "DISTRACTOR", "trial_index": 225, "num1": [9, 6, 9]}, "uniqueid": "MTK2116:39ASUFLU6YEB4K6HKHNQQY9KAJUEX2", "dateTime": 1516736372728}, {"current_trial": 226, "trialdata": {"rt": -1, "trial_type": "single-stim", "stimulus": "<p id=\"stim\">10</p>", "internal_node_id": "0.0-172.0-0.0", "time_elapsed": 1168549, "key_press": -1, "trial_index": 226}, "uniqueid": "MTK2116:39ASUFLU6YEB4K6HKHNQQY9KAJUEX2", "dateTime": 1516736375731}, {"current_trial": 227, "trialdata": {"rt": -1, "trial_type": "single-stim", "stimulus": "<p id=\"stim\">9</p>", "internal_node_id": "0.0-172.0-1.0", "time_elapsed": 1169551, "key_press": -1, "trial_index": 227}, "uniqueid": "MTK2116:39ASUFLU6YEB4K6HKHNQQY9KAJUEX2", "dateTime": 1516736376733}, {"current_trial": 228, "trialdata": {"rt": -1, "trial_type": "single-stim", "stimulus": "<p id=\"stim\">8</p>", "internal_node_id": "0.0-172.0-2.0", "time_elapsed": 1170553, "key_press": -1, "trial_index": 228}, "uniqueid": "MTK2116:39ASUFLU6YEB4K6HKHNQQY9KAJUEX2", "dateTime": 1516736377735}, {"current_trial": 229, "trialdata": {"rt": -1, "trial_type": "single-stim", "stimulus": "<p id=\"stim\">7</p>", "internal_node_id": "0.0-172.0-3.0", "time_elapsed": 1171555, "key_press": -1, "trial_index": 229}, "uniqueid": "MTK2116:39ASUFLU6YEB4K6HKHNQQY9KAJUEX2", "dateTime": 1516736378737}, {"current_trial": 230, "trialdata": {"rt": -1, "trial_type": "single-stim", "stimulus": "<p id=\"stim\">6</p>", "internal_node_id": "0.0-172.0-4.0", "time_elapsed": 1172557, "key_press": -1, "trial_index": 230}, "uniqueid": "MTK2116:39ASUFLU6YEB4K6HKHNQQY9KAJUEX2", "dateTime": 1516736379739}, {"current_trial": 231, "trialdata": {"rt": -1, "trial_type": "single-stim", "stimulus": "<p id=\"stim\">5</p>", "internal_node_id": "0.0-172.0-5.0", "time_elapsed": 1173561, "key_press": -1, "trial_index": 231}, "uniqueid": "MTK2116:39ASUFLU6YEB4K6HKHNQQY9KAJUEX2", "dateTime": 1516736380744}, {"current_trial": 232, "trialdata": {"rt": -1, "trial_type": "single-stim", "stimulus": "<p id=\"stim\">4</p>", "internal_node_id": "0.0-172.0-6.0", "time_elapsed": 1174563, "key_press": -1, "trial_index": 232}, "uniqueid": "MTK2116:39ASUFLU6YEB4K6HKHNQQY9KAJUEX2", "dateTime": 1516736381745}, {"current_trial": 233, "trialdata": {"rt": -1, "trial_type": "single-stim", "stimulus": "<p id=\"stim\">3</p>", "internal_node_id": "0.0-172.0-7.0", "time_elapsed": 1175565, "key_press": -1, "trial_index": 233}, "uniqueid": "MTK2116:39ASUFLU6YEB4K6HKHNQQY9KAJUEX2", "dateTime": 1516736382747}, {"current_trial": 234, "trialdata": {"rt": -1, "trial_type": "single-stim", "stimulus": "<p id=\"stim\">2</p>", "internal_node_id": "0.0-172.0-8.0", "time_elapsed": 1176567, "key_press": -1, "trial_index": 234}, "uniqueid": "MTK2116:39ASUFLU6YEB4K6HKHNQQY9KAJUEX2", "dateTime": 1516736383749}, {"current_trial": 235, "trialdata": {"rt": -1, "trial_type": "single-stim", "stimulus": "<p id=\"stim\">1</p>", "internal_node_id": "0.0-172.0-9.0", "time_elapsed": 1177569, "key_press": -1, "trial_index": 235}, "uniqueid": "MTK2116:39ASUFLU6YEB4K6HKHNQQY9KAJUEX2", "dateTime": 1516736384751}, {"current_trial": 236, "trialdata": {"rt": -1, "trial_type": "single-stim", "stimulus": "<p id=\"stim\">+</p>", "internal_node_id": "0.0-173.0-0.0", "time_elapsed": 1179071, "key_press": -1, "type": "FIXATION", "trial_index": 236}, "uniqueid": "MTK2116:39ASUFLU6YEB4K6HKHNQQY9KAJUEX2", "dateTime": 1516736386254}, {"current_trial": 237, "trialdata": {"rt": -1000, "trial_type": "single-audio", "word": "skillet", "stimulus": "/static/audio/wordpool/SKILLET.wav", "conditions": [24, 1600, "a", 12000], "internal_node_id": "0.0-174.0", "trial": 6, "time_elapsed": 1181625, "serialpos": 0, "key_press": -1, "wordID": 1316, "type": "PRES_AUD", "trial_index": 237}, "uniqueid": "MTK2116:39ASUFLU6YEB4K6HKHNQQY9KAJUEX2", "dateTime": 1516736388807}, {"current_trial": 238, "trialdata": {"rt": -1000, "trial_type": "single-audio", "word": "asia", "stimulus": "/static/audio/wordpool/ASIA.wav", "conditions": [24, 1600, "a", 12000], "internal_node_id": "0.0-175.0", "trial": 6, "time_elapsed": 1184265, "serialpos": 1, "key_press": -1, "wordID": 45, "type": "PRES_AUD", "trial_index": 238}, "uniqueid": "MTK2116:39ASUFLU6YEB4K6HKHNQQY9KAJUEX2", "dateTime": 1516736391447}, {"current_trial": 239, "trialdata": {"rt": -1000, "trial_type": "single-audio", "word": "uncle", "stimulus": "/static/audio/wordpool/UNCLE.wav", "conditions": [24, 1600, "a", 12000], "internal_node_id": "0.0-176.0", "trial": 6, "time_elapsed": 1187028, "serialpos": 2, "key_press": -1, "wordID": 1535, "type": "PRES_AUD", "trial_index": 239}, "uniqueid": "MTK2116:39ASUFLU6YEB4K6HKHNQQY9KAJUEX2", "dateTime": 1516736394210}, {"current_trial": 240, "trialdata": {"rt": -1000, "trial_type": "single-audio", "word": "flute", "stimulus": "/static/audio/wordpool/FLUTE.wav", "conditions": [24, 1600, "a", 12000], "internal_node_id": "0.0-177.0", "trial": 6, "time_elapsed": 1189436, "serialpos": 3, "key_press": -1, "wordID": 584, "type": "PRES_AUD", "trial_index": 240}, "uniqueid": "MTK2116:39ASUFLU6YEB4K6HKHNQQY9KAJUEX2", "dateTime": 1516736396619}, {"current_trial": 241, "trialdata": {"rt": -1000, "trial_type": "single-audio", "word": "eagle", "stimulus": "/static/audio/wordpool/EAGLE.wav", "conditions": [24, 1600, "a", 12000], "internal_node_id": "0.0-178.0", "trial": 6, "time_elapsed": 1192106, "serialpos": 4, "key_press": -1, "wordID": 511, "type": "PRES_AUD", "trial_index": 241}, "uniqueid": "MTK2116:39ASUFLU6YEB4K6HKHNQQY9KAJUEX2", "dateTime": 1516736399288}, {"current_trial": 242, "trialdata": {"rt": -1000, "trial_type": "single-audio", "word": "cafe", "stimulus": "/static/audio/wordpool/CAFE.wav", "conditions": [24, 1600, "a", 12000], "internal_node_id": "0.0-179.0", "trial": 6, "time_elapsed": 1194874, "serialpos": 5, "key_press": -1, "wordID": 215, "type": "PRES_AUD", "trial_index": 242}, "uniqueid": "MTK2116:39ASUFLU6YEB4K6HKHNQQY9KAJUEX2", "dateTime": 1516736402056}, {"current_trial": 243, "trialdata": {"rt": -1000, "trial_type": "single-audio", "word": "diner", "stimulus": "/static/audio/wordpool/DINER.wav", "conditions": [24, 1600, "a", 12000], "internal_node_id": "0.0-180.0", "trial": 6, "time_elapsed": 1197579, "serialpos": 6, "key_press": -1, "wordID": 466, "type": "PRES_AUD", "trial_index": 243}, "uniqueid": "MTK2116:39ASUFLU6YEB4K6HKHNQQY9KAJUEX2", "dateTime": 1516736404761}, {"current_trial": 244, "trialdata": {"rt": -1000, "trial_type": "single-audio", "word": "dresser", "stimulus": "/static/audio/wordpool/DRESSER.wav", "conditions": [24, 1600, "a", 12000], "internal_node_id": "0.0-181.0", "trial": 6, "time_elapsed": 1200294, "serialpos": 7, "key_press": -1, "wordID": 495, "type": "PRES_AUD", "trial_index": 244}, "uniqueid": "MTK2116:39ASUFLU6YEB4K6HKHNQQY9KAJUEX2", "dateTime": 1516736407476}, {"current_trial": 245, "trialdata": {"rt": -1000, "trial_type": "single-audio", "word": "spoon", "stimulus": "/static/audio/wordpool/SPOON.wav", "conditions": [24, 1600, "a", 12000], "internal_node_id": "0.0-182.0", "trial": 6, "time_elapsed": 1203054, "serialpos": 8, "key_press": -1, "wordID": 1356, "type": "PRES_AUD", "trial_index": 245}, "uniqueid": "MTK2116:39ASUFLU6YEB4K6HKHNQQY9KAJUEX2", "dateTime": 1516736410236}, {"current_trial": 246, "trialdata": {"rt": -1000, "trial_type": "single-audio", "word": "seal", "stimulus": "/static/audio/wordpool/SEAL.wav", "conditions": [24, 1600, "a", 12000], "internal_node_id": "0.0-183.0", "trial": 6, "time_elapsed": 1205823, "serialpos": 9, "key_press": -1, "wordID": 1261, "type": "PRES_AUD", "trial_index": 246}, "uniqueid": "MTK2116:39ASUFLU6YEB4K6HKHNQQY9KAJUEX2", "dateTime": 1516736413005}, {"current_trial": 247, "trialdata": {"rt": -1000, "trial_type": "single-audio", "word": "fleet", "stimulus": "/static/audio/wordpool/FLEET.wav", "conditions": [24, 1600, "a", 12000], "internal_node_id": "0.0-184.0", "trial": 6, "time_elapsed": 1208234, "serialpos": 10, "key_press": -1, "wordID": 577, "type": "PRES_AUD", "trial_index": 247}, "uniqueid": "MTK2116:39ASUFLU6YEB4K6HKHNQQY9KAJUEX2", "dateTime": 1516736415416}, {"current_trial": 248, "trialdata": {"rt": -1000, "trial_type": "single-audio", "word": "outdoors", "stimulus": "/static/audio/wordpool/OUTDOORS.wav", "conditions": [24, 1600, "a", 12000], "internal_node_id": "0.0-185.0", "trial": 6, "time_elapsed": 1210993, "serialpos": 11, "key_press": -1, "wordID": 986, "type": "PRES_AUD", "trial_index": 248}, "uniqueid": "MTK2116:39ASUFLU6YEB4K6HKHNQQY9KAJUEX2", "dateTime": 1516736418175}, {"current_trial": 249, "trialdata": {"rt": -1000, "trial_type": "single-audio", "word": "sticker", "stimulus": "/static/audio/wordpool/STICKER.wav", "conditions": [24, 1600, "a", 12000], "internal_node_id": "0.0-186.0", "trial": 6, "time_elapsed": 1213590, "serialpos": 12, "key_press": -1, "wordID": 1381, "type": "PRES_AUD", "trial_index": 249}, "uniqueid": "MTK2116:39ASUFLU6YEB4K6HKHNQQY9KAJUEX2", "dateTime": 1516736420772}, {"current_trial": 250, "trialdata": {"rt": -1000, "trial_type": "single-audio", "word": "virus", "stimulus": "/static/