{"assignmentId": "3BXQMRHWK05HZ44ZWA0MJZFPP1RUMY", "workerId": "MTK2105", "questiondata": {"origin": "United States", "strat-rehearsal": "5", "marital": "Married/Domestic Partnership", "education": "Some college", "ethnicity": "Not Hispanic", "color_depth": 24, "distracted": "No", "wrote-notes": "No", "strat-other": "", "screen_width": 1366, "avail_screen_width": 1366, "avail_screen_height": 728, "strat-image": "100", "language": "english", "gender": "Female", "age": "42", "gender_other": "", "race": ["White"], "strat-categorize": "100", "pixel_depth": 24, "strat-spatial": "100", "strat-story": "36", "race_other": "", "screen_height": 768}, "bonus": 0, "hitId": "3G9UA71JVV1ND1OOQ3PH4VD4VD7J7U", "counterbalance": 1825, "useragent": "Mozilla/5.0 (Windows NT 10.0; Win64; x64) AppleWebKit/537.36 (KHTML, like Gecko) Chrome/63.0.3239.132 Safari/537.36", "eventdata": [{"eventtype": "initialized", "interval": 0, "value": null, "timestamp": 1516733967219}, {"eventtype": "window_resize", "interval": 0, "value": [1366, 721], "timestamp": 1516733967219}, {"eventtype": "focus", "interval": 307814, "value": "off", "timestamp": 1516734275033}, {"eventtype": "focus", "interval": 248220, "value": "on", "timestamp": 1516734523253}, {"eventtype": "window_resize", "interval": 469686, "value": [1366, 677], "timestamp": 1516734992939}, {"eventtype": "focus", "interval": 2192794, "value": "off", "timestamp": 1516737185733}, {"eventtype": "focus", "interval": 1357, "value": "on", "timestamp": 1516737187090}], "data": [{"current_trial": 0, "trialdata": {"rt": 538257, "trial_type": "text", "internal_node_id": "0.0-0.0", "time_elapsed": 538259, "key_press": 32, "type": "INSTRUCTIONS", "trial_index": 0}, "uniqueid": "MTK2105:3BXQMRHWK05HZ44ZWA0MJZFPP1RUMY", "dateTime": 1516734523924}, {"current_trial": 1, "trialdata": {"rt": 33685, "trial_type": "text", "internal_node_id": "0.0-1.0", "time_elapsed": 571949, "key_press": 32, "type": "INSTRUCTIONS", "trial_index": 1}, "uniqueid": "MTK2105:3BXQMRHWK05HZ44ZWA0MJZFPP1RUMY", "dateTime": 1516734557613}, {"current_trial": 2, "trialdata": {"rt": [8546], "trial_type": "audio-test", "responses": ["ocean"], "internal_node_id": "0.0-2.0", "time_elapsed": 580520, "type": "AUDIO_TEST", "trial_index": 2}, "uniqueid": "MTK2105:3BXQMRHWK05HZ44ZWA0MJZFPP1RUMY", "dateTime": 1516734566184}, {"current_trial": 3, "trialdata": {"rt": [7962], "trial_type": "audio-test", "responses": ["crystal"], "internal_node_id": "0.0-3.0", "time_elapsed": 588491, "type": "AUDIO_TEST", "trial_index": 3}, "uniqueid": "MTK2105:3BXQMRHWK05HZ44ZWA0MJZFPP1RUMY", "dateTime": 1516734574155}, {"current_trial": 4, "trialdata": {"rt": [8737], "trial_type": "audio-test", "responses": ["spice"], "internal_node_id": "0.0-4.0", "time_elapsed": 597235, "type": "AUDIO_TEST", "trial_index": 4}, "uniqueid": "MTK2105:3BXQMRHWK05HZ44ZWA0MJZFPP1RUMY", "dateTime": 1516734582899}, {"current_trial": 5, "trialdata": {"rt": 30428, "trial_type": "survey-text", "responses": "{\"Q0\":\"12:30\",\"Q1\":\"7:30\",\"Q2\":\"5\"}", "internal_node_id": "0.0-5.0", "time_elapsed": 628419, "type": "SLEEP_SURVEY", "trial_index": 5}, "uniqueid": "MTK2105:3BXQMRHWK05HZ44ZWA0MJZFPP1RUMY", "dateTime": 1516734614083}, {"current_trial": 6, "trialdata": {"rt": 45686, "trial_type": "text", "internal_node_id": "0.0-6.0", "time_elapsed": 675108, "key_press": 32, "type": "INSTRUCTIONS", "trial_index": 6}, "uniqueid": "MTK2105:3BXQMRHWK05HZ44ZWA0MJZFPP1RUMY", "dateTime": 1516734660772}, {"current_trial": 7, "trialdata": {"rt": 20392, "trial_type": "text", "internal_node_id": "0.0-7.0", "time_elapsed": 696002, "key_press": 13, "type": "INSTRUCTIONS", "trial_index": 7}, "uniqueid": "MTK2105:3BXQMRHWK05HZ44ZWA0MJZFPP1RUMY", "dateTime": 1516734681666}, {"current_trial": 8, "trialdata": {"rt": 39771, "trial_type": "text", "internal_node_id": "0.0-8.0", "time_elapsed": 736274, "key_press": 32, "type": "INSTRUCTIONS", "trial_index": 8}, "uniqueid": "MTK2105:3BXQMRHWK05HZ44ZWA0MJZFPP1RUMY", "dateTime": 1516734721938}, {"current_trial": 9, "trialdata": {"rt": [3542, 7494, 10022, 12478], "trial_type": "math-distractor", "key_times": [2950, 3239, 3542, 6021, 6165, 7494, 9486, 9717, 10022, 12062, 12134, 12478], "responses": ["17", "15", "18", "12"], "num2": [3, 7, 8, 4, 5], "num3": [6, 2, 1, 1, 8], "conditions": [18, 1200, "a", 18000], "internal_node_id": "0.0-9.0", "key_presses": [97, 103, 13, 97, 101, 13, 97, 104, 13, 97, 98, 13], "trial": 0, "time_elapsed": 755285, "type": "DISTRACTOR", "trial_index": 9, "num1": [8, 6, 9, 7, 9]}, "uniqueid": "MTK2105:3BXQMRHWK05HZ44ZWA0MJZFPP1RUMY", "dateTime": 1516734740949}, {"current_trial": 10, "trialdata": {"rt": -1, "trial_type": "single-stim", "stimulus": "<p id=\"stim\">10</p>", "internal_node_id": "0.0-10.0-0.0", "time_elapsed": 758287, "key_press": -1, "trial_index": 10}, "uniqueid": "MTK2105:3BXQMRHWK05HZ44ZWA0MJZFPP1RUMY", "dateTime": 1516734743951}, {"current_trial": 11, "trialdata": {"rt": -1, "trial_type": "single-stim", "stimulus": "<p id=\"stim\">9</p>", "internal_node_id": "0.0-10.0-1.0", "time_elapsed": 759288, "key_press": -1, "trial_index": 11}, "uniqueid": "MTK2105:3BXQMRHWK05HZ44ZWA0MJZFPP1RUMY", "dateTime": 1516734744952}, {"current_trial": 12, "trialdata": {"rt": -1, "trial_type": "single-stim", "stimulus": "<p id=\"stim\">8</p>", "internal_node_id": "0.0-10.0-2.0", "time_elapsed": 760290, "key_press": -1, "trial_index": 12}, "uniqueid": "MTK2105:3BXQMRHWK05HZ44ZWA0MJZFPP1RUMY", "dateTime": 1516734745955}, {"current_trial": 13, "trialdata": {"rt": -1, "trial_type": "single-stim", "stimulus": "<p id=\"stim\">7</p>", "internal_node_id": "0.0-10.0-3.0", "time_elapsed": 761292, "key_press": -1, "trial_index": 13}, "uniqueid": "MTK2105:3BXQMRHWK05HZ44ZWA0MJZFPP1RUMY", "dateTime": 1516734746957}, {"current_trial": 14, "trialdata": {"rt": -1, "trial_type": "single-stim", "stimulus": "<p id=\"stim\">6</p>", "internal_node_id": "0.0-10.0-4.0", "time_elapsed": 762293, "key_press": -1, "trial_index": 14}, "uniqueid": "MTK2105:3BXQMRHWK05HZ44ZWA0MJZFPP1RUMY", "dateTime": 1516734747958}, {"current_trial": 15, "trialdata": {"rt": -1, "trial_type": "single-stim", "stimulus": "<p id=\"stim\">5</p>", "internal_node_id": "0.0-10.0-5.0", "time_elapsed": 763296, "key_press": -1, "trial_index": 15}, "uniqueid": "MTK2105:3BXQMRHWK05HZ44ZWA0MJZFPP1RUMY", "dateTime": 1516734748961}, {"current_trial": 16, "trialdata": {"rt": -1, "trial_type": "single-stim", "stimulus": "<p id=\"stim\">4</p>", "internal_node_id": "0.0-10.0-6.0", "time_elapsed": 764297, "key_press": -1, "trial_index": 16}, "uniqueid": "MTK2105:3BXQMRHWK05HZ44ZWA0MJZFPP1RUMY", "dateTime": 1516734749962}, {"current_trial": 17, "trialdata": {"rt": -1, "trial_type": "single-stim", "stimulus": "<p id=\"stim\">3</p>", "internal_node_id": "0.0-10.0-7.0", "time_elapsed": 765299, "key_press": -1, "trial_index": 17}, "uniqueid": "MTK2105:3BXQMRHWK05HZ44ZWA0MJZFPP1RUMY", "dateTime": 1516734750963}, {"current_trial": 18, "trialdata": {"rt": -1, "trial_type": "single-stim", "stimulus": "<p id=\"stim\">2</p>", "internal_node_id": "0.0-10.0-8.0", "time_elapsed": 766300, "key_press": -1, "trial_index": 18}, "uniqueid": "MTK2105:3BXQMRHWK05HZ44ZWA0MJZFPP1RUMY", "dateTime": 1516734751965}, {"current_trial": 19, "trialdata": {"rt": -1, "trial_type": "single-stim", "stimulus": "<p id=\"stim\">1</p>", "internal_node_id": "0.0-10.0-9.0", "time_elapsed": 767303, "key_press": -1, "trial_index": 19}, "uniqueid": "MTK2105:3BXQMRHWK05HZ44ZWA0MJZFPP1RUMY", "dateTime": 1516734752967}, {"current_trial": 20, "trialdata": {"rt": -1, "trial_type": "single-stim", "stimulus": "<p id=\"stim\">+</p>", "internal_node_id": "0.0-11.0-0.0", "time_elapsed": 768803, "key_press": -1, "type": "FIXATION", "trial_index": 20}, "uniqueid": "MTK2105:3BXQMRHWK05HZ44ZWA0MJZFPP1RUMY", "dateTime": 1516734754468}, {"current_trial": 21, "trialdata": {"rt": 1851.9999999999754, "trial_type": "single-audio", "word": "champagne", "stimulus": "/static/audio/wordpool/CHAMPAGNE.wav", "conditions": [18, 1200, "a", 18000], "internal_node_id": "0.0-12.0", "trial": 0, "time_elapsed": 770947, "serialpos": 0, "key_press": 175, "wordID": 277, "type": "PRES_AUD", "trial_index": 21}, "uniqueid": "MTK2105:3BXQMRHWK05HZ44ZWA0MJZFPP1RUMY", "dateTime": 1516734756612}, {"current_trial": 22, "trialdata": {"rt": -1000, "trial_type": "single-audio", "word": "razor", "stimulus": "/static/audio/wordpool/RAZOR.wav", "conditions": [18, 1200, "a", 18000], "internal_node_id": "0.0-13.0", "trial": 0, "time_elapsed": 773022, "serialpos": 1, "key_press": -1, "wordID": 1170, "type": "PRES_AUD", "trial_index": 22}, "uniqueid": "MTK2105:3BXQMRHWK05HZ44ZWA0MJZFPP1RUMY", "dateTime": 1516734758687}, {"current_trial": 23, "trialdata": {"rt": -1000, "trial_type": "single-audio", "word": "scalpel", "stimulus": "/static/audio/wordpool/SCALPEL.wav", "conditions": [18, 1200, "a", 18000], "internal_node_id": "0.0-14.0", "trial": 0, "time_elapsed": 775257, "serialpos": 2, "key_press": -1, "wordID": 1242, "type": "PRES_AUD", "trial_index": 23}, "uniqueid": "MTK2105:3BXQMRHWK05HZ44ZWA0MJZFPP1RUMY", "dateTime": 1516734760921}, {"current_trial": 24, "trialdata": {"rt": -1000, "trial_type": "single-audio", "word": "keeper", "stimulus": "/static/audio/wordpool/KEEPER.wav", "conditions": [18, 1200, "a", 18000], "internal_node_id": "0.0-15.0", "trial": 0, "time_elapsed": 777309, "serialpos": 3, "key_press": -1, "wordID": 768, "type": "PRES_AUD", "trial_index": 24}, "uniqueid": "MTK2105:3BXQMRHWK05HZ44ZWA0MJZFPP1RUMY", "dateTime": 1516734762974}, {"current_trial": 25, "trialdata": {"rt": -1000, "trial_type": "single-audio", "word": "primate", "stimulus": "/static/audio/wordpool/PRIMATE.wav", "conditions": [18, 1200, "a", 18000], "internal_node_id": "0.0-16.0", "trial": 0, "time_elapsed": 779518, "serialpos": 4, "key_press": -1, "wordID": 1122, "type": "PRES_AUD", "trial_index": 25}, "uniqueid": "MTK2105:3BXQMRHWK05HZ44ZWA0MJZFPP1RUMY", "dateTime": 1516734765182}, {"current_trial": 26, "trialdata": {"rt": -1000, "trial_type": "single-audio", "word": "soda", "stimulus": "/static/audio/wordpool/SODA.wav", "conditions": [18, 1200, "a", 18000], "internal_node_id": "0.0-17.0", "trial": 0, "time_elapsed": 781619, "serialpos": 5, "key_press": -1, "wordID": 1340, "type": "PRES_AUD", "trial_index": 26}, "uniqueid": "MTK2105:3BXQMRHWK05HZ44ZWA0MJZFPP1RUMY", "dateTime": 1516734767283}, {"current_trial": 27, "trialdata": {"rt": -1000, "trial_type": "single-audio", "word": "office", "stimulus": "/static/audio/wordpool/OFFICE.wav", "conditions": [18, 1200, "a", 18000], "internal_node_id": "0.0-18.0", "trial": 0, "time_elapsed": 783862, "serialpos": 6, "key_press": -1, "wordID": 971, "type": "PRES_AUD", "trial_index": 27}, "uniqueid": "MTK2105:3BXQMRHWK05HZ44ZWA0MJZFPP1RUMY", "dateTime": 1516734769526}, {"current_trial": 28, "trialdata": {"rt": -1000, "trial_type": "single-audio", "word": "label", "stimulus": "/static/audio/wordpool/LABEL.wav", "conditions": [18, 1200, "a", 18000], "internal_node_id": "0.0-19.0", "trial": 0, "time_elapsed": 786036, "serialpos": 7, "key_press": -1, "wordID": 789, "type": "PRES_AUD", "trial_index": 28}, "uniqueid": "MTK2105:3BXQMRHWK05HZ44ZWA0MJZFPP1RUMY", "dateTime": 1516734771700}, {"current_trial": 29, "trialdata": {"rt": -1000, "trial_type": "single-audio", "word": "picnic", "stimulus": "/static/audio/wordpool/PICNIC.wav", "conditions": [18, 1200, "a", 18000], "internal_node_id": "0.0-20.0", "trial": 0, "time_elapsed": 788318, "serialpos": 8, "key_press": -1, "wordID": 1059, "type": "PRES_AUD", "trial_index": 29}, "uniqueid": "MTK2105:3BXQMRHWK05HZ44ZWA0MJZFPP1RUMY", "dateTime": 1516734773982}, {"current_trial": 30, "trialdata": {"rt": -1000, "trial_type": "single-audio", "word": "bubble", "stimulus": "/static/audio/wordpool/BUBBLE.wav", "conditions": [18, 1200, "a", 18000], "internal_node_id": "0.0-21.0", "trial": 0, "time_elapsed": 790500, "serialpos": 9, "key_press": -1, "wordID": 182, "type": "PRES_AUD", "trial_index": 30}, "uniqueid": "MTK2105:3BXQMRHWK05HZ44ZWA0MJZFPP1RUMY", "dateTime": 1516734776164}, {"current_trial": 31, "trialdata": {"rt": -1000, "trial_type": "single-audio", "word": "catcher", "stimulus": "/static/audio/wordpool/CATCHER.wav", "conditions": [18, 1200, "a", 18000], "internal_node_id": "0.0-22.0", "trial": 0, "time_elapsed": 792871, "serialpos": 10, "key_press": -1, "wordID": 257, "type": "PRES_AUD", "trial_index": 31}, "uniqueid": "MTK2105:3BXQMRHWK05HZ44ZWA0MJZFPP1RUMY", "dateTime": 1516734778535}, {"current_trial": 32, "trialdata": {"rt": -1000, "trial_type": "single-audio", "word": "sister", "stimulus": "/static/audio/wordpool/SISTER.wav", "conditions": [18, 1200, "a", 18000], "internal_node_id": "0.0-23.0", "trial": 0, "time_elapsed": 794987, "serialpos": 11, "key_press": -1, "wordID": 1311, "type": "PRES_AUD", "trial_index": 32}, "uniqueid": "MTK2105:3BXQMRHWK05HZ44ZWA0MJZFPP1RUMY", "dateTime": 1516734780651}, {"current_trial": 33, "trialdata": {"rt": -1000, "trial_type": "single-audio", "word": "clamp", "stimulus": "/static/audio/wordpool/CLAMP.wav", "conditions": [18, 1200, "a", 18000], "internal_node_id": "0.0-24.0", "trial": 0, "time_elapsed": 797048, "serialpos": 12, "key_press": -1, "wordID": 315, "type": "PRES_AUD", "trial_index": 33}, "uniqueid": "MTK2105:3BXQMRHWK05HZ44ZWA0MJZFPP1RUMY", "dateTime": 1516734782712}, {"current_trial": 34, "trialdata": {"rt": -1000, "trial_type": "single-audio", "word": "cobra", "stimulus": "/static/audio/wordpool/COBRA.wav", "conditions": [18, 1200, "a", 18000], "internal_node_id": "0.0-25.0", "trial": 0, "time_elapsed": 799429, "serialpos": 13, "key_press": -1, "wordID": 335, "type": "PRES_AUD", "trial_index": 34}, "uniqueid": "MTK2105:3BXQMRHWK05HZ44ZWA0MJZFPP1RUMY", "dateTime": 1516734785093}, {"current_trial": 35, "trialdata": {"rt": -1000, "trial_type": "single-audio", "word": "turkey", "stimulus": "/static/audio/wordpool/TURKEY.wav", "conditions": [18, 1200, "a", 18000], "internal_node_id": "0.0-26.0", "trial": 0, "time_elapsed": 801730, "serialpos": 14, "key_press": -1, "wordID": 1519, "type": "PRES_AUD", "trial_index": 35}, "uniqueid": "MTK2105:3BXQMRHWK05HZ44ZWA0MJZFPP1RUMY", "dateTime": 1516734787394}, {"current_trial": 36, "trialdata": {"rt": -1000, "trial_type": "single-audio", "word": "donkey", "stimulus": "/static/audio/wordpool/DONKEY.wav", "conditions": [18, 1200, "a", 18000], "internal_node_id": "0.0-27.0", "trial": 0, "time_elapsed": 804027, "serialpos": 15, "key_press": -1, "wordID": 483, "type": "PRES_AUD", "trial_index": 36}, "uniqueid": "MTK2105:3BXQMRHWK05HZ44ZWA0MJZFPP1RUMY", "dateTime": 1516734789691}, {"current_trial": 37, "trialdata": {"rt": -1000, "trial_type": "single-audio", "word": "swimmer", "stimulus": "/static/audio/wordpool/SWIMMER.wav", "conditions": [18, 1200, "a", 18000], "internal_node_id": "0.0-28.0", "trial": 0, "time_elapsed": 806050, "serialpos": 16, "key_press": -1, "wordID": 1419, "type": "PRES_AUD", "trial_index": 37}, "uniqueid": "MTK2105:3BXQMRHWK05HZ44ZWA0MJZFPP1RUMY", "dateTime": 1516734791714}, {"current_trial": 38, "trialdata": {"rt": -1000, "trial_type": "single-audio", "word": "braces", "stimulus": "/static/audio/wordpool/BRACES.wav", "conditions": [18, 1200, "a", 18000], "internal_node_id": "0.0-29.0", "trial": 0, "time_elapsed": 808053, "serialpos": 17, "key_press": -1, "wordID": 163, "type": "PRES_AUD", "trial_index": 38}, "uniqueid": "MTK2105:3BXQMRHWK05HZ44ZWA0MJZFPP1RUMY", "dateTime": 1516734793717}, {"current_trial": 39, "trialdata": {"rt": -1, "trial_type": "single-stim", "stimulus": "", "internal_node_id": "0.0-30.0-0.0", "time_elapsed": 809352, "key_press": -1, "type": "PRE_RECALL_DELAY", "trial_index": 39}, "uniqueid": "MTK2105:3BXQMRHWK05HZ44ZWA0MJZFPP1RUMY", "dateTime": 1516734795017}, {"current_trial": 40, "trialdata": {"rt": -1000, "trial_type": "single-audio", "stimulus": "/static/audio/400Hz.wav", "internal_node_id": "0.0-31.0", "time_elapsed": 809853, "key_press": -1, "type": "PRE_RECALL_ALERT", "trial_index": 40}, "uniqueid": "MTK2105:3BXQMRHWK05HZ44ZWA0MJZFPP1RUMY", "dateTime": 1516734795517}, {"current_trial": 41, "trialdata": {"rt": [3401, 3529, 5249, 5393, 10281, 12850, 15521, 20562, 28522, 31745, 44801, 47097, 49944, 54937, 59346], "recwords": ["braces", "", "bubble", "", "champagne", "office", "picnic", "primate", "scalpel", "razor", "keeper", "catcher", "swimmer", "donkey", "cobra"], "key_times": [1315, 1586, 1762, 2105, 2353, 2570, 3401, 3529, 3786, 3905, 4121, 4329, 4465, 4721, 5249, 5393, 5601, 5754, 5890, 6081, 6409, 6585, 8009, 8169, 8673, 10281, 10794, 11017, 11217, 11346, 11561, 12345, 12850, 13657, 13873, 14201, 14337, 14521, 14697, 15521, 17826, 18441, 18721, 18897, 19058, 19218, 19409, 20562, 24378, 24969, 25153, 25401, 25857, 27225, 27425, 28522, 30162, 30369, 30681, 30841, 31033, 31745, 33457, 33625, 33825, 33921, 34385, 34497, 35505, 36005, 36038, 36071, 36104, 36138, 36170, 36204, 36236, 36269, 36377, 36657, 36857, 37681, 37872, 37969, 41170, 41669, 41703, 41735, 41769, 41802, 41835, 41868, 42657, 42665, 43145, 43345, 43632, 43753, 43905, 44041, 44345, 44465, 44801, 45481, 45672, 45793, 46233, 46393, 46561, 46673, 47097, 47865, 48201, 48321, 48648, 48809, 48937, 49017, 49944, 53777, 53937, 54041, 54233, 54361, 54514, 54937, 58009, 58129, 58361, 58585, 58786, 59346], "trial_type": "free-recall", "conditions": [18, 1200, "a", 18000], "internal_node_id": "0.0-32.0-0.0", "key_presses": [66, 82, 65, 67, 69, 83, 188, 32, 66, 85, 66, 66, 76, 69, 188, 32, 67, 72, 65, 77, 80, 65, 71, 78, 69, 32, 79, 70, 70, 73, 67, 69, 32, 80, 73, 67, 78, 73, 67, 32, 80, 82, 73, 77, 65, 84, 69, 32, 83, 67, 65, 76, 80, 69, 76, 32, 82, 65, 90, 79, 82, 32, 75, 69, 69, 80, 69, 82, 8, 8, 8, 8, 8, 8, 8, 8, 8, 8, 83, 69, 69, 75, 69, 82, 8, 8, 8, 8, 8, 8, 8, 8, 74, 75, 8, 8, 75, 69, 69, 80, 69, 82, 32, 67, 65, 84, 67, 72, 69, 82, 13, 83, 87, 73, 77, 77, 69, 82, 13, 68, 79, 78, 75, 69, 89, 13, 67, 79, 66, 82, 65, 32], "trial": 0, "time_elapsed": 869858, "type": "FREE_RECALL", "trial_index": 41}, "uniqueid": "MTK2105:3BXQMRHWK05HZ44ZWA0MJZFPP1RUMY", "dateTime": 1516734855527}, {"current_trial": 42, "trialdata": {"rt": 1377, "trial_type": "text", "internal_node_id": "0.0-33.0", "time_elapsed": 873242, "key_press": 32, "type": "INSTRUCTIONS", "trial_index": 42}, "uniqueid": "MTK2105:3BXQMRHWK05HZ44ZWA0MJZFPP1RUMY", "dateTime": 1516734858906}, {"current_trial": 43, "trialdata": {"rt": [2852, 4540, 6787, 8412, 10348, 12364, 14820, 16820], "trial_type": "math-distractor", "key_times": [2060, 2148, 2852, 4196, 4540, 6340, 6571, 6787, 8124, 8412, 9908, 10037, 10348, 11892, 12100, 12364, 14404, 14548, 14820, 16412, 16500, 16820], "responses": ["12", "7", "14", "6", "15", "19", "20", "15"], "num2": [6, 1, 6, 1, 3, 8, 7, 8, 6], "num3": [1, 1, 2, 1, 4, 9, 5, 2, 5], "conditions": [18, 1200, "a", 18000], "internal_node_id": "0.0-34.0", "key_presses": [97, 98, 13, 103, 13, 97, 100, 13, 102, 13, 97, 101, 13, 97, 105, 13, 98, 96, 13, 97, 101, 13], "trial": 1, "time_elapsed": 893246, "type": "DISTRACTOR", "trial_index": 43, "num1": [5, 5, 6, 4, 8, 2, 8, 5, 4]}, "uniqueid": "MTK2105:3BXQMRHWK05HZ44ZWA0MJZFPP1RUMY", "dateTime": 1516734878910}, {"current_trial": 44, "trialdata": {"rt": -1, "trial_type": "single-stim", "stimulus": "<p id=\"stim\">10</p>", "internal_node_id": "0.0-35.0-0.0", "time_elapsed": 896259, "key_press": -1, "trial_index": 44}, "uniqueid": "MTK2105:3BXQMRHWK05HZ44ZWA0MJZFPP1RUMY", "dateTime": 1516734881923}, {"current_trial": 45, "trialdata": {"rt": -1, "trial_type": "single-stim", "stimulus": "<p id=\"stim\">9</p>", "internal_node_id": "0.0-35.0-1.0", "time_elapsed": 897261, "key_press": -1, "trial_index": 45}, "uniqueid": "MTK2105:3BXQMRHWK05HZ44ZWA0MJZFPP1RUMY", "dateTime": 1516734882925}, {"current_trial": 46, "trialdata": {"rt": -1, "trial_type": "single-stim", "stimulus": "<p id=\"stim\">8</p>", "internal_node_id": "0.0-35.0-2.0", "time_elapsed": 898264, "key_press": -1, "trial_index": 46}, "uniqueid": "MTK2105:3BXQMRHWK05HZ44ZWA0MJZFPP1RUMY", "dateTime": 1516734883929}, {"current_trial": 47, "trialdata": {"rt": -1, "trial_type": "single-stim", "stimulus": "<p id=\"stim\">7</p>", "internal_node_id": "0.0-35.0-3.0", "time_elapsed": 899266, "key_press": -1, "trial_index": 47}, "uniqueid": "MTK2105:3BXQMRHWK05HZ44ZWA0MJZFPP1RUMY", "dateTime": 1516734884931}, {"current_trial": 48, "trialdata": {"rt": -1, "trial_type": "single-stim", "stimulus": "<p id=\"stim\">6</p>", "internal_node_id": "0.0-35.0-4.0", "time_elapsed": 900271, "key_press": -1, "trial_index": 48}, "uniqueid": "MTK2105:3BXQMRHWK05HZ44ZWA0MJZFPP1RUMY", "dateTime": 1516734885935}, {"current_trial": 49, "trialdata": {"rt": -1, "trial_type": "single-stim", "stimulus": "<p id=\"stim\">5</p>", "internal_node_id": "0.0-35.0-5.0", "time_elapsed": 901272, "key_press": -1, "trial_index": 49}, "uniqueid": "MTK2105:3BXQMRHWK05HZ44ZWA0MJZFPP1RUMY", "dateTime": 1516734886937}, {"current_trial": 50, "trialdata": {"rt": -1, "trial_type": "single-stim", "stimulus": "<p id=\"stim\">4</p>", "internal_node_id": "0.0-35.0-6.0", "time_elapsed": 902274, "key_press": -1, "trial_index": 50}, "uniqueid": "MTK2105:3BXQMRHWK05HZ44ZWA0MJZFPP1RUMY", "dateTime": 1516734887938}, {"current_trial": 51, "trialdata": {"rt": -1, "trial_type": "single-stim", "stimulus": "<p id=\"stim\">3</p>", "internal_node_id": "0.0-35.0-7.0", "time_elapsed": 903277, "key_press": -1, "trial_index": 51}, "uniqueid": "MTK2105:3BXQMRHWK05HZ44ZWA0MJZFPP1RUMY", "dateTime": 1516734888941}, {"current_trial": 52, "trialdata": {"rt": -1, "trial_type": "single-stim", "stimulus": "<p id=\"stim\">2</p>", "internal_node_id": "0.0-35.0-8.0", "time_elapsed": 904277, "key_press": -1, "trial_index": 52}, "uniqueid": "MTK2105:3BXQMRHWK05HZ44ZWA0MJZFPP1RUMY", "dateTime": 1516734889942}, {"current_trial": 53, "trialdata": {"rt": -1, "trial_type": "single-stim", "stimulus": "<p id=\"stim\">1</p>", "internal_node_id": "0.0-35.0-9.0", "time_elapsed": 905279, "key_press": -1, "trial_index": 53}, "uniqueid": "MTK2105:3BXQMRHWK05HZ44ZWA0MJZFPP1RUMY", "dateTime": 1516734890943}, {"current_trial": 54, "trialdata": {"rt": -1, "trial_type": "single-stim", "stimulus": "<p id=\"stim\">+</p>", "internal_node_id": "0.0-36.0-0.0", "time_elapsed": 906780, "key_press": -1, "type": "FIXATION", "trial_index": 54}, "uniqueid": "MTK2105:3BXQMRHWK05HZ44ZWA0MJZFPP1RUMY", "dateTime": 1516734892445}, {"current_trial": 55, "trialdata": {"rt": -1000, "trial_type": "single-audio", "word": "ketchup", "stimulus": "/static/audio/wordpool/KETCHUP.wav", "conditions": [18, 1200, "a", 18000], "internal_node_id": "0.0-37.0", "trial": 1, "time_elapsed": 909057, "serialpos": 0, "key_press": -1, "wordID": 770, "type": "PRES_AUD", "trial_index": 55}, "uniqueid": "MTK2105:3BXQMRHWK05HZ44ZWA0MJZFPP1RUMY", "dateTime": 1516734894721}, {"current_trial": 56, "trialdata": {"rt": -1000, "trial_type": "single-audio", "word": "barley", "stimulus": "/static/audio/wordpool/BARLEY.wav", "conditions": [18, 1200, "a", 18000], "internal_node_id": "0.0-38.0", "trial": 1, "time_elapsed": 911453, "serialpos": 1, "key_press": -1, "wordID": 87, "type": "PRES_AUD", "trial_index": 56}, "uniqueid": "MTK2105:3BXQMRHWK05HZ44ZWA0MJZFPP1RUMY", "dateTime": 1516734897118}, {"current_trial": 57, "trialdata": {"rt": -1000, "trial_type": "single-audio", "word": "pasta", "stimulus": "/static/audio/wordpool/PASTA.wav", "conditions": [18, 1200, "a", 18000], "internal_node_id": "0.0-39.0", "trial": 1, "time_elapsed": 913676, "serialpos": 2, "key_press": -1, "wordID": 1020, "type": "PRES_AUD", "trial_index": 57}, "uniqueid": "MTK2105:3BXQMRHWK05HZ44ZWA0MJZFPP1RUMY", "dateTime": 1516734899340}, {"current_trial": 58, "trialdata": {"rt": -1000, "trial_type": "single-audio", "word": "piston", "stimulus": "/static/audio/wordpool/PISTON.wav", "conditions": [18, 1200, "a", 18000], "internal_node_id": "0.0-40.0", "trial": 1, "time_elapsed": 915822, "serialpos": 3, "key_press": -1, "wordID": 1075, "type": "PRES_AUD", "trial_index": 58}, "uniqueid": "MTK2105:3BXQMRHWK05HZ44ZWA0MJZFPP1RUMY", "dateTime": 1516734901486}, {"current_trial": 59, "trialdata": {"rt": -1000, "trial_type": "single-audio", "word": "wife", "stimulus": "/static/audio/wordpool/WIFE.wav", "conditions": [18, 1200, "a", 18000], "internal_node_id": "0.0-41.0", "trial": 1, "time_elapsed": 918147, "serialpos": 4, "key_press": -1, "wordID": 1608, "type": "PRES_AUD", "trial_index": 59}, "uniqueid": "MTK2105:3BXQMRHWK05HZ44ZWA0MJZFPP1RUMY", "dateTime": 1516734903812}, {"current_trial": 60, "trialdata": {"rt": -1000, "trial_type": "single-audio", "word": "daughter", "stimulus": "/static/audio/wordpool/DAUGHTER.wav", "conditions": [18, 1200, "a", 18000], "internal_node_id": "0.0-42.0", "trial": 1, "time_elapsed": 920396, "serialpos": 5, "key_press": -1, "wordID": 441, "type": "PRES_AUD", "trial_index": 60}, "uniqueid": "MTK2105:3BXQMRHWK05HZ44ZWA0MJZFPP1RUMY", "dateTime": 1516734906060}, {"current_trial": 61, "trialdata": {"rt": -1000, "trial_type": "single-audio", "word": "arm", "stimulus": "/static/audio/wordpool/ARM.wav", "conditions": [18, 1200, "a", 18000], "internal_node_id": "0.0-43.0", "trial": 1, "time_elapsed": 922516, "serialpos": 6, "key_press": -1, "wordID": 37, "type": "PRES_AUD", "trial_index": 61}, "uniqueid": "MTK2105:3BXQMRHWK05HZ44ZWA0MJZFPP1RUMY", "dateTime": 1516734908180}, {"current_trial": 62, "trialdata": {"rt": -1000, "trial_type": "single-audio", "word": "survey", "stimulus": "/static/audio/wordpool/SURVEY.wav", "conditions": [18, 1200, "a", 18000], "internal_node_id": "0.0-44.0", "trial": 1, "time_elapsed": 924669, "serialpos": 7, "key_press": -1, "wordID": 1413, "type": "PRES_AUD", "trial_index": 62}, "uniqueid": "MTK2105:3BXQMRHWK05HZ44ZWA0MJZFPP1RUMY", "dateTime": 1516734910333}, {"current_trial": 63, "trialdata": {"rt": -1000, "trial_type": "single-audio", "word": "peach", "stimulus": "/static/audio/wordpool/PEACH.wav", "conditions": [18, 1200, "a", 18000], "internal_node_id": "0.0-45.0", "trial": 1, "time_elapsed": 926829, "serialpos": 8, "key_press": -1, "wordID": 1030, "type": "PRES_AUD", "trial_index": 63}, "uniqueid": "MTK2105:3BXQMRHWK05HZ44ZWA0MJZFPP1RUMY", "dateTime": 1516734912493}, {"current_trial": 64, "trialdata": {"rt": -1000, "trial_type": "single-audio", "word": "mailbox", "stimulus": "/static/audio/wordpool/MAILBOX.wav", "conditions": [18, 1200, "a", 18000], "internal_node_id": "0.0-46.0", "trial": 1, "time_elapsed": 929138, "serialpos": 9, "key_press": -1, "wordID": 856, "type": "PRES_AUD", "trial_index": 64}, "uniqueid": "MTK2105:3BXQMRHWK05HZ44ZWA0MJZFPP1RUMY", "dateTime": 1516734914802}, {"current_trial": 65, "trialdata": {"rt": -1000, "trial_type": "single-audio", "word": "infant", "stimulus": "/static/audio/wordpool/INFANT.wav", "conditions": [18, 1200, "a", 18000], "internal_node_id": "0.0-47.0", "trial": 1, "time_elapsed": 931232, "serialpos": 10, "key_press": -1, "wordID": 736, "type": "PRES_AUD", "trial_index": 65}, "uniqueid": "MTK2105:3BXQMRHWK05HZ44ZWA0MJZFPP1RUMY", "dateTime": 1516734916896}, {"current_trial": 66, "trialdata": {"rt": -1000, "trial_type": "single-audio", "word": "kidney", "stimulus": "/static/audio/wordpool/KIDNEY.wav", "conditions": [18, 1200, "a", 18000], "internal_node_id": "0.0-48.0", "trial": 1, "time_elapsed": 933429, "serialpos": 11, "key_press": -1, "wordID": 775, "type": "PRES_AUD", "trial_index": 66}, "uniqueid": "MTK2105:3BXQMRHWK05HZ44ZWA0MJZFPP1RUMY", "dateTime": 1516734919093}, {"current_trial": 67, "trialdata": {"rt": -1000, "trial_type": "single-audio", "word": "coin", "stimulus": "/static/audio/wordpool/COIN.wav", "conditions": [18, 1200, "a", 18000], "internal_node_id": "0.0-49.0", "trial": 1, "time_elapsed": 935807, "serialpos": 12, "key_press": -1, "wordID": 342, "type": "PRES_AUD", "trial_index": 67}, "uniqueid": "MTK2105:3BXQMRHWK05HZ44ZWA0MJZFPP1RUMY", "dateTime": 1516734921471}, {"current_trial": 68, "trialdata": {"rt": -1000, "trial_type": "single-audio", "word": "notebook", "stimulus": "/static/audio/wordpool/NOTEBOOK.wav", "conditions": [18, 1200, "a", 18000], "internal_node_id": "0.0-50.0", "trial": 1, "time_elapsed": 937822, "serialpos": 13, "key_press": -1, "wordID": 958, "type": "PRES_AUD", "trial_index": 68}, "uniqueid": "MTK2105:3BXQMRHWK05HZ44ZWA0MJZFPP1RUMY", "dateTime": 1516734923489}, {"current_trial": 69, "trialdata": {"rt": -1000, "trial_type": "single-audio", "word": "barrel", "stimulus": "/static/audio/wordpool/BARREL.wav", "conditions": [18, 1200, "a", 18000], "internal_node_id": "0.0-51.0", "trial": 1, "time_elapsed": 939942, "serialpos": 14, "key_press": -1, "wordID": 90, "type": "PRES_AUD", "trial_index": 69}, "uniqueid": "MTK2105:3BXQMRHWK05HZ44ZWA0MJZFPP1RUMY", "dateTime": 1516734925606}, {"current_trial": 70, "trialdata": {"rt": -1000, "trial_type": "single-audio", "word": "permit", "stimulus": "/static/audio/wordpool/PERMIT.wav", "conditions": [18, 1200, "a", 18000], "internal_node_id": "0.0-52.0", "trial": 1, "time_elapsed": 942229, "serialpos": 15, "key_press": -1, "wordID": 1050, "type": "PRES_AUD", "trial_index": 70}, "uniqueid": "MTK2105:3BXQMRHWK05HZ44ZWA0MJZFPP1RUMY", "dateTime": 1516734927893}, {"current_trial": 71, "trialdata": {"rt": -1000, "trial_type": "single-audio", "word": "female", "stimulus": "/static/audio/wordpool/FEMALE.wav", "conditions": [18, 1200, "a", 18000], "internal_node_id": "0.0-53.0", "trial": 1, "time_elapsed": 944405, "serialpos": 16, "key_press": -1, "wordID": 558, "type": "PRES_AUD", "trial_index": 71}, "uniqueid": "MTK2105:3BXQMRHWK05HZ44ZWA0MJZFPP1RUMY", "dateTime": 1516734930069}, {"current_trial": 72, "trialdata": {"rt": -1000, "trial_type": "single-audio", "word": "drink", "stimulus": "/static/audio/wordpool/DRINK.wav", "conditions": [18, 1200, "a", 18000], "internal_node_id": "0.0-54.0", "trial": 1, "time_elapsed": 946719, "serialpos": 17, "key_press": -1, "wordID": 497, "type": "PRES_AUD", "trial_index": 72}, "uniqueid": "MTK2105:3BXQMRHWK05HZ44ZWA0MJZFPP1RUMY", "dateTime": 1516734932384}, {"current_trial": 73, "trialdata": {"rt": -1, "trial_type": "single-stim", "stimulus": "", "internal_node_id": "0.0-55.0-0.0", "time_elapsed": 948054, "key_press": -1, "type": "PRE_RECALL_DELAY", "trial_index": 73}, "uniqueid": "MTK2105:3BXQMRHWK05HZ44ZWA0MJZFPP1RUMY", "dateTime": 1516734933718}, {"current_trial": 74, "trialdata": {"rt": -1000, "trial_type": "single-audio", "stimulus": "/static/audio/400Hz.wav", "internal_node_id": "0.0-56.0", "time_elapsed": 948555, "key_press": -1, "type": "PRE_RECALL_ALERT", "trial_index": 74}, "uniqueid": "MTK2105:3BXQMRHWK05HZ44ZWA0MJZFPP1RUMY", "dateTime": 1516734934219}, {"current_trial": 75, "trialdata": {"rt": [2515, 4235, 5964, 8852, 10131, 12380, 13580, 22467, 24619, 26557, 28932, 29763, 40627], "recwords": ["drink", "permit", "female", "daughter", "wife", "barley", "pasta", "barrel", "kidney", "notebook", "coin", "arm", "infant"], "key_times": [1580, 1731, 2028, 2275, 2363, 2515, 2740, 2900, 2939, 3083, 3300, 3484, 4235, 4851, 4979, 5171, 5307, 5515, 5635, 5964, 7300, 7443, 7899, 8067, 8195, 8363, 8539, 8635, 8852, 9267, 9364, 9612, 9787, 10131, 10955, 11155, 11251, 11500, 11732, 11887, 12380, 12731, 12875, 12955, 13187, 13388, 13580, 20876, 21092, 21212, 21461, 21635, 21806, 22467, 22716, 23003, 23163, 23684, 23827, 24044, 24619, 24907, 25035, 25115, 25332, 25740, 25843, 26027, 26171, 26557, 28052, 28172, 28212, 28404, 28932, 29212, 29332, 29476, 29763, 39508, 39643, 39779, 39915, 40011, 40187, 40627], "trial_type": "free-recall", "conditions": [18, 1200, "a", 18000], "internal_node_id": "0.0-57.0-0.0", "key_presses": [68, 82, 73, 78, 75, 32, 80, 69, 82, 77, 73, 84, 13, 70, 69, 77, 65, 76, 69, 32, 68, 65, 85, 71, 72, 84, 69, 82, 32, 87, 73, 70, 69, 32, 66, 65, 82, 76, 69, 89, 32, 80, 65, 83, 84, 65, 32, 66, 65, 82, 82, 69, 76, 32, 75, 73, 68, 78, 69, 89, 32, 78, 79, 84, 69, 66, 79, 79, 75, 32, 67, 79, 73, 78, 32, 65, 82, 77, 32, 73, 78, 70, 65, 78, 84, 32], "trial": 1, "time_elapsed": 1008561, "type": "FREE_RECALL", "trial_index": 75}, "uniqueid": "MTK2105:3BXQMRHWK05HZ44ZWA0MJZFPP1RUMY", "dateTime": 1516734994230}, {"current_trial": 76, "trialdata": {"rt": 1597, "trial_type": "text", "internal_node_id": "0.0-58.0", "time_elapsed": 1012164, "key_press": 32, "type": "INSTRUCTIONS", "trial_index": 76}, "uniqueid": "MTK2105:3BXQMRHWK05HZ44ZWA0MJZFPP1RUMY", "dateTime": 1516734997828}, {"current_trial": 77, "trialdata": {"rt": [2787, 5555, 7267, 9403, 11235, 13651, 16395, 18587, 20819, 23235], "trial_type": "math-distractor", "key_times": [2388, 2508, 2787, 5173, 5555, 6827, 7043, 7267, 8771, 9139, 9403, 10828, 10963, 11235, 13051, 13355, 13651, 15979, 16155, 16395, 18148, 18307, 18587, 20229, 20563, 20819, 22835, 23051, 23235], "responses": ["21", "9", "14", "13", "12", "17", "16", "16", "13", "14"], "num2": [5, 1, 2, 9, 3, 4, 4, 7, 7, 4, 5], "num3": [9, 5, 3, 2, 7, 6, 4, 4, 4, 6, 7], "conditions": [24, 800, "a", 24000], "internal_node_id": "0.0-59.0", "key_presses": [98, 97, 13, 105, 13, 97, 100, 13, 97, 99, 13, 97, 98, 13, 97, 103, 13, 97, 102, 13, 97, 102, 13, 97, 99, 13, 97, 100, 13], "trial": 2, "time_elapsed": 1037168, "type": "DISTRACTOR", "trial_index": 77, "num1": [7, 3, 9, 2, 2, 7, 8, 5, 2, 4, 7]}, "uniqueid": "MTK2105:3BXQMRHWK05HZ44ZWA0MJZFPP1RUMY", "dateTime": 1516735022832}, {"current_trial": 78, "trialdata": {"rt": -1, "trial_type": "single-stim", "stimulus": "<p id=\"stim\">10</p>", "internal_node_id": "0.0-60.0-0.0", "time_elapsed": 1040169, "key_press": -1, "trial_index": 78}, "uniqueid": "MTK2105:3BXQMRHWK05HZ44ZWA0MJZFPP1RUMY", "dateTime": 1516735025833}, {"current_trial": 79, "trialdata": {"rt": -1, "trial_type": "single-stim", "stimulus": "<p id=\"stim\">9</p>", "internal_node_id": "0.0-60.0-1.0", "time_elapsed": 1041172, "key_press": -1, "trial_index": 79}, "uniqueid": "MTK2105:3BXQMRHWK05HZ44ZWA0MJZFPP1RUMY", "dateTime": 1516735026836}, {"current_trial": 80, "trialdata": {"rt": -1, "trial_type": "single-stim", "stimulus": "<p id=\"stim\">8</p>", "internal_node_id": "0.0-60.0-2.0", "time_elapsed": 1042173, "key_press": -1, "trial_index": 80}, "uniqueid": "MTK2105:3BXQMRHWK05HZ44ZWA0MJZFPP1RUMY", "dateTime": 1516735027837}, {"current_trial": 81, "trialdata": {"rt": -1, "trial_type": "single-stim", "stimulus": "<p id=\"stim\">7</p>", "internal_node_id": "0.0-60.0-3.0", "time_elapsed": 1043174, "key_press": -1, "trial_index": 81}, "uniqueid": "MTK2105:3BXQMRHWK05HZ44ZWA0MJZFPP1RUMY", "dateTime": 1516735028839}, {"current_trial": 82, "trialdata": {"rt": -1, "trial_type": "single-stim", "stimulus": "<p id=\"stim\">6</p>", "internal_node_id": "0.0-60.0-4.0", "time_elapsed": 1044176, "key_press": -1, "trial_index": 82}, "uniqueid": "MTK2105:3BXQMRHWK05HZ44ZWA0MJZFPP1RUMY", "dateTime": 1516735029840}, {"current_trial": 83, "trialdata": {"rt": -1, "trial_type": "single-stim", "stimulus": "<p id=\"stim\">5</p>", "internal_node_id": "0.0-60.0-5.0", "time_elapsed": 1045177, "key_press": -1, "trial_index": 83}, "uniqueid": "MTK2105:3BXQMRHWK05HZ44ZWA0MJZFPP1RUMY", "dateTime": 1516735030841}, {"current_trial": 84, "trialdata": {"rt": -1, "trial_type": "single-stim", "stimulus": "<p id=\"stim\">4</p>", "internal_node_id": "0.0-60.0-6.0", "time_elapsed": 1046179, "key_press": -1, "trial_index": 84}, "uniqueid": "MTK2105:3BXQMRHWK05HZ44ZWA0MJZFPP1RUMY", "dateTime": 1516735031843}, {"current_trial": 85, "trialdata": {"rt": -1, "trial_type": "single-stim", "stimulus": "<p id=\"stim\">3</p>", "internal_node_id": "0.0-60.0-7.0", "time_elapsed": 1047182, "key_press": -1, "trial_index": 85}, "uniqueid": "MTK2105:3BXQMRHWK05HZ44ZWA0MJZFPP1RUMY", "dateTime": 1516735032846}, {"current_trial": 86, "trialdata": {"rt": -1, "trial_type": "single-stim", "stimulus": "<p id=\"stim\">2</p>", "internal_node_id": "0.0-60.0-8.0", "time_elapsed": 1048183, "key_press": -1, "trial_index": 86}, "uniqueid": "MTK2105:3BXQMRHWK05HZ44ZWA0MJZFPP1RUMY", "dateTime": 1516735033847}, {"current_trial": 87, "trialdata": {"rt": -1, "trial_type": "single-stim", "stimulus": "<p id=\"stim\">1</p>", "internal_node_id": "0.0-60.0-9.0", "time_elapsed": 1049185, "key_press": -1, "trial_index": 87}, "uniqueid": "MTK2105:3BXQMRHWK05HZ44ZWA0MJZFPP1RUMY", "dateTime": 1516735034850}, {"current_trial": 88, "trialdata": {"rt": -1, "trial_type": "single-stim", "stimulus": "<p id=\"stim\">+</p>", "internal_node_id": "0.0-61.0-0.0", "time_elapsed": 1050686, "key_press": -1, "type": "FIXATION", "trial_index": 88}, "uniqueid": "MTK2105:3BXQMRHWK05HZ44ZWA0MJZFPP1RUMY", "dateTime": 1516735036350}, {"current_trial": 89, "trialdata": {"rt": -1000, "trial_type": "single-audio", "word": "treat", "stimulus": "/static/audio/wordpool/TREAT.wav", "conditions": [24, 800, "a", 24000], "internal_node_id": "0.0-62.0", "trial": 2, "time_elapsed": 1052353, "serialpos": 0, "key_press": -1, "wordID": 1500, "type": "PRES_AUD", "trial_index": 89}, "uniqueid": "MTK2105:3BXQMRHWK05HZ44ZWA0MJZFPP1RUMY", "dateTime": 1516735038017}, {"current_trial": 90, "trialdata": {"rt": -1000, "trial_type": "single-audio", "word": "grill", "stimulus": "/static/audio/wordpool/GRILL.wav", "conditions": [24, 800, "a", 24000], "internal_node_id": "0.0-63.0", "trial": 2, "time_elapsed": 1054162, "serialpos": 1, "key_press": -1, "wordID": 660, "type": "PRES_AUD", "trial_index": 90}, "uniqueid": "MTK2105:3BXQMRHWK05HZ44ZWA0MJZFPP1RUMY", "dateTime": 1516735039826}, {"current_trial": 91, "trialdata": {"rt": -1000, "trial_type": "single-audio", "word": "tombstone", "stimulus": "/static/audio/wordpool/TOMBSTONE.wav", "conditions": [24, 800, "a", 24000], "internal_node_id": "0.0-64.0", "trial": 2, "time_elapsed": 1056168, "serialpos": 2, "key_press": -1, "wordID": 1477, "type": "PRES_AUD", "trial_index": 91}, "uniqueid": "MTK2105:3BXQMRHWK05HZ44ZWA0MJZFPP1RUMY", "dateTime": 1516735041832}, {"current_trial": 92, "trialdata": {"rt": -1000, "trial_type": "single-audio", "word": "dress", "stimulus": "/static/audio/wordpool/DRESS.wav", "conditions": [24, 800, "a", 24000], "internal_node_id": "0.0-65.0", "trial": 2, "time_elapsed": 1058120, "serialpos": 3, "key_press": -1, "wordID": 494, "type": "PRES_AUD", "trial_index": 92}, "uniqueid": "MTK2105:3BXQMRHWK05HZ44ZWA0MJZFPP1RUMY", "dateTime": 1516735043785}, {"current_trial": 93, "trialdata": {"rt": -1000, "trial_type": "single-audio", "word": "globe", "stimulus": "/static/audio/wordpool/GLOBE.wav", "conditions": [24, 800, "a", 24000], "internal_node_id": "0.0-66.0", "trial": 2, "time_elapsed": 1060101, "serialpos": 4, "key_press": -1, "wordID": 640, "type": "PRES_AUD", "trial_index": 93}, "uniqueid": "MTK2105:3BXQMRHWK05HZ44ZWA0MJZFPP1RUMY", "dateTime": 1516735045765}, {"current_trial": 94, "trialdata": {"rt": -1000, "trial_type": "single-audio", "word": "muffin", "stimulus": "/static/audio/wordpool/MUFFIN.wav", "conditions": [24, 800, "a", 24000], "internal_node_id": "0.0-67.0", "trial": 2, "time_elapsed": 1062102, "serialpos": 5, "key_press": -1, "wordID": 928, "type": "PRES_AUD", "trial_index": 94}, "uniqueid": "MTK2105:3BXQMRHWK05HZ44ZWA0MJZFPP1RUMY", "dateTime": 1516735047766}, {"current_trial": 95, "trialdata": {"rt": -1000, "trial_type": "single-audio", "word": "clam", "stimulus": "/static/audio/wordpool/CLAM.wav", "conditions": [24, 800, "a", 24000], "internal_node_id": "0.0-68.0", "trial": 2, "time_elapsed": 1063963, "serialpos": 6, "key_press": -1, "wordID": 314, "type": "PRES_AUD", "trial_index": 95}, "uniqueid": "MTK2105:3BXQMRHWK05HZ44ZWA0MJZFPP1RUMY", "dateTime": 1516735049627}, {"current_trial": 96, "trialdata": {"rt": -1000, "trial_type": "single-audio", "word": "report", "stimulus": "/static/audio/wordpool/REPORT.wav", "conditions": [24, 800, "a", 24000], "internal_node_id": "0.0-69.0", "trial": 2, "time_elapsed": 1065733, "serialpos": 7, "key_press": -1, "wordID": 1183, "type": "PRES_AUD", "trial_index": 96}, "uniqueid": "MTK2105:3BXQMRHWK05HZ44ZWA0MJZFPP1RUMY", "dateTime": 1516735051397}, {"current_trial": 97, "trialdata": {"rt": -1000, "trial_type": "single-audio", "word": "suitcase", "stimulus": "/static/audio/wordpool/SUITCASE.wav", "conditions": [24, 800, "a", 24000], "internal_node_id": "0.0-70.0", "trial": 2, "time_elapsed": 1067485, "serialpos": 8, "key_press": -1, "wordID": 1402, "type": "PRES_AUD", "trial_index": 97}, "uniqueid": "MTK2105:3BXQMRHWK05HZ44ZWA0MJZFPP1RUMY", "dateTime": 1516735053150}, {"current_trial": 98, "trialdata": {"rt": -1000, "trial_type": "single-audio", "word": "knapsack", "stimulus": "/static/audio/wordpool/KNAPSACK.wav", "conditions": [24, 800, "a", 24000], "internal_node_id": "0.0-71.0", "trial": 2, "time_elapsed": 1069099, "serialpos": 9, "key_press": -1, "wordID": 782, "type": "PRES_AUD", "trial_index": 98}, "uniqueid": "MTK2105:3BXQMRHWK05HZ44ZWA0MJZFPP1RUMY", "dateTime": 1516735054763}, {"current_trial": 99, "trialdata": {"rt": -1000, "trial_type": "single-audio", "word": "stove", "stimulus": "/static/audio/wordpool/STOVE.wav", "conditions": [24, 800, "a", 24000], "internal_node_id": "0.0-72.0", "trial": 2, "time_elapsed": 1070978, "serialpos": 10, "key_press": -1, "wordID": 1387, "type": "PRES_AUD", "trial_index": 99}, "uniqueid": "MTK2105:3BXQMRHWK05HZ44ZWA0MJZFPP1RUMY", "dateTime": 1516735056642}, {"current_trial": 100, "trialdata": {"rt": -1000, "trial_type": "single-audio", "word": "heart", "stimulus": "/static/audio/wordpool/HEART.wav", "conditions": [24, 800, "a", 24000], "internal_node_id": "0.0-73.0", "trial": 2, "time_elapsed": 1072753, "serialpos": 11, "key_press": -1, "wordID": 696, "type": "PRES_AUD", "trial_index": 100}, "uniqueid": "MTK2105:3BXQMRHWK05HZ44ZWA0MJZFPP1RUMY", "dateTime": 1516735058417}, {"current_trial": 101, "trialdata": {"rt": -1000, "trial_type": "single-audio", "word": "rattle", "stimulus": "/static/audio/wordpool/RATTLE.wav", "conditions": [24, 800, "a", 24000], "internal_node_id": "0.0-74.0", "trial": 2, "time_elapsed": 1074575, "serialpos": 12, "key_press": -1, "wordID": 1169, "type": "PRES_AUD", "trial_index": 101}, "uniqueid": "MTK2105:3BXQMRHWK05HZ44ZWA0MJZFPP1RUMY", "dateTime": 1516735060239}, {"current_trial": 102, "trialdata": {"rt": -1000, "trial_type": "single-audio", "word": "hornet", "stimulus": "/static/audio/wordpool/HORNET.wav", "conditions": [24, 800, "a", 24000], "internal_node_id": "0.0-75.0", "trial": 2, "time_elapsed": 1076356, "serialpos": 13, "key_press": -1, "wordID": 717, "type": "PRES_AUD", "trial_index": 102}, "uniqueid": "MTK2105:3BXQMRHWK05HZ44ZWA0MJZFPP1RUMY", "dateTime": 1516735062020}, {"current_trial": 103, "trialdata": {"rt": -1000, "trial_type": "single-audio", "word": "harp", "stimulus": "/static/audio/wordpool/HARP.wav", "conditions": [24, 800, "a", 24000], "internal_node_id": "0.0-76.0", "trial": 2, "time_elapsed": 1078009, "serialpos": 14, "key_press": -1, "wordID": 688, "type": "PRES_AUD", "trial_index": 103}, "uniqueid": "MTK2105:3BXQMRHWK05HZ44ZWA0MJZFPP1RUMY", "dateTime": 1516735063673}, {"current_trial": 104, "trialdata": {"rt": 910.666666666657, "trial_type": "single-audio", "word": "badge", "stimulus": "/static/audio/wordpool/BADGE.wav", "conditions": [24, 800, "a", 24000], "internal_node_id": "0.0-77.0", "trial": 2, "time_elapsed": 1079946, "serialpos": 15, "key_press": 175, "wordID": 67, "type": "PRES_AUD", "trial_index": 104}, "uniqueid": "MTK2105:3BXQMRHWK05HZ44ZWA0MJZFPP1RUMY", "dateTime": 1516735065610}, {"current_trial": 105, "trialdata": {"rt": -1000, "trial_type": "single-audio", "word": "crater", "stimulus": "/static/audio/wordpool/CRATER.wav", "conditions": [24, 800, "a", 24000], "internal_node_id": "0.0-78.0", "trial": 2, "time_elapsed": 1081779, "serialpos": 16, "key_press": -1, "wordID": 399, "type": "PRES_AUD", "trial_index": 105}, "uniqueid": "MTK2105:3BXQMRHWK05HZ44ZWA0MJZFPP1RUMY", "dateTime": 1516735067443}, {"current_trial": 106, "trialdata": {"rt": -1000, "trial_type": "single-audio", "word": "wrist", "stimulus": "/static/audio/wordpool/WRIST.wav", "conditions": [24, 800, "a", 24000], "internal_node_id": "0.0-79.0", "trial": 2, "time_elapsed": 1083753, "serialpos": 17, "key_press": -1, "wordID": 1625, "type": "PRES_AUD", "trial_index": 106}, "uniqueid": "MTK2105:3BXQMRHWK05HZ44ZWA0MJZFPP1RUMY", "dateTime": 1516735069417}, {"current_trial": 107, "trialdata": {"rt": -1000, "trial_type": "single-audio", "word": "finger", "stimulus": "/static/audio/wordpool/FINGER.wav", "conditions": [24, 800, "a", 24000], "internal_node_id": "0.0-80.0", "trial": 2, "time_elapsed": 1085420, "serialpos": 18, "key_press": -1, "wordID": 566, "type": "PRES_AUD", "trial_index": 107}, "uniqueid": "MTK2105:3BXQMRHWK05HZ44ZWA0MJZFPP1RUMY", "dateTime": 1516735071084}, {"current_trial": 108, "trialdata": {"rt": -1000, "trial_type": "single-audio", "word": "judge", "stimulus": "/static/audio/wordpool/JUDGE.wav", "conditions": [24, 800, "a", 24000], "internal_node_id": "0.0-81.0", "trial": 2, "time_elapsed": 1087102, "serialpos": 19, "key_press": -1, "wordID": 760, "type": "PRES_AUD", "trial_index": 108}, "uniqueid": "MTK2105:3BXQMRHWK05HZ44ZWA0MJZFPP1RUMY", "dateTime": 1516735072766}, {"current_trial": 109, "trialdata": {"rt": -1000, "trial_type": "single-audio", "word": "taxi", "stimulus": "/static/audio/wordpool/TAXI.wav", "conditions": [24, 800, "a", 24000], "internal_node_id": "0.0-82.0", "trial": 2, "time_elapsed": 1088993, "serialpos": 20, "key_press": -1, "wordID": 1437, "type": "PRES_AUD", "trial_index": 109}, "uniqueid": "MTK2105:3BXQMRHWK05HZ44ZWA0MJZFPP1RUMY", "dateTime": 1516735074657}, {"current_trial": 110, "trialdata": {"rt": -1000, "trial_type": "single-audio", "word": "victim", "stimulus": "/static/audio/wordpool/VICTIM.wav", "conditions": [24, 800, "a", 24000], "internal_node_id": "0.0-83.0", "trial": 2, "time_elapsed": 1090639, "serialpos": 21, "key_press": -1, "wordID": 1561, "type": "PRES_AUD", "trial_index": 110}, "uniqueid": "MTK2105:3BXQMRHWK05HZ44ZWA0MJZFPP1RUMY", "dateTime": 1516735076303}, {"current_trial": 111, "trialdata": {"rt": -1000, "trial_type": "single-audio", "word": "guitar", "stimulus": "/static/audio/wordpool/GUITAR.wav", "conditions": [24, 800, "a", 24000], "internal_node_id": "0.0-84.0", "trial": 2, "time_elapsed": 1092542, "serialpos": 22, "key_press": -1, "wordID": 669, "type": "PRES_AUD", "trial_index": 111}, "uniqueid": "MTK2105:3BXQMRHWK05HZ44ZWA0MJZFPP1RUMY", "dateTime": 1516735078206}, {"current_trial": 112, "trialdata": {"rt": -1000, "trial_type": "single-audio", "word": "lava", "stimulus": "/static/audio/wordpool/LAVA.wav", "conditions": [24, 800, "a", 24000], "internal_node_id": "0.0-85.0", "trial": 2, "time_elapsed": 1094343, "serialpos": 23, "key_press": -1, "wordID": 803, "type": "PRES_AUD", "trial_index": 112}, "uniqueid": "MTK2105:3BXQMRHWK05HZ44ZWA0MJZFPP1RUMY", "dateTime": 1516735080007}, {"current_trial": 113, "trialdata": {"rt": -1, "trial_type": "single-stim", "stimulus": "", "internal_node_id": "0.0-86.0-0.0", "time_elapsed": 1095654, "key_press": -1, "type": "PRE_RECALL_DELAY", "trial_index": 113}, "uniqueid": "MTK2105:3BXQMRHWK05HZ44ZWA0MJZFPP1RUMY", "dateTime": 1516735081318}, {"current_trial": 114, "trialdata": {"rt": -1000, "trial_type": "single-audio", "stimulus": "/static/audio/400Hz.wav", "internal_node_id": "0.0-87.0", "time_elapsed": 1096155, "key_press": -1, "type": "PRE_RECALL_ALERT", "trial_index": 114}, "uniqueid": "MTK2105:3BXQMRHWK05HZ44ZWA0MJZFPP1RUMY", "dateTime": 1516735081819}, {"current_trial": 115, "trialdata": {"rt": [3356, 4692, 6540, 9076, 12781, 14348, 16836, 20340, 29284, 32452, 37276, 55140], "recwords": ["victim", "guitar", "lava", "tombstone", "wrist", "finger", "grill", "treat", "knapsack", "suitcase", "label", "creature"], "key_times": [1277, 1556, 2329, 2565, 2820, 2949, 3356, 3772, 3940, 4036, 4236, 4437, 4508, 4692, 5181, 5245, 5596, 5885, 6540, 7189, 7268, 7429, 7869, 8188, 8364, 8509, 8612, 8765, 9076, 11148, 11261, 11453, 11580, 12109, 12292, 12388, 12781, 13093, 13197, 13285, 13450, 13628, 13701, 14348, 14852, 15076, 15164, 15404, 15556, 16836, 19452, 19676, 19740, 19908, 20004, 20340, 27206, 27420, 27564, 27692, 27940, 28148, 28396, 28500, 29284, 30540, 30676, 30748, 30932, 31260, 31460, 31636, 31956, 32452, 35836, 35948, 36308, 36508, 36636, 37276, 50741, 51075, 51308, 51405, 51612, 51708, 51860, 52323, 52548, 52724, 52908, 53060, 53236, 53412, 53796, 53947, 54108, 54211, 55140], "trial_type": "free-recall", "conditions": [24, 800, "a", 24000], "internal_node_id": "0.0-88.0-0.0", "key_presses": [86, 73, 67, 84, 73, 77, 32, 71, 85, 73, 84, 65, 82, 32, 76, 65, 86, 65, 32, 84, 79, 77, 66, 83, 84, 79, 78, 69, 32, 87, 82, 73, 78, 8, 83, 84, 32, 70, 73, 78, 71, 69, 82, 32, 71, 82, 73, 76, 76, 32, 84, 82, 69, 65, 84, 32, 75, 78, 65, 80, 83, 65, 67, 75, 32, 83, 85, 73, 84, 67, 65, 83, 69, 32, 76, 65, 66, 69, 76, 32, 67, 82, 65, 84, 85, 82, 69, 8, 8, 8, 8, 8, 69, 65, 84, 85, 82, 69, 32], "trial": 2, "time_elapsed": 1156159, "type": "FREE_RECALL", "trial_index": 115}, "uniqueid": "MTK2105:3BXQMRHWK05HZ44ZWA0MJZFPP1RUMY", "dateTime": 1516735141827}, {"current_trial": 116, "trialdata": {"rt": 1004, "trial_type": "text", "internal_node_id": "0.0-89.0", "time_elapsed": 1159170, "key_press": 32, "type": "INSTRUCTIONS", "trial_index": 116}, "uniqueid": "MTK2105:3BXQMRHWK05HZ44ZWA0MJZFPP1RUMY", "dateTime": 1516735144834}, {"current_trial": 117, "trialdata": {"rt": [3436, 4740, 7060, 8805, 10596], "trial_type": "math-distractor", "key_times": [1652, 1756, 1956, 2652, 3436, 4509, 4740, 6325, 6629, 7060, 8380, 8572, 8805, 10155, 10332, 10596], "responses": ["11", "5", "14", "11", "16"], "num2": [2, 2, 7, 4, 1, 8], "num3": [5, 1, 6, 3, 9, 8], "conditions": [12, 1600, "a", 12000], "internal_node_id": "0.0-90.0", "key_presses": [97, 97, 97, 8, 13, 101, 13, 97, 100, 13, 97, 97, 13, 97, 102, 13], "trial": 3, "time_elapsed": 1173174, "type": "DISTRACTOR", "trial_index": 117, "num1": [4, 2, 1, 4, 6, 4]}, "uniqueid": "MTK2105:3BXQMRHWK05HZ44ZWA0MJZFPP1RUMY", "dateTime": 1516735158838}, {"current_trial": 118, "trialdata": {"rt": -1, "trial_type": "single-stim", "stimulus": "<p id=\"stim\">10</p>", "internal_node_id": "0.0-91.0-0.0", "time_elapsed": 1176178, "key_press": -1, "trial_index": 118}, "uniqueid": "MTK2105:3BXQMRHWK05HZ44ZWA0MJZFPP1RUMY", "dateTime": 1516735161842}, {"current_trial": 119, "trialdata": {"rt": 776, "trial_type": "single-stim", "stimulus": "<p id=\"stim\">9</p>", "internal_node_id": "0.0-91.0-1.0", "time_elapsed": 1177180, "key_press": 175, "trial_index": 119}, "uniqueid": "MTK2105:3BXQMRHWK05HZ44ZWA0MJZFPP1RUMY", "dateTime": 1516735162844}, {"current_trial": 120, "trialdata": {"rt": -1, "trial_type": "single-stim", "stimulus": "<p id=\"stim\">8</p>", "internal_node_id": "0.0-91.0-2.0", "time_elapsed": 1178183, "key_press": -1, "trial_index": 120}, "uniqueid": "MTK2105:3BXQMRHWK05HZ44ZWA0MJZFPP1RUMY", "dateTime": 1516735163847}, {"current_trial": 121, "trialdata": {"rt": -1, "trial_type": "single-stim", "stimulus": "<p id=\"stim\">7</p>", "internal_node_id": "0.0-91.0-3.0", "time_elapsed": 1179186, "key_press": -1, "trial_index": 121}, "uniqueid": "MTK2105:3BXQMRHWK05HZ44ZWA0MJZFPP1RUMY", "dateTime": 1516735164850}, {"current_trial": 122, "trialdata": {"rt": -1, "trial_type": "single-stim", "stimulus": "<p id=\"stim\">6</p>", "internal_node_id": "0.0-91.0-4.0", "time_elapsed": 1180186, "key_press": -1, "trial_index": 122}, "uniqueid": "MTK2105:3BXQMRHWK05HZ44ZWA0MJZFPP1RUMY", "dateTime": 1516735165851}, {"current_trial": 123, "trialdata": {"rt": -1, "trial_type": "single-stim", "stimulus": "<p id=\"stim\">5</p>", "internal_node_id": "0.0-91.0-5.0", "time_elapsed": 1181189, "key_press": -1, "trial_index": 123}, "uniqueid": "MTK2105:3BXQMRHWK05HZ44ZWA0MJZFPP1RUMY", "dateTime": 1516735166853}, {"current_trial": 124, "trialdata": {"rt": -1, "trial_type": "single-stim", "stimulus": "<p id=\"stim\">4</p>", "internal_node_id": "0.0-91.0-6.0", "time_elapsed": 1182190, "key_press": -1, "trial_index": 124}, "uniqueid": "MTK2105:3BXQMRHWK05HZ44ZWA0MJZFPP1RUMY", "dateTime": 1516735167854}, {"current_trial": 125, "trialdata": {"rt": -1, "trial_type": "single-stim", "stimulus": "<p id=\"stim\">3</p>", "internal_node_id": "0.0-91.0-7.0", "time_elapsed": 1183191, "key_press": -1, "trial_index": 125}, "uniqueid": "MTK2105:3BXQMRHWK05HZ44ZWA0MJZFPP1RUMY", "dateTime": 1516735168856}, {"current_trial": 126, "trialdata": {"rt": -1, "trial_type": "single-stim", "stimulus": "<p id=\"stim\">2</p>", "internal_node_id": "0.0-91.0-8.0", "time_elapsed": 1184193, "key_press": -1, "trial_index": 126}, "uniqueid": "MTK2105:3BXQMRHWK05HZ44ZWA0MJZFPP1RUMY", "dateTime": 1516735169857}, {"current_trial": 127, "trialdata": {"rt": -1, "trial_type": "single-stim", "stimulus": "<p id=\"stim\">1</p>", "internal_node_id": "0.0-91.0-9.0", "time_elapsed": 1185195, "key_press": -1, "trial_index": 127}, "uniqueid": "MTK2105:3BXQMRHWK05HZ44ZWA0MJZFPP1RUMY", "dateTime": 1516735170859}, {"current_trial": 128, "trialdata": {"rt": -1, "trial_type": "single-stim", "stimulus": "<p id=\"stim\">+</p>", "internal_node_id": "0.0-92.0-0.0", "time_elapsed": 1186696, "key_press": -1, "type": "FIXATION", "trial_index": 128}, "uniqueid": "MTK2105:3BXQMRHWK05HZ44ZWA0MJZFPP1RUMY", "dateTime": 1516735172360}, {"current_trial": 129, "trialdata": {"rt": -1000, "trial_type": "single-audio", "word": "typist", "stimulus": "/static/audio/wordpool/TYPIST.wav", "conditions": [12, 1600, "a", 12000], "internal_node_id": "0.0-93.0", "trial": 3, "time_elapsed": 1189286, "serialpos": 0, "key_press": -1, "wordID": 1531, "type": "PRES_AUD", "trial_index": 129}, "uniqueid": "MTK2105:3BXQMRHWK05HZ44ZWA0MJZFPP1RUMY", "dateTime": 1516735174951}, {"current_trial": 130, "trialdata": {"rt": -1000, "trial_type": "single-audio", "word": "scallop", "stimulus": "/static/audio/wordpool/SCALLOP.wav", "conditions": [12, 1600, "a", 12000], "internal_node_id": "0.0-94.0", "trial": 3, "time_elapsed": 1191779, "serialpos": 1, "key_press": -1, "wordID": 1241, "type": "PRES_AUD", "trial_index": 130}, "uniqueid": "MTK2105:3BXQMRHWK05HZ44ZWA0MJZFPP1RUMY", "dateTime": 1516735177443}, {"current_trial": 131, "trialdata": {"rt": -1000, "trial_type": "single-audio", "word": "ozone", "stimulus": "/static/audio/wordpool/OZONE.wav", "conditions": [12, 1600, "a", 12000], "internal_node_id": "0.0-95.0", "trial": 3, "time_elapsed": 1194392, "serialpos": 2, "key_press": -1, "wordID": 995, "type": "PRES_AUD", "trial_index": 131}, "uniqueid": "MTK2105:3BXQMRHWK05HZ44ZWA0MJZFPP1RUMY", "dateTime": 1516735180056}, {"current_trial": 132, "trialdata": {"rt": -1000, "trial_type": "single-audio", "word": "smog", "stimulus": "/static/audio/wordpool/SMOG.wav", "conditions": [12, 1600, "a", 12000], "internal_node_id": "0.0-96.0", "trial": 3, "time_elapsed": 1197142, "serialpos": 3, "key_press": -1, "wordID": 1329, "type": "PRES_AUD", "trial_index": 132}, "uniqueid": "MTK2105:3BXQMRHWK05HZ44ZWA0MJZFPP1RUMY", "dateTime": 1516735182806}, {"current_trial": 133, "trialdata": {"rt": -1000, "trial_type": "single-audio", "word": "sausage", "stimulus": "/static/audio/wordpool/SAUSAGE.wav", "conditions": [12, 1600, "a", 12000], "internal_node_id": "0.0-97.0", "trial": 3, "time_elapsed": 1199838, "serialpos": 4, "key_press": -1, "wordID": 1237, "type": "PRES_AUD", "trial_index": 133}, "uniqueid": "MTK2105:3BXQMRHWK05HZ44ZWA0MJZFPP1RUMY", "dateTime": 1516735185503}, {"current_trial": 134, "trialdata": {"rt": -1000, "trial_type": "single-audio", "word": "journal", "stimulus": "/static/audio/wordpool/JOURNAL.wav", "conditions": [12, 1600, "a", 12000], "internal_node_id": "0.0-98.0", "trial": 3, "time_elapsed": 1202569, "serialpos": 5, "key_press": -1, "wordID": 759, "type": "PRES_AUD", "trial_index": 134}, "uniqueid": "MTK2105:3BXQMRHWK05HZ44ZWA0MJZFPP1RUMY", "dateTime": 1516735188233}, {"current_trial": 135, "trialdata": {"rt": -1000, "trial_type": "single-audio", "word": "author", "stimulus": "/static/audio/wordpool/AUTHOR.wav", "conditions": [12, 1600, "a", 12000], "internal_node_id": "0.0-99.0", "trial": 3, "time_elapsed": 1205302, "serialpos": 6, "key_press": -1, "wordID": 60, "type": "PRES_AUD", "trial_index": 135}, "uniqueid": "MTK2105:3BXQMRHWK05HZ44ZWA0MJZFPP1RUMY", "dateTime": 1516735190966}, {"current_trial": 136, "trialdata": {"rt": -1000, "trial_type": "single-audio", "word": "cricket", "stimulus": "/static/audio/wordpool/CRICKET.wav", "conditions": [12, 1600, "a", 12000], "internal_node_id": "0.0-100.0", "trial": 3, "time_elapsed": 1207848, "serialpos": 7, "key_press": -1, "wordID": 407, "type": "PRES_AUD", "trial_index": 136}, "uniqueid": "MTK2105:3BXQMRHWK05HZ44ZWA0MJZFPP1RUMY", "dateTime": 1516735193512}, {"current_trial": 137, "trialdata": {"rt": -1000, "trial_type": "single-audio", "word": "salmon", "stimulus": "/static/audio/wordpool/SALMON.wav", "conditions": [12, 1600, "a", 12000], "internal_node_id": "0.0-101.0", "trial": 3, "time_elapsed": 1210407, "serialpos": 8, "key_press": -1, "wordID": 1226, "type": "PRES_AUD", "trial_index": 137}, "uniqueid": "MTK2105:3BXQMRHWK05HZ44ZWA0MJZFPP1RUMY", "dateTime": 1516735196071}, {"current_trial": 138, "trialdata": {"rt": -1000, "trial_type": "single-audio", "word": "scarf", "stimulus": "/static/audio/wordpool/SCARF.wav", "conditions": [12, 1600, "a", 12000], "internal_node_id": "0.0-102.0", "trial": 3, "time_elapsed": 1213105, "serialpos": 9, "key_press": -1, "wordID": 1245, "type": "PRES_AUD", "trial_index": 138}, "uniqueid": "MTK2105:3BXQMRHWK05HZ44ZWA0MJZFPP1RUMY", "dateTime": 1516735198769}, {"current_trial": 139, "trialdata": {"rt": -1000, "trial_type": "single-audio", "word": "wagon", "stimulus": "/static/audio/wordpool/WAGON.wav", "conditions": [12, 1600, "a", 12000], "internal_node_id": "0.0-103.0", "trial": 3, "time_elapsed": 1215843, "serialpos": 10, "key_press": -1, "wordID": 1577, "type": "PRES_AUD", "trial_index": 139}, "uniqueid": "MTK2105:3BXQMRHWK05HZ44ZWA0MJZFPP1RUMY", "dateTime": 1516735201507}, {"current_trial": 140, "trialdata": {"rt": -1000, "trial_type": "single-audio", "word": "oyster", "stimulus": "/static/audio/wordpool/OYSTER.wav", "conditions": [12, 1600, "a", 12000], "internal_node_id": "0.0-104.0", "trial": 3, "time_elapsed": 1218479, "serialpos": 11, "key_press": -1, "wordID": 994, "type": "PRES_AUD", "trial_index": 140}, "uniqueid": "MTK2105:3BXQMRHWK05HZ44ZWA0MJZFPP1RUMY", "dateTime": 1516735204143}, {"current_trial": 141, "trialdata": {"rt": -1, "trial_type": "single-stim", "stimulus": "", "internal_node_id": "0.0-105.0-0.0", "time_elapsed": 1219821, "key_press": -1, "type": "PRE_RECALL_DELAY", "trial_index": 141}, "uniqueid": "MTK2105:3BXQMRHWK05HZ44ZWA0MJZFPP1RUMY", "dateTime": 1516735205485}, {"current_trial": 142, "trialdata": {"rt": -1000, "trial_type": "single-audio", "stimulus": "/static/audio/400Hz.wav", "internal_node_id": "0.0-106.0", "time_elapsed": 1220323, "key_press": -1, "type": "PRE_RECALL_ALERT", "trial_index": 142}, "uniqueid": "MTK2105:3BXQMRHWK05HZ44ZWA0MJZFPP1RUMY", "dateTime": 1516735205987}, {"current_trial": 143, "trialdata": {"rt": [4524, 6645, 8301, 10094, 12621, 17484, 20693, 23517, 25685, 29260, 44692, 49516], "recwords": ["scallop", "oyster", "wagon", "scarf", "globe", "cricket", "salmon", "typist", "journal", "author", "ozone", "smog"], "key_times": [573, 860, 1024, 1325, 1564, 1980, 2460, 3669, 3924, 4524, 5284, 5541, 5884, 5996, 6220, 6292, 6645, 7085, 7244, 7573, 7740, 7860, 8301, 8628, 8917, 9141, 9260, 9613, 10094, 11149, 11268, 11485, 12038, 12228, 12621, 16069, 16292, 16380, 16628, 16692, 16900, 17028, 17484, 19228, 19396, 19532, 19876, 20284, 20459, 20693, 22357, 22508, 22733, 22932, 23116, 23245, 23517, 24093, 24293, 24397, 24621, 24749, 24908, 25055, 25685, 27236, 27396, 27660, 27756, 27917, 27996, 28437, 28605, 28828, 28925, 29260, 43516, 43660, 43868, 43996, 44124, 44692, 48484, 48748, 48932, 49140, 49516], "trial_type": "free-recall", "conditions": [12, 1600, "a", 12000], "internal_node_id": "0.0-107.0-0.0", "key_presses": [83, 67, 65, 76, 76, 80, 8, 79, 80, 13, 79, 89, 83, 84, 69, 82, 32, 87, 65, 71, 79, 78, 32, 83, 67, 65, 82, 70, 32, 71, 76, 79, 66, 69, 32, 67, 82, 73, 67, 75, 69, 84, 32, 83, 65, 76, 77, 79, 78, 32, 84, 89, 80, 73, 83, 84, 32, 74, 79, 85, 82, 78, 65, 76, 32, 65, 85, 84, 72, 69, 82, 8, 8, 79, 82, 32, 79, 90, 79, 78, 69, 13, 83, 77, 79, 71, 13], "trial": 3, "time_elapsed": 1280327, "type": "FREE_RECALL", "trial_index": 143}, "uniqueid": "MTK2105:3BXQMRHWK05HZ44ZWA0MJZFPP1RUMY", "dateTime": 1516735266000}, {"current_trial": 144, "trialdata": {"rt": 954, "trial_type": "text", "internal_node_id": "0.0-108.0", "time_elapsed": 1283291, "key_press": 32, "type": "INSTRUCTIONS", "trial_index": 144}, "uniqueid": "MTK2105:3BXQMRHWK05HZ44ZWA0MJZFPP1RUMY", "dateTime": 1516735268955}, {"current_trial": 145, "trialdata": {"rt": [2067, 4547, 6347, 8076, 9891, 12003, 13643, 15539, 17195, 19051, 20619, 22467], "trial_type": "math-distractor", "key_times": [1131, 1340, 2067, 4004, 4268, 4547, 6084, 6347, 7555, 7827, 8076, 9355, 9635, 9891, 11508, 11763, 12003, 13283, 13387, 13643, 15131, 15227, 15539, 16835, 16939, 17195, 18628, 18780, 19051, 20027, 20379, 20619, 21899, 22051, 22467], "responses": ["19", "19", "8", "17", "17", "16", "12", "15", "21", "18", "13", "16"], "num2": [7, 6, 1, 7, 5, 5, 4, 9, 8, 1, 6, 9, 4], "num3": [7, 5, 5, 3, 5, 8, 6, 2, 5, 8, 6, 2, 3], "conditions": [12, 800, "a", 24000], "internal_node_id": "0.0-109.0", "key_presses": [97, 105, 13, 97, 105, 13, 104, 13, 97, 103, 13, 97, 103, 13, 97, 102, 13, 97, 98, 13, 97, 101, 13, 98, 97, 13, 97, 104, 13, 97, 99, 13, 97, 102, 13], "trial": 4, "time_elapsed": 1309296, "type": "DISTRACTOR", "trial_index": 145, "num1": [5, 8, 2, 7, 7, 3, 2, 4, 8, 9, 1, 5, 2]}, "uniqueid": "MTK2105:3BXQMRHWK05HZ44ZWA0MJZFPP1RUMY", "dateTime": 1516735294961}, {"current_trial": 146, "trialdata": {"rt": -1, "trial_type": "single-stim", "stimulus": "<p id=\"stim\">10</p>", "internal_node_id": "0.0-110.0-0.0", "time_elapsed": 1312299, "key_press": -1, "trial_index": 146}, "uniqueid": "MTK2105:3BXQMRHWK05HZ44ZWA0MJZFPP1RUMY", "dateTime": 1516735297963}, {"current_trial": 147, "trialdata": {"rt": -1, "trial_type": "single-stim", "stimulus": "<p id=\"stim\">9</p>", "internal_node_id": "0.0-110.0-1.0", "time_elapsed": 1313300, "key_press": -1, "trial_index": 147}, "uniqueid": "MTK2105:3BXQMRHWK05HZ44ZWA0MJZFPP1RUMY", "dateTime": 1516735298964}, {"current_trial": 148, "trialdata": {"rt": -1, "trial_type": "single-stim", "stimulus": "<p id=\"stim\">8</p>", "internal_node_id": "0.0-110.0-2.0", "time_elapsed": 1314334, "key_press": -1, "trial_index": 148}, "uniqueid": "MTK2105:3BXQMRHWK05HZ44ZWA0MJZFPP1RUMY", "dateTime": 1516735299998}, {"current_trial": 149, "trialdata": {"rt": -1, "trial_type": "single-stim", "stimulus": "<p id=\"stim\">7</p>", "internal_node_id": "0.0-110.0-3.0", "time_elapsed": 1315335, "key_press": -1, "trial_index": 149}, "uniqueid": "MTK2105:3BXQMRHWK05HZ44ZWA0MJZFPP1RUMY", "dateTime": 1516735301000}, {"current_trial": 150, "trialdata": {"rt": -1, "trial_type": "single-stim", "stimulus": "<p id=\"stim\">6</p>", "internal_node_id": "0.0-110.0-4.0", "time_elapsed": 1316337, "key_press": -1, "trial_index": 150}, "uniqueid": "MTK2105:3BXQMRHWK05HZ44ZWA0MJZFPP1RUMY", "dateTime": 1516735302001}, {"current_trial": 151, "trialdata": {"rt": -1, "trial_type": "single-stim", "stimulus": "<p id=\"stim\">5</p>", "internal_node_id": "0.0-110.0-5.0", "time_elapsed": 1317339, "key_press": -1, "trial_index": 151}, "uniqueid": "MTK2105:3BXQMRHWK05HZ44ZWA0MJZFPP1RUMY", "dateTime": 1516735303003}, {"current_trial": 152, "trialdata": {"rt": -1, "trial_type": "single-stim", "stimulus": "<p id=\"stim\">4</p>", "internal_node_id": "0.0-110.0-6.0", "time_elapsed": 1318341, "key_press": -1, "trial_index": 152}, "uniqueid": "MTK2105:3BXQMRHWK05HZ44ZWA0MJZFPP1RUMY", "dateTime": 1516735304005}, {"current_trial": 153, "trialdata": {"rt": -1, "trial_type": "single-stim", "stimulus": "<p id=\"stim\">3</p>", "internal_node_id": "0.0-110.0-7.0", "time_elapsed": 1319341, "key_press": -1, "trial_index": 153}, "uniqueid": "MTK2105:3BXQMRHWK05HZ44ZWA0MJZFPP1RUMY", "dateTime": 1516735305005}, {"current_trial": 154, "trialdata": {"rt": -1, "trial_type": "single-stim", "stimulus": "<p id=\"stim\">2</p>", "internal_node_id": "0.0-110.0-8.0", "time_elapsed": 1320342, "key_press": -1, "trial_index": 154}, "uniqueid": "MTK2105:3BXQMRHWK05HZ44ZWA0MJZFPP1RUMY", "dateTime": 1516735306006}, {"current_trial": 155, "trialdata": {"rt": -1, "trial_type": "single-stim", "stimulus": "<p id=\"stim\">1</p>", "internal_node_id": "0.0-110.0-9.0", "time_elapsed": 1321344, "key_press": -1, "trial_index": 155}, "uniqueid": "MTK2105:3BXQMRHWK05HZ44ZWA0MJZFPP1RUMY", "dateTime": 1516735307008}, {"current_trial": 156, "trialdata": {"rt": -1, "trial_type": "single-stim", "stimulus": "<p id=\"stim\">+</p>", "internal_node_id": "0.0-111.0-0.0", "time_elapsed": 1322845, "key_press": -1, "type": "FIXATION", "trial_index": 156}, "uniqueid": "MTK2105:3BXQMRHWK05HZ44ZWA0MJZFPP1RUMY", "dateTime": 1516735308510}, {"current_trial": 157, "trialdata": {"rt": -1000, "trial_type": "single-audio", "word": "bucket", "stimulus": "/static/audio/wordpool/BUCKET.wav", "conditions": [12, 800, "a", 24000], "internal_node_id": "0.0-112.0", "trial": 4, "time_elapsed": 1324597, "serialpos": 0, "key_press": -1, "wordID": 183, "type": "PRES_AUD", "trial_index": 157}, "uniqueid": "MTK2105:3BXQMRHWK05HZ44ZWA0MJZFPP1RUMY", "dateTime": 1516735310261}, {"current_trial": 158, "trialdata": {"rt": -1000, "trial_type": "single-audio", "word": "blade", "stimulus": "/static/audio/wordpool/BLADE.wav", "conditions": [12, 800, "a", 24000], "internal_node_id": "0.0-113.0", "trial": 4, "time_elapsed": 1326574, "serialpos": 1, "key_press": -1, "wordID": 133, "type": "PRES_AUD", "trial_index": 158}, "uniqueid": "MTK2105:3BXQMRHWK05HZ44ZWA0MJZFPP1RUMY", "dateTime": 1516735312238}, {"current_trial": 159, "trialdata": {"rt": -1000, "trial_type": "single-audio", "word": "salad", "stimulus": "/static/audio/wordpool/SALAD.wav", "conditions": [12, 800, "a", 24000], "internal_node_id": "0.0-114.0", "trial": 4, "time_elapsed": 1328221, "serialpos": 2, "key_press": -1, "wordID": 1223, "type": "PRES_AUD", "trial_index": 159}, "uniqueid": "MTK2105:3BXQMRHWK05HZ44ZWA0MJZFPP1RUMY", "dateTime": 1516735313885}, {"current_trial": 160, "trialdata": {"rt": -1000, "trial_type": "single-audio", "word": "couch", "stimulus": "/static/audio/wordpool/COUCH.wav", "conditions": [12, 800, "a", 24000], "internal_node_id": "0.0-115.0", "trial": 4, "time_elapsed": 1330069, "serialpos": 3, "key_press": -1, "wordID": 385, "type": "PRES_AUD", "trial_index": 160}, "uniqueid": "MTK2105:3BXQMRHWK05HZ44ZWA0MJZFPP1RUMY", "dateTime": 1516735315733}, {"current_trial": 161, "trialdata": {"rt": -1000, "trial_type": "single-audio", "word": "knife", "stimulus": "/static/audio/wordpool/KNIFE.wav", "conditions": [12, 800, "a", 24000], "internal_node_id": "0.0-116.0", "trial": 4, "time_elapsed": 1331697, "serialpos": 4, "key_press": -1, "wordID": 784, "type": "PRES_AUD", "trial_index": 161}, "uniqueid": "MTK2105:3BXQMRHWK05HZ44ZWA0MJZFPP1RUMY", "dateTime": 1516735317361}, {"current_trial": 162, "trialdata": {"rt": -1000, "trial_type": "single-audio", "word": "rod", "stimulus": "/static/audio/wordpool/ROD.wav", "conditions": [12, 800, "a", 24000], "internal_node_id": "0.0-117.0", "trial": 4, "time_elapsed": 1333657, "serialpos": 5, "key_press": -1, "wordID": 1202, "type": "PRES_AUD", "trial_index": 162}, "uniqueid": "MTK2105:3BXQMRHWK05HZ44ZWA0MJZFPP1RUMY", "dateTime": 1516735319321}, {"current_trial": 163, "trialdata": {"rt": -1000, "trial_type": "single-audio", "word": "child", "stimulus": "/static/audio/wordpool/CHILD.wav", "conditions": [12, 800, "a", 24000], "internal_node_id": "0.0-118.0", "trial": 4, "time_elapsed": 1335407, "serialpos": 6, "key_press": -1, "wordID": 298, "type": "PRES_AUD", "trial_index": 163}, "uniqueid": "MTK2105:3BXQMRHWK05HZ44ZWA0MJZFPP1RUMY", "dateTime": 1516735321071}, {"current_trial": 164, "trialdata": {"rt": -1000, "trial_type": "single-audio", "word": "film", "stimulus": "/static/audio/wordpool/FILM.wav", "conditions": [12, 800, "a", 24000], "internal_node_id": "0.0-119.0", "trial": 4, "time_elapsed": 1337069, "serialpos": 7, "key_press": -1, "wordID": 564, "type": "PRES_AUD", "trial_index": 164}, "uniqueid": "MTK2105:3BXQMRHWK05HZ44ZWA0MJZFPP1RUMY", "dateTime": 1516735322733}, {"current_trial": 165, "trialdata": {"rt": -1000, "trial_type": "single-audio", "word": "critic", "stimulus": "/static/audio/wordpool/CRITIC.wav", "conditions": [12, 800, "a", 24000], "internal_node_id": "0.0-120.0", "trial": 4, "time_elapsed": 1338811, "serialpos": 8, "key_press": -1, "wordID": 409, "type": "PRES_AUD", "trial_index": 165}, "uniqueid": "MTK2105:3BXQMRHWK05HZ44ZWA0MJZFPP1RUMY", "dateTime": 1516735324475}, {"current_trial": 166, "trialdata": {"rt": -1000, "trial_type": "single-audio", "word": "pimple", "stimulus": "/static/audio/wordpool/PIMPLE.wav", "conditions": [12, 800, "a", 24000], "internal_node_id": "0.0-121.0", "trial": 4, "time_elapsed": 1340772, "serialpos": 9, "key_press": -1, "wordID": 1070, "type": "PRES_AUD", "trial_index": 166}, "uniqueid": "MTK2105:3BXQMRHWK05HZ44ZWA0MJZFPP1RUMY", "dateTime": 1516735326438}, {"current_trial": 167, "trialdata": {"rt": -1000, "trial_type": "single-audio", "word": "freckle", "stimulus": "/static/audio/wordpool/FRECKLE.wav", "conditions": [12, 800, "a", 24000], "internal_node_id": "0.0-122.0", "trial": 4, "time_elapsed": 1342755, "serialpos": 10, "key_press": -1, "wordID": 601, "type": "PRES_AUD", "trial_index": 167}, "uniqueid": "MTK2105:3BXQMRHWK05HZ44ZWA0MJZFPP1RUMY", "dateTime": 1516735328419}, {"current_trial": 168, "trialdata": {"rt": -1000, "trial_type": "single-audio", "word": "zipper", "stimulus": "/static/audio/wordpool/ZIPPER.wav", "conditions": [12, 800, "a", 24000], "internal_node_id": "0.0-123.0", "trial": 4, "time_elapsed": 1344442, "serialpos": 11, "key_press": -1, "wordID": 1635, "type": "PRES_AUD", "trial_index": 168}, "uniqueid": "MTK2105:3BXQMRHWK05HZ44ZWA0MJZFPP1RUMY", "dateTime": 1516735330106}, {"current_trial": 169, "trialdata": {"rt": -1, "trial_type": "single-stim", "stimulus": "", "internal_node_id": "0.0-124.0-0.0", "time_elapsed": 1345754, "key_press": -1, "type": "PRE_RECALL_DELAY", "trial_index": 169}, "uniqueid": "MTK2105:3BXQMRHWK05HZ44ZWA0MJZFPP1RUMY", "dateTime": 1516735331418}, {"current_trial": 170, "trialdata": {"rt": -1000, "trial_type": "single-audio", "stimulus": "/static/audio/400Hz.wav", "internal_node_id": "0.0-125.0", "time_elapsed": 1346256, "key_press": -1, "type": "PRE_RECALL_ALERT", "trial_index": 170}, "uniqueid": "MTK2105:3BXQMRHWK05HZ44ZWA0MJZFPP1RUMY", "dateTime": 1516735331920}, {"current_trial": 171, "trialdata": {"rt": [2369, 4487, 6287, 9192, 13624, 19447, 20783], "recwords": ["zipper", "film", "critic", "child", "bucket", "blade", "rod"], "key_times": [834, 959, 1232, 1415, 1535, 1615, 2369, 3055, 3183, 3847, 4031, 4487, 4839, 5071, 5136, 5336, 5448, 6023, 6287, 6759, 6895, 6959, 7280, 7432, 9192, 10360, 10528, 11057, 11799, 11983, 12122, 13624, 14617, 14855, 15328, 17520, 17735, 17855, 18416, 18585, 18687, 18863, 19167, 19447, 19719, 19831, 20120, 20783, 26145, 26896], "trial_type": "free-recall", "conditions": [12, 800, "a", 24000], "internal_node_id": "0.0-126.0-0.0", "key_presses": [90, 73, 80, 80, 69, 82, 13, 70, 73, 76, 77, 13, 67, 82, 73, 84, 73, 67, 13, 67, 72, 73, 76, 68, 32, 66, 85, 67, 75, 69, 84, 13, 82, 79, 68, 8, 8, 8, 66, 76, 65, 68, 69, 13, 82, 79, 68, 13, 67, 8], "trial": 4, "time_elapsed": 1406260, "type": "FREE_RECALL", "trial_index": 171}, "uniqueid": "MTK2105:3BXQMRHWK05HZ44ZWA0MJZFPP1RUMY", "dateTime": 1516735391928}, {"current_trial": 172, "trialdata": {"rt": 888, "trial_type": "text", "internal_node_id": "0.0-127.0", "time_elapsed": 1409154, "key_press": 32, "type": "INSTRUCTIONS", "trial_index": 172}, "uniqueid": "MTK2105:3BXQMRHWK05HZ44ZWA0MJZFPP1RUMY", "dateTime": 1516735394818}, {"current_trial": 173, "trialdata": {"rt": [2272, 3870, 5869, 8878, 10759, 12222, 13630, 15518, 17502, 19078, 20990, 22534], "trial_type": "math-distractor", "key_times": [1558, 1830, 2272, 3382, 3623, 3870, 5478, 5686, 5869, 8638, 8878, 10334, 10558, 10759, 11758, 11983, 12222, 13288, 13334, 13630, 15046, 15302, 15518, 17166, 17262, 17502, 18566, 18815, 19078, 20534, 20774, 20990, 22014, 22294, 22534], "responses": ["19", "17", "14", "8", "22", "17", "12", "17", "12", "17", "14", "17"], "num2": [5, 9, 4, 1, 9, 9, 8, 6, 7, 7, 4, 9, 4], "num3": [5, 1, 6, 4, 9, 1, 2, 8, 3, 7, 5, 1, 7], "conditions": [12, 800, "a", 24000], "internal_node_id": "0.0-128.0", "key_presses": [97, 105, 13, 97, 103, 13, 97, 100, 13, 104, 13, 98, 98, 13, 97, 103, 13, 97, 98, 13, 97, 103, 13, 97, 98, 13, 97, 103, 13, 97, 100, 13, 97, 103, 13], "trial": 5, "time_elapsed": 1435156, "type": "DISTRACTOR", "trial_index": 173, "num1": [9, 7, 4, 3, 4, 7, 2, 3, 2, 3, 5, 7, 9]}, "uniqueid": "MTK2105:3BXQMRHWK05HZ44ZWA0MJZFPP1RUMY", "dateTime": 1516735420820}, {"current_trial": 174, "trialdata": {"rt": -1, "trial_type": "single-stim", "stimulus": "<p id=\"stim\">10</p>", "internal_node_id": "0.0-129.0-0.0", "time_elapsed": 1438157, "key_press": -1, "trial_index": 174}, "uniqueid": "MTK2105:3BXQMRHWK05HZ44ZWA0MJZFPP1RUMY", "dateTime": 1516735423821}, {"current_trial": 175, "trialdata": {"rt": -1, "trial_type": "single-stim", "stimulus": "<p id=\"stim\">9</p>", "internal_node_id": "0.0-129.0-1.0", "time_elapsed": 1439160, "key_press": -1, "trial_index": 175}, "uniqueid": "MTK2105:3BXQMRHWK05HZ44ZWA0MJZFPP1RUMY", "dateTime": 1516735424824}, {"current_trial": 176, "trialdata": {"rt": -1, "trial_type": "single-stim", "stimulus": "<p id=\"stim\">8</p>", "internal_node_id": "0.0-129.0-2.0", "time_elapsed": 1440161, "key_press": -1, "trial_index": 176}, "uniqueid": "MTK2105:3BXQMRHWK05HZ44ZWA0MJZFPP1RUMY", "dateTime": 1516735425825}, {"current_trial": 177, "trialdata": {"rt": -1, "trial_type": "single-stim", "stimulus": "<p id=\"stim\">7</p>", "internal_node_id": "0.0-129.0-3.0", "time_elapsed": 1441162, "key_press": -1, "trial_index": 177}, "uniqueid": "MTK2105:3BXQMRHWK05HZ44ZWA0MJZFPP1RUMY", "dateTime": 1516735426827}, {"current_trial": 178, "trialdata": {"rt": -1, "trial_type": "single-stim", "stimulus": "<p id=\"stim\">6</p>", "internal_node_id": "0.0-129.0-4.0", "time_elapsed": 1442164, "key_press": -1, "trial_index": 178}, "uniqueid": "MTK2105:3BXQMRHWK05HZ44ZWA0MJZFPP1RUMY", "dateTime": 1516735427828}, {"current_trial": 179, "trialdata": {"rt": -1, "trial_type": "single-stim", "stimulus": "<p id=\"stim\">5</p>", "internal_node_id": "0.0-129.0-5.0", "time_elapsed": 1443165, "key_press": -1, "trial_index": 179}, "uniqueid": "MTK2105:3BXQMRHWK05HZ44ZWA0MJZFPP1RUMY", "dateTime": 1516735428829}, {"current_trial": 180, "trialdata": {"rt": -1, "trial_type": "single-stim", "stimulus": "<p id=\"stim\">4</p>", "internal_node_id": "0.0-129.0-6.0", "time_elapsed": 1444166, "key_press": -1, "trial_index": 180}, "uniqueid": "MTK2105:3BXQMRHWK05HZ44ZWA0MJZFPP1RUMY", "dateTime": 1516735429831}, {"current_trial": 181, "trialdata": {"rt": -1, "trial_type": "single-stim", "stimulus": "<p id=\"stim\">3</p>", "internal_node_id": "0.0-129.0-7.0", "time_elapsed": 1445169, "key_press": -1, "trial_index": 181}, "uniqueid": "MTK2105:3BXQMRHWK05HZ44ZWA0MJZFPP1RUMY", "dateTime": 1516735430833}, {"current_trial": 182, "trialdata": {"rt": -1, "trial_type": "single-stim", "stimulus": "<p id=\"stim\">2</p>", "internal_node_id": "0.0-129.0-8.0", "time_elapsed": 1446169, "key_press": -1, "trial_index": 182}, "uniqueid": "MTK2105:3BXQMRHWK05HZ44ZWA0MJZFPP1RUMY", "dateTime": 1516735431834}, {"current_trial": 183, "trialdata": {"rt": -1, "trial_type": "single-stim", "stimulus": "<p id=\"stim\">1</p>", "internal_node_id": "0.0-129.0-9.0", "time_elapsed": 1447172, "key_press": -1, "trial_index": 183}, "uniqueid": "MTK2105:3BXQMRHWK05HZ44ZWA0MJZFPP1RUMY", "dateTime": 1516735432836}, {"current_trial": 184, "trialdata": {"rt": -1, "trial_type": "single-stim", "stimulus": "<p id=\"stim\">+</p>", "internal_node_id": "0.0-130.0-0.0", "time_elapsed": 1448673, "key_press": -1, "type": "FIXATION", "trial_index": 184}, "uniqueid": "MTK2105:3BXQMRHWK05HZ44ZWA0MJZFPP1RUMY", "dateTime": 1516735434337}, {"current_trial": 185, "trialdata": {"rt": -1000, "trial_type": "single-audio", "word": "cupboard", "stimulus": "/static/audio/wordpool/CUPBOARD.wav", "conditions": [12, 800, "a", 24000], "internal_node_id": "0.0-131.0", "trial": 5, "time_elapsed": 1450664, "serialpos": 0, "key_press": -1, "wordID": 424, "type": "PRES_AUD", "trial_index": 185}, "uniqueid": "MTK2105:3BXQMRHWK05HZ44ZWA0MJZFPP1RUMY", "dateTime": 1516735436328}, {"current_trial": 186, "trialdata": {"rt": -1000, "trial_type": "single-audio", "word": "shark", "stimulus": "/static/audio/wordpool/SHARK.wav", "conditions": [12, 800, "a", 24000], "internal_node_id": "0.0-132.0", "trial": 5, "time_elapsed": 1452290, "serialpos": 1, "key_press": -1, "wordID": 1274, "type": "PRES_AUD", "trial_index": 186}, "uniqueid": "MTK2105:3BXQMRHWK05HZ44ZWA0MJZFPP1RUMY", "dateTime": 1516735437954}, {"current_trial": 187, "trialdata": {"rt": -1000, "trial_type": "single-audio", "word": "diver", "stimulus": "/static/audio/wordpool/DIVER.wav", "conditions": [12, 800, "a", 24000], "internal_node_id": "0.0-133.0", "trial": 5, "time_elapsed": 1454283, "serialpos": 2, "key_press": -1, "wordID": 475, "type": "PRES_AUD", "trial_index": 187}, "uniqueid": "MTK2105:3BXQMRHWK05HZ44ZWA0MJZFPP1RUMY", "dateTime": 1516735439947}, {"current_trial": 188, "trialdata": {"rt": -1000, "trial_type": "single-audio", "word": "world", "stimulus": "/static/audio/wordpool/WORLD.wav", "conditions": [12, 800, "a", 24000], "internal_node_id": "0.0-134.0", "trial": 5, "time_elapsed": 1455962, "serialpos": 3, "key_press": -1, "wordID": 1621, "type": "PRES_AUD", "trial_index": 188}, "uniqueid": "MTK2105:3BXQMRHWK05HZ44ZWA0MJZFPP1RUMY", "dateTime": 1516735441626}, {"current_trial": 189, "trialdata": {"rt": -1000, "trial_type": "single-audio", "word": "country", "stimulus": "/static/audio/wordpool/COUNTRY.wav", "conditions": [12, 800, "a", 24000], "internal_node_id": "0.0-135.0", "trial": 5, "time_elapsed": 1457928, "serialpos": 4, "key_press": -1, "wordID": 387, "type": "PRES_AUD", "trial_index": 189}, "uniqueid": "MTK2105:3BXQMRHWK05HZ44ZWA0MJZFPP1RUMY", "dateTime": 1516735443593}, {"current_trial": 190, "trialdata": {"rt": -1000, "trial_type": "single-audio", "word": "football", "stimulus": "/static/audio/wordpool/FOOTBALL.wav", "conditions": [12, 800, "a", 24000], "internal_node_id": "0.0-136.0", "trial": 5, "time_elapsed": 1459710, "serialpos": 5, "key_press": -1, "wordID": 590, "type": "PRES_AUD", "trial_index": 190}, "uniqueid": "MTK2105:3BXQMRHWK05HZ44ZWA0MJZFPP1RUMY", "dateTime": 1516735445375}, {"current_trial": 191, "trialdata": {"rt": -1000, "trial_type": "single-audio", "word": "tortoise", "stimulus": "/static/audio/wordpool/TORTOISE.wav", "conditions": [12, 800, "a", 24000], "internal_node_id": "0.0-137.0", "trial": 5, "time_elapsed": 1461522, "serialpos": 6, "key_press": -1, "wordID": 1485, "type": "PRES_AUD", "trial_index": 191}, "uniqueid": "MTK2105:3BXQMRHWK05HZ44ZWA0MJZFPP1RUMY", "dateTime": 1516735447187}, {"current_trial": 192, "trialdata": {"rt": -1000, "trial_type": "single-audio", "word": "portrait", "stimulus": "/static/audio/wordpool/PORTRAIT.wav", "conditions": [12, 800, "a", 24000], "internal_node_id": "0.0-138.0", "trial": 5, "time_elapsed": 1463502, "serialpos": 7, "key_press": -1, "wordID": 1110, "type": "PRES_AUD", "trial_index": 192}, "uniqueid": "MTK2105:3BXQMRHWK05HZ44ZWA0MJZFPP1RUMY", "dateTime": 1516735449166}, {"current_trial": 193, "trialdata": {"rt": -1000, "trial_type": "single-audio", "word": "gravel", "stimulus": "/static/audio/wordpool/GRAVEL.wav", "conditions": [12, 800, "a", 24000], "internal_node_id": "0.0-139.0", "trial": 5, "time_elapsed": 1465456, "serialpos": 8, "key_press": -1, "wordID": 658, "type": "PRES_AUD", "trial_index": 193}, "uniqueid": "MTK2105:3BXQMRHWK05HZ44ZWA0MJZFPP1RUMY", "dateTime": 1516735451120}, {"current_trial": 194, "trialdata": {"rt": -1000, "trial_type": "single-audio", "word": "hostess", "stimulus": "/static/audio/wordpool/HOSTESS.wav", "conditions": [12, 800, "a", 24000], "internal_node_id": "0.0-140.0", "trial": 5, "time_elapsed": 1467278, "serialpos": 9, "key_press": -1, "wordID": 722, "type": "PRES_AUD", "trial_index": 194}, "uniqueid": "MTK2105:3BXQMRHWK05HZ44ZWA0MJZFPP1RUMY", "dateTime": 1516735452942}, {"current_trial": 195, "trialdata": {"rt": -1000, "trial_type": "single-audio", "word": "snail", "stimulus": "/static/audio/wordpool/SNAIL.wav", "conditions": [12, 800, "a", 24000], "internal_node_id": "0.0-141.0", "trial": 5, "time_elapsed": 1468927, "serialpos": 10, "key_press": -1, "wordID": 1331, "type": "PRES_AUD", "trial_index": 195}, "uniqueid": "MTK2105:3BXQMRHWK05HZ44ZWA0MJZFPP1RUMY", "dateTime": 1516735454592}, {"current_trial": 196, "trialdata": {"rt": -1000, "trial_type": "single-audio", "word": "frame", "stimulus": "/static/audio/wordpool/FRAME.wav", "conditions": [12, 800, "a", 24000], "internal_node_id": "0.0-142.0", "trial": 5, "time_elapsed": 1470859, "serialpos": 11, "key_press": -1, "wordID": 599, "type": "PRES_AUD", "trial_index": 196}, "uniqueid": "MTK2105:3BXQMRHWK05HZ44ZWA0MJZFPP1RUMY", "dateTime": 1516735456523}, {"current_trial": 197, "trialdata": {"rt": -1, "trial_type": "single-stim", "stimulus": "", "internal_node_id": "0.0-143.0-0.0", "time_elapsed": 1472159, "key_press": -1, "type": "PRE_RECALL_DELAY", "trial_index": 197}, "uniqueid": "MTK2105:3BXQMRHWK05HZ44ZWA0MJZFPP1RUMY", "dateTime": 1516735457823}, {"current_trial": 198, "trialdata": {"rt": -1000, "trial_type": "single-audio", "stimulus": "/static/audio/400Hz.wav", "internal_node_id": "0.0-144.0", "time_elapsed": 1472661, "key_press": -1, "type": "PRE_RECALL_ALERT", "trial_index": 198}, "uniqueid": "MTK2105:3BXQMRHWK05HZ44ZWA0MJZFPP1RUMY", "dateTime": 1516735458325}, {"current_trial": 199, "trialdata": {"rt": [2163, 3779, 5676, 7395, 14564, 16780, 18515, 23075, 26012, 27428, 47084], "recwords": ["hostess", "snail", "frame", "gravel", "shark", "diver", "knife", "football", "country", "world", "salad"], "key_times": [423, 523, 668, 803, 1212, 1435, 1620, 2163, 2771, 2947, 3083, 3228, 3524, 3779, 4205, 4388, 4572, 4724, 5403, 5676, 5979, 6187, 6363, 6579, 6790, 6915, 7395, 13341, 13443, 13603, 13691, 14035, 14564, 14891, 15067, 15339, 15579, 15699, 16780, 17404, 17556, 17759, 17899, 18051, 18515, 21532, 21659, 21836, 21980, 22291, 22491, 22587, 22763, 23075, 24597, 24694, 24787, 25019, 25235, 25532, 25612, 26012, 26189, 26332, 26485, 26820, 27013, 27428, 46124, 46267, 46541, 46683, 46804, 47084], "trial_type": "free-recall", "conditions": [12, 800, "a", 24000], "internal_node_id": "0.0-145.0-0.0", "key_presses": [72, 79, 83, 84, 69, 83, 83, 13, 83, 78, 65, 73, 76, 32, 70, 82, 65, 77, 69, 13, 71, 82, 65, 86, 69, 76, 13, 83, 72, 65, 82, 75, 13, 68, 73, 86, 69, 82, 13, 75, 78, 73, 70, 69, 13, 70, 79, 79, 84, 66, 65, 76, 76, 13, 67, 79, 85, 78, 84, 82, 89, 13, 87, 79, 82, 76, 68, 13, 83, 65, 76, 65, 68, 13], "trial": 5, "time_elapsed": 1532665, "type": "FREE_RECALL", "trial_index": 199}, "uniqueid": "MTK2105:3BXQMRHWK05HZ44ZWA0MJZFPP1RUMY", "dateTime": 1516735518333}, {"current_trial": 200, "trialdata": {"rt": 1036, "trial_type": "text", "internal_node_id": "0.0-146.0", "time_elapsed": 1535707, "key_press": 32, "type": "INSTRUCTIONS", "trial_index": 200}, "uniqueid": "MTK2105:3BXQMRHWK05HZ44ZWA0MJZFPP1RUMY", "dateTime": 1516735521371}, {"current_trial": 201, "trialdata": {"rt": [3038, 4711, 7200, 9462, 12054, 15102, 16454, 18238, 19815, 21733, 23349], "trial_type": "math-distractor", "key_times": [1150, 1974, 2694, 3038, 4262, 4454, 4711, 6782, 6918, 7200, 9032, 9182, 9462, 11590, 11806, 12054, 14574, 14862, 15102, 16070, 16182, 16454, 17854, 17981, 18238, 19383, 19590, 19815, 20949, 21389, 21733, 22957, 23117, 23349], "responses": ["7", "19", "20", "20", "18", "13", "15", "15", "14", "19", "11"], "num2": [2, 5, 8, 9, 6, 7, 9, 4, 4, 7, 7, 7], "num3": [1, 7, 5, 8, 4, 5, 1, 2, 9, 3, 3, 5], "conditions": [24, 1600, "a", 24000], "internal_node_id": "0.0-147.0", "key_presses": [97, 8, 103, 13, 97, 105, 13, 98, 96, 13, 98, 96, 13, 97, 104, 13, 97, 99, 13, 97, 101, 13, 97, 101, 13, 97, 100, 13, 97, 105, 13, 97, 97, 13], "trial": 6, "time_elapsed": 1561708, "type": "DISTRACTOR", "trial_index": 201, "num1": [4, 7, 7, 3, 8, 1, 5, 9, 1, 9, 1, 6]}, "uniqueid": "MTK2105:3BXQMRHWK05HZ44ZWA0MJZFPP1RUMY", "dateTime": 1516735547373}, {"current_trial": 202, "trialdata": {"rt": -1, "trial_type": "single-stim", "stimulus": "<p id=\"stim\">10</p>", "internal_node_id": "0.0-148.0-0.0", "time_elapsed": 1564712, "key_press": -1, "trial_index": 202}, "uniqueid": "MTK2105:3BXQMRHWK05HZ44ZWA0MJZFPP1RUMY", "dateTime": 1516735550376}, {"current_trial": 203, "trialdata": {"rt": -1, "trial_type": "single-stim", "stimulus": "<p id=\"stim\">9</p>", "internal_node_id": "0.0-148.0-1.0", "time_elapsed": 1565712, "key_press": -1, "trial_index": 203}, "uniqueid": "MTK2105:3BXQMRHWK05HZ44ZWA0MJZFPP1RUMY", "dateTime": 1516735551376}, {"current_trial": 204, "trialdata": {"rt": -1, "trial_type": "single-stim", "stimulus": "<p id=\"stim\">8</p>", "internal_node_id": "0.0-148.0-2.0", "time_elapsed": 1566713, "key_press": -1, "trial_index": 204}, "uniqueid": "MTK2105:3BXQMRHWK05HZ44ZWA0MJZFPP1RUMY", "dateTime": 1516735552378}, {"current_trial": 205, "trialdata": {"rt": -1, "trial_type": "single-stim", "stimulus": "<p id=\"stim\">7</p>", "internal_node_id": "0.0-148.0-3.0", "time_elapsed": 1567715, "key_press": -1, "trial_index": 205}, "uniqueid": "MTK2105:3BXQMRHWK05HZ44ZWA0MJZFPP1RUMY", "dateTime": 1516735553379}, {"current_trial": 206, "trialdata": {"rt": -1, "trial_type": "single-stim", "stimulus": "<p id=\"stim\">6</p>", "internal_node_id": "0.0-148.0-4.0", "time_elapsed": 1568715, "key_press": -1, "trial_index": 206}, "uniqueid": "MTK2105:3BXQMRHWK05HZ44ZWA0MJZFPP1RUMY", "dateTime": 1516735554380}, {"current_trial": 207, "trialdata": {"rt": -1, "trial_type": "single-stim", "stimulus": "<p id=\"stim\">5</p>", "internal_node_id": "0.0-148.0-5.0", "time_elapsed": 1569716, "key_press": -1, "trial_index": 207}, "uniqueid": "MTK2105:3BXQMRHWK05HZ44ZWA0MJZFPP1RUMY", "dateTime": 1516735555380}, {"current_trial": 208, "trialdata": {"rt": -1, "trial_type": "single-stim", "stimulus": "<p id=\"stim\">4</p>", "internal_node_id": "0.0-148.0-6.0", "time_elapsed": 1570718, "key_press": -1, "trial_index": 208}, "uniqueid": "MTK2105:3BXQMRHWK05HZ44ZWA0MJZFPP1RUMY", "dateTime": 1516735556382}, {"current_trial": 209, "trialdata": {"rt": -1, "trial_type": "single-stim", "stimulus": "<p id=\"stim\">3</p>", "internal_node_id": "0.0-148.0-7.0", "time_elapsed": 1571719, "key_press": -1, "trial_index": 209}, "uniqueid": "MTK2105:3BXQMRHWK05HZ44ZWA0MJZFPP1RUMY", "dateTime": 1516735557383}, {"current_trial": 210, "trialdata": {"rt": -1, "trial_type": "single-stim", "stimulus": "<p id=\"stim\">2</p>", "internal_node_id": "0.0-148.0-8.0", "time_elapsed": 1572720, "key_press": -1, "trial_index": 210}, "uniqueid": "MTK2105:3BXQMRHWK05HZ44ZWA0MJZFPP1RUMY", "dateTime": 1516735558384}, {"current_trial": 211, "trialdata": {"rt": -1, "trial_type": "single-stim", "stimulus": "<p id=\"stim\">1</p>", "internal_node_id": "0.0-148.0-9.0", "time_elapsed": 1573722, "key_press": -1, "trial_index": 211}, "uniqueid": "MTK2105:3BXQMRHWK05HZ44ZWA0MJZFPP1RUMY", "dateTime": 1516735559387}, {"current_trial": 212, "trialdata": {"rt": -1, "trial_type": "single-stim", "stimulus": "<p id=\"stim\">+</p>", "internal_node_id": "0.0-149.0-0.0", "time_elapsed": 1575224, "key_press": -1, "type": "FIXATION", "trial_index": 212}, "uniqueid": "MTK2105:3BXQMRHWK05HZ44ZWA0MJZFPP1RUMY", "dateTime": 1516735560888}, {"current_trial": 213, "trialdata": {"rt": -1000, "trial_type": "single-audio", "word": "silk", "stimulus": "/static/audio/wordpool/SILK.wav", "conditions": [24, 1600, "a", 24000], "internal_node_id": "0.0-150.0", "trial": 6, "time_elapsed": 1577647, "serialpos": 0, "key_press": -1, "wordID": 1306, "type": "PRES_AUD", "trial_index": 213}, "uniqueid": "MTK2105:3BXQMRHWK05HZ44ZWA0MJZFPP1RUMY", "dateTime": 1516735563311}, {"current_trial": 214, "trialdata": {"rt": -1000, "trial_type": "single-audio", "word": "turnip", "stimulus": "/static/audio/wordpool/TURNIP.wav", "conditions": [24, 1600, "a", 24000], "internal_node_id": "0.0-151.0", "trial": 6, "time_elapsed": 1580176, "serialpos": 1, "key_press": -1, "wordID": 1520, "type": "PRES_AUD", "trial_index": 214}, "uniqueid": "MTK2105:3BXQMRHWK05HZ44ZWA0MJZFPP1RUMY", "dateTime": 1516735565840}, {"current_trial": 215, "trialdata": {"rt": -1000, "trial_type": "single-audio", "word": "beaker", "stimulus": "/static/audio/wordpool/BEAKER.wav", "conditions": [24, 1600, "a", 24000], "internal_node_id": "0.0-152.0", "trial": 6, "time_elapsed": 1582860, "serialpos": 2, "key_press": -1, "wordID": 103, "type": "PRES_AUD", "trial_index": 215}, "uniqueid": "MTK2105:3BXQMRHWK05HZ44ZWA0MJZFPP1RUMY", "dateTime": 1516735568524}, {"current_trial": 216, "trialdata": {"rt": -1000, "trial_type": "single-audio", "word": "snack", "stimulus": "/static/audio/wordpool/SNACK.wav", "conditions": [24, 1600, "a", 24000], "internal_node_id": "0.0-153.0", "trial": 6, "time_elapsed": 1585384, "serialpos": 3, "key_press": -1, "wordID": 1330, "type": "PRES_AUD", "trial_index": 216}, "uniqueid": "MTK2105:3BXQMRHWK05HZ44ZWA0MJZFPP1RUMY", "dateTime": 1516735571048}, {"current_trial": 217, "trialdata": {"rt": -1000, "trial_type": "single-audio", "word": "pizza", "stimulus": "/static/audio/wordpool/PIZZA.wav", "conditions": [24, 1600, "a", 24000], "internal_node_id": "0.0-154.0", "trial": 6, "time_elapsed": 1587796, "serialpos": 4, "key_press": -1, "wordID": 1078, "type": "PRES_AUD", "trial_index": 217}, "uniqueid": "MTK2105:3BXQMRHWK05HZ44ZWA0MJZFPP1RUMY", "dateTime": 1516735573460}, {"current_trial": 218, "trialdata": {"rt": -1000, "trial_type": "single-audio", "word": "canal", "stimulus": "/static/audio/wordpool/CANAL.wav", "conditions": [24, 1600, "a", 24000], "internal_node_id": "0.0-155.0", "trial": 6, "time_elapsed": 1590232, "serialpos": 5, "key_press": -1, "wordID": 225, "type": "PRES_AUD", "trial_index": 218}, "uniqueid": "MTK2105:3BXQMRHWK05HZ44ZWA0MJZFPP1RUMY", "dateTime": 1516735575896}, {"current_trial": 219, "trialdata": {"rt": -1000, "trial_type": "single-audio", "word": "crab", "stimulus": "/static/audio/wordpool/CRAB.wav", "conditions": [24, 1600, "a", 24000], "internal_node_id": "0.0-156.0", "trial": 6, "time_elapsed": 1592813, "serialpos": 6, "key_press": -1, "wordID": 396, "type": "PRES_AUD", "trial_index": 219}, "uniqueid": "MTK2105:3BXQMRHWK05HZ44ZWA0MJZFPP1RUMY", "dateTime": 1516735578477}, {"current_trial": 220, "trialdata": {"rt": -1000, "trial_type": "single-audio", "word": "jello", "stimulus": "/static/audio/wordpool/JELLO.wav", "conditions": [24, 1600, "a", 24000], "internal_node_id": "0.0-157.0", "trial": 6, "time_elapsed": 1595258, "serialpos": 7, "key_press": -1, "wordID": 753, "type": "PRES_AUD", "trial_index": 220}, "uniqueid": "MTK2105:3BXQMRHWK05HZ44ZWA0MJZFPP1RUMY", "dateTime": 1516735580922}, {"current_trial": 221, "trialdata": {"rt": -1000, "trial_type": "single-audio", "word": "cellar", "stimulus": "/static/audio/wordpool/CELLAR.wav", "conditions": [24, 1600, "a", 24000], "internal_node_id": "0.0-158.0", "trial": 6, "time_elapsed": 1597907, "serialpos": 8, "key_press": -1, "wordID": 266, "type": "PRES_AUD", "trial_index": 221}, "uniqueid": "MTK2105:3BXQMRHWK05HZ44ZWA0MJZFPP1RUMY", "dateTime": 1516735583571}, {"current_trial": 222, "trialdata": {"rt": -1000, "trial_type": "single-audio", "word": "body", "stimulus": "/static/audio/wordpool/BODY.wav", "conditions": [24, 1600, "a", 24000], "internal_node_id": "0.0-159.0", "trial": 6, "time_elapsed": 1600463, "serialpos": 9, "key_press": -1, "wordID": 144, "type": "PRES_AUD", "trial_index": 222}, "uniqueid": "MTK2105:3BXQMRHWK05HZ44ZWA0MJZFPP1RUMY", "dateTime": 1516735586127}, {"current_trial": 223, "trialdata": {"rt": -1000, "trial_type": "single-audio", "word": "flask", "stimulus": "/static/audio/wordpool/FLASK.wav", "conditions": [24, 1600, "a", 24000], "internal_node_id": "0.0-160.0", "trial": 6, "time_elapsed": 1603152, "serialpos": 10, "key_press": -1, "wordID": 575, "type": "PRES_AUD", "trial_index": 223}, "uniqueid": "MTK2105:3BXQMRHWK05HZ44ZWA0MJZFPP1RUMY", "dateTime": 1516735588817}, {"current_trial": 224, "trialdata": {"rt": -1000, "trial_type": "single-audio", "word": "marine", "stimulus": "/static/audio/wordpool/MARINE.wav", "conditions": [24, 1600, "a", 24000], "internal_node_id": "0.0-161.0", "trial": 6, "time_elapsed": 1605896, "serialpos": 11, "key_press": -1, "wordID": 868, "type": "PRES_AUD", "trial_index": 224}, "uniqueid": "MTK2105:3BXQMRHWK05HZ44ZWA0MJZFPP1RUMY", "dateTime": 1516735591560}, {"current_trial": 225, "trialdata": {"rt": -1000, "trial_type": "single-audio", "word": "costume", "stimulus": "/static/audio/wordpool/COSTUME.wav", "conditions": [24, 1600, "a", 24000], "internal_node_id": "0.0-162.0", "trial": 6, "time_elapsed": 1608417, "serialpos": 12, "key_press": -1, "wordID": 382, "type": "PRES_AUD", "trial_index": 225}, "uniqueid": "MTK2105:3BXQMRHWK05HZ44ZWA0MJZFPP1RUMY", "dateTime": 1516735594081}, {"current_trial": 226, "trialdata": {"rt": -1000, "trial_type": "single-audio", "word": "scarecrow", "stimulus": "/static/audio/wordpool/SCARECROW.wav", "conditions": [24, 1600, "a", 24000], "internal_node_id": "0.0-163.0", "trial": 6, "time_elapsed": 1610835, "serialpos": 13, "key_press": -1, "wordID": 1244, "type": "PRES_AUD", "trial_index": 226}, "uniqueid": "MTK2105:3BXQMRHWK05HZ44ZWA0MJZFPP1RUMY", "dateTime": 1516735596499}, {"current_trial": 227, "trialdata": {"rt": -1000, "trial_type": "single-audio", "word": "shelter", "stimulus": "/static/audio/wordpool/SHELTER.wav", "conditions": [24, 1600, "a", 24000], "internal_node_id": "0.0-164.0", "trial": 6, "time_elapsed": 1613617, "serialpos": 14, "key_press": -1, "wordID": 1281, "type": "PRES_AUD", "trial_index": 227}, "uniqueid": "MTK2105:3BXQMRHWK05HZ44ZWA0MJZFPP1RUMY", "dateTime": 1516735599281}, {"current_trial": 228, "trialdata": {"rt": -1000, "trial_type": "single-audio", "word": "daisy", "stimulus": "/static/audio/wordpool/DAISY.wav", "conditions": [24, 1600, "a", 24000], "internal_node_id": "0.0-165.0", "trial": 6, "time_elapsed": 1616229, "serialpos": 15, "key_press": -1, "wordID": 434, "type": "PRES_AUD", "trial_index": 228}, "uniqueid": "MTK2105:3BXQMRHWK05HZ44ZWA0MJZFPP1RUMY", "dateTime": 1516735601893}, {"current_trial": 229, "trialdata": {"rt": -1000, "trial_type": "single-audio", "word": "tweezers", "stimulus": "/static/audio/wordpool/TWEEZERS.wav", "conditions": [24, 1600, "a", 24000], "internal_node_id": "0.0-166.0", "trial": 6, "time_elapsed": 1618693, "serialpos": 16, "key_press": -1, "wordID": 1525, "type": "PRES_AUD", "trial_index": 229}, "uniqueid": "MTK2105:3BXQMRHWK05HZ44ZWA0MJZFPP1RUMY", "dateTime": 1516735604357}, {"current_trial": 230, "trialdata": {"rt": -1000, "trial_type": "single-audio", "word": "sibling", "stimulus": "/static/audio/wordpool/SIBLING.wav", "conditions": [24, 1600, "a", 24000], "internal_node_id": "0.0-167.0", "trial": 6, "time_elapsed": 1621255, "serialpos": 17, "key_press": -1, "wordID": 1300, "type": "PRES_AUD", "trial_index": 230}, "uniqueid": "MTK2105:3BXQMRHWK05HZ44ZWA0MJZFPP1RUMY", "dateTime": 1516735606919}, {"current_trial": 231, "trialdata": {"rt": -1000, "trial_type": "single-audio", "word": "mammal", "stimulus": "/static/audio/wordpool/MAMMAL.wav", "conditions": [24, 1600, "a", 24000], "internal_node_id": "0.0-168.0", "trial": 6, "time_elapsed": 1624024, "serialpos": 18, "key_press": -1, "wordID": 860, "type": "PRES_AUD", "trial_index": 231}, "uniqueid": "MTK2105:3BXQMRHWK05HZ44ZWA0MJZFPP1RUMY", "dateTime": 1516735609688}, {"current_trial": 232, "trialdata": {"rt": -1000, "trial_type": "single-audio", "word": "server", "stimulus": "/static/audio/wordpool/SERVER.wav", "conditions": [24, 1600, "a", 24000], "internal_node_id": "0.0-169.0", "trial": 6, "time_elapsed": 1626463, "serialpos": 19, "key_press": -1, "wordID": 1271, "type": "PRES_AUD", "trial_index": 232}, "uniqueid": "MTK2105:3BXQMRHWK05HZ44ZWA0MJZFPP1RUMY", "dateTime": 1516735612127}, {"current_trial": 233, "trialdata": {"rt": -1000, "trial_type": "single-audio", "word": "expert", "stimulus": "/static/audio/wordpool/EXPERT.wav", "conditions": [24, 1600, "a", 24000], "internal_node_id": "0.0-170.0", "trial": 6, "time_elapsed": 1628903, "serialpos": 20, "key_press": -1, "wordID": 542, "type": "PRES_AUD", "trial_index": 233}, "uniqueid": "MTK2105:3BXQMRHWK05HZ44ZWA0MJZFPP1RUMY", "dateTime": 1516735614568}, {"current_trial": 234, "trialdata": {"rt": -1000, "trial_type": "single-audio", "word": "banquet", "stimulus": "/static/audio/wordpool/BANQUET.wav", "conditions": [24, 1600, "a", 24000], "internal_node_id": "0.0-171.0", "trial": 6, "time_elapsed": 1631581, "serialpos": 21, "key_press": -1, "wordID": 85, "type": "PRES_AUD", "trial_index": 234}, "uniqueid": "MTK2105:3BXQMRHWK05HZ44ZWA0MJZFPP1RUMY", "dateTime": 1516735617246}, {"current_trial": 235, "trialdata": {"rt": -1000, "trial_type": "single-audio", "word": "lily", "stimulus": "/static/audio/wordpool/LILY.wav", "conditions": [24, 1600, "a", 24000], "internal_node_id": "0.0-172.0", "trial": 6, "time_elapsed": 1634276, "serialpos": 22, "key_press": -1, "wordID": 820, "type": "PRES_AUD", "trial_index": 235}, "uniqueid": "MTK2105:3BXQMRHWK05HZ44ZWA0MJZFPP1RUMY", "dateTime": 1516735619941}, {"current_trial": 236, "trialdata": {"rt": -1000, "trial_type": "single-audio", "word": "eyelash", "stimulus": "/static/audio/wordpool/EYELASH.wav", "conditions": [24, 1600, "a", 24000], "internal_node_id": "0.0-173.0", "trial": 6, "time_elapsed": 1636807, "serialpos": 23, "key_press": -1, "wordID": 545, "type": "PRES_AUD", "trial_index": 236}, "uniqueid": "MTK2105:3BXQMRHWK05HZ44ZWA0MJZFPP1RUMY", "dateTime": 1516735622471}, {"current_trial": 237, "trialdata": {"rt": -1, "trial_type": "single-stim", "stimulus": "", "internal_node_id": "0.0-174.0-0.0", "time_elapsed": 1638116, "key_press": -1, "type": "PRE_RECALL_DELAY", "trial_index": 237}, "uniqueid": "MTK2105:3BXQMRHWK05HZ44ZWA0MJZFPP1RUMY", "dateTime": 1516735623780}, {"current_trial": 238, "trialdata": {"rt": -1000, "trial_type": "single-audio", "stimulus": "/static/audio/400Hz.wav", "internal_node_id": "0.0-175.0", "time_elapsed": 1638617, "key_press": -1, "type": "PRE_RECALL_ALERT", "trial_index": 238}, "uniqueid": "MTK2105:3BXQMRHWK05HZ44ZWA0MJZFPP1RUMY", "dateTime": 1516735624281}, {"current_trial": 239, "trialdata": {"rt": [2510, 4030, 5718, 7190, 10166, 17422, 20766], "recwords": ["lily", "daisy", "eyelash", "server", "banquet", "snack", "sibling"], "key_times": [615, 816, 1310, 2062, 2510, 2798, 2934, 3054, 3408, 3574, 4030, 4359, 4470, 4598, 4822, 5014, 5310, 5423, 5718, 5958, 6126, 6286, 6631, 6855, 6991, 7190, 8350, 8526, 8663, 9096, 9182, 9542, 9822, 10166, 16424, 16542, 16718, 16951, 17062, 17422, 19439, 19503, 19735, 19943, 20135, 20239, 20559, 20766], "trial_type": "free-recall", "conditions": [24, 1600, "a", 24000], "internal_node_id": "0.0-176.0-0.0", "key_presses": [76, 73, 76, 89, 13, 68, 65, 73, 83, 89, 13, 69, 89, 69, 76, 65, 83, 72, 13, 83, 69, 82, 86, 69, 82, 13, 66, 65, 78, 81, 85, 69, 84, 13, 83, 78, 65, 67, 75, 13, 83, 73, 66, 76, 73, 78, 71, 13], "trial": 6, "time_elapsed": 1698621, "type": "FREE_RECALL", "trial_index": 239}, "uniqueid": "MTK2105:3BXQMRHWK05HZ44ZWA0MJZFPP1RUMY", "dateTime": 1516735684291}, {"current_trial": 240, "trialdata": {"rt": 1054, "trial_type": "text", "internal_node_id": "0.0-177.0", "time_elapsed": 1701681, "key_press": 32, "type": "INSTRUCTIONS", "trial_index": 240}, "uniqueid": "MTK2105:3BXQMRHWK05HZ44ZWA0MJZFPP1RUMY", "dateTime": 1516735687346}, {"current_trial": 241, "trialdata": {"rt": [8038, 9462, 10998, 12791, 14207, 16774, 18983, 20830, 23262], "trial_type": "math-distractor", "key_times": [6069, 6998, 7534, 7718, 8038, 9038, 9246, 