{"assignmentId": "3EFVCAY5L4GT0ZR1QAMP7F5JQTSJ8J", "workerId": "MTK2517", "questiondata": {"origin": "United States", "strat-rehearsal": "55", "marital": "Single", "education": "Bachelor's degree", "ethnicity": "Not Hispanic", "color_depth": 24, "distracted": "No", "wrote-notes": "Yes", "strat-other": "no", "screen_width": 1280, "avail_screen_width": 1280, "avail_screen_height": 680, "strat-image": "76", "language": "english", "gender": "Male", "age": "25", "gender_other": "", "race": ["American Indian/Alaskan Native"], "strat-categorize": "80", "pixel_depth": 24, "strat-spatial": "83", "strat-story": "60", "race_other": "", "screen_height": 720}, "bonus": 0, "hitId": "35U0MRQMUJE3P2GHOEK2I5ATG22OVE", "counterbalance": 1723, "useragent": "Mozilla/5.0 (Windows NT 6.1) AppleWebKit/537.36 (KHTML, like Gecko) Chrome/64.0.3282.140 Safari/537.36", "eventdata": [{"eventtype": "initialized", "interval": 0, "value": null, "timestamp": 1517989528573}, {"eventtype": "window_resize", "interval": 0, "value": [1280, 674], "timestamp": 1517989528573}, {"eventtype": "focus", "interval": 11323, "value": "off", "timestamp": 1517989539896}, {"eventtype": "focus", "interval": 28036, "value": "on", "timestamp": 1517989567932}, {"eventtype": "window_resize", "interval": 80266, "value": [1280, 630], "timestamp": 1517989648198}, {"eventtype": "window_resize", "interval": 2582, "value": [1280, 674], "timestamp": 1517989650780}, {"eventtype": "window_resize", "interval": 964, "value": [1280, 630], "timestamp": 1517989651744}, {"eventtype": "focus", "interval": 1637, "value": "off", "timestamp": 1517989653381}, {"eventtype": "focus", "interval": 3549, "value": "on", "timestamp": 1517989656930}, {"eventtype": "window_resize", "interval": 2256, "value": [1280, 720], "timestamp": 1517989659186}, {"eventtype": "focus", "interval": 1944561, "value": "off", "timestamp": 1517991603747}, {"eventtype": "focus", "interval": 43, "value": "on", "timestamp": 1517991603790}, {"eventtype": "window_resize", "interval": 244, "value": [1280, 720], "timestamp": 1517991604034}, {"eventtype": "window_resize", "interval": 149687, "value": [1280, 630], "timestamp": 1517991753721}, {"eventtype": "focus", "interval": 12711, "value": "off", "timestamp": 1517991766432}, {"eventtype": "focus", "interval": 17325, "value": "on", "timestamp": 1517991783757}, {"eventtype": "focus", "interval": 0, "value": "off", "timestamp": 1517991783757}, {"eventtype": "focus", "interval": 2, "value": "on", "timestamp": 1517991783759}], "data": [{"current_trial": 0, "trialdata": {"rt": 3797, "trial_type": "text", "internal_node_id": "0.0-0.0", "time_elapsed": 3801, "key_press": 32, "type": "INSTRUCTIONS", "trial_index": 0}, "uniqueid": "MTK2517:3EFVCAY5L4GT0ZR1QAMP7F5JQTSJ8J", "dateTime": 1517989569934}, {"current_trial": 1, "trialdata": {"rt": 4052, "trial_type": "text", "internal_node_id": "0.0-1.0", "time_elapsed": 7858, "key_press": 32, "type": "INSTRUCTIONS", "trial_index": 1}, "uniqueid": "MTK2517:3EFVCAY5L4GT0ZR1QAMP7F5JQTSJ8J", "dateTime": 1517989573990}, {"current_trial": 2, "trialdata": {"rt": [9776], "trial_type": "audio-test", "responses": ["ocean"], "internal_node_id": "0.0-2.0", "time_elapsed": 17666, "type": "AUDIO_TEST", "trial_index": 2}, "uniqueid": "MTK2517:3EFVCAY5L4GT0ZR1QAMP7F5JQTSJ8J", "dateTime": 1517989583798}, {"current_trial": 3, "trialdata": {"rt": [11398], "trial_type": "audio-test", "responses": ["crystal"], "internal_node_id": "0.0-3.0", "time_elapsed": 29075, "type": "AUDIO_TEST", "trial_index": 3}, "uniqueid": "MTK2517:3EFVCAY5L4GT0ZR1QAMP7F5JQTSJ8J", "dateTime": 1517989595207}, {"current_trial": 4, "trialdata": {"rt": [7335], "trial_type": "audio-test", "responses": ["spice"], "internal_node_id": "0.0-4.0", "time_elapsed": 36419, "type": "AUDIO_TEST", "trial_index": 4}, "uniqueid": "MTK2517:3EFVCAY5L4GT0ZR1QAMP7F5JQTSJ8J", "dateTime": 1517989602551}, {"current_trial": 5, "trialdata": {"rt": 29854, "trial_type": "survey-text", "responses": "{\"Q0\":\"11\",\"Q1\":\"6\",\"Q2\":\"4\"}", "internal_node_id": "0.0-5.0", "time_elapsed": 67026, "type": "SLEEP_SURVEY", "trial_index": 5}, "uniqueid": "MTK2517:3EFVCAY5L4GT0ZR1QAMP7F5JQTSJ8J", "dateTime": 1517989633160}, {"current_trial": 6, "trialdata": {"rt": 19159, "trial_type": "text", "internal_node_id": "0.0-6.0", "time_elapsed": 87188, "key_press": 123, "type": "INSTRUCTIONS", "trial_index": 6}, "uniqueid": "MTK2517:3EFVCAY5L4GT0ZR1QAMP7F5JQTSJ8J", "dateTime": 1517989653320}, {"current_trial": 7, "trialdata": {"rt": 5069, "trial_type": "text", "internal_node_id": "0.0-7.0", "time_elapsed": 92758, "key_press": 122, "type": "INSTRUCTIONS", "trial_index": 7}, "uniqueid": "MTK2517:3EFVCAY5L4GT0ZR1QAMP7F5JQTSJ8J", "dateTime": 1517989658890}, {"current_trial": 8, "trialdata": {"rt": 2498, "trial_type": "text", "internal_node_id": "0.0-8.0", "time_elapsed": 95757, "key_press": 32, "type": "INSTRUCTIONS", "trial_index": 8}, "uniqueid": "MTK2517:3EFVCAY5L4GT0ZR1QAMP7F5JQTSJ8J", "dateTime": 1517989661890}, {"current_trial": 9, "trialdata": {"rt": [5147, 11228, 16756], "trial_type": "math-distractor", "key_times": [3093, 3228, 5147, 7572, 7691, 9852, 10524, 11228, 15573, 16756], "responses": ["15", "11", "9"], "num2": [7, 6, 1, 6], "num3": [7, 2, 5, 3], "conditions": [18, 1200, "a", 18000], "internal_node_id": "0.0-9.0", "key_presses": [97, 101, 13, 97, 96, 8, 97, 13, 105, 13], "trial": 0, "time_elapsed": 114772, "type": "DISTRACTOR", "trial_index": 9, "num1": [1, 3, 3, 8]}, "uniqueid": "MTK2517:3EFVCAY5L4GT0ZR1QAMP7F5JQTSJ8J", "dateTime": 1517989680904}, {"current_trial": 10, "trialdata": {"rt": -1, "trial_type": "single-stim", "stimulus": "<p id=\"stim\">10</p>", "internal_node_id": "0.0-10.0-0.0", "time_elapsed": 117775, "key_press": -1, "trial_index": 10}, "uniqueid": "MTK2517:3EFVCAY5L4GT0ZR1QAMP7F5JQTSJ8J", "dateTime": 1517989683907}, {"current_trial": 11, "trialdata": {"rt": -1, "trial_type": "single-stim", "stimulus": "<p id=\"stim\">9</p>", "internal_node_id": "0.0-10.0-1.0", "time_elapsed": 118776, "key_press": -1, "trial_index": 11}, "uniqueid": "MTK2517:3EFVCAY5L4GT0ZR1QAMP7F5JQTSJ8J", "dateTime": 1517989684908}, {"current_trial": 12, "trialdata": {"rt": -1, "trial_type": "single-stim", "stimulus": "<p id=\"stim\">8</p>", "internal_node_id": "0.0-10.0-2.0", "time_elapsed": 119780, "key_press": -1, "trial_index": 12}, "uniqueid": "MTK2517:3EFVCAY5L4GT0ZR1QAMP7F5JQTSJ8J", "dateTime": 1517989685912}, {"current_trial": 13, "trialdata": {"rt": -1, "trial_type": "single-stim", "stimulus": "<p id=\"stim\">7</p>", "internal_node_id": "0.0-10.0-3.0", "time_elapsed": 120785, "key_press": -1, "trial_index": 13}, "uniqueid": "MTK2517:3EFVCAY5L4GT0ZR1QAMP7F5JQTSJ8J", "dateTime": 1517989686919}, {"current_trial": 14, "trialdata": {"rt": -1, "trial_type": "single-stim", "stimulus": "<p id=\"stim\">6</p>", "internal_node_id": "0.0-10.0-4.0", "time_elapsed": 121789, "key_press": -1, "trial_index": 14}, "uniqueid": "MTK2517:3EFVCAY5L4GT0ZR1QAMP7F5JQTSJ8J", "dateTime": 1517989687921}, {"current_trial": 15, "trialdata": {"rt": -1, "trial_type": "single-stim", "stimulus": "<p id=\"stim\">5</p>", "internal_node_id": "0.0-10.0-5.0", "time_elapsed": 122790, "key_press": -1, "trial_index": 15}, "uniqueid": "MTK2517:3EFVCAY5L4GT0ZR1QAMP7F5JQTSJ8J", "dateTime": 1517989688922}, {"current_trial": 16, "trialdata": {"rt": -1, "trial_type": "single-stim", "stimulus": "<p id=\"stim\">4</p>", "internal_node_id": "0.0-10.0-6.0", "time_elapsed": 123793, "key_press": -1, "trial_index": 16}, "uniqueid": "MTK2517:3EFVCAY5L4GT0ZR1QAMP7F5JQTSJ8J", "dateTime": 1517989689925}, {"current_trial": 17, "trialdata": {"rt": -1, "trial_type": "single-stim", "stimulus": "<p id=\"stim\">3</p>", "internal_node_id": "0.0-10.0-7.0", "time_elapsed": 124796, "key_press": -1, "trial_index": 17}, "uniqueid": "MTK2517:3EFVCAY5L4GT0ZR1QAMP7F5JQTSJ8J", "dateTime": 1517989690928}, {"current_trial": 18, "trialdata": {"rt": -1, "trial_type": "single-stim", "stimulus": "<p id=\"stim\">2</p>", "internal_node_id": "0.0-10.0-8.0", "time_elapsed": 125798, "key_press": -1, "trial_index": 18}, "uniqueid": "MTK2517:3EFVCAY5L4GT0ZR1QAMP7F5JQTSJ8J", "dateTime": 1517989691930}, {"current_trial": 19, "trialdata": {"rt": -1, "trial_type": "single-stim", "stimulus": "<p id=\"stim\">1</p>", "internal_node_id": "0.0-10.0-9.0", "time_elapsed": 126799, "key_press": -1, "trial_index": 19}, "uniqueid": "MTK2517:3EFVCAY5L4GT0ZR1QAMP7F5JQTSJ8J", "dateTime": 1517989692933}, {"current_trial": 20, "trialdata": {"rt": -1, "trial_type": "single-stim", "stimulus": "<p id=\"stim\">+</p>", "internal_node_id": "0.0-11.0-0.0", "time_elapsed": 128301, "key_press": -1, "type": "FIXATION", "trial_index": 20}, "uniqueid": "MTK2517:3EFVCAY5L4GT0ZR1QAMP7F5JQTSJ8J", "dateTime": 1517989694433}, {"current_trial": 21, "trialdata": {"rt": -1000, "trial_type": "single-audio", "word": "crutch", "stimulus": "/static/audio/wordpool/CRUTCH.wav", "conditions": [18, 1200, "a", 18000], "internal_node_id": "0.0-12.0", "trial": 0, "time_elapsed": 130679, "serialpos": 0, "key_press": -1, "wordID": 416, "type": "PRES_AUD", "trial_index": 21}, "uniqueid": "MTK2517:3EFVCAY5L4GT0ZR1QAMP7F5JQTSJ8J", "dateTime": 1517989696811}, {"current_trial": 22, "trialdata": {"rt": -1000, "trial_type": "single-audio", "word": "ox", "stimulus": "/static/audio/wordpool/OX.wav", "conditions": [18, 1200, "a", 18000], "internal_node_id": "0.0-13.0", "trial": 0, "time_elapsed": 133076, "serialpos": 1, "key_press": -1, "wordID": 993, "type": "PRES_AUD", "trial_index": 22}, "uniqueid": "MTK2517:3EFVCAY5L4GT0ZR1QAMP7F5JQTSJ8J", "dateTime": 1517989699208}, {"current_trial": 23, "trialdata": {"rt": -1000, "trial_type": "single-audio", "word": "softball", "stimulus": "/static/audio/wordpool/SOFTBALL.wav", "conditions": [18, 1200, "a", 18000], "internal_node_id": "0.0-14.0", "trial": 0, "time_elapsed": 135356, "serialpos": 2, "key_press": -1, "wordID": 1342, "type": "PRES_AUD", "trial_index": 23}, "uniqueid": "MTK2517:3EFVCAY5L4GT0ZR1QAMP7F5JQTSJ8J", "dateTime": 1517989701488}, {"current_trial": 24, "trialdata": {"rt": -1000, "trial_type": "single-audio", "word": "badge", "stimulus": "/static/audio/wordpool/BADGE.wav", "conditions": [18, 1200, "a", 18000], "internal_node_id": "0.0-15.0", "trial": 0, "time_elapsed": 137479, "serialpos": 3, "key_press": -1, "wordID": 67, "type": "PRES_AUD", "trial_index": 24}, "uniqueid": "MTK2517:3EFVCAY5L4GT0ZR1QAMP7F5JQTSJ8J", "dateTime": 1517989703611}, {"current_trial": 25, "trialdata": {"rt": -1000, "trial_type": "single-audio", "word": "lipstick", "stimulus": "/static/audio/wordpool/LIPSTICK.wav", "conditions": [18, 1200, "a", 18000], "internal_node_id": "0.0-16.0", "trial": 0, "time_elapsed": 139503, "serialpos": 4, "key_press": -1, "wordID": 828, "type": "PRES_AUD", "trial_index": 25}, "uniqueid": "MTK2517:3EFVCAY5L4GT0ZR1QAMP7F5JQTSJ8J", "dateTime": 1517989705635}, {"current_trial": 26, "trialdata": {"rt": -1000, "trial_type": "single-audio", "word": "motor", "stimulus": "/static/audio/wordpool/MOTOR.wav", "conditions": [18, 1200, "a", 18000], "internal_node_id": "0.0-17.0", "trial": 0, "time_elapsed": 141653, "serialpos": 5, "key_press": -1, "wordID": 921, "type": "PRES_AUD", "trial_index": 26}, "uniqueid": "MTK2517:3EFVCAY5L4GT0ZR1QAMP7F5JQTSJ8J", "dateTime": 1517989707785}, {"current_trial": 27, "trialdata": {"rt": -1000, "trial_type": "single-audio", "word": "cattle", "stimulus": "/static/audio/wordpool/CATTLE.wav", "conditions": [18, 1200, "a", 18000], "internal_node_id": "0.0-18.0", "trial": 0, "time_elapsed": 143834, "serialpos": 6, "key_press": -1, "wordID": 260, "type": "PRES_AUD", "trial_index": 27}, "uniqueid": "MTK2517:3EFVCAY5L4GT0ZR1QAMP7F5JQTSJ8J", "dateTime": 1517989709966}, {"current_trial": 28, "trialdata": {"rt": -1000, "trial_type": "single-audio", "word": "seafood", "stimulus": "/static/audio/wordpool/SEAFOOD.wav", "conditions": [18, 1200, "a", 18000], "internal_node_id": "0.0-19.0", "trial": 0, "time_elapsed": 146051, "serialpos": 7, "key_press": -1, "wordID": 1259, "type": "PRES_AUD", "trial_index": 28}, "uniqueid": "MTK2517:3EFVCAY5L4GT0ZR1QAMP7F5JQTSJ8J", "dateTime": 1517989712183}, {"current_trial": 29, "trialdata": {"rt": -1000, "trial_type": "single-audio", "word": "tunnel", "stimulus": "/static/audio/wordpool/TUNNEL.wav", "conditions": [18, 1200, "a", 18000], "internal_node_id": "0.0-20.0", "trial": 0, "time_elapsed": 148261, "serialpos": 8, "key_press": -1, "wordID": 1518, "type": "PRES_AUD", "trial_index": 29}, "uniqueid": "MTK2517:3EFVCAY5L4GT0ZR1QAMP7F5JQTSJ8J", "dateTime": 1517989714393}, {"current_trial": 30, "trialdata": {"rt": -1000, "trial_type": "single-audio", "word": "racket", "stimulus": "/static/audio/wordpool/RACKET.wav", "conditions": [18, 1200, "a", 18000], "internal_node_id": "0.0-21.0", "trial": 0, "time_elapsed": 150540, "serialpos": 9, "key_press": -1, "wordID": 1154, "type": "PRES_AUD", "trial_index": 30}, "uniqueid": "MTK2517:3EFVCAY5L4GT0ZR1QAMP7F5JQTSJ8J", "dateTime": 1517989716672}, {"current_trial": 31, "trialdata": {"rt": -1000, "trial_type": "single-audio", "word": "banker", "stimulus": "/static/audio/wordpool/BANKER.wav", "conditions": [18, 1200, "a", 18000], "internal_node_id": "0.0-22.0", "trial": 0, "time_elapsed": 152687, "serialpos": 10, "key_press": -1, "wordID": 83, "type": "PRES_AUD", "trial_index": 31}, "uniqueid": "MTK2517:3EFVCAY5L4GT0ZR1QAMP7F5JQTSJ8J", "dateTime": 1517989718819}, {"current_trial": 32, "trialdata": {"rt": -1000, "trial_type": "single-audio", "word": "rooster", "stimulus": "/static/audio/wordpool/ROOSTER.wav", "conditions": [18, 1200, "a", 18000], "internal_node_id": "0.0-23.0", "trial": 0, "time_elapsed": 155063, "serialpos": 11, "key_press": -1, "wordID": 1208, "type": "PRES_AUD", "trial_index": 32}, "uniqueid": "MTK2517:3EFVCAY5L4GT0ZR1QAMP7F5JQTSJ8J", "dateTime": 1517989721195}, {"current_trial": 33, "trialdata": {"rt": -1000, "trial_type": "single-audio", "word": "nightgown", "stimulus": "/static/audio/wordpool/NIGHTGOWN.wav", "conditions": [18, 1200, "a", 18000], "internal_node_id": "0.0-24.0", "trial": 0, "time_elapsed": 157462, "serialpos": 12, "key_press": -1, "wordID": 952, "type": "PRES_AUD", "trial_index": 33}, "uniqueid": "MTK2517:3EFVCAY5L4GT0ZR1QAMP7F5JQTSJ8J", "dateTime": 1517989723594}, {"current_trial": 34, "trialdata": {"rt": -1000, "trial_type": "single-audio", "word": "river", "stimulus": "/static/audio/wordpool/RIVER.wav", "conditions": [18, 1200, "a", 18000], "internal_node_id": "0.0-25.0", "trial": 0, "time_elapsed": 159746, "serialpos": 13, "key_press": -1, "wordID": 1193, "type": "PRES_AUD", "trial_index": 34}, "uniqueid": "MTK2517:3EFVCAY5L4GT0ZR1QAMP7F5JQTSJ8J", "dateTime": 1517989725878}, {"current_trial": 35, "trialdata": {"rt": -1000, "trial_type": "single-audio", "word": "pecan", "stimulus": "/static/audio/wordpool/PECAN.wav", "conditions": [18, 1200, "a", 18000], "internal_node_id": "0.0-26.0", "trial": 0, "time_elapsed": 161970, "serialpos": 14, "key_press": -1, "wordID": 1035, "type": "PRES_AUD", "trial_index": 35}, "uniqueid": "MTK2517:3EFVCAY5L4GT0ZR1QAMP7F5JQTSJ8J", "dateTime": 1517989728102}, {"current_trial": 36, "trialdata": {"rt": -1000, "trial_type": "single-audio", "word": "mildew", "stimulus": "/static/audio/wordpool/MILDEW.wav", "conditions": [18, 1200, "a", 18000], "internal_node_id": "0.0-27.0", "trial": 0, "time_elapsed": 164111, "serialpos": 15, "key_press": -1, "wordID": 892, "type": "PRES_AUD", "trial_index": 36}, "uniqueid": "MTK2517:3EFVCAY5L4GT0ZR1QAMP7F5JQTSJ8J", "dateTime": 1517989730243}, {"current_trial": 37, "trialdata": {"rt": -1000, "trial_type": "single-audio", "word": "snail", "stimulus": "/static/audio/wordpool/SNAIL.wav", "conditions": [18, 1200, "a", 18000], "internal_node_id": "0.0-28.0", "trial": 0, "time_elapsed": 166455, "serialpos": 16, "key_press": -1, "wordID": 1331, "type": "PRES_AUD", "trial_index": 37}, "uniqueid": "MTK2517:3EFVCAY5L4GT0ZR1QAMP7F5JQTSJ8J", "dateTime": 1517989732587}, {"current_trial": 38, "trialdata": {"rt": -1000, "trial_type": "single-audio", "word": "tourist", "stimulus": "/static/audio/wordpool/TOURIST.wav", "conditions": [18, 1200, "a", 18000], "internal_node_id": "0.0-29.0", "trial": 0, "time_elapsed": 168729, "serialpos": 17, "key_press": -1, "wordID": 1487, "type": "PRES_AUD", "trial_index": 38}, "uniqueid": "MTK2517:3EFVCAY5L4GT0ZR1QAMP7F5JQTSJ8J", "dateTime": 1517989734861}, {"current_trial": 39, "trialdata": {"rt": -1, "trial_type": "single-stim", "stimulus": "", "internal_node_id": "0.0-30.0-0.0", "time_elapsed": 170095, "key_press": -1, "type": "PRE_RECALL_DELAY", "trial_index": 39}, "uniqueid": "MTK2517:3EFVCAY5L4GT0ZR1QAMP7F5JQTSJ8J", "dateTime": 1517989736228}, {"current_trial": 40, "trialdata": {"rt": -1000, "trial_type": "single-audio", "stimulus": "/static/audio/400Hz.wav", "internal_node_id": "0.0-31.0", "time_elapsed": 170597, "key_press": -1, "type": "PRE_RECALL_ALERT", "trial_index": 40}, "uniqueid": "MTK2517:3EFVCAY5L4GT0ZR1QAMP7F5JQTSJ8J", "dateTime": 1517989736729}, {"current_trial": 41, "trialdata": {"rt": [8785, 12681, 14571, 18275, 21970, 35851], "recwords": ["lipstick", "the", "corn", "snail", "terrorist", "ladder"], "key_times": [3810, 4057, 5730, 6361, 7242, 7458, 7673, 8001, 8785, 11873, 12121, 12403, 12681, 13282, 13442, 13722, 14026, 14571, 16785, 16961, 17059, 17475, 17745, 18275, 19019, 19387, 19577, 19802, 20058, 20754, 20978, 21159, 21570, 21970, 34091, 34259, 34595, 34731, 34962, 35115, 35851], "trial_type": "free-recall", "conditions": [18, 1200, "a", 18000], "internal_node_id": "0.0-32.0-0.0", "key_presses": [76, 73, 80, 83, 84, 73, 67, 75, 13, 84, 72, 69, 32, 67, 79, 82, 78, 13, 83, 78, 65, 73, 76, 13, 84, 69, 82, 82, 79, 82, 73, 83, 84, 13, 76, 65, 68, 68, 69, 82, 13], "trial": 0, "time_elapsed": 230601, "type": "FREE_RECALL", "trial_index": 41}, "uniqueid": "MTK2517:3EFVCAY5L4GT0ZR1QAMP7F5JQTSJ8J", "dateTime": 1517989796737}, {"current_trial": 42, "trialdata": {"rt": 1878, "trial_type": "text", "internal_node_id": "0.0-33.0", "time_elapsed": 234484, "key_press": 32, "type": "INSTRUCTIONS", "trial_index": 42}, "uniqueid": "MTK2517:3EFVCAY5L4GT0ZR1QAMP7F5JQTSJ8J", "dateTime": 1517989800617}, {"current_trial": 43, "trialdata": {"rt": [6823, 9550, 12856, 15078], "trial_type": "math-distractor", "key_times": [5031, 6823, 8704, 9550, 11887, 12167, 12856, 14135, 14352, 15078, 17424], "responses": ["8", "8", "18", "15"], "num2": [4, 1, 9, 6, 7], "num3": [1, 3, 3, 3, 7], "conditions": [18, 1200, "a", 18000], "internal_node_id": "0.0-34.0", "key_presses": [104, 13, 104, 13, 97, 104, 13, 97, 101, 13, 103], "trial": 1, "time_elapsed": 254488, "type": "DISTRACTOR", "trial_index": 43, "num1": [3, 4, 6, 6, 3]}, "uniqueid": "MTK2517:3EFVCAY5L4GT0ZR1QAMP7F5JQTSJ8J", "dateTime": 1517989820620}, {"current_trial": 44, "trialdata": {"rt": -1, "trial_type": "single-stim", "stimulus": "<p id=\"stim\">10</p>", "internal_node_id": "0.0-35.0-0.0", "time_elapsed": 257487, "key_press": -1, "trial_index": 44}, "uniqueid": "MTK2517:3EFVCAY5L4GT0ZR1QAMP7F5JQTSJ8J", "dateTime": 1517989823619}, {"current_trial": 45, "trialdata": {"rt": -1, "trial_type": "single-stim", "stimulus": "<p id=\"stim\">9</p>", "internal_node_id": "0.0-35.0-1.0", "time_elapsed": 258489, "key_press": -1, "trial_index": 45}, "uniqueid": "MTK2517:3EFVCAY5L4GT0ZR1QAMP7F5JQTSJ8J", "dateTime": 1517989824621}, {"current_trial": 46, "trialdata": {"rt": -1, "trial_type": "single-stim", "stimulus": "<p id=\"stim\">8</p>", "internal_node_id": "0.0-35.0-2.0", "time_elapsed": 259489, "key_press": -1, "trial_index": 46}, "uniqueid": "MTK2517:3EFVCAY5L4GT0ZR1QAMP7F5JQTSJ8J", "dateTime": 1517989825621}, {"current_trial": 47, "trialdata": {"rt": -1, "trial_type": "single-stim", "stimulus": "<p id=\"stim\">7</p>", "internal_node_id": "0.0-35.0-3.0", "time_elapsed": 260491, "key_press": -1, "trial_index": 47}, "uniqueid": "MTK2517:3EFVCAY5L4GT0ZR1QAMP7F5JQTSJ8J", "dateTime": 1517989826623}, {"current_trial": 48, "trialdata": {"rt": -1, "trial_type": "single-stim", "stimulus": "<p id=\"stim\">6</p>", "internal_node_id": "0.0-35.0-4.0", "time_elapsed": 261494, "key_press": -1, "trial_index": 48}, "uniqueid": "MTK2517:3EFVCAY5L4GT0ZR1QAMP7F5JQTSJ8J", "dateTime": 1517989827626}, {"current_trial": 49, "trialdata": {"rt": -1, "trial_type": "single-stim", "stimulus": "<p id=\"stim\">5</p>", "internal_node_id": "0.0-35.0-5.0", "time_elapsed": 262496, "key_press": -1, "trial_index": 49}, "uniqueid": "MTK2517:3EFVCAY5L4GT0ZR1QAMP7F5JQTSJ8J", "dateTime": 1517989828628}, {"current_trial": 50, "trialdata": {"rt": -1, "trial_type": "single-stim", "stimulus": "<p id=\"stim\">4</p>", "internal_node_id": "0.0-35.0-6.0", "time_elapsed": 263499, "key_press": -1, "trial_index": 50}, "uniqueid": "MTK2517:3EFVCAY5L4GT0ZR1QAMP7F5JQTSJ8J", "dateTime": 1517989829631}, {"current_trial": 51, "trialdata": {"rt": -1, "trial_type": "single-stim", "stimulus": "<p id=\"stim\">3</p>", "internal_node_id": "0.0-35.0-7.0", "time_elapsed": 264500, "key_press": -1, "trial_index": 51}, "uniqueid": "MTK2517:3EFVCAY5L4GT0ZR1QAMP7F5JQTSJ8J", "dateTime": 1517989830632}, {"current_trial": 52, "trialdata": {"rt": -1, "trial_type": "single-stim", "stimulus": "<p id=\"stim\">2</p>", "internal_node_id": "0.0-35.0-8.0", "time_elapsed": 265501, "key_press": -1, "trial_index": 52}, "uniqueid": "MTK2517:3EFVCAY5L4GT0ZR1QAMP7F5JQTSJ8J", "dateTime": 1517989831633}, {"current_trial": 53, "trialdata": {"rt": -1, "trial_type": "single-stim", "stimulus": "<p id=\"stim\">1</p>", "internal_node_id": "0.0-35.0-9.0", "time_elapsed": 266503, "key_press": -1, "trial_index": 53}, "uniqueid": "MTK2517:3EFVCAY5L4GT0ZR1QAMP7F5JQTSJ8J", "dateTime": 1517989832635}, {"current_trial": 54, "trialdata": {"rt": -1, "trial_type": "single-stim", "stimulus": "<p id=\"stim\">+</p>", "internal_node_id": "0.0-36.0-0.0", "time_elapsed": 268005, "key_press": -1, "type": "FIXATION", "trial_index": 54}, "uniqueid": "MTK2517:3EFVCAY5L4GT0ZR1QAMP7F5JQTSJ8J", "dateTime": 1517989834137}, {"current_trial": 55, "trialdata": {"rt": -1000, "trial_type": "single-audio", "word": "lunch", "stimulus": "/static/audio/wordpool/LUNCH.wav", "conditions": [18, 1200, "a", 18000], "internal_node_id": "0.0-37.0", "trial": 1, "time_elapsed": 270165, "serialpos": 0, "key_press": -1, "wordID": 848, "type": "PRES_AUD", "trial_index": 55}, "uniqueid": "MTK2517:3EFVCAY5L4GT0ZR1QAMP7F5JQTSJ8J", "dateTime": 1517989836297}, {"current_trial": 56, "trialdata": {"rt": -1000, "trial_type": "single-audio", "word": "penguin", "stimulus": "/static/audio/wordpool/PENGUIN.wav", "conditions": [18, 1200, "a", 18000], "internal_node_id": "0.0-38.0", "trial": 1, "time_elapsed": 272188, "serialpos": 1, "key_press": -1, "wordID": 1043, "type": "PRES_AUD", "trial_index": 56}, "uniqueid": "MTK2517:3EFVCAY5L4GT0ZR1QAMP7F5JQTSJ8J", "dateTime": 1517989838320}, {"current_trial": 57, "trialdata": {"rt": -1000, "trial_type": "single-audio", "word": "hostess", "stimulus": "/static/audio/wordpool/HOSTESS.wav", "conditions": [18, 1200, "a", 18000], "internal_node_id": "0.0-39.0", "trial": 1, "time_elapsed": 274220, "serialpos": 2, "key_press": -1, "wordID": 722, "type": "PRES_AUD", "trial_index": 57}, "uniqueid": "MTK2517:3EFVCAY5L4GT0ZR1QAMP7F5JQTSJ8J", "dateTime": 1517989840352}, {"current_trial": 58, "trialdata": {"rt": -1000, "trial_type": "single-audio", "word": "bacon", "stimulus": "/static/audio/wordpool/BACON.wav", "conditions": [18, 1200, "a", 18000], "internal_node_id": "0.0-40.0", "trial": 1, "time_elapsed": 276316, "serialpos": 3, "key_press": -1, "wordID": 66, "type": "PRES_AUD", "trial_index": 58}, "uniqueid": "MTK2517:3EFVCAY5L4GT0ZR1QAMP7F5JQTSJ8J", "dateTime": 1517989842448}, {"current_trial": 59, "trialdata": {"rt": -1000, "trial_type": "single-audio", "word": "princess", "stimulus": "/static/audio/wordpool/PRINCESS.wav", "conditions": [18, 1200, "a", 18000], "internal_node_id": "0.0-41.0", "trial": 1, "time_elapsed": 278434, "serialpos": 4, "key_press": -1, "wordID": 1124, "type": "PRES_AUD", "trial_index": 59}, "uniqueid": "MTK2517:3EFVCAY5L4GT0ZR1QAMP7F5JQTSJ8J", "dateTime": 1517989844566}, {"current_trial": 60, "trialdata": {"rt": -1000, "trial_type": "single-audio", "word": "fungus", "stimulus": "/static/audio/wordpool/FUNGUS.wav", "conditions": [18, 1200, "a", 18000], "internal_node_id": "0.0-42.0", "trial": 1, "time_elapsed": 280506, "serialpos": 5, "key_press": -1, "wordID": 613, "type": "PRES_AUD", "trial_index": 60}, "uniqueid": "MTK2517:3EFVCAY5L4GT0ZR1QAMP7F5JQTSJ8J", "dateTime": 1517989846638}, {"current_trial": 61, "trialdata": {"rt": -1000, "trial_type": "single-audio", "word": "rabbit", "stimulus": "/static/audio/wordpool/RABBIT.wav", "conditions": [18, 1200, "a", 18000], "internal_node_id": "0.0-43.0", "trial": 1, "time_elapsed": 282679, "serialpos": 6, "key_press": -1, "wordID": 1151, "type": "PRES_AUD", "trial_index": 61}, "uniqueid": "MTK2517:3EFVCAY5L4GT0ZR1QAMP7F5JQTSJ8J", "dateTime": 1517989848811}, {"current_trial": 62, "trialdata": {"rt": -1000, "trial_type": "single-audio", "word": "statue", "stimulus": "/static/audio/wordpool/STATUE.wav", "conditions": [18, 1200, "a", 18000], "internal_node_id": "0.0-44.0", "trial": 1, "time_elapsed": 284931, "serialpos": 7, "key_press": -1, "wordID": 1373, "type": "PRES_AUD", "trial_index": 62}, "uniqueid": "MTK2517:3EFVCAY5L4GT0ZR1QAMP7F5JQTSJ8J", "dateTime": 1517989851063}, {"current_trial": 63, "trialdata": {"rt": -1000, "trial_type": "single-audio", "word": "lava", "stimulus": "/static/audio/wordpool/LAVA.wav", "conditions": [18, 1200, "a", 18000], "internal_node_id": "0.0-45.0", "trial": 1, "time_elapsed": 286947, "serialpos": 8, "key_press": -1, "wordID": 803, "type": "PRES_AUD", "trial_index": 63}, "uniqueid": "MTK2517:3EFVCAY5L4GT0ZR1QAMP7F5JQTSJ8J", "dateTime": 1517989853079}, {"current_trial": 64, "trialdata": {"rt": -1000, "trial_type": "single-audio", "word": "mattress", "stimulus": "/static/audio/wordpool/MATTRESS.wav", "conditions": [18, 1200, "a", 18000], "internal_node_id": "0.0-46.0", "trial": 1, "time_elapsed": 289300, "serialpos": 9, "key_press": -1, "wordID": 878, "type": "PRES_AUD", "trial_index": 64}, "uniqueid": "MTK2517:3EFVCAY5L4GT0ZR1QAMP7F5JQTSJ8J", "dateTime": 1517989855432}, {"current_trial": 65, "trialdata": {"rt": -1000, "trial_type": "single-audio", "word": "forest", "stimulus": "/static/audio/wordpool/FOREST.wav", "conditions": [18, 1200, "a", 18000], "internal_node_id": "0.0-47.0", "trial": 1, "time_elapsed": 291452, "serialpos": 10, "key_press": -1, "wordID": 592, "type": "PRES_AUD", "trial_index": 65}, "uniqueid": "MTK2517:3EFVCAY5L4GT0ZR1QAMP7F5JQTSJ8J", "dateTime": 1517989857584}, {"current_trial": 66, "trialdata": {"rt": -1000, "trial_type": "single-audio", "word": "permit", "stimulus": "/static/audio/wordpool/PERMIT.wav", "conditions": [18, 1200, "a", 18000], "internal_node_id": "0.0-48.0", "trial": 1, "time_elapsed": 293652, "serialpos": 11, "key_press": -1, "wordID": 1050, "type": "PRES_AUD", "trial_index": 66}, "uniqueid": "MTK2517:3EFVCAY5L4GT0ZR1QAMP7F5JQTSJ8J", "dateTime": 1517989859784}, {"current_trial": 67, "trialdata": {"rt": -1000, "trial_type": "single-audio", "word": "grill", "stimulus": "/static/audio/wordpool/GRILL.wav", "conditions": [18, 1200, "a", 18000], "internal_node_id": "0.0-49.0", "trial": 1, "time_elapsed": 295942, "serialpos": 12, "key_press": -1, "wordID": 660, "type": "PRES_AUD", "trial_index": 67}, "uniqueid": "MTK2517:3EFVCAY5L4GT0ZR1QAMP7F5JQTSJ8J", "dateTime": 1517989862074}, {"current_trial": 68, "trialdata": {"rt": -1000, "trial_type": "single-audio", "word": "lettuce", "stimulus": "/static/audio/wordpool/LETTUCE.wav", "conditions": [18, 1200, "a", 18000], "internal_node_id": "0.0-50.0", "trial": 1, "time_elapsed": 298033, "serialpos": 13, "key_press": -1, "wordID": 813, "type": "PRES_AUD", "trial_index": 68}, "uniqueid": "MTK2517:3EFVCAY5L4GT0ZR1QAMP7F5JQTSJ8J", "dateTime": 1517989864170}, {"current_trial": 69, "trialdata": {"rt": -1000, "trial_type": "single-audio", "word": "salmon", "stimulus": "/static/audio/wordpool/SALMON.wav", "conditions": [18, 1200, "a", 18000], "internal_node_id": "0.0-51.0", "trial": 1, "time_elapsed": 300386, "serialpos": 14, "key_press": -1, "wordID": 1226, "type": "PRES_AUD", "trial_index": 69}, "uniqueid": "MTK2517:3EFVCAY5L4GT0ZR1QAMP7F5JQTSJ8J", "dateTime": 1517989866518}, {"current_trial": 70, "trialdata": {"rt": -1000, "trial_type": "single-audio", "word": "citrus", "stimulus": "/static/audio/wordpool/CITRUS.wav", "conditions": [18, 1200, "a", 18000], "internal_node_id": "0.0-52.0", "trial": 1, "time_elapsed": 302718, "serialpos": 15, "key_press": -1, "wordID": 312, "type": "PRES_AUD", "trial_index": 70}, "uniqueid": "MTK2517:3EFVCAY5L4GT0ZR1QAMP7F5JQTSJ8J", "dateTime": 1517989868851}, {"current_trial": 71, "trialdata": {"rt": -1000, "trial_type": "single-audio", "word": "girl", "stimulus": "/static/audio/wordpool/GIRL.wav", "conditions": [18, 1200, "a", 18000], "internal_node_id": "0.0-53.0", "trial": 1, "time_elapsed": 304904, "serialpos": 16, "key_press": -1, "wordID": 636, "type": "PRES_AUD", "trial_index": 71}, "uniqueid": "MTK2517:3EFVCAY5L4GT0ZR1QAMP7F5JQTSJ8J", "dateTime": 1517989871036}, {"current_trial": 72, "trialdata": {"rt": -1000, "trial_type": "single-audio", "word": "tractor", "stimulus": "/static/audio/wordpool/TRACTOR.wav", "conditions": [18, 1200, "a", 18000], "internal_node_id": "0.0-54.0", "trial": 1, "time_elapsed": 307134, "serialpos": 17, "key_press": -1, "wordID": 1492, "type": "PRES_AUD", "trial_index": 72}, "uniqueid": "MTK2517:3EFVCAY5L4GT0ZR1QAMP7F5JQTSJ8J", "dateTime": 1517989873266}, {"current_trial": 73, "trialdata": {"rt": -1, "trial_type": "single-stim", "stimulus": "", "internal_node_id": "0.0-55.0-0.0", "time_elapsed": 308530, "key_press": -1, "type": "PRE_RECALL_DELAY", "trial_index": 73}, "uniqueid": "MTK2517:3EFVCAY5L4GT0ZR1QAMP7F5JQTSJ8J", "dateTime": 1517989874662}, {"current_trial": 74, "trialdata": {"rt": -1000, "trial_type": "single-audio", "stimulus": "/static/audio/400Hz.wav", "internal_node_id": "0.0-56.0", "time_elapsed": 309032, "key_press": -1, "type": "PRE_RECALL_ALERT", "trial_index": 74}, "uniqueid": "MTK2517:3EFVCAY5L4GT0ZR1QAMP7F5JQTSJ8J", "dateTime": 1517989875164}, {"current_trial": 75, "trialdata": {"rt": [4142, 7542, 11543, 17350, 21225, 24433, 29738, 31545, 34265, 36696, 41121, 44682, 46664, 50409, 59625], "recwords": ["tractor", "luch", "penquin", "princess", "fungus", "rabbit", "ladders", "logon", "curd", "citrus", "mattress", "grove", "forest", "cement", "statue"], "key_times": [2031, 2183, 2422, 2762, 3056, 3358, 3550, 4142, 5839, 6207, 6834, 6998, 7542, 8718, 9008, 9791, 10398, 10552, 10727, 11033, 11543, 15384, 15687, 15928, 16247, 16519, 16655, 16912, 17049, 17350, 19391, 19558, 19716, 20312, 20472, 20698, 21225, 22752, 22911, 23416, 23560, 23721, 24177, 24433, 27519, 27698, 28015, 28161, 28399, 28576, 28792, 29738, 30209, 30384, 30657, 30777, 31280, 31545, 33008, 33151, 33433, 33993, 34265, 34845, 35168, 35417, 35825, 36008, 36297, 36696, 38153, 38313, 39480, 39649, 39921, 40064, 40288, 40449, 41121, 42624, 43024, 43233, 43497, 43600, 44682, 45297, 45456, 45689, 45817, 46041, 46248, 46664, 48882, 49042, 49392, 49520, 49722, 49944, 50409, 57353, 57712, 57873, 58065, 58666, 58858, 59625], "trial_type": "free-recall", "conditions": [18, 1200, "a", 18000], "internal_node_id": "0.0-57.0-0.0", "key_presses": [84, 82, 65, 67, 84, 79, 82, 13, 76, 85, 67, 72, 13, 80, 69, 78, 81, 85, 73, 78, 13, 80, 82, 73, 78, 67, 69, 83, 83, 13, 70, 85, 78, 71, 85, 83, 13, 82, 65, 66, 66, 73, 84, 13, 76, 65, 68, 68, 69, 82, 83, 13, 76, 79, 71, 79, 78, 13, 67, 85, 82, 68, 13, 67, 73, 84, 82, 85, 83, 13, 77, 65, 84, 84, 82, 69, 83, 83, 13, 71, 82, 79, 86, 69, 13, 70, 79, 82, 69, 83, 84, 13, 67, 69, 77, 69, 78, 84, 13, 83, 84, 65, 84, 85, 69, 13], "trial": 1, "time_elapsed": 369037, "type": "FREE_RECALL", "trial_index": 75}, "uniqueid": "MTK2517:3EFVCAY5L4GT0ZR1QAMP7F5JQTSJ8J", "dateTime": 1517989935172}, {"current_trial": 76, "trialdata": {"rt": 4451, "trial_type": "text", "internal_node_id": "0.0-58.0", "time_elapsed": 375494, "key_press": 32, "type": "INSTRUCTIONS", "trial_index": 76}, "uniqueid": "MTK2517:3EFVCAY5L4GT0ZR1QAMP7F5JQTSJ8J", "dateTime": 1517989941626}, {"current_trial": 77, "trialdata": {"rt": [3540, 6172, 8764], "trial_type": "math-distractor", "key_times": [2852, 3540, 5396, 6172, 7900, 8149, 8764], "responses": ["8", "9", "18"], "num2": [2, 1, 3, 8], "num3": [5, 2, 6, 9], "conditions": [24, 800, "a", 12000], "internal_node_id": "0.0-59.0", "key_presses": [104, 13, 105, 13, 97, 104, 13], "trial": 2, "time_elapsed": 388497, "type": "DISTRACTOR", "trial_index": 77, "num1": [1, 7, 9, 5]}, "uniqueid": "MTK2517:3EFVCAY5L4GT0ZR1QAMP7F5JQTSJ8J", "dateTime": 1517989954629}, {"current_trial": 78, "trialdata": {"rt": -1, "trial_type": "single-stim", "stimulus": "<p id=\"stim\">10</p>", "internal_node_id": "0.0-60.0-0.0", "time_elapsed": 391499, "key_press": -1, "trial_index": 78}, "uniqueid": "MTK2517:3EFVCAY5L4GT0ZR1QAMP7F5JQTSJ8J", "dateTime": 1517989957631}, {"current_trial": 79, "trialdata": {"rt": -1, "trial_type": "single-stim", "stimulus": "<p id=\"stim\">9</p>", "internal_node_id": "0.0-60.0-1.0", "time_elapsed": 392501, "key_press": -1, "trial_index": 79}, "uniqueid": "MTK2517:3EFVCAY5L4GT0ZR1QAMP7F5JQTSJ8J", "dateTime": 1517989958633}, {"current_trial": 80, "trialdata": {"rt": -1, "trial_type": "single-stim", "stimulus": "<p id=\"stim\">8</p>", "internal_node_id": "0.0-60.0-2.0", "time_elapsed": 393503, "key_press": -1, "trial_index": 80}, "uniqueid": "MTK2517:3EFVCAY5L4GT0ZR1QAMP7F5JQTSJ8J", "dateTime": 1517989959635}, {"current_trial": 81, "trialdata": {"rt": -1, "trial_type": "single-stim", "stimulus": "<p id=\"stim\">7</p>", "internal_node_id": "0.0-60.0-3.0", "time_elapsed": 394504, "key_press": -1, "trial_index": 81}, "uniqueid": "MTK2517:3EFVCAY5L4GT0ZR1QAMP7F5JQTSJ8J", "dateTime": 1517989960637}, {"current_trial": 82, "trialdata": {"rt": -1, "trial_type": "single-stim", "stimulus": "<p id=\"stim\">6</p>", "internal_node_id": "0.0-60.0-4.0", "time_elapsed": 395507, "key_press": -1, "trial_index": 82}, "uniqueid": "MTK2517:3EFVCAY5L4GT0ZR1QAMP7F5JQTSJ8J", "dateTime": 1517989961639}, {"current_trial": 83, "trialdata": {"rt": -1, "trial_type": "single-stim", "stimulus": "<p id=\"stim\">5</p>", "internal_node_id": "0.0-60.0-5.0", "time_elapsed": 396508, "key_press": -1, "trial_index": 83}, "uniqueid": "MTK2517:3EFVCAY5L4GT0ZR1QAMP7F5JQTSJ8J", "dateTime": 1517989962640}, {"current_trial": 84, "trialdata": {"rt": -1, "trial_type": "single-stim", "stimulus": "<p id=\"stim\">4</p>", "internal_node_id": "0.0-60.0-6.0", "time_elapsed": 397508, "key_press": -1, "trial_index": 84}, "uniqueid": "MTK2517:3EFVCAY5L4GT0ZR1QAMP7F5JQTSJ8J", "dateTime": 1517989963640}, {"current_trial": 85, "trialdata": {"rt": -1, "trial_type": "single-stim", "stimulus": "<p id=\"stim\">3</p>", "internal_node_id": "0.0-60.0-7.0", "time_elapsed": 398509, "key_press": -1, "trial_index": 85}, "uniqueid": "MTK2517:3EFVCAY5L4GT0ZR1QAMP7F5JQTSJ8J", "dateTime": 1517989964641}, {"current_trial": 86, "trialdata": {"rt": -1, "trial_type": "single-stim", "stimulus": "<p id=\"stim\">2</p>", "internal_node_id": "0.0-60.0-8.0", "time_elapsed": 399510, "key_press": -1, "trial_index": 86}, "uniqueid": "MTK2517:3EFVCAY5L4GT0ZR1QAMP7F5JQTSJ8J", "dateTime": 1517989965642}, {"current_trial": 87, "trialdata": {"rt": -1, "trial_type": "single-stim", "stimulus": "<p id=\"stim\">1</p>", "internal_node_id": "0.0-60.0-9.0", "time_elapsed": 400511, "key_press": -1, "trial_index": 87}, "uniqueid": "MTK2517:3EFVCAY5L4GT0ZR1QAMP7F5JQTSJ8J", "dateTime": 1517989966643}, {"current_trial": 88, "trialdata": {"rt": -1, "trial_type": "single-stim", "stimulus": "<p id=\"stim\">+</p>", "internal_node_id": "0.0-61.0-0.0", "time_elapsed": 402012, "key_press": -1, "type": "FIXATION", "trial_index": 88}, "uniqueid": "MTK2517:3EFVCAY5L4GT0ZR1QAMP7F5JQTSJ8J", "dateTime": 1517989968144}, {"current_trial": 89, "trialdata": {"rt": -1000, "trial_type": "single-audio", "word": "loft", "stimulus": "/static/audio/wordpool/LOFT.wav", "conditions": [24, 800, "a", 12000], "internal_node_id": "0.0-62.0", "trial": 2, "time_elapsed": 403732, "serialpos": 0, "key_press": -1, "wordID": 839, "type": "PRES_AUD", "trial_index": 89}, "uniqueid": "MTK2517:3EFVCAY5L4GT0ZR1QAMP7F5JQTSJ8J", "dateTime": 1517989969864}, {"current_trial": 90, "trialdata": {"rt": -1000, "trial_type": "single-audio", "word": "actor", "stimulus": "/static/audio/wordpool/ACTOR.wav", "conditions": [24, 800, "a", 12000], "internal_node_id": "0.0-63.0", "trial": 2, "time_elapsed": 405546, "serialpos": 1, "key_press": -1, "wordID": 4, "type": "PRES_AUD", "trial_index": 90}, "uniqueid": "MTK2517:3EFVCAY5L4GT0ZR1QAMP7F5JQTSJ8J", "dateTime": 1517989971678}, {"current_trial": 91, "trialdata": {"rt": -1000, "trial_type": "single-audio", "word": "spool", "stimulus": "/static/audio/wordpool/SPOOL.wav", "conditions": [24, 800, "a", 12000], "internal_node_id": "0.0-64.0", "trial": 2, "time_elapsed": 407477, "serialpos": 2, "key_press": -1, "wordID": 1355, "type": "PRES_AUD", "trial_index": 91}, "uniqueid": "MTK2517:3EFVCAY5L4GT0ZR1QAMP7F5JQTSJ8J", "dateTime": 1517989973609}, {"current_trial": 92, "trialdata": {"rt": -1000, "trial_type": "single-audio", "word": "report", "stimulus": "/static/audio/wordpool/REPORT.wav", "conditions": [24, 800, "a", 12000], "internal_node_id": "0.0-65.0", "trial": 2, "time_elapsed": 409456, "serialpos": 3, "key_press": -1, "wordID": 1183, "type": "PRES_AUD", "trial_index": 92}, "uniqueid": "MTK2517:3EFVCAY5L4GT0ZR1QAMP7F5JQTSJ8J", "dateTime": 1517989975588}, {"current_trial": 93, "trialdata": {"rt": -1000, "trial_type": "single-audio", "word": "survey", "stimulus": "/static/audio/wordpool/SURVEY.wav", "conditions": [24, 800, "a", 12000], "internal_node_id": "0.0-66.0", "trial": 2, "time_elapsed": 411209, "serialpos": 4, "key_press": -1, "wordID": 1413, "type": "PRES_AUD", "trial_index": 93}, "uniqueid": "MTK2517:3EFVCAY5L4GT0ZR1QAMP7F5JQTSJ8J", "dateTime": 1517989977341}, {"current_trial": 94, "trialdata": {"rt": -1000, "trial_type": "single-audio", "word": "rod", "stimulus": "/static/audio/wordpool/ROD.wav", "conditions": [24, 800, "a", 12000], "internal_node_id": "0.0-67.0", "trial": 2, "time_elapsed": 412977, "serialpos": 5, "key_press": -1, "wordID": 1202, "type": "PRES_AUD", "trial_index": 94}, "uniqueid": "MTK2517:3EFVCAY5L4GT0ZR1QAMP7F5JQTSJ8J", "dateTime": 1517989979109}, {"current_trial": 95, "trialdata": {"rt": -1000, "trial_type": "single-audio", "word": "scarf", "stimulus": "/static/audio/wordpool/SCARF.wav", "conditions": [24, 800, "a", 12000], "internal_node_id": "0.0-68.0", "trial": 2, "time_elapsed": 414655, "serialpos": 6, "key_press": -1, "wordID": 1245, "type": "PRES_AUD", "trial_index": 95}, "uniqueid": "MTK2517:3EFVCAY5L4GT0ZR1QAMP7F5JQTSJ8J", "dateTime": 1517989980787}, {"current_trial": 96, "trialdata": {"rt": -1000, "trial_type": "single-audio", "word": "paper", "stimulus": "/static/audio/wordpool/PAPER.wav", "conditions": [24, 800, "a", 12000], "internal_node_id": "0.0-69.0", "trial": 2, "time_elapsed": 416313, "serialpos": 7, "key_press": -1, "wordID": 1010, "type": "PRES_AUD", "trial_index": 96}, "uniqueid": "MTK2517:3EFVCAY5L4GT0ZR1QAMP7F5JQTSJ8J", "dateTime": 1517989982445}, {"current_trial": 97, "trialdata": {"rt": -1000, "trial_type": "single-audio", "word": "atlas", "stimulus": "/static/audio/wordpool/ATLAS.wav", "conditions": [24, 800, "a", 12000], "internal_node_id": "0.0-70.0", "trial": 2, "time_elapsed": 418008, "serialpos": 8, "key_press": -1, "wordID": 52, "type": "PRES_AUD", "trial_index": 97}, "uniqueid": "MTK2517:3EFVCAY5L4GT0ZR1QAMP7F5JQTSJ8J", "dateTime": 1517989984140}, {"current_trial": 98, "trialdata": {"rt": -1000, "trial_type": "single-audio", "word": "scotch", "stimulus": "/static/audio/wordpool/SCOTCH.wav", "conditions": [24, 800, "a", 12000], "internal_node_id": "0.0-71.0", "trial": 2, "time_elapsed": 419808, "serialpos": 9, "key_press": -1, "wordID": 1250, "type": "PRES_AUD", "trial_index": 98}, "uniqueid": "MTK2517:3EFVCAY5L4GT0ZR1QAMP7F5JQTSJ8J", "dateTime": 1517989985940}, {"current_trial": 99, "trialdata": {"rt": -1000, "trial_type": "single-audio", "word": "fox", "stimulus": "/static/audio/wordpool/FOX.wav", "conditions": [24, 800, "a", 12000], "internal_node_id": "0.0-72.0", "trial": 2, "time_elapsed": 421440, "serialpos": 10, "key_press": -1, "wordID": 597, "type": "PRES_AUD", "trial_index": 99}, "uniqueid": "MTK2517:3EFVCAY5L4GT0ZR1QAMP7F5JQTSJ8J", "dateTime": 1517989987572}, {"current_trial": 100, "trialdata": {"rt": -1000, "trial_type": "single-audio", "word": "pocket", "stimulus": "/static/audio/wordpool/POCKET.wav", "conditions": [24, 800, "a", 12000], "internal_node_id": "0.0-73.0", "trial": 2, "time_elapsed": 423161, "serialpos": 11, "key_press": -1, "wordID": 1092, "type": "PRES_AUD", "trial_index": 100}, "uniqueid": "MTK2517:3EFVCAY5L4GT0ZR1QAMP7F5JQTSJ8J", "dateTime": 1517989989293}, {"current_trial": 101, "trialdata": {"rt": -1000, "trial_type": "single-audio", "word": "skillet", "stimulus": "/static/audio/wordpool/SKILLET.wav", "conditions": [24, 800, "a", 12000], "internal_node_id": "0.0-74.0", "trial": 2, "time_elapsed": 424996, "serialpos": 12, "key_press": -1, "wordID": 1316, "type": "PRES_AUD", "trial_index": 101}, "uniqueid": "MTK2517:3EFVCAY5L4GT0ZR1QAMP7F5JQTSJ8J", "dateTime": 1517989991128}, {"current_trial": 102, "trialdata": {"rt": -1000, "trial_type": "single-audio", "word": "husband", "stimulus": "/static/audio/wordpool/HUSBAND.wav", "conditions": [24, 800, "a", 12000], "internal_node_id": "0.0-75.0", "trial": 2, "time_elapsed": 426660, "serialpos": 13, "key_press": -1, "wordID": 727, "type": "PRES_AUD", "trial_index": 102}, "uniqueid": "MTK2517:3EFVCAY5L4GT0ZR1QAMP7F5JQTSJ8J", "dateTime": 1517989992792}, {"current_trial": 103, "trialdata": {"rt": -1000, "trial_type": "single-audio", "word": "radish", "stimulus": "/static/audio/wordpool/RADISH.wav", "conditions": [24, 800, "a", 12000], "internal_node_id": "0.0-76.0", "trial": 2, "time_elapsed": 428510, "serialpos": 14, "key_press": -1, "wordID": 1157, "type": "PRES_AUD", "trial_index": 103}, "uniqueid": "MTK2517:3EFVCAY5L4GT0ZR1QAMP7F5JQTSJ8J", "dateTime": 1517989994642}, {"current_trial": 104, "trialdata": {"rt": -1000, "trial_type": "single-audio", "word": "shelter", "stimulus": "/static/audio/wordpool/SHELTER.wav", "conditions": [24, 800, "a", 12000], "internal_node_id": "0.0-77.0", "trial": 2, "time_elapsed": 430232, "serialpos": 15, "key_press": -1, "wordID": 1281, "type": "PRES_AUD", "trial_index": 104}, "uniqueid": "MTK2517:3EFVCAY5L4GT0ZR1QAMP7F5JQTSJ8J", "dateTime": 1517989996364}, {"current_trial": 105, "trialdata": {"rt": -1000, "trial_type": "single-audio", "word": "temple", "stimulus": "/static/audio/wordpool/TEMPLE.wav", "conditions": [24, 800, "a", 12000], "internal_node_id": "0.0-78.0", "trial": 2, "time_elapsed": 432206, "serialpos": 16, "key_press": -1, "wordID": 1447, "type": "PRES_AUD", "trial_index": 105}, "uniqueid": "MTK2517:3EFVCAY5L4GT0ZR1QAMP7F5JQTSJ8J", "dateTime": 1517989998338}, {"current_trial": 106, "trialdata": {"rt": -1000, "trial_type": "single-audio", "word": "shark", "stimulus": "/static/audio/wordpool/SHARK.wav", "conditions": [24, 800, "a", 12000], "internal_node_id": "0.0-79.0", "trial": 2, "time_elapsed": 434145, "serialpos": 17, "key_press": -1, "wordID": 1274, "type": "PRES_AUD", "trial_index": 106}, "uniqueid": "MTK2517:3EFVCAY5L4GT0ZR1QAMP7F5JQTSJ8J", "dateTime": 1517990000277}, {"current_trial": 107, "trialdata": {"rt": -1000, "trial_type": "single-audio", "word": "creature", "stimulus": "/static/audio/wordpool/CREATURE.wav", "conditions": [24, 800, "a", 12000], "internal_node_id": "0.0-80.0", "trial": 2, "time_elapsed": 436051, "serialpos": 18, "key_press": -1, "wordID": 402, "type": "PRES_AUD", "trial_index": 107}, "uniqueid": "MTK2517:3EFVCAY5L4GT0ZR1QAMP7F5JQTSJ8J", "dateTime": 1517990002183}, {"current_trial": 108, "trialdata": {"rt": -1000, "trial_type": "single-audio", "word": "spider", "stimulus": "/static/audio/wordpool/SPIDER.wav", "conditions": [24, 800, "a", 12000], "internal_node_id": "0.0-81.0", "trial": 2, "time_elapsed": 437751, "serialpos": 19, "key_press": -1, "wordID": 1350, "type": "PRES_AUD", "trial_index": 108}, "uniqueid": "MTK2517:3EFVCAY5L4GT0ZR1QAMP7F5JQTSJ8J", "dateTime": 1517990003883}, {"current_trial": 109, "trialdata": {"rt": -1000, "trial_type": "single-audio", "word": "wagon", "stimulus": "/static/audio/wordpool/WAGON.wav", "conditions": [24, 800, "a", 12000], "internal_node_id": "0.0-82.0", "trial": 2, "time_elapsed": 439403, "serialpos": 20, "key_press": -1, "wordID": 1577, "type": "PRES_AUD", "trial_index": 109}, "uniqueid": "MTK2517:3EFVCAY5L4GT0ZR1QAMP7F5JQTSJ8J", "dateTime": 1517990005535}, {"current_trial": 110, "trialdata": {"rt": -1000, "trial_type": "single-audio", "word": "hound", "stimulus": "/static/audio/wordpool/HOUND.wav", "conditions": [24, 800, "a", 12000], "internal_node_id": "0.0-83.0", "trial": 2, "time_elapsed": 441177, "serialpos": 21, "key_press": -1, "wordID": 723, "type": "PRES_AUD", "trial_index": 110}, "uniqueid": "MTK2517:3EFVCAY5L4GT0ZR1QAMP7F5JQTSJ8J", "dateTime": 1517990007309}, {"current_trial": 111, "trialdata": {"rt": -1000, "trial_type": "single-audio", "word": "spoon", "stimulus": "/static/audio/wordpool/SPOON.wav", "conditions": [24, 800, "a", 12000], "internal_node_id": "0.0-84.0", "trial": 2, "time_elapsed": 443128, "serialpos": 22, "key_press": -1, "wordID": 1356, "type": "PRES_AUD", "trial_index": 111}, "uniqueid": "MTK2517:3EFVCAY5L4GT0ZR1QAMP7F5JQTSJ8J", "dateTime": 1517990009260}, {"current_trial": 112, "trialdata": {"rt": -1000, "trial_type": "single-audio", "word": "hiker", "stimulus": "/static/audio/wordpool/HIKER.wav", "conditions": [24, 800, "a", 12000], "internal_node_id": "0.0-85.0", "trial": 2, "time_elapsed": 445056, "serialpos": 23, "key_press": -1, "wordID": 707, "type": "PRES_AUD", "trial_index": 112}, "uniqueid": "MTK2517:3EFVCAY5L4GT0ZR1QAMP7F5JQTSJ8J", "dateTime": 1517990011188}, {"current_trial": 113, "trialdata": {"rt": -1, "trial_type": "single-stim", "stimulus": "", "internal_node_id": "0.0-86.0-0.0", "time_elapsed": 446454, "key_press": -1, "type": "PRE_RECALL_DELAY", "trial_index": 113}, "uniqueid": "MTK2517:3EFVCAY5L4GT0ZR1QAMP7F5JQTSJ8J", "dateTime": 1517990012587}, {"current_trial": 114, "trialdata": {"rt": -1000, "trial_type": "single-audio", "stimulus": "/static/audio/400Hz.wav", "internal_node_id": "0.0-87.0", "time_elapsed": 446956, "key_press": -1, "type": "PRE_RECALL_ALERT", "trial_index": 114}, "uniqueid": "MTK2517:3EFVCAY5L4GT0ZR1QAMP7F5JQTSJ8J", "dateTime": 1517990013088}, {"current_trial": 115, "trialdata": {"rt": [2877, 5875, 9220, 11428, 14387, 17260, 19693, 23141, 27021, 29061, 32294, 35998, 39221, 43437, 48775, 50575, 53190, 57078, 59991], "recwords": ["spoon", "temple", "shark", "laft", "report", "actor", "rad", "paper", "scotch", "fox", "hockey", "skill", "husband", "rabbish", "shelter", "spider", "dragon", "pound", "spoon"], "key_times": [1405, 1588, 1773, 1916, 2213, 2877, 4180, 4308, 4628, 5075, 5212, 5492, 5875, 6868, 7404, 7699, 8037, 8604, 9220, 10227, 10324, 10628, 10964, 11428, 12829, 12965, 13244, 13395, 13861, 13996, 14387, 15341, 15917, 16277, 16508, 16693, 17260, 18868, 19005, 19276, 19693, 22029, 22189, 22342, 22557, 22685, 23141, 24684, 24854, 25204, 25476, 25821, 26286, 27021, 28166, 28374, 28589, 29061, 30534, 30741, 30989, 31365, 31516, 31886, 32294, 34086, 34685, 34926, 35189, 35334, 35998, 37157, 37285, 37453, 37990, 38141, 38334, 38826, 39221, 40462, 40598, 41749, 41934, 42054, 42327, 42822, 43437, 46302, 46655, 46846, 47206, 47510, 47637, 47792, 48775, 49221, 49407, 49623, 49974, 50054, 50214, 50575, 51039, 51270, 51583, 52054, 52238, 52518, 53190, 54223, 54399, 54807, 55119, 55423, 57078, 58366, 58567, 58751, 58911, 59256, 59991], "trial_type": "free-recall", "conditions": [24, 800, "a", 12000], "internal_node_id": "0.0-88.0-0.0", "key_presses": [83, 80, 79, 79, 78, 13, 84, 69, 77, 80, 76, 69, 13, 83, 72, 65, 82, 75, 13, 76, 65, 70, 84, 13, 82, 69, 80, 79, 82, 84, 13, 65, 67, 84, 79, 82, 13, 82, 65, 68, 13, 80, 65, 80, 69, 82, 13, 83, 67, 79, 84, 67, 72, 13, 70, 79, 88, 13, 72, 79, 67, 75, 69, 89, 13, 83, 75, 73, 76, 76, 13, 72, 85, 83, 66, 65, 78, 68, 13, 82, 65, 66, 66, 73, 83, 72, 13, 83, 72, 69, 76, 84, 69, 82, 13, 83, 80, 73, 68, 69, 82, 13, 68, 82, 65, 71, 79, 78, 13, 80, 79, 85, 78, 68, 13, 83, 80, 79, 79, 78, 13], "trial": 2, "time_elapsed": 506961, "type": "FREE_RECALL", "trial_index": 115}, "uniqueid": "MTK2517:3EFVCAY5L4GT0ZR1QAMP7F5JQTSJ8J", "dateTime": 1517990073097}, {"current_trial": 116, "trialdata": {"rt": 2079, "trial_type": "text", "internal_node_id": "0.0-89.0", "time_elapsed": 511045, "key_press": 32, "type": "INSTRUCTIONS", "trial_index": 116}, "uniqueid": "MTK2517:3EFVCAY5L4GT0ZR1QAMP7F5JQTSJ8J", "dateTime": 1517990077177}, {"current_trial": 117, "trialdata": {"rt": [5151, 8904, 11735], "trial_type": "math-distractor", "key_times": [1951, 2173, 5151, 7655, 8904, 10647, 11055, 11735], "responses": ["13", "9", "13"], "num2": [6, 4, 3, 9], "num3": [6, 3, 4, 7], "conditions": [12, 800, "a", 12000], "internal_node_id": "0.0-90.0", "key_presses": [97, 99, 13, 105, 13, 97, 99, 13], "trial": 3, "time_elapsed": 525049, "type": "DISTRACTOR", "trial_index": 117, "num1": [1, 2, 6, 1]}, "uniqueid": "MTK2517:3EFVCAY5L4GT0ZR1QAMP7F5JQTSJ8J", "dateTime": 1517990091181}, {"current_trial": 118, "trialdata": {"rt": -1, "trial_type": "single-stim", "stimulus": "<p id=\"stim\">10</p>", "internal_node_id": "0.0-91.0-0.0", "time_elapsed": 528050, "key_press": -1, "trial_index": 118}, "uniqueid": "MTK2517:3EFVCAY5L4GT0ZR1QAMP7F5JQTSJ8J", "dateTime": 1517990094182}, {"current_trial": 119, "trialdata": {"rt": -1, "trial_type": "single-stim", "stimulus": "<p id=\"stim\">9</p>", "internal_node_id": "0.0-91.0-1.0", "time_elapsed": 529052, "key_press": -1, "trial_index": 119}, "uniqueid": "MTK2517:3EFVCAY5L4GT0ZR1QAMP7F5JQTSJ8J", "dateTime": 1517990095184}, {"current_trial": 120, "trialdata": {"rt": -1, "trial_type": "single-stim", "stimulus": "<p id=\"stim\">8</p>", "internal_node_id": "0.0-91.0-2.0", "time_elapsed": 530054, "key_press": -1, "trial_index": 120}, "uniqueid": "MTK2517:3EFVCAY5L4GT0ZR1QAMP7F5JQTSJ8J", "dateTime": 1517990096186}, {"current_trial": 121, "trialdata": {"rt": -1, "trial_type": "single-stim", "stimulus": "<p id=\"stim\">7</p>", "internal_node_id": "0.0-91.0-3.0", "time_elapsed": 531056, "key_press": -1, "trial_index": 121}, "uniqueid": "MTK2517:3EFVCAY5L4GT0ZR1QAMP7F5JQTSJ8J", "dateTime": 1517990097188}, {"current_trial": 122, "trialdata": {"rt": -1, "trial_type": "single-stim", "stimulus": "<p id=\"stim\">6</p>", "internal_node_id": "0.0-91.0-4.0", "time_elapsed": 532057, "key_press": -1, "trial_index": 122}, "uniqueid": "MTK2517:3EFVCAY5L4GT0ZR1QAMP7F5JQTSJ8J", "dateTime": 1517990098191}, {"current_trial": 123, "trialdata": {"rt": -1, "trial_type": "single-stim", "stimulus": "<p id=\"stim\">5</p>", "internal_node_id": "0.0-91.0-5.0", "time_elapsed": 533059, "key_press": -1, "trial_index": 123}, "uniqueid": "MTK2517:3EFVCAY5L4GT0ZR1QAMP7F5JQTSJ8J", "dateTime": 1517990099193}, {"current_trial": 124, "trialdata": {"rt": -1, "trial_type": "single-stim", "stimulus": "<p id=\"stim\">4</p>", "internal_node_id": "0.0-91.0-6.0", "time_elapsed": 534061, "key_press": -1, "trial_index": 124}, "uniqueid": "MTK2517:3EFVCAY5L4GT0ZR1QAMP7F5JQTSJ8J", "dateTime": 1517990100193}, {"current_trial": 125, "trialdata": {"rt": -1, "trial_type": "single-stim", "stimulus": "<p id=\"stim\">3</p>", "internal_node_id": "0.0-91.0-7.0", "time_elapsed": 535063, "key_press": -1, "trial_index": 125}, "uniqueid": "MTK2517:3EFVCAY5L4GT0ZR1QAMP7F5JQTSJ8J", "dateTime": 1517990101195}, {"current_trial": 126, "trialdata": {"rt": -1, "trial_type": "single-stim", "stimulus": "<p id=\"stim\">2</p>", "internal_node_id": "0.0-91.0-8.0", "time_elapsed": 536065, "key_press": -1, "trial_index": 126}, "uniqueid": "MTK2517:3EFVCAY5L4GT0ZR1QAMP7F5JQTSJ8J", "dateTime": 1517990102198}, {"current_trial": 127, "trialdata": {"rt": -1, "trial_type": "single-stim", "stimulus": "<p id=\"stim\">1</p>", "internal_node_id": "0.0-91.0-9.0", "time_elapsed": 537067, "key_press": -1, "trial_index": 127}, "uniqueid": "MTK2517:3EFVCAY5L4GT0ZR1QAMP7F5JQTSJ8J", "dateTime": 1517990103199}, {"current_trial": 128, "trialdata": {"rt": -1, "trial_type": "single-stim", "stimulus": "<p id=\"stim\">+</p>", "internal_node_id": "0.0-92.0-0.0", "time_elapsed": 538568, "key_press": -1, "type": "FIXATION", "trial_index": 128}, "uniqueid": "MTK2517:3EFVCAY5L4GT0ZR1QAMP7F5JQTSJ8J", "dateTime": 1517990104703}, {"current_trial": 129, "trialdata": {"rt": -1000, "trial_type": "single-audio", "word": "flower", "stimulus": "/static/audio/wordpool/FLOWER.wav", "conditions": [12, 800, "a", 12000], "internal_node_id": "0.0-93.0", "trial": 3, "time_elapsed": 540545, "serialpos": 0, "key_press": -1, "wordID": 583, "type": "PRES_AUD", "trial_index": 129}, "uniqueid": "MTK2517:3EFVCAY5L4GT0ZR1QAMP7F5JQTSJ8J", "dateTime": 1517990106677}, {"current_trial": 130, "trialdata": {"rt": -1000, "trial_type": "single-audio", "word": "scissors", "stimulus": "/static/audio/wordpool/SCISSORS.wav", "conditions": [12, 800, "a", 12000], "internal_node_id": "0.0-94.0", "trial": 3, "time_elapsed": 542282, "serialpos": 1, "key_press": -1, "wordID": 1249, "type": "PRES_AUD", "trial_index": 130}, "uniqueid": "MTK2517:3EFVCAY5L4GT0ZR1QAMP7F5JQTSJ8J", "dateTime": 1517990108414}, {"current_trial": 131, "trialdata": {"rt": -1000, "trial_type": "single-audio", "word": "rocket", "stimulus": "/static/audio/wordpool/ROCKET.wav", "conditions": [12, 800, "a", 12000], "internal_node_id": "0.0-95.0", "trial": 3, "time_elapsed": 544278, "serialpos": 2, "key_press": -1, "wordID": 1201, "type": "PRES_AUD", "trial_index": 131}, "uniqueid": "MTK2517:3EFVCAY5L4GT0ZR1QAMP7F5JQTSJ8J", "dateTime": 1517990110410}, {"current_trial": 132, "trialdata": {"rt": -1000, "trial_type": "single-audio", "word": "missile", "stimulus": "/static/audio/wordpool/MISSILE.wav", "conditions": [12, 800, "a", 12000], "internal_node_id": "0.0-96.0", "trial": 3, "time_elapsed": 546149, "serialpos": 3, "key_press": -1, "wordID": 899, "type": "PRES_AUD", "trial_index": 132}, "uniqueid": "MTK2517:3EFVCAY5L4GT0ZR1QAMP7F5JQTSJ8J", "dateTime": 1517990112281}, {"current_trial": 133, "trialdata": {"rt": -1000, "trial_type": "single-audio", "word": "beaver", "stimulus": "/static/audio/wordpool/BEAVER.wav", "conditions": [12, 800, "a", 12000], "internal_node_id": "0.0-97.0", "trial": 3, "time_elapsed": 548142, "serialpos": 4, "key_press": -1, "wordID": 108, "type": "PRES_AUD", "trial_index": 133}, "uniqueid": "MTK2517:3EFVCAY5L4GT0ZR1QAMP7F5JQTSJ8J", "dateTime": 1517990114274}, {"current_trial": 134, "trialdata": {"rt": -1000, "trial_type": "single-audio", "word": "arm", "stimulus": "/static/audio/wordpool/ARM.wav", "conditions": [12, 800, "a", 12000], "internal_node_id": "0.0-98.0", "trial": 3, "time_elapsed": 549873, "serialpos": 5, "key_press": -1, "wordID": 37, "type": "PRES_AUD", "trial_index": 134}, "uniqueid": "MTK2517:3EFVCAY5L4GT0ZR1QAMP7F5JQTSJ8J", "dateTime": 1517990116005}, {"current_trial": 135, "trialdata": {"rt": -1000, "trial_type": "single-audio", "word": "waiter", "stimulus": "/static/audio/wordpool/WAITER.wav", "conditions": [12, 800, "a", 12000], "internal_node_id": "0.0-99.0", "trial": 3, "time_elapsed": 551603, "serialpos": 6, "key_press": -1, "wordID": 1579, "type": "PRES_AUD", "trial_index": 135}, "uniqueid": "MTK2517:3EFVCAY5L4GT0ZR1QAMP7F5JQTSJ8J", "dateTime": 1517990117735}, {"current_trial": 136, "trialdata": {"rt": -1000, "trial_type": "single-audio", "word": "possum", "stimulus": "/static/audio/wordpool/POSSUM.wav", "conditions": [12, 800, "a", 12000], "internal_node_id": "0.0-100.0", "trial": 3, "time_elapsed": 553556, "serialpos": 7, "key_press": -1, "wordID": 1111, "type": "PRES_AUD", "trial_index": 136}, "uniqueid": "MTK2517:3EFVCAY5L4GT0ZR1QAMP7F5JQTSJ8J", "dateTime": 1517990119688}, {"current_trial": 137, "trialdata": {"rt": -1000, "trial_type": "single-audio", "word": "camel", "stimulus": "/static/audio/wordpool/CAMEL.wav", "conditions": [12, 800, "a", 12000], "internal_node_id": "0.0-101.0", "trial": 3, "time_elapsed": 555266, "serialpos": 8, "key_press": -1, "wordID": 222, "type": "PRES_AUD", "trial_index": 137}, "uniqueid": "MTK2517:3EFVCAY5L4GT0ZR1QAMP7F5JQTSJ8J", "dateTime": 1517990121398}, {"current_trial": 138, "trialdata": {"rt": -1000, "trial_type": "single-audio", "word": "cobra", "stimulus": "/static/audio/wordpool/COBRA.wav", "conditions": [12, 800, "a", 12000], "internal_node_id": "0.0-102.0", "trial": 3, "time_elapsed": 557058, "serialpos": 9, "key_press": -1, "wordID": 335, "type": "PRES_AUD", "trial_index": 138}, "uniqueid": "MTK2517:3EFVCAY5L4GT0ZR1QAMP7F5JQTSJ8J", "dateTime": 1517990123190}, {"current_trial": 139, "trialdata": {"rt": -1000, "trial_type": "single-audio", "word": "whistle", "stimulus": "/static/audio/wordpool/WHISTLE.wav", "conditions": [12, 800, "a", 12000], "internal_node_id": "0.0-103.0", "trial": 3, "time_elapsed": 558925, "serialpos": 10, "key_press": -1, "wordID": 1605, "type": "PRES_AUD", "trial_index": 139}, "uniqueid": "MTK2517:3EFVCAY5L4GT0ZR1QAMP7F5JQTSJ8J", "dateTime": 1517990125057}, {"current_trial": 140, "trialdata": {"rt": -1000, "trial_type": "single-audio", "word": "cashier", "stimulus": "/static/audio/wordpool/CASHIER.wav", "conditions": [12, 800, "a", 12000], "internal_node_id": "0.0-104.0", "trial": 3, "time_elapsed": 560592, "serialpos": 11, "key_press": -1, "wordID": 253, "type": "PRES_AUD", "trial_index": 140}, "uniqueid": "MTK2517:3EFVCAY5L4GT0ZR1QAMP7F5JQTSJ8J", "dateTime": 1517990126724}, {"current_trial": 141, "trialdata": {"rt": -1, "trial_type": "single-stim", "stimulus": "", "internal_node_id": "0.0-105.0-0.0", "time_elapsed": 561823, "key_press": -1, "type": "PRE_RECALL_DELAY", "trial_index": 141}, "uniqueid": "MTK2517:3EFVCAY5L4GT0ZR1QAMP7F5JQTSJ8J", "dateTime": 1517990127955}, {"current_trial": 142, "trialdata": {"rt": -1000, "trial_type": "single-audio", "stimulus": "/static/audio/400Hz.wav", "internal_node_id": "0.0-106.0", "time_elapsed": 562324, "key_press": -1, "type": "PRE_RECALL_ALERT", "trial_index": 142}, "uniqueid": "MTK2517:3EFVCAY5L4GT0ZR1QAMP7F5JQTSJ8J", "dateTime": 1517990128456}, {"current_trial": 143, "trialdata": {"rt": [3857, 7120, 9865, 12154, 15515, 18906, 21218, 28617, 35114, 44259, 47987, 51748, 54652], "recwords": ["cashier", "scissors", "rocket", "missile", "flower", "camel", "cobra", "beaver", "vessel", "cobra", "cobra", "scissors", "flower"], "key_times": [1944, 2080, 2264, 2889, 2960, 3161, 3280, 3857, 4841, 5081, 5609, 5768, 5912, 6288, 6496, 6688, 7120, 8337, 8472, 8657, 9152, 9312, 9546, 9865, 10514, 10681, 10890, 11041, 11298, 11506, 11696, 12154, 13794, 14105, 14290, 14616, 14801, 15049, 15515, 17377, 17497, 17826, 18042, 18405, 18906, 19738, 19969, 20353, 20553, 20697, 21218, 26034, 26219, 26337, 26985, 27209, 27474, 28617, 33074, 33225, 33499, 33659, 33874, 34353, 35114, 43027, 43122, 43563, 43723, 43859, 44259, 45347, 45482, 45787, 46505, 47371, 47563, 47683, 47987, 49884, 50084, 50408, 50595, 50764, 50939, 51140, 51339, 51748, 52371, 52668, 52883, 53124, 53810, 53932, 54092, 54364, 54652, 58596, 58868, 59405, 59604, 59805], "trial_type": "free-recall", "conditions": [12, 800, "a", 12000], "internal_node_id": "0.0-107.0-0.0", "key_presses": [67, 65, 83, 72, 73, 69, 82, 13, 83, 67, 73, 83, 83, 79, 82, 83, 13, 82, 79, 67, 75, 69, 84, 13, 77, 73, 83, 83, 73, 76, 69, 13, 70, 76, 79, 87, 69, 82, 13, 67, 65, 77, 69, 76, 13, 67, 79, 66, 82, 65, 13, 66, 69, 65, 86, 69, 82, 13, 86, 69, 83, 83, 69, 76, 13, 67, 79, 66, 82, 65, 13, 67, 79, 78, 8, 66, 82, 65, 13, 83, 67, 73, 83, 83, 79, 82, 83, 13, 70, 76, 79, 69, 8, 87, 69, 82, 13, 76, 65, 68, 68, 69], "trial": 3, "time_elapsed": 622328, "type": "FREE_RECALL", "trial_index": 143}, "uniqueid": "MTK2517:3EFVCAY5L4GT0ZR1QAMP7F5JQTSJ8J", "dateTime": 1517990188465}, {"current_trial": 144, "trialdata": {"rt": 1701, "trial_type": "text", "internal_node_id": "0.0-108.0", "time_elapsed": 626035, "key_press": 32, "type": "INSTRUCTIONS", "trial_index": 144}, "uniqueid": "MTK2517:3EFVCAY5L4GT0ZR1QAMP7F5JQTSJ8J", "dateTime": 1517990192168}, {"current_trial": 145, "trialdata": {"rt": [3829, 9085, 11815], "trial_type": "math-distractor", "key_times": [3133, 3277, 3829, 8551, 8789, 9085, 11325, 11454, 11815], "responses": ["18", "17", "17"], "num2": [3, 7, 1, 3], "num3": [7, 1, 7, 5], "conditions": [12, 1600, "a", 12000], "internal_node_id": "0.0-109.0", "key_presses": [97, 104, 13, 97, 103, 13, 97, 103, 13], "trial": 4, "time_elapsed": 640041, "type": "DISTRACTOR", "trial_index": 145, "num1": [8, 9, 9, 7]}, "uniqueid": "MTK2517:3EFVCAY5L4GT0ZR1QAMP7F5JQTSJ8J", "dateTime": 1517990206173}, {"current_trial": 146, "trialdata": {"rt": -1, "trial_type": "single-stim", "stimulus": "<p id=\"stim\">10</p>", "internal_node_id": "0.0-110.0-0.0", "time_elapsed": 643044, "key_press": -1, "trial_index": 146}, "uniqueid": "MTK2517:3EFVCAY5L4GT0ZR1QAMP7F5JQTSJ8J", "dateTime": 1517990209176}, {"current_trial": 147, "trialdata": {"rt": -1, "trial_type": "single-stim", "stimulus": "<p id=\"stim\">9</p>", "internal_node_id": "0.0-110.0-1.0", "time_elapsed": 644045, "key_press": -1, "trial_index": 147}, "uniqueid": "MTK2517:3EFVCAY5L4GT0ZR1QAMP7F5JQTSJ8J", "dateTime": 1517990210178}, {"current_trial": 148, "trialdata": {"rt": -1, "trial_type": "single-stim", "stimulus": "<p id=\"stim\">8</p>", "internal_node_id": "0.0-110.0-2.0", "time_elapsed": 645047, "key_press": -1, "trial_index": 148}, "uniqueid": "MTK2517:3EFVCAY5L4GT0ZR1QAMP7F5JQTSJ8J", "dateTime": 1517990211179}, {"current_trial": 149, "trialdata": {"rt": -1, "trial_type": "single-stim", "stimulus": "<p id=\"stim\">7</p>", "internal_node_id": "0.0-110.0-3.0", "time_elapsed": 646049, "key_press": -1, "trial_index": 149}, "uniqueid": "MTK2517:3EFVCAY5L4GT0ZR1QAMP7F5JQTSJ8J", "dateTime": 1517990212181}, {"current_trial": 150, "trialdata": {"rt": -1, "trial_type": "single-stim", "stimulus": "<p id=\"stim\">6</p>", "internal_node_id": "0.0-110.0-4.0", "time_elapsed": 647050, "key_press": -1, "trial_index": 150}, "uniqueid": "MTK2517:3EFVCAY5L4GT0ZR1QAMP7F5JQTSJ8J", "dateTime": 1517990213182}, {"current_trial": 151, "trialdata": {"rt": -1, "trial_type": "single-stim", "stimulus": "<p id=\"stim\">5</p>", "internal_node_id": "0.0-110.0-5.0", "time_elapsed": 648052, "key_press": -1, "trial_index": 151}, "uniqueid": "MTK2517:3EFVCAY5L4GT0ZR1QAMP7F5JQTSJ8J", "dateTime": 1517990214184}, {"current_trial": 152, "trialdata": {"rt": -1, "trial_type": "single-stim", "stimulus": "<p id=\"stim\">4</p>", "internal_node_id": "0.0-110.0-6.0", "time_elapsed": 649052, "key_press": -1, "trial_index": 152}, "uniqueid": "MTK2517:3EFVCAY5L4GT0ZR1QAMP7F5JQTSJ8J", "dateTime": 1517990215184}, {"current_trial": 153, "trialdata": {"rt": -1, "trial_type": "single-stim", "stimulus": "<p id=\"stim\">3</p>", "internal_node_id": "0.0-110.0-7.0", "time_elapsed": 650054, "key_press": -1, "trial_index": 153}, "uniqueid": "MTK2517:3EFVCAY5L4GT0ZR1QAMP7F5JQTSJ8J", "dateTime": 1517990216188}, {"current_trial": 154, "trialdata": {"rt": -1, "trial_type": "single-stim", "stimulus": "<p id=\"stim\">2</p>", "internal_node_id": "0.0-110.0-8.0", "time_elapsed": 651056, "key_press": -1, "trial_index": 154}, "uniqueid": "MTK2517:3EFVCAY5L4GT0ZR1QAMP7F5JQTSJ8J", "dateTime": 1517990217188}, {"current_trial": 155, "trialdata": {"rt": -1, "trial_type": "single-stim", "stimulus": "<p id=\"stim\">1</p>", "internal_node_id": "0.0-110.0-9.0", "time_elapsed": 652059, "key_press": -1, "trial_index": 155}, "uniqueid": "MTK2517:3EFVCAY5L4GT0ZR1QAMP7F5JQTSJ8J", "dateTime": 1517990218192}, {"current_trial": 156, "trialdata": {"rt": -1, "trial_type": "single-stim", "stimulus": "<p id=\"stim\">+</p>", "internal_node_id": "0.0-111.0-0.0", "time_elapsed": 653560, "key_press": -1, "type": "FIXATION", "trial_index": 156}, "uniqueid": "MTK2517:3EFVCAY5L4GT0ZR1QAMP7F5JQTSJ8J", "dateTime": 1517990219692}, {"current_trial": 157, "trialdata": {"rt": -1000, "trial_type": "single-audio", "word": "nomad", "stimulus": "/static/audio/wordpool/NOMAD.wav", "conditions": [12, 1600, "a", 12000], "internal_node_id": "0.0-112.0", "trial": 4, "time_elapsed": 656124, "serialpos": 0, "key_press": -1, "wordID": 954, "type": "PRES_AUD", "trial_index": 157}, "uniqueid": "MTK2517:3EFVCAY5L4GT0ZR1QAMP7F5JQTSJ8J", "dateTime": 1517990222256}, {"current_trial": 158, "trialdata": {"rt": -1000, "trial_type": "single-audio", "word": "globe", "stimulus": "/static/audio/wordpool/GLOBE.wav", "conditions": [12, 1600, "a", 12000], "internal_node_id": "0.0-113.0", "trial": 4, "time_elapsed": 658627, "serialpos": 1, "key_press": -1, "wordID": 640, "type": "PRES_AUD", "trial_index": 158}, "uniqueid": "MTK2517:3EFVCAY5L4GT0ZR1QAMP7F5JQTSJ8J", "dateTime": 1517990224759}, {"current_trial": 159, "trialdata": {"rt": -1000, "trial_type": "single-audio", "word": "victim", "stimulus": "/static/audio/wordpool/VICTIM.wav", "conditions": [12, 1600, "a", 12000], "internal_node_id": "0.0-114.0", "trial": 4, "time_elapsed": 661357, "serialpos": 2, "key_press": -1, "wordID": 1561, "type": "PRES_AUD", "trial_index": 159}, "uniqueid": "MTK2517:3EFVCAY5L4GT0ZR1QAMP7F5JQTSJ8J", "dateTime": 1517990227489}, {"current_trial": 160, "trialdata": {"rt": -1000, "trial_type": "single-audio", "word": "bubble", "stimulus": "/static/audio/wordpool/BUBBLE.wav", "conditions": [12, 1600, "a", 12000], "internal_node_id": "0.0-115.0", "trial": 4, "time_elapsed": 663859, "serialpos": 3, "key_press": -1, "wordID": 182, "type": "PRES_AUD", "trial_index": 160}, "uniqueid": "MTK2517:3EFVCAY5L4GT0ZR1QAMP7F5JQTSJ8J", "dateTime": 1517990229991}, {"current_trial": 161, "trialdata": {"rt": -1000, "trial_type": "single-audio", "word": "valve", "stimulus": "/static/audio/wordpool/VALVE.wav", "conditions": [12, 1600, "a", 12000], "internal_node_id": "0.0-116.0", "trial": 4, "time_elapsed": 666577, "serialpos": 4, "key_press": -1, "wordID": 1545, "type": "PRES_AUD", "trial_index": 161}, "uniqueid": "MTK2517:3EFVCAY5L4GT0ZR1QAMP7F5JQTSJ8J", "dateTime": 1517990232709}, {"current_trial": 162, "trialdata": {"rt": -1000, "trial_type": "single-audio", "word": "piston", "stimulus": "/static/audio/wordpool/PISTON.wav", "conditions": [12, 1600, "a", 12000], "internal_node_id": "0.0-117.0", "trial": 4, "time_elapsed": 669123, "serialpos": 5, "key_press": -1, "wordID": 1075, "type": "PRES_AUD", "trial_index": 162}, "uniqueid": "MTK2517:3EFVCAY5L4GT0ZR1QAMP7F5JQTSJ8J", "dateTime": 1517990235255}, {"current_trial": 163, "trialdata": {"rt": -1000, "trial_type": "single-audio", "word": "chipmunk", "stimulus": "/static/audio/wordpool/CHIPMUNK.wav", "conditions": [12, 1600, "a", 12000], "internal_node_id": "0.0-118.0", "trial": 4, "time_elapsed": 671839, "serialpos": 6, "key_press": -1, "wordID": 303, "type": "PRES_AUD", "trial_index": 163}, "uniqueid": "MTK2517:3EFVCAY5L4GT0ZR1QAMP7F5JQTSJ8J", "dateTime": 1517990237971}, {"current_trial": 164, "trialdata": {"rt": -1000, "trial_type": "single-audio", "word": "daughter", "stimulus": "/static/audio/wordpool/DAUGHTER.wav", "conditions": [12, 1600, "a", 12000], "internal_node_id": "0.0-119.0", "trial": 4, "time_elapsed": 674475, "serialpos": 7, "key_press": -1, "wordID": 441, "type": "PRES_AUD", "trial_index": 164}, "uniqueid": "MTK2517:3EFVCAY5L4GT0ZR1QAMP7F5JQTSJ8J", "dateTime": 1517990240607}, {"current_trial": 165, "trialdata": {"rt": -1000, "trial_type": "single-audio", "word": "world", "stimulus": "/static/audio/wordpool/WORLD.wav", "conditions": [12, 1600, "a", 12000], "internal_node_id": "0.0-120.0", "trial": 4, "time_elapsed": 677049, "serialpos": 8, "key_press": -1, "wordID": 1621, "type": "PRES_AUD", "trial_index": 165}, "uniqueid": "MTK2517:3EFVCAY5L4GT0ZR1QAMP7F5JQTSJ8J", "dateTime": 1517990243183}, {"current_trial": 166, "trialdata": {"rt": -1000, "trial_type": "single-audio", "word": "mammal", "stimulus": "/static/audio/wordpool/MAMMAL.wav", "conditions": [12, 1600, "a", 12000], "internal_node_id": "0.0-121.0", "trial": 4, "time_elapsed": 679565, "serialpos": 9, "key_press": -1, "wordID": 860, "type": "PRES_AUD", "trial_index": 166}, "uniqueid": "MTK2517:3EFVCAY5L4GT0ZR1QAMP7F5JQTSJ8J", "dateTime": 1517990245697}, {"current_trial": 167, "trialdata": {"rt": -1000, "trial_type": "single-audio", "word": "blender", "stimulus": "/static/audio/wordpool/BLENDER.wav", "conditions": [12, 1600, "a", 12000], "internal_node_id": "0.0-122.0", "trial": 4, "time_elapsed": 682237, "serialpos": 10, "key_press": -1, "wordID": 135, "type": "PRES_AUD", "trial_index": 167}, "uniqueid": "MTK2517:3EFVCAY5L4GT0ZR1QAMP7F5JQTSJ8J", "dateTime": 1517990248370}, {"current_trial": 168, "trialdata": {"rt": -1000, "trial_type": "single-audio", "word": "onion", "stimulus": "/static/audio/wordpool/ONION.wav", "conditions": [12, 1600, "a", 12000], "internal_node_id": "0.0-123.0", "trial": 4, "time_elapsed": 684951, "serialpos": 11, "key_press": -1, "wordID": 976, "type": "PRES_AUD", "trial_index": 168}, "uniqueid": "MTK2517:3EFVCAY5L4GT0ZR1QAMP7F5JQTSJ8J", "dateTime": 1517990251083}, {"current_trial": 169, "trialdata": {"rt": -1, "trial_type": "single-stim", "stimulus": "", "internal_node_id": "0.0-124.0-0.0", "time_elapsed": 686162, "key_press": -1, "type": "PRE_RECALL_DELAY", "trial_index": 169}, "uniqueid": "MTK2517:3EFVCAY5L4GT0ZR1QAMP7F5JQTSJ8J", "dateTime": 1517990252294}, {"current_trial": 170, "trialdata": {"rt": -1000, "trial_type": "single-audio", "stimulus": "/static/audio/400Hz.wav", "internal_node_id": "0.0-125.0", "time_elapsed": 686663, "key_press": -1, "type": "PRE_RECALL_ALERT", "trial_index": 170}, "uniqueid": "MTK2517:3EFVCAY5L4GT0ZR1QAMP7F5JQTSJ8J", "dateTime": 1517990252795}, {"current_trial": 171, "trialdata": {"rt": [3508, 7236, 10468, 13998, 17589, 22029, 25279, 28070, 33456, 38143], "recwords": ["wooman", "globe", "victim", "bubble", "piston", "chip", "garden", "world", "mamboo", "blender"], "key_times": [2316, 2436, 2597, 2605, 2757, 2932, 3508, 5597, 5878, 6093, 6582, 6732, 7236, 8724, 8852, 9085, 9415, 9677, 9837, 10468, 12061, 12229, 12702, 12844, 13397, 13550, 13998, 15388, 15621, 16038, 16477, 16597, 16910, 17589, 19885, 20167, 20575, 20967, 22029, 23158, 23350, 23711, 24094, 24254, 24735, 25279, 26583, 26805, 27021, 27366, 27663, 28070, 30390, 30814, 31735, 31951, 32183, 32350, 33456, 35974, 36191, 36424, 36847, 37071, 37255, 37423, 38143], "trial_type": "free-recall", "conditions": [12, 1600, "a", 12000], "internal_node_id": "0.0-126.0-0.0", "key_presses": [87, 79, 79, 77, 65, 78, 13, 71, 76, 79, 66, 69, 13, 86, 73, 67, 84, 73, 77, 13, 66, 85, 66, 66, 76, 69, 13, 80, 73, 83, 84, 79, 78, 13, 67, 72, 73, 80, 13, 71, 65, 82, 68, 69, 78, 13, 87, 79, 82, 76, 68, 13, 77, 65, 77, 66, 79, 79, 13, 66, 76, 69, 78, 68, 69, 82, 13], "trial": 4, "time_elapsed": 746668, "type": "FREE_RECALL", "trial_index": 171}, "uniqueid": "MTK2517:3EFVCAY5L4GT0ZR1QAMP7F5JQTSJ8J", "dateTime": 1517990312804}, {"current_trial": 172, "trialdata": {"rt": 1314, "trial_type": "text", "internal_node_id": "0.0-127.0", "time_elapsed": 749988, "key_press": 32, "type": "INSTRUCTIONS", "trial_index": 172}, "uniqueid": "MTK2517:3EFVCAY5L4GT0ZR1QAMP7F5JQTSJ8J", "dateTime": 1517990316120}, {"current_trial": 173, "trialdata": {"rt": [2598, 4414, 6637, 8854, 10446, 12038, 13773, 15862, 17558, 19559, 21719, 23415], "trial_type": "math-distractor", "key_times": [2214, 2356, 2598, 4110, 4254, 4414, 6357, 6477, 6637, 8599, 8741, 8854, 10157, 10294, 10446, 11878, 12038, 13478, 13639, 13773, 15174, 15702, 15862, 17230, 17397, 17558, 19224, 19430, 19559, 21326, 21574, 21719, 23143, 23279, 23415], "responses": ["12", "21", "21", "11", "15", "4", "20", "19", "13", "14", "12", "11"], "num2": [6, 8, 5, 1, 4, 1, 7, 4, 6, 8, 2, 3, 9], "num3": [3, 5, 7, 4, 5, 1, 6, 7, 6, 2, 4, 6, 8], "conditions": [24, 1600, "a", 24000], "internal_node_id": "0.0-128.0", "key_presses": [97, 98, 13, 98, 97, 13, 98, 97, 13, 97, 97, 13, 97, 101, 13, 100, 13, 98, 96, 13, 97, 105, 13, 97, 99, 13, 97, 100, 13, 97, 98, 13, 97, 97, 13], "trial": 5, "time_elapsed": 775990, "type": "DISTRACTOR", "trial_index": 173, "num1": [3, 8, 9, 6, 6, 3, 7, 8, 1, 4, 6, 2, 9]}, "uniqueid": "MTK2517:3EFVCAY5L4GT0ZR1QAMP7F5JQTSJ8J", "dateTime": 1517990342122}, {"current_trial": 174, "trialdata": {"rt": -1, "trial_type": "single-stim", "stimulus": "<p id=\"stim\">10</p>", "internal_node_id": "0.0-129.0-0.0", "time_elapsed": 778992, "key_press": -1, "trial_index": 174}, "uniqueid": "MTK2517:3EFVCAY5L4GT0ZR1QAMP7F5JQTSJ8J", "dateTime": 1517990345124}, {"current_trial": 175, "trialdata": {"rt": -1, "trial_type": "single-stim", "stimulus": "<p id=\"stim\">9</p>", "internal_node_id": "0.0-129.0-1.0", "time_elapsed": 779994, "key_press": -1, "trial_index": 175}, "uniqueid": "MTK2517:3EFVCAY5L4GT0ZR1QAMP7F5JQTSJ8J", "dateTime": 1517990346126}, {"current_trial": 176, "trialdata": {"rt": -1, "trial_type": "single-stim", "stimulus": "<p id=\"stim\">8</p>", "internal_node_id": "0.0-129.0-2.0", "time_elapsed": 780997, "key_press": -1, "trial_index": 176}, "uniqueid": "MTK2517:3EFVCAY5L4GT0ZR1QAMP7F5JQTSJ8J", "dateTime": 1517990347129}, {"current_trial": 177, "trialdata": {"rt": -1, "trial_type": "single-stim", "stimulus": "<p id=\"stim\">7</p>", "internal_node_id": "0.0-129.0-3.0", "time_elapsed": 781998, "key_press": -1, "trial_index": 177}, "uniqueid": "MTK2517:3EFVCAY5L4GT0ZR1QAMP7F5JQTSJ8J", "dateTime": 1517990348130}, {"current_trial": 178, "trialdata": {"rt": -1, "trial_type": "single-stim", "stimulus": "<p id=\"stim\">6</p>", "internal_node_id": "0.0-129.0-4.0", "time_elapsed": 783000, "key_press": -1, "trial_index": 178}, "uniqueid": "MTK2517:3EFVCAY5L4GT0ZR1QAMP7F5JQTSJ8J", "dateTime": 1517990349132}, {"current_trial": 179, "trialdata": {"rt": -1, "trial_type": "single-stim", "stimulus": "<p id=\"stim\">5</p>", "internal_node_id": "0.0-129.0-5.0", "time_elapsed": 784002, "key_press": -1, "trial_index": 179}, "uniqueid": "MTK2517:3EFVCAY5L4GT0ZR1QAMP7F5JQTSJ8J", "dateTime": 1517990350134}, {"current_trial": 180, "trialdata": {"rt": -1, "trial_type": "single-stim", "stimulus": "<p id=\"stim\">4</p>", "internal_node_id": "0.0-129.0-6.0", "time_elapsed": 785003, "key_press": -1, "trial_index": 180}, "uniqueid": "MTK2517:3EFVCAY5L4GT0ZR1QAMP7F5JQTSJ8J", "dateTime": 1517990351135}, {"current_trial": 181, "trialdata": {"rt": -1, "trial_type": "single-stim", "stimulus": "<p id=\"stim\">3</p>", "internal_node_id": "0.0-129.0-7.0", "time_elapsed": 786006, "key_press": -1, "trial_index": 181}, "uniqueid": "MTK2517:3EFVCAY5L4GT0ZR1QAMP7F5JQTSJ8J", "dateTime": 1517990352138}, {"current_trial": 182, "trialdata": {"rt": -1, "trial_type": "single-stim", "stimulus": "<p id=\"stim\">2</p>", "internal_node_id": "0.0-129.0-8.0", "time_elapsed": 787007, "key_press": -1, "trial_index": 182}, "uniqueid": "MTK2517:3EFVCAY5L4GT0ZR1QAMP7F5JQTSJ8J", "dateTime": 1517990353139}, {"current_trial": 183, "trialdata": {"rt": -1, "trial_type": "single-stim", "stimulus": "<p id=\"stim\">1</p>", "internal_node_id": "0.0-129.0-9.0", "time_elapsed": 788008, "key_press": -1, "trial_index": 183}, "uniqueid": "MTK2517:3EFVCAY5L4GT0ZR1QAMP7F5JQTSJ8J", "dateTime": 1517990354140}, {"current_trial": 184, "trialdata": {"rt": -1, "trial_type": "single-stim", "stimulus": "<p id=\"stim\">+</p>", "internal_node_id": "0.0-130.0-0.0", "time_elapsed": 789510, "key_press": -1, "type": "FIXATION", "trial_index": 184}, "uniqueid": "MTK2517:3EFVCAY5L4GT0ZR1QAMP7F5JQTSJ8J", "dateTime": 1517990355642}, {"current_trial": 185, "trialdata": {"rt": -1000, "trial_type": "single-audio", "word": "lake", "stimulus": "/static/audio/wordpool/LAKE.wav", "conditions": [24, 1600, "a", 24000], "internal_node_id": "0.0-131.0", "trial": 5, "time_elapsed": 792292, "serialpos": 0, "key_press": -1, "wordID": 795, "type": "PRES_AUD", "trial_index": 185}, "uniqueid": "MTK2517:3EFVCAY5L4GT0ZR1QAMP7F5JQTSJ8J", "dateTime": 1517990358426}, {"current_trial": 186, "trialdata": {"rt": -1000, "trial_type": "single-audio", "word": "spouse", "stimulus": "/static/audio/wordpool/SPOUSE.wav", "conditions": [24, 1600, "a", 24000], "internal_node_id": "0.0-132.0", "trial": 5, "time_elapsed": 795093, "serialpos": 1, "key_press": -1, "wordID": 1357, "type": "PRES_AUD", "trial_index": 186}, "uniqueid": "MTK2517:3EFVCAY5L4GT0ZR1QAMP7F5JQTSJ8J", "dateTime": 1517990361225}, {"current_trial": 187, "trialdata": {"rt": -1000, "trial_type": "single-audio", "word": "briefcase", "stimulus": "/static/audio/wordpool/BRIEFCASE.wav", "conditions": [24, 1600, "a", 24000], "internal_node_id": "0.0-133.0", "trial": 5, "time_elapsed": 797590, "serialpos": 2, "key_press": -1, "wordID": 174, "type": "PRES_AUD", "trial_index": 187}, "uniqueid": "MTK2517:3EFVCAY5L4GT0ZR1QAMP7F5JQTSJ8J", "dateTime": 1517990363722}, {"current_trial": 188, "trialdata": {"rt": -1000, "trial_type": "single-audio", "word": "rifle", "stimulus": "/static/audio/wordpool/RIFLE.wav", "conditions": [24, 1600, "a", 24000], "internal_node_id": "0.0-134.0", "trial": 5, "time_elapsed": 800139, "serialpos": 3, "key_press": -1, "wordID": 1191, "type": "PRES_AUD", "trial_index": 188}, "uniqueid": "MTK2517:3EFVCAY5L4GT0ZR1QAMP7F5JQTSJ8J", "dateTime": 1517990366271}, {"current_trial": 189, "trialdata": {"rt": -1000, "trial_type": "single-audio", "word": "snake", "stimulus": "/static/audio/wordpool/SNAKE.wav", "conditions": [24, 1600, "a", 24000], "internal_node_id": "0.0-135.0", "trial": 5, "time_elapsed": 802877, "serialpos": 4, "key_press": -1, "wordID": 1332, "type": "PRES_AUD", "trial_index": 189}, "uniqueid": "MTK2517:3EFVCAY5L4GT0ZR1QAMP7F5JQTSJ8J", "dateTime": 1517990369009}, {"current_trial": 190, "trialdata": {"rt": -1000, "trial_type": "single-audio", "word": "church", "stimulus": "/static/audio/wordpool/CHURCH.wav", "conditions": [24, 1600, "a", 24000], "internal_node_id": "0.0-136.0", "trial": 5, "time_elapsed": 805404, "serialpos": 5, "key_press": -1, "wordID": 306, "type": "PRES_AUD", "trial_index": 190}, "uniqueid": "MTK2517:3EFVCAY5L4GT0ZR1QAMP7F5JQTSJ8J", "dateTime": 1517990371536}, {"current_trial": 191, "trialdata": {"rt": -1000, "trial_type": "single-audio", "word": "chapel", "stimulus": "/static/audio/wordpool/CHAPEL.wav", "conditions": [24, 1600, "a", 24000], "internal_node_id": "0.0-137.0", "trial": 5, "time_elapsed": 808015, "serialpos": 6, "key_press": -1, "wordID": 279, "type": "PRES_AUD", "trial_index": 191}, "uniqueid": "MTK2517:3EFVCAY5L4GT0ZR1QAMP7F5JQTSJ8J", "dateTime": 1517990374147}, {"current_trial": 192, "trialdata": {"rt": -1000, "trial_type": "single-audio", "word": "brick", "stimulus": "/static/audio/wordpool/BRICK.wav", "conditions": [24, 1600, "a", 24000], "internal_node_id": "0.0-138.0", "trial": 5, "time_elapsed": 810440, "serialpos": 7, "key_press": -1, "wordID": 171, "type": "PRES_AUD", "trial_index": 192}, "uniqueid": "MTK2517:3EFVCAY5L4GT0ZR1QAMP7F5JQTSJ8J", "dateTime": 1517990376572}, {"current_trial": 193, "trialdata": {"rt": -1000, "trial_type": "single-audio", "word": "actress", "stimulus": "/static/audio/wordpool/ACTRESS.wav", "conditions": [24, 1600, "a", 24000], "internal_node_id": "0.0-139.0", "trial": 5, "time_elapsed": 812844, "serialpos": 8, "key_press": -1, "wordID": 5, "type": "PRES_AUD", "trial_index": 193}, "uniqueid": "MTK2517:3EFVCAY5L4GT0ZR1QAMP7F5JQTSJ8J", "dateTime": 1517990378976}, {"current_trial": 194, "trialdata": {"rt": -1000, "trial_type": "single-audio", "word": "supper", "stimulus": "/static/audio/wordpool/SUPPER.wav", "conditions": [24, 1600, "a", 24000], "internal_node_id": "0.0-140.0", "trial": 5, "time_elapsed": 815600, "serialpos": 9, "key_press": -1, "wordID": 1410, "type": "PRES_AUD", "trial_index": 194}, "uniqueid": "MTK2517:3EFVCAY5L4GT0ZR1QAMP7F5JQTSJ8J", "dateTime": 1517990381732}, {"current_trial": 195, "trialdata": {"rt": -1000, "trial_type": "single-audio", "word": "playground", "stimulus": "/static/audio/wordpool/PLAYGROUND.wav", "conditions": [24, 1600, "a", 24000], "internal_node_id": "0.0-141.0", "trial": 5, "time_elapsed": 818067, "serialpos": 10, "key_press": -1, "wordID": 1086, "type": "PRES_AUD", "trial_index": 195}, "uniqueid": "MTK2517:3EFVCAY5L4GT0ZR1QAMP7F5JQTSJ8J", "dateTime": 1517990384199}, {"current_trial": 196, "trialdata": {"rt": -1000, "trial_type": "single-audio", "word": "stone", "stimulus": "/static/audio/wordpool/STONE.wav", "conditions": [24, 1600, "a", 24000], "internal_node_id": "0.0-142.0", "trial": 5, "time_elapsed": 820764, "serialpos": 11, "key_press": -1, "wordID": 1384, "type": "PRES_AUD", "trial_index": 196}, "uniqueid": "MTK2517:3EFVCAY5L4GT0ZR1QAMP7F5JQTSJ8J", "dateTime": 1517990386896}, {"current_trial": 197, "trialdata": {"rt": -1000, "trial_type": "single-audio", "word": "leg", "stimulus": "/static/audio/wordpool/LEG.wav", "conditions": [24, 1600, "a", 24000], "internal_node_id": "0.0-143.0", "trial": 5, "time_elapsed": 823525, "serialpos": 12, "key_press": -1, "wordID": 808, "type": "PRES_AUD", "trial_index": 197}, "uniqueid": "MTK2517:3EFVCAY5L4GT0ZR1QAMP7F5JQTSJ8J", "dateTime": 1517990389657}, {"current_trial": 198, "trialdata": {"rt": -1000, "trial_type": "single-audio", "word": "europe", "stimulus": "/static/audio/wordpool/EUROPE.wav", "conditions": [24, 1600, "a", 24000], "internal_node_id": "0.0-144.0", "trial": 5, "time_elapsed": 826190, "serialpos": 13, "key_press": -1, "wordID": 540, "type": "PRES_AUD", "trial_index": 198}, "uniqueid": "MTK2517:3EFVCAY5L4GT0ZR1QAMP7F5JQTSJ8J", "dateTime": 1517990392322}, {"current_trial": 199, "trialdata": {"rt": -1000, "trial_type": "single-audio", "word": "japan", "stimulus": "/static/audio/wordpool/JAPAN.wav", "conditions": [24, 1600, "a", 24000], "internal_node_id": "0.0-145.0", "trial": 5, "time_elapsed": 828633, "serialpos": 14, "key_press": -1, "wordID": 748, "type": "PRES_AUD", "trial_index": 199}, "uniqueid": "MTK2517:3EFVCAY5L4GT0ZR1QAMP7F5JQTSJ8J", "dateTime": 1517990394765}, {"current_trial": 200, "trialdata": {"rt": -1000, "trial_type": "single-audio", "word": "marsh", "stimulus": "/static/audio/wordpool/MARSH.wav", "conditions": [24, 1600, "a", 24000], "internal_node_id": "0.0-146.0", "trial": 5, "time_elapsed": 831331, "serialpos": 15, "key_press": -1, "wordID": 873, "type": "PRES_AUD", "trial_index": 200}, "uniqueid": "MTK2517:3EFVCAY5L4GT0ZR1QAMP7F5JQTSJ8J", "dateTime": 1517990397463}, {"current_trial": 201, "trialdata": {"rt": -1000, "trial_type": "single-audio", "word": "peach", "stimulus": "/static/audio/wordpool/PEACH.wav", "conditions": [24, 1600, "a", 24000], "internal_node_id": "0.0-147.0", "trial": 5, "time_elapsed": 833824, "serialpos": 16, "key_press": -1, "wordID": 1030, "type": "PRES_AUD", "trial_index": 201}, "uniqueid": "MTK2517:3EFVCAY5L4GT0ZR1QAMP7F5JQTSJ8J", "dateTime": 1517990399957}, {"current_trial": 202, "trialdata": {"rt": -1000, "trial_type": "single-audio", "word": "bunny", "stimulus": "/static/audio/wordpool/BUNNY.wav", "conditions": [24, 1600, "a", 24000], "internal_node_id": "0.0-148.0", "trial": 5, "time_elapsed": 836399, "serialpos": 17, "key_press": -1, "wordID": 197, "type": "PRES_AUD", "trial_index": 202}, "uniqueid": "MTK2517:3EFVCAY5L4GT0ZR1QAMP7F5JQTSJ8J", "dateTime": 1517990402531}, {"current_trial": 203, "trialdata": {"rt": -1000, "trial_type": "single-audio", "word": "turtle", "stimulus": "/static/audio/wordpool/TURTLE.wav", "conditions": [24, 1600, "a", 24000], "internal_node_id": "0.0-149.0", "trial": 5, "time_elapsed": 839027, "serialpos": 18, "key_press": -1, "wordID": 1521, "type": "PRES_AUD", "trial_index": 203}, "uniqueid": "MTK2517:3EFVCAY5L4GT0ZR1QAMP7F5JQTSJ8J", "dateTime": 1517990405159}, {"current_trial": 204, "trialdata": {"rt": -1000, "trial_type": "single-audio", "word": "lagoon", "stimulus": "/static/audio/wordpool/LAGOON.wav", "conditions": [24, 1600, "a", 24000], "internal_node_id": "0.0-150.0", "trial": 5, "time_elapsed": 841705, "serialpos": 19, "key_press": -1, "wordID": 794, "type": "PRES_AUD", "trial_index": 204}, "uniqueid": "MTK2517:3EFVCAY5L4GT0ZR1QAMP7F5JQTSJ8J", "dateTime": 1517990407837}, {"current_trial": 205, "trialdata": {"rt": -1000, "trial_type": "single-audio", "word": "trombone", "stimulus": "/static/audio/wordpool/TROMBONE.wav", "conditions": [24, 1600, "a", 24000], "internal_node_id": "0.0-151.0", "trial": 5, "time_elapsed": 844269, "serialpos": 20, "key_press": -1, "wordID": 1507, "type": "PRES_AUD", "trial_index": 205}, "uniqueid": "MTK2517:3EFVCAY5L4GT0ZR1QAMP7F5JQTSJ8J", "dateTime": 1517990410401}, {"current_trial": 206, "trialdata": {"rt": -1000, "trial_type": "single-audio", "word": "fleet", "stimulus": "/static/audio/wordpool/FLEET.wav", "conditions": [24, 1600, "a", 24000], "internal_node_id": "0.0-152.0", "trial": 5, "time_elapsed": 846909, "serialpos": 21, "key_press": -1, "wordID": 577, "type": "PRES_AUD", "trial_index": 206}, "uniqueid": "MTK2517:3EFVCAY5L4GT0ZR1QAMP7F5JQTSJ8J", "dateTime": 1517990413041}, {"current_trial": 207, "trialdata": {"rt": -1000, "trial_type": "single-audio", "word": "bouquet", "stimulus": "/static/audio/wordpool/BOUQUET.wav", "conditions": [24, 1600, "a", 24000], "internal_node_id": "0.0-153.0", "trial": 5, "time_elapsed": 849401, "serialpos": 22, "key_press": -1, "wordID": 156, "type": "PRES_AUD", "trial_index": 207}, "uniqueid": "MTK2517:3EFVCAY5L4GT0ZR1QAMP7F5JQTSJ8J", "dateTime": 1517990415533}, {"current_trial": 208, "trialdata": {"rt": -1000, "trial_type": "single-audio", "word": "machine", "stimulus": "/static/audio/wordpool/MACHINE.wav", "conditions": [24, 1600, "a", 24000], "internal_node_id": "0.0-154.0", "trial": 5, "time_elapsed": 852022, "serialpos": 23, "key_press": -1, "wordID": 851, "type": "PRES_AUD", "trial_index": 208}, "uniqueid": "MTK2517:3EFVCAY5L4GT0ZR1QAMP7F5JQTSJ8J", "dateTime": 1517990418154}, {"current_trial": 209, "trialdata": {"rt": -1, "trial_type": "single-stim", "stimulus": "", "internal_node_id": "0.0-155.0-0.0", "time_elapsed": 853327, "key_press": -1, "type": "PRE_RECALL_DELAY", "trial_index": 209}, "uniqueid": "MTK2517:3EFVCAY5L4GT0ZR1QAMP7F5JQTSJ8J", "dateTime": 1517990419460}, {"current_trial": 210, "trialdata": {"rt": -1000, "trial_type": "single-audio", "stimulus": "/static/audio/400Hz.wav", "internal_node_id": "0.0-156.0", "time_elapsed": 853829, "key_press": -1, "type": "PRE_RECALL_ALERT", "trial_index": 210}, "uniqueid": "MTK2517:3EFVCAY5L4GT0ZR1QAMP7F5JQTSJ8J", "dateTime": 1517990419962}, {"current_trial": 211, "trialdata": {"rt": [3689, 7386, 11946, 15345, 20474, 23315, 26419, 28708, 32723, 37027, 41643, 44532, 48469, 50620, 55148, 57532], "recwords": ["machine", "bouque", "marsh", "lake", "breifcase", "snake", "church", "chappel", "actress", "supper", "playground", "leg", "japan", "europe", "peech", "bunny"], "key_times": [2163, 2297, 2720, 2987, 3129, 3345, 3490, 3689, 4497, 4675, 4825, 5913, 6161, 6386, 7386, 8970, 9113, 9668, 10114, 10385, 11946, 12379, 12507, 12714, 12738, 12889, 13642, 13827, 14218, 14689, 14826, 15345, 17927, 18274, 18434, 18730, 19137, 19499, 19643, 19899, 20074, 20474, 21843, 22076, 22203, 22531, 22691, 23315, 23699, 24030, 24163, 24404, 24687, 25035, 26419, 26875, 27092, 27219, 27628, 27788, 27899, 28163, 28708, 30668, 30915, 31324, 31587, 31739, 31970, 32131, 32723, 34890, 35146, 35620, 35803, 36052, 36115, 37027, 38316, 38476, 38684, 39020, 39595, 39812, 40275, 40509, 40964, 41164, 41643, 43428, 43620, 44044, 44532, 47037, 47165, 47532, 47677, 47925, 48469, 48803, 49213, 49588, 49811, 49988, 50220, 50620, 53718, 53924, 54099, 54332, 54612, 55148, 55860, 56036, 56349, 56524, 56732, 57532, 58892, 59140, 59511, 59677, 59852], "trial_type": "free-recall", "conditions": [24, 1600, "a", 24000], "internal_node_id": "0.0-157.0-0.0", "key_presses": [77, 65, 67, 72, 73, 78, 69, 32, 66, 79, 85, 81, 85, 69, 13, 77, 65, 82, 83, 72, 13, 76, 65, 76, 75, 69, 8, 8, 8, 75, 69, 13, 66, 82, 69, 73, 70, 67, 65, 83, 69, 13, 83, 78, 65, 75, 69, 13, 67, 72, 85, 82, 67, 72, 13, 67, 72, 65, 80, 80, 69, 76, 13, 65, 67, 84, 82, 69, 83, 83, 13, 83, 85, 80, 80, 69, 82, 13, 80, 76, 65, 89, 71, 82, 79, 85, 78, 68, 13, 76, 69, 71, 13, 74, 65, 80, 65, 78, 13, 69, 85, 82, 79, 80, 69, 13, 80, 69, 69, 67, 72, 13, 66, 85, 78, 78, 89, 13, 76, 65, 71, 79, 79], "trial": 5, "time_elapsed": 913833, "type": "FREE_RECALL", "trial_index": 211}, "uniqueid": "MTK2517:3EFVCAY5L4GT0ZR1QAMP7F5JQTSJ8J", "dateTime": 1517990479976}, {"current_trial": 212, "trialdata": {"rt": 3447, "trial_type": "text", "internal_node_id": "0.0-158.0", "time_elapsed": 919293, "key_press": 32, "type": "INSTRUCTIONS", "trial_index": 212}, "uniqueid": "MTK2517:3EFVCAY5L4GT0ZR1QAMP7F5JQTSJ8J", "dateTime": 1517990485425}, {"current_trial": 213, "trialdata": {"rt": [2277, 5005, 7717, 10421, 13078, 14615, 19166, 23823], "trial_type": "math-distractor", "key_times": [1765, 1901, 2277, 4533, 4796, 5005, 7278, 7494, 7717, 9911, 10191, 10421, 12662, 12878, 13078, 14277, 14458, 14615, 16567, 16750, 18421, 18999, 19166, 23498, 23662, 23823], "responses": ["13", "15", "19", "16", "18", "10", "22", "16"], "num2": [6, 6, 5, 7, 5, 7, 8, 2, 9], "num3": [6, 1, 6, 3, 6, 2, 8, 9, 5], "conditions": [12, 1600, "a", 24000], "internal_node_id": "0.0-159.0", "key_presses": [97, 99, 13, 97, 101, 13, 97, 105, 13, 97, 102, 13, 97, 104, 13, 97, 96, 13, 98, 100, 8, 98, 13, 97, 102, 13], "trial": 6, "time_elapsed": 945297, "type": "DISTRACTOR", "trial_index": 213, "num1": [1, 7, 8, 6, 7, 1, 6, 5, 9]}, "uniqueid": "MTK2517:3EFVCAY5L4GT0ZR1QAMP7F5JQTSJ8J", "dateTime": 1517990511429}, {"current_trial": 214, "trialdata": {"rt": -1, "trial_type": "single-stim", "stimulus": "<p id=\"stim\">10</p>", "internal_node_id": "0.0-160.0-0.0", "time_elapsed": 948299, "key_press": -1, "trial_index": 214}, "uniqueid": "MTK2517:3EFVCAY5L4GT0ZR1QAMP7F5JQTSJ8J", "dateTime": 1517990514431}, {"current_trial": 215, "trialdata": {"rt": -1, "trial_type": "single-stim", "stimulus": "<p id=\"stim\">9</p>", "internal_node_id": "0.0-160.0-1.0", "time_elapsed": 949299, "key_press": -1, "trial_index": 215}, "uniqueid": "MTK2517:3EFVCAY5L4GT0ZR1QAMP7F5JQTSJ8J", "dateTime": 1517990515433}, {"current_trial": 216, "trialdata": {"rt": -1, "trial_type": "single-stim", "stimulus": "<p id=\"stim\">8</p>", "internal_node_id": "0.0-160.0-2.0", "time_elapsed": 950301, "key_press": -1, "trial_index": 216}, "uniqueid": "MTK2517:3EFVCAY5L4GT0ZR1QAMP7F5JQTSJ8J", "dateTime": 1517990516433}, {"current_trial": 217, "trialdata": {"rt": -1, "trial_type": "single-stim", "stimulus": "<p id=\"stim\">7</p>", "internal_node_id": "0.0-160.0-3.0", "time_elapsed": 951302, "key_press": -1, "trial_index": 217}, "uniqueid": "MTK2517:3EFVCAY5L4GT0ZR1QAMP7F5JQTSJ8J", "dateTime": 1517990517434}, {"current_trial": 218, "trialdata": {"rt": -1, "trial_type": "single-stim", "stimulus": "<p id=\"stim\">6</p>", "internal_node_id": "0.0-160.0-4.0", "time_elapsed": 952302, "key_press": -1, "trial_index": 218}, "uniqueid": "MTK2517:3EFVCAY5L4GT0ZR1QAMP7F5JQTSJ8J", "dateTime": 1517990518436}, {"current_trial": 219, "trialdata": {"rt": -1, "trial_type": "single-stim", "stimulus": "<p id=\"stim\">5</p>", "internal_node_id": "0.0-160.0-5.0", "time_elapsed": 953304, "key_press": -1, "trial_index": 219}, "uniqueid": "MTK2517:3EFVCAY5L4GT0ZR1QAMP7F5JQTSJ8J", "dateTime": 1517990519438}, {"current_trial": 220, "trialdata": {"rt": -1, "trial_type": "single-stim", "stimulus": "<p id=\"stim\">4</p>", "internal_node_id": "0.0-160.0-6.0", "time_elapsed": 954305, "key_press": -1, "trial_index": 220}, "uniqueid": "MTK2517:3EFVCAY5L4GT0ZR1QAMP7F5JQTSJ8J", "dateTime": 1517990520438}, {"current_trial": 221, "trialdata": {"rt": -1, "trial_type": "single-stim", "stimulus": "<p id=\"stim\">3</p>", "internal_node_id": "0.0-160.0-7.0", "time_elapsed": 955307, "key_press": -1, "trial_index": 221}, "uniqueid": "MTK2517:3EFVCAY5L4GT0ZR1QAMP7F5JQTSJ8J", "dateTime": 1517990521441}, {"current_trial": 222, "trialdata": {"rt": -1, "trial_type": "single-stim", "stimulus": "<p id=\"stim\">2</p>", "internal_node_id": "0.0-160.0-8.0", "time_elapsed": 956308, "key_press": -1, "trial_index": 222}, "uniqueid": "MTK2517:3EFVCAY5L4GT0ZR1QAMP7F5JQTSJ8J", "dateTime": 1517990522441}, {"current_trial": 223, "trialdata": {"rt": -1, "trial_type": "single-stim", "stimulus": "<p id=\"stim\">1</p>", "internal_node_id": "0.0-160.0-9.0", "time_elapsed": 957311, "key_press": -1, "trial_index": 223}, "uniqueid": "MTK2517:3EFVCAY5L4GT0ZR1QAMP7F5JQTSJ8J", "dateTime": 1517990523443}, {"current_trial": 224, "trialdata": {"rt": -1, "trial_type": "single-stim", "stimulus": "<p id=\"stim\">+</p>", "internal_node_id": "0.0-161.0-0.0", "time_elapsed": 958813, "key_press": -1, "type": "FIXATION", "trial_index": 224}, "uniqueid": "MTK2517:3EFVCAY5L4GT0ZR1QAMP7F5JQTSJ8J", "dateTime": 1517990524945}, {"current_trial": 225, "trialdata": {"rt": -1000, "trial_type": "single-audio", "word": "fruit", "stimulus": "/static/audio/wordpool/FRUIT.wav", "conditions": [12, 1600, "a", 24000], "internal_node_id": "0.0-162.0", "trial": 6, "time_elapsed": 961386, "serialpos": 0, "key_press": -1, "wordID": 609, "type": "PRES_AUD", "trial_index": 225}, "uniqueid": "MTK2517:3EFVCAY5L4GT0ZR1QAMP7F5JQTSJ8J", "dateTime": 1517990527518}, {"current_trial": 226, "trialdata": {"rt": -1000, "trial_type": "single-audio", "word": "razor", "stimulus": "/static/audio/wordpool/RAZOR.wav", "conditions": [12, 1600, "a", 24000], "internal_node_id": "0.0-163.0", "trial": 6, "time_elapsed": 963873, "serialpos": 1, "key_press": -1, "wordID": 1170, "type": "PRES_AUD", "trial_index": 226}, "uniqueid": "MTK2517:3EFVCAY5L4GT0ZR1QAMP7F5JQTSJ8J", "dateTime": 1517990530005}, {"current_trial": 227, "trialdata": {"rt": -1000, "trial_type": "single-audio", "word": "crib", "stimulus": "/static/audio/wordpool/CRIB.wav", "conditions": [12, 1600, "a", 24000], "internal_node_id": "0.0-164.0", "trial": 6, "time_elapsed": 966338, "serialpos": 2, "key_press": -1, "wordID": 406, "type": "PRES_AUD", "trial_index": 227}, "uniqueid": "MTK2517:3EFVCAY5L4GT0ZR1QAMP7F5JQTSJ8J", "dateTime": 1517990532470}, {"current_trial": 228, "trialdata": {"rt": -1000, "trial_type": "single-audio", "word": "baby", "stimulus": "/static/audio/wordpool/BABY.wav", "conditions": [12, 1600, "a", 24000], "internal_node_id": "0.0-165.0", "trial": 6, "time_elapsed": 968879, "serialpos": 3, "key_press": -1, "wordID": 63, "type": "PRES_AUD", "trial_index": 228}, "uniqueid": "MTK2517:3EFVCAY5L4GT0ZR1QAMP7F5JQTSJ8J", "dateTime": 1517990535011}, {"current_trial": 229, "trialdata": {"rt": -1000, "trial_type": "single-audio", "word": "velvet", "stimulus": "/static/audio/wordpool/VELVET.wav", "conditions": [12, 1600, "a", 24000], "internal_node_id": "0.0-166.0", "trial": 6, "time_elapsed": 971368, "serialpos": 4, "key_press": -1, "wordID": 1554, "type": "PRES_AUD", "trial_index": 229}, "uniqueid": "MTK2517:3EFVCAY5L4GT0ZR1QAMP7F5JQTSJ8J", "dateTime": 1517990537500}, {"current_trial": 230, "trialdata": {"rt": -1000, "trial_type": "single-audio", "word": "stream", "stimulus": "/static/audio/wordpool/STREAM.wav", "conditions": [12, 1600, "a", 24000], "internal_node_id": "0.0-167.0", "trial": 6, "time_elapsed": 974039, "serialpos": 5, "key_press": -1, "wordID": 1391, "type": "PRES_AUD", "trial_index": 230}, "uniqueid": "MTK2517:3EFVCAY5L4GT0ZR1QAMP7F5JQTSJ8J", "dateTime": 1517990540171}, {"current_trial": 231, "trialdata": {"rt": -1000, "trial_type": "single-audio", "word": "poet", "stimulus": "/static/audio/wordpool/POET.wav", "conditions": [12, 1600, "a", 24000], "internal_node_id": "0.0-168.0", "trial": 6, "time_elapsed": 976789, "serialpos": 6, "key_press": -1, "wordID": 1094, "type": "PRES_AUD", "trial_index": 231}, "uniqueid": "MTK2517:3EFVCAY5L4GT0ZR1QAMP7F5JQTSJ8J", "dateTime": 1517990542922}, {"current_trial": 232, "trialdata": {"rt": -1000, "trial_type": "single-audio", "word": "portrait", "stimulus": "/static/audio/wordpool/PORTRAIT.wav", "conditions": [12, 1600, "a", 24000], "internal_node_id": "0.0-169.0", "trial": 6, "time_elapsed": 979404, "serialpos": 7, "key_press": -1, "wordID": 1110, "type": "PRES_AUD", "trial_index": 232}, "uniqueid": "MTK2517:3EFVCAY5L4GT0ZR1QAMP7F5JQTSJ8J", "dateTime": 1517990545536}, {"current_trial": 233, "trialdata": {"rt": -1000, "trial_type": "single-audio", "word": "silk", "stimulus": "/static/audio/wordpool/SILK.wav", "conditions": [12, 1600, "a", 24000], "internal_node_id": "0.0-170.0", "trial": 6, "time_elapsed": 982060, "serialpos": 8, "key_press": -1, "wordID": 1306, "type": "PRES_AUD", "trial_index": 233}, "uniqueid": "MTK2517:3EFVCAY5L4GT0ZR1QAMP7F5JQTSJ8J", "dateTime": 1517990548192}, {"current_trial": 234, "trialdata": {"rt": -1000, "trial_type": "single-audio", "word": "pimple", "stimulus": "/static/audio/wordpool/PIMPLE.wav", "conditions": [12, 1600, "a", 24000], "internal_node_id": "0.0-171.0", "trial": 6, "time_elapsed": 984486, "serialpos": 9, "key_press": -1, "wordID": 1070, "type": "PRES_AUD", "trial_index": 234}, "uniqueid": "MTK2517:3EFVCAY5L4GT0ZR1QAMP7F5JQTSJ8J", "dateTime": 1517990550618}, {"current_trial": 235, "trialdata": {"rt": -1000, "trial_type": "single-audio", "word": "sausage", "stimulus": "/static/audio/wordpool/SAUSAGE.wav", "conditions": [12, 1600, "a", 24000], "internal_node_id": "0.0-172.0", "trial": 6, "time_elapsed": 987098, "serialpos": 10, "key_press": -1, "wordID": 1237, "type": "PRES_AUD", "trial_index": 235}, "uniqueid": "MTK2517:3EFVCAY5L4GT0ZR1QAMP7F5JQTSJ8J", "dateTime": 1517990553230}, {"current_trial": 236, "trialdata": {"rt": -1000, "trial_type": "single-audio", "word": "bathtub", "stimulus": "/static/audio/wordpool/BATHTUB.wav", "conditions": [12, 1600, "a", 24000], "internal_node_id": "0.0-173.0", "trial": 6, "time_elapsed": 989521, "serialpos": 11, "key_press": -1, "wordID": 99, "type": "PRES_AUD", "trial_index": 236}, "uniqueid": "MTK2517:3EFVCAY5L4GT0ZR1QAMP7F5JQTSJ8J", "dateTime": 1517990555653}, {"current_trial": 237, "trialdata": {"rt": -1, "trial_type": "single-stim", "stimulus": "", "internal_node_id": "0.0-174.0-0.0", "time_elapsed": 990854, "key_press": -1, "type": "PRE_RECALL_DELAY", "trial_index": 237}, "uniqueid": "MTK2517:3EFVCAY5L4GT0ZR1QAMP7F5JQTSJ8J", "dateTime": 1517990556986}, {"current_trial": 238, "trialdata": {"rt": -1000, "trial_type": "single-audio", "stimulus": "/static/audio/400Hz.wav", "internal_node_id": "0.0-175.0", "time_elapsed": 991356, "key_press": -1, "type": "PRE_RECALL_ALERT", "trial_index": 238}, "uniqueid": "MTK2517:3EFVCAY5L4GT0ZR1QAMP7F5JQTSJ8J", "dateTime": 1517990557488}, {"current_trial": 239, "trialdata": {"rt": [3363, 5411, 8027, 12363, 15531, 17940, 21100, 25805, 29718, 34517, 38348, 42493, 46573], "recwords": ["bathtub", "silk", "baby", "pimple", "fruit", "razor", "grip", "poly", "portrait", "steam", "sauce", "bathtub", "grip"], "key_times": [1275, 1411, 1762, 1859, 2266, 2554, 3051, 3363, 3835, 4058, 4299, 4787, 5411, 5867, 6002, 6154, 6475, 8027, 10178, 10564, 11180, 11420, 11619, 11818, 12363, 13570, 13772, 14115, 14292, 14507, 15531, 16276, 16437, 17141, 17308, 17492, 17940, 18684, 18853, 19252, 19828, 21100, 23884, 24035, 24299, 24828, 25805, 26804, 26932, 27323, 27620, 28203, 28478, 28699, 28877, 29718, 32933, 33269, 33541, 33692, 33974, 34517, 36964, 37085, 37541, 37764, 37901, 38348, 40501, 40668, 40893, 41068, 41381, 41653, 42220, 42493, 45190, 45317, 45669, 45869, 46573], "trial_type": "free-recall", "conditions": [12, 1600, "a", 24000], "internal_node_id": "0.0-176.0-0.0", "key_presses": [66, 65, 84, 72, 84, 85, 66, 13, 83, 73, 76, 75, 13, 66, 65, 66, 89, 13, 80, 73, 77, 80, 76, 69, 13, 70, 82, 85, 73, 84, 13, 82, 65, 90, 79, 82, 13, 71, 82, 73, 80, 13, 80, 79, 76, 89, 13, 80, 79, 82, 84, 82, 65, 73, 84, 13, 83, 84, 69, 65, 77, 13, 83, 65, 85, 67, 69, 13, 66, 65, 84, 72, 84, 85, 66, 13, 71, 82, 73, 80, 13], "trial": 6, "time_elapsed": 1051359, "type": "FREE_RECALL", "trial_index": 239}, "uniqueid": "MTK2517:3EFVCAY5L4GT0ZR1QA