{"assignmentId": "3QILPRALQ62PJPIM58EH0MM0YE88NO", "workerId": "MTK2289", "questiondata": {"origin": "United States", "strat-rehearsal": "87", "marital": "Single", "education": "Some college", "ethnicity": "Not Hispanic", "color_depth": 24, "distracted": "No", "wrote-notes": "Yes", "strat-other": "", "screen_width": 1366, "avail_screen_width": 1366, "avail_screen_height": 728, "strat-image": "78", "language": "English", "gender": "Female", "age": "19", "gender_other": "", "race": ["White"], "strat-categorize": "89", "pixel_depth": 24, "strat-spatial": "5", "strat-story": "7", "race_other": "", "screen_height": 768}, "bonus": 0, "hitId": "37G6BXQPLQSP837B81NW76H7V0EEQN", "counterbalance": 767, "useragent": "Mozilla/5.0 (Windows NT 10.0; Win64; x64) AppleWebKit/537.36 (KHTML, like Gecko) Chrome/63.0.3239.132 Safari/537.36", "eventdata": [{"eventtype": "initialized", "interval": 0, "value": null, "timestamp": 1516918113398}, {"eventtype": "window_resize", "interval": 0, "value": [1366, 721], "timestamp": 1516918113398}, {"eventtype": "window_resize", "interval": 133468, "value": [1366, 677], "timestamp": 1516918246866}, {"eventtype": "focus", "interval": 2444772, "value": "off", "timestamp": 1516920691638}, {"eventtype": "focus", "interval": 2776, "value": "on", "timestamp": 1516920694414}], "data": [{"current_trial": 0, "trialdata": {"rt": 2760, "trial_type": "text", "internal_node_id": "0.0-0.0", "time_elapsed": 2765, "key_press": 75, "type": "INSTRUCTIONS", "trial_index": 0}, "uniqueid": "MTK2289:3QILPRALQ62PJPIM58EH0MM0YE88NO", "dateTime": 1516918171517}, {"current_trial": 1, "trialdata": {"rt": 3451, "trial_type": "text", "internal_node_id": "0.0-1.0", "time_elapsed": 6220, "key_press": 174, "type": "INSTRUCTIONS", "trial_index": 1}, "uniqueid": "MTK2289:3QILPRALQ62PJPIM58EH0MM0YE88NO", "dateTime": 1516918174971}, {"current_trial": 2, "trialdata": {"rt": [9780], "trial_type": "audio-test", "responses": ["ocean"], "internal_node_id": "0.0-2.0", "time_elapsed": 16028, "type": "AUDIO_TEST", "trial_index": 2}, "uniqueid": "MTK2289:3QILPRALQ62PJPIM58EH0MM0YE88NO", "dateTime": 1516918184779}, {"current_trial": 3, "trialdata": {"rt": [5722], "trial_type": "audio-test", "responses": ["crystal"], "internal_node_id": "0.0-3.0", "time_elapsed": 21760, "type": "AUDIO_TEST", "trial_index": 3}, "uniqueid": "MTK2289:3QILPRALQ62PJPIM58EH0MM0YE88NO", "dateTime": 1516918190511}, {"current_trial": 4, "trialdata": {"rt": [4086], "trial_type": "audio-test", "responses": ["spice"], "internal_node_id": "0.0-4.0", "time_elapsed": 25855, "type": "AUDIO_TEST", "trial_index": 4}, "uniqueid": "MTK2289:3QILPRALQ62PJPIM58EH0MM0YE88NO", "dateTime": 1516918194606}, {"current_trial": 5, "trialdata": {"rt": 21196, "trial_type": "survey-text", "responses": "{\"Q0\":\"2 am\",\"Q1\":\"10 am\",\"Q2\":\"4\"}", "internal_node_id": "0.0-5.0", "time_elapsed": 47806, "type": "SLEEP_SURVEY", "trial_index": 5}, "uniqueid": "MTK2289:3QILPRALQ62PJPIM58EH0MM0YE88NO", "dateTime": 1516918216557}, {"current_trial": 6, "trialdata": {"rt": 32598, "trial_type": "text", "internal_node_id": "0.0-6.0", "time_elapsed": 81407, "key_press": 32, "type": "INSTRUCTIONS", "trial_index": 6}, "uniqueid": "MTK2289:3QILPRALQ62PJPIM58EH0MM0YE88NO", "dateTime": 1516918250158}, {"current_trial": 7, "trialdata": {"rt": 14723, "trial_type": "text", "internal_node_id": "0.0-7.0", "time_elapsed": 96632, "key_press": 32, "type": "INSTRUCTIONS", "trial_index": 7}, "uniqueid": "MTK2289:3QILPRALQ62PJPIM58EH0MM0YE88NO", "dateTime": 1516918265383}, {"current_trial": 8, "trialdata": {"rt": 6470, "trial_type": "text", "internal_node_id": "0.0-8.0", "time_elapsed": 103604, "key_press": 32, "type": "INSTRUCTIONS", "trial_index": 8}, "uniqueid": "MTK2289:3QILPRALQ62PJPIM58EH0MM0YE88NO", "dateTime": 1516918272356}, {"current_trial": 9, "trialdata": {"rt": [4773, 8608, 10926, 13665, 16835], "trial_type": "math-distractor", "key_times": [3387, 3726, 4773, 7185, 7316, 8608, 10268, 10538, 10926, 12245, 12956, 13665, 14971, 15529, 16001, 16439, 16835], "responses": ["13", "20", "18", "14", "10"], "num2": [3, 5, 6, 3, 5, 5], "num3": [4, 7, 6, 3, 2, 2], "conditions": [18, 1200, "a", 18000], "internal_node_id": "0.0-9.0", "key_presses": [49, 51, 13, 50, 48, 13, 49, 56, 13, 49, 52, 13, 49, 57, 8, 48, 13], "trial": 0, "time_elapsed": 122625, "type": "DISTRACTOR", "trial_index": 9, "num1": [6, 8, 6, 8, 3, 9]}, "uniqueid": "MTK2289:3QILPRALQ62PJPIM58EH0MM0YE88NO", "dateTime": 1516918291377}, {"current_trial": 10, "trialdata": {"rt": -1, "trial_type": "single-stim", "stimulus": "<p id=\"stim\">10</p>", "internal_node_id": "0.0-10.0-0.0", "time_elapsed": 125631, "key_press": -1, "trial_index": 10}, "uniqueid": "MTK2289:3QILPRALQ62PJPIM58EH0MM0YE88NO", "dateTime": 1516918294382}, {"current_trial": 11, "trialdata": {"rt": -1, "trial_type": "single-stim", "stimulus": "<p id=\"stim\">9</p>", "internal_node_id": "0.0-10.0-1.0", "time_elapsed": 126635, "key_press": -1, "trial_index": 11}, "uniqueid": "MTK2289:3QILPRALQ62PJPIM58EH0MM0YE88NO", "dateTime": 1516918295386}, {"current_trial": 12, "trialdata": {"rt": -1, "trial_type": "single-stim", "stimulus": "<p id=\"stim\">8</p>", "internal_node_id": "0.0-10.0-2.0", "time_elapsed": 127637, "key_press": -1, "trial_index": 12}, "uniqueid": "MTK2289:3QILPRALQ62PJPIM58EH0MM0YE88NO", "dateTime": 1516918296388}, {"current_trial": 13, "trialdata": {"rt": -1, "trial_type": "single-stim", "stimulus": "<p id=\"stim\">7</p>", "internal_node_id": "0.0-10.0-3.0", "time_elapsed": 128639, "key_press": -1, "trial_index": 13}, "uniqueid": "MTK2289:3QILPRALQ62PJPIM58EH0MM0YE88NO", "dateTime": 1516918297390}, {"current_trial": 14, "trialdata": {"rt": -1, "trial_type": "single-stim", "stimulus": "<p id=\"stim\">6</p>", "internal_node_id": "0.0-10.0-4.0", "time_elapsed": 129644, "key_press": -1, "trial_index": 14}, "uniqueid": "MTK2289:3QILPRALQ62PJPIM58EH0MM0YE88NO", "dateTime": 1516918298395}, {"current_trial": 15, "trialdata": {"rt": -1, "trial_type": "single-stim", "stimulus": "<p id=\"stim\">5</p>", "internal_node_id": "0.0-10.0-5.0", "time_elapsed": 130646, "key_press": -1, "trial_index": 15}, "uniqueid": "MTK2289:3QILPRALQ62PJPIM58EH0MM0YE88NO", "dateTime": 1516918299397}, {"current_trial": 16, "trialdata": {"rt": -1, "trial_type": "single-stim", "stimulus": "<p id=\"stim\">4</p>", "internal_node_id": "0.0-10.0-6.0", "time_elapsed": 131647, "key_press": -1, "trial_index": 16}, "uniqueid": "MTK2289:3QILPRALQ62PJPIM58EH0MM0YE88NO", "dateTime": 1516918300399}, {"current_trial": 17, "trialdata": {"rt": -1, "trial_type": "single-stim", "stimulus": "<p id=\"stim\">3</p>", "internal_node_id": "0.0-10.0-7.0", "time_elapsed": 132651, "key_press": -1, "trial_index": 17}, "uniqueid": "MTK2289:3QILPRALQ62PJPIM58EH0MM0YE88NO", "dateTime": 1516918301402}, {"current_trial": 18, "trialdata": {"rt": -1, "trial_type": "single-stim", "stimulus": "<p id=\"stim\">2</p>", "internal_node_id": "0.0-10.0-8.0", "time_elapsed": 133654, "key_press": -1, "trial_index": 18}, "uniqueid": "MTK2289:3QILPRALQ62PJPIM58EH0MM0YE88NO", "dateTime": 1516918302405}, {"current_trial": 19, "trialdata": {"rt": -1, "trial_type": "single-stim", "stimulus": "<p id=\"stim\">1</p>", "internal_node_id": "0.0-10.0-9.0", "time_elapsed": 134656, "key_press": -1, "trial_index": 19}, "uniqueid": "MTK2289:3QILPRALQ62PJPIM58EH0MM0YE88NO", "dateTime": 1516918303407}, {"current_trial": 20, "trialdata": {"rt": -1, "trial_type": "single-stim", "stimulus": "<p id=\"stim\">+</p>", "internal_node_id": "0.0-11.0-0.0", "time_elapsed": 136158, "key_press": -1, "type": "FIXATION", "trial_index": 20}, "uniqueid": "MTK2289:3QILPRALQ62PJPIM58EH0MM0YE88NO", "dateTime": 1516918304909}, {"current_trial": 21, "trialdata": {"rt": -1000, "trial_type": "single-audio", "word": "shark", "stimulus": "/static/audio/wordpool/SHARK.wav", "conditions": [18, 1200, "a", 18000], "internal_node_id": "0.0-12.0", "trial": 0, "time_elapsed": 138557, "serialpos": 0, "key_press": -1, "wordID": 1274, "type": "PRES_AUD", "trial_index": 21}, "uniqueid": "MTK2289:3QILPRALQ62PJPIM58EH0MM0YE88NO", "dateTime": 1516918307309}, {"current_trial": 22, "trialdata": {"rt": -1000, "trial_type": "single-audio", "word": "sculpture", "stimulus": "/static/audio/wordpool/SCULPTURE.wav", "conditions": [18, 1200, "a", 18000], "internal_node_id": "0.0-13.0", "trial": 0, "time_elapsed": 140867, "serialpos": 1, "key_press": -1, "wordID": 1257, "type": "PRES_AUD", "trial_index": 22}, "uniqueid": "MTK2289:3QILPRALQ62PJPIM58EH0MM0YE88NO", "dateTime": 1516918309618}, {"current_trial": 23, "trialdata": {"rt": -1000, "trial_type": "single-audio", "word": "temple", "stimulus": "/static/audio/wordpool/TEMPLE.wav", "conditions": [18, 1200, "a", 18000], "internal_node_id": "0.0-14.0", "trial": 0, "time_elapsed": 143021, "serialpos": 2, "key_press": -1, "wordID": 1447, "type": "PRES_AUD", "trial_index": 23}, "uniqueid": "MTK2289:3QILPRALQ62PJPIM58EH0MM0YE88NO", "dateTime": 1516918311773}, {"current_trial": 24, "trialdata": {"rt": -1000, "trial_type": "single-audio", "word": "forest", "stimulus": "/static/audio/wordpool/FOREST.wav", "conditions": [18, 1200, "a", 18000], "internal_node_id": "0.0-15.0", "trial": 0, "time_elapsed": 145311, "serialpos": 3, "key_press": -1, "wordID": 592, "type": "PRES_AUD", "trial_index": 24}, "uniqueid": "MTK2289:3QILPRALQ62PJPIM58EH0MM0YE88NO", "dateTime": 1516918314062}, {"current_trial": 25, "trialdata": {"rt": -1000, "trial_type": "single-audio", "word": "report", "stimulus": "/static/audio/wordpool/REPORT.wav", "conditions": [18, 1200, "a", 18000], "internal_node_id": "0.0-16.0", "trial": 0, "time_elapsed": 147481, "serialpos": 4, "key_press": -1, "wordID": 1183, "type": "PRES_AUD", "trial_index": 25}, "uniqueid": "MTK2289:3QILPRALQ62PJPIM58EH0MM0YE88NO", "dateTime": 1516918316232}, {"current_trial": 26, "trialdata": {"rt": 1692.0000000000073, "trial_type": "single-audio", "word": "fireman", "stimulus": "/static/audio/wordpool/FIREMAN.wav", "conditions": [18, 1200, "a", 18000], "internal_node_id": "0.0-17.0", "trial": 0, "time_elapsed": 149749, "serialpos": 5, "key_press": 175, "wordID": 568, "type": "PRES_AUD", "trial_index": 26}, "uniqueid": "MTK2289:3QILPRALQ62PJPIM58EH0MM0YE88NO", "dateTime": 1516918318500}, {"current_trial": 27, "trialdata": {"rt": 179.9999999999784, "trial_type": "single-audio", "word": "expert", "stimulus": "/static/audio/wordpool/EXPERT.wav", "conditions": [18, 1200, "a", 18000], "internal_node_id": "0.0-18.0", "trial": 0, "time_elapsed": 151886, "serialpos": 6, "key_press": 175, "wordID": 542, "type": "PRES_AUD", "trial_index": 27}, "uniqueid": "MTK2289:3QILPRALQ62PJPIM58EH0MM0YE88NO", "dateTime": 1516918320637}, {"current_trial": 28, "trialdata": {"rt": -1000, "trial_type": "single-audio", "word": "office", "stimulus": "/static/audio/wordpool/OFFICE.wav", "conditions": [18, 1200, "a", 18000], "internal_node_id": "0.0-19.0", "trial": 0, "time_elapsed": 154041, "serialpos": 7, "key_press": -1, "wordID": 971, "type": "PRES_AUD", "trial_index": 28}, "uniqueid": "MTK2289:3QILPRALQ62PJPIM58EH0MM0YE88NO", "dateTime": 1516918322793}, {"current_trial": 29, "trialdata": {"rt": -1000, "trial_type": "single-audio", "word": "waiter", "stimulus": "/static/audio/wordpool/WAITER.wav", "conditions": [18, 1200, "a", 18000], "internal_node_id": "0.0-20.0", "trial": 0, "time_elapsed": 156130, "serialpos": 8, "key_press": -1, "wordID": 1579, "type": "PRES_AUD", "trial_index": 29}, "uniqueid": "MTK2289:3QILPRALQ62PJPIM58EH0MM0YE88NO", "dateTime": 1516918324881}, {"current_trial": 30, "trialdata": {"rt": -1000, "trial_type": "single-audio", "word": "clock", "stimulus": "/static/audio/wordpool/CLOCK.wav", "conditions": [18, 1200, "a", 18000], "internal_node_id": "0.0-21.0", "trial": 0, "time_elapsed": 158356, "serialpos": 9, "key_press": -1, "wordID": 324, "type": "PRES_AUD", "trial_index": 30}, "uniqueid": "MTK2289:3QILPRALQ62PJPIM58EH0MM0YE88NO", "dateTime": 1516918327107}, {"current_trial": 31, "trialdata": {"rt": -1000, "trial_type": "single-audio", "word": "blender", "stimulus": "/static/audio/wordpool/BLENDER.wav", "conditions": [18, 1200, "a", 18000], "internal_node_id": "0.0-22.0", "trial": 0, "time_elapsed": 160527, "serialpos": 10, "key_press": -1, "wordID": 135, "type": "PRES_AUD", "trial_index": 31}, "uniqueid": "MTK2289:3QILPRALQ62PJPIM58EH0MM0YE88NO", "dateTime": 1516918329278}, {"current_trial": 32, "trialdata": {"rt": -1000, "trial_type": "single-audio", "word": "neutron", "stimulus": "/static/audio/wordpool/NEUTRON.wav", "conditions": [18, 1200, "a", 18000], "internal_node_id": "0.0-23.0", "trial": 0, "time_elapsed": 162568, "serialpos": 11, "key_press": -1, "wordID": 946, "type": "PRES_AUD", "trial_index": 32}, "uniqueid": "MTK2289:3QILPRALQ62PJPIM58EH0MM0YE88NO", "dateTime": 1516918331319}, {"current_trial": 33, "trialdata": {"rt": -1000, "trial_type": "single-audio", "word": "cattle", "stimulus": "/static/audio/wordpool/CATTLE.wav", "conditions": [18, 1200, "a", 18000], "internal_node_id": "0.0-24.0", "trial": 0, "time_elapsed": 164761, "serialpos": 12, "key_press": -1, "wordID": 260, "type": "PRES_AUD", "trial_index": 33}, "uniqueid": "MTK2289:3QILPRALQ62PJPIM58EH0MM0YE88NO", "dateTime": 1516918333512}, {"current_trial": 34, "trialdata": {"rt": -1000, "trial_type": "single-audio", "word": "playground", "stimulus": "/static/audio/wordpool/PLAYGROUND.wav", "conditions": [18, 1200, "a", 18000], "internal_node_id": "0.0-25.0", "trial": 0, "time_elapsed": 166884, "serialpos": 13, "key_press": -1, "wordID": 1086, "type": "PRES_AUD", "trial_index": 34}, "uniqueid": "MTK2289:3QILPRALQ62PJPIM58EH0MM0YE88NO", "dateTime": 1516918335635}, {"current_trial": 35, "trialdata": {"rt": -1000, "trial_type": "single-audio", "word": "leader", "stimulus": "/static/audio/wordpool/LEADER.wav", "conditions": [18, 1200, "a", 18000], "internal_node_id": "0.0-26.0", "trial": 0, "time_elapsed": 168994, "serialpos": 14, "key_press": -1, "wordID": 806, "type": "PRES_AUD", "trial_index": 35}, "uniqueid": "MTK2289:3QILPRALQ62PJPIM58EH0MM0YE88NO", "dateTime": 1516918337745}, {"current_trial": 36, "trialdata": {"rt": -1000, "trial_type": "single-audio", "word": "softball", "stimulus": "/static/audio/wordpool/SOFTBALL.wav", "conditions": [18, 1200, "a", 18000], "internal_node_id": "0.0-27.0", "trial": 0, "time_elapsed": 171101, "serialpos": 15, "key_press": -1, "wordID": 1342, "type": "PRES_AUD", "trial_index": 36}, "uniqueid": "MTK2289:3QILPRALQ62PJPIM58EH0MM0YE88NO", "dateTime": 1516918339852}, {"current_trial": 37, "trialdata": {"rt": -1000, "trial_type": "single-audio", "word": "shelf", "stimulus": "/static/audio/wordpool/SHELF.wav", "conditions": [18, 1200, "a", 18000], "internal_node_id": "0.0-28.0", "trial": 0, "time_elapsed": 173498, "serialpos": 16, "key_press": -1, "wordID": 1279, "type": "PRES_AUD", "trial_index": 37}, "uniqueid": "MTK2289:3QILPRALQ62PJPIM58EH0MM0YE88NO", "dateTime": 1516918342249}, {"current_trial": 38, "trialdata": {"rt": -1000, "trial_type": "single-audio", "word": "flipper", "stimulus": "/static/audio/wordpool/FLIPPER.wav", "conditions": [18, 1200, "a", 18000], "internal_node_id": "0.0-29.0", "trial": 0, "time_elapsed": 175514, "serialpos": 17, "key_press": -1, "wordID": 579, "type": "PRES_AUD", "trial_index": 38}, "uniqueid": "MTK2289:3QILPRALQ62PJPIM58EH0MM0YE88NO", "dateTime": 1516918344265}, {"current_trial": 39, "trialdata": {"rt": -1, "trial_type": "single-stim", "stimulus": "", "internal_node_id": "0.0-30.0-0.0", "time_elapsed": 176817, "key_press": -1, "type": "PRE_RECALL_DELAY", "trial_index": 39}, "uniqueid": "MTK2289:3QILPRALQ62PJPIM58EH0MM0YE88NO", "dateTime": 1516918345568}, {"current_trial": 40, "trialdata": {"rt": -1000, "trial_type": "single-audio", "stimulus": "/static/audio/400Hz.wav", "internal_node_id": "0.0-31.0", "time_elapsed": 177324, "key_press": -1, "type": "PRE_RECALL_ALERT", "trial_index": 40}, "uniqueid": "MTK2289:3QILPRALQ62PJPIM58EH0MM0YE88NO", "dateTime": 1516918346076}, {"current_trial": 41, "trialdata": {"rt": [1334, 3753, 7086, 9373, 10959, 12022, 14357, 18743, 21174, 59102], "recwords": ["shark", "sculpture", "forest", "neutron", "slipper", "shelf", "cattle", "softball", "blender", ""], "key_times": [515, 613, 716, 881, 989, 1334, 1714, 1896, 2031, 2170, 2721, 2885, 3043, 3179, 3296, 3418, 3526, 3753, 4006, 4078, 4187, 4369, 4452, 4594, 4728, 5091, 5232, 5381, 5513, 5640, 5732, 6061, 7086, 8023, 8138, 8291, 8587, 8755, 8824, 8924, 9373, 9944, 10080, 10197, 10350, 10480, 10566, 10658, 10959, 11276, 11371, 11447, 11548, 11649, 12022, 13008, 13157, 13578, 13769, 13859, 13991, 14357, 17426, 17546, 17638, 17826, 18061, 18138, 18301, 18423, 18743, 20075, 20162, 20318, 20423, 20520, 20703, 20797, 21174, 59102], "trial_type": "free-recall", "conditions": [18, 1200, "a", 18000], "internal_node_id": "0.0-32.0-0.0", "key_presses": [83, 72, 65, 82, 75, 13, 83, 67, 85, 80, 8, 76, 80, 84, 85, 82, 69, 13, 70, 79, 82, 82, 69, 83, 84, 8, 8, 8, 8, 69, 83, 84, 13, 78, 69, 85, 84, 82, 79, 78, 13, 83, 76, 73, 80, 80, 69, 82, 13, 83, 72, 69, 76, 70, 13, 67, 65, 84, 84, 76, 69, 13, 83, 79, 70, 84, 66, 65, 76, 76, 13, 66, 76, 69, 78, 68, 69, 82, 13, 13], "trial": 0, "time_elapsed": 237332, "type": "FREE_RECALL", "trial_index": 41}, "uniqueid": "MTK2289:3QILPRALQ62PJPIM58EH0MM0YE88NO", "dateTime": 1516918406087}, {"current_trial": 42, "trialdata": {"rt": 1582, "trial_type": "text", "internal_node_id": "0.0-33.0", "time_elapsed": 240921, "key_press": 186, "type": "INSTRUCTIONS", "trial_index": 42}, "uniqueid": "MTK2289:3QILPRALQ62PJPIM58EH0MM0YE88NO", "dateTime": 1516918409672}, {"current_trial": 43, "trialdata": {"rt": [2896, 4399, 6929, 8778, 10826, 14941, 17393], "trial_type": "math-distractor", "key_times": [1409, 1805, 2896, 3951, 4064, 4399, 6450, 6682, 6929, 7942, 8228, 8778, 9954, 10229, 10355, 10481, 10826, 13602, 13754, 14941, 16739, 16944, 17393], "responses": ["14", "10", "21", "18", "20", "24", "25"], "num2": [8, 4, 8, 6, 2, 8, 9, 9], "num3": [1, 3, 8, 8, 9, 7, 8, 2], "conditions": [18, 1200, "a", 18000], "internal_node_id": "0.0-34.0", "key_presses": [49, 52, 13, 49, 48, 13, 50, 49, 13, 49, 56, 13, 49, 8, 50, 48, 13, 50, 52, 13, 50, 53, 13], "trial": 1, "time_elapsed": 260927, "type": "DISTRACTOR", "trial_index": 43, "num1": [5, 3, 5, 4, 9, 9, 8, 4]}, "uniqueid": "MTK2289:3QILPRALQ62PJPIM58EH0MM0YE88NO", "dateTime": 1516918429679}, {"current_trial": 44, "trialdata": {"rt": -1, "trial_type": "single-stim", "stimulus": "<p id=\"stim\">10</p>", "internal_node_id": "0.0-35.0-0.0", "time_elapsed": 263930, "key_press": -1, "trial_index": 44}, "uniqueid": "MTK2289:3QILPRALQ62PJPIM58EH0MM0YE88NO", "dateTime": 1516918432681}, {"current_trial": 45, "trialdata": {"rt": -1, "trial_type": "single-stim", "stimulus": "<p id=\"stim\">9</p>", "internal_node_id": "0.0-35.0-1.0", "time_elapsed": 264932, "key_press": -1, "trial_index": 45}, "uniqueid": "MTK2289:3QILPRALQ62PJPIM58EH0MM0YE88NO", "dateTime": 1516918433683}, {"current_trial": 46, "trialdata": {"rt": -1, "trial_type": "single-stim", "stimulus": "<p id=\"stim\">8</p>", "internal_node_id": "0.0-35.0-2.0", "time_elapsed": 265934, "key_press": -1, "trial_index": 46}, "uniqueid": "MTK2289:3QILPRALQ62PJPIM58EH0MM0YE88NO", "dateTime": 1516918434685}, {"current_trial": 47, "trialdata": {"rt": -1, "trial_type": "single-stim", "stimulus": "<p id=\"stim\">7</p>", "internal_node_id": "0.0-35.0-3.0", "time_elapsed": 266937, "key_press": -1, "trial_index": 47}, "uniqueid": "MTK2289:3QILPRALQ62PJPIM58EH0MM0YE88NO", "dateTime": 1516918435688}, {"current_trial": 48, "trialdata": {"rt": -1, "trial_type": "single-stim", "stimulus": "<p id=\"stim\">6</p>", "internal_node_id": "0.0-35.0-4.0", "time_elapsed": 267940, "key_press": -1, "trial_index": 48}, "uniqueid": "MTK2289:3QILPRALQ62PJPIM58EH0MM0YE88NO", "dateTime": 1516918436691}, {"current_trial": 49, "trialdata": {"rt": -1, "trial_type": "single-stim", "stimulus": "<p id=\"stim\">5</p>", "internal_node_id": "0.0-35.0-5.0", "time_elapsed": 268942, "key_press": -1, "trial_index": 49}, "uniqueid": "MTK2289:3QILPRALQ62PJPIM58EH0MM0YE88NO", "dateTime": 1516918437694}, {"current_trial": 50, "trialdata": {"rt": -1, "trial_type": "single-stim", "stimulus": "<p id=\"stim\">4</p>", "internal_node_id": "0.0-35.0-6.0", "time_elapsed": 269945, "key_press": -1, "trial_index": 50}, "uniqueid": "MTK2289:3QILPRALQ62PJPIM58EH0MM0YE88NO", "dateTime": 1516918438696}, {"current_trial": 51, "trialdata": {"rt": -1, "trial_type": "single-stim", "stimulus": "<p id=\"stim\">3</p>", "internal_node_id": "0.0-35.0-7.0", "time_elapsed": 270948, "key_press": -1, "trial_index": 51}, "uniqueid": "MTK2289:3QILPRALQ62PJPIM58EH0MM0YE88NO", "dateTime": 1516918439700}, {"current_trial": 52, "trialdata": {"rt": -1, "trial_type": "single-stim", "stimulus": "<p id=\"stim\">2</p>", "internal_node_id": "0.0-35.0-8.0", "time_elapsed": 271951, "key_press": -1, "trial_index": 52}, "uniqueid": "MTK2289:3QILPRALQ62PJPIM58EH0MM0YE88NO", "dateTime": 1516918440702}, {"current_trial": 53, "trialdata": {"rt": -1, "trial_type": "single-stim", "stimulus": "<p id=\"stim\">1</p>", "internal_node_id": "0.0-35.0-9.0", "time_elapsed": 272953, "key_press": -1, "trial_index": 53}, "uniqueid": "MTK2289:3QILPRALQ62PJPIM58EH0MM0YE88NO", "dateTime": 1516918441704}, {"current_trial": 54, "trialdata": {"rt": -1, "trial_type": "single-stim", "stimulus": "<p id=\"stim\">+</p>", "internal_node_id": "0.0-36.0-0.0", "time_elapsed": 274455, "key_press": -1, "type": "FIXATION", "trial_index": 54}, "uniqueid": "MTK2289:3QILPRALQ62PJPIM58EH0MM0YE88NO", "dateTime": 1516918443206}, {"current_trial": 55, "trialdata": {"rt": -1000, "trial_type": "single-audio", "word": "juggler", "stimulus": "/static/audio/wordpool/JUGGLER.wav", "conditions": [18, 1200, "a", 18000], "internal_node_id": "0.0-37.0", "trial": 1, "time_elapsed": 276796, "serialpos": 0, "key_press": -1, "wordID": 762, "type": "PRES_AUD", "trial_index": 55}, "uniqueid": "MTK2289:3QILPRALQ62PJPIM58EH0MM0YE88NO", "dateTime": 1516918445547}, {"current_trial": 56, "trialdata": {"rt": -1000, "trial_type": "single-audio", "word": "typist", "stimulus": "/static/audio/wordpool/TYPIST.wav", "conditions": [18, 1200, "a", 18000], "internal_node_id": "0.0-38.0", "trial": 1, "time_elapsed": 279178, "serialpos": 1, "key_press": -1, "wordID": 1531, "type": "PRES_AUD", "trial_index": 56}, "uniqueid": "MTK2289:3QILPRALQ62PJPIM58EH0MM0YE88NO", "dateTime": 1516918447930}, {"current_trial": 57, "trialdata": {"rt": -1000, "trial_type": "single-audio", "word": "cafe", "stimulus": "/static/audio/wordpool/CAFE.wav", "conditions": [18, 1200, "a", 18000], "internal_node_id": "0.0-39.0", "trial": 1, "time_elapsed": 281443, "serialpos": 2, "key_press": -1, "wordID": 215, "type": "PRES_AUD", "trial_index": 57}, "uniqueid": "MTK2289:3QILPRALQ62PJPIM58EH0MM0YE88NO", "dateTime": 1516918450194}, {"current_trial": 58, "trialdata": {"rt": -1000, "trial_type": "single-audio", "word": "human", "stimulus": "/static/audio/wordpool/HUMAN.wav", "conditions": [18, 1200, "a", 18000], "internal_node_id": "0.0-40.0", "trial": 1, "time_elapsed": 283504, "serialpos": 3, "key_press": -1, "wordID": 725, "type": "PRES_AUD", "trial_index": 58}, "uniqueid": "MTK2289:3QILPRALQ62PJPIM58EH0MM0YE88NO", "dateTime": 1516918452255}, {"current_trial": 59, "trialdata": {"rt": -1000, "trial_type": "single-audio", "word": "turkey", "stimulus": "/static/audio/wordpool/TURKEY.wav", "conditions": [18, 1200, "a", 18000], "internal_node_id": "0.0-41.0", "trial": 1, "time_elapsed": 285691, "serialpos": 4, "key_press": -1, "wordID": 1519, "type": "PRES_AUD", "trial_index": 59}, "uniqueid": "MTK2289:3QILPRALQ62PJPIM58EH0MM0YE88NO", "dateTime": 1516918454442}, {"current_trial": 60, "trialdata": {"rt": 19.99999999998181, "trial_type": "single-audio", "word": "fruit", "stimulus": "/static/audio/wordpool/FRUIT.wav", "conditions": [18, 1200, "a", 18000], "internal_node_id": "0.0-42.0", "trial": 1, "time_elapsed": 287923, "serialpos": 5, "key_press": 175, "wordID": 609, "type": "PRES_AUD", "trial_index": 60}, "uniqueid": "MTK2289:3QILPRALQ62PJPIM58EH0MM0YE88NO", "dateTime": 1516918456674}, {"current_trial": 61, "trialdata": {"rt": -1000, "trial_type": "single-audio", "word": "heart", "stimulus": "/static/audio/wordpool/HEART.wav", "conditions": [18, 1200, "a", 18000], "internal_node_id": "0.0-43.0", "trial": 1, "time_elapsed": 290142, "serialpos": 6, "key_press": -1, "wordID": 696, "type": "PRES_AUD", "trial_index": 61}, "uniqueid": "MTK2289:3QILPRALQ62PJPIM58EH0MM0YE88NO", "dateTime": 1516918458894}, {"current_trial": 62, "trialdata": {"rt": -1000, "trial_type": "single-audio", "word": "stallion", "stimulus": "/static/audio/wordpool/STALLION.wav", "conditions": [18, 1200, "a", 18000], "internal_node_id": "0.0-44.0", "trial": 1, "time_elapsed": 292303, "serialpos": 7, "key_press": -1, "wordID": 1368, "type": "PRES_AUD", "trial_index": 62}, "uniqueid": "MTK2289:3QILPRALQ62PJPIM58EH0MM0YE88NO", "dateTime": 1516918461054}, {"current_trial": 63, "trialdata": {"rt": -1000, "trial_type": "single-audio", "word": "primate", "stimulus": "/static/audio/wordpool/PRIMATE.wav", "conditions": [18, 1200, "a", 18000], "internal_node_id": "0.0-45.0", "trial": 1, "time_elapsed": 294522, "serialpos": 8, "key_press": -1, "wordID": 1122, "type": "PRES_AUD", "trial_index": 63}, "uniqueid": "MTK2289:3QILPRALQ62PJPIM58EH0MM0YE88NO", "dateTime": 1516918463273}, {"current_trial": 64, "trialdata": {"rt": -1000, "trial_type": "single-audio", "word": "rocket", "stimulus": "/static/audio/wordpool/ROCKET.wav", "conditions": [18, 1200, "a", 18000], "internal_node_id": "0.0-46.0", "trial": 1, "time_elapsed": 296771, "serialpos": 9, "key_press": -1, "wordID": 1201, "type": "PRES_AUD", "trial_index": 64}, "uniqueid": "MTK2289:3QILPRALQ62PJPIM58EH0MM0YE88NO", "dateTime": 1516918465522}, {"current_trial": 65, "trialdata": {"rt": -1000, "trial_type": "single-audio", "word": "bucket", "stimulus": "/static/audio/wordpool/BUCKET.wav", "conditions": [18, 1200, "a", 18000], "internal_node_id": "0.0-47.0", "trial": 1, "time_elapsed": 298816, "serialpos": 10, "key_press": -1, "wordID": 183, "type": "PRES_AUD", "trial_index": 65}, "uniqueid": "MTK2289:3QILPRALQ62PJPIM58EH0MM0YE88NO", "dateTime": 1516918467567}, {"current_trial": 66, "trialdata": {"rt": -1000, "trial_type": "single-audio", "word": "tart", "stimulus": "/static/audio/wordpool/TART.wav", "conditions": [18, 1200, "a", 18000], "internal_node_id": "0.0-48.0", "trial": 1, "time_elapsed": 301210, "serialpos": 11, "key_press": -1, "wordID": 1435, "type": "PRES_AUD", "trial_index": 66}, "uniqueid": "MTK2289:3QILPRALQ62PJPIM58EH0MM0YE88NO", "dateTime": 1516918469961}, {"current_trial": 67, "trialdata": {"rt": -1000, "trial_type": "single-audio", "word": "saddle", "stimulus": "/static/audio/wordpool/SADDLE.wav", "conditions": [18, 1200, "a", 18000], "internal_node_id": "0.0-49.0", "trial": 1, "time_elapsed": 303289, "serialpos": 12, "key_press": -1, "wordID": 1220, "type": "PRES_AUD", "trial_index": 67}, "uniqueid": "MTK2289:3QILPRALQ62PJPIM58EH0MM0YE88NO", "dateTime": 1516918472040}, {"current_trial": 68, "trialdata": {"rt": -1000, "trial_type": "single-audio", "word": "lover", "stimulus": "/static/audio/wordpool/LOVER.wav", "conditions": [18, 1200, "a", 18000], "internal_node_id": "0.0-50.0", "trial": 1, "time_elapsed": 305458, "serialpos": 13, "key_press": -1, "wordID": 845, "type": "PRES_AUD", "trial_index": 68}, "uniqueid": "MTK2289:3QILPRALQ62PJPIM58EH0MM0YE88NO", "dateTime": 1516918474212}, {"current_trial": 69, "trialdata": {"rt": -1000, "trial_type": "single-audio", "word": "napkin", "stimulus": "/static/audio/wordpool/NAPKIN.wav", "conditions": [18, 1200, "a", 18000], "internal_node_id": "0.0-51.0", "trial": 1, "time_elapsed": 307705, "serialpos": 14, "key_press": -1, "wordID": 936, "type": "PRES_AUD", "trial_index": 69}, "uniqueid": "MTK2289:3QILPRALQ62PJPIM58EH0MM0YE88NO", "dateTime": 1516918476456}, {"current_trial": 70, "trialdata": {"rt": -1000, "trial_type": "single-audio", "word": "gallon", "stimulus": "/static/audio/wordpool/GALLON.wav", "conditions": [18, 1200, "a", 18000], "internal_node_id": "0.0-52.0", "trial": 1, "time_elapsed": 309754, "serialpos": 15, "key_press": -1, "wordID": 617, "type": "PRES_AUD", "trial_index": 70}, "uniqueid": "MTK2289:3QILPRALQ62PJPIM58EH0MM0YE88NO", "dateTime": 1516918478505}, {"current_trial": 71, "trialdata": {"rt": -1000, "trial_type": "single-audio", "word": "kitchen", "stimulus": "/static/audio/wordpool/KITCHEN.wav", "conditions": [18, 1200, "a", 18000], "internal_node_id": "0.0-53.0", "trial": 1, "time_elapsed": 311796, "serialpos": 16, "key_press": -1, "wordID": 777, "type": "PRES_AUD", "trial_index": 71}, "uniqueid": "MTK2289:3QILPRALQ62PJPIM58EH0MM0YE88NO", "dateTime": 1516918480547}, {"current_trial": 72, "trialdata": {"rt": -1000, "trial_type": "single-audio", "word": "popcorn", "stimulus": "/static/audio/wordpool/POPCORN.wav", "conditions": [18, 1200, "a", 18000], "internal_node_id": "0.0-54.0", "trial": 1, "time_elapsed": 314014, "serialpos": 17, "key_press": -1, "wordID": 1103, "type": "PRES_AUD", "trial_index": 72}, "uniqueid": "MTK2289:3QILPRALQ62PJPIM58EH0MM0YE88NO", "dateTime": 1516918482765}, {"current_trial": 73, "trialdata": {"rt": -1, "trial_type": "single-stim", "stimulus": "", "internal_node_id": "0.0-55.0-0.0", "time_elapsed": 315242, "key_press": -1, "type": "PRE_RECALL_DELAY", "trial_index": 73}, "uniqueid": "MTK2289:3QILPRALQ62PJPIM58EH0MM0YE88NO", "dateTime": 1516918483994}, {"current_trial": 74, "trialdata": {"rt": -1000, "trial_type": "single-audio", "stimulus": "/static/audio/400Hz.wav", "internal_node_id": "0.0-56.0", "time_elapsed": 315745, "key_press": -1, "type": "PRE_RECALL_ALERT", "trial_index": 74}, "uniqueid": "MTK2289:3QILPRALQ62PJPIM58EH0MM0YE88NO", "dateTime": 1516918484496}, {"current_trial": 75, "trialdata": {"rt": [1329, 2540, 4899, 5821, 11942, 17091, 22522, 31749], "recwords": ["juggler", "human", "popcorn", "saddle", "heart", "lover", "napkin", ""], "key_times": [332, 532, 606, 769, 878, 969, 1047, 1329, 1599, 1777, 2186, 2272, 2346, 2540, 2792, 2901, 3279, 3405, 3598, 3709, 3841, 4253, 4335, 4502, 4540, 4899, 5069, 5170, 5303, 5456, 5546, 5650, 5821, 11204, 11259, 11353, 11453, 11697, 11942, 15907, 16058, 16110, 16411, 16746, 16813, 16867, 17091, 21182, 21313, 21693, 21968, 22139, 22235, 22522, 31749], "trial_type": "free-recall", "conditions": [18, 1200, "a", 18000], "internal_node_id": "0.0-57.0-0.0", "key_presses": [74, 85, 71, 71, 76, 69, 82, 13, 72, 85, 77, 65, 78, 13, 79, 80, 8, 8, 80, 79, 80, 67, 79, 82, 78, 13, 83, 65, 68, 68, 76, 69, 13, 72, 69, 65, 82, 84, 13, 76, 79, 86, 82, 8, 69, 82, 13, 78, 65, 80, 75, 73, 78, 13, 13], "trial": 1, "time_elapsed": 375751, "type": "FREE_RECALL", "trial_index": 75}, "uniqueid": "MTK2289:3QILPRALQ62PJPIM58EH0MM0YE88NO", "dateTime": 1516918544505}, {"current_trial": 76, "trialdata": {"rt": 2854, "trial_type": "text", "internal_node_id": "0.0-58.0", "time_elapsed": 380609, "key_press": 13, "type": "INSTRUCTIONS", "trial_index": 76}, "uniqueid": "MTK2289:3QILPRALQ62PJPIM58EH0MM0YE88NO", "dateTime": 1516918549361}, {"current_trial": 77, "trialdata": {"rt": [2760, 5218, 7212, 9915], "trial_type": "math-distractor", "key_times": [2085, 2292, 2760, 4337, 4454, 5218, 6647, 6822, 7212, 8783, 9092, 9547, 9695, 9915, 11058, 11250, 11655, 11888], "responses": ["21", "23", "19", "25"], "num2": [9, 8, 2, 9, 2], "num3": [5, 6, 9, 7, 8], "conditions": [12, 1600, "a", 12000], "internal_node_id": "0.0-59.0", "key_presses": [50, 49, 13, 50, 51, 13, 49, 57, 13, 50, 52, 8, 53, 13, 49, 57, 8, 56], "trial": 2, "time_elapsed": 393615, "type": "DISTRACTOR", "trial_index": 77, "num1": [7, 9, 8, 9, 5]}, "uniqueid": "MTK2289:3QILPRALQ62PJPIM58EH0MM0YE88NO", "dateTime": 1516918562367}, {"current_trial": 78, "trialdata": {"rt": -1, "trial_type": "single-stim", "stimulus": "<p id=\"stim\">10</p>", "internal_node_id": "0.0-60.0-0.0", "time_elapsed": 396618, "key_press": -1, "trial_index": 78}, "uniqueid": "MTK2289:3QILPRALQ62PJPIM58EH0MM0YE88NO", "dateTime": 1516918565369}, {"current_trial": 79, "trialdata": {"rt": -1, "trial_type": "single-stim", "stimulus": "<p id=\"stim\">9</p>", "internal_node_id": "0.0-60.0-1.0", "time_elapsed": 397620, "key_press": -1, "trial_index": 79}, "uniqueid": "MTK2289:3QILPRALQ62PJPIM58EH0MM0YE88NO", "dateTime": 1516918566371}, {"current_trial": 80, "trialdata": {"rt": -1, "trial_type": "single-stim", "stimulus": "<p id=\"stim\">8</p>", "internal_node_id": "0.0-60.0-2.0", "time_elapsed": 398623, "key_press": -1, "trial_index": 80}, "uniqueid": "MTK2289:3QILPRALQ62PJPIM58EH0MM0YE88NO", "dateTime": 1516918567374}, {"current_trial": 81, "trialdata": {"rt": -1, "trial_type": "single-stim", "stimulus": "<p id=\"stim\">7</p>", "internal_node_id": "0.0-60.0-3.0", "time_elapsed": 399625, "key_press": -1, "trial_index": 81}, "uniqueid": "MTK2289:3QILPRALQ62PJPIM58EH0MM0YE88NO", "dateTime": 1516918568376}, {"current_trial": 82, "trialdata": {"rt": -1, "trial_type": "single-stim", "stimulus": "<p id=\"stim\">6</p>", "internal_node_id": "0.0-60.0-4.0", "time_elapsed": 400628, "key_press": -1, "trial_index": 82}, "uniqueid": "MTK2289:3QILPRALQ62PJPIM58EH0MM0YE88NO", "dateTime": 1516918569379}, {"current_trial": 83, "trialdata": {"rt": -1, "trial_type": "single-stim", "stimulus": "<p id=\"stim\">5</p>", "internal_node_id": "0.0-60.0-5.0", "time_elapsed": 401631, "key_press": -1, "trial_index": 83}, "uniqueid": "MTK2289:3QILPRALQ62PJPIM58EH0MM0YE88NO", "dateTime": 1516918570382}, {"current_trial": 84, "trialdata": {"rt": -1, "trial_type": "single-stim", "stimulus": "<p id=\"stim\">4</p>", "internal_node_id": "0.0-60.0-6.0", "time_elapsed": 402633, "key_press": -1, "trial_index": 84}, "uniqueid": "MTK2289:3QILPRALQ62PJPIM58EH0MM0YE88NO", "dateTime": 1516918571384}, {"current_trial": 85, "trialdata": {"rt": -1, "trial_type": "single-stim", "stimulus": "<p id=\"stim\">3</p>", "internal_node_id": "0.0-60.0-7.0", "time_elapsed": 403636, "key_press": -1, "trial_index": 85}, "uniqueid": "MTK2289:3QILPRALQ62PJPIM58EH0MM0YE88NO", "dateTime": 1516918572387}, {"current_trial": 86, "trialdata": {"rt": -1, "trial_type": "single-stim", "stimulus": "<p id=\"stim\">2</p>", "internal_node_id": "0.0-60.0-8.0", "time_elapsed": 404639, "key_press": -1, "trial_index": 86}, "uniqueid": "MTK2289:3QILPRALQ62PJPIM58EH0MM0YE88NO", "dateTime": 1516918573390}, {"current_trial": 87, "trialdata": {"rt": -1, "trial_type": "single-stim", "stimulus": "<p id=\"stim\">1</p>", "internal_node_id": "0.0-60.0-9.0", "time_elapsed": 405642, "key_press": -1, "trial_index": 87}, "uniqueid": "MTK2289:3QILPRALQ62PJPIM58EH0MM0YE88NO", "dateTime": 1516918574393}, {"current_trial": 88, "trialdata": {"rt": -1, "trial_type": "single-stim", "stimulus": "<p id=\"stim\">+</p>", "internal_node_id": "0.0-61.0-0.0", "time_elapsed": 407144, "key_press": -1, "type": "FIXATION", "trial_index": 88}, "uniqueid": "MTK2289:3QILPRALQ62PJPIM58EH0MM0YE88NO", "dateTime": 1516918575895}, {"current_trial": 89, "trialdata": {"rt": 929.333333333318, "trial_type": "single-audio", "word": "quail", "stimulus": "/static/audio/wordpool/QUAIL.wav", "conditions": [12, 1600, "a", 12000], "internal_node_id": "0.0-62.0", "trial": 2, "time_elapsed": 409774, "serialpos": 0, "key_press": 81, "wordID": 1146, "type": "PRES_AUD", "trial_index": 89}, "uniqueid": "MTK2289:3QILPRALQ62PJPIM58EH0MM0YE88NO", "dateTime": 1516918578525}, {"current_trial": 90, "trialdata": {"rt": -1000, "trial_type": "single-audio", "word": "subway", "stimulus": "/static/audio/wordpool/SUBWAY.wav", "conditions": [12, 1600, "a", 12000], "internal_node_id": "0.0-63.0", "trial": 2, "time_elapsed": 412567, "serialpos": 1, "key_press": -1, "wordID": 1399, "type": "PRES_AUD", "trial_index": 90}, "uniqueid": "MTK2289:3QILPRALQ62PJPIM58EH0MM0YE88NO", "dateTime": 1516918581319}, {"current_trial": 91, "trialdata": {"rt": 1630.6666666666274, "trial_type": "single-audio", "word": "radish", "stimulus": "/static/audio/wordpool/RADISH.wav", "conditions": [12, 1600, "a", 12000], "internal_node_id": "0.0-64.0", "trial": 2, "time_elapsed": 415294, "serialpos": 2, "key_press": 175, "wordID": 1157, "type": "PRES_AUD", "trial_index": 91}, "uniqueid": "MTK2289:3QILPRALQ62PJPIM58EH0MM0YE88NO", "dateTime": 1516918584046}, {"current_trial": 92, "trialdata": {"rt": -1000, "trial_type": "single-audio", "word": "mammal", "stimulus": "/static/audio/wordpool/MAMMAL.wav", "conditions": [12, 1600, "a", 12000], "internal_node_id": "0.0-65.0", "trial": 2, "time_elapsed": 417909, "serialpos": 3, "key_press": -1, "wordID": 860, "type": "PRES_AUD", "trial_index": 92}, "uniqueid": "MTK2289:3QILPRALQ62PJPIM58EH0MM0YE88NO", "dateTime": 1516918586660}, {"current_trial": 93, "trialdata": {"rt": -1000, "trial_type": "single-audio", "word": "harp", "stimulus": "/static/audio/wordpool/HARP.wav", "conditions": [12, 1600, "a", 12000], "internal_node_id": "0.0-66.0", "trial": 2, "time_elapsed": 420323, "serialpos": 4, "key_press": -1, "wordID": 688, "type": "PRES_AUD", "trial_index": 93}, "uniqueid": "MTK2289:3QILPRALQ62PJPIM58EH0MM0YE88NO", "dateTime": 1516918589074}, {"current_trial": 94, "trialdata": {"rt": -1000, "trial_type": "single-audio", "word": "hook", "stimulus": "/static/audio/wordpool/HOOK.wav", "conditions": [12, 1600, "a", 12000], "internal_node_id": "0.0-67.0", "trial": 2, "time_elapsed": 422900, "serialpos": 5, "key_press": -1, "wordID": 714, "type": "PRES_AUD", "trial_index": 94}, "uniqueid": "MTK2289:3QILPRALQ62PJPIM58EH0MM0YE88NO", "dateTime": 1516918591651}, {"current_trial": 95, "trialdata": {"rt": -1000, "trial_type": "single-audio", "word": "drug", "stimulus": "/static/audio/wordpool/DRUG.wav", "conditions": [12, 1600, "a", 12000], "internal_node_id": "0.0-68.0", "trial": 2, "time_elapsed": 425696, "serialpos": 6, "key_press": -1, "wordID": 500, "type": "PRES_AUD", "trial_index": 95}, "uniqueid": "MTK2289:3QILPRALQ62PJPIM58EH0MM0YE88NO", "dateTime": 1516918594448}, {"current_trial": 96, "trialdata": {"rt": -1000, "trial_type": "single-audio", "word": "parsley", "stimulus": "/static/audio/wordpool/PARSLEY.wav", "conditions": [12, 1600, "a", 12000], "internal_node_id": "0.0-69.0", "trial": 2, "time_elapsed": 428234, "serialpos": 7, "key_press": -1, "wordID": 1015, "type": "PRES_AUD", "trial_index": 96}, "uniqueid": "MTK2289:3QILPRALQ62PJPIM58EH0MM0YE88NO", "dateTime": 1516918596985}, {"current_trial": 97, "trialdata": {"rt": -1000, "trial_type": "single-audio", "word": "hedge", "stimulus": "/static/audio/wordpool/HEDGE.wav", "conditions": [12, 1600, "a", 12000], "internal_node_id": "0.0-70.0", "trial": 2, "time_elapsed": 430976, "serialpos": 8, "key_press": -1, "wordID": 698, "type": "PRES_AUD", "trial_index": 97}, "uniqueid": "MTK2289:3QILPRALQ62PJPIM58EH0MM0YE88NO", "dateTime": 1516918599728}, {"current_trial": 98, "trialdata": {"rt": -1000, "trial_type": "single-audio", "word": "daisy", "stimulus": "/static/audio/wordpool/DAISY.wav", "conditions": [12, 1600, "a", 12000], "internal_node_id": "0.0-71.0", "trial": 2, "time_elapsed": 433528, "serialpos": 9, "key_press": -1, "wordID": 434, "type": "PRES_AUD", "trial_index": 98}, "uniqueid": "MTK2289:3QILPRALQ62PJPIM58EH0MM0YE88NO", "dateTime": 1516918602279}, {"current_trial": 99, "trialdata": {"rt": -1000, "trial_type": "single-audio", "word": "casket", "stimulus": "/static/audio/wordpool/CASKET.wav", "conditions": [12, 1600, "a", 12000], "internal_node_id": "0.0-72.0", "trial": 2, "time_elapsed": 436172, "serialpos": 10, "key_press": -1, "wordID": 254, "type": "PRES_AUD", "trial_index": 99}, "uniqueid": "MTK2289:3QILPRALQ62PJPIM58EH0MM0YE88NO", "dateTime": 1516918604924}, {"current_trial": 100, "trialdata": {"rt": -1000, "trial_type": "single-audio", "word": "tombstone", "stimulus": "/static/audio/wordpool/TOMBSTONE.wav", "conditions": [12, 1600, "a", 12000], "internal_node_id": "0.0-73.0", "trial": 2, "time_elapsed": 438714, "serialpos": 11, "key_press": -1, "wordID": 1477, "type": "PRES_AUD", "trial_index": 100}, "uniqueid": "MTK2289:3QILPRALQ62PJPIM58EH0MM0YE88NO", "dateTime": 1516918607465}, {"current_trial": 101, "trialdata": {"rt": -1, "trial_type": "single-stim", "stimulus": "", "internal_node_id": "0.0-74.0-0.0", "time_elapsed": 439947, "key_press": -1, "type": "PRE_RECALL_DELAY", "trial_index": 101}, "uniqueid": "MTK2289:3QILPRALQ62PJPIM58EH0MM0YE88NO", "dateTime": 1516918608698}, {"current_trial": 102, "trialdata": {"rt": -1000, "trial_type": "single-audio", "stimulus": "/static/audio/400Hz.wav", "internal_node_id": "0.0-75.0", "time_elapsed": 440450, "key_press": -1, "type": "PRE_RECALL_ALERT", "trial_index": 102}, "uniqueid": "MTK2289:3QILPRALQ62PJPIM58EH0MM0YE88NO", "dateTime": 1516918609201}, {"current_trial": 103, "trialdata": {"rt": [2446, 3471, 6312, 7885, 8822, 10198, 20350], "recwords": ["raddish", "daisy", "tombstone", "cook", "hook", "heart", "quail"], "key_times": [1064, 1228, 1412, 1600, 1710, 1803, 1913, 2446, 2704, 2830, 2921, 3050, 3161, 3471, 4343, 4423, 4582, 4895, 5097, 5181, 5400, 5831, 5954, 6028, 6134, 6312, 7133, 7204, 7353, 7481, 7885, 8189, 8286, 8459, 8592, 8822, 9535, 9593, 9687, 9795, 9976, 10198, 17868, 17994, 18140, 18267, 18722, 18945, 19236, 20350], "trial_type": "free-recall", "conditions": [12, 1600, "a", 12000], "internal_node_id": "0.0-76.0-0.0", "key_presses": [82, 65, 68, 68, 73, 83, 72, 13, 68, 65, 73, 83, 89, 13, 84, 79, 66, 8, 77, 66, 83, 84, 79, 78, 69, 13, 67, 79, 79, 75, 13, 72, 79, 79, 75, 13, 72, 69, 65, 82, 84, 13, 81, 85, 65, 76, 8, 73, 76, 13], "trial": 2, "time_elapsed": 500455, "type": "FREE_RECALL", "trial_index": 103}, "uniqueid": "MTK2289:3QILPRALQ62PJPIM58EH0MM0YE88NO", "dateTime": 1516918669209}, {"current_trial": 104, "trialdata": {"rt": 1991, "trial_type": "text", "internal_node_id": "0.0-77.0", "time_elapsed": 504451, "key_press": 75, "type": "INSTRUCTIONS", "trial_index": 104}, "uniqueid": "MTK2289:3QILPRALQ62PJPIM58EH0MM0YE88NO", "dateTime": 1516918673202}, {"current_trial": 105, "trialdata": {"rt": [1807, 5221, 6823, 8416, 10564, 11966, 14823, 16872, 20037, 22992], "trial_type": "math-distractor", "key_times": [1509, 1724, 1807, 3309, 4258, 4644, 4845, 5221, 6306, 6530, 6823, 7847, 8044, 8416, 9488, 9631, 10101, 10303, 10564, 11564, 11739, 11966, 14169, 14364, 14823, 16084, 16438, 16872, 19416, 19603, 20037, 21616, 21898, 22326, 22625, 22992], "responses": ["11", "17", "13", "15", "18", "11", "14", "18", "14", "17"], "num2": [4, 6, 3, 4, 2, 4, 4, 5, 3, 6, 3], "num3": [1, 5, 1, 2, 8, 6, 9, 7, 8, 8, 2], "conditions": [12, 1600, "a", 24000], "internal_node_id": "0.0-78.0", "key_presses": [49, 49, 13, 49, 56, 8, 55, 13, 49, 51, 13, 49, 53, 13, 49, 57, 8, 56, 13, 49, 49, 13, 49, 52, 13, 49, 56, 13, 49, 52, 13, 49, 56, 8, 55, 13], "trial": 3, "time_elapsed": 530459, "type": "DISTRACTOR", "trial_index": 105, "num1": [6, 6, 9, 9, 8, 1, 1, 6, 3, 3, 1]}, "uniqueid": "MTK2289:3QILPRALQ62PJPIM58EH0MM0YE88NO", "dateTime": 1516918699210}, {"current_trial": 106, "trialdata": {"rt": -1, "trial_type": "single-stim", "stimulus": "<p id=\"stim\">10</p>", "internal_node_id": "0.0-79.0-0.0", "time_elapsed": 533464, "key_press": -1, "trial_index": 106}, "uniqueid": "MTK2289:3QILPRALQ62PJPIM58EH0MM0YE88NO", "dateTime": 1516918702215}, {"current_trial": 107, "trialdata": {"rt": -1, "trial_type": "single-stim", "stimulus": "<p id=\"stim\">9</p>", "internal_node_id": "0.0-79.0-1.0", "time_elapsed": 534465, "key_press": -1, "trial_index": 107}, "uniqueid": "MTK2289:3QILPRALQ62PJPIM58EH0MM0YE88NO", "dateTime": 1516918703216}, {"current_trial": 108, "trialdata": {"rt": -1, "trial_type": "single-stim", "stimulus": "<p id=\"stim\">8</p>", "internal_node_id": "0.0-79.0-2.0", "time_elapsed": 535468, "key_press": -1, "trial_index": 108}, "uniqueid": "MTK2289:3QILPRALQ62PJPIM58EH0MM0YE88NO", "dateTime": 1516918704219}, {"current_trial": 109, "trialdata": {"rt": -1, "trial_type": "single-stim", "stimulus": "<p id=\"stim\">7</p>", "internal_node_id": "0.0-79.0-3.0", "time_elapsed": 536470, "key_press": -1, "trial_index": 109}, "uniqueid": "MTK2289:3QILPRALQ62PJPIM58EH0MM0YE88NO", "dateTime": 1516918705221}, {"current_trial": 110, "trialdata": {"rt": -1, "trial_type": "single-stim", "stimulus": "<p id=\"stim\">6</p>", "internal_node_id": "0.0-79.0-4.0", "time_elapsed": 537472, "key_press": -1, "trial_index": 110}, "uniqueid": "MTK2289:3QILPRALQ62PJPIM58EH0MM0YE88NO", "dateTime": 1516918706223}, {"current_trial": 111, "trialdata": {"rt": -1, "trial_type": "single-stim", "stimulus": "<p id=\"stim\">5</p>", "internal_node_id": "0.0-79.0-5.0", "time_elapsed": 538475, "key_press": -1, "trial_index": 111}, "uniqueid": "MTK2289:3QILPRALQ62PJPIM58EH0MM0YE88NO", "dateTime": 1516918707226}, {"current_trial": 112, "trialdata": {"rt": -1, "trial_type": "single-stim", "stimulus": "<p id=\"stim\">4</p>", "internal_node_id": "0.0-79.0-6.0", "time_elapsed": 539478, "key_press": -1, "trial_index": 112}, "uniqueid": "MTK2289:3QILPRALQ62PJPIM58EH0MM0YE88NO", "dateTime": 1516918708229}, {"current_trial": 113, "trialdata": {"rt": -1, "trial_type": "single-stim", "stimulus": "<p id=\"stim\">3</p>", "internal_node_id": "0.0-79.0-7.0", "time_elapsed": 540481, "key_press": -1, "trial_index": 113}, "uniqueid": "MTK2289:3QILPRALQ62PJPIM58EH0MM0YE88NO", "dateTime": 1516918709232}, {"current_trial": 114, "trialdata": {"rt": -1, "trial_type": "single-stim", "stimulus": "<p id=\"stim\">2</p>", "internal_node_id": "0.0-79.0-8.0", "time_elapsed": 541483, "key_press": -1, "trial_index": 114}, "uniqueid": "MTK2289:3QILPRALQ62PJPIM58EH0MM0YE88NO", "dateTime": 1516918710234}, {"current_trial": 115, "trialdata": {"rt": -1, "trial_type": "single-stim", "stimulus": "<p id=\"stim\">1</p>", "internal_node_id": "0.0-79.0-9.0", "time_elapsed": 542485, "key_press": -1, "trial_index": 115}, "uniqueid": "MTK2289:3QILPRALQ62PJPIM58EH0MM0YE88NO", "dateTime": 1516918711236}, {"current_trial": 116, "trialdata": {"rt": -1, "trial_type": "single-stim", "stimulus": "<p id=\"stim\">+</p>", "internal_node_id": "0.0-80.0-0.0", "time_elapsed": 543986, "key_press": -1, "type": "FIXATION", "trial_index": 116}, "uniqueid": "MTK2289:3QILPRALQ62PJPIM58EH0MM0YE88NO", "dateTime": 1516918712737}, {"current_trial": 117, "trialdata": {"rt": 1918.6666666665815, "trial_type": "single-audio", "word": "breast", "stimulus": "/static/audio/wordpool/BREAST.wav", "conditions": [12, 1600, "a", 24000], "internal_node_id": "0.0-81.0", "trial": 3, "time_elapsed": 546612, "serialpos": 0, "key_press": 175, "wordID": 170, "type": "PRES_AUD", "trial_index": 117}, "uniqueid": "MTK2289:3QILPRALQ62PJPIM58EH0MM0YE88NO", "dateTime": 1516918715363}, {"current_trial": 118, "trialdata": {"rt": -1000, "trial_type": "single-audio", "word": "flesh", "stimulus": "/static/audio/wordpool/FLESH.wav", "conditions": [12, 1600, "a", 24000], "internal_node_id": "0.0-82.0", "trial": 3, "time_elapsed": 549162, "serialpos": 1, "key_press": -1, "wordID": 578, "type": "PRES_AUD", "trial_index": 118}, "uniqueid": "MTK2289:3QILPRALQ62PJPIM58EH0MM0YE88NO", "dateTime": 1516918717914}, {"current_trial": 119, "trialdata": {"rt": -1000, "trial_type": "single-audio", "word": "ozone", "stimulus": "/static/audio/wordpool/OZONE.wav", "conditions": [12, 1600, "a", 24000], "internal_node_id": "0.0-83.0", "trial": 3, "time_elapsed": 551720, "serialpos": 2, "key_press": -1, "wordID": 995, "type": "PRES_AUD", "trial_index": 119}, "uniqueid": "MTK2289:3QILPRALQ62PJPIM58EH0MM0YE88NO", "dateTime": 1516918720472}, {"current_trial": 120, "trialdata": {"rt": -1000, "trial_type": "single-audio", "word": "virus", "stimulus": "/static/audio/wordpool/VIRUS.wav", "conditions": [12, 1600, "a", 24000], "internal_node_id": "0.0-84.0", "trial": 3, "time_elapsed": 554379, "serialpos": 3, "key_press": -1, "wordID": 1571, "type": "PRES_AUD", "trial_index": 120}, "uniqueid": "MTK2289:3QILPRALQ62PJPIM58EH0MM0YE88NO", "dateTime": 1516918723131}, {"current_trial": 121, "trialdata": {"rt": -1000, "trial_type": "single-audio", "word": "parrot", "stimulus": "/static/audio/wordpool/PARROT.wav", "conditions": [12, 1600, "a", 24000], "internal_node_id": "0.0-85.0", "trial": 3, "time_elapsed": 557063, "serialpos": 4, "key_press": -1, "wordID": 1014, "type": "PRES_AUD", "trial_index": 121}, "uniqueid": "MTK2289:3QILPRALQ62PJPIM58EH0MM0YE88NO", "dateTime": 1516918725814}, {"current_trial": 122, "trialdata": {"rt": -1000, "trial_type": "single-audio", "word": "outdoors", "stimulus": "/static/audio/wordpool/OUTDOORS.wav", "conditions": [12, 1600, "a", 24000], "internal_node_id": "0.0-86.0", "trial": 3, "time_elapsed": 559770, "serialpos": 5, "key_press": -1, "wordID": 986, "type": "PRES_AUD", "trial_index": 122}, "uniqueid": "MTK2289:3QILPRALQ62PJPIM58EH0MM0YE88NO", "dateTime": 1516918728521}, {"current_trial": 123, "trialdata": {"rt": -1000, "trial_type": "single-audio", "word": "teacher", "stimulus": "/static/audio/wordpool/TEACHER.wav", "conditions": [12, 1600, "a", 24000], "internal_node_id": "0.0-87.0", "trial": 3, "time_elapsed": 562557, "serialpos": 6, "key_press": -1, "wordID": 1439, "type": "PRES_AUD", "trial_index": 123}, "uniqueid": "MTK2289:3QILPRALQ62PJPIM58EH0MM0YE88NO", "dateTime": 1516918731308}, {"current_trial": 124, "trialdata": {"rt": -1000, "trial_type": "single-audio", "word": "smog", "stimulus": "/static/audio/wordpool/SMOG.wav", "conditions": [12, 1600, "a", 24000], "internal_node_id": "0.0-88.0", "trial": 3, "time_elapsed": 564985, "serialpos": 7, "key_press": -1, "wordID": 1329, "type": "PRES_AUD", "trial_index": 124}, "uniqueid": "MTK2289:3QILPRALQ62PJPIM58EH0MM0YE88NO", "dateTime": 1516918733736}, {"current_trial": 125, "trialdata": {"rt": -1000, "trial_type": "single-audio", "word": "garden", "stimulus": "/static/audio/wordpool/GARDEN.wav", "conditions": [12, 1600, "a", 24000], "internal_node_id": "0.0-89.0", "trial": 3, "time_elapsed": 567481, "serialpos": 8, "key_press": -1, "wordID": 622, "type": "PRES_AUD", "trial_index": 125}, "uniqueid": "MTK2289:3QILPRALQ62PJPIM58EH0MM0YE88NO", "dateTime": 1516918736232}, {"current_trial": 126, "trialdata": {"rt": -1000, "trial_type": "single-audio", "word": "patient", "stimulus": "/static/audio/wordpool/PATIENT.wav", "conditions": [12, 1600, "a", 24000], "internal_node_id": "0.0-90.0", "trial": 3, "time_elapsed": 570210, "serialpos": 9, "key_press": -1, "wordID": 1023, "type": "PRES_AUD", "trial_index": 126}, "uniqueid": "MTK2289:3QILPRALQ62PJPIM58EH0MM0YE88NO", "dateTime": 1516918738961}, {"current_trial": 127, "trialdata": {"rt": -1000, "trial_type": "single-audio", "word": "nurse", "stimulus": "/static/audio/wordpool/NURSE.wav", "conditions": [12, 1600, "a", 24000], "internal_node_id": "0.0-91.0", "trial": 3, "time_elapsed": 572921, "serialpos": 10, "key_press": -1, "wordID": 962, "type": "PRES_AUD", "trial_index": 127}, "uniqueid": "MTK2289:3QILPRALQ62PJPIM58EH0MM0YE88NO", "dateTime": 1516918741673}, {"current_trial": 128, "trialdata": {"rt": -1000, "trial_type": "single-audio", "word": "cod", "stimulus": "/static/audio/wordpool/COD.wav", "conditions": [12, 1600, "a", 24000], "internal_node_id": "0.0-92.0", "trial": 3, "time_elapsed": 575505, "serialpos": 11, "key_press": -1, "wordID": 339, "type": "PRES_AUD", "trial_index": 128}, "uniqueid": "MTK2289:3QILPRALQ62PJPIM58EH0MM0YE88NO", "dateTime": 1516918744256}, {"current_trial": 129, "trialdata": {"rt": -1, "trial_type": "single-stim", "stimulus": "", "internal_node_id": "0.0-93.0-0.0", "time_elapsed": 576907, "key_press": -1, "type": "PRE_RECALL_DELAY", "trial_index": 129}, "uniqueid": "MTK2289:3QILPRALQ62PJPIM58EH0MM0YE88NO", "dateTime": 1516918745658}, {"current_trial": 130, "trialdata": {"rt": -1000, "trial_type": "single-audio", "stimulus": "/static/audio/400Hz.wav", "internal_node_id": "0.0-94.0", "time_elapsed": 577412, "key_press": -1, "type": "PRE_RECALL_ALERT", "trial_index": 130}, "uniqueid": "MTK2289:3QILPRALQ62PJPIM58EH0MM0YE88NO", "dateTime": 1516918746163}, {"current_trial": 131, "trialdata": {"rt": [2145, 3110, 5276, 6564, 7220, 11149], "recwords": ["breast", "flesh", "outdoors", "teacher", "cod", "ozone"], "key_times": [1103, 1326, 1430, 1505, 1661, 1794, 2145, 2413, 2494, 2581, 2684, 2775, 3110, 3327, 3424, 3463, 3698, 3782, 3921, 4055, 5090, 5276, 5743, 5865, 5928, 6080, 6184, 6287, 6365, 6564, 6786, 6833, 6953, 7220, 9879, 10051, 10440, 10650, 10753, 11149], "trial_type": "free-recall", "conditions": [12, 1600, "a", 24000], "internal_node_id": "0.0-95.0-0.0", "key_presses": [66, 82, 69, 65, 83, 84, 13, 70, 76, 69, 83, 72, 13, 79, 85, 84, 68, 79, 79, 82, 83, 13, 84, 69, 65, 67, 72, 69, 82, 13, 67, 79, 68, 13, 79, 90, 79, 78, 69, 13], "trial": 3, "time_elapsed": 637416, "type": "FREE_RECALL", "trial_index": 131}, "uniqueid": "MTK2289:3QILPRALQ62PJPIM58EH0MM0YE88NO", "dateTime": 1516918806172}, {"current_trial": 132, "trialdata": {"rt": 2208, "trial_type": "text", "internal_node_id": "0.0-96.0", "time_elapsed": 641633, "key_press": 75, "type": "INSTRUCTIONS", "trial_index": 132}, "uniqueid": "MTK2289:3QILPRALQ62PJPIM58EH0MM0YE88NO", "dateTime": 1516918810384}, {"current_trial": 133, "trialdata": {"rt": [2152, 4055, 9672, 12496, 14197, 16817, 18356, 20241, 21619], "trial_type": "math-distractor", "key_times": [1204, 1393, 2152, 3212, 3661, 4055, 8437, 8947, 9672, 11745, 12042, 12496, 13341, 13681, 14197, 15822, 16234, 16544, 16817, 17825, 18024, 18356, 19814, 20241, 21155, 21325, 21619], "responses": ["13", "14", "24", "16", "14", "9", "15", "9", "14"], "num2": [2, 5, 8, 1, 3, 1, 7, 4, 9, 7], "num3": [8, 5, 9, 9, 4, 3, 3, 2, 4, 7], "conditions": [12, 800, "a", 24000], "internal_node_id": "0.0-97.0", "key_presses": [49, 51, 13, 49, 52, 13, 50, 52, 13, 49, 54, 13, 49, 52, 13, 56, 8, 57, 13, 49, 53, 13, 57, 13, 49, 52, 13], "trial": 4, "time_elapsed": 667639, "type": "DISTRACTOR", "trial_index": 133, "num1": [3, 4, 7, 6, 7, 5, 5, 3, 1, 8]}, "uniqueid": "MTK2289:3QILPRALQ62PJPIM58EH0MM0YE88NO", "dateTime": 1516918836390}, {"current_trial": 134, "trialdata": {"rt": -1, "trial_type": "single-stim", "stimulus": "<p id=\"stim\">10</p>", "internal_node_id": "0.0-98.0-0.0", "time_elapsed": 670641, "key_press": -1, "trial_index": 134}, "uniqueid": "MTK2289:3QILPRALQ62PJPIM58EH0MM0YE88NO", "dateTime": 1516918839393}, {"current_trial": 135, "trialdata": {"rt": -1, "trial_type": "single-stim", "stimulus": "<p id=\"stim\">9</p>", "internal_node_id": "0.0-98.0-1.0", "time_elapsed": 671645, "key_press": -1, "trial_index": 135}, "uniqueid": "MTK2289:3QILPRALQ62PJPIM58EH0MM0YE88NO", "dateTime": 1516918840396}, {"current_trial": 136, "trialdata": {"rt": -1, "trial_type": "single-stim", "stimulus": "<p id=\"stim\">8</p>", "internal_node_id": "0.0-98.0-2.0", "time_elapsed": 672647, "key_press": -1, "trial_index": 136}, "uniqueid": "MTK2289:3QILPRALQ62PJPIM58EH0MM0YE88NO", "dateTime": 1516918841398}, {"current_trial": 137, "trialdata": {"rt": -1, "trial_type": "single-stim", "stimulus": "<p id=\"stim\">7</p>", "internal_node_id": "0.0-98.0-3.0", "time_elapsed": 673650, "key_press": -1, "trial_index": 137}, "uniqueid": "MTK2289:3QILPRALQ62PJPIM58EH0MM0YE88NO", "dateTime": 1516918842402}, {"current_trial": 138, "trialdata": {"rt": -1, "trial_type": "single-stim", "stimulus": "<p id=\"stim\">6</p>", "internal_node_id": "0.0-98.0-4.0", "time_elapsed": 674652, "key_press": -1, "trial_index": 138}, "uniqueid": "MTK2289:3QILPRALQ62PJPIM58EH0MM0YE88NO", "dateTime": 1516918843404}, {"current_trial": 139, "trialdata": {"rt": -1, "trial_type": "single-stim", "stimulus": "<p id=\"stim\">5</p>", "internal_node_id": "0.0-98.0-5.0", "time_elapsed": 675655, "key_press": -1, "trial_index": 139}, "uniqueid": "MTK2289:3QILPRALQ62PJPIM58EH0MM0YE88NO", "dateTime": 1516918844406}, {"current_trial": 140, "trialdata": {"rt": -1, "trial_type": "single-stim", "stimulus": "<p id=\"stim\">4</p>", "internal_node_id": "0.0-98.0-6.0", "time_elapsed": 676657, "key_press": -1, "trial_index": 140}, "uniqueid": "MTK2289:3QILPRALQ62PJPIM58EH0MM0YE88NO", "dateTime": 1516918845408}, {"current_trial": 141, "trialdata": {"rt": -1, "trial_type": "single-stim", "stimulus": "<p id=\"stim\">3</p>", "internal_node_id": "0.0-98.0-7.0", "time_elapsed": 677660, "key_press": -1, "trial_index": 141}, "uniqueid": "MTK2289:3QILPRALQ62PJPIM58EH0MM0YE88NO", "dateTime": 1516918846411}, {"current_trial": 142, "trialdata": {"rt": -1, "trial_type": "single-stim", "stimulus": "<p id=\"stim\">2</p>", "internal_node_id": "0.0-98.0-8.0", "time_elapsed": 678662, "key_press": -1, "trial_index": 142}, "uniqueid": "MTK2289:3QILPRALQ62PJPIM58EH0MM0YE88NO", "dateTime": 1516918847414}, {"current_trial": 143, "trialdata": {"rt": -1, "trial_type": "single-stim", "stimulus": "<p id=\"stim\">1</p>", "internal_node_id": "0.0-98.0-9.0", "time_elapsed": 679664, "key_press": -1, "trial_index": 143}, "uniqueid": "MTK2289:3QILPRALQ62PJPIM58EH0MM0YE88NO", "dateTime": 1516918848415}, {"current_trial": 144, "trialdata": {"rt": -1, "trial_type": "single-stim", "stimulus": "<p id=\"stim\">+</p>", "internal_node_id": "0.0-99.0-0.0", "time_elapsed": 681166, "key_press": -1, "type": "FIXATION", "trial_index": 144}, "uniqueid": "MTK2289:3QILPRALQ62PJPIM58EH0MM0YE88NO", "dateTime": 1516918849917}, {"current_trial": 145, "trialdata": {"rt": -1000, "trial_type": "single-audio", "word": "pudding", "stimulus": "/static/audio/wordpool/PUDDING.wav", "conditions": [12, 800, "a", 24000], "internal_node_id": "0.0-100.0", "trial": 4, "time_elapsed": 683113, "serialpos": 0, "key_press": -1, "wordID": 1138, "type": "PRES_AUD", "trial_index": 145}, "uniqueid": "MTK2289:3QILPRALQ62PJPIM58EH0MM0YE88NO", "dateTime": 1516918851864}, {"current_trial": 146, "trialdata": {"rt": -1000, "trial_type": "single-audio", "word": "penguin", "stimulus": "/static/audio/wordpool/PENGUIN.wav", "conditions": [12, 800, "a", 24000], "internal_node_id": "0.0-101.0", "trial": 4, "time_elapsed": 685101, "serialpos": 1, "key_press": -1, "wordID": 1043, "type": "PRES_AUD", "trial_index": 146}, "uniqueid": "MTK2289:3QILPRALQ62PJPIM58EH0MM0YE88NO", "dateTime": 1516918853852}, {"current_trial": 147, "trialdata": {"rt": -1000, "trial_type": "single-audio", "word": "mop", "stimulus": "/static/audio/wordpool/MOP.wav", "conditions": [12, 800, "a", 24000], "internal_node_id": "0.0-102.0", "trial": 4, "time_elapsed": 686787, "serialpos": 2, "key_press": -1, "wordID": 915, "type": "PRES_AUD", "trial_index": 147}, "uniqueid": "MTK2289:3QILPRALQ62PJPIM58EH0MM0YE88NO", "dateTime": 1516918855539}, {"current_trial": 148, "trialdata": {"rt": -1000, "trial_type": "single-audio", "word": "puppy", "stimulus": "/static/audio/wordpool/PUPPY.wav", "conditions": [12, 800, "a", 24000], "internal_node_id": "0.0-103.0", "trial": 4, "time_elapsed": 688669, "serialpos": 3, "key_press": -1, "wordID": 1143, "type": "PRES_AUD", "trial_index": 148}, "uniqueid": "MTK2289:3QILPRALQ62PJPIM58EH0MM0YE88NO", "dateTime": 1516918857420}, {"current_trial": 149, "trialdata": {"rt": -1000, "trial_type": "single-audio", "word": "blade", "stimulus": "/static/audio/wordpool/BLADE.wav", "conditions": [12, 800, "a", 24000], "internal_node_id": "0.0-104.0", "trial": 4, "time_elapsed": 690665, "serialpos": 4, "key_press": -1, "wordID": 133, "type": "PRES_AUD", "trial_index": 149}, "uniqueid": "MTK2289:3QILPRALQ62PJPIM58EH0MM0YE88NO", "dateTime": 1516918859416}, {"current_trial": 150, "trialdata": {"rt": -1000, "trial_type": "single-audio", "word": "razor", "stimulus": "/static/audio/wordpool/RAZOR.wav", "conditions": [12, 800, "a", 24000], "internal_node_id": "0.0-105.0", "trial": 4, "time_elapsed": 692572, "serialpos": 5, "key_press": -1, "wordID": 1170, "type": "PRES_AUD", "trial_index": 150}, "uniqueid": "MTK2289:3QILPRALQ62PJPIM58EH0MM0YE88NO", "dateTime": 1516918861323}, {"current_trial": 151, "trialdata": {"rt": -1000, "trial_type": "single-audio", "word": "nightgown", "stimulus": "/static/audio/wordpool/NIGHTGOWN.wav", "conditions": [12, 800, "a", 24000], "internal_node_id": "0.0-106.0", "trial": 4, "time_elapsed": 694512, "serialpos": 6, "key_press": -1, "wordID": 952, "type": "PRES_AUD", "trial_index": 151}, "uniqueid": "MTK2289:3QILPRALQ62PJPIM58EH0MM0YE88NO", "dateTime": 1516918863263}, {"current_trial": 152, "trialdata": {"rt": -1000, "trial_type": "single-audio", "word": "servant", "stimulus": "/static/audio/wordpool/SERVANT.wav", "conditions": [12, 800, "a", 24000], "internal_node_id": "0.0-107.0", "trial": 4, "time_elapsed": 696388, "serialpos": 7, "key_press": -1, "wordID": 1270, "type": "PRES_AUD", "trial_index": 152}, "uniqueid": "MTK2289:3QILPRALQ62PJPIM58EH0MM0YE88NO", "dateTime": 1516918865140}, {"current_trial": 153, "trialdata": {"rt": -1000, "trial_type": "single-audio", "word": "turtle", "stimulus": "/static/audio/wordpool/TURTLE.wav", "conditions": [12, 800, "a", 24000], "internal_node_id": "0.0-108.0", "trial": 4, "time_elapsed": 698388, "serialpos": 8, "key_press": -1, "wordID": 1521, "type": "PRES_AUD", "trial_index": 153}, "uniqueid": "MTK2289:3QILPRALQ62PJPIM58EH0MM0YE88NO", "dateTime": 1516918867139}, {"current_trial": 154, "trialdata": {"rt": -1000, "trial_type": "single-audio", "word": "guitar", "stimulus": "/static/audio/wordpool/GUITAR.wav", "conditions": [12, 800, "a", 24000], "internal_node_id": "0.0-109.0", "trial": 4, "time_elapsed": 700064, "serialpos": 9, "key_press": -1, "wordID": 669, "type": "PRES_AUD", "trial_index": 154}, "uniqueid": "MTK2289:3QILPRALQ62PJPIM58EH0MM0YE88NO", "dateTime": 1516918868815}, {"current_trial": 155, "trialdata": {"rt": -1000, "trial_type": "single-audio", "word": "bike", "stimulus": "/static/audio/wordpool/BIKE.wav", "conditions": [12, 800, "a", 24000], "internal_node_id": "0.0-110.0", "trial": 4, "time_elapsed": 701714, "serialpos": 10, "key_press": -1, "wordID": 124, "type": "PRES_AUD", "trial_index": 155}, "uniqueid": "MTK2289:3QILPRALQ62PJPIM58EH0MM0YE88NO", "dateTime": 1516918870465}, {"current_trial": 156, "trialdata": {"rt": -1000, "trial_type": "single-audio", "word": "chipmunk", "stimulus": "/static/audio/wordpool/CHIPMUNK.wav", "conditions": [12, 800, "a", 24000], "internal_node_id": "0.0-111.0", "trial": 4, "time_elapsed": 703419, "serialpos": 11, "key_press": -1, "wordID": 303, "type": "PRES_AUD", "trial_index": 156}, "uniqueid": "MTK2289:3QILPRALQ62PJPIM58EH0MM0YE88NO", "dateTime": 1516918872170}, {"current_trial": 157, "trialdata": {"rt": -1, "trial_type": "single-stim", "stimulus": "", "internal_node_id": "0.0-112.0-0.0", "time_elapsed": 704667, "key_press": -1, "type": "PRE_RECALL_DELAY", "trial_index": 157}, "uniqueid": "MTK2289:3QILPRALQ62PJPIM58EH0MM0YE88NO", "dateTime": 1516918873418}, {"current_trial": 158, "trialdata": {"rt": -1000, "trial_type": "single-audio", "stimulus": "/static/audio/400Hz.wav", "internal_node_id": "0.0-113.0", "time_elapsed": 705171, "key_press": -1, "type": "PRE_RECALL_ALERT", "trial_index": 158}, "uniqueid": "MTK2289:3QILPRALQ62PJPIM58EH0MM0YE88NO", "dateTime": 1516918873922}, {"current_trial": 159, "trialdata": {"rt": [2851, 3634, 4948, 11461, 19729, 25626], "recwords": ["chipmunk", "bike", "guitar", "puppy", "bike", "car"], "key_times": [1198, 1279, 1354, 1440, 1930, 2122, 2330, 2469, 2851, 3043, 3132, 3301, 3435, 3634, 3845, 3945, 4090, 4313, 4660, 4754, 4948, 10290, 10666, 10841, 10976, 11168, 11461, 19204, 19320, 19475, 19555, 19729, 25101, 25270, 25370, 25626], "trial_type": "free-recall", "conditions": [12, 800, "a", 24000], "internal_node_id": "0.0-114.0-0.0", "key_presses": [67, 72, 73, 80, 77, 85, 78, 75, 13, 66, 73, 75, 69, 13, 71, 85, 73, 84, 65, 82, 13, 80, 85, 80, 80, 89, 13, 66, 73, 75, 69, 13, 67, 65, 82, 13], "trial": 4, "time_elapsed": 765179, "type": "FREE_RECALL", "trial_index": 159}, "uniqueid": "MTK2289:3QILPRALQ62PJPIM58EH0MM0YE88NO", "dateTime": 1516918933935}, {"current_trial": 160, "trialdata": {"rt": 3242, "trial_type": "text", "internal_node_id": "0.0-115.0", "time_elapsed": 770428, "key_press": 74, "type": "INSTRUCTIONS", "trial_index": 160}, "uniqueid": "MTK2289:3QILPRALQ62PJPIM58EH0MM0YE88NO", "dateTime": 1516918939179}, {"current_trial": 161, "trialdata": {"rt": [7811, 10177], "trial_type": "math-distractor", "key_times": [2672, 6570, 7050, 7161, 7811, 8798, 9828, 10177, 11664], "responses": ["26", "14"], "num2": [9, 7, 3], "num3": [9, 2, 3], "conditions": [24, 800, "a", 12000], "internal_node_id": "0.0-116.0", "key_presses": [50, 53, 8, 54, 13, 49, 52, 13, 56], "trial": 5, "time_elapsed": 784433, "type": "DISTRACTOR", "trial_index": 161, "num1": [8, 5, 1]}, "uniqueid": "MTK2289:3QILPRALQ62PJPIM58EH0MM0YE88NO", "dateTime": 1516918953185}, {"current_trial": 162, "trialdata": {"rt": -1, "trial_type": "single-stim", "stimulus": "<p id=\"stim\">10</p>", "internal_node_id": "0.0-117.0-0.0", "time_elapsed": 787436, "key_press": -1, "trial_index": 162}, "uniqueid": "MTK2289:3QILPRALQ62PJPIM58EH0MM0YE88NO", "dateTime": 1516918956187}, {"current_trial": 163, "trialdata": {"rt": -1, "trial_type": "single-stim", "stimulus": "<p id=\"stim\">9</p>", "internal_node_id": "0.0-117.0-1.0", "time_elapsed": 788438, "key_press": -1, "trial_index": 163}, "uniqueid": "MTK2289:3QILPRALQ62PJPIM58EH0MM0YE88NO", "dateTime": 1516918957189}, {"current_trial": 164, "trialdata": {"rt": -1, "trial_type": "single-stim", "stimulus": "<p id=\"stim\">8</p>", "internal_node_id": "0.0-117.0-2.0", "time_elapsed": 789441, "key_press": -1, "trial_index": 164}, "uniqueid": "MTK2289:3QILPRALQ62PJPIM58EH0MM0YE88NO", "dateTime": 1516918958194}, {"current_trial": 165, "trialdata": {"rt": -1, "trial_type": "single-stim", "stimulus": "<p id=\"stim\">7</p>", "internal_node_id": "0.0-117.0-3.0", "time_elapsed": 790446, "key_press": -1, "trial_index": 165}, "uniqueid": "MTK2289:3QILPRALQ62PJPIM58EH0MM0YE88NO", "dateTime": 1516918959197}, {"current_trial": 166, "trialdata": {"rt": -1, "trial_type": "single-stim", "stimulus": "<p id=\"stim\">6</p>", "internal_node_id": "0.0-117.0-4.0", "time_elapsed": 791448, "key_press": -1, "trial_index": 166}, "uniqueid": "MTK2289:3QILPRALQ62PJPIM58EH0MM0YE88NO", "dateTime": 1516918960199}, {"current_trial": 167, "trialdata": {"rt": -1, "trial_type": "single-stim", "stimulus": "<p id=\"stim\">5</p>", "internal_node_id": "0.0-117.0-5.0", "time_elapsed": 792452, "key_press": -1, "trial_index": 167}, "uniqueid": "MTK2289:3QILPRALQ62PJPIM58EH0MM0YE88NO", "dateTime": 1516918961203}, {"current_trial": 168, "trialdata": {"rt": -1, "trial_type": "single-stim", "stimulus": "<p id=\"stim\">4</p>", "internal_node_id": "0.0-117.0-6.0", "time_elapsed": 793454, "key_press": -1, "trial_index": 168}, "uniqueid": "MTK2289:3QILPRALQ62PJPIM58EH0MM0YE88NO", "dateTime": 1516918962206}, {"current_trial": 169, "trialdata": {"rt": -1, "trial_type": "single-stim", "stimulus": "<p id=\"stim\">3</p>", "internal_node_id": "0.0-117.0-7.0", "time_elapsed": 794458, "key_press": -1, "trial_index": 169}, "uniqueid": "MTK2289:3QILPRALQ62PJPIM58EH0MM0YE88NO", "dateTime": 1516918963209}, {"current_trial": 170, "trialdata": {"rt": -1, "trial_type": "single-stim", "stimulus": "<p id=\"stim\">2</p>", "internal_node_id": "0.0-117.0-8.0", "time_elapsed": 795461, "key_press": -1, "trial_index": 170}, "uniqueid": "MTK2289:3QILPRALQ62PJPIM58EH0MM0YE88NO", "dateTime": 1516918964212}, {"current_trial": 171, "trialdata": {"rt": -1, "trial_type": "single-stim", "stimulus": "<p id=\"stim\">1</p>", "internal_node_id": "0.0-117.0-9.0", "time_elapsed": 796464, "key_press": -1, "trial_index": 171}, "uniqueid": "MTK2289:3QILPRALQ62PJPIM58EH0MM0YE88NO", "dateTime": 1516918965215}, {"current_trial": 172, "trialdata": {"rt": -1, "trial_type": "single-stim", "stimulus": "<p id=\"stim\">+</p>", "internal_node_id": "0.0-118.0-0.0", "time_elapsed": 797965, "key_press": -1, "type": "FIXATION", "trial_index": 172}, "uniqueid": "MTK2289:3QILPRALQ62PJPIM58EH0MM0YE88NO", "dateTime": 1516918966716}, {"current_trial": 173, "trialdata": {"rt": -1000, "trial_type": "single-audio", "word": "rabbit", "stimulus": "/static/audio/wordpool/RABBIT.wav", "conditions": [24, 800, "a", 12000], "internal_node_id": "0.0-119.0", "trial": 5, "time_elapsed": 799890, "serialpos": 0, "key_press": -1, "wordID": 1151, "type": "PRES_AUD", "trial_index": 173}, "uniqueid": "MTK2289:3QILPRALQ62PJPIM58EH0MM0YE88NO", "dateTime": 1516918968642}, {"current_trial": 174, "trialdata": {"rt": -1000, "trial_type": "single-audio", "word": "lady", "stimulus": "/static/audio/wordpool/LADY.wav", "conditions": [24, 800, "a", 12000], "internal_node_id": "0.0-120.0", "trial": 5, "time_elapsed": 801596, "serialpos": 1, "key_press": -1, "wordID": 793, "type": "PRES_AUD", "trial_index": 174}, "uniqueid": "MTK2289:3QILPRALQ62PJPIM58EH0MM0YE88NO", "dateTime": 1516918970347}, {"current_trial": 175, "trialdata": {"rt": -1000, "trial_type": "single-audio", "word": "twig", "stimulus": "/static/audio/wordpool/TWIG.wav", "conditions": [24, 800, "a", 12000], "internal_node_id": "0.0-121.0", "trial": 5, "time_elapsed": 803455, "serialpos": 2, "key_press": -1, "wordID": 1526, "type": "PRES_AUD", "trial_index": 175}, "uniqueid": "MTK2289:3QILPRALQ62PJPIM58EH0MM0YE88NO", "dateTime": 1516918972207}, {"current_trial": 176, "trialdata": {"rt": -1000, "trial_type": "single-audio", "word": "egypt", "stimulus": "/static/audio/wordpool/EGYPT.wav", "conditions": [24, 800, "a", 12000], "internal_node_id": "0.0-122.0", "trial": 5, "time_elapsed": 805299, "serialpos": 3, "key_press": -1, "wordID": 518, "type": "PRES_AUD", "trial_index": 176}, "uniqueid": "MTK2289:3QILPRALQ62PJPIM58EH0MM0YE88NO", "dateTime": 1516918974050}, {"current_trial": 177, "trialdata": {"rt": -1000, "trial_type": "single-audio", "word": "judge", "stimulus": "/static/audio/wordpool/JUDGE.wav", "conditions": [24, 800, "a", 12000], "internal_node_id": "0.0-123.0", "trial": 5, "time_elapsed": 807285, "serialpos": 4, "key_press": -1, "wordID": 760, "type": "PRES_AUD", "trial_index": 177}, "uniqueid": "MTK2289:3QILPRALQ62PJPIM58EH0MM0YE88NO", "dateTime": 1516918976036}, {"current_trial": 178, "trialdata": {"rt": -1000, "trial_type": "single-audio", "word": "jury", "stimulus": "/static/audio/wordpool/JURY.wav", "conditions": [24, 800, "a", 12000], "internal_node_id": "0.0-124.0", "trial": 5, "time_elapsed": 808922, "serialpos": 5, "key_press": -1, "wordID": 765, "type": "PRES_AUD", "trial_index": 178}, "uniqueid": "MTK2289:3QILPRALQ62PJPIM58EH0MM0YE88NO", "dateTime": 1516918977673}, {"current_trial": 179, "trialdata": {"rt": -1000, "trial_type": "single-audio", "word": "glass", "stimulus": "/static/audio/wordpool/GLASS.wav", "conditions": [24, 800, "a", 12000], "internal_node_id": "0.0-125.0", "trial": 5, "time_elapsed": 810725, "serialpos": 6, "key_press": -1, "wordID": 638, "type": "PRES_AUD", "trial_index": 179}, "uniqueid": "MTK2289:3QILPRALQ62PJPIM58EH0MM0YE88NO", "dateTime": 1516918979476}, {"current_trial": 180, "trialdata": {"rt": -1000, "trial_type": "single-audio", "word": "possum", "stimulus": "/static/audio/wordpool/POSSUM.wav", "conditions": [24, 800, "a", 12000], "internal_node_id": "0.0-126.0", "trial": 5, "time_elapsed": 812718, "serialpos": 7, "key_press": -1, "wordID": 1111, "type": "PRES_AUD", "trial_index": 180}, "uniqueid": "MTK2289:3QILPRALQ62PJPIM58EH0MM0YE88NO", "dateTime": 1516918981469}, {"current_trial": 181, "trialdata": {"rt": -1000, "trial_type": "single-audio", "word": "orchid", "stimulus": "/static/audio/wordpool/ORCHID.wav", "conditions": [24, 800, "a", 12000], "internal_node_id": "0.0-127.0", "trial": 5, "time_elapsed": 814394, "serialpos": 8, "key_press": -1, "wordID": 981, "type": "PRES_AUD", "trial_index": 181}, "uniqueid": "MTK2289:3QILPRALQ62PJPIM58EH0MM0YE88NO", "dateTime": 1516918983145}, {"current_trial": 182, "trialdata": {"rt": -1000, "trial_type": "single-audio", "word": "apron", "stimulus": "/static/audio/wordpool/APRON.wav", "conditions": [24, 800, "a", 12000], "internal_node_id": "0.0-128.0", "trial": 5, "time_elapsed": 816133, "serialpos": 9, "key_press": -1, "wordID": 34, "type": "PRES_AUD", "trial_index": 182}, "uniqueid": "MTK2289:3QILPRALQ62PJPIM58EH0MM0YE88NO", "dateTime": 1516918984884}, {"current_trial": 183, "trialdata": {"rt": -1000, "trial_type": "single-audio", "word": "flashlight", "stimulus": "/static/audio/wordpool/FLASHLIGHT.wav", "conditions": [24, 800, "a", 12000], "internal_node_id": "0.0-129.0", "trial": 5, "time_elapsed": 817933, "serialpos": 10, "key_press": -1, "wordID": 574, "type": "PRES_AUD", "trial_index": 183}, "uniqueid": "MTK2289:3QILPRALQ62PJPIM58EH0MM0YE88NO", "dateTime": 1516918986685}, {"current_trial": 184, "trialdata": {"rt": -1000, "trial_type": "single-audio", "word": "omelet", "stimulus": "/static/audio/wordpool/OMELET.wav", "conditions": [24, 800, "a", 12000], "internal_node_id": "0.0-130.0", "trial": 5, "time_elapsed": 819610, "serialpos": 11, "key_press": -1, "wordID": 975, "type": "PRES_AUD", "trial_index": 184}, "uniqueid": "MTK2289:3QILPRALQ62PJPIM58EH0MM0YE88NO", "dateTime": 1516918988362}, {"current_trial": 185, "trialdata": {"rt": -1000, "trial_type": "single-audio", "word": "wagon", "stimulus": "/static/audio/wordpool/WAGON.wav", "conditions": [24, 800, "a", 12000], "internal_node_id": "0.0-131.0", "trial": 5, "time_elapsed": 821317, "serialpos": 12, "key_press": -1, "wordID": 1577, "type": "PRES_AUD", "trial_index": 185}, "uniqueid": "MTK2289:3QILPRALQ62PJPIM58EH0MM0YE88NO", "dateTime": 1516918990068}, {"current_trial": 186, "trialdata": {"rt": -1000, "trial_type": "single-audio", "word": "hiker", "stimulus": "/static/audio/wordpool/HIKER.wav", "conditions": [24, 800, "a", 12000], "internal_node_id": "0.0-132.0", "trial": 5, "time_elapsed": 823106, "serialpos": 13, "key_press": -1, "wordID": 707, "type": "PRES_AUD", "trial_index": 186}, "uniqueid": "MTK2289:3QILPRALQ62PJPIM58EH0MM0YE88NO", "dateTime": 1516918991857}, {"current_trial": 187, "trialdata": {"rt": -1000, "trial_type": "single-audio", "word": "journal", "stimulus": "/static/audio/wordpool/JOURNAL.wav", "conditions": [24, 800, "a", 12000], "internal_node_id": "0.0-133.0", "trial": 5, "time_elapsed": 824923, "serialpos": 14, "key_press": -1, "wordID": 759, "type": "PRES_AUD", "trial_index": 187}, "uniqueid": "MTK2289:3QILPRALQ62PJPIM58EH0MM0YE88NO", "dateTime": 1516918993674}, {"current_trial": 188, "trialdata": {"rt": -1000, "trial_type": "single-audio", "word": "critic", "stimulus": "/static/audio/wordpool/CRITIC.wav", "conditions": [24, 800, "a", 12000], "internal_node_id": "0.0-134.0", "trial": 5, "time_elapsed": 826737, "serialpos": 15, "key_press": -1, "wordID": 409, "type": "PRES_AUD", "trial_index": 188}, "uniqueid": "MTK2289:3QILPRALQ62PJPIM58EH0MM0YE88NO", "dateTime": 1516918995488}, {"current_trial": 189, "trialdata": {"rt": -1000, "trial_type": "single-audio", "word": "worker", "stimulus": "/static/audio/wordpool/WORKER.wav", "conditions": [24, 800, "a", 12000], "internal_node_id": "0.0-135.0", "trial": 5, "time_elapsed": 828519, "serialpos": 16, "key_press": -1, "wordID": 1620, "type": "PRES_AUD", "trial_index": 189}, "uniqueid": "MTK2289:3QILPRALQ62PJPIM58EH0MM0YE88NO", "dateTime": 1516918997270}, {"current_trial": 190, "trialdata": {"rt": -1000, "trial_type": "single-audio", "word": "tractor", "stimulus": "/static/audio/wordpool/TRACTOR.wav", "conditions": [24, 800, "a", 12000], "internal_node_id": "0.0-136.0", "trial": 5, "time_elapsed": 830161, "serialpos": 17, "key_press": -1, "wordID": 1492, "type": "PRES_AUD", "trial_index": 190}, "uniqueid": "MTK2289:3QILPRALQ62PJPIM58EH0MM0YE88NO", "dateTime": 1516918998912}, {"current_trial": 191, "trialdata": {"rt": -1000, "trial_type": "single-audio", "word": "nomad", "stimulus": "/static/audio/wordpool/NOMAD.wav", "conditions": [24, 800, "a", 12000], "internal_node_id": "0.0-137.0", "trial": 5, "time_elapsed": 831923, "serialpos": 18, "key_press": -1, "wordID": 954, "type": "PRES_AUD", "trial_index": 191}, "uniqueid": "MTK2289:3QILPRALQ62PJPIM58EH0MM0YE88NO", "dateTime": 1516919000674}, {"current_trial": 192, "trialdata": {"rt": -1000, "trial_type": "single-audio", "word": "treat", "stimulus": "/static/audio/wordpool/TREAT.wav", "conditions": [24, 800, "a", 12000], "internal_node_id": "0.0-138.0", "trial": 5, "time_elapsed": 833644, "serialpos": 19, "key_press": -1, "wordID": 1500, "type": "PRES_AUD", "trial_index": 192}, "uniqueid": "MTK2289:3QILPRALQ62PJPIM58EH0MM0YE88NO", "dateTime": 1516919002396}, {"current_trial": 193, "trialdata": {"rt": -1000, "trial_type": "single-audio", "word": "grape", "stimulus": "/static/audio/wordpool/GRAPE.wav", "conditions": [24, 800, "a", 12000], "internal_node_id": "0.0-139.0", "trial": 5, "time_elapsed": 835629, "serialpos": 20, "key_press": -1, "wordID": 653, "type": "PRES_AUD", "trial_index": 193}, "uniqueid": "MTK2289:3QILPRALQ62PJPIM58EH0MM0YE88NO", "dateTime": 1516919004380}, {"current_trial": 194, "trialdata": {"rt": -1000, "trial_type": "single-audio", "word": "citrus", "stimulus": "/static/audio/wordpool/CITRUS.wav", "conditions": [24, 800, "a", 12000], "internal_node_id": "0.0-140.0", "trial": 5, "time_elapsed": 837334, "serialpos": 21, "key_press": -1, "wordID": 312, "type": "PRES_AUD", "trial_index": 194}, "uniqueid": "MTK2289:3QILPRALQ62PJPIM58EH0MM0YE88NO", "dateTime": 1516919006085}, {"current_trial": 195, "trialdata": {"rt": -1000, "trial_type": "single-audio", "word": "skirt", "stimulus": "/static/audio/wordpool/SKIRT.wav", "conditions": [24, 800, "a", 12000], "internal_node_id": "0.0-141.0", "trial": 5, "time_elapsed": 839129, "serialpos": 22, "key_press": -1, "wordID": 1318, "type": "PRES_AUD", "trial_index": 195}, "uniqueid": "MTK2289:3QILPRALQ62PJPIM58EH0MM0YE88NO", "dateTime": 1516919007880}, {"current_trial": 196, "trialdata": {"rt": -1000, "trial_type": "single-audio", "word": "donkey", "stimulus": "/static/audio/wordpool/DONKEY.wav", "conditions": [24, 800, "a", 12000], "internal_node_id": "0.0-142.0", "trial": 5, "time_elapsed": 841128, "serialpos": 23, "key_press": -1, "wordID": 483, "type": "PRES_AUD", "trial_index": 196}, "uniqueid": "MTK2289:3QILPRALQ62PJPIM58EH0MM0YE88NO", "dateTime": 1516919009880}, {"current_trial": 197, "trialdata": {"rt": -1, "trial_type": "single-stim", "stimulus": "", "internal_node_id": "0.0-143.0-0.0", "time_elapsed": 842490, "key_press": -1, "type": "PRE_RECALL_DELAY", "trial_index": 197}, "uniqueid": "MTK2289:3QILPRALQ62PJPIM58EH0MM0YE88NO", "dateTime": 1516919011241}, {"current_trial": 198, "trialdata": {"rt": -1000, "trial_type": "single-audio", "stimulus": "/static/audio/400Hz.wav", "internal_node_id": "0.0-144.0", "time_elapsed": 842994, "key_press": -1, "type": "PRE_RECALL_ALERT", "trial_index": 198}, "uniqueid": "MTK2289:3QILPRALQ62PJPIM58EH0MM0YE88NO", "dateTime": 1516919011745}, {"current_trial": 199, "trialdata": {"rt": [1523, 2663, 3413, 6943, 7934, 25159, 35949, 38374, 42274], "recwords": ["donkey", "citrus", "skirt", "judge", "jury", "omelet", "orchard", "tractor", "apple"], "key_times": [751, 846, 945, 1032, 1145, 1265, 1523, 1807, 1894, 2089, 2251, 2342, 2472, 2663, 2833, 2918, 3072, 3154, 3312, 3413, 6253, 6418, 6485, 6669, 6766, 6943, 7155, 7325, 7418, 7585, 7934, 23781, 23982, 24056, 24197, 24373, 24786, 25159, 34731, 34979, 35289, 35396, 35506, 35594, 35828, 35949, 37149, 37371, 37455, 37625, 37862, 37995, 38203, 38374, 41513, 41638, 41768, 42002, 42105, 42274], "trial_type": "free-recall", "conditions": [24, 800, "a", 12000], "internal_node_id": "0.0-145.0-0.0", "key_presses": [68, 79, 78, 75, 69, 89, 13, 67, 73, 84, 82, 85, 83, 13, 83, 75, 73, 82, 84, 13, 74, 85, 68, 71, 69, 13, 74, 85, 82, 89, 13, 79, 77, 69, 76, 69, 84, 13, 79, 82, 67, 72, 65, 82, 68, 13, 84, 82, 65, 67, 84, 79, 82, 13, 65, 80, 80, 76, 69, 13], "trial": 5, "time_elapsed": 902998, "type": "FREE_RECALL", "trial_index": 199}, "uniqueid": "MTK2289:3QILPRALQ62PJPIM58EH0MM0YE88NO", "dateTime": 1516919071754}, {"current_trial": 200, "trialdata": {"rt": 14127, "trial_type": "text", "internal_node_id": "0.0-146.0", "time_elapsed": 919133, "key_press": 75, "type": "INSTRUCTIONS", "trial_index": 200}, "uniqueid": "MTK2289:3QILPRALQ62PJPIM58EH0MM0YE88NO", "dateTime": 1516919087884}, {"current_trial": 201, "trialdata": {"rt": [2526, 5411, 7461, 8908, 11264, 12881, 14228, 15725, 18705, 21170, 22547], "trial_type": "math-distractor", "key_times": [1935, 2135, 2526, 4990, 5170, 5411, 7131, 7287, 7461, 8360, 8550, 8908, 10767, 11048, 11264, 12515, 12881, 13779, 13946, 14228, 15303, 15450, 15725, 18130, 18375, 18705, 20786, 20986, 21170, 22182, 22547], "responses": ["13", "21", "11", "18", "22", "9", "12", "14", "24", "21", "9"], "num2": [4, 4, 7, 4, 9, 2, 4, 6, 7, 8, 1, 1], "num3": [5, 9, 2, 8, 4, 6, 3, 4, 8, 7, 1, 8], "conditions": [12, 800, "a", 24000], "internal_node_id": "0.0-147.0", "key_presses": [49, 51, 13, 50, 49, 13, 49, 49, 13, 49, 56, 13, 50, 50, 13, 57, 13, 49, 50, 13, 49, 52, 13, 50, 52, 13, 50, 49, 13, 57, 13], "trial": 6, "time_elapsed": 945138, "type": "DISTRACTOR", "trial_index": 201, "num1": [4, 9, 2, 6, 9, 1, 5, 5, 9, 6, 7, 7]}, "uniqueid": "MTK2289:3QILPRALQ62PJPIM58EH0MM0YE88NO", "dateTime": 1516919113889}, {"current_trial": 202, "trialdata": {"rt": -1, "trial_type": "single-stim", "stimulus": "<p id=\"stim\">10</p>", "internal_node_id": "0.0-148.0-0.0", "time_elapsed": 948141, "key_press": -1, "trial_index": 202}, "uniqueid": "MTK2289:3QILPRALQ62PJPIM58EH0MM0YE88NO", "dateTime": 1516919116892}, {"current_trial": 203, "trialdata": {"rt": -1, "trial_type": "single-stim", "stimulus": "<p id=\"stim\">9</p>", "internal_node_id": "0.0-148.0-1.0", "time_elapsed": 949143, "key_press": -1, "trial_index": 203}, "uniqueid": "MTK2289:3QILPRALQ62PJPIM58EH0MM0YE88NO", "dateTime": 1516919117894}, {"current_trial": 204, "trialdata": {"rt": -1, "trial_type": "single-stim", "stimulus": "<p id=\"stim\">8</p>", "internal_node_id": "0.0-148.0-2.0", "time_elapsed": 950145, "key_press": -1, "trial_index": 204}, "uniqueid": "MTK2289:3QILPRALQ62PJPIM58EH0MM0YE88NO", "dateTime": 1516919118896}, {"current_trial": 205, "trialdata": {"rt": -1, "trial_type": "single-stim", "stimulus": "<p id=\"stim\">7</p>", "internal_node_id": "0.0-148.0-3.0", "time_elapsed": 951147, "key_press": -1, "trial_index": 205}, "uniqueid": "MTK2289:3QILPRALQ62PJPIM58EH0MM0YE88NO", "dateTime": 1516919119898}, {"current_trial": 206, "trialdata": {"rt": -1, "trial_type": "single-stim", "stimulus": "<p id=\"stim\">6</p>", "internal_node_id": "0.0-148.0-4.0", "time_elapsed": 952149, "key_press": -1, "trial_index": 206}, "uniqueid": "MTK2289:3QILPRALQ62PJPIM58EH0MM0YE88NO", "dateTime": 1516919120900}, {"current_trial": 207, "trialdata": {"rt": -1, "trial_type": "single-stim", "stimulus": "<p id=\"stim\">5</p>", "internal_node_id": "0.0-148.0-5.0", "time_elapsed": 953152, "key_press": -1, "trial_index": 207}, "uniqueid": "MTK2289:3QILPRALQ62PJPIM58EH0MM0YE88NO", "dateTime": 1516919121903}, {"current_trial": 208, "trialdata": {"rt": -1, "trial_type": "single-stim", "stimulus": "<p id=\"stim\">4</p>", "internal_node_id": "0.0-148.0-6.0", "time_elapsed": 954155, "key_press": -1, "trial_index": 208}, "uniqueid": "MTK2289:3QILPRALQ62PJPIM58EH0MM0YE88NO", "dateTime": 1516919122906}, {"current_trial": 209, "trialdata": {"rt": -1, "trial_type": "single-stim", "stimulus": "<p id=\"stim\">3</p>", "internal_node_id": "0.0-148.0-7.0", "time_elapsed": 955158, "key_press": -1, "trial_index": 209}, "uniqueid": "MTK2289:3QILPRALQ62PJPIM58EH0MM0YE88NO", "dateTime": 1516919123909}, {"current_trial": 210, "trialdata": {"rt": -1, "trial_type": "single-stim", "stimulus": "<p id=\"stim\">2</p>", "internal_node_id": "0.0-148.0-8.0", "time_elapsed": 956162, "key_press": -1, "trial_index": 210}, "uniqueid": "MTK2289:3QILPRALQ62PJPIM58EH0MM0YE88NO", "dateTime": 1516919124913}, {"current_trial": 211, "trialdata": {"rt": -1, "trial_type": "single-stim", "stimulus": "<p id=\"stim\">1</p>", "internal_node_id": "0.0-148.0-9.0", "time_elapsed": 957165, "key_press": -1, "trial_index": 211}, "uniqueid": "MTK2289:3QILPRALQ62PJPIM58EH0MM0YE88NO", "dateTime": 1516919125916}, {"current_trial": 212, "trialdata": {"rt": -1, "trial_type": "single-stim", "stimulus": "<p id=\"stim\">+</p>", "internal_node_id": "0.0-149.0-0.0", "time_elapsed": 958667, "key_press": -1, "type": "FIXATION", "trial_index": 212}, "uniqueid": "MTK2289:3QILPRALQ62PJPIM58EH0MM0YE88NO", "dateTime": 1516919127418}, {"current_trial": 213, "trialdata": {"rt": -1000, "trial_type": "single-audio", "word": "sticker", "stimulus": "/static/audio/wordpool/STICKER.wav", "conditions": [12, 800, "a", 24000], "internal_node_id": "0.0-150.0", "trial": 6, "time_elapsed": 960351, "serialpos": 0, "key_press": -1, "wordID": 1381, "type": "PRES_AUD", "trial_index": 213}, "uniqueid": "MTK2289:3QILPRALQ62PJPIM58EH0MM0YE88NO", "dateTime": 1516919129103}, {"current_trial": 214, "trialdata": {"rt": -1000, "trial_type": "single-audio", "word": "transplant", "stimulus": "/static/audio/wordpool/TRANSPLANT.wav", "conditions": [12, 800, "a", 24000], "internal_node_id": "0.0-151.0", "trial": 6, "time_elapsed": 962263, "serialpos": 1, "key_press": -1, "wordID": 1495, "type": "PRES_AUD", "trial_index": 214}, "uniqueid": "MTK2289:3QILPRALQ62PJPIM58EH0MM0YE88NO", "dateTime": 1516919131015}, {"current_trial": 215, "trialdata": {"rt": -1000, "trial_type": "single-audio", "word": "kidney", "stimulus": "/static/audio/wordpool/KIDNEY.wav", "conditions": [12, 800, "a", 24000], "internal_node_id": "0.0-152.0", "trial": 6, "time_elapsed": 963899, "serialpos": 2, "key_press": -1, "wordID": 775, "type": "PRES_AUD", "trial_index": 215}, "uniqueid": "MTK2289:3QILPRALQ62PJPIM58EH0MM0YE88NO", "dateTime": 1516919132650}, {"current_trial": 216, "trialdata": {"rt": -1000, "trial_type": "single-audio", "word": "flower", "stimulus": "/static/audio/wordpool/FLOWER.wav", "conditions": [12, 800, "a", 24000], "internal_node_id": "0.0-153.0", "trial": 6, "time_elapsed": 965633, "serialpos": 3, "key_press": -1, "wordID": 583, "type": "PRES_AUD", "trial_index": 216}, "uniqueid": "MTK2289:3QILPRALQ62PJPIM58EH0MM0YE88NO", "dateTime": 1516919134384}, {"current_trial": 217, "trialdata": {"rt": -1000, "trial_type": "single-audio", "word": "sandwich", "stimulus": "/static/audio/wordpool/SANDWICH.wav", "conditions": [12, 800, "a", 24000], "internal_node_id": "0.0-154.0", "trial": 6, "time_elapsed": 967341, "serialpos": 4, "key_press": -1, "wordID": 1231, "type": "PRES_AUD", "trial_index": 217}, "uniqueid": "MTK2289:3QILPRALQ62PJPIM58EH0MM0YE88NO", "dateTime": 1516919136092}, {"current_trial": 218, "trialdata": {"rt": -1000, "trial_type": "single-audio", "word": "dorm", "stimulus": "/static/audio/wordpool/DORM.wav", "conditions": [12, 800, "a", 24000], "internal_node_id": "0.0-155.0", "trial": 6, "time_elapsed": 969053, "serialpos": 5, "key_press": -1, "wordID": 487, "type": "PRES_AUD", "trial_index": 218}, "uniqueid": "MTK2289:3QILPRALQ62PJPIM58EH0MM0YE88NO", "dateTime": 1516919137804}, {"current_trial": 219, "trialdata": {"rt": -1000, "trial_type": "single-audio", "word": "chapel", "stimulus": "/static/audio/wordpool/CHAPEL.wav", "conditions": [12, 800, "a", 24000], "internal_node_id": "0.0-156.0", "trial": 6, "time_elapsed": 970948, "serialpos": 6, "key_press": -1, "wordID": 279, "type": "PRES_AUD", "trial_index": 219}, "uniqueid": "MTK2289:3QILPRALQ62PJPIM58EH0MM0YE88NO", "dateTime": 1516919139699}, {"current_trial": 220, "trialdata": {"rt": -1000, "trial_type": "single-audio", "word": "shrub", "stimulus": "/static/audio/wordpool/SHRUB.wav", "conditions": [12, 800, "a", 24000], "internal_node_id": "0.0-157.0", "trial": 6, "time_elapsed": 972700, "serialpos": 7, "key_press": -1, "wordID": 1298, "type": "PRES_AUD", "trial_index": 220}, "uniqueid": "MTK2289:3QILPRALQ62PJPIM58EH0MM0YE88NO", "dateTime": 1516919141451}, {"current_trial": 221, "trialdata": {"rt": -1000, "trial_type": "single-audio", "word": "champagne", "stimulus": "/static/audio/wordpool/CHAMPAGNE.wav", "conditions": [12, 800, "a", 24000], "internal_node_id": "0.0-158.0", "trial": 6, "time_elapsed": 974326, "serialpos": 8, "key_press": -1, "wordID": 277, "type": "PRES_AUD", "trial_index": 221}, "uniqueid": "MTK2289:3QILPRALQ62PJPIM58EH0MM0YE88NO", "dateTime": 1516919143078}, {"current_trial": 222, "trialdata": {"rt": -1000, "trial_type": "single-audio", "word": "sunrise", "stimulus": "/static/audio/wordpool/SUNRISE.wav", "conditions": [12, 800, "a", 24000], "internal_node_id": "0.0-159.0", "trial": 6, "time_elapsed": 976143, "serialpos": 9, "key_press": -1, "wordID": 1406, "type": "PRES_AUD", "trial_index": 222}, "uniqueid": "MTK2289:3QILPRALQ62PJPIM58EH0MM0YE88NO", "dateTime": 1516919144895}, {"current_trial": 223, "trialdata": {"rt": -1000, "trial_type": "single-audio", "word": "custard", "stimulus": "/static/audio/wordpool/CUSTARD.wav", "conditions": [12, 800, "a", 24000], "internal_node_id": "0.0-160.0", "trial": 6, "time_elapsed": 978091, "serialpos": 10, "key_press": -1, "wordID": 428, "type": "PRES_AUD", "trial_index": 223}, "uniqueid": "MTK2289:3QILPRALQ62PJPIM58EH0MM0YE88NO", "dateTime": 1516919146842}, {"current_trial": 224, "trialdata": {"rt": -1000, "trial_type": "single-audio", "word": "driver", "stimulus": "/static/audio/wordpool/DRIVER.wav", "conditions": [12, 800, "a", 24000], "internal_node_id": "0.0-161.0", "trial": 6, "time_elapsed": 980040, "serialpos": 11, "key_press": -1, "wordID": 498, "type": "PRES_AUD", "trial_index": 224}, "uniqueid": "MTK2289:3QILPRALQ62PJPIM58EH0MM0YE88NO", "dateTime": 1516919148791}, {"current_trial": 225, "trialdata": {"rt": -1, "trial_type": "single-stim", "stimulus": "", "internal_node_id": "0.0-162.0-0.0", "time_elapsed": 981383, "key_press": -1, "type": "PRE_RECALL_DELAY", "trial_index": 225}, "uniqueid": "MTK2289:3QILPRALQ62PJPIM58EH0MM0YE88NO", "dateTime": 1516919150135}, {"current_trial": 226, "trialdata": {"rt": -1000, "trial_type": "single-audio", "stimulus": "/static/audio/400Hz.wav", "internal_node_id": "0.0-163.0", "time_elapsed": 981886, "key_press": -1, "type": "PRE_RECALL_ALERT", "trial_index": 226}, "uniqueid": "MTK2289:3QILPRALQ62PJPIM58EH0MM0YE88NO", "dateTime": 1516919150638}, {"current_trial": 227, "trialdata": {"rt": [1600, 2581, 4552, 5583, 6435, 41298], "recwords": ["custard", "driver", "champagne", "kitten", "flower", "kitten"], "key_times": [448, 564, 711, 870, 1155, 1250, 1454, 1600, 1780, 1918, 1999, 2140, 2337, 2439, 2581, 2796, 2870, 2979, 3152, 3293, 3393, 3567, 3869, 4162, 4298, 4390, 4552, 4741, 4947, 5033, 5192, 5306, 5389, 5583, 5723, 5796, 5954, 6026, 6084, 6173, 6435, 40228, 40496, 40636, 40827, 40935, 41046, 41298], "trial_type": "free-recall", "conditions": [12, 800, "a", 24000], "internal_node_id": "0.0-164.0-0.0", "key_presses": [67, 85, 83, 84, 65, 82, 68, 13, 68, 82, 73, 86, 69, 82, 13, 67, 72, 65, 77, 80, 65, 71, 8, 71, 78, 69, 13, 75, 73, 84, 84, 69, 78, 13, 70, 76, 79, 87, 69, 82, 13, 75, 73, 84, 84, 69, 78, 13], "trial": 6, "time_elapsed": 1041891, "type": "FREE_RECALL", "trial_index": 227}, "uniqueid": "MTK2289:3QILPRALQ62PJPIM58EH0MM0YE88NO", "dateTime": 1516919210647}, {"current_trial": 228, "trialdata": {"rt": 1122, "trial_type": "text", "internal_node_id": "0.0-165.0", "time_elapsed": 1045021, "key_press": 186, "type": "INSTRUCTIONS", "trial_index": 228}, "uniqueid": "MTK2289:3QILPRALQ62PJPIM58EH0MM0YE88NO", "dateTime": 1516919213772}, {"current_trial": 229, "trialdata": {"rt": [2639, 6248, 8647, 10754, 13549, 15560, 17530, 19478, 21545], "trial_type": "math-distractor", "key_times": [948, 1429, 1841, 2037, 2639, 5298, 5452, 5733, 5864, 5914, 5994, 6248, 8195, 8355, 8647, 10076, 10380, 10754, 12850, 13175, 13549, 15263, 15432, 15560, 17006, 17242, 17530, 18716, 19038, 19478, 21127, 21287, 21545], "responses": ["17", "10", "20", "16", "16", "22", "16", "18", "18"], "num2": [5, 7, 3, 6, 1, 6, 8, 9, 8, 2], "num3": [6, 1, 8, 4, 9, 8, 7, 1, 1, 3], "conditions": [24, 1600, "a", 24000], "internal_node_id": "0.0-166.0", "key_presses": [49, 56, 8, 55, 13, 50, 48, 8, 8, 49, 48, 13, 50, 48, 13, 49, 54, 13, 49, 54, 13, 50, 50, 13, 49, 54, 13, 49, 56, 13, 49, 56, 13], "trial": 7, "time_elapsed": 1071027, "type": "DISTRACTOR", "trial_index": 229, "num1": [7, 2, 9, 6, 6, 8, 1, 8, 9, 5]}, "uniqueid": "MTK2289:3QILPRALQ62PJPIM58EH0MM0YE88NO", "dateTime": 1516919239778}, {"current_trial": 230, "trialdata": {"rt": -1, "trial_type": "single-stim", "stimulus": "<p id=\"stim\">10</p>", "internal_node_id": "0.0-167.0-0.0", "time_elapsed": 1074029, "key_press": -1, "trial_index": 230}, "uniqueid": "MTK2289:3QILPRALQ62PJPIM58EH0MM0YE88NO", "dateTime": 1516919242780}, {"current_trial": 231, "trialdata": {"rt": -1, "trial_type": "single-stim", "stimulus": "<p id=\"stim\">9</p>", "internal_node_id": "0.0-167.0-1.0", "time_elapsed": 1075032, "key_press": -1, "trial_index": 231}, "uniqueid": "MTK2289:3QILPRALQ62PJPIM58EH0MM0YE88NO", "dateTime": 1516919243783}, {"current_trial": 232, "trialdata": {"rt": -1, "trial_type": "single-stim", "stimulus": "<p id=\"stim\">8</p>", "internal_node_id": "0.0-167.0-2.0", "time_elapsed": 1076034, "key_press": -1, "trial_index": 232}, "uniqueid": "MTK2289:3QILPRALQ62PJPIM58EH0MM0YE88NO", "dateTime": 1516919244785}, {"current_trial": 233, "trialdata": {"rt": -1, "trial_type": "single-stim", "stimulus": "<p id=\"stim\">7</p>", "internal_node_id": "0.0-167.0-3.0", "time_elapsed": 1077038, "key_press": -1, "trial_index": 233}, "uniqueid": "MTK2289:3QILPRALQ62PJPIM58EH0MM0YE88NO", "dateTime": 1516919245790}, {"current_trial": 234, "trialdata": {"rt": -1, "trial_type": "single-stim", "stimulus": "<p id=\"stim\">6</p>", "internal_node_id": "0.0-167.0-4.0", "time_elapsed": 1078040, "key_press": -1, "trial_index": 234}, "uniqueid": "MTK2289:3QILPRALQ62PJPIM58EH0MM0YE88NO", "dateTime": 1516919246791}, {"current_trial": 235, "trialdata": {"rt": -1, "trial_type": "single-stim", "stimulus": "<p id=\"stim\">5</p>", "internal_node_id": "0.0-167.0-5.0", "time_elapsed": 1079042, "key_press": -1, "trial_index": 235}, "uniqueid": "MTK2289:3QILPRALQ62PJPIM58EH0MM0YE88NO", "dateTime": 1516919247793}, {"current_trial": 236, "trialdata": {"rt": -1, "trial_type": "single-stim", "stimulus": "<p id=\"stim\">4</p>", "internal_node_id": "0.0-167.0-6.0", "time_elapsed": 1080045, "key_press": -1, "trial_index": 236}, "uniqueid": "MTK2289:3QILPRALQ62PJPIM58EH0MM0YE88NO", "dateTime": 1516919248796}, {"current_trial": 237, "trialdata": {"rt": -1, "trial_type": "single-stim", "stimulus": "<p id=\"stim\">3</p>", "internal_node_id": "0.0-167.0-7.0", "time_elapsed": 1081048, "key_press": -1, "trial_index": 237}, "uniqueid": "MTK2289:3QILPRALQ62PJPIM58EH0MM0YE88NO", "dateTime": 1516919249799}, {"current_trial": 238, "trialdata": {"rt": -1, "trial_type": "single-stim", "stimulus": "<p id=\"stim\">2</p>", "internal_node_id": "0.0-167.0-8.0", "time_elapsed": 1082051, "key_press": -1, "trial_index": 238}, "uniqueid": "MTK2289:3QILPRALQ62PJPIM58EH0MM0YE88NO", "dateTime": 1516919250803}, {"current_trial": 239, "trialdata": {"rt": -1, "trial_type": "single-stim", "stimulus": "<p id=\"stim\">1</p>", "internal_node_id": "0.0-167.0-9.0", "time_elapsed": 1083054, "key_press": -1, "trial_index": 239}, "uniqueid": "MTK2289:3QILPRALQ62PJPIM58EH0MM0YE88NO", "dateTime": 1516919251805}, {"current_trial": 240, "trialdata": {"rt": -1, "trial_type": "single-stim", "stimulus": "<p id=\"stim\">+</p>", "internal_node_id": "0.0-168.0-0.0", "time_elapsed": 1084557, "key_press": -1, "type": "FIXATION", "trial_index": 240}, "uniqueid": "MTK2289:3QILPRALQ62PJPIM58EH0MM0YE88NO", "dateTime": 1516919253308}, {"current_trial": 241, "trialdata": {"rt": -1000, "trial_type": "single-audio", "word": "stove", "stimulus": "/static/audio/wordpool/STOVE.wav", "conditions": [24, 1600, "a", 24000], "internal_node_id": "0.0-169.0", "trial": 7, "time_elapsed": 1087114, "serialpos": 0, "key_press": -1, "wordID": 1387, "type": "PRES_AUD", "trial_index": 241}, "uniqueid": "MTK2289:3QILPRALQ62PJPIM58EH0MM0YE88NO", "dateTime": 1516919255865}, {"current_trial": 242, "trialdata": {"rt": -1000, "trial_type": "single-audio", "word": "toaster", "stimulus": "/static/audio/wordpool/TOASTER.wav", "conditions": [24, 1600, "a", 24000], "internal_node_id": "0.0-170.0", "trial": 7, "time_elapsed": 1089891, "serialpos": 1, "key_press": -1, "wordID": 1471, "type": "PRES_AUD", "trial_index": 242}, "uniqueid": "MTK2289:3QILPRALQ62PJPIM58EH0MM0YE88NO", "dateTime": 1516919258642}, {"current_trial": 243, "trialdata": {"rt": -1000, "trial_type": "single-audio", "word": "cloud", "stimulus": "/static/audio/wordpool/CLOUD.wav", "conditions": [24, 1600, "a", 24000], "internal_node_id": "0.0-171.0", "trial": 7, "time_elapsed": 1092580, "serialpos": 2, "key_press": -1, "wordID": 327, "type": "PRES_AUD", "trial_index": 243}, "uniqueid": "MTK2289:3QILPRALQ62PJPIM58EH0MM0YE88NO", "dateTime": 1516919261331}, {"current_trial": 244, "trialdata": {"rt": -1000, "trial_type": "single-audio", "word": "zebra", "stimulus": "/static/audio/wordpool/ZEBRA.wav", "conditions": [24, 1600, "a", 24000], "internal_node_id": "0.0-172.0", "trial": 7, "time_elapsed": 1095240, "serialpos": 3, "key_press": -1, "wordID": 1634, "type": "PRES_AUD", "trial_index": 244}, "uniqueid": "MTK2289:3QILPRALQ62PJPIM58EH0MM0YE88NO", "dateTime": 1516919263991}, {"current_trial": 245, "trialdata": {"rt": -1000, "trial_type": "single-audio", "word": "baby", "stimulus": "/static/audio/wordpool/BABY.wav", "conditions": [24, 1600, "a", 24000], "internal_node_id": "0.0-173.0", "trial": 7, "time_elapsed": 1097672, "serialpos": 4, "key_press": -1, "wordID": 63, "type": "PRES_AUD", "trial_index": 245}, "uniqueid": "MTK2289:3QILPRALQ62PJPIM58EH0MM0YE88NO", "dateTime": 1516919266423}, {"current_trial": 246, "trialdata": {"rt": -1000, "trial_type": "single-audio", "word": "camel", "stimulus": "/static/audio/wordpool/CAMEL.wav", "conditions": [24, 1600, "a", 24000], "internal_node_id": "0.0-174.0", "trial": 7, "time_elapsed": 1100178, "serialpos": 5, "key_press": -1, "wordID": 222, "type": "PRES_AUD", "trial_index": 246}, "uniqueid": "MTK2289:3QILPRALQ62PJPIM58EH0MM0YE88NO", "dateTime": 1516919268929}, {"current_trial": 247, "trialdata": {"rt": -1000, "trial_type": "single-audio", "word": "thread", "stimulus": "/static/audio/wordpool/THREAD.wav", "conditions": [24, 1600, "a", 24000], "internal_node_id": "0.0-175.0", "trial": 7, "time_elapsed": 1102937, "serialpos": 6, "key_press": -1, "wordID": 1459, "type": "PRES_AUD", "trial_index": 247}, "uniqueid": "MTK2289:3QILPRALQ62PJPIM58EH0MM0YE88NO", "dateTime": 1516919271688}, {"current_trial": 248, "trialdata": {"rt": -1000, "trial_type": "single-audio", "word": "leopard", "stimulus": "/static/audio/wordpool/LEOPARD.wav", "conditions": [24, 1600, "a", 24000], "internal_node_id": "0.0-176.0", "trial": 7, "time_elapsed": 1105459, "serialpos": 7, "key_press": -1, "wordID": 811, "type": "PRES_AUD", "trial_index": 248}, "uniqueid": "MTK2289:3QILPRALQ62PJPIM58EH0MM0YE88NO", "dateTime": 1516919274210}, {"current_trial": 249, "trialdata": {"rt": -1000, "trial_type": "single-audio", "word": "swimmer", "stimulus": "/static/audio/wordpool/SWIMMER.wav", "conditions": [24, 1600, "a", 24000], "internal_node_id": "0.0-177.0", "trial": 7, "time_elapsed": 1107939, "serialpos": 8, "key_press": -1, "wordID": 1419, "type": "PRES_AUD", "trial_index": 249}, "uniqueid": "MTK2289:3QILPRALQ62PJPIM58EH0MM0YE88NO", "dateTime": 1516919276690}, {"current_trial": 250, "trialdata": {"rt": -1000, "trial_type": "single-audio", "word": "crib", "stimulus": "/static/audio/wordpool/CRIB.wav", "conditions": [24, 1600, "a", 24000], "internal_node_id": "0.0-178.0", "trial": 7, "time_elapsed": 1110364, "serialpos": 9, "key_press": -1, "wordID": 406, "type": "PRES_AUD", "trial_index": 250}, "uniqueid": "MTK2289:3QILPRALQ62PJPIM58EH0MM0YE88NO", "dateTime": 1516919279116}, {"current_trial": 251, "trialdata": {"rt": -1000, "trial_type": "single-audio", "word": "peach", "stimulus": "/static/audio/wordpool/PEACH.wav", "conditions": [24, 1600, "a", 24000], "internal_node_id": "0.0-179.0", "trial": 7, "time_elapsed": 1112906, "serialpos": 10, "key_press": -1, "wordID": 1030, "type": "PRES_AUD", "trial_index": 251}, "uniqueid": "MTK2289:3QILPRALQ62PJPIM58EH0MM0YE88NO", "dateTime": 1516919281657}, {"current_trial": 252, "trialdata": {"rt": -100