{"assignmentId": "3K9FOBBF2IQKYW25ZXNL5R86IIGNL6", "workerId": "MTK2360", "questiondata": {"origin": "United States", "strat-rehearsal": "62", "marital": "Married/Domestic Partnership", "education": "Bachelor's degree", "ethnicity": "Not Hispanic", "color_depth": 24, "distracted": "No", "wrote-notes": "No", "strat-other": "na", "screen_width": 1280, "avail_screen_width": 1280, "avail_screen_height": 688, "strat-image": "75", "language": "English", "gender": "Female", "age": "35", "gender_other": "", "race": ["White"], "strat-categorize": "45", "pixel_depth": 24, "strat-spatial": "33", "strat-story": "40", "race_other": "", "screen_height": 720}, "bonus": 0, "hitId": "3EFNPKWBMSVYACMF2JCL99MSR8T30S", "counterbalance": 2173, "useragent": "Mozilla/5.0 (Windows NT 10.0; Win64; x64) AppleWebKit/537.36 (KHTML, like Gecko) Chrome/58.0.3029.110 Safari/537.36 Edge/16.16299", "eventdata": [{"eventtype": "initialized", "interval": 0, "value": null, "timestamp": 1516995312899}, {"eventtype": "window_resize", "interval": 0, "value": [1024, 549], "timestamp": 1516995312899}, {"eventtype": "focus", "interval": 284, "value": "on", "timestamp": 1516995313183}, {"eventtype": "focus", "interval": 29815, "value": "off", "timestamp": 1516995342998}, {"eventtype": "focus", "interval": 49748, "value": "on", "timestamp": 1516995392746}, {"eventtype": "focus", "interval": 2992, "value": "off", "timestamp": 1516995395738}, {"eventtype": "focus", "interval": 5094, "value": "on", "timestamp": 1516995400832}, {"eventtype": "focus", "interval": 146637, "value": "off", "timestamp": 1516995547469}, {"eventtype": "focus", "interval": 11012, "value": "on", "timestamp": 1516995558481}, {"eventtype": "focus", "interval": 51512, "value": "off", "timestamp": 1516995609993}, {"eventtype": "focus", "interval": 21264, "value": "on", "timestamp": 1516995631257}, {"eventtype": "focus", "interval": 1396, "value": "off", "timestamp": 1516995632653}, {"eventtype": "window_resize", "interval": 317, "value": [1280, 600], "timestamp": 1516995632970}, {"eventtype": "focus", "interval": 404, "value": "on", "timestamp": 1516995633374}, {"eventtype": "focus", "interval": 704976, "value": "off", "timestamp": 1516996338350}, {"eventtype": "focus", "interval": 43626, "value": "on", "timestamp": 1516996381976}, {"eventtype": "focus", "interval": 2606905, "value": "off", "timestamp": 1516998988881}, {"eventtype": "focus", "interval": 15267, "value": "on", "timestamp": 1516999004148}], "data": [{"current_trial": 0, "trialdata": {"rt": 2113, "trial_type": "text", "internal_node_id": "0.0-0.0", "time_elapsed": 2115, "key_press": 70, "type": "INSTRUCTIONS", "trial_index": 0}, "uniqueid": "MTK2360:3K9FOBBF2IQKYW25ZXNL5R86IIGNL6", "dateTime": 1516995315633}, {"current_trial": 1, "trialdata": {"rt": 89613, "trial_type": "text", "internal_node_id": "0.0-1.0", "time_elapsed": 91728, "key_press": 68, "type": "INSTRUCTIONS", "trial_index": 1}, "uniqueid": "MTK2360:3K9FOBBF2IQKYW25ZXNL5R86IIGNL6", "dateTime": 1516995405246}, {"current_trial": 2, "trialdata": {"rt": [157345], "trial_type": "audio-test", "responses": ["ocean"], "internal_node_id": "0.0-2.0", "time_elapsed": 249095, "type": "AUDIO_TEST", "trial_index": 2}, "uniqueid": "MTK2360:3K9FOBBF2IQKYW25ZXNL5R86IIGNL6", "dateTime": 1516995562613}, {"current_trial": 3, "trialdata": {"rt": [5389], "trial_type": "audio-test", "responses": ["crystal"], "internal_node_id": "0.0-3.0", "time_elapsed": 254494, "type": "AUDIO_TEST", "trial_index": 3}, "uniqueid": "MTK2360:3K9FOBBF2IQKYW25ZXNL5R86IIGNL6", "dateTime": 1516995568012}, {"current_trial": 4, "trialdata": {"rt": [7286], "trial_type": "audio-test", "responses": ["spice"], "internal_node_id": "0.0-4.0", "time_elapsed": 261790, "type": "AUDIO_TEST", "trial_index": 4}, "uniqueid": "MTK2360:3K9FOBBF2IQKYW25ZXNL5R86IIGNL6", "dateTime": 1516995575308}, {"current_trial": 5, "trialdata": {"rt": 19579, "trial_type": "survey-text", "responses": "{\"Q0\":\"11:00 pm\",\"Q1\":\"7:00 am\",\"Q2\":\"5\"}", "internal_node_id": "0.0-5.0", "time_elapsed": 282125, "type": "SLEEP_SURVEY", "trial_index": 5}, "uniqueid": "MTK2360:3K9FOBBF2IQKYW25ZXNL5R86IIGNL6", "dateTime": 1516995595643}, {"current_trial": 6, "trialdata": {"rt": 41767, "trial_type": "text", "internal_node_id": "0.0-6.0", "time_elapsed": 324897, "key_press": 32, "type": "INSTRUCTIONS", "trial_index": 6}, "uniqueid": "MTK2360:3K9FOBBF2IQKYW25ZXNL5R86IIGNL6", "dateTime": 1516995638415}, {"current_trial": 7, "trialdata": {"rt": 8296, "trial_type": "text", "internal_node_id": "0.0-7.0", "time_elapsed": 333696, "key_press": 32, "type": "INSTRUCTIONS", "trial_index": 7}, "uniqueid": "MTK2360:3K9FOBBF2IQKYW25ZXNL5R86IIGNL6", "dateTime": 1516995647214}, {"current_trial": 8, "trialdata": {"rt": 3683, "trial_type": "text", "internal_node_id": "0.0-8.0", "time_elapsed": 337887, "key_press": 32, "type": "INSTRUCTIONS", "trial_index": 8}, "uniqueid": "MTK2360:3K9FOBBF2IQKYW25ZXNL5R86IIGNL6", "dateTime": 1516995651405}, {"current_trial": 9, "trialdata": {"rt": [4025, 5985, 7600, 9178, 12841, 14648, 16889], "trial_type": "math-distractor", "key_times": [3579, 3753, 4025, 5714, 5875, 5985, 7131, 7411, 7600, 8811, 9035, 9178, 12540, 12731, 12841, 14299, 14522, 14648, 16409, 16715, 16889], "responses": ["16", "20", "19", "24", "22", "14", "17"], "num2": [6, 7, 2, 8, 6, 6, 8, 7], "num3": [7, 7, 8, 8, 7, 7, 3, 8], "conditions": [18, 1200, "v", 18000], "internal_node_id": "0.0-9.0", "key_presses": [97, 102, 13, 98, 96, 13, 97, 105, 13, 98, 100, 13, 98, 98, 13, 97, 100, 13, 97, 103, 13], "trial": 0, "time_elapsed": 356896, "type": "DISTRACTOR", "trial_index": 9, "num1": [3, 6, 9, 8, 9, 1, 6, 9]}, "uniqueid": "MTK2360:3K9FOBBF2IQKYW25ZXNL5R86IIGNL6", "dateTime": 1516995670415}, {"current_trial": 10, "trialdata": {"rt": -1, "trial_type": "single-stim", "stimulus": "<p id=\"stim\">10</p>", "internal_node_id": "0.0-10.0-0.0", "time_elapsed": 359906, "key_press": -1, "trial_index": 10}, "uniqueid": "MTK2360:3K9FOBBF2IQKYW25ZXNL5R86IIGNL6", "dateTime": 1516995673424}, {"current_trial": 11, "trialdata": {"rt": -1, "trial_type": "single-stim", "stimulus": "<p id=\"stim\">9</p>", "internal_node_id": "0.0-10.0-1.0", "time_elapsed": 360906, "key_press": -1, "trial_index": 11}, "uniqueid": "MTK2360:3K9FOBBF2IQKYW25ZXNL5R86IIGNL6", "dateTime": 1516995674424}, {"current_trial": 12, "trialdata": {"rt": -1, "trial_type": "single-stim", "stimulus": "<p id=\"stim\">8</p>", "internal_node_id": "0.0-10.0-2.0", "time_elapsed": 361910, "key_press": -1, "trial_index": 12}, "uniqueid": "MTK2360:3K9FOBBF2IQKYW25ZXNL5R86IIGNL6", "dateTime": 1516995675428}, {"current_trial": 13, "trialdata": {"rt": -1, "trial_type": "single-stim", "stimulus": "<p id=\"stim\">7</p>", "internal_node_id": "0.0-10.0-3.0", "time_elapsed": 362915, "key_press": -1, "trial_index": 13}, "uniqueid": "MTK2360:3K9FOBBF2IQKYW25ZXNL5R86IIGNL6", "dateTime": 1516995676434}, {"current_trial": 14, "trialdata": {"rt": -1, "trial_type": "single-stim", "stimulus": "<p id=\"stim\">6</p>", "internal_node_id": "0.0-10.0-4.0", "time_elapsed": 363903, "key_press": -1, "trial_index": 14}, "uniqueid": "MTK2360:3K9FOBBF2IQKYW25ZXNL5R86IIGNL6", "dateTime": 1516995677422}, {"current_trial": 15, "trialdata": {"rt": -1, "trial_type": "single-stim", "stimulus": "<p id=\"stim\">5</p>", "internal_node_id": "0.0-10.0-5.0", "time_elapsed": 364901, "key_press": -1, "trial_index": 15}, "uniqueid": "MTK2360:3K9FOBBF2IQKYW25ZXNL5R86IIGNL6", "dateTime": 1516995678419}, {"current_trial": 16, "trialdata": {"rt": -1, "trial_type": "single-stim", "stimulus": "<p id=\"stim\">4</p>", "internal_node_id": "0.0-10.0-6.0", "time_elapsed": 365915, "key_press": -1, "trial_index": 16}, "uniqueid": "MTK2360:3K9FOBBF2IQKYW25ZXNL5R86IIGNL6", "dateTime": 1516995679434}, {"current_trial": 17, "trialdata": {"rt": -1, "trial_type": "single-stim", "stimulus": "<p id=\"stim\">3</p>", "internal_node_id": "0.0-10.0-7.0", "time_elapsed": 366915, "key_press": -1, "trial_index": 17}, "uniqueid": "MTK2360:3K9FOBBF2IQKYW25ZXNL5R86IIGNL6", "dateTime": 1516995680433}, {"current_trial": 18, "trialdata": {"rt": -1, "trial_type": "single-stim", "stimulus": "<p id=\"stim\">2</p>", "internal_node_id": "0.0-10.0-8.0", "time_elapsed": 367900, "key_press": -1, "trial_index": 18}, "uniqueid": "MTK2360:3K9FOBBF2IQKYW25ZXNL5R86IIGNL6", "dateTime": 1516995681418}, {"current_trial": 19, "trialdata": {"rt": -1, "trial_type": "single-stim", "stimulus": "<p id=\"stim\">1</p>", "internal_node_id": "0.0-10.0-9.0", "time_elapsed": 368908, "key_press": -1, "trial_index": 19}, "uniqueid": "MTK2360:3K9FOBBF2IQKYW25ZXNL5R86IIGNL6", "dateTime": 1516995682426}, {"current_trial": 20, "trialdata": {"rt": -1, "trial_type": "single-stim", "stimulus": "<p id=\"stim\">+</p>", "internal_node_id": "0.0-11.0-0.0", "time_elapsed": 370425, "key_press": -1, "type": "FIXATION", "trial_index": 20}, "uniqueid": "MTK2360:3K9FOBBF2IQKYW25ZXNL5R86IIGNL6", "dateTime": 1516995683943}, {"current_trial": 21, "trialdata": {"rt": -1, "trial_type": "single-stim", "word": "lumber", "stimulus": "<p id=\"stim\">LUMBER</p>", "conditions": [18, 1200, "v", 18000], "internal_node_id": "0.0-12.0", "trial": 0, "time_elapsed": 371639, "serialpos": 0, "key_press": -1, "wordID": 847, "type": "PRES_VIS", "trial_index": 21}, "uniqueid": "MTK2360:3K9FOBBF2IQKYW25ZXNL5R86IIGNL6", "dateTime": 1516995685157}, {"current_trial": 22, "trialdata": {"rt": -1, "trial_type": "single-stim", "word": "carrot", "stimulus": "<p id=\"stim\">CARROT</p>", "conditions": [18, 1200, "v", 18000], "internal_node_id": "0.0-13.0", "trial": 0, "time_elapsed": 374042, "serialpos": 1, "key_press": -1, "wordID": 248, "type": "PRES_VIS", "trial_index": 22}, "uniqueid": "MTK2360:3K9FOBBF2IQKYW25ZXNL5R86IIGNL6", "dateTime": 1516995687560}, {"current_trial": 23, "trialdata": {"rt": -1, "trial_type": "single-stim", "word": "brick", "stimulus": "<p id=\"stim\">BRICK</p>", "conditions": [18, 1200, "v", 18000], "internal_node_id": "0.0-14.0", "trial": 0, "time_elapsed": 376208, "serialpos": 2, "key_press": -1, "wordID": 171, "type": "PRES_VIS", "trial_index": 23}, "uniqueid": "MTK2360:3K9FOBBF2IQKYW25ZXNL5R86IIGNL6", "dateTime": 1516995689727}, {"current_trial": 24, "trialdata": {"rt": -1, "trial_type": "single-stim", "word": "tombstone", "stimulus": "<p id=\"stim\">TOMBSTONE</p>", "conditions": [18, 1200, "v", 18000], "internal_node_id": "0.0-15.0", "trial": 0, "time_elapsed": 378441, "serialpos": 3, "key_press": -1, "wordID": 1477, "type": "PRES_VIS", "trial_index": 24}, "uniqueid": "MTK2360:3K9FOBBF2IQKYW25ZXNL5R86IIGNL6", "dateTime": 1516995691959}, {"current_trial": 25, "trialdata": {"rt": -1, "trial_type": "single-stim", "word": "picture", "stimulus": "<p id=\"stim\">PICTURE</p>", "conditions": [18, 1200, "v", 18000], "internal_node_id": "0.0-16.0", "trial": 0, "time_elapsed": 380493, "serialpos": 4, "key_press": -1, "wordID": 1060, "type": "PRES_VIS", "trial_index": 25}, "uniqueid": "MTK2360:3K9FOBBF2IQKYW25ZXNL5R86IIGNL6", "dateTime": 1516995694012}, {"current_trial": 26, "trialdata": {"rt": -1, "trial_type": "single-stim", "word": "heart", "stimulus": "<p id=\"stim\">HEART</p>", "conditions": [18, 1200, "v", 18000], "internal_node_id": "0.0-17.0", "trial": 0, "time_elapsed": 382710, "serialpos": 5, "key_press": -1, "wordID": 696, "type": "PRES_VIS", "trial_index": 26}, "uniqueid": "MTK2360:3K9FOBBF2IQKYW25ZXNL5R86IIGNL6", "dateTime": 1516995696229}, {"current_trial": 27, "trialdata": {"rt": -1, "trial_type": "single-stim", "word": "money", "stimulus": "<p id=\"stim\">MONEY</p>", "conditions": [18, 1200, "v", 18000], "internal_node_id": "0.0-18.0", "trial": 0, "time_elapsed": 384936, "serialpos": 6, "key_press": -1, "wordID": 907, "type": "PRES_VIS", "trial_index": 27}, "uniqueid": "MTK2360:3K9FOBBF2IQKYW25ZXNL5R86IIGNL6", "dateTime": 1516995698455}, {"current_trial": 28, "trialdata": {"rt": -1, "trial_type": "single-stim", "word": "tractor", "stimulus": "<p id=\"stim\">TRACTOR</p>", "conditions": [18, 1200, "v", 18000], "internal_node_id": "0.0-19.0", "trial": 0, "time_elapsed": 387107, "serialpos": 7, "key_press": -1, "wordID": 1492, "type": "PRES_VIS", "trial_index": 28}, "uniqueid": "MTK2360:3K9FOBBF2IQKYW25ZXNL5R86IIGNL6", "dateTime": 1516995700625}, {"current_trial": 29, "trialdata": {"rt": -1, "trial_type": "single-stim", "word": "star", "stimulus": "<p id=\"stim\">STAR</p>", "conditions": [18, 1200, "v", 18000], "internal_node_id": "0.0-20.0", "trial": 0, "time_elapsed": 389408, "serialpos": 8, "key_press": -1, "wordID": 1372, "type": "PRES_VIS", "trial_index": 29}, "uniqueid": "MTK2360:3K9FOBBF2IQKYW25ZXNL5R86IIGNL6", "dateTime": 1516995702926}, {"current_trial": 30, "trialdata": {"rt": -1, "trial_type": "single-stim", "word": "scalpel", "stimulus": "<p id=\"stim\">SCALPEL</p>", "conditions": [18, 1200, "v", 18000], "internal_node_id": "0.0-21.0", "trial": 0, "time_elapsed": 391478, "serialpos": 9, "key_press": -1, "wordID": 1242, "type": "PRES_VIS", "trial_index": 30}, "uniqueid": "MTK2360:3K9FOBBF2IQKYW25ZXNL5R86IIGNL6", "dateTime": 1516995704996}, {"current_trial": 31, "trialdata": {"rt": -1, "trial_type": "single-stim", "word": "shelter", "stimulus": "<p id=\"stim\">SHELTER</p>", "conditions": [18, 1200, "v", 18000], "internal_node_id": "0.0-22.0", "trial": 0, "time_elapsed": 393866, "serialpos": 10, "key_press": -1, "wordID": 1281, "type": "PRES_VIS", "trial_index": 31}, "uniqueid": "MTK2360:3K9FOBBF2IQKYW25ZXNL5R86IIGNL6", "dateTime": 1516995707384}, {"current_trial": 32, "trialdata": {"rt": -1, "trial_type": "single-stim", "word": "cod", "stimulus": "<p id=\"stim\">COD</p>", "conditions": [18, 1200, "v", 18000], "internal_node_id": "0.0-23.0", "trial": 0, "time_elapsed": 396160, "serialpos": 11, "key_press": -1, "wordID": 339, "type": "PRES_VIS", "trial_index": 32}, "uniqueid": "MTK2360:3K9FOBBF2IQKYW25ZXNL5R86IIGNL6", "dateTime": 1516995709678}, {"current_trial": 33, "trialdata": {"rt": -1, "trial_type": "single-stim", "word": "pastry", "stimulus": "<p id=\"stim\">PASTRY</p>", "conditions": [18, 1200, "v", 18000], "internal_node_id": "0.0-24.0", "trial": 0, "time_elapsed": 398290, "serialpos": 12, "key_press": -1, "wordID": 1021, "type": "PRES_VIS", "trial_index": 33}, "uniqueid": "MTK2360:3K9FOBBF2IQKYW25ZXNL5R86IIGNL6", "dateTime": 1516995711808}, {"current_trial": 34, "trialdata": {"rt": -1, "trial_type": "single-stim", "word": "honey", "stimulus": "<p id=\"stim\">HONEY</p>", "conditions": [18, 1200, "v", 18000], "internal_node_id": "0.0-25.0", "trial": 0, "time_elapsed": 400698, "serialpos": 13, "key_press": -1, "wordID": 712, "type": "PRES_VIS", "trial_index": 34}, "uniqueid": "MTK2360:3K9FOBBF2IQKYW25ZXNL5R86IIGNL6", "dateTime": 1516995714216}, {"current_trial": 35, "trialdata": {"rt": -1, "trial_type": "single-stim", "word": "dime", "stimulus": "<p id=\"stim\">DIME</p>", "conditions": [18, 1200, "v", 18000], "internal_node_id": "0.0-26.0", "trial": 0, "time_elapsed": 402817, "serialpos": 14, "key_press": -1, "wordID": 465, "type": "PRES_VIS", "trial_index": 35}, "uniqueid": "MTK2360:3K9FOBBF2IQKYW25ZXNL5R86IIGNL6", "dateTime": 1516995716335}, {"current_trial": 36, "trialdata": {"rt": -1, "trial_type": "single-stim", "word": "wasp", "stimulus": "<p id=\"stim\">WASP</p>", "conditions": [18, 1200, "v", 18000], "internal_node_id": "0.0-27.0", "trial": 0, "time_elapsed": 405029, "serialpos": 15, "key_press": -1, "wordID": 1592, "type": "PRES_VIS", "trial_index": 36}, "uniqueid": "MTK2360:3K9FOBBF2IQKYW25ZXNL5R86IIGNL6", "dateTime": 1516995718547}, {"current_trial": 37, "trialdata": {"rt": -1, "trial_type": "single-stim", "word": "sparrow", "stimulus": "<p id=\"stim\">SPARROW</p>", "conditions": [18, 1200, "v", 18000], "internal_node_id": "0.0-28.0", "trial": 0, "time_elapsed": 407195, "serialpos": 16, "key_press": -1, "wordID": 1346, "type": "PRES_VIS", "trial_index": 37}, "uniqueid": "MTK2360:3K9FOBBF2IQKYW25ZXNL5R86IIGNL6", "dateTime": 1516995720713}, {"current_trial": 38, "trialdata": {"rt": -1, "trial_type": "single-stim", "word": "author", "stimulus": "<p id=\"stim\">AUTHOR</p>", "conditions": [18, 1200, "v", 18000], "internal_node_id": "0.0-29.0", "trial": 0, "time_elapsed": 409471, "serialpos": 17, "key_press": -1, "wordID": 60, "type": "PRES_VIS", "trial_index": 38}, "uniqueid": "MTK2360:3K9FOBBF2IQKYW25ZXNL5R86IIGNL6", "dateTime": 1516995722989}, {"current_trial": 39, "trialdata": {"rt": -1, "trial_type": "single-stim", "stimulus": "", "internal_node_id": "0.0-30.0-0.0", "time_elapsed": 411977, "key_press": -1, "type": "PRE_RECALL_DELAY", "trial_index": 39}, "uniqueid": "MTK2360:3K9FOBBF2IQKYW25ZXNL5R86IIGNL6", "dateTime": 1516995725495}, {"current_trial": 40, "trialdata": {"rt": -1000, "trial_type": "single-audio", "stimulus": "/static/audio/400Hz.wav", "internal_node_id": "0.0-31.0", "time_elapsed": 412533, "key_press": -1, "type": "PRE_RECALL_ALERT", "trial_index": 40}, "uniqueid": "MTK2360:3K9FOBBF2IQKYW25ZXNL5R86IIGNL6", "dateTime": 1516995726051}, {"current_trial": 41, "trialdata": {"rt": [3244, 5044, 7261, 9860, 12268, 14541, 15748, 16883, 22932, 25675, 56460], "recwords": ["lumber", "carrot", "money", "sparrow", "tree", "hat", "dog", "cat", "money", "sparrow", ""], "key_times": [1817, 2197, 2470, 2581, 2893, 3036, 3244, 3911, 4116, 4276, 4470, 4628, 4803, 5044, 6430, 6524, 6652, 6798, 6956, 7261, 8581, 8757, 8950, 9141, 9318, 9475, 9588, 9860, 11627, 11835, 11951, 12123, 12268, 14060, 14172, 14413, 14541, 15172, 15333, 15430, 15748, 16279, 16485, 16660, 16883, 22005, 22150, 22277, 22404, 22613, 22932, 23983, 24108, 24253, 24462, 25045, 25253, 25397, 25675, 56460], "trial_type": "free-recall", "conditions": [18, 1200, "v", 18000], "internal_node_id": "0.0-32.0-0.0", "key_presses": [76, 85, 77, 66, 69, 82, 13, 67, 65, 82, 82, 79, 84, 32, 77, 79, 78, 69, 89, 13, 83, 80, 65, 82, 82, 79, 87, 13, 84, 82, 69, 69, 13, 72, 65, 84, 13, 68, 79, 71, 13, 67, 65, 84, 13, 77, 79, 78, 69, 89, 13, 83, 80, 65, 82, 82, 79, 87, 13, 13], "trial": 0, "time_elapsed": 472546, "type": "FREE_RECALL", "trial_index": 41}, "uniqueid": "MTK2360:3K9FOBBF2IQKYW25ZXNL5R86IIGNL6", "dateTime": 1516995786071}, {"current_trial": 42, "trialdata": {"rt": 10808, "trial_type": "text", "internal_node_id": "0.0-33.0", "time_elapsed": 485366, "key_press": 32, "type": "INSTRUCTIONS", "trial_index": 42}, "uniqueid": "MTK2360:3K9FOBBF2IQKYW25ZXNL5R86IIGNL6", "dateTime": 1516995798884}, {"current_trial": 43, "trialdata": {"rt": [5099, 10267, 12650, 14259, 16035, 17747], "trial_type": "math-distractor", "key_times": [4718, 4821, 5099, 9885, 10059, 10267, 12302, 12524, 12650, 14021, 14259, 15460, 15779, 16035, 17284, 17556, 17747], "responses": ["13", "13", "12", "8", "18", "15"], "num2": [6, 3, 6, 1, 7, 8, 8], "num3": [5, 8, 3, 1, 4, 6, 3], "conditions": [18, 1200, "v", 18000], "internal_node_id": "0.0-34.0", "key_presses": [97, 99, 13, 97, 99, 13, 97, 98, 13, 104, 13, 97, 104, 13, 97, 101, 13], "trial": 1, "time_elapsed": 505392, "type": "DISTRACTOR", "trial_index": 43, "num1": [2, 2, 3, 6, 7, 1, 5]}, "uniqueid": "MTK2360:3K9FOBBF2IQKYW25ZXNL5R86IIGNL6", "dateTime": 1516995818910}, {"current_trial": 44, "trialdata": {"rt": -1, "trial_type": "single-stim", "stimulus": "<p id=\"stim\">10</p>", "internal_node_id": "0.0-35.0-0.0", "time_elapsed": 508419, "key_press": -1, "trial_index": 44}, "uniqueid": "MTK2360:3K9FOBBF2IQKYW25ZXNL5R86IIGNL6", "dateTime": 1516995821937}, {"current_trial": 45, "trialdata": {"rt": -1, "trial_type": "single-stim", "stimulus": "<p id=\"stim\">9</p>", "internal_node_id": "0.0-35.0-1.0", "time_elapsed": 509418, "key_press": -1, "trial_index": 45}, "uniqueid": "MTK2360:3K9FOBBF2IQKYW25ZXNL5R86IIGNL6", "dateTime": 1516995822936}, {"current_trial": 46, "trialdata": {"rt": -1, "trial_type": "single-stim", "stimulus": "<p id=\"stim\">8</p>", "internal_node_id": "0.0-35.0-2.0", "time_elapsed": 510419, "key_press": -1, "trial_index": 46}, "uniqueid": "MTK2360:3K9FOBBF2IQKYW25ZXNL5R86IIGNL6", "dateTime": 1516995823937}, {"current_trial": 47, "trialdata": {"rt": -1, "trial_type": "single-stim", "stimulus": "<p id=\"stim\">7</p>", "internal_node_id": "0.0-35.0-3.0", "time_elapsed": 511407, "key_press": -1, "trial_index": 47}, "uniqueid": "MTK2360:3K9FOBBF2IQKYW25ZXNL5R86IIGNL6", "dateTime": 1516995824926}, {"current_trial": 48, "trialdata": {"rt": -1, "trial_type": "single-stim", "stimulus": "<p id=\"stim\">6</p>", "internal_node_id": "0.0-35.0-4.0", "time_elapsed": 512411, "key_press": -1, "trial_index": 48}, "uniqueid": "MTK2360:3K9FOBBF2IQKYW25ZXNL5R86IIGNL6", "dateTime": 1516995825929}, {"current_trial": 49, "trialdata": {"rt": -1, "trial_type": "single-stim", "stimulus": "<p id=\"stim\">5</p>", "internal_node_id": "0.0-35.0-5.0", "time_elapsed": 513413, "key_press": -1, "trial_index": 49}, "uniqueid": "MTK2360:3K9FOBBF2IQKYW25ZXNL5R86IIGNL6", "dateTime": 1516995826931}, {"current_trial": 50, "trialdata": {"rt": -1, "trial_type": "single-stim", "stimulus": "<p id=\"stim\">4</p>", "internal_node_id": "0.0-35.0-6.0", "time_elapsed": 514408, "key_press": -1, "trial_index": 50}, "uniqueid": "MTK2360:3K9FOBBF2IQKYW25ZXNL5R86IIGNL6", "dateTime": 1516995827926}, {"current_trial": 51, "trialdata": {"rt": -1, "trial_type": "single-stim", "stimulus": "<p id=\"stim\">3</p>", "internal_node_id": "0.0-35.0-7.0", "time_elapsed": 515406, "key_press": -1, "trial_index": 51}, "uniqueid": "MTK2360:3K9FOBBF2IQKYW25ZXNL5R86IIGNL6", "dateTime": 1516995828924}, {"current_trial": 52, "trialdata": {"rt": -1, "trial_type": "single-stim", "stimulus": "<p id=\"stim\">2</p>", "internal_node_id": "0.0-35.0-8.0", "time_elapsed": 516407, "key_press": -1, "trial_index": 52}, "uniqueid": "MTK2360:3K9FOBBF2IQKYW25ZXNL5R86IIGNL6", "dateTime": 1516995829926}, {"current_trial": 53, "trialdata": {"rt": -1, "trial_type": "single-stim", "stimulus": "<p id=\"stim\">1</p>", "internal_node_id": "0.0-35.0-9.0", "time_elapsed": 517421, "key_press": -1, "trial_index": 53}, "uniqueid": "MTK2360:3K9FOBBF2IQKYW25ZXNL5R86IIGNL6", "dateTime": 1516995830939}, {"current_trial": 54, "trialdata": {"rt": -1, "trial_type": "single-stim", "stimulus": "<p id=\"stim\">+</p>", "internal_node_id": "0.0-36.0-0.0", "time_elapsed": 518939, "key_press": -1, "type": "FIXATION", "trial_index": 54}, "uniqueid": "MTK2360:3K9FOBBF2IQKYW25ZXNL5R86IIGNL6", "dateTime": 1516995832457}, {"current_trial": 55, "trialdata": {"rt": -1, "trial_type": "single-stim", "word": "branch", "stimulus": "<p id=\"stim\">BRANCH</p>", "conditions": [18, 1200, "v", 18000], "internal_node_id": "0.0-37.0", "trial": 1, "time_elapsed": 520144, "serialpos": 0, "key_press": -1, "wordID": 167, "type": "PRES_VIS", "trial_index": 55}, "uniqueid": "MTK2360:3K9FOBBF2IQKYW25ZXNL5R86IIGNL6", "dateTime": 1516995833662}, {"current_trial": 56, "trialdata": {"rt": -1, "trial_type": "single-stim", "word": "couch", "stimulus": "<p id=\"stim\">COUCH</p>", "conditions": [18, 1200, "v", 18000], "internal_node_id": "0.0-38.0", "trial": 1, "time_elapsed": 522478, "serialpos": 1, "key_press": -1, "wordID": 385, "type": "PRES_VIS", "trial_index": 56}, "uniqueid": "MTK2360:3K9FOBBF2IQKYW25ZXNL5R86IIGNL6", "dateTime": 1516995835996}, {"current_trial": 57, "trialdata": {"rt": -1, "trial_type": "single-stim", "word": "typist", "stimulus": "<p id=\"stim\">TYPIST</p>", "conditions": [18, 1200, "v", 18000], "internal_node_id": "0.0-39.0", "trial": 1, "time_elapsed": 524678, "serialpos": 2, "key_press": -1, "wordID": 1531, "type": "PRES_VIS", "trial_index": 57}, "uniqueid": "MTK2360:3K9FOBBF2IQKYW25ZXNL5R86IIGNL6", "dateTime": 1516995838196}, {"current_trial": 58, "trialdata": {"rt": -1, "trial_type": "single-stim", "word": "drug", "stimulus": "<p id=\"stim\">DRUG</p>", "conditions": [18, 1200, "v", 18000], "internal_node_id": "0.0-40.0", "trial": 1, "time_elapsed": 527044, "serialpos": 3, "key_press": -1, "wordID": 500, "type": "PRES_VIS", "trial_index": 58}, "uniqueid": "MTK2360:3K9FOBBF2IQKYW25ZXNL5R86IIGNL6", "dateTime": 1516995840562}, {"current_trial": 59, "trialdata": {"rt": -1, "trial_type": "single-stim", "word": "whiskers", "stimulus": "<p id=\"stim\">WHISKERS</p>", "conditions": [18, 1200, "v", 18000], "internal_node_id": "0.0-41.0", "trial": 1, "time_elapsed": 529233, "serialpos": 4, "key_press": -1, "wordID": 1604, "type": "PRES_VIS", "trial_index": 59}, "uniqueid": "MTK2360:3K9FOBBF2IQKYW25ZXNL5R86IIGNL6", "dateTime": 1516995842751}, {"current_trial": 60, "trialdata": {"rt": -1, "trial_type": "single-stim", "word": "cloud", "stimulus": "<p id=\"stim\">CLOUD</p>", "conditions": [18, 1200, "v", 18000], "internal_node_id": "0.0-42.0", "trial": 1, "time_elapsed": 531514, "serialpos": 5, "key_press": -1, "wordID": 327, "type": "PRES_VIS", "trial_index": 60}, "uniqueid": "MTK2360:3K9FOBBF2IQKYW25ZXNL5R86IIGNL6", "dateTime": 1516995845033}, {"current_trial": 61, "trialdata": {"rt": -1, "trial_type": "single-stim", "word": "banquet", "stimulus": "<p id=\"stim\">BANQUET</p>", "conditions": [18, 1200, "v", 18000], "internal_node_id": "0.0-43.0", "trial": 1, "time_elapsed": 533794, "serialpos": 6, "key_press": -1, "wordID": 85, "type": "PRES_VIS", "trial_index": 61}, "uniqueid": "MTK2360:3K9FOBBF2IQKYW25ZXNL5R86IIGNL6", "dateTime": 1516995847312}, {"current_trial": 62, "trialdata": {"rt": -1, "trial_type": "single-stim", "word": "yacht", "stimulus": "<p id=\"stim\">YACHT</p>", "conditions": [18, 1200, "v", 18000], "internal_node_id": "0.0-44.0", "trial": 1, "time_elapsed": 536001, "serialpos": 7, "key_press": -1, "wordID": 1628, "type": "PRES_VIS", "trial_index": 62}, "uniqueid": "MTK2360:3K9FOBBF2IQKYW25ZXNL5R86IIGNL6", "dateTime": 1516995849519}, {"current_trial": 63, "trialdata": {"rt": -1, "trial_type": "single-stim", "word": "umpire", "stimulus": "<p id=\"stim\">UMPIRE</p>", "conditions": [18, 1200, "v", 18000], "internal_node_id": "0.0-45.0", "trial": 1, "time_elapsed": 538332, "serialpos": 8, "key_press": -1, "wordID": 1534, "type": "PRES_VIS", "trial_index": 63}, "uniqueid": "MTK2360:3K9FOBBF2IQKYW25ZXNL5R86IIGNL6", "dateTime": 1516995851850}, {"current_trial": 64, "trialdata": {"rt": -1, "trial_type": "single-stim", "word": "barley", "stimulus": "<p id=\"stim\">BARLEY</p>", "conditions": [18, 1200, "v", 18000], "internal_node_id": "0.0-46.0", "trial": 1, "time_elapsed": 540536, "serialpos": 9, "key_press": -1, "wordID": 87, "type": "PRES_VIS", "trial_index": 64}, "uniqueid": "MTK2360:3K9FOBBF2IQKYW25ZXNL5R86IIGNL6", "dateTime": 1516995854055}, {"current_trial": 65, "trialdata": {"rt": -1, "trial_type": "single-stim", "word": "antler", "stimulus": "<p id=\"stim\">ANTLER</p>", "conditions": [18, 1200, "v", 18000], "internal_node_id": "0.0-47.0", "trial": 1, "time_elapsed": 542651, "serialpos": 10, "key_press": -1, "wordID": 28, "type": "PRES_VIS", "trial_index": 65}, "uniqueid": "MTK2360:3K9FOBBF2IQKYW25ZXNL5R86IIGNL6", "dateTime": 1516995856169}, {"current_trial": 66, "trialdata": {"rt": -1, "trial_type": "single-stim", "word": "bug", "stimulus": "<p id=\"stim\">BUG</p>", "conditions": [18, 1200, "v", 18000], "internal_node_id": "0.0-48.0", "trial": 1, "time_elapsed": 544914, "serialpos": 11, "key_press": -1, "wordID": 186, "type": "PRES_VIS", "trial_index": 66}, "uniqueid": "MTK2360:3K9FOBBF2IQKYW25ZXNL5R86IIGNL6", "dateTime": 1516995858433}, {"current_trial": 67, "trialdata": {"rt": -1, "trial_type": "single-stim", "word": "briefcase", "stimulus": "<p id=\"stim\">BRIEFCASE</p>", "conditions": [18, 1200, "v", 18000], "internal_node_id": "0.0-49.0", "trial": 1, "time_elapsed": 547010, "serialpos": 12, "key_press": -1, "wordID": 174, "type": "PRES_VIS", "trial_index": 67}, "uniqueid": "MTK2360:3K9FOBBF2IQKYW25ZXNL5R86IIGNL6", "dateTime": 1516995860528}, {"current_trial": 68, "trialdata": {"rt": -1, "trial_type": "single-stim", "word": "trench", "stimulus": "<p id=\"stim\">TRENCH</p>", "conditions": [18, 1200, "v", 18000], "internal_node_id": "0.0-50.0", "trial": 1, "time_elapsed": 549318, "serialpos": 13, "key_press": -1, "wordID": 1502, "type": "PRES_VIS", "trial_index": 68}, "uniqueid": "MTK2360:3K9FOBBF2IQKYW25ZXNL5R86IIGNL6", "dateTime": 1516995862837}, {"current_trial": 69, "trialdata": {"rt": -1, "trial_type": "single-stim", "word": "wagon", "stimulus": "<p id=\"stim\">WAGON</p>", "conditions": [18, 1200, "v", 18000], "internal_node_id": "0.0-51.0", "trial": 1, "time_elapsed": 551489, "serialpos": 14, "key_press": -1, "wordID": 1577, "type": "PRES_VIS", "trial_index": 69}, "uniqueid": "MTK2360:3K9FOBBF2IQKYW25ZXNL5R86IIGNL6", "dateTime": 1516995865007}, {"current_trial": 70, "trialdata": {"rt": -1, "trial_type": "single-stim", "word": "frame", "stimulus": "<p id=\"stim\">FRAME</p>", "conditions": [18, 1200, "v", 18000], "internal_node_id": "0.0-52.0", "trial": 1, "time_elapsed": 553569, "serialpos": 15, "key_press": -1, "wordID": 599, "type": "PRES_VIS", "trial_index": 70}, "uniqueid": "MTK2360:3K9FOBBF2IQKYW25ZXNL5R86IIGNL6", "dateTime": 1516995867088}, {"current_trial": 71, "trialdata": {"rt": -1, "trial_type": "single-stim", "word": "film", "stimulus": "<p id=\"stim\">FILM</p>", "conditions": [18, 1200, "v", 18000], "internal_node_id": "0.0-53.0", "trial": 1, "time_elapsed": 555670, "serialpos": 16, "key_press": -1, "wordID": 564, "type": "PRES_VIS", "trial_index": 71}, "uniqueid": "MTK2360:3K9FOBBF2IQKYW25ZXNL5R86IIGNL6", "dateTime": 1516995869189}, {"current_trial": 72, "trialdata": {"rt": -1, "trial_type": "single-stim", "word": "lagoon", "stimulus": "<p id=\"stim\">LAGOON</p>", "conditions": [18, 1200, "v", 18000], "internal_node_id": "0.0-54.0", "trial": 1, "time_elapsed": 557925, "serialpos": 17, "key_press": -1, "wordID": 794, "type": "PRES_VIS", "trial_index": 72}, "uniqueid": "MTK2360:3K9FOBBF2IQKYW25ZXNL5R86IIGNL6", "dateTime": 1516995871443}, {"current_trial": 73, "trialdata": {"rt": -1, "trial_type": "single-stim", "stimulus": "", "internal_node_id": "0.0-55.0-0.0", "time_elapsed": 560070, "key_press": -1, "type": "PRE_RECALL_DELAY", "trial_index": 73}, "uniqueid": "MTK2360:3K9FOBBF2IQKYW25ZXNL5R86IIGNL6", "dateTime": 1516995873588}, {"current_trial": 74, "trialdata": {"rt": -1000, "trial_type": "single-audio", "stimulus": "/static/audio/400Hz.wav", "internal_node_id": "0.0-56.0", "time_elapsed": 560582, "key_press": -1, "type": "PRE_RECALL_ALERT", "trial_index": 74}, "uniqueid": "MTK2360:3K9FOBBF2IQKYW25ZXNL5R86IIGNL6", "dateTime": 1516995874100}, {"current_trial": 75, "trialdata": {"rt": [40367, 48886, 58095], "recwords": ["brand", "couch", "whisker"], "key_times": [37488, 37958, 38136, 38678, 40063, 40367, 47912, 48070, 48215, 48488, 48639, 48886, 54208, 55063, 55255, 55519, 55760, 55919, 56046, 58095], "trial_type": "free-recall", "conditions": [18, 1200, "v", 18000], "internal_node_id": "0.0-57.0-0.0", "key_presses": [66, 82, 65, 78, 68, 32, 67, 79, 85, 67, 72, 13, 87, 72, 73, 83, 75, 69, 82, 13], "trial": 1, "time_elapsed": 620588, "type": "FREE_RECALL", "trial_index": 75}, "uniqueid": "MTK2360:3K9FOBBF2IQKYW25ZXNL5R86IIGNL6", "dateTime": 1516995934108}, {"current_trial": 76, "trialdata": {"rt": 196245, "trial_type": "text", "internal_node_id": "0.0-58.0", "time_elapsed": 818842, "key_press": 86, "type": "INSTRUCTIONS", "trial_index": 76}, "uniqueid": "MTK2360:3K9FOBBF2IQKYW25ZXNL5R86IIGNL6", "dateTime": 1516996132360}, {"current_trial": 77, "trialdata": {"rt": [4104, 7593, 9887, 11951], "trial_type": "math-distractor", "key_times": [3946, 4104, 7209, 7433, 7593, 9538, 9777, 9887, 11626, 11801, 11951], "responses": ["9", "19", "18", "15"], "num2": [3, 8, 9, 4, 1], "num3": [1, 6, 1, 4, 5], "conditions": [24, 1600, "v", 12000], "internal_node_id": "0.0-59.0", "key_presses": [105, 13, 97, 105, 13, 97, 104, 13, 97, 101, 13], "trial": 2, "time_elapsed": 831852, "type": "DISTRACTOR", "trial_index": 77, "num1": [5, 5, 8, 7, 7]}, "uniqueid": "MTK2360:3K9FOBBF2IQKYW25ZXNL5R86IIGNL6", "dateTime": 1516996145371}, {"current_trial": 78, "trialdata": {"rt": -1, "trial_type": "single-stim", "stimulus": "<p id=\"stim\">10</p>", "internal_node_id": "0.0-60.0-0.0", "time_elapsed": 834879, "key_press": -1, "trial_index": 78}, "uniqueid": "MTK2360:3K9FOBBF2IQKYW25ZXNL5R86IIGNL6", "dateTime": 1516996148397}, {"current_trial": 79, "trialdata": {"rt": -1, "trial_type": "single-stim", "stimulus": "<p id=\"stim\">9</p>", "internal_node_id": "0.0-60.0-1.0", "time_elapsed": 835872, "key_press": -1, "trial_index": 79}, "uniqueid": "MTK2360:3K9FOBBF2IQKYW25ZXNL5R86IIGNL6", "dateTime": 1516996149390}, {"current_trial": 80, "trialdata": {"rt": -1, "trial_type": "single-stim", "stimulus": "<p id=\"stim\">8</p>", "internal_node_id": "0.0-60.0-2.0", "time_elapsed": 836867, "key_press": -1, "trial_index": 80}, "uniqueid": "MTK2360:3K9FOBBF2IQKYW25ZXNL5R86IIGNL6", "dateTime": 1516996150385}, {"current_trial": 81, "trialdata": {"rt": -1, "trial_type": "single-stim", "stimulus": "<p id=\"stim\">7</p>", "internal_node_id": "0.0-60.0-3.0", "time_elapsed": 837873, "key_press": -1, "trial_index": 81}, "uniqueid": "MTK2360:3K9FOBBF2IQKYW25ZXNL5R86IIGNL6", "dateTime": 1516996151391}, {"current_trial": 82, "trialdata": {"rt": -1, "trial_type": "single-stim", "stimulus": "<p id=\"stim\">6</p>", "internal_node_id": "0.0-60.0-4.0", "time_elapsed": 838875, "key_press": -1, "trial_index": 82}, "uniqueid": "MTK2360:3K9FOBBF2IQKYW25ZXNL5R86IIGNL6", "dateTime": 1516996152393}, {"current_trial": 83, "trialdata": {"rt": -1, "trial_type": "single-stim", "stimulus": "<p id=\"stim\">5</p>", "internal_node_id": "0.0-60.0-5.0", "time_elapsed": 839876, "key_press": -1, "trial_index": 83}, "uniqueid": "MTK2360:3K9FOBBF2IQKYW25ZXNL5R86IIGNL6", "dateTime": 1516996153395}, {"current_trial": 84, "trialdata": {"rt": -1, "trial_type": "single-stim", "stimulus": "<p id=\"stim\">4</p>", "internal_node_id": "0.0-60.0-6.0", "time_elapsed": 840889, "key_press": -1, "trial_index": 84}, "uniqueid": "MTK2360:3K9FOBBF2IQKYW25ZXNL5R86IIGNL6", "dateTime": 1516996154407}, {"current_trial": 85, "trialdata": {"rt": -1, "trial_type": "single-stim", "stimulus": "<p id=\"stim\">3</p>", "internal_node_id": "0.0-60.0-7.0", "time_elapsed": 841888, "key_press": -1, "trial_index": 85}, "uniqueid": "MTK2360:3K9FOBBF2IQKYW25ZXNL5R86IIGNL6", "dateTime": 1516996155407}, {"current_trial": 86, "trialdata": {"rt": -1, "trial_type": "single-stim", "stimulus": "<p id=\"stim\">2</p>", "internal_node_id": "0.0-60.0-8.0", "time_elapsed": 842876, "key_press": -1, "trial_index": 86}, "uniqueid": "MTK2360:3K9FOBBF2IQKYW25ZXNL5R86IIGNL6", "dateTime": 1516996156394}, {"current_trial": 87, "trialdata": {"rt": -1, "trial_type": "single-stim", "stimulus": "<p id=\"stim\">1</p>", "internal_node_id": "0.0-60.0-9.0", "time_elapsed": 843866, "key_press": -1, "trial_index": 87}, "uniqueid": "MTK2360:3K9FOBBF2IQKYW25ZXNL5R86IIGNL6", "dateTime": 1516996157384}, {"current_trial": 88, "trialdata": {"rt": -1, "trial_type": "single-stim", "stimulus": "<p id=\"stim\">+</p>", "internal_node_id": "0.0-61.0-0.0", "time_elapsed": 845383, "key_press": -1, "type": "FIXATION", "trial_index": 88}, "uniqueid": "MTK2360:3K9FOBBF2IQKYW25ZXNL5R86IIGNL6", "dateTime": 1516996158901}, {"current_trial": 89, "trialdata": {"rt": -1, "trial_type": "single-stim", "word": "tourist", "stimulus": "<p id=\"stim\">TOURIST</p>", "conditions": [24, 1600, "v", 12000], "internal_node_id": "0.0-62.0", "trial": 2, "time_elapsed": 846988, "serialpos": 0, "key_press": -1, "wordID": 1487, "type": "PRES_VIS", "trial_index": 89}, "uniqueid": "MTK2360:3K9FOBBF2IQKYW25ZXNL5R86IIGNL6", "dateTime": 1516996160506}, {"current_trial": 90, "trialdata": {"rt": -1, "trial_type": "single-stim", "word": "rooster", "stimulus": "<p id=\"stim\">ROOSTER</p>", "conditions": [24, 1600, "v", 12000], "internal_node_id": "0.0-63.0", "trial": 2, "time_elapsed": 849437, "serialpos": 1, "key_press": -1, "wordID": 1208, "type": "PRES_VIS", "trial_index": 90}, "uniqueid": "MTK2360:3K9FOBBF2IQKYW25ZXNL5R86IIGNL6", "dateTime": 1516996162956}, {"current_trial": 91, "trialdata": {"rt": -1, "trial_type": "single-stim", "word": "mailbox", "stimulus": "<p id=\"stim\">MAILBOX</p>", "conditions": [24, 1600, "v", 12000], "internal_node_id": "0.0-64.0", "trial": 2, "time_elapsed": 851977, "serialpos": 2, "key_press": -1, "wordID": 856, "type": "PRES_VIS", "trial_index": 91}, "uniqueid": "MTK2360:3K9FOBBF2IQKYW25ZXNL5R86IIGNL6", "dateTime": 1516996165495}, {"current_trial": 92, "trialdata": {"rt": -1, "trial_type": "single-stim", "word": "mailman", "stimulus": "<p id=\"stim\">MAILMAN</p>", "conditions": [24, 1600, "v", 12000], "internal_node_id": "0.0-65.0", "trial": 2, "time_elapsed": 854529, "serialpos": 3, "key_press": -1, "wordID": 857, "type": "PRES_VIS", "trial_index": 92}, "uniqueid": "MTK2360:3K9FOBBF2IQKYW25ZXNL5R86IIGNL6", "dateTime": 1516996168048}, {"current_trial": 93, "trialdata": {"rt": -1, "trial_type": "single-stim", "word": "france", "stimulus": "<p id=\"stim\">FRANCE</p>", "conditions": [24, 1600, "v", 12000], "internal_node_id": "0.0-66.0", "trial": 2, "time_elapsed": 857155, "serialpos": 4, "key_press": -1, "wordID": 600, "type": "PRES_VIS", "trial_index": 93}, "uniqueid": "MTK2360:3K9FOBBF2IQKYW25ZXNL5R86IIGNL6", "dateTime": 1516996170674}, {"current_trial": 94, "trialdata": {"rt": -1, "trial_type": "single-stim", "word": "shark", "stimulus": "<p id=\"stim\">SHARK</p>", "conditions": [24, 1600, "v", 12000], "internal_node_id": "0.0-67.0", "trial": 2, "time_elapsed": 859909, "serialpos": 5, "key_press": -1, "wordID": 1274, "type": "PRES_VIS", "trial_index": 94}, "uniqueid": "MTK2360:3K9FOBBF2IQKYW25ZXNL5R86IIGNL6", "dateTime": 1516996173427}, {"current_trial": 95, "trialdata": {"rt": -1, "trial_type": "single-stim", "word": "venus", "stimulus": "<p id=\"stim\">VENUS</p>", "conditions": [24, 1600, "v", 12000], "internal_node_id": "0.0-68.0", "trial": 2, "time_elapsed": 862381, "serialpos": 6, "key_press": -1, "wordID": 1556, "type": "PRES_VIS", "trial_index": 95}, "uniqueid": "MTK2360:3K9FOBBF2IQKYW25ZXNL5R86IIGNL6", "dateTime": 1516996175899}, {"current_trial": 96, "trialdata": {"rt": -1, "trial_type": "single-stim", "word": "quail", "stimulus": "<p id=\"stim\">QUAIL</p>", "conditions": [24, 1600, "v", 12000], "internal_node_id": "0.0-69.0", "trial": 2, "time_elapsed": 864826, "serialpos": 7, "key_press": -1, "wordID": 1146, "type": "PRES_VIS", "trial_index": 96}, "uniqueid": "MTK2360:3K9FOBBF2IQKYW25ZXNL5R86IIGNL6", "dateTime": 1516996178344}, {"current_trial": 97, "trialdata": {"rt": -1, "trial_type": "single-stim", "word": "parrot", "stimulus": "<p id=\"stim\">PARROT</p>", "conditions": [24, 1600, "v", 12000], "internal_node_id": "0.0-70.0", "trial": 2, "time_elapsed": 867511, "serialpos": 8, "key_press": -1, "wordID": 1014, "type": "PRES_VIS", "trial_index": 97}, "uniqueid": "MTK2360:3K9FOBBF2IQKYW25ZXNL5R86IIGNL6", "dateTime": 1516996181029}, {"current_trial": 98, "trialdata": {"rt": -1, "trial_type": "single-stim", "word": "bullet", "stimulus": "<p id=\"stim\">BULLET</p>", "conditions": [24, 1600, "v", 12000], "internal_node_id": "0.0-71.0", "trial": 2, "time_elapsed": 870246, "serialpos": 9, "key_press": -1, "wordID": 193, "type": "PRES_VIS", "trial_index": 98}, "uniqueid": "MTK2360:3K9FOBBF2IQKYW25ZXNL5R86IIGNL6", "dateTime": 1516996183764}, {"current_trial": 99, "trialdata": {"rt": -1, "trial_type": "single-stim", "word": "tweezers", "stimulus": "<p id=\"stim\">TWEEZERS</p>", "conditions": [24, 1600, "v", 12000], "internal_node_id": "0.0-72.0", "trial": 2, "time_elapsed": 872931, "serialpos": 10, "key_press": -1, "wordID": 1525, "type": "PRES_VIS", "trial_index": 99}, "uniqueid": "MTK2360:3K9FOBBF2IQKYW25ZXNL5R86IIGNL6", "dateTime": 1516996186449}, {"current_trial": 100, "trialdata": {"rt": -1, "trial_type": "single-stim", "word": "xerox", "stimulus": "<p id=\"stim\">XEROX</p>", "conditions": [24, 1600, "v", 12000], "internal_node_id": "0.0-73.0", "trial": 2, "time_elapsed": 875704, "serialpos": 11, "key_press": -1, "wordID": 1627, "type": "PRES_VIS", "trial_index": 100}, "uniqueid": "MTK2360:3K9FOBBF2IQKYW25ZXNL5R86IIGNL6", "dateTime": 1516996189223}, {"current_trial": 101, "trialdata": {"rt": -1, "trial_type": "single-stim", "word": "beef", "stimulus": "<p id=\"stim\">BEEF</p>", "conditions": [24, 1600, "v", 12000], "internal_node_id": "0.0-74.0", "trial": 2, "time_elapsed": 878354, "serialpos": 12, "key_press": -1, "wordID": 112, "type": "PRES_VIS", "trial_index": 101}, "uniqueid": "MTK2360:3K9FOBBF2IQKYW25ZXNL5R86IIGNL6", "dateTime": 1516996191872}, {"current_trial": 102, "trialdata": {"rt": -1, "trial_type": "single-stim", "word": "leg", "stimulus": "<p id=\"stim\">LEG</p>", "conditions": [24, 1600, "v", 12000], "internal_node_id": "0.0-75.0", "trial": 2, "time_elapsed": 880915, "serialpos": 13, "key_press": -1, "wordID": 808, "type": "PRES_VIS", "trial_index": 102}, "uniqueid": "MTK2360:3K9FOBBF2IQKYW25ZXNL5R86IIGNL6", "dateTime": 1516996194433}, {"current_trial": 103, "trialdata": {"rt": -1, "trial_type": "single-stim", "word": "grave", "stimulus": "<p id=\"stim\">GRAVE</p>", "conditions": [24, 1600, "v", 12000], "internal_node_id": "0.0-76.0", "trial": 2, "time_elapsed": 883466, "serialpos": 14, "key_press": -1, "wordID": 657, "type": "PRES_VIS", "trial_index": 103}, "uniqueid": "MTK2360:3K9FOBBF2IQKYW25ZXNL5R86IIGNL6", "dateTime": 1516996196985}, {"current_trial": 104, "trialdata": {"rt": -1, "trial_type": "single-stim", "word": "fragrance", "stimulus": "<p id=\"stim\">FRAGRANCE</p>", "conditions": [24, 1600, "v", 12000], "internal_node_id": "0.0-77.0", "trial": 2, "time_elapsed": 886085, "serialpos": 15, "key_press": -1, "wordID": 598, "type": "PRES_VIS", "trial_index": 104}, "uniqueid": "MTK2360:3K9FOBBF2IQKYW25ZXNL5R86IIGNL6", "dateTime": 1516996199603}, {"current_trial": 105, "trialdata": {"rt": -1, "trial_type": "single-stim", "word": "spool", "stimulus": "<p id=\"stim\">SPOOL</p>", "conditions": [24, 1600, "v", 12000], "internal_node_id": "0.0-78.0", "trial": 2, "time_elapsed": 888635, "serialpos": 16, "key_press": -1, "wordID": 1355, "type": "PRES_VIS", "trial_index": 105}, "uniqueid": "MTK2360:3K9FOBBF2IQKYW25ZXNL5R86IIGNL6", "dateTime": 1516996202153}, {"current_trial": 106, "trialdata": {"rt": -1, "trial_type": "single-stim", "word": "banjo", "stimulus": "<p id=\"stim\">BANJO</p>", "conditions": [24, 1600, "v", 12000], "internal_node_id": "0.0-79.0", "trial": 2, "time_elapsed": 891169, "serialpos": 17, "key_press": -1, "wordID": 81, "type": "PRES_VIS", "trial_index": 106}, "uniqueid": "MTK2360:3K9FOBBF2IQKYW25ZXNL5R86IIGNL6", "dateTime": 1516996204687}, {"current_trial": 107, "trialdata": {"rt": -1, "trial_type": "single-stim", "word": "ulcer", "stimulus": "<p id=\"stim\">ULCER</p>", "conditions": [24, 1600, "v", 12000], "internal_node_id": "0.0-80.0", "trial": 2, "time_elapsed": 893664, "serialpos": 18, "key_press": -1, "wordID": 1532, "type": "PRES_VIS", "trial_index": 107}, "uniqueid": "MTK2360:3K9FOBBF2IQKYW25ZXNL5R86IIGNL6", "dateTime": 1516996207182}, {"current_trial": 108, "trialdata": {"rt": -1, "trial_type": "single-stim", "word": "jello", "stimulus": "<p id=\"stim\">JELLO</p>", "conditions": [24, 1600, "v", 12000], "internal_node_id": "0.0-81.0", "trial": 2, "time_elapsed": 896153, "serialpos": 19, "key_press": -1, "wordID": 753, "type": "PRES_VIS", "trial_index": 108}, "uniqueid": "MTK2360:3K9FOBBF2IQKYW25ZXNL5R86IIGNL6", "dateTime": 1516996209672}, {"current_trial": 109, "trialdata": {"rt": -1, "trial_type": "single-stim", "word": "clothes", "stimulus": "<p id=\"stim\">CLOTHES</p>", "conditions": [24, 1600, "v", 12000], "internal_node_id": "0.0-82.0", "trial": 2, "time_elapsed": 898742, "serialpos": 20, "key_press": -1, "wordID": 326, "type": "PRES_VIS", "trial_index": 109}, "uniqueid": "MTK2360:3K9FOBBF2IQKYW25ZXNL5R86IIGNL6", "dateTime": 1516996212260}, {"current_trial": 110, "trialdata": {"rt": -1, "trial_type": "single-stim", "word": "nightgown", "stimulus": "<p id=\"stim\">NIGHTGOWN</p>", "conditions": [24, 1600, "v", 12000], "internal_node_id": "0.0-83.0", "trial": 2, "time_elapsed": 901178, "serialpos": 21, "key_press": -1, "wordID": 952, "type": "PRES_VIS", "trial_index": 110}, "uniqueid": "MTK2360:3K9FOBBF2IQKYW25ZXNL5R86IIGNL6", "dateTime": 1516996214697}, {"current_trial": 111, "trialdata": {"rt": -1, "trial_type": "single-stim", "word": "mustard", "stimulus": "<p id=\"stim\">MUSTARD</p>", "conditions": [24, 1600, "v", 12000], "internal_node_id": "0.0-84.0", "trial": 2, "time_elapsed": 903751, "serialpos": 22, "key_press": -1, "wordID": 934, "type": "PRES_VIS", "trial_index": 111}, "uniqueid": "MTK2360:3K9FOBBF2IQKYW25ZXNL5R86IIGNL6", "dateTime": 1516996217270}, {"current_trial": 112, "trialdata": {"rt": -1, "trial_type": "single-stim", "word": "perfume", "stimulus": "<p id=\"stim\">PERFUME</p>", "conditions": [24, 1600, "v", 12000], "internal_node_id": "0.0-85.0", "trial": 2, "time_elapsed": 906401, "serialpos": 23, "key_press": -1, "wordID": 1048, "type": "PRES_VIS", "trial_index": 112}, "uniqueid": "MTK2360:3K9FOBBF2IQKYW25ZXNL5R86IIGNL6", "dateTime": 1516996219919}, {"current_trial": 113, "trialdata": {"rt": -1, "trial_type": "single-stim", "stimulus": "", "internal_node_id": "0.0-86.0-0.0", "time_elapsed": 908544, "key_press": -1, "type": "PRE_RECALL_DELAY", "trial_index": 113}, "uniqueid": "MTK2360:3K9FOBBF2IQKYW25ZXNL5R86IIGNL6", "dateTime": 1516996222062}, {"current_trial": 114, "trialdata": {"rt": -1000, "trial_type": "single-audio", "stimulus": "/static/audio/400Hz.wav", "internal_node_id": "0.0-87.0", "time_elapsed": 909056, "key_press": -1, "type": "PRE_RECALL_ALERT", "trial_index": 114}, "uniqueid": "MTK2360:3K9FOBBF2IQKYW25ZXNL5R86IIGNL6", "dateTime": 1516996222575}, {"current_trial": 115, "trialdata": {"rt": [5792, 8200, 10098, 11959, 14736, 16552, 21120, 22840, 28040, 30872, 32473, 37768, 39792, 45056, 46608], "recwords": ["jello", "ucler", "tourist", "rooster", "mailbox", "mailman", "shark", "venus", "quail", "bullet", "parrot", "couch", "lumber", "leg", "beef"], "key_times": [4740, 4929, 5058, 5233, 5426, 5792, 7244, 7496, 7641, 7800, 7930, 8200, 8673, 8800, 8867, 8987, 9561, 9721, 9874, 10098, 10650, 10794, 10984, 11147, 11338, 11544, 11628, 11959, 12664, 12888, 13082, 13288, 14161, 14353, 14529, 14736, 15098, 15258, 15386, 15552, 15994, 16139, 16285, 16552, 20195, 20418, 20530, 20679, 20826, 21120, 21496, 21721, 21858, 22106, 22313, 22840, 23745, 23842, 24403, 24898, 25121, 25674, 25865, 26025, 26521, 26778, 26985, 28040, 29330, 29898, 30154, 30313, 30427, 30634, 30872, 31209, 31321, 31450, 31630, 31818, 31994, 32473, 36988, 37080, 37179, 37385, 37512, 37768, 38545, 38833, 39090, 39268, 39520, 39601, 39792, 44305, 44464, 44722, 45056, 45537, 45810, 46002, 46241, 46608], "trial_type": "free-recall", "conditions": [24, 1600, "v", 12000], "internal_node_id": "0.0-88.0-0.0", "key_presses": [74, 69, 76, 76, 79, 13, 85, 67, 76, 69, 82, 13, 84, 79, 85, 82, 73, 83, 84, 32, 82, 79, 79, 83, 84, 69, 82, 13, 77, 65, 73, 76, 66, 79, 88, 13, 77, 65, 73, 76, 77, 65, 78, 13, 83, 72, 65, 82, 75, 13, 86, 69, 78, 85, 83, 13, 81, 81, 85, 8, 8, 85, 65, 76, 8, 73, 76, 13, 66, 85, 76, 76, 69, 84, 13, 80, 65, 82, 82, 79, 84, 13, 67, 79, 85, 67, 72, 13, 76, 85, 77, 66, 69, 82, 13, 76, 69, 71, 13, 66, 69, 69, 70, 13], "trial": 2, "time_elapsed": 969070, "type": "FREE_RECALL", "trial_index": 115}, "uniqueid": "MTK2360:3K9FOBBF2IQKYW25ZXNL5R86IIGNL6", "dateTime": 1516996282592}, {"current_trial": 116, "trialdata": {"rt": 2056, "trial_type": "text", "internal_node_id": "0.0-89.0", "time_elapsed": 973159, "key_press": 32, "type": "INSTRUCTIONS", "trial_index": 116}, "uniqueid": "MTK2360:3K9FOBBF2IQKYW25ZXNL5R86IIGNL6", "dateTime": 1516996286678}, {"current_trial": 117, "trialdata": {"rt": [3101, 6429, 8213, 10222], "trial_type": "math-distractor", "key_times": [2768, 2975, 3101, 4479, 5815, 6429, 7663, 7968, 8213, 9574, 9861, 10222, 11656], "responses": ["21", "21", "16", "16"], "num2": [7, 9, 1, 5, 5], "num3": [9, 9, 9, 3, 3], "conditions": [12, 1600, "v", 12000], "internal_node_id": "0.0-90.0", "key_presses": [98, 97, 13, 98, 97, 13, 97, 102, 13, 97, 102, 13, 97], "trial": 3, "time_elapsed": 987178, "type": "DISTRACTOR", "trial_index": 117, "num1": [5, 3, 6, 8, 2]}, "uniqueid": "MTK2360:3K9FOBBF2IQKYW25ZXNL5R86IIGNL6", "dateTime": 1516996300696}, {"current_trial": 118, "trialdata": {"rt": -1, "trial_type": "single-stim", "stimulus": "<p id=\"stim\">10</p>", "internal_node_id": "0.0-91.0-0.0", "time_elapsed": 990197, "key_press": -1, "trial_index": 118}, "uniqueid": "MTK2360:3K9FOBBF2IQKYW25ZXNL5R86IIGNL6", "dateTime": 1516996303715}, {"current_trial": 119, "trialdata": {"rt": -1, "trial_type": "single-stim", "stimulus": "<p id=\"stim\">9</p>", "internal_node_id": "0.0-91.0-1.0", "time_elapsed": 991196, "key_press": -1, "trial_index": 119}, "uniqueid": "MTK2360:3K9FOBBF2IQKYW25ZXNL5R86IIGNL6", "dateTime": 1516996304714}, {"current_trial": 120, "trialdata": {"rt": -1, "trial_type": "single-stim", "stimulus": "<p id=\"stim\">8</p>", "internal_node_id": "0.0-91.0-2.0", "time_elapsed": 992211, "key_press": -1, "trial_index": 120}, "uniqueid": "MTK2360:3K9FOBBF2IQKYW25ZXNL5R86IIGNL6", "dateTime": 1516996305729}, {"current_trial": 121, "trialdata": {"rt": -1, "trial_type": "single-stim", "stimulus": "<p id=\"stim\">7</p>", "internal_node_id": "0.0-91.0-3.0", "time_elapsed": 993193, "key_press": -1, "trial_index": 121}, "uniqueid": "MTK2360:3K9FOBBF2IQKYW25ZXNL5R86IIGNL6", "dateTime": 1516996306711}, {"current_trial": 122, "trialdata": {"rt": -1, "trial_type": "single-stim", "stimulus": "<p id=\"stim\">6</p>", "internal_node_id": "0.0-91.0-4.0", "time_elapsed": 994195, "key_press": -1, "trial_index": 122}, "uniqueid": "MTK2360:3K9FOBBF2IQKYW25ZXNL5R86IIGNL6", "dateTime": 1516996307713}, {"current_trial": 123, "trialdata": {"rt": -1, "trial_type": "single-stim", "stimulus": "<p id=\"stim\">5</p>", "internal_node_id": "0.0-91.0-5.0", "time_elapsed": 995205, "key_press": -1, "trial_index": 123}, "uniqueid": "MTK2360:3K9FOBBF2IQKYW25ZXNL5R86IIGNL6", "dateTime": 1516996308723}, {"current_trial": 124, "trialdata": {"rt": -1, "trial_type": "single-stim", "stimulus": "<p id=\"stim\">4</p>", "internal_node_id": "0.0-91.0-6.0", "time_elapsed": 996200, "key_press": -1, "trial_index": 124}, "uniqueid": "MTK2360:3K9FOBBF2IQKYW25ZXNL5R86IIGNL6", "dateTime": 1516996309718}, {"current_trial": 125, "trialdata": {"rt": -1, "trial_type": "single-stim", "stimulus": "<p id=\"stim\">3</p>", "internal_node_id": "0.0-91.0-7.0", "time_elapsed": 997193, "key_press": -1, "trial_index": 125}, "uniqueid": "MTK2360:3K9FOBBF2IQKYW25ZXNL5R86IIGNL6", "dateTime": 1516996310711}, {"current_trial": 126, "trialdata": {"rt": -1, "trial_type": "single-stim", "stimulus": "<p id=\"stim\">2</p>", "internal_node_id": "0.0-91.0-8.0", "time_elapsed": 998198, "key_press": -1, "trial_index": 126}, "uniqueid": "MTK2360:3K9FOBBF2IQKYW25ZXNL5R86IIGNL6", "dateTime": 1516996311717}, {"current_trial": 127, "trialdata": {"rt": -1, "trial_type": "single-stim", "stimulus": "<p id=\"stim\">1</p>", "internal_node_id": "0.0-91.0-9.0", "time_elapsed": 999198, "key_press": -1, "trial_index": 127}, "uniqueid": "MTK2360:3K9FOBBF2IQKYW25ZXNL5R86IIGNL6", "dateTime": 1516996312716}, {"current_trial": 128, "trialdata": {"rt": -1, "trial_type": "single-stim", "stimulus": "<p id=\"stim\">+</p>", "internal_node_id": "0.0-92.0-0.0", "time_elapsed": 1000700, "key_press": -1, "type": "FIXATION", "trial_index": 128}, "uniqueid": "MTK2360:3K9FOBBF2IQKYW25ZXNL5R86IIGNL6", "dateTime": 1516996314218}, {"current_trial": 129, "trialdata": {"rt": -1, "trial_type": "single-stim", "word": "pasta", "stimulus": "<p id=\"stim\">PASTA</p>", "conditions": [12, 1600, "v", 12000], "internal_node_id": "0.0-93.0", "trial": 3, "time_elapsed": 1002306, "serialpos": 0, "key_press": -1, "wordID": 1020, "type": "PRES_VIS", "trial_index": 129}, "uniqueid": "MTK2360:3K9FOBBF2IQKYW25ZXNL5R86IIGNL6", "dateTime": 1516996315824}, {"current_trial": 130, "trialdata": {"rt": -1, "trial_type": "single-stim", "word": "sticker", "stimulus": "<p id=\"stim\">STICKER</p>", "conditions": [12, 1600, "v", 12000], "internal_node_id": "0.0-94.0", "trial": 3, "time_elapsed": 1004933, "serialpos": 1, "key_press": -1, "wordID": 1381, "type": "PRES_VIS", "trial_index": 130}, "uniqueid": "MTK2360:3K9FOBBF2IQKYW25ZXNL5R86IIGNL6", "dateTime": 1516996318451}, {"current_trial": 131, "trialdata": {"rt": -1, "trial_type": "single-stim", "word": "lightning", "stimulus": "<p id=\"stim\">LIGHTNING</p>", "conditions": [12, 1600, "v", 12000], "internal_node_id": "0.0-95.0", "trial": 3, "time_elapsed": 1007730, "serialpos": 2, "key_press": -1, "wordID": 819, "type": "PRES_VIS", "trial_index": 131}, "uniqueid": "MTK2360:3K9FOBBF2IQKYW25ZXNL5R86IIGNL6", "dateTime": 1516996321248}, {"current_trial": 132, "trialdata": {"rt": -1, "trial_type": "single-stim", "word": "barrel", "stimulus": "<p id=\"stim\">BARREL</p>", "conditions": [12, 1600, "v", 12000], "internal_node_id": "0.0-96.0", "trial": 3, "time_elapsed": 1010346, "serialpos": 3, "key_press": -1, "wordID": 90, "type": "PRES_VIS", "trial_index": 132}, "uniqueid": "MTK2360:3K9FOBBF2IQKYW25ZXNL5R86IIGNL6", "dateTime": 1516996323865}, {"current_trial": 133, "trialdata": {"rt": -1, "trial_type": "single-stim", "word": "gallon", "stimulus": "<p id=\"stim\">GALLON</p>", "conditions": [12, 1600, "v", 12000], "internal_node_id": "0.0-97.0", "trial": 3, "time_elapsed": 1013159, "serialpos": 4, "key_press": -1, "wordID": 617, "type": "PRES_VIS", "trial_index": 133}, "uniqueid": "MTK2360:3K9FOBBF2IQKYW25ZXNL5R86IIGNL6", "dateTime": 1516996326678}, {"current_trial": 134, "trialdata": {"rt": -1, "trial_type": "single-stim", "word": "sheriff", "stimulus": "<p id=\"stim\">SHERIFF</p>", "conditions": [12, 1600, "v", 12000], "internal_node_id": "0.0-98.0", "trial": 3, "time_elapsed": 1015956, "serialpos": 5, "key_press": -1, "wordID": 1283, "type": "PRES_VIS", "trial_index": 134}, "uniqueid": "MTK2360:3K9FOBBF2IQKYW25ZXNL5R86IIGNL6", "dateTime": 1516996329474}, {"current_trial": 135, "trialdata": {"rt": -1, "trial_type": "single-stim", "word": "soda", "stimulus": "<p id=\"stim\">SODA</p>", "conditions": [12, 1600, "v", 12000], "internal_node_id": "0.0-99.0", "trial": 3, "time_elapsed": 1018745, "serialpos": 6, "key_press": -1, "wordID": 1340, "type": "PRES_VIS", "trial_index": 135}, "uniqueid": "MTK2360:3K9FOBBF2IQKYW25ZXNL5R86IIGNL6", "dateTime": 1516996332264}, {"current_trial": 136, "trialdata": {"rt": -1, "trial_type": "single-stim", "word": "tutu", "stimulus": "<p id=\"stim\">TUTU</p>", "conditions": [12, 1600, "v", 12000], "internal_node_id": "0.0-100.0", "trial": 3, "time_elapsed": 1021435, "serialpos": 7, "key_press": -1, "wordID": 1523, "type": "PRES_VIS", "trial_index": 136}, "uniqueid": "MTK2360:3K9FOBBF2IQKYW25ZXNL5R86IIGNL6", "dateTime": 1516996334954}, {"current_trial": 137, "trialdata": {"rt": -1, "trial_type": "single-stim", "word": "pudding", "stimulus": "<p id=\"stim\">PUDDING</p>", "conditions": [12, 1600, "v", 12000], "internal_node_id": "0.0-101.0", "trial": 3, "time_elapsed": 1024034, "serialpos": 8, "key_press": -1, "wordID": 1138, "type": "PRES_VIS", "trial_index": 137}, "uniqueid": "MTK2360:3K9FOBBF2IQKYW25ZXNL5R86IIGNL6", "dateTime": 1516996337552}, {"current_trial": 138, "trialdata": {"rt": -1, "trial_type": "single-stim", "word": "lettuce", "stimulus": "<p id=\"stim\">LETTUCE</p>", "conditions": [12, 1600, "v", 12000], "internal_node_id": "0.0-102.0", "trial": 3, "time_elapsed": 1026819, "serialpos": 9, "key_press": -1, "wordID": 813, "type": "PRES_VIS", "trial_index": 138}, "uniqueid": "MTK2360:3K9FOBBF2IQKYW25ZXNL5R86IIGNL6", "dateTime": 1516996340337}, {"current_trial": 139, "trialdata": {"rt": -1, "trial_type": "single-stim", "word": "tortoise", "stimulus": "<p id=\"stim\">TORTOISE</p>", "conditions": [12, 1600, "v", 12000], "internal_node_id": "0.0-103.0", "trial": 3, "time_elapsed": 1029402, "serialpos": 10, "key_press": -1, "wordID": 1485, "type": "PRES_VIS", "trial_index": 139}, "uniqueid": "MTK2360:3K9FOBBF2IQKYW25ZXNL5R86IIGNL6", "dateTime": 1516996342920}, {"current_trial": 140, "trialdata": {"rt": -1, "trial_type": "single-stim", "word": "badge", "stimulus": "<p id=\"stim\">BADGE</p>", "conditions": [12, 1600, "v", 12000], "internal_node_id": "0.0-104.0", "trial": 3, "time_elapsed": 1032169, "serialpos": 11, "key_press": -1, "wordID": 67, "type": "PRES_VIS", "trial_index": 140}, "uniqueid": "MTK2360:3K9FOBBF2IQKYW25ZXNL5R86IIGNL6", "dateTime": 1516996345688}, {"current_trial": 141, "trialdata": {"rt": -1, "trial_type": "single-stim", "stimulus": "", "internal_node_id": "0.0-105.0-0.0", "time_elapsed": 1034606, "key_press": -1, "type": "PRE_RECALL_DELAY", "trial_index": 141}, "uniqueid": "MTK2360:3K9FOBBF2IQKYW25ZXNL5R86IIGNL6", "dateTime": 1516996348124}, {"current_trial": 142, "trialdata": {"rt": -1000, "trial_type": "single-audio", "stimulus": "/static/audio/400Hz.wav", "internal_node_id": "0.0-106.0", "time_elapsed": 1035127, "key_press": -1, "type": "PRE_RECALL_ALERT", "trial_index": 142}, "uniqueid": "MTK2360:3K9FOBBF2IQKYW25ZXNL5R86IIGNL6", "dateTime": 1516996348645}, {"current_trial": 143, "trialdata": {"rt": [38793, 41906, 47448, 58704], "recwords": ["ulcer", "mail", "whiskers", "quail"], "key_times": [36699, 37081, 37577, 37897, 38081, 38793, 40338, 40809, 41408, 41569, 41906, 44178, 44833, 45217, 45714, 46090, 46521, 46640, 46874, 47448, 55410, 56081, 56560, 57177, 57403, 58704], "trial_type": "free-recall", "conditions": [12, 1600, "v", 12000], "internal_node_id": "0.0-107.0-0.0", "key_presses": [85, 76, 67, 69, 82, 13, 77, 65, 73, 76, 32, 87, 72, 73, 83, 75, 69, 82, 83, 13, 81, 85, 65, 73, 76, 13], "trial": 3, "time_elapsed": 1095135, "type": "FREE_RECALL", "trial_index": 143}, "uniqueid": "MTK2360:3K9FOBBF2IQKYW25ZXNL5R86IIGNL6", "dateTime": 1516996408660}, {"current_trial": 144, "trialdata": {"rt": 179800, "trial_type": "text", "internal_node_id": "0.0-108.0", "time_elapsed": 1276953, "key_press": 32, "type": "INSTRUCTIONS", "trial_index": 144}, "uniqueid": "MTK2360:3K9FOBBF2IQKYW25ZXNL5R86IIGNL6", "dateTime": 1516996590471}, {"current_trial": 145, "trialdata": {"rt": [1770, 3890, 5433, 7642, 9706, 11753, 14713, 17370, 19473, 21857, 23906], "trial_type": "math-distractor", "key_times": [1355, 1579, 1770, 3292, 3594, 3890, 5083, 5291, 5433, 7034, 7387, 7642, 8756, 9387, 9706, 11164, 11498, 11753, 14253, 14507, 14713, 17147, 17370, 18996, 19202, 19473, 21476, 21714, 21857, 23493, 23665, 23906], "responses": ["12", "13", "11", "16", "13", "17", "14", "8", "15", "10", "16"], "num2": [2, 2, 6, 6, 5, 6, 3, 1, 3, 2, 5, 1], "num3": [9, 7, 1, 9, 2, 4, 5, 1, 8, 6, 7, 2], "conditions": [24, 1600, "v", 24000], "internal_node_id": "0.0-109.0", "key_presses": [97, 98, 13, 97, 99, 13, 97, 97, 13, 97, 102, 13, 97, 99, 13, 97, 103, 13, 97, 100, 13, 104, 13, 97, 101, 13, 97, 96, 13, 97, 102, 13], "trial": 4, "time_elapsed": 1302976, "type": "DISTRACTOR", "trial_index": 145, "num1": [1, 4, 4, 1, 6, 7, 6, 6, 4, 2, 4, 8]}, "uniqueid": "MTK2360:3K9FOBBF2IQKYW25ZXNL5R86IIGNL6", "dateTime": 1516996616494}, {"current_trial": 146, "trialdata": {"rt": -1, "trial_type": "single-stim", "stimulus": "<p id=\"stim\">10</p>", "internal_node_id": "0.0-110.0-0.0", "time_elapsed": 1305994, "key_press": -1, "trial_index": 146}, "uniqueid": "MTK2360:3K9FOBBF2IQKYW25ZXNL5R86IIGNL6", "dateTime": 1516996619512}, {"current_trial": 147, "trialdata": {"rt": -1, "trial_type": "single-stim", "stimulus": "<p id=\"stim\">9</p>", "internal_node_id": "0.0-110.0-1.0", "time_elapsed": 1306990, "key_press": -1, "trial_index": 147}, "uniqueid": "MTK2360:3K9FOBBF2IQKYW25ZXNL5R86IIGNL6", "dateTime": 1516996620508}, {"current_trial": 148, "trialdata": {"rt": -1, "trial_type": "single-stim", "stimulus": "<p id=\"stim\">8</p>", "internal_node_id": "0.0-110.0-2.0", "time_elapsed": 1307987, "key_press": -1, "trial_index": 148}, "uniqueid": "MTK2360:3K9FOBBF2IQKYW25ZXNL5R86IIGNL6", "dateTime": 1516996621505}, {"current_trial": 149, "trialdata": {"rt": -1, "trial_type": "single-stim", "stimulus": "<p id=\"stim\">7</p>", "internal_node_id": "0.0-110.0-3.0", "time_elapsed": 1308991, "key_press": -1, "trial_index": 149}, "uniqueid": "MTK2360:3K9FOBBF2IQKYW25ZXNL5R86IIGNL6", "dateTime": 1516996622509}, {"current_trial": 150, "trialdata": {"rt": -1, "trial_type": "single-stim", "stimulus": "<p id=\"stim\">6</p>", "internal_node_id": "0.0-110.0-4.0", "time_elapsed": 1309996, "key_press": -1, "trial_index": 150}, "uniqueid": "MTK2360:3K9FOBBF2IQKYW25ZXNL5R86IIGNL6", "dateTime": 1516996623514}, {"current_trial": 151, "trialdata": {"rt": -1, "trial_type": "single-stim", "stimulus": "<p id=\"stim\">5</p>", "internal_node_id": "0.0-110.0-5.0", "time_elapsed": 1310998, "key_press": -1, "trial_index": 151}, "uniqueid": "MTK2360:3K9FOBBF2IQKYW25ZXNL5R86IIGNL6", "dateTime": 1516996624517}, {"current_trial": 152, "trialdata": {"rt": -1, "trial_type": "single-stim", "stimulus": "<p id=\"stim\">4</p>", "internal_node_id": "0.0-110.0-6.0", "time_elapsed": 1311998, "key_press": -1, "trial_index": 152}, "uniqueid": "MTK2360:3K9FOBBF2IQKYW25ZXNL5R86IIGNL6", "dateTime": 1516996625517}, {"current_trial": 153, "trialdata": {"rt": -1, "trial_type": "single-stim", "stimulus": "<p id=\"stim\">3</p>", "internal_node_id": "0.0-110.0-7.0", "time_elapsed": 1313012, "key_press": -1, "trial_index": 153}, "uniqueid": "MTK2360:3K9FOBBF2IQKYW25ZXNL5R86IIGNL6", "dateTime": 1516996626531}, {"current_trial": 154, "trialdata": {"rt": -1, "trial_type": "single-stim", "stimulus": "<p id=\"stim\">2</p>", "internal_node_id": "0.0-110.0-8.0", "time_elapsed": 1314012, "key_press": -1, "trial_index": 154}, "uniqueid": "MTK2360:3K9FOBBF2IQKYW25ZXNL5R86IIGNL6", "dateTime": 1516996627531}, {"current_trial": 155, "trialdata": {"rt": -1, "trial_type": "single-stim", "stimulus": "<p id=\"stim\">1</p>", "internal_node_id": "0.0-110.0-9.0", "time_elapsed": 1314999, "key_press": -1, "trial_index": 155}, "uniqueid": "MTK2360:3K9FOBBF2IQKYW25ZXNL5R86IIGNL6", "dateTime": 1516996628518}, {"current_trial": 156, "trialdata": {"rt": -1, "trial_type": "single-stim", "stimulus": "<p id=\"stim\">+</p>", "internal_node_id": "0.0-111.0-0.0", "time_elapsed": 1316505, "key_press": -1, "type": "FIXATION", "trial_index": 156}, "uniqueid": "MTK2360:3K9FOBBF2IQKYW25ZXNL5R86IIGNL6", "dateTime": 1516996630023}, {"current_trial": 157, "trialdata": {"rt": -1, "trial_type": "single-stim", "word": "kitchen", "stimulus": "<p id=\"stim\">KITCHEN</p>", "conditions": [24, 1600, "v", 24000], "internal_node_id": "0.0-112.0", "trial": 4, "time_elapsed": 1318116, "serialpos": 0, "key_press": -1, "wordID": 777, "type": "PRES_VIS", "trial_index": 157}, "uniqueid": "MTK2360:3K9FOBBF2IQKYW25ZXNL5R86IIGNL6", "dateTime": 1516996631635}, {"current_trial": 158, "trialdata": {"rt": -1, "trial_type": "single-stim", "word": "cupboard", "stimulus": "<p id=\"stim\">CUPBOARD</p>", "conditions": [24, 1600, "v", 24000], "internal_node_id": "0.0-113.0", "trial": 4, "time_elapsed": 1320867, "serialpos": 1, "key_press": -1, "wordID": 424, "type": "PRES_VIS", "trial_index": 158}, "uniqueid": "MTK2360:3K9FOBBF2IQKYW25ZXNL5R86IIGNL6", "dateTime": 1516996634385}, {"current_trial": 159, "trialdata": {"rt": -1, "trial_type": "single-stim", "word": "handbag", "stimulus": "<p id=\"stim\">HANDBAG</p>", "conditions": [24, 1600, "v", 24000], "internal_node_id": "0.0-114.0", "trial": 4, "time_elapsed": 1323326, "serialpos": 2, "key_press": -1, "wordID": 683, "type": "PRES_VIS", "trial_index": 159}, "uniqueid": "MTK2360:3K9FOBBF2IQKYW25ZXNL5R86IIGNL6", "dateTime": 1516996636845}, {"current_trial": 160, "trialdata": {"rt": -1, "trial_type": "single-stim", "word": "radish", "stimulus": "<p id=\"stim\">RADISH</p>", "conditions": [24, 1600, "v", 24000], "internal_node_id": "0.0-115.0", "trial": 4, "time_elapsed": 1325878, "serialpos": 3, "key_press": -1, "wordID": 1157, "type": "PRES_VIS", "trial_index": 160}, "uniqueid": "MTK2360:3K9FOBBF2IQKYW25ZXNL5R86IIGNL6", "dateTime": 1516996639396}, {"current_trial": 161, "trialdata": {"rt": -1, "trial_type": "single-stim", "word": "sandwich", "stimulus": "<p id=\"stim\">SANDWICH</p>", "conditions": [24, 1600, "v", 24000], "internal_node_id": "0.0-116.0", "trial": 4, "time_elapsed": 1328675, "serialpos": 4, "key_press": -1, "wordID": 1231, "type": "PRES_VIS", "trial_index": 161}, "uniqueid": "MTK2360:3K9FOBBF2IQKYW25ZXNL5R86IIGNL6", "dateTime": 1516996642193}, {"current_trial": 162, "trialdata": {"rt": -1, "trial_type": "single-stim", "word": "denim", "stimulus": "<p id=\"stim\">DENIM</p>", "conditions": [24, 1600, "v", 24000], "internal_node_id": "0.0-117.0", "trial": 4, "time_elapsed": 1331198, "serialpos": 5, "key_press": -1, "wordID": 445, "type": "PRES_VIS", "trial_index": 162}, "uniqueid": "MTK2360:3K9FOBBF2IQKYW25ZXNL5R86IIGNL6", "dateTime": 1516996644716}, {"current_trial": 163, "trialdata": {"rt": -1, "trial_type": "single-stim", "word": "baby", "stimulus": "<p id=\"stim\">BABY</p>", "conditions": [24, 1600, "v", 24000], "internal_node_id": "0.0-118.0", "trial": 4, "time_elapsed": 1333631, "serialpos": 6, "key_press": -1, "wordID": 63, "type": "PRES_VIS", "trial_index": 163}, "uniqueid": "MTK2360:3K9FOBBF2IQKYW25ZXNL5R86IIGNL6", "dateTime": 1516996647149}, {"current_trial": 164, "trialdata": {"rt": -1, "trial_type": "single-stim", "word": "dustpan", "stimulus": "<p id=\"stim\">DUSTPAN</p>", "conditions": [24, 1600, "v", 24000], "internal_node_id": "0.0-119.0", "trial": 4, "time_elapsed": 1336362, "serialpos": 7, "key_press": -1, "wordID": 508, "type": "PRES_VIS", "trial_index": 164}, "uniqueid": "MTK2360:3K9FOBBF2IQKYW25ZXNL5R86IIGNL6", "dateTime": 1516996649880}, {"current_trial": 165, "trialdata": {"rt": -1, "trial_type": "single-stim", "word": "basement", "stimulus": "<p id=\"stim\">BASEMENT</p>", "conditions": [24, 1600, "v", 24000], "internal_node_id": "0.0-120.0", "trial": 4, "time_elapsed": 1339119, "serialpos": 8, "key_press": -1, "wordID": 93, "type": "PRES_VIS", "trial_index": 165}, "uniqueid": "MTK2360:3K9FOBBF2IQKYW25ZXNL5R86IIGNL6", "dateTime": 1516996652637}, {"current_trial": 166, "trialdata": {"rt": -1, "trial_type": "single-stim", "word": "mattress", "stimulus": "<p id=\"stim\">MATTRESS</p>", "conditions": [24, 1600, "v", 24000], "internal_node_id": "0.0-121.0", "trial": 4, "time_elapsed": 1341850, "serialpos": 9, "key_press": -1, "wordID": 878, "type": "PRES_VIS", "trial_index": 166}, "uniqueid": "MTK2360:3K9FOBBF2IQKYW25ZXNL5R86IIGNL6", "dateTime": 1516996655369}, {"current_trial": 167, "trialdata": {"rt": -1, "trial_type": "single-stim", "word": "temple", "stimulus": "<p id=\"stim\">TEMPLE</p>", "conditions": [24, 1600, "v", 24000], "internal_node_id": "0.0-122.0", "trial": 4, "time_elapsed": 1344451, "serialpos": 10, "key_press": -1, "wordID": 1447, "type": "PRES_VIS", "trial_index": 167}, "uniqueid": "MTK2360:3K9FOBBF2IQKYW25ZXNL5R86IIGNL6", "dateTime": 1516996657969}, {"current_trial": 168, "trialdata": {"rt": -1, "trial_type": "single-stim", "word": "cellar", "stimulus": "<p id=\"stim\">CELLAR</p>", "conditions": [24, 1600, "v", 24000], "internal_node_id": "0.0-123.0", "trial": 4, "time_elapsed": 1346958, "serialpos": 11, "key_press": -1, "wordID": 266, "type": "PRES_VIS", "trial_index": 168}, "uniqueid": "MTK2360:3K9FOBBF2IQKYW25ZXNL5R86IIGNL6", "dateTime": 1516996660476}, {"current_trial": 169, "trialdata": {"rt": -1, "trial_type": "single-stim", "word": "canal", "stimulus": "<p id=\"stim\">CANAL</p>", "conditions": [24, 1600, "v", 24000], "internal_node_id": "0.0-124.0", "trial": 4, "time_elapsed": 1349655, "serialpos": 12, "key_press": -1, "wordID": 225, "type": "PRES_VIS", "trial_index": 169}, "uniqueid": "MTK2360:3K9FOBBF2IQKYW25ZXNL5R86IIGNL6", "dateTime": 1516996663173}, {"current_trial": 170, "trialdata": {"rt": -1, "trial_type": "single-stim", "word": "lake", "stimulus": "<p id=\"stim\">LAKE</p>", "conditions": [24, 1600, "v", 24000], "internal_node_id": "0.0-125.0", "trial": 4, "time_elapsed": 1352171, "serialpos": 13, "key_press": -1, "wordID": 795, "type": "PRES_VIS", "trial_index": 170}, "uniqueid": "MTK2360:3K9FOBBF2IQKYW25ZXNL5R86IIGNL6", "dateTime": 1516996665689}, {"current_trial": 171, "trialdata": {"rt": -1, "trial_type": "single-stim", "word": "knife", "stimulus": "<p id=\"stim\">KNIFE</p>", "conditions": [24, 1600, "v", 24000], "internal_node_id": "0.0-126.0", "trial": 4, "time_elapsed": 1354667, "serialpos": 14, "key_press": -1, "wordID": 784, "type": "PRES_VIS", "trial_index": 171}, "uniqueid": "MTK2360:3K9FOBBF2IQKYW25ZXNL5R86IIGNL6", "dateTime": 1516996668185}, {"current_trial": 172, "trialdata": {"rt": -1, "trial_type": "single-stim", "word": "dandruff", "stimulus": "<p id=\"stim\">DANDRUFF</p>", "conditions": [24, 1600, "v", 24000], "internal_node_id": "0.0-127.0", "trial": 4, "time_elapsed": 1357142, "serialpos": 15, "key_press": -1, "wordID": 438, "type": "PRES_VIS", "trial_index": 172}, "uniqueid": "MTK2360:3K9FOBBF2IQKYW25ZXNL5R86IIGNL6", "dateTime": 1516996670661}, {"current_trial": 173, "trialdata": {"rt": -1, "trial_type": "single-stim", "word": "freezer", "stimulus": "<p id=\"stim\">FREEZER</p>", "conditions": [24, 1600, "v", 24000], "internal_node_id": "0.0-128.0", "trial": 4, "time_elapsed": 1359646, "serialpos": 16, "key_press": -1, "wordID": 603, "type": "PRES_VIS", "trial_index": 173}, "uniqueid": "MTK2360:3K9FOBBF2IQKYW25ZXNL5R86IIGNL6", "dateTime": 1516996673165}, {"current_trial": 174, "trialdata": {"rt": -1, "trial_type": "single-stim", "word": "zipper", "stimulus": "<p id=\"stim\">ZIPPER</p>", "conditions": [24, 1600, "v", 24000], "internal_node_id": "0.0-129.0", "trial": 4, "time_elapsed": 1362458, "serialpos": 17, "key_press": -1, "wordID": 1635, "type": "PRES_VIS", "trial_index": 174}, "uniqueid": "MTK2360:3K9FOBBF2IQKYW25ZXNL5R86IIGNL6", "dateTime": 1516996675976}, {"current_trial": 175, "trialdata": {"rt": -1, "trial_type": "single-stim", "word": "island", "stimulus": "<p id=\"stim\">ISLAND</p>", "conditions": [24, 1600, "v", 24000], "internal_node_id": "0.0-130.0", "trial": 4, "time_elapsed": 1364892, "serialpos": 18, "key_press": -1, "wordID": 744, "type": "PRES_VIS", "trial_index": 175}, "uniqueid": "MTK2360:3K9FOBBF2IQKYW25ZXNL5R86IIGNL6", "dateTime": 1516996678411}, {"current_trial": 176, "trialdata": {"rt": -1, "trial_type": "single-stim", "word": "sausage", "stimulus": "<p id=\"stim\">SAUSAGE</p>", "conditions": [24, 1600, "v", 24000], "internal_node_id": "0.0-131.0", "trial": 4, "time_elapsed": 1367326, "serialpos": 19, "key_press": -1, "wordID": 1237, "type": "PRES_VIS", "trial_index": 176}, "uniqueid": "MTK2360:3K9FOBBF2IQKYW25ZXNL5R86IIGNL6", "dateTime": 1516996680844}, {"current_trial": 177, "trialdata": {"rt": -1, "trial_type": "single-stim", "word": "leopard", "stimulus": "<p id=\"stim\">LEOPARD</p>", "conditions": [24, 1600, "v", 24000], "internal_node_id": "0.0-132.0", "trial": 4, "time_elapsed": 1369808, "serialpos": 20, "key_press": -1, "wordID": 811, "type": "PRES_VIS", "trial_index": 177}, "uniqueid": "MTK2360:3K9FOBBF2IQKYW25ZXNL5R86IIGNL6", "dateTime": 1516996683326}, {"current_trial": 178, "trialdata": {"rt": -1, "trial_type": "single-stim", "word": "seal", "stimulus": "<p id=\"stim\">SEAL</p>", "conditions": [24, 1600, "v", 24000], "internal_node_id": "0.0-133.0", "trial": 4, "time_elapsed": 1372251, "serialpos": 21, "key_press": -1, "wordID": 1261, "type": "PRES_VIS", "trial_index": 178}, "uniqueid": "MTK2360:3K9FOBBF2IQKYW25ZXNL5R86IIGNL6", "dateTime": 1516996685769}, {"current_trial": 179, "trialdata": {"rt": -1, "trial_type": "single-stim", "word": "sword", "stimulus": "<p id=\"stim\">SWORD</p>", "conditions": [24, 1600, "v", 24000], "internal_node_id": "0.0-134.0", "trial": 4, "time_elapsed": 1374680, "serialpos": 22, "key_press": -1, "wordID": 1422, "type": "PRES_VIS", "trial_index": 179}, "uniqueid": "MTK2360:3K9FOBBF2IQKYW25ZXNL5R86IIGNL6", "dateTime": 1516996688198}, {"current_trial": 180, "trialdata": {"rt": -1, "trial_type": "single-stim", "word": "virus", "stimulus": "<p id=\"stim\">VIRUS</p>", "conditions": [24, 1600, "v", 24000], "internal_node_id": "0.0-135.0", "trial": 4, "time_elapsed": 1377152, "serialpos": 23, "key_press": -1, "wordID": 1571, "type": "PRES_VIS", "trial_index": 180}, "uniqueid": "MTK2360:3K9FOBBF2IQKYW25ZXNL5R86IIGNL6", "dateTime": 1516996690671}, {"current_trial": 181, "trialdata": {"rt": -1, "trial_type": "single-stim", "stimulus": "", "internal_node_id": "0.0-136.0-0.0", "time_elapsed": 1379486, "key_press": -1, "type": "PRE_RECALL_DELAY", "trial_index": 181}, "uniqueid": "MTK2360:3K9FOBBF2IQKYW25ZXNL5R86IIGNL6", "dateTime": 1516996693004}, {"current_trial": 182, "trialdata": {"rt": -1000, "trial_type": "single-audio", "stimulus": "/static/audio/400Hz.wav", "internal_node_id": "0.0-137.0", "time_elapsed": 1379989, "key_press": -1, "type": "PRE_RECALL_ALERT", "trial_index": 182}, "uniqueid": "MTK2360:3K9FOBBF2IQKYW25ZXNL5R86IIGNL6", "dateTime": 1516996693507}, {"current_trial": 183, "trialdata": {"rt": [3213, 11743, 15684, 21205, 27486, 33685, 38774, 42941, 52421, 56038], "recwords": ["sword", "baby", "denim", "dustpan", "sandwich", "cupboard", "kitchen", "dust", "dustpan", ""], "key_times": [1303, 1509, 1989, 2431, 2687, 3213, 9525, 10023, 10662, 11110, 11743, 13301, 13510, 14166, 14653, 14909, 15684, 17399, 18029, 18438, 18967, 19632, 20149, 20765, 21205, 22797, 23021, 23733, 24182, 24453, 26102, 26501, 26997, 27486, 29999, 30670, 30990, 31343, 31853, 32294, 32910, 33189, 33685, 35671, 35926, 36533, 36852, 37356, 37736, 38294, 38774, 40959, 41517, 41896, 42398, 42941, 44319, 45064, 45878, 46936, 47208, 47399, 48215, 48856, 49239, 49767, 50581, 51089, 51800, 52421, 56038], "trial_type": "free-recall", "conditions": [24, 1600, "v", 24000], "internal_node_id": "0.0-138.0-0.0", "key_presses": [83, 87, 79, 82, 68, 13, 66, 65, 66, 89, 13, 68, 69, 78, 73, 77, 13, 68, 85, 83, 84, 80, 65, 78, 13, 83, 65, 78, 68, 87, 73, 67, 72, 13, 67, 85, 80, 66, 79, 65, 82, 68, 13, 75, 73, 84, 67, 72, 69, 78, 13, 68, 85, 83, 84, 32, 80, 65, 78, 8, 8, 8, 68, 85, 83, 84, 80, 65, 78, 13, 13], "trial": 4, "time_elapsed": 1440000, "type": "FREE_RECALL", "trial_index": 183}, "uniqueid": "MTK2360:3K9FOBBF2IQKYW25ZXNL5R86IIGNL6", "dateTime": 1516996753523}, {"current_trial": 184, "trialdata": {"rt": 97860, "trial_type": "text", "internal_node_id": "0.0-139.0", "time_elapsed": 1539870, "key_press": 88, "type": "INSTRUCTIONS", "trial_index": 184}, "uniqueid": "MTK2360:3K9FOBBF2IQKYW25ZXNL5R86IIGNL6", "dateTime": 1516996853388}, {"current_trial": 185, "trialdata": {"rt": [2527, 4526, 6078, 8326, 13686, 15294, 17854, 20430, 22487], "trial_type": "math-distractor", "key_times": [2351, 2527, 4272, 4526, 5888, 6078, 7849, 8167, 8326, 13464, 13495, 13686, 14959, 15095, 15294, 17489, 17744, 17854, 19970, 20272, 20430, 22168, 22248, 22487], "responses": ["8", "9", "5", "17", "13", "13", "10", "24", "13"], "num2": [3, 1, 1, 3, 5, 5, 3, 9, 5, 3], "num3": [2, 5, 1, 4, 3, 4, 2, 7, 4, 8], "conditions": [12, 800, "v", 24000], "internal_node_id": "0.0-140.0", "key_presses": [104, 13, 105, 13, 101, 13, 97, 103, 13, 97, 99, 13, 97, 99, 13, 97, 96, 13, 98, 100, 13, 97, 99, 13], "trial": 5, "time_elapsed": 1565892, "type": "DISTRACTOR", "trial_index": 185, "num1": [3, 3, 3, 9, 5, 4, 5, 8, 4, 9]}, "uniqueid": "MTK2360:3K9FOBBF2IQKYW25ZXNL5R86IIGNL6", "dateTime": 1516996879411}, {"current_trial": 186, "trialdata": {"rt": -1, "trial_type": "single-stim", "stimulus": "<p id=\"stim\">10</p>", "internal_node_id": "0.0-141.0-0.0", "time_elapsed": 1568903, "key_press": -1, "trial_index": 186}, "uniqueid": "MTK2360:3K9FOBBF2IQKYW25ZXNL5R86IIGNL6", "dateTime": 1516996882421}, {"current_trial": 187, "trialdata": {"rt": -1, "trial_type": "single-stim", "stimulus": "<p id=\"stim\">9</p>", "internal_node_id": "0.0-141.0-1.0", "time_elapsed": 1569908, "key_press": -1, "trial_index": 187}, "uniqueid": "MTK2360:3K9FOBBF2IQKYW25ZXNL5R86IIGNL6", "dateTime": 1516996883427}, {"current_trial": 188, "trialdata": {"rt": -1, "trial_type": "single-stim", "stimulus": "<p id=\"stim\">8</p>", "internal_node_id": "0.0-141.0-2.0", "time_elapsed": 1570909, "key_press": -1, "trial_index": 188}, "uniqueid": "MTK2360:3K9FOBBF2IQKYW25ZXNL5R86IIGNL6", "dateTime": 1516996884427}, {"current_trial": 189, "trialdata": {"rt": -1, "trial_type": "single-stim", "stimulus": "<p id=\"stim\">7</p>", "internal_node_id": "0.0-141.0-3.0", "time_elapsed": 1571908, "key_press": -1, "trial_index": 189}, "uniqueid": "MTK2360:3K9FOBBF2IQKYW25ZXNL5R86IIGNL6", "dateTime": 1516996885426}, {"current_trial": 190, "trialdata": {"rt": -1, "trial_type": "single-stim", "stimulus": "<p id=\"stim\">6</p>", "internal_node_id": "0.0-141.0-4.0", "time_elapsed": 1572907, "key_press": -1, "trial_index": 190}, "uniqueid": "MTK2360:3K9FOBBF2IQKYW25ZXNL5R86IIGNL6", "dateTime": 1516996886426}, {"current_trial": 191, "trialdata": {"rt": -1, "trial_type": "single-stim", "stimulus": "<p id=\"stim\">5</p>", "internal_node_id": "0.0-141.0-5.0", "time_elapsed": 1573907, "key_press": -1, "trial_index": 191}, "uniqueid": "MTK2360:3K9FOBBF2IQKYW25ZXNL5R86IIGNL6", "dateTime": 1516996887425}, {"current_trial": 192, "trialdata": {"rt": -1, "trial_type": "single-stim", "stimulus": "<p id=\"stim\">4</p>", "internal_node_id": "0.0-141.0-6.0", "time_elapsed": 1574912, "key_press": -1, "trial_index": 192}, "uniqueid": "MTK2360:3K9FOBBF2IQKYW25ZXNL5R86IIGNL6", "dateTime": 1516996888430}, {"current_trial": 193, "trialdata": {"rt": -1, "trial_type": "single-stim", "stimulus": "<p id=\"stim\">3</p>", "internal_node_id": "0.0-141.0-7.0", "time_elapsed": 1575902, "key_press": -1, "trial_index": 193}, "uniqueid": "MTK2360:3K9FOBBF2IQKYW25ZXNL5R86IIGNL6", "dateTime": 1516996889421}, {"current_trial": 194, "trialdata": {"rt": -1, "trial_type": "single-stim", "stimulus": "<p id=\"stim\">2</p>", "internal_node_id": "0.0-141.0-8.0", "time_elapsed": 1576902, "key_press": -1, "trial_index": 194}, "uniqueid": "MTK2360:3K9FOBBF2IQKYW25ZXNL5R86IIGNL6", "dateTime": 1516996890420}, {"current_trial": 195, "trialdata": {"rt": -1, "trial_type": "single-stim", "stimulus": "<p id=\"stim\">1</p>", "internal_node_id": "0.0-141.0-9.0", "time_elapsed": 1577912, "key_press": -1, "trial_index": 195}, "uniqueid": "MTK2360:3K9FOBBF2IQKYW25ZXNL5R86IIGNL6", "dateTime": 1516996891430}, {"current_trial": 196, "trialdata": {"rt": -1, "trial_type": "single-stim", "stimulus": "<p id=\"stim\">+</p>", "internal_node_id": "0.0-142.0-0.0", "time_elapsed": 1579428, "key_press": -1, "type": "FIXATION", "trial_index": 196}, "uniqueid": "MTK2360:3K9FOBBF2IQKYW25ZXNL5R86IIGNL6", "dateTime": 1516996892946}, {"current_trial": 197, "trialdata": {"rt": -1, "trial_type": "single-stim", "word": "dancer", "stimulus": "<p id=\"stim\">DANCER</p>", "conditions": [12, 800, "v", 24000], "internal_node_id": "0.0-143.0", "trial": 5, "time_elapsed": 1580244, "serialpos": 0, "key_press": -1, "wordID": 436, "type": "PRES_VIS", "trial_index": 197}, "uniqueid": "MTK2360:3K9FOBBF2IQKYW25ZXNL5R86IIGNL6", "dateTime": 1516996893763}, {"current_trial": 198, "trialdata": {"rt": -1, "trial_type": "single-stim", "word": "taxi", "stimulus": "<p id=\"stim\">TAXI</p>", "conditions": [12, 800, "v", 24000], "internal_node_id": "0.0-144.0", "trial": 5, "time_elapsed": 1582003, "serialpos": 1, "key_press": -1, "wordID": 1437, "type": "PRES_VIS", "trial_index": 198}, "uniqueid": "MTK2360:3K9FOBBF2IQKYW25ZXNL5R86IIGNL6", "dateTime": 1516996895521}, {"current_trial": 199, "trialdata": {"rt": -1, "trial_type": "single-stim", "word": "bank", "stimulus": "<p id=\"stim\">BANK</p>", "conditions": [12, 800, "v", 24000], "internal_node_id": "0.0-145.0", "trial": 5, "time_elapsed": 1583911, "serialpos": 2, "key_press": -1, "wordID": 82, "type": "PRES_VIS", "trial_index": 199}, "uniqueid": "MTK2360:3K9FOBBF2IQKYW25ZXNL5R86IIGNL6", "dateTime": 1516996897429}, {"current_trial": 200, "trialdata": {"rt": -1, "trial_type": "single-stim", "word": "banker", "stimulus": "<p id=\"stim\">BANKER</p>", "conditions": [12, 800, "v", 24000], "internal_node_id": "0.0-146.0", "trial": 5, "time_elapsed": 1585578, "serialpos": 3, "key_press": -1, "wordID": 83, "type": "PRES_VIS", "trial_index": 200}, "uniqueid": "MTK2360:3K9FOBBF2IQKYW25ZXNL5R86IIGNL6", "dateTime": 1516996899096}, {"current_trial": 201, "trialdata": {"rt": -1, "trial_type": "single-stim", "word": "canyon", "stimulus": "<p id=\"stim\">CANYON</p>", "conditions": [12, 800, "v", 24000], "internal_node_id": "0.0-147.0", "trial": 5, "time_elapsed": 1587213, "serialpos": 4, "key_press": -1, "wordID": 234, "type": "PRES_VIS", "trial_index": 201}, "uniqueid": "MTK2360:3K9FOBBF2IQKYW25ZXNL5R86IIGNL6", "dateTime": 1516996900731}, {"current_trial": 202, "trialdata": {"rt": -1, "trial_type": "single-stim", "word": "leader", "stimulus": "<p id=\"stim\">LEADER</p>", "conditions": [12, 800, "v", 24000], "internal_node_id": "0.0-148.0", "trial": 5, "time_elapsed": 1588919, "serialpos": 5, "key_press": -1, "wordID": 806, "type": "PRES_VIS", "trial_index": 202}, "uniqueid": "MTK2360:3K9FOBBF2IQKYW25ZXNL5R86IIGNL6", "dateTime": 1516996902437}, {"current_trial": 203, "trialdata": {"rt": -1, "trial_type": "single-stim", "word": "servant", "stimulus": "<p id=\"stim\">SERVANT</p>", "conditions": [12, 800, "v", 24000], "internal_node_id": "0.0-149.0", "trial": 5, "time_elapsed": 1590914, "serialpos": 6, "key_press": -1, "wordID": 1270, "type": "PRES_VIS", "trial_index": 203}, "uniqueid": "MTK2360:3K9FOBBF2IQKYW25ZXNL5R86IIGNL6", "dateTime": 1516996904432}, {"current_trial": 204, "trialdata": {"rt": -1, "trial_type": "single-stim", "word": "bunny", "stimulus": "<p id=\"stim\">BUNNY</p>", "conditions": [12, 800, "v", 24000], "internal_node_id": "0.0-150.0", "trial": 5, "time_elapsed": 1592930, "serialpos": 7, "key_press": -1, "wordID": 197, "type": "PRES_VIS", "trial_index": 204}, "uniqueid": "MTK2360:3K9FOBBF2IQKYW25ZXNL5R86IIGNL6", "dateTime": 1516996906448}, {"current_trial": 205, "trialdata": {"rt": -1, "trial_type": "single-stim", "word": "fireplace", "stimulus": "<p id=\"stim\">FIREPLACE</p>", "conditions": [12, 800, "v", 24000], "internal_node_id": "0.0-151.0", "trial": 5, "time_elapsed": 1594565, "serialpos": 8, "key_press": -1, "wordID": 569, "type": "PRES_VIS", "trial_index": 205}, "uniqueid": "MTK2360:3K9FOBBF2IQKYW25ZXNL5R86IIGNL6", "dateTime": 1516996908084}, {"current_trial": 206, "trialdata": {"rt": -1, "trial_type": "single-stim", "word": "gymnast", "stimulus": "<p id=\"stim\">GYMNAST</p>", "conditions": [12, 800, "v", 24000], "internal_node_id": "0.0-152.0", "trial": 5, "time_elapsed": 1596430, "serialpos": 9, "key_press": -1, "wordID": 674, "type": "PRES_VIS", "trial_index": 206}, "uniqueid": "MTK2360:3K9FOBBF2IQKYW25ZXNL5R86IIGNL6", "dateTime": 1516996909948}, {"current_trial": 207, "trialdata": {"rt": -1, "trial_type": "single-stim", "word": "rod", "stimulus": "<p id=\"stim\">ROD</p>", "conditions": [12, 800, "v", 24000], "internal_node_id": "0.0-153.0", "trial": 5, "time_elapsed": 1598266, "serialpos": 10, "key_press": -1, "wordID": 1202, "type": "PRES_VIS", "trial_index": 207}, "uniqueid": "MTK2360:3K9FOBBF2IQKYW25ZXNL5R86IIGNL6", "dateTime": 1516996911785}, {"current_trial": 208, "trialdata": {"rt": -1, "trial_type": "single-stim", "word": "motor", "stimulus": "<p id=\"stim\">MOTOR</p>", "conditions": [12, 800, "v", 24000], "internal_node_id": "0.0-154.0", "trial": 5, "time_elapsed": 1600150, "serialpos": 11, "key_press": -1, "wordID": 921, "type": "PRES_VIS", "trial_index": 208}, "uniqueid": "MTK2360:3K9FOBBF2IQKYW25ZXNL5R86IIGNL6", "dateTime": 1516996913669}, {"current_trial": 209, "trialdata": {"rt": -1, "trial_type": "single-stim", "stimulus": "", "internal_node_id": "0.0-155.0-0.0", "time_elapsed": 1602444, "key_press": -1, "type": "PRE_RECALL_DELAY", "trial_index": 209}, "uniqueid": "MTK2360:3K9FOBBF2IQKYW25ZXNL5R86IIGNL6", "dateTime": 1516996915963}, {"current_trial": 210, "trialdata": {"rt": -1000, "trial_type": "single-audio", "stimulus": "/static/audio/400Hz.wav", "internal_node_id": "0.0-156.0", "time_elapsed": 1602951, "key_press": -1, "type": "PRE_RECALL_ALERT", "trial_index": 210}, "uniqueid": "MTK2360:3K9FOBBF2IQKYW25ZXNL5R86IIGNL6", "dateTime": 1516996916469}, {"current_trial": 211, "trialdata": {"rt": [1771, 5074, 7658, 8819, 11186, 12908, 16002, 17898, 19386, 22322, 24266, 25355], "recwords": ["rod", "motor", "banker", "bank", "dancer", "leader", "sandwich", "dog", "denim", "baby", "dustpan", ""], "key_times": [1264, 1435, 1610, 1771, 2149, 2323, 2469, 2874, 3100, 3294, 3835, 3898, 4138, 4483, 4580, 5074, 6654, 6811, 6940, 7067, 7163, 7276, 7658, 8060, 8268, 8394, 8444, 8819, 10068, 10300, 10434, 10595, 10901, 11011, 11186, 11988, 12116, 12291, 12435, 12644, 12723, 12908, 14533, 14755, 14948, 15092, 15347, 15499, 15666, 15780, 16002, 17134, 17244, 17739, 17898, 18284, 18525, 18602, 18812, 19100, 19386, 20940, 21147, 21858, 22050, 22322, 22938, 23225, 23338, 23564, 23707, 23851, 23994, 24266, 25355], "trial_type": "free-recall", "conditions": [12, 800, "v", 24000], "internal_node_id": "0.0-157.0-0.0", "key_presses": [82, 79, 68, 32, 79, 84, 79, 8, 8, 8, 77, 79, 84, 79, 82, 13, 66, 65, 78, 75, 69, 82, 13, 66, 65, 78, 75, 13, 68, 65, 78, 67, 69, 82, 13, 76, 69, 65, 68, 69, 82, 13, 83, 65, 78, 68, 87, 73, 67, 72, 13, 68, 79, 71, 13, 68, 69, 78, 73, 77, 13, 66, 65, 66, 89, 13, 68, 85, 83, 84, 80, 65, 78, 13, 13], "trial": 5, "time_elapsed": 1662959, "type": "FREE_RECALL", "trial_index": 211}, "uniqueid": "MTK2360:3K9FOBBF2IQKYW25ZXNL5R86IIGNL6", "dateTime": 1516996976480}, {"current_trial": 212, "trialdata": {"rt": 7872, "trial_type": "text", "internal_node_id": "0.0-158.0", "time_elapsed": 1672849, "key_press": 32, "type": "INSTRUCTIONS", "trial_index": 212}, "uniqueid": "MTK2360:3K9FOBBF2IQKYW25ZXNL5R86IIGNL6", "dateTime": 1516996986367}, {"current_trial": 213, "trialdata": {"rt": [2155, 3635, 4970, 6931, 9202], "trial_type": "math-distractor", "key_times": [1811, 2036, 2155, 3364, 3555, 3635, 4621, 4722, 4970, 6724, 6931, 8508, 8964, 9202, 11691, 11802], "responses": ["14", "11", "13", "6", "19"], "num2": [7, 6, 5, 1, 9, 9], "num3": [5, 1, 5, 3, 9, 6], "conditions": [24, 800, "v", 12000], "internal_node_id": "0.0-159.0", "key_presses": [97, 100, 13, 97, 97, 13, 97, 99, 13, 102, 13, 97, 105, 13, 98, 99], "trial": 6, "time_elapsed": 1686878, "type": "DISTRACTOR", "trial_index": 213, "num1": [2, 4, 3, 2, 1, 8]}, "uniqueid": "MTK2360:3K9FOBBF2IQKYW25ZXNL5R86IIGNL6", "dateTime": 1516997000396}, {"current_trial": 214, "trialdata": {"rt": -1, "trial_type": "single-stim", "stimulus": "<p id=\"stim\">10</p>", "internal_node_id": "0.0-160.0-0.0", "time_elapsed": 1689900, "key_press": -1, "trial_index": 214}, "uniqueid": "MTK2360:3K9FOBBF2IQKYW25ZXNL5R86IIGNL6", "dateTime": 1516997003418}, {"current_trial": 215, "trialdata": {"rt": -1, "trial_type": "single-stim", "stimulus": "<p id=\"stim\">9</p>", "internal_node_id": "0.0-160.0-1.0", "time_elapsed": 1690885, "key_press": -1, "trial_index": 215}, "uniqueid": "MTK2360:3K9FOBBF2IQKYW25ZXNL5R86IIGNL6", "dateTime": 1516997004404}, {"current_trial": 216, "trialdata": {"rt": -1, "trial_type": "single-stim", "stimulus": "<p id=\"stim\">8</p>", "internal_node_id": "0.0-160.0-2.0", "time_elapsed": 1691886, "key_press": -1, "trial_index": 216}, "uniqueid": "MTK2360:3K9FOBBF2IQKYW25ZXNL5R86IIGNL6", "dateTime": 1516997005405}, {"current_trial": 217, "trialdata": {"rt": -1, "trial_type": "single-stim", "stimulus": "<p id=\"stim\">7</p>", "internal_node_id": "0.0-160.0-3.0", "time_elapsed": 1692892, "key_press": -1, "trial_index": 217}, "uniqueid": "MTK2360:3K9FOBBF2IQKYW25ZXNL5R86IIGNL6", "dateTime": 1516997006411}, {"current_trial": 218, "trialdata": {"rt": -1, "trial_type": "single-stim", "stimulus": "<p id=\"stim\">6</p>", "internal_node_id": "0.0-160.0-4.0", "time_elapsed": 1693896, "key_press": -1, "trial_index": 218}, "uniqueid": "MTK2360:3K9FOBBF2IQKYW25ZXNL5R86IIGNL6", "dateTime": 1516997007414}, {"current_trial": 219, "trialdata": {"rt": -1, "trial_type": "single-stim", "stimulus": "<p id=\"stim\">5</p>", "internal_node_id": "0.0-160.0-5.0", "time_elapsed": 1694889, "key_press": -1, "trial_index": 219}, "uniqueid": "MTK2360:3K9FOBBF2IQKYW25ZXNL5R86IIGNL6", "dateTime": 1516997008408}, {"current_trial": 220, "trialdata": {"rt": -1, "trial_type": "single-stim", "stimulus": "<p id=\"stim\">4</p>", "internal_node_id": "0.0-160.0-6.0", "time_elapsed": 1695888, "key_press": -1, "trial_index": 220}, "uniqueid": "MTK2360:3K9FOBBF2IQKYW25ZXNL5R86IIGNL6", "dateTime": 1516997009406}, {"current_trial": 221, "trialdata": {"rt": -1, "trial_type": "single-stim", "stimulus": "<p id=\"stim\">3</p>", "internal_node_id": "0.0-160.0-7.0", "time_elapsed": 1696889, "key_press": -1, "trial_index": 221}, "uniqueid": "MTK2360:3K9FOBBF2IQKYW25ZXNL5R86IIGNL6", "dateTime": 1516997010407}, {"current_trial": 222, "trialdata": {"rt": -1, "trial_type": "single-stim", "stimulus": "<p id=\"stim\">2</p>", "internal_node_id": "0.0-160.0-8.0", "time_elapsed": 1697903, "key_press": -1, "trial_index": 222}, "uniqueid": "MTK2360:3K9FOBBF2IQKYW25ZXNL5R86IIGNL6", "dateTime": 1516997011421}, {"current_trial": 223, "trialdata": {"rt": -1, "trial_type": "single-stim", "stimulus": "<p id=\"stim\">1</p>", "internal_node_id": "0.0-160.0-9.0", "time_elapsed": 1698904, "key_press": -1, "trial_index": 223}, "uniqueid": "MTK2360:3K9FOBBF2IQKYW25ZXNL5R86IIGNL6", "dateTime": 1516997012422}, {"current_trial": 224, "trialdata": {"rt": -1, "trial_type": "single-stim", "stimulus": "<p id=\"stim\">+</p>", "internal_node_id": "0.0-161.0-0.0", "time_elapsed": 1700410, "key_press": -1, "type": "FIXATION", "trial_index": 224}, "uniqueid": "MTK2360:3K9FOBBF2IQKYW25ZXNL5R86IIGNL6", "dateTime": 1516997013929}, {"current_trial": 225, "trialdata": {"rt": -1, "trial_type": "single-stim", "word": "jury", "stimulus": "<p id=\"stim\">JURY</p>", "conditions": [24, 800, "v", 12000], "internal_node_id": "0.0-162.0", "trial": 6, "time_elapsed": 1701220, "serialpos": 0, "key_press": -1, "wordID": 765, "type": "PRES_VIS", "trial_index": 225}, "uniqueid": "MTK2360:3K9FOBBF2IQKYW25ZXNL5R86IIGNL6", "dateTime": 1516997014739}, {"current_trial": 226, "trialdata": {"rt": -1, "trial_type": "single-stim", "word": "laser", "stimulus": "<p id=\"stim\">LASER</p>", "conditions": [24, 800, "v", 12000], "internal_node_id": "0.0-163.0", "trial": 6, "time_elapsed": 1703084, "serialpos": 1, "key_press": -1, "wordID": 800, "type": "PRES_VIS", "trial_index": 226}, "uniqueid": "MTK2360:3K9FOBBF2IQKYW25ZXNL5R86IIGNL6", "dateTime": 1516997016603}, {"current_trial": 227, "trialdata": {"rt": -1, "trial_type": "single-stim", "word": "patrol", "stimulus": "<p id=\"stim\">PATROL</p>", "conditions": [24, 800, "v", 12000], "internal_node_id": "0.0-164.0", "trial": 6, "time_elapsed": 1705103, "serialpos": 2, "key_press": -1, "wordID": 1026, "type": "PRES_VIS", "trial_index": 227}, "uniqueid": "MTK2360:3K9FOBBF2IQKYW25ZXNL5R86IIGNL6", "dateTime": 1516997018621}, {"current_trial": 228, "trialdata": {"rt": -1, "trial_type": "single-stim", "word": "waitress", "stimulus": "<p id=\"stim\">WAITRESS</p>", "conditions": [24, 800, "v", 12000], "internal_node_id": "0.0-165.0", "trial": 6, "time_elapsed": 1706915, "serialpos": 3, "key_press": -1, "wordID": 1580, "type": "PRES_VIS", "trial_index": 228}, "uniqueid": "MTK2360:3K9FOBBF2IQKYW25ZXNL5R86IIGNL6", "dateTime": 1516997020434}, {"current_trial": 229, "trialdata": {"rt": -1, "trial_type": "single-stim", "word": "cashier", "stimulus": "<p id=\"stim\">CASHIER</p>", "conditions": [24, 800, "v", 12000], "internal_node_id": "0.0-166.0", "trial": 6, "time_elapsed": 1708690, "serialpos": 4, "key_press": -1, "wordID": 253, "type": "PRES_VIS", "trial_index": 229}, "uniqueid": "MTK2360:3K9FOBBF2IQKYW25ZXNL5R86IIGNL6", "dateTime": 1516997022208}, {"current_trial": 230, "trialdata": {"rt": -1, "trial_type": "single-stim", "word": "loft", "stimulus": "<p id=\"stim\">LOFT</p>", "conditions": [24, 800, "v", 12000], "internal_node_id": "0.0-167.0", "trial": 6, "time_elapsed": 1710372, "serialpos": 5, "key_press": -1, "wordID": 839, "type": "PRES_VIS", "trial_index": 230}, "uniqueid": "MTK2360:3K9FOBBF2IQKYW25ZXNL5R86IIGNL6", "dateTime": 1516997023890}, {"current_trial": 231, "trialdata": {"rt": -1, "trial_type": "single-stim", "word": "wrench", "stimulus": "<p id=\"stim\">WRENCH</p>", "conditions": [24, 800, "v", 12000], "internal_node_id": "0.0-168.0", "trial": 6, "time_elapsed": 1712192, "serialpos": 6, "key_press": -1, "wordID": 1624, "type": "PRES_VIS", "trial_index": 231}, "uniqueid": "MTK2360:3K9FOBBF2IQKYW25ZXNL5R86IIGNL6", "dateTime": 1516997025710}, {"current_trial": 232, "trialdata": {"rt": -1, "trial_type": "single-stim", "word": "police", "stimulus": "<p id=\"stim\">POLICE</p>", "conditions": [24, 800, "v", 12000], "internal_node_id": "0.0-169.0", "trial": 6, "time_elapsed": 1714022, "serialpos": 7, "key_press": -1, "wordID": 1097, "type": "PRES_VIS", "trial_index": 232}, "uniqueid": "MTK2360:3K9FOBBF2IQKYW25ZXNL5R86IIGNL6", "dateTime": 1516997027541}, {"current_trial": 233, "trialdata": {"rt": -1, "trial_type": "single-stim", "word": "judge", "stimulus": "<p id=\"stim\">JUDGE</p>", "conditions": [24, 800, "v", 12000], "internal_node_id": "0.0-170.0", "trial": 6, "time_elapsed": 1715774, "serialpos": 8, "key_press": -1, "wordID": 760, "type": "PRES_VIS", "trial_index": 233}, "uniqueid": "MTK2360:3K9FOBBF2IQKYW25ZXNL5R86IIGNL6", "dateTime": 1516997029293}, {"current_trial": 234, "trialdata": {"rt": -1, "trial_type": "single-stim", "word": "flipper", "stimulus": "<p id=\"stim\">FLIPPER</p>", "conditions": [24, 800, "v", 12000], "internal_node_id": "0.0-171.0", "trial": 6, "time_elapsed": 1717739, "serialpos": 9, "key_press": -1, "wordID": 579, "type": "PRES_VIS", "trial_index": 234}, "uniqueid": "MTK2360:3K9FOBBF2IQKYW25ZXNL5R86IIGNL6", "dateTime": 1516997031258}, {"current_trial": 235, "trialdata": {"rt": -1, "trial_type": "single-stim", "word": "waiter", "stimulus": "<p id=\"stim\">WAITER</p>", "conditions": [24, 800, "v", 12000], "internal_node_id": "0.0-172.0", "trial": 6, "time_elapsed": 1719731, "serialpos": 10, "key_press": -1, "wordID": 1579, "type": "PRES_VIS", "trial_index": 235}, "uniqueid": "MTK2360:3K9FOBBF2IQKYW25ZXNL5R86IIGNL6", "dateTime": 1516997033249}, {"current_trial": 236, "trialdata": {"rt": -1, "trial_type": "single-stim", "word": "motel", "stimulus": "<p id=\"stim\">MOTEL</p>", "conditions": [24, 800, "v", 12000], "internal_node_id": "0.0-173.0", "trial": 6, "time_elapsed": 1721643, "serialpos": 11, "key_press": -1, "wordID": 918, "type": "PRES_VIS", "trial_index": 236}, "uniqueid": "MTK2360:3K9FOBBF2IQKYW25ZXNL5R86IIGNL6", "dateTime": 1516997035161}, {"current_trial": 237, "trialdata": {"rt": -1, "trial_type": "single-stim", "word": "hawk", "stimulus": "<p id=\"stim\">HAWK</p>", "conditions": [24, 800, "v", 12000], "internal_node_id": "0.0-174.0", "trial": 6, "time_elapsed": 1723279, "serialpos": 12, "key_press": -1, "wordID": 691, "type": "PRES_VIS", "trial_index": 237}, "uniqueid": "MTK2360:3K9FOBBF2IQKYW25ZXNL5R86IIGNL6", "dateTime": 1516997036797}, {"current_trial": 238, "trialdata": {"rt": -1, "trial_type": "single-stim", "word": "piston", "stimulus": "<p id=\"stim\">PISTON</p>", "conditions": [24, 800, "v", 12000], "internal_node_id": "0.0-175.0", "trial": 6, "time_elapsed": 1725036, "serialpos": 13, "key_press": -1, "wordID": 1075, "type": "PRES_VIS", "trial_index": 238}, "uniqueid": "MTK2360:3K9FOBBF2IQKYW25ZXNL5R86IIGNL6", "dateTime": 1516997038554}, {"current_trial": 239, "trialdata": {"rt": -1, "trial_type": "single-stim", "word": "smog", "stimulus": "<p id=\"stim\">SMOG</p>", "conditions": [24, 800, "v", 12000], "internal_node_id": "0.0-176.0", "trial": 6, "time_elapsed": 1726774, "serialpos": 14, "key_press": -1, "wordID": 1329, "type": "PRES_VIS", "trial_index": 239}, "uniqueid": "MTK2360:3K9FOBBF2IQKYW25ZXNL5R86IIGNL6", "dateTime": 1516997040293}, {"current_trial": 240, "trialdata": {"rt": -1, "trial_type": "single-stim", "word": "scotch", "stimulus": "<p id=\"stim\">SCOTCH</p>", "conditions": [24, 800, "v", 12000], "internal_node_id": "0.0-177.0", "trial": 6, "time_elapsed": 1728687, "serialpos": 15, "key_press": -1, "wordID": 1250, "type": "PRES_VIS", "trial_index": 240}, "uniqueid": "MTK2360:3K9FOBBF2IQKYW25ZXNL5R86IIGNL6", "dateTime": 1516997042206}, {"current_trial": 241, "trialdata": {"rt": -1, "trial_type": "single-stim", "word": "infant", "stimulus": "<p id=\"stim\">INFANT</p>", "conditions": [24, 800, "v", 12000], "internal_node_id": "0.0-178.0", "trial": 6, "time_elapsed": 1730511, "serialpos": 16, "key_press": -1, "wordID": 736, "type": "PRES_VIS", "trial_index": 241}, "uniqueid": "MTK2360:3K9FOBBF2IQKYW25ZXNL5R86IIGNL6", "dateTime": 1516997044029}, {"current_trial": 242, "trialdata": {"rt": -1, "trial_type": "single-stim", "word": "parent", "stimulus": "<p id=\"stim\">PARENT</p>", "conditions": [24, 800, "v", 12000], "internal_node_id": "0.0-179.0", "trial": 6, "time_elapsed": 1732531, "serialpos": 17, "key_press": -1, "wordID": 1012, "type": "PRES_VIS", "trial_index": 242}, "uniqueid": "MTK2360:3K9FOBBF2IQKYW25ZXNL5R86IIGNL6", "dateTime": 1516997046049}, {"current_trial": 243, "trialdata": {"rt": -1, "trial_type": "single-stim", "word": "valve", "stimulus": "<p id=\"stim\">VALVE</p>", "conditions": [24, 800, "v", 12000], "internal_node_id": "0.0-180.0", "trial": 6, "time_elapsed": 1734211, "serialpos": 18, "key_press": -1, "wordID": 1545, "type": "PRES_VIS", "trial_index": 243}, "uniqueid": "MTK2360:3K9FOBBF2IQKYW25ZXNL5R86IIGNL6", "dateTime": 1516997047729}, {"current_trial": 244, "trialdata": {"rt": -1, "trial_type": "single-stim", "word": "diner", "stimulus": "<p id=\"stim\">DINER</p>", "conditions": [24, 800, "v", 12000], "internal_node_id": "0.0-181.0", "trial": 6, "time_elapsed": 1736178, "serialpos": 19, "key_press": -1, "wordID": 466, "type": "PRES_VIS", "trial_index": 244}, "uniqueid": "MTK2360:3K9FOBBF2IQKYW25ZXNL5R86IIGNL6", "dateTime": 1516997049696}, {"current_trial": 245, "trialdata": {"rt": -1, "trial_type": "single-stim", "word": "cafe", "stimulus": "<p id=\"stim\">CAFE</p>", "conditions": [24, 800, "v", 12000], "internal_node_id": "0.0-182.0", "trial": 6, "time_elapsed": 1737831, "serialpos": 20, "key_press": -1, "wordID": 215, "type": "PRES_VIS", "trial_index": 245}, "uniqueid": "MTK2360:3K9FOBBF2IQKYW25ZXNL5R86IIGNL6", "dateTime": 1516997051350}, {"current_trial": 246, "trialdata": {"rt": -1, "trial_type": "single-stim", "word": "salt", "stimulus": "<p id=\"stim\">SALT</p>", "conditions": [24, 800, "v", 12000], "internal_node_id": "0.0-183.0", "trial": 6, "time_elapsed": 1739809, "serialpos": 21, "key_press": -1, "wordID": 1228, "type": "PRES_VIS", "trial_index": 246}, "uniqueid": "MTK2360:3K9FOBBF2IQKYW25ZXNL5R86IIGNL6", "dateTime": 1516997053327}, {"current_trial": 247, "trialdata": {"rt": -1, "trial_type": "single-stim", "word": "omelet", "stimulus": "<p id=\"stim\">OMELET</p>", "conditions": [24, 800, "v", 12000], "internal_node_id": "0.0-184.0", "trial": 6, "time_elapsed": 1741667, "serialpos": 22, "key_press": -1, "wordID": 975, "type": "PRES_VIS", "trial_index": 247}, "uniqueid": "MTK2360:3K9FOBBF2IQKYW25ZXNL5R86IIGNL6", "dateTime": 1516997055186}, {"current_trial": 248, "trialdata": {"rt": -1, "trial_type": "single-stim", "word": "robot", "stimulus": "<p id=\"stim\">ROBOT</p>", "conditions": [24, 800, "v", 12000], "internal_node_id": "0.0-185.0", "trial": 6, "time_elapsed": 1743511, "serialpos": 23, "key_press": -1, "wordID": 1199, "type": "PRES_VIS", "trial_index": 248}, "uniqueid": "MTK2360:3K9FOBBF2IQKYW25ZXNL5R86IIGNL6", "dateTime": 1516997057029}, {"current_trial": 249, "trialdata": {"rt": -1, "trial_type": "single-stim", "stimulus": "", "internal_node_id": "0.0-186.0-0.0", "time_elapsed": 1745613, "key_press": -1, "type": "PRE_RECALL_DELAY", "trial_index": 249}, "uniqueid": "MTK2360:3K9FOBBF2IQKYW25ZXNL5R86IIGNL6", "dateTime": 1516997059133}, {"current_trial": 250, "trialdata": {"rt": -1000, "trial_type": "single-audio", "stimulus": "/static/audio/400Hz.wav", "internal_node_id": "0.0-187.0", "time_elapsed": 1746139, "key_press": -1, "type": "PRE_RECALL_ALERT", "trial_index": 250}, "un