{"assignmentId": "3UJ1CZ6IZIW3CKRPF6O0NWMFI7IS5O", "workerId": "MTK2077", "questiondata": {"origin": "United States", "strat-rehearsal": "86", "marital": "Married/Domestic Partnership", "education": "Bachelor's degree", "ethnicity": "Not Hispanic", "color_depth": 24, "distracted": "No", "wrote-notes": "No", "strat-other": "saying the words out loud.", "screen_width": 1366, "avail_screen_width": 1366, "avail_screen_height": 720, "strat-image": "65", "language": "english", "gender": "Female", "age": "27", "gender_other": "", "race": ["White"], "strat-categorize": "71", "pixel_depth": 24, "strat-spatial": "19", "strat-story": "2", "race_other": "", "screen_height": 768}, "bonus": 0, "hitId": "3VLL1PIENQVKYMLRPB953BNP4ZDOZR", "counterbalance": 2644, "useragent": "Mozilla/5.0 (X11; CrOS x86_64 10032.86.0) AppleWebKit/537.36 (KHTML, like Gecko) Chrome/63.0.3239.140 Safari/537.36", "eventdata": [{"eventtype": "initialized", "interval": 0, "value": null, "timestamp": 1516683956912}, {"eventtype": "window_resize", "interval": 1, "value": [1366, 656], "timestamp": 1516683956913}], "data": [{"current_trial": 0, "trialdata": {"rt": 1609, "trial_type": "text", "internal_node_id": "0.0-0.0", "time_elapsed": 1616, "key_press": 32, "type": "INSTRUCTIONS", "trial_index": 0}, "uniqueid": "MTK2077:3UJ1CZ6IZIW3CKRPF6O0NWMFI7IS5O", "dateTime": 1516683959518}, {"current_trial": 1, "trialdata": {"rt": 63549, "trial_type": "text", "internal_node_id": "0.0-1.0", "time_elapsed": 65173, "key_press": 32, "type": "INSTRUCTIONS", "trial_index": 1}, "uniqueid": "MTK2077:3UJ1CZ6IZIW3CKRPF6O0NWMFI7IS5O", "dateTime": 1516684023073}, {"current_trial": 2, "trialdata": {"rt": [8027], "trial_type": "audio-test", "responses": ["ocean"], "internal_node_id": "0.0-2.0", "time_elapsed": 73285, "type": "AUDIO_TEST", "trial_index": 2}, "uniqueid": "MTK2077:3UJ1CZ6IZIW3CKRPF6O0NWMFI7IS5O", "dateTime": 1516684031186}, {"current_trial": 3, "trialdata": {"rt": [6858], "trial_type": "audio-test", "responses": ["crystal"], "internal_node_id": "0.0-3.0", "time_elapsed": 80164, "type": "AUDIO_TEST", "trial_index": 3}, "uniqueid": "MTK2077:3UJ1CZ6IZIW3CKRPF6O0NWMFI7IS5O", "dateTime": 1516684038065}, {"current_trial": 4, "trialdata": {"rt": [4446], "trial_type": "audio-test", "responses": ["spice"], "internal_node_id": "0.0-4.0", "time_elapsed": 84622, "type": "AUDIO_TEST", "trial_index": 4}, "uniqueid": "MTK2077:3UJ1CZ6IZIW3CKRPF6O0NWMFI7IS5O", "dateTime": 1516684042522}, {"current_trial": 5, "trialdata": {"rt": 26468, "trial_type": "survey-text", "responses": "{\"Q0\":\"11pm\",\"Q1\":\"6am\",\"Q2\":\"3\"}", "internal_node_id": "0.0-5.0", "time_elapsed": 111848, "type": "SLEEP_SURVEY", "trial_index": 5}, "uniqueid": "MTK2077:3UJ1CZ6IZIW3CKRPF6O0NWMFI7IS5O", "dateTime": 1516684069748}, {"current_trial": 6, "trialdata": {"rt": 39814, "trial_type": "text", "internal_node_id": "0.0-6.0", "time_elapsed": 152664, "key_press": 32, "type": "INSTRUCTIONS", "trial_index": 6}, "uniqueid": "MTK2077:3UJ1CZ6IZIW3CKRPF6O0NWMFI7IS5O", "dateTime": 1516684110564}, {"current_trial": 7, "trialdata": {"rt": 19836, "trial_type": "text", "internal_node_id": "0.0-7.0", "time_elapsed": 173002, "key_press": 32, "type": "INSTRUCTIONS", "trial_index": 7}, "uniqueid": "MTK2077:3UJ1CZ6IZIW3CKRPF6O0NWMFI7IS5O", "dateTime": 1516684130902}, {"current_trial": 8, "trialdata": {"rt": 8735, "trial_type": "text", "internal_node_id": "0.0-8.0", "time_elapsed": 182241, "key_press": 32, "type": "INSTRUCTIONS", "trial_index": 8}, "uniqueid": "MTK2077:3UJ1CZ6IZIW3CKRPF6O0NWMFI7IS5O", "dateTime": 1516684140141}, {"current_trial": 9, "trialdata": {"rt": [3935, 12477, 16297], "trial_type": "math-distractor", "key_times": [1780, 2154, 2655, 3935, 8149, 10111, 12014, 12250, 12477, 14831, 15205, 15818, 16164, 16297], "responses": ["11 ", "22", "18"], "num2": [7, 7, 8, 1], "num3": [2, 7, 3, 5], "conditions": [18, 1200, "v", 18000], "internal_node_id": "0.0-9.0", "key_presses": [49, 49, 32, 13, 50, 52, 8, 50, 13, 49, 54, 8, 56, 13], "trial": 0, "time_elapsed": 201291, "type": "DISTRACTOR", "trial_index": 9, "num1": [2, 8, 7, 6]}, "uniqueid": "MTK2077:3UJ1CZ6IZIW3CKRPF6O0NWMFI7IS5O", "dateTime": 1516684159191}, {"current_trial": 10, "trialdata": {"rt": -1, "trial_type": "single-stim", "stimulus": "<p id=\"stim\">10</p>", "internal_node_id": "0.0-10.0-0.0", "time_elapsed": 204298, "key_press": -1, "trial_index": 10}, "uniqueid": "MTK2077:3UJ1CZ6IZIW3CKRPF6O0NWMFI7IS5O", "dateTime": 1516684162199}, {"current_trial": 11, "trialdata": {"rt": -1, "trial_type": "single-stim", "stimulus": "<p id=\"stim\">9</p>", "internal_node_id": "0.0-10.0-1.0", "time_elapsed": 205301, "key_press": -1, "trial_index": 11}, "uniqueid": "MTK2077:3UJ1CZ6IZIW3CKRPF6O0NWMFI7IS5O", "dateTime": 1516684163201}, {"current_trial": 12, "trialdata": {"rt": -1, "trial_type": "single-stim", "stimulus": "<p id=\"stim\">8</p>", "internal_node_id": "0.0-10.0-2.0", "time_elapsed": 206304, "key_press": -1, "trial_index": 12}, "uniqueid": "MTK2077:3UJ1CZ6IZIW3CKRPF6O0NWMFI7IS5O", "dateTime": 1516684164204}, {"current_trial": 13, "trialdata": {"rt": -1, "trial_type": "single-stim", "stimulus": "<p id=\"stim\">7</p>", "internal_node_id": "0.0-10.0-3.0", "time_elapsed": 207307, "key_press": -1, "trial_index": 13}, "uniqueid": "MTK2077:3UJ1CZ6IZIW3CKRPF6O0NWMFI7IS5O", "dateTime": 1516684165207}, {"current_trial": 14, "trialdata": {"rt": -1, "trial_type": "single-stim", "stimulus": "<p id=\"stim\">6</p>", "internal_node_id": "0.0-10.0-4.0", "time_elapsed": 208309, "key_press": -1, "trial_index": 14}, "uniqueid": "MTK2077:3UJ1CZ6IZIW3CKRPF6O0NWMFI7IS5O", "dateTime": 1516684166209}, {"current_trial": 15, "trialdata": {"rt": -1, "trial_type": "single-stim", "stimulus": "<p id=\"stim\">5</p>", "internal_node_id": "0.0-10.0-5.0", "time_elapsed": 209313, "key_press": -1, "trial_index": 15}, "uniqueid": "MTK2077:3UJ1CZ6IZIW3CKRPF6O0NWMFI7IS5O", "dateTime": 1516684167213}, {"current_trial": 16, "trialdata": {"rt": -1, "trial_type": "single-stim", "stimulus": "<p id=\"stim\">4</p>", "internal_node_id": "0.0-10.0-6.0", "time_elapsed": 210315, "key_press": -1, "trial_index": 16}, "uniqueid": "MTK2077:3UJ1CZ6IZIW3CKRPF6O0NWMFI7IS5O", "dateTime": 1516684168215}, {"current_trial": 17, "trialdata": {"rt": -1, "trial_type": "single-stim", "stimulus": "<p id=\"stim\">3</p>", "internal_node_id": "0.0-10.0-7.0", "time_elapsed": 211429, "key_press": -1, "trial_index": 17}, "uniqueid": "MTK2077:3UJ1CZ6IZIW3CKRPF6O0NWMFI7IS5O", "dateTime": 1516684169329}, {"current_trial": 18, "trialdata": {"rt": -1, "trial_type": "single-stim", "stimulus": "<p id=\"stim\">2</p>", "internal_node_id": "0.0-10.0-8.0", "time_elapsed": 212432, "key_press": -1, "trial_index": 18}, "uniqueid": "MTK2077:3UJ1CZ6IZIW3CKRPF6O0NWMFI7IS5O", "dateTime": 1516684170332}, {"current_trial": 19, "trialdata": {"rt": -1, "trial_type": "single-stim", "stimulus": "<p id=\"stim\">1</p>", "internal_node_id": "0.0-10.0-9.0", "time_elapsed": 213435, "key_press": -1, "trial_index": 19}, "uniqueid": "MTK2077:3UJ1CZ6IZIW3CKRPF6O0NWMFI7IS5O", "dateTime": 1516684171335}, {"current_trial": 20, "trialdata": {"rt": -1, "trial_type": "single-stim", "stimulus": "<p id=\"stim\">+</p>", "internal_node_id": "0.0-11.0-0.0", "time_elapsed": 214937, "key_press": -1, "type": "FIXATION", "trial_index": 20}, "uniqueid": "MTK2077:3UJ1CZ6IZIW3CKRPF6O0NWMFI7IS5O", "dateTime": 1516684172838}, {"current_trial": 21, "trialdata": {"rt": -1, "trial_type": "single-stim", "word": "blockade", "stimulus": "<p id=\"stim\">BLOCKADE</p>", "conditions": [18, 1200, "v", 18000], "internal_node_id": "0.0-12.0", "trial": 0, "time_elapsed": 216141, "serialpos": 0, "key_press": -1, "wordID": 136, "type": "PRES_VIS", "trial_index": 21}, "uniqueid": "MTK2077:3UJ1CZ6IZIW3CKRPF6O0NWMFI7IS5O", "dateTime": 1516684174041}, {"current_trial": 22, "trialdata": {"rt": -1, "trial_type": "single-stim", "word": "marrow", "stimulus": "<p id=\"stim\">MARROW</p>", "conditions": [18, 1200, "v", 18000], "internal_node_id": "0.0-13.0", "trial": 0, "time_elapsed": 218474, "serialpos": 1, "key_press": -1, "wordID": 871, "type": "PRES_VIS", "trial_index": 22}, "uniqueid": "MTK2077:3UJ1CZ6IZIW3CKRPF6O0NWMFI7IS5O", "dateTime": 1516684176374}, {"current_trial": 23, "trialdata": {"rt": -1, "trial_type": "single-stim", "word": "dragon", "stimulus": "<p id=\"stim\">DRAGON</p>", "conditions": [18, 1200, "v", 18000], "internal_node_id": "0.0-14.0", "trial": 0, "time_elapsed": 220531, "serialpos": 2, "key_press": -1, "wordID": 491, "type": "PRES_VIS", "trial_index": 23}, "uniqueid": "MTK2077:3UJ1CZ6IZIW3CKRPF6O0NWMFI7IS5O", "dateTime": 1516684178431}, {"current_trial": 24, "trialdata": {"rt": -1, "trial_type": "single-stim", "word": "turtle", "stimulus": "<p id=\"stim\">TURTLE</p>", "conditions": [18, 1200, "v", 18000], "internal_node_id": "0.0-15.0", "trial": 0, "time_elapsed": 222910, "serialpos": 3, "key_press": -1, "wordID": 1521, "type": "PRES_VIS", "trial_index": 24}, "uniqueid": "MTK2077:3UJ1CZ6IZIW3CKRPF6O0NWMFI7IS5O", "dateTime": 1516684180811}, {"current_trial": 25, "trialdata": {"rt": -1, "trial_type": "single-stim", "word": "hatchet", "stimulus": "<p id=\"stim\">HATCHET</p>", "conditions": [18, 1200, "v", 18000], "internal_node_id": "0.0-16.0", "trial": 0, "time_elapsed": 225033, "serialpos": 4, "key_press": -1, "wordID": 690, "type": "PRES_VIS", "trial_index": 25}, "uniqueid": "MTK2077:3UJ1CZ6IZIW3CKRPF6O0NWMFI7IS5O", "dateTime": 1516684182933}, {"current_trial": 26, "trialdata": {"rt": -1, "trial_type": "single-stim", "word": "tourist", "stimulus": "<p id=\"stim\">TOURIST</p>", "conditions": [18, 1200, "v", 18000], "internal_node_id": "0.0-17.0", "trial": 0, "time_elapsed": 227076, "serialpos": 5, "key_press": -1, "wordID": 1487, "type": "PRES_VIS", "trial_index": 26}, "uniqueid": "MTK2077:3UJ1CZ6IZIW3CKRPF6O0NWMFI7IS5O", "dateTime": 1516684184976}, {"current_trial": 27, "trialdata": {"rt": -1, "trial_type": "single-stim", "word": "kitchen", "stimulus": "<p id=\"stim\">KITCHEN</p>", "conditions": [18, 1200, "v", 18000], "internal_node_id": "0.0-18.0", "trial": 0, "time_elapsed": 229134, "serialpos": 6, "key_press": -1, "wordID": 777, "type": "PRES_VIS", "trial_index": 27}, "uniqueid": "MTK2077:3UJ1CZ6IZIW3CKRPF6O0NWMFI7IS5O", "dateTime": 1516684187035}, {"current_trial": 28, "trialdata": {"rt": -1, "trial_type": "single-stim", "word": "hood", "stimulus": "<p id=\"stim\">HOOD</p>", "conditions": [18, 1200, "v", 18000], "internal_node_id": "0.0-19.0", "trial": 0, "time_elapsed": 231238, "serialpos": 7, "key_press": -1, "wordID": 713, "type": "PRES_VIS", "trial_index": 28}, "uniqueid": "MTK2077:3UJ1CZ6IZIW3CKRPF6O0NWMFI7IS5O", "dateTime": 1516684189139}, {"current_trial": 29, "trialdata": {"rt": -1, "trial_type": "single-stim", "word": "brandy", "stimulus": "<p id=\"stim\">BRANDY</p>", "conditions": [18, 1200, "v", 18000], "internal_node_id": "0.0-20.0", "trial": 0, "time_elapsed": 233395, "serialpos": 8, "key_press": -1, "wordID": 168, "type": "PRES_VIS", "trial_index": 29}, "uniqueid": "MTK2077:3UJ1CZ6IZIW3CKRPF6O0NWMFI7IS5O", "dateTime": 1516684191295}, {"current_trial": 30, "trialdata": {"rt": -1, "trial_type": "single-stim", "word": "dorm", "stimulus": "<p id=\"stim\">DORM</p>", "conditions": [18, 1200, "v", 18000], "internal_node_id": "0.0-21.0", "trial": 0, "time_elapsed": 235436, "serialpos": 9, "key_press": -1, "wordID": 487, "type": "PRES_VIS", "trial_index": 30}, "uniqueid": "MTK2077:3UJ1CZ6IZIW3CKRPF6O0NWMFI7IS5O", "dateTime": 1516684193336}, {"current_trial": 31, "trialdata": {"rt": -1, "trial_type": "single-stim", "word": "gazelle", "stimulus": "<p id=\"stim\">GAZELLE</p>", "conditions": [18, 1200, "v", 18000], "internal_node_id": "0.0-22.0", "trial": 0, "time_elapsed": 237752, "serialpos": 10, "key_press": -1, "wordID": 627, "type": "PRES_VIS", "trial_index": 31}, "uniqueid": "MTK2077:3UJ1CZ6IZIW3CKRPF6O0NWMFI7IS5O", "dateTime": 1516684195652}, {"current_trial": 32, "trialdata": {"rt": -1, "trial_type": "single-stim", "word": "champagne", "stimulus": "<p id=\"stim\">CHAMPAGNE</p>", "conditions": [18, 1200, "v", 18000], "internal_node_id": "0.0-23.0", "trial": 0, "time_elapsed": 240059, "serialpos": 11, "key_press": -1, "wordID": 277, "type": "PRES_VIS", "trial_index": 32}, "uniqueid": "MTK2077:3UJ1CZ6IZIW3CKRPF6O0NWMFI7IS5O", "dateTime": 1516684197960}, {"current_trial": 33, "trialdata": {"rt": -1, "trial_type": "single-stim", "word": "wrist", "stimulus": "<p id=\"stim\">WRIST</p>", "conditions": [18, 1200, "v", 18000], "internal_node_id": "0.0-24.0", "trial": 0, "time_elapsed": 242109, "serialpos": 12, "key_press": -1, "wordID": 1625, "type": "PRES_VIS", "trial_index": 33}, "uniqueid": "MTK2077:3UJ1CZ6IZIW3CKRPF6O0NWMFI7IS5O", "dateTime": 1516684200009}, {"current_trial": 34, "trialdata": {"rt": -1, "trial_type": "single-stim", "word": "cookbook", "stimulus": "<p id=\"stim\">COOKBOOK</p>", "conditions": [18, 1200, "v", 18000], "internal_node_id": "0.0-25.0", "trial": 0, "time_elapsed": 244144, "serialpos": 13, "key_press": -1, "wordID": 372, "type": "PRES_VIS", "trial_index": 34}, "uniqueid": "MTK2077:3UJ1CZ6IZIW3CKRPF6O0NWMFI7IS5O", "dateTime": 1516684202044}, {"current_trial": 35, "trialdata": {"rt": -1, "trial_type": "single-stim", "word": "orange", "stimulus": "<p id=\"stim\">ORANGE</p>", "conditions": [18, 1200, "v", 18000], "internal_node_id": "0.0-26.0", "trial": 0, "time_elapsed": 246392, "serialpos": 14, "key_press": -1, "wordID": 979, "type": "PRES_VIS", "trial_index": 35}, "uniqueid": "MTK2077:3UJ1CZ6IZIW3CKRPF6O0NWMFI7IS5O", "dateTime": 1516684204292}, {"current_trial": 36, "trialdata": {"rt": -1, "trial_type": "single-stim", "word": "raft", "stimulus": "<p id=\"stim\">RAFT</p>", "conditions": [18, 1200, "v", 18000], "internal_node_id": "0.0-27.0", "trial": 0, "time_elapsed": 248489, "serialpos": 15, "key_press": -1, "wordID": 1158, "type": "PRES_VIS", "trial_index": 36}, "uniqueid": "MTK2077:3UJ1CZ6IZIW3CKRPF6O0NWMFI7IS5O", "dateTime": 1516684206389}, {"current_trial": 37, "trialdata": {"rt": -1, "trial_type": "single-stim", "word": "sandwich", "stimulus": "<p id=\"stim\">SANDWICH</p>", "conditions": [18, 1200, "v", 18000], "internal_node_id": "0.0-28.0", "trial": 0, "time_elapsed": 250710, "serialpos": 16, "key_press": -1, "wordID": 1231, "type": "PRES_VIS", "trial_index": 37}, "uniqueid": "MTK2077:3UJ1CZ6IZIW3CKRPF6O0NWMFI7IS5O", "dateTime": 1516684208610}, {"current_trial": 38, "trialdata": {"rt": -1, "trial_type": "single-stim", "word": "scotch", "stimulus": "<p id=\"stim\">SCOTCH</p>", "conditions": [18, 1200, "v", 18000], "internal_node_id": "0.0-29.0", "trial": 0, "time_elapsed": 252873, "serialpos": 17, "key_press": -1, "wordID": 1250, "type": "PRES_VIS", "trial_index": 38}, "uniqueid": "MTK2077:3UJ1CZ6IZIW3CKRPF6O0NWMFI7IS5O", "dateTime": 1516684210774}, {"current_trial": 39, "trialdata": {"rt": -1, "trial_type": "single-stim", "stimulus": "", "internal_node_id": "0.0-30.0-0.0", "time_elapsed": 255261, "key_press": -1, "type": "PRE_RECALL_DELAY", "trial_index": 39}, "uniqueid": "MTK2077:3UJ1CZ6IZIW3CKRPF6O0NWMFI7IS5O", "dateTime": 1516684213162}, {"current_trial": 40, "trialdata": {"rt": -1000, "trial_type": "single-audio", "stimulus": "/static/audio/400Hz.wav", "internal_node_id": "0.0-31.0", "time_elapsed": 255766, "key_press": -1, "type": "PRE_RECALL_ALERT", "trial_index": 40}, "uniqueid": "MTK2077:3UJ1CZ6IZIW3CKRPF6O0NWMFI7IS5O", "dateTime": 1516684213667}, {"current_trial": 41, "trialdata": {"rt": [4520, 6250, 8769, 10798, 13489, 17176, 37549, 55857, 58171], "recwords": ["blakade", "marrow", "dragon", "kitchen", "wrist", "champagne", "", "kitchen", "dragon"], "key_times": [1280, 1451, 1595, 2481, 2655, 3935, 4091, 4520, 5235, 5337, 5544, 5658, 5800, 5875, 6250, 7186, 7340, 7445, 8034, 8149, 8444, 8769, 9289, 9434, 9520, 9756, 9880, 10300, 10454, 10798, 12379, 12637, 12780, 12878, 13045, 13489, 15046, 15179, 15284, 15412, 15733, 15866, 16180, 16373, 16668, 17176, 37549, 54076, 54788, 54942, 55174, 55270, 55342, 55475, 55857, 56589, 56796, 56906, 57535, 57602, 57815, 58171], "trial_type": "free-recall", "conditions": [18, 1200, "v", 18000], "internal_node_id": "0.0-32.0-0.0", "key_presses": [66, 76, 65, 75, 65, 68, 69, 13, 77, 65, 82, 82, 79, 87, 13, 68, 82, 65, 71, 79, 78, 13, 75, 73, 84, 67, 72, 69, 78, 13, 87, 82, 73, 83, 84, 13, 67, 72, 65, 77, 80, 65, 71, 78, 69, 13, 13, 75, 73, 84, 67, 72, 69, 78, 13, 68, 82, 65, 71, 79, 78, 13], "trial": 0, "time_elapsed": 315775, "type": "FREE_RECALL", "trial_index": 41}, "uniqueid": "MTK2077:3UJ1CZ6IZIW3CKRPF6O0NWMFI7IS5O", "dateTime": 1516684273679}, {"current_trial": 42, "trialdata": {"rt": 2063, "trial_type": "text", "internal_node_id": "0.0-33.0", "time_elapsed": 319846, "key_press": 32, "type": "INSTRUCTIONS", "trial_index": 42}, "uniqueid": "MTK2077:3UJ1CZ6IZIW3CKRPF6O0NWMFI7IS5O", "dateTime": 1516684277749}, {"current_trial": 43, "trialdata": {"rt": [6011, 9092, 11288, 14613, 16682], "trial_type": "math-distractor", "key_times": [5121, 5553, 6011, 8493, 9092, 10614, 10877, 11288, 12697, 13004, 13333, 14362, 14613, 15807, 16130, 16682], "responses": ["26", "8", "16", "16", "14"], "num2": [9, 3, 1, 4, 4, 9], "num3": [8, 4, 6, 6, 4, 3], "conditions": [18, 1200, "v", 18000], "internal_node_id": "0.0-34.0", "key_presses": [50, 54, 13, 56, 13, 49, 54, 13, 49, 54, 221, 8, 13, 49, 52, 13], "trial": 1, "time_elapsed": 339857, "type": "DISTRACTOR", "trial_index": 43, "num1": [9, 1, 9, 6, 6, 4]}, "uniqueid": "MTK2077:3UJ1CZ6IZIW3CKRPF6O0NWMFI7IS5O", "dateTime": 1516684297757}, {"current_trial": 44, "trialdata": {"rt": -1, "trial_type": "single-stim", "stimulus": "<p id=\"stim\">10</p>", "internal_node_id": "0.0-35.0-0.0", "time_elapsed": 342861, "key_press": -1, "trial_index": 44}, "uniqueid": "MTK2077:3UJ1CZ6IZIW3CKRPF6O0NWMFI7IS5O", "dateTime": 1516684300761}, {"current_trial": 45, "trialdata": {"rt": -1, "trial_type": "single-stim", "stimulus": "<p id=\"stim\">9</p>", "internal_node_id": "0.0-35.0-1.0", "time_elapsed": 343864, "key_press": -1, "trial_index": 45}, "uniqueid": "MTK2077:3UJ1CZ6IZIW3CKRPF6O0NWMFI7IS5O", "dateTime": 1516684301764}, {"current_trial": 46, "trialdata": {"rt": -1, "trial_type": "single-stim", "stimulus": "<p id=\"stim\">8</p>", "internal_node_id": "0.0-35.0-2.0", "time_elapsed": 344867, "key_press": -1, "trial_index": 46}, "uniqueid": "MTK2077:3UJ1CZ6IZIW3CKRPF6O0NWMFI7IS5O", "dateTime": 1516684302769}, {"current_trial": 47, "trialdata": {"rt": -1, "trial_type": "single-stim", "stimulus": "<p id=\"stim\">7</p>", "internal_node_id": "0.0-35.0-3.0", "time_elapsed": 345872, "key_press": -1, "trial_index": 47}, "uniqueid": "MTK2077:3UJ1CZ6IZIW3CKRPF6O0NWMFI7IS5O", "dateTime": 1516684303772}, {"current_trial": 48, "trialdata": {"rt": -1, "trial_type": "single-stim", "stimulus": "<p id=\"stim\">6</p>", "internal_node_id": "0.0-35.0-4.0", "time_elapsed": 346874, "key_press": -1, "trial_index": 48}, "uniqueid": "MTK2077:3UJ1CZ6IZIW3CKRPF6O0NWMFI7IS5O", "dateTime": 1516684304774}, {"current_trial": 49, "trialdata": {"rt": -1, "trial_type": "single-stim", "stimulus": "<p id=\"stim\">5</p>", "internal_node_id": "0.0-35.0-5.0", "time_elapsed": 347876, "key_press": -1, "trial_index": 49}, "uniqueid": "MTK2077:3UJ1CZ6IZIW3CKRPF6O0NWMFI7IS5O", "dateTime": 1516684305777}, {"current_trial": 50, "trialdata": {"rt": -1, "trial_type": "single-stim", "stimulus": "<p id=\"stim\">4</p>", "internal_node_id": "0.0-35.0-6.0", "time_elapsed": 348879, "key_press": -1, "trial_index": 50}, "uniqueid": "MTK2077:3UJ1CZ6IZIW3CKRPF6O0NWMFI7IS5O", "dateTime": 1516684306780}, {"current_trial": 51, "trialdata": {"rt": -1, "trial_type": "single-stim", "stimulus": "<p id=\"stim\">3</p>", "internal_node_id": "0.0-35.0-7.0", "time_elapsed": 349883, "key_press": -1, "trial_index": 51}, "uniqueid": "MTK2077:3UJ1CZ6IZIW3CKRPF6O0NWMFI7IS5O", "dateTime": 1516684307783}, {"current_trial": 52, "trialdata": {"rt": -1, "trial_type": "single-stim", "stimulus": "<p id=\"stim\">2</p>", "internal_node_id": "0.0-35.0-8.0", "time_elapsed": 350887, "key_press": -1, "trial_index": 52}, "uniqueid": "MTK2077:3UJ1CZ6IZIW3CKRPF6O0NWMFI7IS5O", "dateTime": 1516684308788}, {"current_trial": 53, "trialdata": {"rt": -1, "trial_type": "single-stim", "stimulus": "<p id=\"stim\">1</p>", "internal_node_id": "0.0-35.0-9.0", "time_elapsed": 351894, "key_press": -1, "trial_index": 53}, "uniqueid": "MTK2077:3UJ1CZ6IZIW3CKRPF6O0NWMFI7IS5O", "dateTime": 1516684309794}, {"current_trial": 54, "trialdata": {"rt": -1, "trial_type": "single-stim", "stimulus": "<p id=\"stim\">+</p>", "internal_node_id": "0.0-36.0-0.0", "time_elapsed": 353398, "key_press": -1, "type": "FIXATION", "trial_index": 54}, "uniqueid": "MTK2077:3UJ1CZ6IZIW3CKRPF6O0NWMFI7IS5O", "dateTime": 1516684311298}, {"current_trial": 55, "trialdata": {"rt": -1, "trial_type": "single-stim", "word": "napkin", "stimulus": "<p id=\"stim\">NAPKIN</p>", "conditions": [18, 1200, "v", 18000], "internal_node_id": "0.0-37.0", "trial": 1, "time_elapsed": 354600, "serialpos": 0, "key_press": -1, "wordID": 936, "type": "PRES_VIS", "trial_index": 55}, "uniqueid": "MTK2077:3UJ1CZ6IZIW3CKRPF6O0NWMFI7IS5O", "dateTime": 1516684312500}, {"current_trial": 56, "trialdata": {"rt": -1, "trial_type": "single-stim", "word": "fox", "stimulus": "<p id=\"stim\">FOX</p>", "conditions": [18, 1200, "v", 18000], "internal_node_id": "0.0-38.0", "trial": 1, "time_elapsed": 356980, "serialpos": 1, "key_press": -1, "wordID": 597, "type": "PRES_VIS", "trial_index": 56}, "uniqueid": "MTK2077:3UJ1CZ6IZIW3CKRPF6O0NWMFI7IS5O", "dateTime": 1516684314880}, {"current_trial": 57, "trialdata": {"rt": -1, "trial_type": "single-stim", "word": "police", "stimulus": "<p id=\"stim\">POLICE</p>", "conditions": [18, 1200, "v", 18000], "internal_node_id": "0.0-39.0", "trial": 1, "time_elapsed": 359380, "serialpos": 2, "key_press": -1, "wordID": 1097, "type": "PRES_VIS", "trial_index": 57}, "uniqueid": "MTK2077:3UJ1CZ6IZIW3CKRPF6O0NWMFI7IS5O", "dateTime": 1516684317280}, {"current_trial": 58, "trialdata": {"rt": -1, "trial_type": "single-stim", "word": "fleet", "stimulus": "<p id=\"stim\">FLEET</p>", "conditions": [18, 1200, "v", 18000], "internal_node_id": "0.0-40.0", "trial": 1, "time_elapsed": 361699, "serialpos": 3, "key_press": -1, "wordID": 577, "type": "PRES_VIS", "trial_index": 58}, "uniqueid": "MTK2077:3UJ1CZ6IZIW3CKRPF6O0NWMFI7IS5O", "dateTime": 1516684319600}, {"current_trial": 59, "trialdata": {"rt": -1, "trial_type": "single-stim", "word": "mister", "stimulus": "<p id=\"stim\">MISTER</p>", "conditions": [18, 1200, "v", 18000], "internal_node_id": "0.0-41.0", "trial": 1, "time_elapsed": 363941, "serialpos": 4, "key_press": -1, "wordID": 900, "type": "PRES_VIS", "trial_index": 59}, "uniqueid": "MTK2077:3UJ1CZ6IZIW3CKRPF6O0NWMFI7IS5O", "dateTime": 1516684321841}, {"current_trial": 60, "trialdata": {"rt": -1, "trial_type": "single-stim", "word": "mars", "stimulus": "<p id=\"stim\">MARS</p>", "conditions": [18, 1200, "v", 18000], "internal_node_id": "0.0-42.0", "trial": 1, "time_elapsed": 366059, "serialpos": 5, "key_press": -1, "wordID": 872, "type": "PRES_VIS", "trial_index": 60}, "uniqueid": "MTK2077:3UJ1CZ6IZIW3CKRPF6O0NWMFI7IS5O", "dateTime": 1516684323959}, {"current_trial": 61, "trialdata": {"rt": -1, "trial_type": "single-stim", "word": "college", "stimulus": "<p id=\"stim\">COLLEGE</p>", "conditions": [18, 1200, "v", 18000], "internal_node_id": "0.0-43.0", "trial": 1, "time_elapsed": 368334, "serialpos": 6, "key_press": -1, "wordID": 345, "type": "PRES_VIS", "trial_index": 61}, "uniqueid": "MTK2077:3UJ1CZ6IZIW3CKRPF6O0NWMFI7IS5O", "dateTime": 1516684326235}, {"current_trial": 62, "trialdata": {"rt": -1, "trial_type": "single-stim", "word": "message", "stimulus": "<p id=\"stim\">MESSAGE</p>", "conditions": [18, 1200, "v", 18000], "internal_node_id": "0.0-44.0", "trial": 1, "time_elapsed": 370575, "serialpos": 7, "key_press": -1, "wordID": 887, "type": "PRES_VIS", "trial_index": 62}, "uniqueid": "MTK2077:3UJ1CZ6IZIW3CKRPF6O0NWMFI7IS5O", "dateTime": 1516684328476}, {"current_trial": 63, "trialdata": {"rt": -1, "trial_type": "single-stim", "word": "bouquet", "stimulus": "<p id=\"stim\">BOUQUET</p>", "conditions": [18, 1200, "v", 18000], "internal_node_id": "0.0-45.0", "trial": 1, "time_elapsed": 372738, "serialpos": 8, "key_press": -1, "wordID": 156, "type": "PRES_VIS", "trial_index": 63}, "uniqueid": "MTK2077:3UJ1CZ6IZIW3CKRPF6O0NWMFI7IS5O", "dateTime": 1516684330638}, {"current_trial": 64, "trialdata": {"rt": -1, "trial_type": "single-stim", "word": "wagon", "stimulus": "<p id=\"stim\">WAGON</p>", "conditions": [18, 1200, "v", 18000], "internal_node_id": "0.0-46.0", "trial": 1, "time_elapsed": 374874, "serialpos": 9, "key_press": -1, "wordID": 1577, "type": "PRES_VIS", "trial_index": 64}, "uniqueid": "MTK2077:3UJ1CZ6IZIW3CKRPF6O0NWMFI7IS5O", "dateTime": 1516684332774}, {"current_trial": 65, "trialdata": {"rt": -1, "trial_type": "single-stim", "word": "cellar", "stimulus": "<p id=\"stim\">CELLAR</p>", "conditions": [18, 1200, "v", 18000], "internal_node_id": "0.0-47.0", "trial": 1, "time_elapsed": 377075, "serialpos": 10, "key_press": -1, "wordID": 266, "type": "PRES_VIS", "trial_index": 65}, "uniqueid": "MTK2077:3UJ1CZ6IZIW3CKRPF6O0NWMFI7IS5O", "dateTime": 1516684334975}, {"current_trial": 66, "trialdata": {"rt": -1, "trial_type": "single-stim", "word": "inmate", "stimulus": "<p id=\"stim\">INMATE</p>", "conditions": [18, 1200, "v", 18000], "internal_node_id": "0.0-48.0", "trial": 1, "time_elapsed": 379369, "serialpos": 11, "key_press": -1, "wordID": 737, "type": "PRES_VIS", "trial_index": 66}, "uniqueid": "MTK2077:3UJ1CZ6IZIW3CKRPF6O0NWMFI7IS5O", "dateTime": 1516684337269}, {"current_trial": 67, "trialdata": {"rt": -1, "trial_type": "single-stim", "word": "sponge", "stimulus": "<p id=\"stim\">SPONGE</p>", "conditions": [18, 1200, "v", 18000], "internal_node_id": "0.0-49.0", "trial": 1, "time_elapsed": 381614, "serialpos": 12, "key_press": -1, "wordID": 1354, "type": "PRES_VIS", "trial_index": 67}, "uniqueid": "MTK2077:3UJ1CZ6IZIW3CKRPF6O0NWMFI7IS5O", "dateTime": 1516684339514}, {"current_trial": 68, "trialdata": {"rt": -1, "trial_type": "single-stim", "word": "blackboard", "stimulus": "<p id=\"stim\">BLACKBOARD</p>", "conditions": [18, 1200, "v", 18000], "internal_node_id": "0.0-50.0", "trial": 1, "time_elapsed": 383666, "serialpos": 13, "key_press": -1, "wordID": 132, "type": "PRES_VIS", "trial_index": 68}, "uniqueid": "MTK2077:3UJ1CZ6IZIW3CKRPF6O0NWMFI7IS5O", "dateTime": 1516684341577}, {"current_trial": 69, "trialdata": {"rt": -1, "trial_type": "single-stim", "word": "doughnut", "stimulus": "<p id=\"stim\">DOUGHNUT</p>", "conditions": [18, 1200, "v", 18000], "internal_node_id": "0.0-51.0", "trial": 1, "time_elapsed": 385740, "serialpos": 14, "key_press": -1, "wordID": 489, "type": "PRES_VIS", "trial_index": 69}, "uniqueid": "MTK2077:3UJ1CZ6IZIW3CKRPF6O0NWMFI7IS5O", "dateTime": 1516684343640}, {"current_trial": 70, "trialdata": {"rt": -1, "trial_type": "single-stim", "word": "carrot", "stimulus": "<p id=\"stim\">CARROT</p>", "conditions": [18, 1200, "v", 18000], "internal_node_id": "0.0-52.0", "trial": 1, "time_elapsed": 387945, "serialpos": 15, "key_press": -1, "wordID": 248, "type": "PRES_VIS", "trial_index": 70}, "uniqueid": "MTK2077:3UJ1CZ6IZIW3CKRPF6O0NWMFI7IS5O", "dateTime": 1516684345846}, {"current_trial": 71, "trialdata": {"rt": -1, "trial_type": "single-stim", "word": "thread", "stimulus": "<p id=\"stim\">THREAD</p>", "conditions": [18, 1200, "v", 18000], "internal_node_id": "0.0-53.0", "trial": 1, "time_elapsed": 389993, "serialpos": 16, "key_press": -1, "wordID": 1459, "type": "PRES_VIS", "trial_index": 71}, "uniqueid": "MTK2077:3UJ1CZ6IZIW3CKRPF6O0NWMFI7IS5O", "dateTime": 1516684347893}, {"current_trial": 72, "trialdata": {"rt": -1, "trial_type": "single-stim", "word": "plaza", "stimulus": "<p id=\"stim\">PLAZA</p>", "conditions": [18, 1200, "v", 18000], "internal_node_id": "0.0-54.0", "trial": 1, "time_elapsed": 392168, "serialpos": 17, "key_press": -1, "wordID": 1087, "type": "PRES_VIS", "trial_index": 72}, "uniqueid": "MTK2077:3UJ1CZ6IZIW3CKRPF6O0NWMFI7IS5O", "dateTime": 1516684350068}, {"current_trial": 73, "trialdata": {"rt": -1, "trial_type": "single-stim", "stimulus": "", "internal_node_id": "0.0-55.0-0.0", "time_elapsed": 394614, "key_press": -1, "type": "PRE_RECALL_DELAY", "trial_index": 73}, "uniqueid": "MTK2077:3UJ1CZ6IZIW3CKRPF6O0NWMFI7IS5O", "dateTime": 1516684352515}, {"current_trial": 74, "trialdata": {"rt": -1000, "trial_type": "single-audio", "stimulus": "/static/audio/400Hz.wav", "internal_node_id": "0.0-56.0", "time_elapsed": 395117, "key_press": -1, "type": "PRE_RECALL_ALERT", "trial_index": 74}, "uniqueid": "MTK2077:3UJ1CZ6IZIW3CKRPF6O0NWMFI7IS5O", "dateTime": 1516684353017}, {"current_trial": 75, "trialdata": {"rt": [5151, 11241, 17069, 19597, 22869, 25857, 29357, 33734, 36343, 40707, 42944, 46590, 59857], "recwords": ["mister", "message", "blackboard", "mars", "college", "massage", "wagon", "cellar", "sponge", "doughnut", "thread", "plaza", "college"], "key_times": [3838, 4026, 4312, 4499, 4578, 4702, 5151, 8284, 8530, 8789, 9055, 9101, 9737, 10613, 11241, 12941, 13181, 13421, 13598, 14731, 15342, 15597, 16112, 16305, 16469, 17069, 17989, 18219, 18798, 18956, 19597, 20294, 20613, 20802, 21111, 21942, 22213, 22290, 22869, 23664, 23921, 24117, 24253, 24445, 25043, 25083, 25857, 26459, 26570, 26817, 28237, 29074, 29357, 30024, 30120, 31121, 31244, 31615, 32601, 33166, 33380, 33734, 34200, 34604, 35007, 35347, 35404, 35700, 36343, 37260, 37755, 37855, 38212, 38290, 38624, 39552, 39793, 40707, 41451, 41592, 41819, 41920, 42183, 42417, 42944, 43532, 43696, 44062, 44940, 45813, 46590, 57509, 57884, 58067, 58661, 59018, 59246, 59328, 59857], "trial_type": "free-recall", "conditions": [18, 1200, "v", 18000], "internal_node_id": "0.0-57.0-0.0", "key_presses": [77, 73, 83, 84, 69, 82, 13, 77, 69, 83, 83, 65, 71, 69, 13, 66, 76, 65, 67, 75, 66, 79, 65, 82, 68, 13, 77, 65, 82, 83, 13, 67, 79, 76, 76, 69, 71, 69, 13, 77, 65, 83, 83, 65, 71, 69, 13, 87, 65, 71, 79, 78, 13, 67, 69, 76, 76, 83, 8, 65, 82, 13, 83, 80, 79, 78, 71, 69, 13, 68, 79, 85, 71, 72, 78, 85, 84, 13, 84, 72, 82, 69, 65, 68, 13, 80, 76, 65, 90, 65, 13, 67, 79, 76, 76, 69, 71, 69, 13], "trial": 1, "time_elapsed": 455122, "type": "FREE_RECALL", "trial_index": 75}, "uniqueid": "MTK2077:3UJ1CZ6IZIW3CKRPF6O0NWMFI7IS5O", "dateTime": 1516684413026}, {"current_trial": 76, "trialdata": {"rt": 2232, "trial_type": "text", "internal_node_id": "0.0-58.0", "time_elapsed": 459361, "key_press": 32, "type": "INSTRUCTIONS", "trial_index": 76}, "uniqueid": "MTK2077:3UJ1CZ6IZIW3CKRPF6O0NWMFI7IS5O", "dateTime": 1516684417261}, {"current_trial": 77, "trialdata": {"rt": [4415, 7828], "trial_type": "math-distractor", "key_times": [3603, 3800, 4415, 7216, 7459, 7828, 11482, 11667], "responses": ["12", "14"], "num2": [1, 3, 8], "num3": [5, 7, 9], "conditions": [12, 1600, "v", 12000], "internal_node_id": "0.0-59.0", "key_presses": [49, 50, 13, 49, 52, 13, 50, 51], "trial": 2, "time_elapsed": 472370, "type": "DISTRACTOR", "trial_index": 77, "num1": [6, 4, 6]}, "uniqueid": "MTK2077:3UJ1CZ6IZIW3CKRPF6O0NWMFI7IS5O", "dateTime": 1516684430270}, {"current_trial": 78, "trialdata": {"rt": -1, "trial_type": "single-stim", "stimulus": "<p id=\"stim\">10</p>", "internal_node_id": "0.0-60.0-0.0", "time_elapsed": 475373, "key_press": -1, "trial_index": 78}, "uniqueid": "MTK2077:3UJ1CZ6IZIW3CKRPF6O0NWMFI7IS5O", "dateTime": 1516684433273}, {"current_trial": 79, "trialdata": {"rt": -1, "trial_type": "single-stim", "stimulus": "<p id=\"stim\">9</p>", "internal_node_id": "0.0-60.0-1.0", "time_elapsed": 476375, "key_press": -1, "trial_index": 79}, "uniqueid": "MTK2077:3UJ1CZ6IZIW3CKRPF6O0NWMFI7IS5O", "dateTime": 1516684434276}, {"current_trial": 80, "trialdata": {"rt": -1, "trial_type": "single-stim", "stimulus": "<p id=\"stim\">8</p>", "internal_node_id": "0.0-60.0-2.0", "time_elapsed": 477379, "key_press": -1, "trial_index": 80}, "uniqueid": "MTK2077:3UJ1CZ6IZIW3CKRPF6O0NWMFI7IS5O", "dateTime": 1516684435279}, {"current_trial": 81, "trialdata": {"rt": -1, "trial_type": "single-stim", "stimulus": "<p id=\"stim\">7</p>", "internal_node_id": "0.0-60.0-3.0", "time_elapsed": 478381, "key_press": -1, "trial_index": 81}, "uniqueid": "MTK2077:3UJ1CZ6IZIW3CKRPF6O0NWMFI7IS5O", "dateTime": 1516684436282}, {"current_trial": 82, "trialdata": {"rt": -1, "trial_type": "single-stim", "stimulus": "<p id=\"stim\">6</p>", "internal_node_id": "0.0-60.0-4.0", "time_elapsed": 479386, "key_press": -1, "trial_index": 82}, "uniqueid": "MTK2077:3UJ1CZ6IZIW3CKRPF6O0NWMFI7IS5O", "dateTime": 1516684437286}, {"current_trial": 83, "trialdata": {"rt": -1, "trial_type": "single-stim", "stimulus": "<p id=\"stim\">5</p>", "internal_node_id": "0.0-60.0-5.0", "time_elapsed": 480388, "key_press": -1, "trial_index": 83}, "uniqueid": "MTK2077:3UJ1CZ6IZIW3CKRPF6O0NWMFI7IS5O", "dateTime": 1516684438289}, {"current_trial": 84, "trialdata": {"rt": -1, "trial_type": "single-stim", "stimulus": "<p id=\"stim\">4</p>", "internal_node_id": "0.0-60.0-6.0", "time_elapsed": 481392, "key_press": -1, "trial_index": 84}, "uniqueid": "MTK2077:3UJ1CZ6IZIW3CKRPF6O0NWMFI7IS5O", "dateTime": 1516684439296}, {"current_trial": 85, "trialdata": {"rt": -1, "trial_type": "single-stim", "stimulus": "<p id=\"stim\">3</p>", "internal_node_id": "0.0-60.0-7.0", "time_elapsed": 482398, "key_press": -1, "trial_index": 85}, "uniqueid": "MTK2077:3UJ1CZ6IZIW3CKRPF6O0NWMFI7IS5O", "dateTime": 1516684440298}, {"current_trial": 86, "trialdata": {"rt": -1, "trial_type": "single-stim", "stimulus": "<p id=\"stim\">2</p>", "internal_node_id": "0.0-60.0-8.0", "time_elapsed": 483404, "key_press": -1, "trial_index": 86}, "uniqueid": "MTK2077:3UJ1CZ6IZIW3CKRPF6O0NWMFI7IS5O", "dateTime": 1516684441304}, {"current_trial": 87, "trialdata": {"rt": -1, "trial_type": "single-stim", "stimulus": "<p id=\"stim\">1</p>", "internal_node_id": "0.0-60.0-9.0", "time_elapsed": 484408, "key_press": -1, "trial_index": 87}, "uniqueid": "MTK2077:3UJ1CZ6IZIW3CKRPF6O0NWMFI7IS5O", "dateTime": 1516684442308}, {"current_trial": 88, "trialdata": {"rt": -1, "trial_type": "single-stim", "stimulus": "<p id=\"stim\">+</p>", "internal_node_id": "0.0-61.0-0.0", "time_elapsed": 485913, "key_press": -1, "type": "FIXATION", "trial_index": 88}, "uniqueid": "MTK2077:3UJ1CZ6IZIW3CKRPF6O0NWMFI7IS5O", "dateTime": 1516684443814}, {"current_trial": 89, "trialdata": {"rt": -1, "trial_type": "single-stim", "word": "peanut", "stimulus": "<p id=\"stim\">PEANUT</p>", "conditions": [12, 1600, "v", 12000], "internal_node_id": "0.0-62.0", "trial": 2, "time_elapsed": 487517, "serialpos": 0, "key_press": -1, "wordID": 1031, "type": "PRES_VIS", "trial_index": 89}, "uniqueid": "MTK2077:3UJ1CZ6IZIW3CKRPF6O0NWMFI7IS5O", "dateTime": 1516684445418}, {"current_trial": 90, "trialdata": {"rt": -1, "trial_type": "single-stim", "word": "sticker", "stimulus": "<p id=\"stim\">STICKER</p>", "conditions": [12, 1600, "v", 12000], "internal_node_id": "0.0-63.0", "trial": 2, "time_elapsed": 490050, "serialpos": 1, "key_press": -1, "wordID": 1381, "type": "PRES_VIS", "trial_index": 90}, "uniqueid": "MTK2077:3UJ1CZ6IZIW3CKRPF6O0NWMFI7IS5O", "dateTime": 1516684447950}, {"current_trial": 91, "trialdata": {"rt": -1, "trial_type": "single-stim", "word": "ground", "stimulus": "<p id=\"stim\">GROUND</p>", "conditions": [12, 1600, "v", 12000], "internal_node_id": "0.0-64.0", "trial": 2, "time_elapsed": 492574, "serialpos": 2, "key_press": -1, "wordID": 665, "type": "PRES_VIS", "trial_index": 91}, "uniqueid": "MTK2077:3UJ1CZ6IZIW3CKRPF6O0NWMFI7IS5O", "dateTime": 1516684450474}, {"current_trial": 92, "trialdata": {"rt": -1, "trial_type": "single-stim", "word": "dust", "stimulus": "<p id=\"stim\">DUST</p>", "conditions": [12, 1600, "v", 12000], "internal_node_id": "0.0-65.0", "trial": 2, "time_elapsed": 495207, "serialpos": 3, "key_press": -1, "wordID": 507, "type": "PRES_VIS", "trial_index": 92}, "uniqueid": "MTK2077:3UJ1CZ6IZIW3CKRPF6O0NWMFI7IS5O", "dateTime": 1516684453107}, {"current_trial": 93, "trialdata": {"rt": -1, "trial_type": "single-stim", "word": "turkey", "stimulus": "<p id=\"stim\">TURKEY</p>", "conditions": [12, 1600, "v", 12000], "internal_node_id": "0.0-66.0", "trial": 2, "time_elapsed": 497674, "serialpos": 4, "key_press": -1, "wordID": 1519, "type": "PRES_VIS", "trial_index": 93}, "uniqueid": "MTK2077:3UJ1CZ6IZIW3CKRPF6O0NWMFI7IS5O", "dateTime": 1516684455574}, {"current_trial": 94, "trialdata": {"rt": -1, "trial_type": "single-stim", "word": "rug", "stimulus": "<p id=\"stim\">RUG</p>", "conditions": [12, 1600, "v", 12000], "internal_node_id": "0.0-67.0", "trial": 2, "time_elapsed": 500388, "serialpos": 5, "key_press": -1, "wordID": 1214, "type": "PRES_VIS", "trial_index": 94}, "uniqueid": "MTK2077:3UJ1CZ6IZIW3CKRPF6O0NWMFI7IS5O", "dateTime": 1516684458289}, {"current_trial": 95, "trialdata": {"rt": -1, "trial_type": "single-stim", "word": "elbow", "stimulus": "<p id=\"stim\">ELBOW</p>", "conditions": [12, 1600, "v", 12000], "internal_node_id": "0.0-68.0", "trial": 2, "time_elapsed": 503091, "serialpos": 6, "key_press": -1, "wordID": 519, "type": "PRES_VIS", "trial_index": 95}, "uniqueid": "MTK2077:3UJ1CZ6IZIW3CKRPF6O0NWMFI7IS5O", "dateTime": 1516684460992}, {"current_trial": 96, "trialdata": {"rt": -1, "trial_type": "single-stim", "word": "casket", "stimulus": "<p id=\"stim\">CASKET</p>", "conditions": [12, 1600, "v", 12000], "internal_node_id": "0.0-69.0", "trial": 2, "time_elapsed": 505570, "serialpos": 7, "key_press": -1, "wordID": 254, "type": "PRES_VIS", "trial_index": 96}, "uniqueid": "MTK2077:3UJ1CZ6IZIW3CKRPF6O0NWMFI7IS5O", "dateTime": 1516684463471}, {"current_trial": 97, "trialdata": {"rt": -1, "trial_type": "single-stim", "word": "garden", "stimulus": "<p id=\"stim\">GARDEN</p>", "conditions": [12, 1600, "v", 12000], "internal_node_id": "0.0-70.0", "trial": 2, "time_elapsed": 508064, "serialpos": 8, "key_press": -1, "wordID": 622, "type": "PRES_VIS", "trial_index": 97}, "uniqueid": "MTK2077:3UJ1CZ6IZIW3CKRPF6O0NWMFI7IS5O", "dateTime": 1516684465965}, {"current_trial": 98, "trialdata": {"rt": -1, "trial_type": "single-stim", "word": "fiddle", "stimulus": "<p id=\"stim\">FIDDLE</p>", "conditions": [12, 1600, "v", 12000], "internal_node_id": "0.0-71.0", "trial": 2, "time_elapsed": 510540, "serialpos": 9, "key_press": -1, "wordID": 560, "type": "PRES_VIS", "trial_index": 98}, "uniqueid": "MTK2077:3UJ1CZ6IZIW3CKRPF6O0NWMFI7IS5O", "dateTime": 1516684468440}, {"current_trial": 99, "trialdata": {"rt": -1, "trial_type": "single-stim", "word": "harp", "stimulus": "<p id=\"stim\">HARP</p>", "conditions": [12, 1600, "v", 12000], "internal_node_id": "0.0-72.0", "trial": 2, "time_elapsed": 513148, "serialpos": 10, "key_press": -1, "wordID": 688, "type": "PRES_VIS", "trial_index": 99}, "uniqueid": "MTK2077:3UJ1CZ6IZIW3CKRPF6O0NWMFI7IS5O", "dateTime": 1516684471049}, {"current_trial": 100, "trialdata": {"rt": -1, "trial_type": "single-stim", "word": "leg", "stimulus": "<p id=\"stim\">LEG</p>", "conditions": [12, 1600, "v", 12000], "internal_node_id": "0.0-73.0", "trial": 2, "time_elapsed": 515875, "serialpos": 11, "key_press": -1, "wordID": 808, "type": "PRES_VIS", "trial_index": 100}, "uniqueid": "MTK2077:3UJ1CZ6IZIW3CKRPF6O0NWMFI7IS5O", "dateTime": 1516684473775}, {"current_trial": 101, "trialdata": {"rt": -1, "trial_type": "single-stim", "stimulus": "", "internal_node_id": "0.0-74.0-0.0", "time_elapsed": 518111, "key_press": -1, "type": "PRE_RECALL_DELAY", "trial_index": 101}, "uniqueid": "MTK2077:3UJ1CZ6IZIW3CKRPF6O0NWMFI7IS5O", "dateTime": 1516684476011}, {"current_trial": 102, "trialdata": {"rt": -1000, "trial_type": "single-audio", "stimulus": "/static/audio/400Hz.wav", "internal_node_id": "0.0-75.0", "time_elapsed": 518613, "key_press": -1, "type": "PRE_RECALL_ALERT", "trial_index": 102}, "uniqueid": "MTK2077:3UJ1CZ6IZIW3CKRPF6O0NWMFI7IS5O", "dateTime": 1516684476513}, {"current_trial": 103, "trialdata": {"rt": [11792, 20157, 23456, 25126, 25530, 27637, 31508, 33807, 36809, 41259, 50517], "recwords": ["elbow", "ground", "turkey", "dust", "", "rug'", "casket", "elbow", "fiddle", "harp", "sticker"], "key_times": [9746, 10096, 10718, 10980, 11293, 11792, 14301, 14455, 15284, 15881, 16410, 16430, 16475, 16793, 17606, 17742, 17875, 17971, 18673, 19089, 19308, 19781, 20157, 20800, 21304, 21476, 21950, 22189, 23108, 23456, 24190, 24470, 24673, 24850, 25126, 25530, 26281, 26518, 26724, 27100, 27637, 28756, 28932, 29044, 29483, 29712, 30463, 30881, 31083, 31508, 32044, 32370, 32774, 33041, 33360, 33807, 34470, 34783, 35414, 35548, 35846, 36368, 36809, 38574, 38809, 38991, 39174, 40373, 40891, 41259, 47998, 48263, 48518, 49249, 49582, 49878, 50002, 50517], "trial_type": "free-recall", "conditions": [12, 1600, "v", 12000], "internal_node_id": "0.0-76.0-0.0", "key_presses": [69, 76, 66, 79, 87, 13, 71, 82, 8, 82, 73, 79, 85, 78, 8, 8, 8, 8, 79, 85, 78, 68, 13, 84, 85, 82, 75, 69, 89, 13, 68, 85, 83, 84, 32, 13, 82, 85, 71, 222, 13, 67, 65, 83, 75, 82, 8, 69, 84, 13, 69, 76, 66, 79, 87, 13, 70, 73, 68, 68, 76, 69, 13, 72, 65, 82, 68, 8, 80, 13, 83, 84, 73, 67, 75, 69, 82, 13], "trial": 2, "time_elapsed": 578619, "type": "FREE_RECALL", "trial_index": 103}, "uniqueid": "MTK2077:3UJ1CZ6IZIW3CKRPF6O0NWMFI7IS5O", "dateTime": 1516684536525}, {"current_trial": 104, "trialdata": {"rt": 1583, "trial_type": "text", "internal_node_id": "0.0-77.0", "time_elapsed": 582210, "key_press": 32, "type": "INSTRUCTIONS", "trial_index": 104}, "uniqueid": "MTK2077:3UJ1CZ6IZIW3CKRPF6O0NWMFI7IS5O", "dateTime": 1516684540110}, {"current_trial": 105, "trialdata": {"rt": [3509, 5938, 8216, 12461, 15057, 18088, 22264], "trial_type": "math-distractor", "key_times": [1796, 1871, 2640, 3067, 3509, 4883, 5636, 5938, 7453, 7838, 8216, 11680, 12008, 12461, 14373, 14793, 15057, 16967, 17698, 18088, 20303, 21558, 21940, 22264], "responses": ["11", "19", "16", "15", "10", "17", "7"], "num2": [8, 4, 8, 8, 3, 8, 2, 3], "num3": [2, 9, 6, 9, 1, 4, 4, 5], "conditions": [24, 1600, "v", 24000], "internal_node_id": "0.0-78.0", "key_presses": [49, 50, 8, 49, 13, 49, 57, 13, 49, 54, 13, 49, 53, 13, 49, 48, 13, 49, 55, 13, 54, 8, 55, 13], "trial": 3, "time_elapsed": 608216, "type": "DISTRACTOR", "trial_index": 105, "num1": [1, 6, 2, 6, 6, 5, 1, 4]}, "uniqueid": "MTK2077:3UJ1CZ6IZIW3CKRPF6O0NWMFI7IS5O", "dateTime": 1516684566116}, {"current_trial": 106, "trialdata": {"rt": -1, "trial_type": "single-stim", "stimulus": "<p id=\"stim\">10</p>", "internal_node_id": "0.0-79.0-0.0", "time_elapsed": 611222, "key_press": -1, "trial_index": 106}, "uniqueid": "MTK2077:3UJ1CZ6IZIW3CKRPF6O0NWMFI7IS5O", "dateTime": 1516684569122}, {"current_trial": 107, "trialdata": {"rt": -1, "trial_type": "single-stim", "stimulus": "<p id=\"stim\">9</p>", "internal_node_id": "0.0-79.0-1.0", "time_elapsed": 612224, "key_press": -1, "trial_index": 107}, "uniqueid": "MTK2077:3UJ1CZ6IZIW3CKRPF6O0NWMFI7IS5O", "dateTime": 1516684570124}, {"current_trial": 108, "trialdata": {"rt": -1, "trial_type": "single-stim", "stimulus": "<p id=\"stim\">8</p>", "internal_node_id": "0.0-79.0-2.0", "time_elapsed": 613225, "key_press": -1, "trial_index": 108}, "uniqueid": "MTK2077:3UJ1CZ6IZIW3CKRPF6O0NWMFI7IS5O", "dateTime": 1516684571126}, {"current_trial": 109, "trialdata": {"rt": -1, "trial_type": "single-stim", "stimulus": "<p id=\"stim\">7</p>", "internal_node_id": "0.0-79.0-3.0", "time_elapsed": 614231, "key_press": -1, "trial_index": 109}, "uniqueid": "MTK2077:3UJ1CZ6IZIW3CKRPF6O0NWMFI7IS5O", "dateTime": 1516684572131}, {"current_trial": 110, "trialdata": {"rt": -1, "trial_type": "single-stim", "stimulus": "<p id=\"stim\">6</p>", "internal_node_id": "0.0-79.0-4.0", "time_elapsed": 615234, "key_press": -1, "trial_index": 110}, "uniqueid": "MTK2077:3UJ1CZ6IZIW3CKRPF6O0NWMFI7IS5O", "dateTime": 1516684573135}, {"current_trial": 111, "trialdata": {"rt": -1, "trial_type": "single-stim", "stimulus": "<p id=\"stim\">5</p>", "internal_node_id": "0.0-79.0-5.0", "time_elapsed": 616237, "key_press": -1, "trial_index": 111}, "uniqueid": "MTK2077:3UJ1CZ6IZIW3CKRPF6O0NWMFI7IS5O", "dateTime": 1516684574137}, {"current_trial": 112, "trialdata": {"rt": -1, "trial_type": "single-stim", "stimulus": "<p id=\"stim\">4</p>", "internal_node_id": "0.0-79.0-6.0", "time_elapsed": 617239, "key_press": -1, "trial_index": 112}, "uniqueid": "MTK2077:3UJ1CZ6IZIW3CKRPF6O0NWMFI7IS5O", "dateTime": 1516684575139}, {"current_trial": 113, "trialdata": {"rt": -1, "trial_type": "single-stim", "stimulus": "<p id=\"stim\">3</p>", "internal_node_id": "0.0-79.0-7.0", "time_elapsed": 618242, "key_press": -1, "trial_index": 113}, "uniqueid": "MTK2077:3UJ1CZ6IZIW3CKRPF6O0NWMFI7IS5O", "dateTime": 1516684576142}, {"current_trial": 114, "trialdata": {"rt": -1, "trial_type": "single-stim", "stimulus": "<p id=\"stim\">2</p>", "internal_node_id": "0.0-79.0-8.0", "time_elapsed": 619245, "key_press": -1, "trial_index": 114}, "uniqueid": "MTK2077:3UJ1CZ6IZIW3CKRPF6O0NWMFI7IS5O", "dateTime": 1516684577145}, {"current_trial": 115, "trialdata": {"rt": -1, "trial_type": "single-stim", "stimulus": "<p id=\"stim\">1</p>", "internal_node_id": "0.0-79.0-9.0", "time_elapsed": 620250, "key_press": -1, "trial_index": 115}, "uniqueid": "MTK2077:3UJ1CZ6IZIW3CKRPF6O0NWMFI7IS5O", "dateTime": 1516684578151}, {"current_trial": 116, "trialdata": {"rt": -1, "trial_type": "single-stim", "stimulus": "<p id=\"stim\">+</p>", "internal_node_id": "0.0-80.0-0.0", "time_elapsed": 621754, "key_press": -1, "type": "FIXATION", "trial_index": 116}, "uniqueid": "MTK2077:3UJ1CZ6IZIW3CKRPF6O0NWMFI7IS5O", "dateTime": 1516684579654}, {"current_trial": 117, "trialdata": {"rt": -1, "trial_type": "single-stim", "word": "drill", "stimulus": "<p id=\"stim\">DRILL</p>", "conditions": [24, 1600, "v", 24000], "internal_node_id": "0.0-81.0", "trial": 3, "time_elapsed": 623355, "serialpos": 0, "key_press": -1, "wordID": 496, "type": "PRES_VIS", "trial_index": 117}, "uniqueid": "MTK2077:3UJ1CZ6IZIW3CKRPF6O0NWMFI7IS5O", "dateTime": 1516684581255}, {"current_trial": 118, "trialdata": {"rt": -1, "trial_type": "single-stim", "word": "tablet", "stimulus": "<p id=\"stim\">TABLET</p>", "conditions": [24, 1600, "v", 24000], "internal_node_id": "0.0-82.0", "trial": 3, "time_elapsed": 625964, "serialpos": 1, "key_press": -1, "wordID": 1426, "type": "PRES_VIS", "trial_index": 118}, "uniqueid": "MTK2077:3UJ1CZ6IZIW3CKRPF6O0NWMFI7IS5O", "dateTime": 1516684583864}, {"current_trial": 119, "trialdata": {"rt": -1, "trial_type": "single-stim", "word": "apron", "stimulus": "<p id=\"stim\">APRON</p>", "conditions": [24, 1600, "v", 24000], "internal_node_id": "0.0-83.0", "trial": 3, "time_elapsed": 628630, "serialpos": 2, "key_press": -1, "wordID": 34, "type": "PRES_VIS", "trial_index": 119}, "uniqueid": "MTK2077:3UJ1CZ6IZIW3CKRPF6O0NWMFI7IS5O", "dateTime": 1516684586531}, {"current_trial": 120, "trialdata": {"rt": -1, "trial_type": "single-stim", "word": "stone", "stimulus": "<p id=\"stim\">STONE</p>", "conditions": [24, 1600, "v", 24000], "internal_node_id": "0.0-84.0", "trial": 3, "time_elapsed": 631087, "serialpos": 3, "key_press": -1, "wordID": 1384, "type": "PRES_VIS", "trial_index": 120}, "uniqueid": "MTK2077:3UJ1CZ6IZIW3CKRPF6O0NWMFI7IS5O", "dateTime": 1516684588988}, {"current_trial": 121, "trialdata": {"rt": -1, "trial_type": "single-stim", "word": "lily", "stimulus": "<p id=\"stim\">LILY</p>", "conditions": [24, 1600, "v", 24000], "internal_node_id": "0.0-85.0", "trial": 3, "time_elapsed": 633714, "serialpos": 4, "key_press": -1, "wordID": 820, "type": "PRES_VIS", "trial_index": 121}, "uniqueid": "MTK2077:3UJ1CZ6IZIW3CKRPF6O0NWMFI7IS5O", "dateTime": 1516684591614}, {"current_trial": 122, "trialdata": {"rt": -1, "trial_type": "single-stim", "word": "hand", "stimulus": "<p id=\"stim\">HAND</p>", "conditions": [24, 1600, "v", 24000], "internal_node_id": "0.0-86.0", "trial": 3, "time_elapsed": 636244, "serialpos": 5, "key_press": -1, "wordID": 682, "type": "PRES_VIS", "trial_index": 122}, "uniqueid": "MTK2077:3UJ1CZ6IZIW3CKRPF6O0NWMFI7IS5O", "dateTime": 1516684594144}, {"current_trial": 123, "trialdata": {"rt": -1, "trial_type": "single-stim", "word": "lettuce", "stimulus": "<p id=\"stim\">LETTUCE</p>", "conditions": [24, 1600, "v", 24000], "internal_node_id": "0.0-87.0", "trial": 3, "time_elapsed": 638898, "serialpos": 6, "key_press": -1, "wordID": 813, "type": "PRES_VIS", "trial_index": 123}, "uniqueid": "MTK2077:3UJ1CZ6IZIW3CKRPF6O0NWMFI7IS5O", "dateTime": 1516684596799}, {"current_trial": 124, "trialdata": {"rt": -1, "trial_type": "single-stim", "word": "onion", "stimulus": "<p id=\"stim\">ONION</p>", "conditions": [24, 1600, "v", 24000], "internal_node_id": "0.0-88.0", "trial": 3, "time_elapsed": 641621, "serialpos": 7, "key_press": -1, "wordID": 976, "type": "PRES_VIS", "trial_index": 124}, "uniqueid": "MTK2077:3UJ1CZ6IZIW3CKRPF6O0NWMFI7IS5O", "dateTime": 1516684599521}, {"current_trial": 125, "trialdata": {"rt": -1, "trial_type": "single-stim", "word": "cod", "stimulus": "<p id=\"stim\">COD</p>", "conditions": [24, 1600, "v", 24000], "internal_node_id": "0.0-89.0", "trial": 3, "time_elapsed": 644132, "serialpos": 8, "key_press": -1, "wordID": 339, "type": "PRES_VIS", "trial_index": 125}, "uniqueid": "MTK2077:3UJ1CZ6IZIW3CKRPF6O0NWMFI7IS5O", "dateTime": 1516684602032}, {"current_trial": 126, "trialdata": {"rt": -1, "trial_type": "single-stim", "word": "scallop", "stimulus": "<p id=\"stim\">SCALLOP</p>", "conditions": [24, 1600, "v", 24000], "internal_node_id": "0.0-90.0", "trial": 3, "time_elapsed": 646682, "serialpos": 9, "key_press": -1, "wordID": 1241, "type": "PRES_VIS", "trial_index": 126}, "uniqueid": "MTK2077:3UJ1CZ6IZIW3CKRPF6O0NWMFI7IS5O", "dateTime": 1516684604582}, {"current_trial": 127, "trialdata": {"rt": -1, "trial_type": "single-stim", "word": "denim", "stimulus": "<p id=\"stim\">DENIM</p>", "conditions": [24, 1600, "v", 24000], "internal_node_id": "0.0-91.0", "trial": 3, "time_elapsed": 649335, "serialpos": 10, "key_press": -1, "wordID": 445, "type": "PRES_VIS", "trial_index": 127}, "uniqueid": "MTK2077:3UJ1CZ6IZIW3CKRPF6O0NWMFI7IS5O", "dateTime": 1516684607235}, {"current_trial": 128, "trialdata": {"rt": -1, "trial_type": "single-stim", "word": "garlic", "stimulus": "<p id=\"stim\">GARLIC</p>", "conditions": [24, 1600, "v", 24000], "internal_node_id": "0.0-92.0", "trial": 3, "time_elapsed": 651913, "serialpos": 11, "key_press": -1, "wordID": 623, "type": "PRES_VIS", "trial_index": 128}, "uniqueid": "MTK2077:3UJ1CZ6IZIW3CKRPF6O0NWMFI7IS5O", "dateTime": 1516684609813}, {"current_trial": 129, "trialdata": {"rt": -1, "trial_type": "single-stim", "word": "fragrance", "stimulus": "<p id=\"stim\">FRAGRANCE</p>", "conditions": [24, 1600, "v", 24000], "internal_node_id": "0.0-93.0", "trial": 3, "time_elapsed": 654472, "serialpos": 12, "key_press": -1, "wordID": 598, "type": "PRES_VIS", "trial_index": 129}, "uniqueid": "MTK2077:3UJ1CZ6IZIW3CKRPF6O0NWMFI7IS5O", "dateTime": 1516684612372}, {"current_trial": 130, "trialdata": {"rt": -1, "trial_type": "single-stim", "word": "binder", "stimulus": "<p id=\"stim\">BINDER</p>", "conditions": [24, 1600, "v", 24000], "internal_node_id": "0.0-94.0", "trial": 3, "time_elapsed": 656930, "serialpos": 13, "key_press": -1, "wordID": 126, "type": "PRES_VIS", "trial_index": 130}, "uniqueid": "MTK2077:3UJ1CZ6IZIW3CKRPF6O0NWMFI7IS5O", "dateTime": 1516684614830}, {"current_trial": 131, "trialdata": {"rt": -1, "trial_type": "single-stim", "word": "marker", "stimulus": "<p id=\"stim\">MARKER</p>", "conditions": [24, 1600, "v", 24000], "internal_node_id": "0.0-95.0", "trial": 3, "time_elapsed": 659390, "serialpos": 14, "key_press": -1, "wordID": 869, "type": "PRES_VIS", "trial_index": 131}, "uniqueid": "MTK2077:3UJ1CZ6IZIW3CKRPF6O0NWMFI7IS5O", "dateTime": 1516684617290}, {"current_trial": 132, "trialdata": {"rt": -1, "trial_type": "single-stim", "word": "river", "stimulus": "<p id=\"stim\">RIVER</p>", "conditions": [24, 1600, "v", 24000], "internal_node_id": "0.0-96.0", "trial": 3, "time_elapsed": 661880, "serialpos": 15, "key_press": -1, "wordID": 1193, "type": "PRES_VIS", "trial_index": 132}, "uniqueid": "MTK2077:3UJ1CZ6IZIW3CKRPF6O0NWMFI7IS5O", "dateTime": 1516684619780}, {"current_trial": 133, "trialdata": {"rt": -1, "trial_type": "single-stim", "word": "brook", "stimulus": "<p id=\"stim\">BROOK</p>", "conditions": [24, 1600, "v", 24000], "internal_node_id": "0.0-97.0", "trial": 3, "time_elapsed": 664505, "serialpos": 16, "key_press": -1, "wordID": 176, "type": "PRES_VIS", "trial_index": 133}, "uniqueid": "MTK2077:3UJ1CZ6IZIW3CKRPF6O0NWMFI7IS5O", "dateTime": 1516684622405}, {"current_trial": 134, "trialdata": {"rt": -1, "trial_type": "single-stim", "word": "chest", "stimulus": "<p id=\"stim\">CHEST</p>", "conditions": [24, 1600, "v", 24000], "internal_node_id": "0.0-98.0", "trial": 3, "time_elapsed": 667285, "serialpos": 17, "key_press": -1, "wordID": 294, "type": "PRES_VIS", "trial_index": 134}, "uniqueid": "MTK2077:3UJ1CZ6IZIW3CKRPF6O0NWMFI7IS5O", "dateTime": 1516684625185}, {"current_trial": 135, "trialdata": {"rt": -1, "trial_type": "single-stim", "word": "eagle", "stimulus": "<p id=\"stim\">EAGLE</p>", "conditions": [24, 1600, "v", 24000], "internal_node_id": "0.0-99.0", "trial": 3, "time_elapsed": 669734, "serialpos": 18, "key_press": -1, "wordID": 511, "type": "PRES_VIS", "trial_index": 135}, "uniqueid": "MTK2077:3UJ1CZ6IZIW3CKRPF6O0NWMFI7IS5O", "dateTime": 1516684627634}, {"current_trial": 136, "trialdata": {"rt": -1, "trial_type": "single-stim", "word": "outlaw", "stimulus": "<p id=\"stim\">OUTLAW</p>", "conditions": [24, 1600, "v", 24000], "internal_node_id": "0.0-100.0", "trial": 3, "time_elapsed": 672350, "serialpos": 19, "key_press": -1, "wordID": 988, "type": "PRES_VIS", "trial_index": 136}, "uniqueid": "MTK2077:3UJ1CZ6IZIW3CKRPF6O0NWMFI7IS5O", "dateTime": 1516684630250}, {"current_trial": 137, "trialdata": {"rt": -1, "trial_type": "single-stim", "word": "outdoors", "stimulus": "<p id=\"stim\">OUTDOORS</p>", "conditions": [24, 1600, "v", 24000], "internal_node_id": "0.0-101.0", "trial": 3, "time_elapsed": 675151, "serialpos": 20, "key_press": -1, "wordID": 986, "type": "PRES_VIS", "trial_index": 137}, "uniqueid": "MTK2077:3UJ1CZ6IZIW3CKRPF6O0NWMFI7IS5O", "dateTime": 1516684633052}, {"current_trial": 138, "trialdata": {"rt": -1, "trial_type": "single-stim", "word": "stomach", "stimulus": "<p id=\"stim\">STOMACH</p>", "conditions": [24, 1600, "v", 24000], "internal_node_id": "0.0-102.0", "trial": 3, "time_elapsed": 677673, "serialpos": 21, "key_press": -1, "wordID": 1383, "type": "PRES_VIS", "trial_index": 138}, "uniqueid": "MTK2077:3UJ1CZ6IZIW3CKRPF6O0NWMFI7IS5O", "dateTime": 1516684635574}, {"current_trial": 139, "trialdata": {"rt": -1, "trial_type": "single-stim", "word": "monster", "stimulus": "<p id=\"stim\">MONSTER</p>", "conditions": [24, 1600, "v", 24000], "internal_node_id": "0.0-103.0", "trial": 3, "time_elapsed": 680476, "serialpos": 22, "key_press": -1, "wordID": 911, "type": "PRES_VIS", "trial_index": 139}, "uniqueid": "MTK2077:3UJ1CZ6IZIW3CKRPF6O0NWMFI7IS5O", "dateTime": 1516684638376}, {"current_trial": 140, "trialdata": {"rt": -1, "trial_type": "single-stim", "word": "tortoise", "stimulus": "<p id=\"stim\">TORTOISE</p>", "conditions": [24, 1600, "v", 24000], "internal_node_id": "0.0-104.0", "trial": 3, "time_elapsed": 682912, "serialpos": 23, "key_press": -1, "wordID": 1485, "type": "PRES_VIS", "trial_index": 140}, "uniqueid": "MTK2077:3UJ1CZ6IZIW3CKRPF6O0NWMFI7IS5O", "dateTime": 1516684640813}, {"current_trial": 141, "trialdata": {"rt": -1, "trial_type": "single-stim", "stimulus": "", "internal_node_id": "0.0-105.0-0.0", "time_elapsed": 685127, "key_press": -1, "type": "PRE_RECALL_DELAY", "trial_index": 141}, "uniqueid": "MTK2077:3UJ1CZ6IZIW3CKRPF6O0NWMFI7IS5O", "dateTime": 1516684643027}, {"current_trial": 142, "trialdata": {"rt": -1000, "trial_type": "single-audio", "stimulus": "/static/audio/400Hz.wav", "internal_node_id": "0.0-106.0", "time_elapsed": 685629, "key_press": -1, "type": "PRE_RECALL_ALERT", "trial_index": 142}, "uniqueid": "MTK2077:3UJ1CZ6IZIW3CKRPF6O0NWMFI7IS5O", "dateTime": 1516684643529}, {"current_trial": 143, "trialdata": {"rt": [8300, 8419, 11147, 13554, 15804, 18231, 19922, 23867, 25789, 28789, 32103, 34394, 36988, 41154, 45771, 51144, 54059], "recwords": ["dri", "", "drill", "apron", "stone", "lily", "hand", "lettuce", "onion", "cod", "scallop", "denim", "garlic", "binder", "river", "chest", "eagle"], "key_times": [7535, 7710, 8033, 8300, 8419, 9324, 9521, 10289, 10509, 10822, 11147, 11712, 12173, 12426, 12716, 12945, 13554, 14320, 14574, 14842, 15136, 15353, 15804, 16702, 16899, 17529, 17758, 18231, 18970, 19132, 19341, 19515, 19922, 21564, 21830, 22109, 22652, 22935, 23245, 23342, 23867, 24513, 24757, 25013, 25180, 25407, 25789, 27690, 28024, 28306, 28789, 29688, 29873, 29980, 30532, 30716, 30907, 31541, 32103, 32853, 32903, 33338, 33538, 33748, 34394, 35253, 35401, 35560, 35857, 36003, 36329, 36988, 39720, 39985, 40186, 40507, 40573, 40710, 41154, 44429, 44710, 45134, 45240, 45381, 45771, 49939, 50188, 50336, 50579, 50715, 51144, 52425, 52688, 53054, 53350, 53596, 54059, 58365, 58560, 58800, 59187, 59761, 59885], "trial_type": "free-recall", "conditions": [24, 1600, "v", 24000], "internal_node_id": "0.0-107.0-0.0", "key_presses": [68, 82, 73, 186, 186, 68, 82, 73, 76, 76, 13, 65, 80, 82, 79, 78, 13, 83, 84, 79, 78, 69, 13, 76, 73, 76, 89, 13, 72, 65, 78, 68, 13, 76, 69, 84, 84, 85, 67, 69, 13, 79, 78, 73, 79, 78, 13, 67, 79, 68, 13, 83, 67, 65, 76, 76, 79, 80, 13, 68, 69, 78, 73, 77, 13, 71, 65, 82, 76, 73, 67, 13, 66, 73, 78, 68, 69, 82, 13, 82, 73, 86, 69, 82, 13, 67, 72, 69, 83, 84, 13, 69, 65, 71, 76, 69, 13, 79, 85, 84, 68, 79, 79], "trial": 3, "time_elapsed": 745635, "type": "FREE_RECALL", "trial_index": 143}, "uniqueid": "MTK2077:3UJ1CZ6IZIW3CKRPF6O0NWMFI7IS5O", "dateTime": 1516684703539}, {"current_trial": 144, "trialdata": {"rt": 1014, "trial_type": "text", "internal_node_id": "0.0-108.0", "time_elapsed": 748659, "key_press": 32, "type": "INSTRUCTIONS", "trial_index": 144}, "uniqueid": "MTK2077:3UJ1CZ6IZIW3CKRPF6O0NWMFI7IS5O", "dateTime": 1516684706560}, {"current_trial": 145, "trialdata": {"rt": [4795, 7065, 11172, 12997, 15524, 17093, 20712, 23679], "trial_type": "math-distractor", "key_times": [2310, 2647, 3520, 4376, 4795, 6517, 6667, 7065, 10320, 10677, 11172, 12402, 12619, 12997, 14749, 14981, 15524, 16565, 16711, 17093, 20044, 20452, 20712, 22791, 23049, 23679], "responses": ["14", "11", "17", "13", "12", "11", "20", "15"], "num2": [4, 4, 8, 3, 1, 3, 4, 9, 8], "num3": [5, 6, 6, 7, 8, 7, 9, 2, 1], "conditions": [12, 800, "v", 24000], "internal_node_id": "0.0-109.0", "key_presses": [49, 51, 8, 52, 13, 49, 49, 13, 49, 55, 13, 49, 51, 13, 49, 50, 13, 49, 49, 13, 50, 48, 13, 49, 53, 13], "trial": 4, "time_elapsed": 774668, "type": "DISTRACTOR", "trial_index": 145, "num1": [5, 1, 3, 3, 3, 1, 7, 4, 1]}, "uniqueid": "MTK2077:3UJ1CZ6IZIW3CKRPF6O0NWMFI7IS5O", "dateTime": 1516684732568}, {"current_trial": 146, "trialdata": {"rt": -1, "trial_type": "single-stim", "stimulus": "<p id=\"stim\">10</p>", "internal_node_id": "0.0-110.0-0.0", "time_elapsed": 777673, "key_press": -1, "trial_index": 146}, "uniqueid": "MTK2077:3UJ1CZ6IZIW3CKRPF6O0NWMFI7IS5O", "dateTime": 1516684735573}, {"current_trial": 147, "trialdata": {"rt": -1, "trial_type": "single-stim", "stimulus": "<p id=\"stim\">9</p>", "internal_node_id": "0.0-110.0-1.0", "time_elapsed": 778678, "key_press": -1, "trial_index": 147}, "uniqueid": "MTK2077:3UJ1CZ6IZIW3CKRPF6O0NWMFI7IS5O", "dateTime": 1516684736578}, {"current_trial": 148, "trialdata": {"rt": -1, "trial_type": "single-stim", "stimulus": "<p id=\"stim\">8</p>", "internal_node_id": "0.0-110.0-2.0", "time_elapsed": 779682, "key_press": -1, "trial_index": 148}, "uniqueid": "MTK2077:3UJ1CZ6IZIW3CKRPF6O0NWMFI7IS5O", "dateTime": 1516684737582}, {"current_trial": 149, "trialdata": {"rt": -1, "trial_type": "single-stim", "stimulus": "<p id=\"stim\">7</p>", "internal_node_id": "0.0-110.0-3.0", "time_elapsed": 780686, "key_press": -1, "trial_index": 149}, "uniqueid": "MTK2077:3UJ1CZ6IZIW3CKRPF6O0NWMFI7IS5O", "dateTime": 1516684738586}, {"current_trial": 150, "trialdata": {"rt": -1, "trial_type": "single-stim", "stimulus": "<p id=\"stim\">6</p>", "internal_node_id": "0.0-110.0-4.0", "time_elapsed": 781690, "key_press": -1, "trial_index": 150}, "uniqueid": "MTK2077:3UJ1CZ6IZIW3CKRPF6O0NWMFI7IS5O", "dateTime": 1516684739591}, {"current_trial": 151, "trialdata": {"rt": -1, "trial_type": "single-stim", "stimulus": "<p id=\"stim\">5</p>", "internal_node_id": "0.0-110.0-5.0", "time_elapsed": 782694, "key_press": -1, "trial_index": 151}, "uniqueid": "MTK2077:3UJ1CZ6IZIW3CKRPF6O0NWMFI7IS5O", "dateTime": 1516684740595}, {"current_trial": 152, "trialdata": {"rt": -1, "trial_type": "single-stim", "stimulus": "<p id=\"stim\">4</p>", "internal_node_id": "0.0-110.0-6.0", "time_elapsed": 783698, "key_press": -1, "trial_index": 152}, "uniqueid": "MTK2077:3UJ1CZ6IZIW3CKRPF6O0NWMFI7IS5O", "dateTime": 1516684741598}, {"current_trial": 153, "trialdata": {"rt": -1, "trial_type": "single-stim", "stimulus": "<p id=\"stim\">3</p>", "internal_node_id": "0.0-110.0-7.0", "time_elapsed": 784701, "key_press": -1, "trial_index": 153}, "uniqueid": "MTK2077:3UJ1CZ6IZIW3CKRPF6O0NWMFI7IS5O", "dateTime": 1516684742601}, {"current_trial": 154, "trialdata": {"rt": -1, "trial_type": "single-stim", "stimulus": "<p id=\"stim\">2</p>", "internal_node_id": "0.0-110.0-8.0", "time_elapsed": 785708, "key_press": -1, "trial_index": 154}, "uniqueid": "MTK2077:3UJ1CZ6IZIW3CKRPF6O0NWMFI7IS5O", "dateTime": 1516684743608}, {"current_trial": 155, "trialdata": {"rt": -1, "trial_type": "single-stim", "stimulus": "<p id=\"stim\">1</p>", "internal_node_id": "0.0-110.0-9.0", "time_elapsed": 786711, "key_press": -1, "trial_index": 155}, "uniqueid": "MTK2077:3UJ1CZ6IZIW3CKRPF6O0NWMFI7IS5O", "dateTime": 1516684744611}, {"current_trial": 156, "trialdata": {"rt": -1, "trial_type": "single-stim", "stimulus": "<p id=\"stim\">+</p>", "internal_node_id": "0.0-111.0-0.0", "time_elapsed": 788214, "key_press": -1, "type": "FIXATION", "trial_index": 156}, "uniqueid": "MTK2077:3UJ1CZ6IZIW3CKRPF6O0NWMFI7IS5O", "dateTime": 1516684746114}, {"current_trial": 157, "trialdata": {"rt": -1, "trial_type": "single-stim", "word": "saddle", "stimulus": "<p id=\"stim\">SADDLE</p>", "conditions": [12, 800, "v", 24000], "internal_node_id": "0.0-112.0", "trial": 4, "time_elapsed": 789019, "serialpos": 0, "key_press": -1, "wordID": 1220, "type": "PRES_VIS", "trial_index": 157}, "uniqueid": "MTK2077:3UJ1CZ6IZIW3CKRPF6O0NWMFI7IS5O", "dateTime": 1516684746920}, {"current_trial": 158, "trialdata": {"rt": -1, "trial_type": "single-stim", "word": "sausage", "stimulus": "<p id=\"stim\">SAUSAGE</p>", "conditions": [12, 800, "v", 24000], "internal_node_id": "0.0-113.0", "trial": 4, "time_elapsed": 790646, "serialpos": 1, "key_press": -1, "wordID": 1237, "type": "PRES_VIS", "trial_index": 158}, "uniqueid": "MTK2077:3UJ1CZ6IZIW3CKRPF6O0NWMFI7IS5O", "dateTime": 1516684748546}, {"current_trial": 159, "trialdata": {"rt": -1, "trial_type": "single-stim", "word": "diner", "stimulus": "<p id=\"stim\">DINER</p>", "conditions": [12, 800, "v", 24000], "internal_node_id": "0.0-114.0", "trial": 4, "time_elapsed": 792624, "serialpos": 2, "key_press": -1, "wordID": 466, "type": "PRES_VIS", "trial_index": 159}, "uniqueid": "MTK2077:3UJ1CZ6IZIW3CKRPF6O0NWMFI7IS5O", "dateTime": 1516684750524}, {"current_trial": 160, "trialdata": {"rt": -1, "trial_type": "single-stim", "word": "fungus", "stimulus": "<p id=\"stim\">FUNGUS</p>", "conditions": [12, 800, "v", 24000], "internal_node_id": "0.0-115.0", "trial": 4, "time_elapsed": 794481, "serialpos": 3, "key_press": -1, "wordID": 613, "type": "PRES_VIS", "trial_index": 160}, "uniqueid": "MTK2077:3UJ1CZ6IZIW3CKRPF6O0NWMFI7IS5O", "dateTime": 1516684752382}, {"current_trial": 161, "trialdata": {"rt": -1, "trial_type": "single-stim", "word": "wasp", "stimulus": "<p id=\"stim\">WASP</p>", "conditions": [12, 800, "v", 24000], "internal_node_id": "0.0-116.0", "trial": 4, "time_elapsed": 796267, "serialpos": 4, "key_press": -1, "wordID": 1592, "type": "PRES_VIS", "trial_index": 161}, "uniqueid": "MTK2077:3UJ1CZ6IZIW3CKRPF6O0NWMFI7IS5O", "dateTime": 1516684754167}, {"current_trial": 162, "trialdata": {"rt": -1, "trial_type": "single-stim", "word": "slime", "stimulus": "<p id=\"stim\">SLIME</p>", "conditions": [12, 800, "v", 24000], "internal_node_id": "0.0-117.0", "trial": 4, "time_elapsed": 798026, "serialpos": 5, "key_press": -1, "wordID": 1326, "type": "PRES_VIS", "trial_index": 162}, "uniqueid": "MTK2077:3UJ1CZ6IZIW3CKRPF6O0NWMFI7IS5O", "dateTime": 1516684755927}, {"current_trial": 163, "trialdata": {"rt": -1, "trial_type": "single-stim", "word": "pizza", "stimulus": "<p id=\"stim\">PIZZA</p>", "conditions": [12, 800, "v", 24000], "internal_node_id": "0.0-118.0", "trial": 4, "time_elapsed": 799870, "serialpos": 6, "key_press": -1, "wordID": 1078, "type": "PRES_VIS", "trial_index": 163}, "uniqueid": "MTK2077:3UJ1CZ6IZIW3CKRPF6O0NWMFI7IS5O", "dateTime": 1516684757770}, {"current_trial": 164, "trialdata": {"rt": -1, "trial_type": "single-stim", "word": "chipmunk", "stimulus": "<p id=\"stim\">CHIPMUNK</p>", "conditions": [12, 800, "v", 24000], "internal_node_id": "0.0-119.0", "trial": 4, "time_elapsed": 801705, "serialpos": 7, "key_press": -1, "wordID": 303, "type": "PRES_VIS", "trial_index": 164}, "uniqueid": "MTK2077:3UJ1CZ6IZIW3CKRPF6O0NWMFI7IS5O", "dateTime": 1516684759605}, {"current_trial": 165, "trialdata": {"rt": -1, "trial_type": "single-stim", "word": "marsh", "stimulus": "<p id=\"stim\">MARSH</p>", "conditions": [12, 800, "v", 24000], "internal_node_id": "0.0-120.0", "trial": 4, "time_elapsed": 803449, "serialpos": 8, "key_press": -1, "wordID": 873, "type": "PRES_VIS", "trial_index": 165}, "uniqueid": "MTK2077:3UJ1CZ6IZIW3CKRPF6O0NWMFI7IS5O", "dateTime": 1516684761350}, {"current_trial": 166, "trialdata": {"rt": -1, "trial_type": "single-stim", "word": "cabbage", "stimulus": "<p id=\"stim\">CABBAGE</p>", "conditions": [12, 800, "v", 24000], "internal_node_id": "0.0-121.0", "trial": 4, "time_elapsed": 805320, "serialpos": 9, "key_press": -1, "wordID": 209, "type": "PRES_VIS", "trial_index": 166}, "uniqueid": "MTK2077:3UJ1CZ6IZIW3CKRPF6O0NWMFI7IS5O", "dateTime": 1516684763221}, {"current_trial": 167, "trialdata": {"rt": -1, "trial_type": "single-stim", "word": "friend", "stimulus": "<p id=\"stim\">FRIEND</p>", "conditions": [12, 800, "v", 24000], "internal_node_id": "0.0-122.0", "trial": 4, "time_elapsed": 806948, "serialpos": 10, "key_press": -1, "wordID": 605, "type": "PRES_VIS", "trial_index": 167}, "uniqueid": "MTK2077:3UJ1CZ6IZIW3CKRPF6O0NWMFI7IS5O", "dateTime": 1516684764848}, {"current_trial": 168, "trialdata": {"rt": -1, "trial_type": "single-stim", "word": "hamper", "stimulus": "<p id=\"stim\">HAMPER</p>", "conditions": [12, 800, "v", 24000], "internal_node_id": "0.0-123.0", "trial": 4, "time_elapsed": 808950, "serialpos": 11, "key_press": -1, "wordID": 681, "type": "PRES_VIS", "trial_index": 168}, "uniqueid": "MTK2077:3UJ1CZ6IZIW3CKRPF6O0NWMFI7IS5O", "dateTime": 1516684766850}, {"current_trial": 169, "trialdata": {"rt": -1, "trial_type": "single-stim", "stimulus": "", "internal_node_id": "0.0-124.0-0.0", "time_elapsed": 811387, "key_press": -1, "type": "PRE_RECALL_DELAY", "trial_index": 169}, "uniqueid": "MTK2077:3UJ1CZ6IZIW3CKRPF6O0NWMFI7IS5O", "dateTime": 1516684769288}, {"current_trial": 170, "trialdata": {"rt": -1000, "trial_type": "single-audio", "stimulus": "/static/audio/400Hz.wav", "internal_node_id": "0.0-125.0", "time_elapsed": 811890, "key_press": -1, "type": "PRE_RECALL_ALERT", "trial_index": 170}, "uniqueid": "MTK2077:3UJ1CZ6IZIW3CKRPF6O0NWMFI7IS5O", "dateTime": 1516684769790}, {"current_trial": 171, "trialdata": {"rt": [5051, 7083, 10490, 22781, 24926, 27239, 30180], "recwords": ["hamper", "diner", "fungus", "wasp", "pizza", "marsh", "friend"], "key_times": [3290, 3482, 3721, 4017, 4395, 4492, 5051, 5795, 6039, 6250, 6485, 6572, 7083, 8995, 9212, 9429, 9514, 9778, 9999, 10490, 17632, 17883, 18085, 18984, 19379, 19785, 20099, 21369, 21626, 22267, 22404, 22781, 23360, 23575, 24149, 24280, 24423, 24926, 25642, 25934, 26163, 26405, 26689, 27239, 28354, 28508, 28748, 28976, 29512, 29694, 30180, 30993, 31160, 31392, 32243, 32477, 32713, 32883], "trial_type": "free-recall", "conditions": [12, 800, "v", 24000], "internal_node_id": "0.0-126.0-0.0", "key_presses": [72, 65, 77, 80, 69, 82, 13, 68, 73, 78, 69, 82, 13, 70, 85, 78, 71, 85, 83, 13, 87, 65, 65, 8, 83, 80, 16, 80, 73, 8, 8, 13, 80, 73, 90, 90, 65, 13, 77, 65, 82, 83, 72, 13, 70, 82, 73, 69, 78, 68, 13, 72, 65, 77, 8, 8, 8, 8], "trial": 4, "time_elapsed": 871897, "type": "FREE_RECALL", "trial_index": 171}, "uniqueid": "MTK2077:3UJ1CZ6IZIW3CKRPF6O0NWMFI7IS5O", "dateTime": 1516684829808}, {"current_trial": 172, "trialdata": {"rt": 881, "trial_type": "text", "internal_node_id": "0.0-127.0", "time_elapsed": 874792, "key_press": 32, "type": "INSTRUCTIONS", "trial_index": 172}, "uniqueid": "MTK2077:3UJ1CZ6IZIW3CKRPF6O0NWMFI7IS5O", "dateTime": 1516684832692}, {"current_trial": 173, "trialdata": {"rt": [3879, 5278, 7452, 9996, 12090, 18649, 20921, 23476], "trial_type": "math-distractor", "key_times": [2797, 3075, 3879, 4959, 5117, 5278, 7346, 7452, 9088, 9760, 9996, 11085, 11375, 12090, 15464, 15870, 16835, 17043, 18119, 18419, 18649, 20327, 20597, 20921, 22850, 23126, 23476], "responses": ["16", "11", "8", "15", "12", "27", "10", "19"], "num2": [7, 1, 3, 7, 5, 9, 5, 6, 9], "num3": [1, 5, 1, 5, 1, 8, 1, 4, 6], "conditions": [24, 800, "v", 24000], "internal_node_id": "0.0-128.0", "key_presses": [49, 54, 13, 49, 49, 13, 56, 13, 49, 53, 13, 49, 50, 13, 49, 55, 8, 8, 50, 55, 13, 49, 48, 13, 49, 57, 13], "trial": 5, "time_elapsed": 900799, "type": "DISTRACTOR", "trial_index": 173, "num1": [8, 5, 4, 3, 6, 9, 4, 9, 9]}, "uniqueid": "MTK2077:3UJ1CZ6IZIW3CKRPF6O0NWMFI7IS5O", "dateTime": 1516684858700}, {"current_trial": 174, "trialdata": {"rt": -1, "trial_type": "single-stim", "stimulus": "<p id=\"stim\">10</p>", "internal_node_id": "0.0-129.0-0.0", "time_elapsed": 903802, "key_press": -1, "trial_index": 174}, "uniqueid": "MTK2077:3UJ1CZ6IZIW3CKRPF6O0NWMFI7IS5O", "dateTime": 1516684861703}, {"current_trial": 175, "trialdata": {"rt": -1, "trial_type": "single-stim", "stimulus": "<p id=\"stim\">9</p>", "internal_node_id": "0.0-129.0-1.0", "time_elapsed": 904807, "key_press": -1, "trial_index": 175}, "uniqueid": "MTK2077:3UJ1CZ6IZIW3CKRPF6O0NWMFI7IS5O", "dateTime": 1516684862708}, {"current_trial": 176, "trialdata": {"rt": -1, "trial_type": "single-stim", "stimulus": "<p id=\"stim\">8</p>", "internal_node_id": "0.0-129.0-2.0", "time_elapsed": 905811, "key_press": -1, "trial_index": 176}, "uniqueid": "MTK2077:3UJ1CZ6IZIW3CKRPF6O0NWMFI7IS5O", "dateTime": 1516684863711}, {"current_trial": 177, "trialdata": {"rt": -1, "trial_type": "single-stim", "stimulus": "<p id=\"stim\">7</p>", "internal_node_id": "0.0-129.0-3.0", "time_elapsed": 906812, "key_press": -1, "trial_index": 177}, "uniqueid": "MTK2077:3UJ1CZ6IZIW3CKRPF6O0NWMFI7IS5O", "dateTime": 1516684864713}, {"current_trial": 178, "trialdata": {"rt": -1, "trial_type": "single-stim", "stimulus": "<p id=\"stim\">6</p>", "internal_node_id": "0.0-129.0-4.0", "time_elapsed": 907815, "key_press": -1, "trial_index": 178}, "uniqueid": "MTK2077:3UJ1CZ6IZIW3CKRPF6O0NWMFI7IS5O", "dateTime": 1516684865715}, {"current_trial": 179, "trialdata": {"rt": -1, "trial_type": "single-stim", "stimulus": "<p id=\"stim\">5</p>", "internal_node_id": "0.0-129.0-5.0", "time_elapsed": 908820, "key_press": -1, "trial_index": 179}, "uniqueid": "MTK2077:3UJ1CZ6IZIW3CKRPF6O0NWMFI7IS5O", "dateTime": 1516684866720}, {"current_trial": 180, "trialdata": {"rt": -1, "trial_type": "single-stim", "stimulus": "<p id=\"stim\">4</p>", "internal_node_id": "0.0-129.0-6.0", "time_elapsed": 909824, "key_press": -1, "trial_index": 180}, "uniqueid": "MTK2077:3UJ1CZ6IZIW3CKRPF6O0NWMFI7IS5O", "dateTime": 1516684867724}, {"current_trial": 181, "trialdata": {"rt": -1, "trial_type": "single-stim", "stimulus": "<p id=\"stim\">3</p>", "internal_node_id": "0.0-129.0-7.0", "time_elapsed": 910828, "key_press": -1, "trial_index": 181}, "uniqueid": "MTK2077:3UJ1CZ6IZIW3CKRPF6O0NWMFI7IS5O", "dateTime": 1516684868729}, {"current_trial": 182, "trialdata": {"rt": -1, "trial_type": "single-stim", "stimulus": "<p id=\"stim\">2</p>", "internal_node_id": "0.0-129.0-8.0", "time_elapsed": 911832, "key_press": -1, "trial_index": 182}, "uniqueid": "MTK2077:3UJ1CZ6IZIW3CKRPF6O0NWMFI7IS5O", "dateTime": 1516684869732}, {"current_trial": 183, "trialdata": {"rt": -1, "trial_type": "single-stim", "stimulus": "<p id=\"stim\">1</p>", "internal_node_id": "0.0-129.0-9.0", "time_elapsed": 912834, "key_press": -1, "trial_index": 183}, "uniqueid": "MTK2077:3UJ1CZ6IZIW3CKRPF6O0NWMFI7IS5O", "dateTime": 1516684870734}, {"current_trial": 184, "trialdata": {"rt": -1, "trial_type": "single-stim", "stimulus": "<p id=\"stim\">+</p>", "internal_node_id": "0.0-130.0-0.0", "time_elapsed": 914337, "key_press": -1, "type": "FIXATION", "trial_index": 184}, "uniqueid": "MTK2077:3UJ1CZ6IZIW3CKRPF6O0NWMFI7IS5O", "dateTime": 1516684872238}, {"current_trial": 185, "trialdata": {"rt": -1, "trial_type": "single-stim", "word": "yarn", "stimulus": "<p id=\"stim\">YARN</p>", "conditions": [24, 800, "v", 24000], "internal_node_id": "0.0-131.0", "trial": 5, "time_elapsed": 915139, "serialpos": 0, "key_press": -1, "wordID": 1630, "type": "PRES_VIS", "trial_index": 185}, "uniqueid": "MTK2077:3UJ1CZ6IZIW3CKRPF6O0NWMFI7IS5O", "dateTime": 1516684873040}, {"current_trial": 186, "trialdata": {"rt": -1, "trial_type": "single-stim", "word": "panther", "stimulus": "<p id=\"stim\">PANTHER</p>", "conditions": [24, 800, "v", 24000], "internal_node_id": "0.0-132.0", "trial": 5, "time_elapsed": 916795, "serialpos": 1, "key_press": -1, "wordID": 1008, "type": "PRES_VIS", "trial_index": 186}, "uniqueid": "MTK2077:3UJ1CZ6IZIW3CKRPF6O0NWMFI7IS5O", "dateTime": 1516684874695}, {"current_trial": 187, "trialdata": {"rt": -1, "trial_type": "single-stim", "word": "virus", "stimulus": "<p id=\"stim\">VIRUS</p>", "conditions": [24, 800, "v", 24000], "internal_node_id": "0.0-133.0", "trial": 5, "time_elapsed": 918641, "serialpos": 2, "key_press": -1, "wordID": 1571, "type": "PRES_VIS", "trial_index": 187}, "uniqueid": "MTK2077:3UJ1CZ6IZIW3CKRPF6O0NWMFI7IS5O", "dateTime": 1516684876542}, {"current_trial": 188, "trialdata": {"rt": -1, "trial_type": "single-stim", "word": "server", "stimulus": "<p id=\"stim\">SERVER</p>", "conditions": [24, 800, "v", 24000], "internal_node_id": "0.0-134.0", "trial": 5, "time_elapsed": 920338, "serialpos": 3, "key_press": -1, "wordID": 1271, "type": "PRES_VIS", "trial_index": 188}, "uniqueid": "MTK2077:3UJ1CZ6IZIW3CKRPF6O0NWMFI7IS5O", "dateTime": 1516684878239}, {"current_trial": 189, "trialdata": {"rt": -1, "trial_type": "single-stim", "word": "lizard", "stimulus": "<p id=\"stim\">LIZARD</p>", "conditions": [24, 800, "v", 24000], "internal_node_id": "0.0-135.0", "trial": 5, "time_elapsed": 922149, "serialpos": 4, "key_press": -1, "wordID": 833, "type": "PRES_VIS", "trial_index": 189}, "uniqueid": "MTK2077:3UJ1CZ6IZIW3CKRPF6O0NWMFI7IS5O", "dateTime": 1516684880049}, {"current_trial": 190, "trialdata": {"rt": -1, "trial_type": "single-stim", "word": "pudding", "stimulus": "<p id=\"stim\">PUDDING</p>", "conditions": [24, 800, "v", 24000], "internal_node_id": "0.0-136.0", "trial": 5, "time_elapsed": 923989, "serialpos": 5, "key_press": -1, "wordID": 1138, "type": "PRES_VIS", "trial_index": 190}, "uniqueid": "MTK2077:3UJ1CZ6IZIW3CKRPF6O0NWMFI7IS5O", "dateTime": 1516684881890}, {"current_trial": 191, "trialdata": {"rt": -1, "trial_type": "single-stim", "word": "chemist", "stimulus": "<p id=\"stim\">CHEMIST</p>", "conditions": [24, 800, "v", 24000], "internal_node_id": "0.0-137.0", "trial": 5, "time_elapsed": 925665, "serialpos": 6, "key_press": -1, "wordID": 291, "type": "PRES_VIS", "trial_index": 191}, "uniqueid": "MTK2077:3UJ1CZ6IZIW3CKRPF6O0NWMFI7IS5O", "dateTime": 1516684883565}, {"current_trial": 192, "trialdata": {"rt": -1, "trial_type": "single-stim", "word": "sibling", "stimulus": "<p id=\"stim\">SIBLING</p>", "conditions": [24, 800, "v", 24000], "internal_node_id": "0.0-138.0", "trial": 5, "time_elapsed": 927499, "serialpos": 7, "key_press": -1, "wordID": 1300, "type": "PRES_VIS", "trial_index": 192}, "uniqueid": "MTK2077:3UJ1CZ6IZIW3CKRPF6O0NWMFI7IS5O", "dateTime": 1516684885400}, {"current_trial": 193, "trialdata": {"rt": -1, "trial_type": "single-stim", "word": "preacher", "stimulus": "<p id=\"stim\">PREACHER</p>", "conditions": [24, 800, "v", 24000], "internal_node_id": "0.0-139.0", "trial": 5, "time_elapsed": 929467, "serialpos": 8, "key_press": -1, "wordID": 1118, "type": "PRES_VIS", "trial_index": 193}, "uniqueid": "MTK2077:3UJ1CZ6IZIW3CKRPF6O0NWMFI7IS5O", "dateTime": 1516684887368}, {"current_trial": 194, "trialdata": {"rt": -1, "trial_type": "single-stim", "word": "tile", "stimulus": "<p id=\"stim\">TILE</p>", "conditions": [24, 800, "v", 24000], "internal_node_id": "0.0-140.0", "trial": 5, "time_elapsed": 931317, "serialpos": 9, "key_press": -1, "wordID": 1467, "type": "PRES_VIS", "trial_index": 194}, "uniqueid": "MTK2077:3UJ1CZ6IZIW3CKRPF6O0NWMFI7IS5O", "dateTime": 1516684889217}, {"current_trial": 195, "trialdata": {"rt": -1, "trial_type": "single-stim", "word": "brick", "stimulus": "<p id=\"stim\">BRICK</p>", "conditions": [24, 800, "v", 24000], "internal_node_id": "0.0-141.0", "trial": 5, "time_elapsed": 933296, "serialpos": 10, "key_press": -1, "wordID": 171, "type": "PRES_VIS", "trial_index": 195}, "uniqueid": "MTK2077:3UJ1CZ6IZIW3CKRPF6O0NWMFI7IS5O", "dateTime": 1516684891197}, {"current_trial": 196, "trialdata": {"rt": -1, "trial_type": "single-stim", "word": "farmer", "stimulus": "<p id=\"stim\">FARMER</p>", "conditions": [24, 800, "v", 24000], "internal_node_id": "0.0-142.0", "trial": 5, "time_elapsed": 935281, "serialpos": 11, "key_press": -1, "wordID": 552, "type": "PRES_VIS", "trial_index": 196}, "uniqueid": "MTK2077:3UJ1CZ6IZIW3CKRPF6O0NWMFI7IS5O", "dateTime": 1516684893182}, {"current_trial": 197, "trialdata": {"rt": -1, "trial_type": "single-stim", "word": "penguin", "stimulus": "<p id=\"stim\">PENGUIN</p>", "conditions": [24, 800, "v", 24000], "internal_node_id": "0.0-143.0", "trial": 5, "time_elapsed": 937275, "serialpos": 12, "key_press": -1, "wordID": 1043, "type": "PRES_VIS", "trial_index": 197}, "uniqueid": "MTK2077:3UJ1CZ6IZIW3CKRPF6O0NWMFI7IS5O", "dateTime": 1516684895175}, {"current_trial": 198, "trialdata": {"rt": -1, "trial_type": "single-stim", "word": "thief", "stimulus": "<p id=\"stim\">THIEF</p>", "conditions": [24, 800, "v", 24000], "internal_node_id": "0.0-144.0", "trial": 5, "time_elapsed": 938947, "serialpos": 13, "key_press": -1, "wordID": 1455, "type": "PRES_VIS", "trial_index": 198}, "uniqueid": "MTK2077:3UJ1CZ6IZIW3CKRPF6O0NWMFI7IS5O", "dateTime": 1516684896848}, {"current_trial": 199, "trialdata": {"rt": -1, "trial_type": "single-stim", "word": "swimmer", "stimulus": "<p id=\"stim\">SWIMMER</p>", "conditions": [24, 800, "v", 24000], "internal_node_id": "0.0-145.0", "trial": 5, "time_elapsed": 940801, "serialpos": 14, "key_press": -1, "wordID": 1419, "type": "PRES_VIS", "trial_index": 199}, "uniqueid": "MTK2077:3UJ1CZ6IZIW3CKRPF6O0NWMFI7IS5O", "dateTime": 1516684898702}, {"current_trial": 200, "trialdata": {"rt": -1, "trial_type": "single-stim", "word": "rabbit", "stimulus": "<p id=\"stim\">RABBIT</p>", "conditions": [24, 800, "v", 24000], "internal_node_id": "0.0-146.0", "trial": 5, "time_elapsed": 942694, "serialpos": 15, "key_press": -1, "wordID": 1151, "type": "PRES_VIS", "trial_index": 200}, "uniqueid": "MTK2077:3UJ1CZ6IZIW3CKRPF6O0NWMFI7IS5O", "dateTime": 1516684900594}, {"current_trial": 201, "trialdata": {"rt": -1, "trial_type": "single-stim", "word": "dolphin", "stimulus": "<p id=\"stim\">DOLPHIN</p>", "conditions": [24, 800, "v", 24000], "internal_node_id": "0.0-147.0", "trial": 5, "time_elapsed": 944576, "serialpos": 16, "key_press": -1, "wordID": 482, "type": "PRES_VIS", "trial_index": 201}, "uniqueid": "MTK2077:3UJ1CZ6IZIW3CKRPF6O0NWMFI7IS5O", "dateTime": 1516684902476}, {"current_trial": 202, "trialdata": {"rt": -1, "trial_type": "single-stim", "word": "atlas", "stimulus": "<p id=\"stim\">ATLAS</p>", "conditions": [24, 800, "v", 24000], "internal_node_id": "0.0-148.0", "trial": 5, "time_elapsed": 946231, "serialpos": 17, "key_press": -1, "wordID": 52, "type": "PRES_VIS", "trial_index": 202}, "uniqueid": "MTK2077:3UJ1CZ6IZIW3CKRPF6O0NWMFI7IS5O", "dateTime": 1516684904132}, {"current_trial": 203, "trialdata": {"rt": -1, "trial_type": "single-stim", "word": "crayon", "stimulus": "<p id=\"stim\">CRAYON</p>", "conditions": [24, 800, "v", 24000], "internal_node_id": "0.0-149.0", "trial": 5, "time_elapsed": 948055, "serialpos": 18, "key_press": -1, "wordID": 400, "type": "PRES_VIS", "trial_index": 203}, "uniqueid": "MTK2077:3UJ1CZ6IZIW3CKRPF6O0NWMFI7IS5O", "dateTime": 1516684905955}, {"current_trial": 204, "trialdata": {"rt": -1, "trial_type": "single-stim", "word": "teacher", "stimulus": "<p id=\"stim\">TEACHER</p>", "conditions": [24, 800, "v", 24000], "internal_node_id": "0.0-150.0", "trial": 5, "time_elapsed": 950002, "serialpos": 19, "key_press": -1, "wordID": 1439, "type": "PRES_VIS", "trial_index": 204}, "uniqueid": "MTK2077:3UJ1CZ6IZIW3CKRPF6O0NWMFI7IS5O", "dateTime": 1516684907902}, {"current_trial": 205, "trialdata": {"rt": -1, "trial_type": "single-stim", "word": "shark", "stimulus": "<p id=\"stim\">SHARK</p>", "conditions": [24, 800, "v", 24000], "internal_node_id": "0.0-151.0", "trial": 5, "time_elapsed": 951660, "serialpos": 20, "key_press": -1, "wordID": 1274, "type": "PRES_VIS", "trial_index": 205}, "uniqueid": "MTK2077:3UJ1CZ6IZIW3CKRPF6O0NWMFI7IS5O", "dateTime": 1516684909560}, {"current_trial": 206, "trialdata": {"rt": -1, "trial_type": "single-stim", "word": "camel", "stimulus": "<p id=\"stim\">CAMEL</p>", "conditions": [24, 800, "v", 24000], "internal_node_id": "0.0-152.0", "trial": 5, "time_elapsed": 953377, "serialpos": 21, "key_press": -1, "wordID": 222, "type": "PRES_VIS", "trial_index": 206}, "uniqueid": "MTK2077:3UJ1CZ6IZIW3CKRPF6O0NWMFI7IS5O", "dateTime": 1516684911277}, {"current_trial": 207, "trialdata": {"rt": -1, "trial_type": "single-stim", "word": "donkey", "stimulus": "<p id=\"stim\">DONKEY</p>", "conditions": [24, 800, "v", 24000], "internal_node_id": "0.0-153.0", "trial": 5, "time_elapsed": 955258, "serialpos": 22, "key_press": -1, "wordID": 483, "type": "PRES_VIS", "trial_index": 207}, "uniqueid": "MTK2077:3UJ1CZ6IZIW3CKRPF6O0NWMFI7IS5O", "dateTime": 1516684913159}, {"current_trial": 208, "trialdata": {"rt": -1, "trial_type": "single-stim", "word": "statue", "stimulus": "<p id=\"stim\">STATUE</p>", "conditions": [24, 800, "v", 24000], "internal_node_id": "0.0-154.0", "trial": 5, "time_elapsed": 956887, "serialpos": 23, "key_press": -1, "wordID": 1373, "type": "PRES_VIS", "trial_index": 208}, "uniqueid": "MTK2077:3UJ1CZ6IZIW3CKRPF6O0NWMFI7IS5O", "dateTime": 1516684914787}, {"current_trial": 209, "trialdata": {"rt": -1, "trial_type": "single-stim", "stimulus": "", "internal_node_id": "0.0-155.0-0.0", "time_elapsed": 959276, "key_press": -1, "type": "PRE_RECALL_DELAY", "trial_index": 209}, "uniqueid": "MTK2077:3UJ1CZ6IZIW3CKRPF6O0NWMFI7IS5O", "dateTime": 1516684917177}, {"current_trial": 210, "trialdata": {"rt": -1000, "trial_type": "single-audio", "stimulus": "/static/audio/400Hz.wav", "internal_node_id": "0.0-156.0", "time_elapsed": 959781, "key_press": -1, "type": "PRE_RECALL_ALERT", "trial_index": 210}, "uniqueid": "MTK2077:3UJ1CZ6IZIW3CKRPF6O0NWMFI7IS5O", "dateTime": 1516684917681}, {"current_trial": 211, "trialdata": {"rt": [2625, 4717, 6903, 12657, 16287, 18498, 20842, 23417, 25888, 27876, 33034, 35902, 38218, 42410, 45780, 48041, 51111], "recwords": ["donkey", "camel", "swimmer", "chemist", "panther", "server", "lizard", "chemist", "sibling", "tile", "farmer", "penguin", "brick", "rabbit", "atlas", "teacher", "shark"], "key_times": [1117, 1617, 1834, 2083, 2204, 2422, 2625, 3351, 3463, 3797, 4260, 4367, 4717, 5019, 5288, 5504, 5766, 5895, 6087, 6481, 6591, 6653, 6903, 11318, 11555, 11626, 11810, 11998, 12094, 12383, 12657, 13561, 13933, 14152, 14311, 14488, 14609, 14856, 14999, 15137, 15296, 15464, 15602, 15761, 16287, 16987, 17123, 17256, 17539, 17604, 17829, 18498, 19041, 19205, 19368, 20247, 20451, 20646, 20842, 21790, 21940, 21983, 22294, 22505, 22647, 22895, 23417, 23901, 24056, 24247, 24365, 24513, 24683, 24739, 25888, 27166, 27268, 27494, 27555, 27876, 31487, 31916, 32105, 32296, 32414, 32532, 33034, 33814, 33977, 34138, 34292, 34685, 34707, 35632, 35902, 37014, 37171, 37589, 37775, 37869, 38218, 39483, 39855, 40267, 40630, 40971, 41089, 41184, 41610, 42052, 42155, 42410, 43052, 43392, 43769, 43858, 44091, 44203, 44377, 44712, 44863, 45002, 45178, 45265, 45421, 45780, 46516, 46661, 46900, 47092, 47279, 47378, 47498, 48041, 48683, 48791, 48897, 49099, 49406, 49558, 49712, 49842, 50004, 50131, 50307, 50529, 50681, 51111], "trial_type": "free-recall", "conditions": [24, 800, "v", 24000], "internal_node_id": "0.0-157.0-0.0", "key_presses": [68, 79, 78, 75, 69, 89, 13, 67, 65, 77, 69, 76, 13, 83, 87, 73, 77, 77, 73, 8, 69, 82, 13, 67, 72, 69, 77, 73, 83, 84, 13, 80, 65, 78, 82, 72, 69, 8, 8, 8, 84, 72, 69, 82, 13, 83, 69, 82, 86, 69, 82, 13, 76, 73, 90, 65, 82, 68, 13, 67, 72, 69, 77, 73, 83, 84, 13, 83, 73, 66, 76, 73, 78, 71, 13, 84, 73, 76, 69, 13, 70, 65, 82, 77, 69, 82, 13, 80, 69, 78, 71, 85, 73, 78, 13, 66, 82, 73, 67, 75, 13, 82, 65, 66, 73, 8, 66, 73, 82, 8, 84, 13, 65, 76, 8, 84, 65, 76, 83, 8, 8, 8, 76, 65, 83, 13, 84, 69, 65, 67, 72, 69, 82, 13, 72, 65, 82, 75, 8, 8, 8, 8, 83, 72, 65, 82, 75, 13], "trial": 5, "time_elapsed": 1019788, "type": "FREE_RECALL", "trial_index": 211}, "uniqueid": "MTK2077:3UJ1CZ6IZIW3CKRPF6O0NWMFI7IS5O", "dateTime": 1516684977696}, {"current_trial": 212, "trialdata": {"rt": 1080, "trial_type": "text", "internal_node_id": "0.0-158.0", "time_elapsed": 1022880, "key_press": 32, "type": "INSTRUCTIONS", "trial_index": 212}, "uniqueid": "MTK2077:3UJ1CZ6IZIW3CKRPF6O0NWMFI7IS5O", "dateTime": 1516684980780}, {"current_trial": 213, "trialdata": {"rt": [3290, 5569, 9426, 11712], "trial_type": "math-distractor", "key_times": [1857, 2078, 2507, 2999, 3290, 4998, 5140, 5569, 7030, 7205, 7940, 8116, 8947, 9241, 9426, 11207, 11545, 11712], "responses": ["20", "10", "14", "17"], "num2": [9, 3, 7, 7, 6], "num3": [2, 4, 6, 9, 4], "conditions": [24, 1600, "v", 12000], "internal_node_id": "0.0-159.0", "key_presses": [50, 57, 8, 48, 13, 49, 48, 13, 49, 49, 8, 8, 49, 52, 13, 49, 55, 13], "trial": 6, "time_elapsed": 1036887, "type": "DISTRACTOR", "trial_index": 213, "num1": [9, 3, 1, 1, 9]}, "uniqueid": "MTK2077:3UJ1CZ6IZIW3CKRPF6O0NWMFI7IS5O", "dateTime": 1516684994788}, {"current_trial": 214, "trialdata": {"rt": -1, "trial_type": "single-stim", "stimulus": "<p id=\"stim\">10</p>", "internal_node_id": "0.0-160.0-0.0", "time_elapsed": 1039890, "key_press": -1, "trial_index": 214}, "uniqueid": "MTK2077:3UJ1CZ6IZIW3CKRPF6O0NWMFI7IS5O", "dateTime": 1516684997792}, {"current_trial": 215, "trialdata": {"rt": -1, "trial_type": "single-stim", "stimulus": "<p id=\"stim\">9</p>", "internal_node_id": "0.0-160.0-1.0", "time_elapsed": 1040894, "key_press": -1, "trial_index": 215}, "uniqueid": "MTK2077:3UJ1CZ6IZIW3CKRPF6O0NWMFI7IS5O", "dateTime": 1516684998795}, {"current_trial": 216, "trialdata": {"rt": -1, "trial_type": "single-stim", "stimulus": "<p id=\"stim\">8</p>", "internal_node_id": "0.0-160.0-2.0", "time_elapsed": 1041897, "key_press": -1, "trial_index": 216}, "uniqueid": "MTK2077:3UJ1CZ6IZIW3CKRPF6O0NWMFI7IS5O", "dateTime": 1516684999797}, {"current_trial": 217, "trialdata": {"rt": -1, "trial_type": "single-stim", "stimulus": "<p id=\"stim\">7</p>", "internal_node_id": "0.0-160.0-3.0", "time_elapsed": 1042900, "key_press": -1, "trial_index": 217}, "uniqueid": "MTK2077:3UJ1CZ6IZIW3CKRPF6O0NWMFI7IS5O", "dateTime": 1516685000800}, {"current_trial": 218, "trialdata": {"rt": -1, "trial_type": "single-stim", "stimulus": "<p id=\"stim\">6</p>", "internal_node_id": "0.0-160.0-4.0", "time_elapsed": 1043903, "key_press": -1, "trial_index": 218}, "uniqueid": "MTK2077:3UJ1CZ6IZIW3CKRPF6O0NWMFI7IS5O", "dateTime": 1516685001808}, {"current_trial": 219, "trialdata": {"rt": -1, "trial_type": "single-stim", "stimulus": "<p id=\"stim\">5</p>", "internal_node_id": "0.0-160.0-5.0", "time_elapsed": 1044912, "key_press": -1, "trial_index": 219}, "uniqueid": "MTK2077:3UJ1CZ6IZIW3CKRPF6O0NWMFI7IS5O", "dateTime": 1516685002813}, {"current_trial": 220, "trialdata": {"rt": -1, "trial_type": "single-stim", "stimulus": "<p id=\"stim\">4</p>", "internal_node_id": "0.0-160.0-6.0", "time_elapsed": 1045915, "key_press": -1, "trial_index": 220}, "uniqueid": "MTK2077:3UJ1CZ6IZIW3CKRPF6O0NWMFI7IS5O", "dateTime": 1516685003815}, {"current_trial": 221, "trialdata": {"rt": -1, "trial_type": "single-stim", "stimulus": "<p id=\"stim\">3</p>", "internal_node_id": "0.0-160.0-7.0", "time_elapsed": 1046918, "key_press": -1, "trial_index": 221}, "uniqueid": "MTK2077:3UJ1CZ6IZIW3CKRPF6O0NWMFI7IS5O", "dateTime": 1516685004818}, {"current_trial": 222, "trialdata": {"rt": -1, "trial_type": "single-stim", "stimulus": "<p id=\"stim\">2</p>", "internal_node_id": "0.0-160.0-8.0", "time_elapsed": 1047920, "key_press": -1, "trial_index": 222}, "uniqueid": "MTK2077:3UJ1CZ6IZIW3CKRPF6O0NWMFI7IS5O", "dateTime": 1516685005821}, {"current_trial": 223, "trialdata": {"rt": -1, "trial_type": "single-stim", "stimulus": "<p id=\"stim\">1</p>", "internal_node_id": "0.0-160.0-9.0", "time_elapsed": 1048925, "key_press": -1, "trial_index": 223}, "uniqueid": "MTK2077:3UJ1CZ6IZIW3CKRPF6O0NWMFI7IS5O", "dateTime": 1516685006826}, {"current_trial": 224, "trialdata": {"rt": -1, "trial_type": "single-stim", "stimulus": "<p id=\"stim\">+</p>", "internal_node_id": "0.0-161.0-0.0", "time_elapsed": 1050429, "key_press": -1, "type": "FIXATION", "trial_index": 224}, "uniqueid": "MTK2077:3UJ1CZ6IZIW3CKRPF6O0NWMFI7IS5O", "dateTime": 1516685008329}, {"current_trial": 225, "trialdata": {"rt": -1, "trial_type": "single-stim", "word": "grape", "stimulus": "<p id=\"stim\">GRAPE</p>", "conditions": [24, 1600, "v", 12000], "internal_node_id": "0.0-162.0", "trial": 6, "time_elapsed": 1052033, "serialpos": 0, "key_press": -1, "wordID": 653, "type": "PRES_VIS", "trial_index": 225}, "uniqueid": "MTK2077:3UJ1CZ6IZIW3CKRPF6O0NWMFI7IS5O", "dateTime": 1516685009933}, {"current_trial": 226, "trialdata": {"rt": -1, "trial_type": "single-stim", "word": "fireplace", "stimulus": "<p id=\"stim\">FIREPLACE</p>", "conditions": [24, 1600, "v", 12000], "internal_node_id": "0.0-163.0", "trial": 6, "time_elapsed": 1054757, "serialpos": 1, "key_press": -1, "wordID": 569, "type": "PRES_VIS", "trial_index": 226}, "uniqueid": "MTK2077:3UJ1CZ6IZIW3CKRPF6O0NWMFI7IS5O", "dateTime": 1516685012657}, {"current_trial": 227, "trialdata": {"rt": -1, "trial_type": "single-stim", "word": "salad", "stimulus": "<p id=\"stim\">SALAD</p>", "conditions": [24, 1600, "v", 12000], "internal_node_id": "0.0-164.0", "trial": 6, "time_elapsed": 1057345, "serialpos": 2, "key_press": -1, "wordID": 1223, "type": "PRES_VIS", "trial_index": 227}, "uniqueid": "MTK2077:3UJ1CZ6IZIW3CKRPF6O0NWMFI7IS5O", "dateTime": 1516685015245}, {"current_trial": 228, "trialdata": {"rt": -1, "trial_type": "single-stim", "word": "ozone", "stimulus": "<p id=\"stim\">OZONE</p>", "conditions": [24, 1600, "v", 12000], "internal_node_id": "0.0-165.0", "trial": 6, "time_elapsed": 1059919, "serialpos": 3, "key_press": -1, "wordID": 995, "type": "PRES_VIS", "trial_index": 228}, "uniqueid": "MTK2077:3UJ1CZ6IZIW3CKRPF6O0NWMFI7IS5O", "dateTime": 1516685017820}, {"current_trial": 229, "trialdata": {"rt": -1, "trial_type": "single-stim", "word": "smog", "stimulus": "<p id=\"stim\">SMOG</p>", "conditions": [24, 1600, "v", 12000], "internal_node_id": "0.0-166.0", "trial": 6, "time_elapsed": 1062396, "serialpos": 4, "key_press": -1, "wordID": 1329, "type": "PRES_VIS", "trial_index": 229}, "uniqueid": "MTK2077:3UJ1CZ6IZIW3CKRPF6O0NWMFI7IS5O", "dateTime": 1516685020297}, {"current_trial": 230, "trialdata": {"rt": -1, "trial_type": "single-stim", "word": "cowboy", "stimulus": "<p id=\"stim\">COWBOY</p>", "conditions": [24, 1600, "v", 12000], "internal_node_id": "0.0-167.0", "trial": 6, "time_elapsed": 1065027, "serialpos": 5, "key_press": -1, "wordID": 394, "type": "PRES_VIS", "trial_index": 230}, "uniqueid": "MTK2077:3UJ1CZ6IZIW3CKRPF6O0NWMFI7IS5O", "dateTime": 1516685022927}, {"current_trial": 231, "trialdata": {"rt": -1, "trial_type": "single-stim", "word": "county", "stimulus": "<p id=\"stim\">COUNTY</p>", "conditions": [24, 1600, "v", 12000], "internal_node_id": "0.0-168.0", "trial": 6, "time_elapsed": 1067554, "serialpos": 6, "key_press": -1, "wordID": 388, "type": "PRES_VIS", "trial_index": 231}, "uniqueid": "MTK2077:3UJ1CZ6IZIW3CKRPF6O0NWMFI7IS5O", "dateTime": 1516685025454}, {"current_trial": 232, "trialdata": {"rt": -1, "trial_type": "single-stim", "word": "silk", "stimulus": "<p id=\"stim\">SILK</p>", "conditions": [24, 1600, "v", 12000], "internal_node_id": "0.0-169.0", "trial": 6, "time_elapsed": 1069974, "serialpos": 7, "key_press": -1, "wordID": 1306, "type": "PRES_VIS", "trial_index": 232}, "uniqueid": "MTK2077:3UJ1CZ6IZIW3CKRPF6O0NWMFI7IS5O", "dateTime": 1516685027874}, {"current_trial": 233, "trialdata": {"rt": -1, "trial_type": "single-stim", "word": "buggy", "stimulus": "<p id=\"stim\">BUGGY</p>", "conditions": [24, 1600, "v", 12000], "internal_node_id": "0.0-170.0", "trial": 6, "time_elapsed": 1072612, "serialpos": 8, "key_press": -1, "wordID": 187, "type": "PRES_VIS", "trial_index": 233}, "uniqueid": "MTK2077:3UJ1CZ6IZIW3CKRPF6O0NWMFI7IS5O", "dateTime": 1516685030512}, {"current_trial": 234, "trialdata": {"rt": -1, "trial_type": "single-stim", "word": "barley", "stimulus": "<p id=\"stim\">BARLEY</p>", "conditions": [24, 1600, "v", 12000], "internal_node_id": "0.0-171.0", "trial": 6, "time_elapsed": 1075406, "serialpos": 9, "key_press": -1, "wordID": 87, "type": "PRES_VIS", "trial_index": 234}, "uniqueid": "MTK2077:3UJ1CZ6IZIW3CKRPF6O0NWMFI7IS5O", "dateTime": 1516685033306}, {"current_trial": 235, "trialdata": {"rt": -1, "trial_type": "single-stim", "word": "spool", "stimulus": "<p id=\"stim\">SPOOL</p>", "conditions": [24, 1600, "v", 12000], "internal_node_id": "0.0-172.0", "trial": 6, "time_elapsed": 1078048, "serialpos": 10, "key_press": -1, "wordID": 1355, "type": "PRES_VIS", "trial_index": 235}, "uniqueid": "MTK2077:3UJ1CZ6IZIW3CKRPF6O0NWMFI7IS5O", "dateTime": 1516685035948}, {"current_trial": 236, "trialdata": {"rt": -1, "trial_type": "single-stim", "word": "soda", "stimulus": "<p id=\"stim\">SODA</p>", "conditions": [24, 1600, "v", 12000], "internal_node_id": "0.0-173.0", "trial": 6, "time_elapsed": 1080815, "serialpos": 11, "key_press": -1, "wordID": 1340, "type": "PRES_VIS", "trial_index": 236}, "uniqueid": "MTK2077:3UJ1CZ6IZIW3CKRPF6O0NWMFI7IS5O", "dateTime": 1516685038715}, {"current_trial": 237, "trialdata": {"rt": -1, "trial_type": "single-stim", "word": "actor", "stimulus": "<p id=\"stim\">ACTOR</p>", "conditions": [24, 1600, "v", 12000], "internal_node_id": "0.0-174.0", "trial": 6, "time_elapsed": 1083541, "serialpos": 12, "key_press": -1, "wordID": 4, "type": "PRES_VIS", "trial_index": 237}, "uniqueid": "MTK2077:3UJ1CZ6IZIW3CKRPF6O0NWMFI7IS5O", "dateTime": 1516685041441}, {"current_trial": 238, "trialdata": {"rt": -1, "trial_type": "single-stim", "word": "market", "stimulus": "<p id=\"stim\">MARKET</p>", "conditions": [24, 1600, "v", 12000], "internal_node_id": "0.0-175.0", "trial": 6, "time_elapsed": 1086110, "serialpos": 13, "key_press": -1, "wordID": 870, "type": "PRES_VIS", "trial_index": 238}, "uniqueid": "MTK2077:3UJ1CZ6IZIW3CKRPF6O0NWMFI7IS5O", "dateTime": 1516685044011}, {"current_trial": 239, "trialdata": {"rt": -1, "trial_type": "single-stim", "word": "flask", "stimulus": "<p id=\"stim\">FLASK</p>", "conditions": [24, 1600, "v", 12000], "internal_node_id": "0.0-176.0", "trial": 6, "time_elapsed": 1088762, "serialpos": 14, "key_press": -1, "wordID": 575, "type": "PRES_VIS", "trial_index": 239}, "uniqueid": "MTK2077:3UJ1CZ6IZIW3CKRPF6O0NWMFI7IS5O", "dateTime": 1516685046672}, {"current_trial": 240, "trialdata": {"rt": -1, "trial_type": "single-stim", "word": "mammal", "stimulus": "<p id=\"stim\">MAMMAL</p>", "conditions": [24, 1600, "v", 12000], "internal_node_id": "0.0-177.0", "trial": 6, "time_elapsed": 1091253, "serialpos": 15, "key_press": -1, "wordID": 860, "type": "PRES_VIS", "trial_index": 240}, "uniqueid": "MTK2077:3UJ1CZ6IZIW3CKRPF6O0NWMFI7IS5O", "dateTime": 1516685049154}, {"current_trial": 241, "trialdata": {"rt": -1, "trial_type": "single-stim", "word": "primate", "stimulus": "<p id=\"stim\">PRIMATE</p>", "conditions": [24, 1600, "v", 12000], "internal_node_id": "0.0-178.0", "trial": 6, "time_elapsed": 1093750, "serialpos": 16, "key_press": -1, "wordID": 1122, "type": "PRES_VIS", "trial_index": 241}, "uniqueid": "MTK2077:3UJ1CZ6IZIW3CKRPF6O0NWMFI7IS5O", "dateTime": 1516685051650}, {"current_trial": 242, "trialdata": {"rt": -1, "trial_type": "single-stim", "word": "ankle", "stimulus": "<p id=\"stim\">ANKLE</p>", "conditions": [24, 1600, "v", 12000], "internal_node_id": "0.0-179.0", "trial": 6, "time_elapsed": 1096516, "serialpos": 17, "key_press": -1, "wordID": 23, "type": "PRES_VIS", "trial_index": 242}, "uniqueid": "MTK2077:3UJ1CZ6IZIW3CKRPF6O0NWMFI7IS5O", "dateTime": 1516685054416}, {"current_trial": 243, "trialdata": {"rt": -1, "trial_type": "single-stim", "word": "hero", "stimulus": "<p id=\"stim\">HERO</p>", "conditions": [24, 1600, "v", 12000], "internal_node_id": "0.0-180.0", "trial": 6, "time_elapsed": 1099112, "serialpos": 18, "key_press": -1, "wordID": 705, "type": "PRES_VIS", "trial_index": 243}, "uniqueid": "MTK2077:3UJ1CZ6IZIW3CKRPF6O0NWMFI7IS5O", "dateTime": 1516685057012}, {"current_trial": 244, "trialdata": {"rt": -1, "trial_type": "single-stim", "word": "suspect", "stimulus": "<p id=\"stim\">SUSPECT</p>", "conditions": [24, 1600, "v", 12000], "internal_node_id": "0.0-181.0", "trial": 6, "time_elapsed": 1101601, "serialpos": 19, "key_press": -1, "wordID": 1414, "type": "PRES_VIS", "trial_index": 244}, "uniqueid": "MTK2077:3UJ1CZ6IZIW3CKRPF6O0NWMFI7IS5O", "dateTime": 1516685059502}, {"current_trial": 245, "trialdata": {"rt": -1, "trial_type": "single-stim", "word": "empire", "stimulus": "<p id=\"stim\">EMPIRE</p>", "conditions": [24, 1600, "v", 12000], "internal_node_id": "0.0-182.0", "trial": 6, "time_elapsed": 1104274, "serialpos": 20, "key_press": -1, "wordID": 529, "type": "PRES_VIS", "trial_index": 245}, "uniqueid": "MTK2077:3UJ1CZ6IZIW3CKRPF6O0NWMFI7IS5O", "dateTime": 1516685062175}, {"current_trial": 246, "trialdata": {"rt": -1, "trial_type": "single-stim", "word": "princess", "stimulus": "<p id=\"stim\">PRINCESS</p>", "conditions": [24, 1600, "v", 12000], "internal_node_id": "0.0-183.0", "trial": 6, "time_elapsed": 1106923, "serialpos": 21, "key_press": -1, "wordID": 1124, "type": "PRES_VIS", "trial_index": 246}, "uniqueid": "MTK2077:3UJ1CZ6IZIW3CKRPF6O0NWMFI7IS5O", "dateTime": 1516685064823}, {"current_trial": 247, "trialdata": {"rt": -1, "trial_type": "single-stim", "word": "robber", "stimulus": "<p id=\"stim\">ROBBER</p>", "conditions": [24, 1600, "v", 12000], "internal_node_id": "0.0-184.0", "trial": 6, "time_elapsed": 1109627, "serialpos": 22, "key_press": -1, "wordID": 1196, "type": "PRES_VIS", "trial_index": 247}, "uniqueid": "MTK2077:3UJ1CZ6IZIW3CKRPF6O0NWMFI7IS5O", "dateTime": 1516685067528}, {"current_trial": 248, "trialdata": {"rt": -1, "trial_type": "single-stim", "word": "igloo", "stimulus": "<p id=\"stim\">IGLOO</p>", "conditions": [24, 1600, "v", 12000], "internal_node_id": "0.0-185.0", "trial": 6, "time_elapsed": 1112045, "serial