{"assignmentId": "3WT783CTPCOPUJJ2JUPDBDIP9JNBCO", "workerId": "MTK2806", "questiondata": {"origin": "Colombia", "strat-rehearsal": "71", "marital": "Single", "education": "Bachelor's degree", "ethnicity": "Hispanic", "color_depth": 24, "distracted": "No", "wrote-notes": "No", "strat-other": "", "screen_width": 1366, "avail_screen_width": 1366, "avail_screen_height": 728, "strat-image": "96", "language": "Spanish", "gender": "Female", "age": "25", "gender_other": "", "race": ["Not Reported"], "strat-categorize": "91", "pixel_depth": 24, "strat-spatial": "75", "strat-story": "87", "race_other": "", "screen_height": 768}, "bonus": 0, "hitId": "3EFNPKWBMSVYACMF2JCL99MSRR3031", "counterbalance": 1780, "useragent": "Mozilla/5.0 (Windows NT 6.1; Win64; x64) AppleWebKit/537.36 (KHTML, like Gecko) Chrome/64.0.3282.167 Safari/537.36", "eventdata": [{"eventtype": "initialized", "interval": 0, "value": null, "timestamp": 1519402975544}, {"eventtype": "window_resize", "interval": 1, "value": [1366, 678], "timestamp": 1519402975545}, {"eventtype": "focus", "interval": 23049, "value": "off", "timestamp": 1519402998594}, {"eventtype": "focus", "interval": 3246, "value": "on", "timestamp": 1519403001840}], "data": [{"current_trial": 0, "trialdata": {"rt": 2569, "trial_type": "text", "internal_node_id": "0.0-0.0", "time_elapsed": 2589, "key_press": 32, "type": "INSTRUCTIONS", "trial_index": 0}, "uniqueid": "MTK2806:3WT783CTPCOPUJJ2JUPDBDIP9JNBCO", "dateTime": 1519402979600}, {"current_trial": 1, "trialdata": {"rt": 17392, "trial_type": "text", "internal_node_id": "0.0-1.0", "time_elapsed": 20001, "key_press": 32, "type": "INSTRUCTIONS", "trial_index": 1}, "uniqueid": "MTK2806:3WT783CTPCOPUJJ2JUPDBDIP9JNBCO", "dateTime": 1519402997005}, {"current_trial": 2, "trialdata": {"rt": [9858], "trial_type": "audio-test", "responses": ["ocean"], "internal_node_id": "0.0-2.0", "time_elapsed": 29978, "type": "AUDIO_TEST", "trial_index": 2}, "uniqueid": "MTK2806:3WT783CTPCOPUJJ2JUPDBDIP9JNBCO", "dateTime": 1519403006981}, {"current_trial": 3, "trialdata": {"rt": [10126], "trial_type": "audio-test", "responses": ["crystal"], "internal_node_id": "0.0-3.0", "time_elapsed": 40144, "type": "AUDIO_TEST", "trial_index": 3}, "uniqueid": "MTK2806:3WT783CTPCOPUJJ2JUPDBDIP9JNBCO", "dateTime": 1519403017146}, {"current_trial": 4, "trialdata": {"rt": [6715], "trial_type": "audio-test", "responses": ["spice"], "internal_node_id": "0.0-4.0", "time_elapsed": 46890, "type": "AUDIO_TEST", "trial_index": 4}, "uniqueid": "MTK2806:3WT783CTPCOPUJJ2JUPDBDIP9JNBCO", "dateTime": 1519403023893}, {"current_trial": 5, "trialdata": {"rt": 24254, "trial_type": "survey-text", "responses": "{\"Q0\":\"1:00 am\",\"Q1\":\"9:00 am\",\"Q2\":\"8\"}", "internal_node_id": "0.0-5.0", "time_elapsed": 71912, "type": "SLEEP_SURVEY", "trial_index": 5}, "uniqueid": "MTK2806:3WT783CTPCOPUJJ2JUPDBDIP9JNBCO", "dateTime": 1519403048915}, {"current_trial": 6, "trialdata": {"rt": 60073, "trial_type": "text", "internal_node_id": "0.0-6.0", "time_elapsed": 132993, "key_press": 32, "type": "INSTRUCTIONS", "trial_index": 6}, "uniqueid": "MTK2806:3WT783CTPCOPUJJ2JUPDBDIP9JNBCO", "dateTime": 1519403109996}, {"current_trial": 7, "trialdata": {"rt": 18289, "trial_type": "text", "internal_node_id": "0.0-7.0", "time_elapsed": 151789, "key_press": 32, "type": "INSTRUCTIONS", "trial_index": 7}, "uniqueid": "MTK2806:3WT783CTPCOPUJJ2JUPDBDIP9JNBCO", "dateTime": 1519403128792}, {"current_trial": 8, "trialdata": {"rt": 13618, "trial_type": "text", "internal_node_id": "0.0-8.0", "time_elapsed": 165914, "key_press": 32, "type": "INSTRUCTIONS", "trial_index": 8}, "uniqueid": "MTK2806:3WT783CTPCOPUJJ2JUPDBDIP9JNBCO", "dateTime": 1519403142916}, {"current_trial": 9, "trialdata": {"rt": [2675, 6492, 13260], "trial_type": "math-distractor", "key_times": [1741, 2675, 5863, 6156, 6492, 12663, 12969, 13260], "responses": ["5", "21", "24"], "num2": [2, 7, 9, 9], "num3": [2, 7, 7, 7], "conditions": [18, 1200, "v", 18000], "internal_node_id": "0.0-9.0", "key_presses": [53, 13, 50, 49, 13, 50, 52, 13], "trial": 0, "time_elapsed": 184948, "type": "DISTRACTOR", "trial_index": 9, "num1": [1, 7, 8, 7]}, "uniqueid": "MTK2806:3WT783CTPCOPUJJ2JUPDBDIP9JNBCO", "dateTime": 1519403161951}, {"current_trial": 10, "trialdata": {"rt": -1, "trial_type": "single-stim", "stimulus": "<p id=\"stim\">10</p>", "internal_node_id": "0.0-10.0-0.0", "time_elapsed": 187963, "key_press": -1, "trial_index": 10}, "uniqueid": "MTK2806:3WT783CTPCOPUJJ2JUPDBDIP9JNBCO", "dateTime": 1519403164966}, {"current_trial": 11, "trialdata": {"rt": -1, "trial_type": "single-stim", "stimulus": "<p id=\"stim\">9</p>", "internal_node_id": "0.0-10.0-1.0", "time_elapsed": 188974, "key_press": -1, "trial_index": 11}, "uniqueid": "MTK2806:3WT783CTPCOPUJJ2JUPDBDIP9JNBCO", "dateTime": 1519403165977}, {"current_trial": 12, "trialdata": {"rt": -1, "trial_type": "single-stim", "stimulus": "<p id=\"stim\">8</p>", "internal_node_id": "0.0-10.0-2.0", "time_elapsed": 189988, "key_press": -1, "trial_index": 12}, "uniqueid": "MTK2806:3WT783CTPCOPUJJ2JUPDBDIP9JNBCO", "dateTime": 1519403166994}, {"current_trial": 13, "trialdata": {"rt": -1, "trial_type": "single-stim", "stimulus": "<p id=\"stim\">7</p>", "internal_node_id": "0.0-10.0-3.0", "time_elapsed": 190999, "key_press": -1, "trial_index": 13}, "uniqueid": "MTK2806:3WT783CTPCOPUJJ2JUPDBDIP9JNBCO", "dateTime": 1519403168002}, {"current_trial": 14, "trialdata": {"rt": -1, "trial_type": "single-stim", "stimulus": "<p id=\"stim\">6</p>", "internal_node_id": "0.0-10.0-4.0", "time_elapsed": 192009, "key_press": -1, "trial_index": 14}, "uniqueid": "MTK2806:3WT783CTPCOPUJJ2JUPDBDIP9JNBCO", "dateTime": 1519403169012}, {"current_trial": 15, "trialdata": {"rt": -1, "trial_type": "single-stim", "stimulus": "<p id=\"stim\">5</p>", "internal_node_id": "0.0-10.0-5.0", "time_elapsed": 193022, "key_press": -1, "trial_index": 15}, "uniqueid": "MTK2806:3WT783CTPCOPUJJ2JUPDBDIP9JNBCO", "dateTime": 1519403170024}, {"current_trial": 16, "trialdata": {"rt": -1, "trial_type": "single-stim", "stimulus": "<p id=\"stim\">4</p>", "internal_node_id": "0.0-10.0-6.0", "time_elapsed": 194027, "key_press": -1, "trial_index": 16}, "uniqueid": "MTK2806:3WT783CTPCOPUJJ2JUPDBDIP9JNBCO", "dateTime": 1519403171030}, {"current_trial": 17, "trialdata": {"rt": -1, "trial_type": "single-stim", "stimulus": "<p id=\"stim\">3</p>", "internal_node_id": "0.0-10.0-7.0", "time_elapsed": 195035, "key_press": -1, "trial_index": 17}, "uniqueid": "MTK2806:3WT783CTPCOPUJJ2JUPDBDIP9JNBCO", "dateTime": 1519403172038}, {"current_trial": 18, "trialdata": {"rt": -1, "trial_type": "single-stim", "stimulus": "<p id=\"stim\">2</p>", "internal_node_id": "0.0-10.0-8.0", "time_elapsed": 196044, "key_press": -1, "trial_index": 18}, "uniqueid": "MTK2806:3WT783CTPCOPUJJ2JUPDBDIP9JNBCO", "dateTime": 1519403173047}, {"current_trial": 19, "trialdata": {"rt": -1, "trial_type": "single-stim", "stimulus": "<p id=\"stim\">1</p>", "internal_node_id": "0.0-10.0-9.0", "time_elapsed": 197050, "key_press": -1, "trial_index": 19}, "uniqueid": "MTK2806:3WT783CTPCOPUJJ2JUPDBDIP9JNBCO", "dateTime": 1519403174052}, {"current_trial": 20, "trialdata": {"rt": -1, "trial_type": "single-stim", "stimulus": "<p id=\"stim\">+</p>", "internal_node_id": "0.0-11.0-0.0", "time_elapsed": 198556, "key_press": -1, "type": "FIXATION", "trial_index": 20}, "uniqueid": "MTK2806:3WT783CTPCOPUJJ2JUPDBDIP9JNBCO", "dateTime": 1519403175559}, {"current_trial": 21, "trialdata": {"rt": -1, "trial_type": "single-stim", "word": "cashew", "stimulus": "<p id=\"stim\">CASHEW</p>", "conditions": [18, 1200, "v", 18000], "internal_node_id": "0.0-12.0", "trial": 0, "time_elapsed": 199765, "serialpos": 0, "key_press": -1, "wordID": 252, "type": "PRES_VIS", "trial_index": 21}, "uniqueid": "MTK2806:3WT783CTPCOPUJJ2JUPDBDIP9JNBCO", "dateTime": 1519403176769}, {"current_trial": 22, "trialdata": {"rt": -1, "trial_type": "single-stim", "word": "snack", "stimulus": "<p id=\"stim\">SNACK</p>", "conditions": [18, 1200, "v", 18000], "internal_node_id": "0.0-13.0", "trial": 0, "time_elapsed": 201919, "serialpos": 1, "key_press": -1, "wordID": 1330, "type": "PRES_VIS", "trial_index": 22}, "uniqueid": "MTK2806:3WT783CTPCOPUJJ2JUPDBDIP9JNBCO", "dateTime": 1519403178922}, {"current_trial": 23, "trialdata": {"rt": -1, "trial_type": "single-stim", "word": "cafe", "stimulus": "<p id=\"stim\">CAFE</p>", "conditions": [18, 1200, "v", 18000], "internal_node_id": "0.0-14.0", "trial": 0, "time_elapsed": 204250, "serialpos": 2, "key_press": -1, "wordID": 215, "type": "PRES_VIS", "trial_index": 23}, "uniqueid": "MTK2806:3WT783CTPCOPUJJ2JUPDBDIP9JNBCO", "dateTime": 1519403181252}, {"current_trial": 24, "trialdata": {"rt": -1, "trial_type": "single-stim", "word": "portrait", "stimulus": "<p id=\"stim\">PORTRAIT</p>", "conditions": [18, 1200, "v", 18000], "internal_node_id": "0.0-15.0", "trial": 0, "time_elapsed": 206442, "serialpos": 3, "key_press": -1, "wordID": 1110, "type": "PRES_VIS", "trial_index": 24}, "uniqueid": "MTK2806:3WT783CTPCOPUJJ2JUPDBDIP9JNBCO", "dateTime": 1519403183444}, {"current_trial": 25, "trialdata": {"rt": -1, "trial_type": "single-stim", "word": "piston", "stimulus": "<p id=\"stim\">PISTON</p>", "conditions": [18, 1200, "v", 18000], "internal_node_id": "0.0-16.0", "trial": 0, "time_elapsed": 208679, "serialpos": 4, "key_press": -1, "wordID": 1075, "type": "PRES_VIS", "trial_index": 25}, "uniqueid": "MTK2806:3WT783CTPCOPUJJ2JUPDBDIP9JNBCO", "dateTime": 1519403185682}, {"current_trial": 26, "trialdata": {"rt": -1, "trial_type": "single-stim", "word": "expert", "stimulus": "<p id=\"stim\">EXPERT</p>", "conditions": [18, 1200, "v", 18000], "internal_node_id": "0.0-17.0", "trial": 0, "time_elapsed": 210984, "serialpos": 5, "key_press": -1, "wordID": 542, "type": "PRES_VIS", "trial_index": 26}, "uniqueid": "MTK2806:3WT783CTPCOPUJJ2JUPDBDIP9JNBCO", "dateTime": 1519403187987}, {"current_trial": 27, "trialdata": {"rt": -1, "trial_type": "single-stim", "word": "twig", "stimulus": "<p id=\"stim\">TWIG</p>", "conditions": [18, 1200, "v", 18000], "internal_node_id": "0.0-18.0", "trial": 0, "time_elapsed": 213181, "serialpos": 6, "key_press": -1, "wordID": 1526, "type": "PRES_VIS", "trial_index": 27}, "uniqueid": "MTK2806:3WT783CTPCOPUJJ2JUPDBDIP9JNBCO", "dateTime": 1519403190184}, {"current_trial": 28, "trialdata": {"rt": -1, "trial_type": "single-stim", "word": "dandruff", "stimulus": "<p id=\"stim\">DANDRUFF</p>", "conditions": [18, 1200, "v", 18000], "internal_node_id": "0.0-19.0", "trial": 0, "time_elapsed": 215409, "serialpos": 7, "key_press": -1, "wordID": 438, "type": "PRES_VIS", "trial_index": 28}, "uniqueid": "MTK2806:3WT783CTPCOPUJJ2JUPDBDIP9JNBCO", "dateTime": 1519403192411}, {"current_trial": 29, "trialdata": {"rt": -1, "trial_type": "single-stim", "word": "carriage", "stimulus": "<p id=\"stim\">CARRIAGE</p>", "conditions": [18, 1200, "v", 18000], "internal_node_id": "0.0-20.0", "trial": 0, "time_elapsed": 217610, "serialpos": 8, "key_press": -1, "wordID": 247, "type": "PRES_VIS", "trial_index": 29}, "uniqueid": "MTK2806:3WT783CTPCOPUJJ2JUPDBDIP9JNBCO", "dateTime": 1519403194612}, {"current_trial": 30, "trialdata": {"rt": -1, "trial_type": "single-stim", "word": "lava", "stimulus": "<p id=\"stim\">LAVA</p>", "conditions": [18, 1200, "v", 18000], "internal_node_id": "0.0-21.0", "trial": 0, "time_elapsed": 219936, "serialpos": 9, "key_press": -1, "wordID": 803, "type": "PRES_VIS", "trial_index": 30}, "uniqueid": "MTK2806:3WT783CTPCOPUJJ2JUPDBDIP9JNBCO", "dateTime": 1519403196939}, {"current_trial": 31, "trialdata": {"rt": -1, "trial_type": "single-stim", "word": "lagoon", "stimulus": "<p id=\"stim\">LAGOON</p>", "conditions": [18, 1200, "v", 18000], "internal_node_id": "0.0-22.0", "trial": 0, "time_elapsed": 221993, "serialpos": 10, "key_press": -1, "wordID": 794, "type": "PRES_VIS", "trial_index": 31}, "uniqueid": "MTK2806:3WT783CTPCOPUJJ2JUPDBDIP9JNBCO", "dateTime": 1519403198996}, {"current_trial": 32, "trialdata": {"rt": -1, "trial_type": "single-stim", "word": "flag", "stimulus": "<p id=\"stim\">FLAG</p>", "conditions": [18, 1200, "v", 18000], "internal_node_id": "0.0-23.0", "trial": 0, "time_elapsed": 224359, "serialpos": 11, "key_press": -1, "wordID": 572, "type": "PRES_VIS", "trial_index": 32}, "uniqueid": "MTK2806:3WT783CTPCOPUJJ2JUPDBDIP9JNBCO", "dateTime": 1519403201361}, {"current_trial": 33, "trialdata": {"rt": -1, "trial_type": "single-stim", "word": "denim", "stimulus": "<p id=\"stim\">DENIM</p>", "conditions": [18, 1200, "v", 18000], "internal_node_id": "0.0-24.0", "trial": 0, "time_elapsed": 226579, "serialpos": 12, "key_press": -1, "wordID": 445, "type": "PRES_VIS", "trial_index": 33}, "uniqueid": "MTK2806:3WT783CTPCOPUJJ2JUPDBDIP9JNBCO", "dateTime": 1519403203583}, {"current_trial": 34, "trialdata": {"rt": -1, "trial_type": "single-stim", "word": "tunnel", "stimulus": "<p id=\"stim\">TUNNEL</p>", "conditions": [18, 1200, "v", 18000], "internal_node_id": "0.0-25.0", "trial": 0, "time_elapsed": 228976, "serialpos": 13, "key_press": -1, "wordID": 1518, "type": "PRES_VIS", "trial_index": 34}, "uniqueid": "MTK2806:3WT783CTPCOPUJJ2JUPDBDIP9JNBCO", "dateTime": 1519403205979}, {"current_trial": 35, "trialdata": {"rt": -1, "trial_type": "single-stim", "word": "salmon", "stimulus": "<p id=\"stim\">SALMON</p>", "conditions": [18, 1200, "v", 18000], "internal_node_id": "0.0-26.0", "trial": 0, "time_elapsed": 231142, "serialpos": 14, "key_press": -1, "wordID": 1226, "type": "PRES_VIS", "trial_index": 35}, "uniqueid": "MTK2806:3WT783CTPCOPUJJ2JUPDBDIP9JNBCO", "dateTime": 1519403208145}, {"current_trial": 36, "trialdata": {"rt": -1, "trial_type": "single-stim", "word": "college", "stimulus": "<p id=\"stim\">COLLEGE</p>", "conditions": [18, 1200, "v", 18000], "internal_node_id": "0.0-27.0", "trial": 0, "time_elapsed": 233319, "serialpos": 15, "key_press": -1, "wordID": 345, "type": "PRES_VIS", "trial_index": 36}, "uniqueid": "MTK2806:3WT783CTPCOPUJJ2JUPDBDIP9JNBCO", "dateTime": 1519403210322}, {"current_trial": 37, "trialdata": {"rt": -1, "trial_type": "single-stim", "word": "county", "stimulus": "<p id=\"stim\">COUNTY</p>", "conditions": [18, 1200, "v", 18000], "internal_node_id": "0.0-28.0", "trial": 0, "time_elapsed": 235587, "serialpos": 16, "key_press": -1, "wordID": 388, "type": "PRES_VIS", "trial_index": 37}, "uniqueid": "MTK2806:3WT783CTPCOPUJJ2JUPDBDIP9JNBCO", "dateTime": 1519403212590}, {"current_trial": 38, "trialdata": {"rt": -1, "trial_type": "single-stim", "word": "diner", "stimulus": "<p id=\"stim\">DINER</p>", "conditions": [18, 1200, "v", 18000], "internal_node_id": "0.0-29.0", "trial": 0, "time_elapsed": 237778, "serialpos": 17, "key_press": -1, "wordID": 466, "type": "PRES_VIS", "trial_index": 38}, "uniqueid": "MTK2806:3WT783CTPCOPUJJ2JUPDBDIP9JNBCO", "dateTime": 1519403214781}, {"current_trial": 39, "trialdata": {"rt": -1, "trial_type": "single-stim", "stimulus": "", "internal_node_id": "0.0-30.0-0.0", "time_elapsed": 240036, "key_press": -1, "type": "PRE_RECALL_DELAY", "trial_index": 39}, "uniqueid": "MTK2806:3WT783CTPCOPUJJ2JUPDBDIP9JNBCO", "dateTime": 1519403217039}, {"current_trial": 40, "trialdata": {"rt": -1000, "trial_type": "single-audio", "stimulus": "/static/audio/400Hz.wav", "internal_node_id": "0.0-31.0", "time_elapsed": 240551, "key_press": -1, "type": "PRE_RECALL_ALERT", "trial_index": 40}, "uniqueid": "MTK2806:3WT783CTPCOPUJJ2JUPDBDIP9JNBCO", "dateTime": 1519403217554}, {"current_trial": 41, "trialdata": {"rt": [4253, 6647, 8659, 12168, 13897, 16383, 18492, 22745, 30223, 35788, 40197, 41500, 59417], "recwords": ["diner", "county", "college", "denim", "flag", "salmon", "tunnel", "lava", "carriage", "dandruff", "cashew", "snack", "piston"], "key_times": [2489, 2670, 3396, 3507, 3678, 4253, 5022, 5202, 5478, 5714, 5927, 6092, 6647, 7028, 7276, 7520, 7683, 7786, 7983, 8127, 8659, 10506, 10643, 10803, 11147, 11505, 12168, 12720, 12883, 13041, 13224, 13897, 15000, 15164, 15304, 15514, 15751, 15936, 16383, 16912, 17059, 17291, 17448, 17554, 17748, 18492, 19576, 19660, 20259, 20451, 20754, 20861, 21087, 21242, 22745, 27639, 27840, 28059, 28236, 28444, 28510, 28718, 28820, 30223, 32940, 33070, 33238, 33345, 33586, 33745, 34187, 34792, 34933, 35407, 35788, 38935, 39063, 39242, 39424, 39576, 39815, 40197, 40488, 40640, 40771, 40982, 41113, 41500, 57969, 58146, 58277, 58535, 58736, 58940, 59417], "trial_type": "free-recall", "conditions": [18, 1200, "v", 18000], "internal_node_id": "0.0-32.0-0.0", "key_presses": [68, 73, 78, 69, 82, 13, 67, 79, 85, 78, 84, 89, 13, 67, 79, 76, 76, 69, 71, 69, 13, 68, 69, 78, 73, 77, 13, 70, 76, 65, 71, 13, 83, 65, 76, 77, 79, 78, 13, 84, 85, 78, 78, 69, 76, 13, 86, 65, 8, 8, 76, 65, 86, 65, 13, 67, 65, 82, 82, 73, 65, 71, 69, 13, 68, 65, 78, 68, 82, 85, 71, 8, 70, 70, 13, 67, 65, 83, 72, 69, 87, 13, 83, 78, 65, 67, 75, 13, 80, 73, 83, 84, 79, 78, 13], "trial": 0, "time_elapsed": 300570, "type": "FREE_RECALL", "trial_index": 41}, "uniqueid": "MTK2806:3WT783CTPCOPUJJ2JUPDBDIP9JNBCO", "dateTime": 1519403277581}, {"current_trial": 42, "trialdata": {"rt": 2374, "trial_type": "text", "internal_node_id": "0.0-33.0", "time_elapsed": 304957, "key_press": 32, "type": "INSTRUCTIONS", "trial_index": 42}, "uniqueid": "MTK2806:3WT783CTPCOPUJJ2JUPDBDIP9JNBCO", "dateTime": 1519403281960}, {"current_trial": 43, "trialdata": {"rt": [2506, 13806], "trial_type": "math-distractor", "key_times": [2110, 2506, 4444, 4982, 5669, 6254, 10825, 11093, 13248, 13636, 13806], "responses": ["9", "17"], "num2": [2, 6, 5], "num3": [1, 2, 9], "conditions": [18, 1200, "v", 18000], "internal_node_id": "0.0-34.0", "key_presses": [57, 13, 49, 56, 8, 55, 8, 8, 49, 55, 13], "trial": 1, "time_elapsed": 324974, "type": "DISTRACTOR", "trial_index": 43, "num1": [6, 9, 7]}, "uniqueid": "MTK2806:3WT783CTPCOPUJJ2JUPDBDIP9JNBCO", "dateTime": 1519403301977}, {"current_trial": 44, "trialdata": {"rt": -1, "trial_type": "single-stim", "stimulus": "<p id=\"stim\">10</p>", "internal_node_id": "0.0-35.0-0.0", "time_elapsed": 327981, "key_press": -1, "trial_index": 44}, "uniqueid": "MTK2806:3WT783CTPCOPUJJ2JUPDBDIP9JNBCO", "dateTime": 1519403304984}, {"current_trial": 45, "trialdata": {"rt": -1, "trial_type": "single-stim", "stimulus": "<p id=\"stim\">9</p>", "internal_node_id": "0.0-35.0-1.0", "time_elapsed": 328989, "key_press": -1, "trial_index": 45}, "uniqueid": "MTK2806:3WT783CTPCOPUJJ2JUPDBDIP9JNBCO", "dateTime": 1519403305992}, {"current_trial": 46, "trialdata": {"rt": -1, "trial_type": "single-stim", "stimulus": "<p id=\"stim\">8</p>", "internal_node_id": "0.0-35.0-2.0", "time_elapsed": 329994, "key_press": -1, "trial_index": 46}, "uniqueid": "MTK2806:3WT783CTPCOPUJJ2JUPDBDIP9JNBCO", "dateTime": 1519403306997}, {"current_trial": 47, "trialdata": {"rt": -1, "trial_type": "single-stim", "stimulus": "<p id=\"stim\">7</p>", "internal_node_id": "0.0-35.0-3.0", "time_elapsed": 331000, "key_press": -1, "trial_index": 47}, "uniqueid": "MTK2806:3WT783CTPCOPUJJ2JUPDBDIP9JNBCO", "dateTime": 1519403308002}, {"current_trial": 48, "trialdata": {"rt": -1, "trial_type": "single-stim", "stimulus": "<p id=\"stim\">6</p>", "internal_node_id": "0.0-35.0-4.0", "time_elapsed": 332006, "key_press": -1, "trial_index": 48}, "uniqueid": "MTK2806:3WT783CTPCOPUJJ2JUPDBDIP9JNBCO", "dateTime": 1519403309009}, {"current_trial": 49, "trialdata": {"rt": -1, "trial_type": "single-stim", "stimulus": "<p id=\"stim\">5</p>", "internal_node_id": "0.0-35.0-5.0", "time_elapsed": 333013, "key_press": -1, "trial_index": 49}, "uniqueid": "MTK2806:3WT783CTPCOPUJJ2JUPDBDIP9JNBCO", "dateTime": 1519403310015}, {"current_trial": 50, "trialdata": {"rt": -1, "trial_type": "single-stim", "stimulus": "<p id=\"stim\">4</p>", "internal_node_id": "0.0-35.0-6.0", "time_elapsed": 334026, "key_press": -1, "trial_index": 50}, "uniqueid": "MTK2806:3WT783CTPCOPUJJ2JUPDBDIP9JNBCO", "dateTime": 1519403311029}, {"current_trial": 51, "trialdata": {"rt": -1, "trial_type": "single-stim", "stimulus": "<p id=\"stim\">3</p>", "internal_node_id": "0.0-35.0-7.0", "time_elapsed": 335034, "key_press": -1, "trial_index": 51}, "uniqueid": "MTK2806:3WT783CTPCOPUJJ2JUPDBDIP9JNBCO", "dateTime": 1519403312036}, {"current_trial": 52, "trialdata": {"rt": -1, "trial_type": "single-stim", "stimulus": "<p id=\"stim\">2</p>", "internal_node_id": "0.0-35.0-8.0", "time_elapsed": 336041, "key_press": -1, "trial_index": 52}, "uniqueid": "MTK2806:3WT783CTPCOPUJJ2JUPDBDIP9JNBCO", "dateTime": 1519403313044}, {"current_trial": 53, "trialdata": {"rt": -1, "trial_type": "single-stim", "stimulus": "<p id=\"stim\">1</p>", "internal_node_id": "0.0-35.0-9.0", "time_elapsed": 337047, "key_press": -1, "trial_index": 53}, "uniqueid": "MTK2806:3WT783CTPCOPUJJ2JUPDBDIP9JNBCO", "dateTime": 1519403314050}, {"current_trial": 54, "trialdata": {"rt": -1, "trial_type": "single-stim", "stimulus": "<p id=\"stim\">+</p>", "internal_node_id": "0.0-36.0-0.0", "time_elapsed": 338552, "key_press": -1, "type": "FIXATION", "trial_index": 54}, "uniqueid": "MTK2806:3WT783CTPCOPUJJ2JUPDBDIP9JNBCO", "dateTime": 1519403315554}, {"current_trial": 55, "trialdata": {"rt": -1, "trial_type": "single-stim", "word": "tutu", "stimulus": "<p id=\"stim\">TUTU</p>", "conditions": [18, 1200, "v", 18000], "internal_node_id": "0.0-37.0", "trial": 1, "time_elapsed": 339756, "serialpos": 0, "key_press": -1, "wordID": 1523, "type": "PRES_VIS", "trial_index": 55}, "uniqueid": "MTK2806:3WT783CTPCOPUJJ2JUPDBDIP9JNBCO", "dateTime": 1519403316759}, {"current_trial": 56, "trialdata": {"rt": -1, "trial_type": "single-stim", "word": "dime", "stimulus": "<p id=\"stim\">DIME</p>", "conditions": [18, 1200, "v", 18000], "internal_node_id": "0.0-38.0", "trial": 1, "time_elapsed": 341914, "serialpos": 1, "key_press": -1, "wordID": 465, "type": "PRES_VIS", "trial_index": 56}, "uniqueid": "MTK2806:3WT783CTPCOPUJJ2JUPDBDIP9JNBCO", "dateTime": 1519403318917}, {"current_trial": 57, "trialdata": {"rt": -1, "trial_type": "single-stim", "word": "clam", "stimulus": "<p id=\"stim\">CLAM</p>", "conditions": [18, 1200, "v", 18000], "internal_node_id": "0.0-39.0", "trial": 1, "time_elapsed": 344247, "serialpos": 2, "key_press": -1, "wordID": 314, "type": "PRES_VIS", "trial_index": 57}, "uniqueid": "MTK2806:3WT783CTPCOPUJJ2JUPDBDIP9JNBCO", "dateTime": 1519403321250}, {"current_trial": 58, "trialdata": {"rt": -1, "trial_type": "single-stim", "word": "mailman", "stimulus": "<p id=\"stim\">MAILMAN</p>", "conditions": [18, 1200, "v", 18000], "internal_node_id": "0.0-40.0", "trial": 1, "time_elapsed": 346325, "serialpos": 3, "key_press": -1, "wordID": 857, "type": "PRES_VIS", "trial_index": 58}, "uniqueid": "MTK2806:3WT783CTPCOPUJJ2JUPDBDIP9JNBCO", "dateTime": 1519403323328}, {"current_trial": 59, "trialdata": {"rt": -1, "trial_type": "single-stim", "word": "braces", "stimulus": "<p id=\"stim\">BRACES</p>", "conditions": [18, 1200, "v", 18000], "internal_node_id": "0.0-41.0", "trial": 1, "time_elapsed": 348464, "serialpos": 4, "key_press": -1, "wordID": 163, "type": "PRES_VIS", "trial_index": 59}, "uniqueid": "MTK2806:3WT783CTPCOPUJJ2JUPDBDIP9JNBCO", "dateTime": 1519403325468}, {"current_trial": 60, "trialdata": {"rt": -1, "trial_type": "single-stim", "word": "sheriff", "stimulus": "<p id=\"stim\">SHERIFF</p>", "conditions": [18, 1200, "v", 18000], "internal_node_id": "0.0-42.0", "trial": 1, "time_elapsed": 350599, "serialpos": 5, "key_press": -1, "wordID": 1283, "type": "PRES_VIS", "trial_index": 60}, "uniqueid": "MTK2806:3WT783CTPCOPUJJ2JUPDBDIP9JNBCO", "dateTime": 1519403327602}, {"current_trial": 61, "trialdata": {"rt": -1, "trial_type": "single-stim", "word": "tweezers", "stimulus": "<p id=\"stim\">TWEEZERS</p>", "conditions": [18, 1200, "v", 18000], "internal_node_id": "0.0-43.0", "trial": 1, "time_elapsed": 352680, "serialpos": 6, "key_press": -1, "wordID": 1525, "type": "PRES_VIS", "trial_index": 61}, "uniqueid": "MTK2806:3WT783CTPCOPUJJ2JUPDBDIP9JNBCO", "dateTime": 1519403329683}, {"current_trial": 62, "trialdata": {"rt": -1, "trial_type": "single-stim", "word": "handbag", "stimulus": "<p id=\"stim\">HANDBAG</p>", "conditions": [18, 1200, "v", 18000], "internal_node_id": "0.0-44.0", "trial": 1, "time_elapsed": 354760, "serialpos": 7, "key_press": -1, "wordID": 683, "type": "PRES_VIS", "trial_index": 62}, "uniqueid": "MTK2806:3WT783CTPCOPUJJ2JUPDBDIP9JNBCO", "dateTime": 1519403331762}, {"current_trial": 63, "trialdata": {"rt": -1, "trial_type": "single-stim", "word": "crab", "stimulus": "<p id=\"stim\">CRAB</p>", "conditions": [18, 1200, "v", 18000], "internal_node_id": "0.0-45.0", "trial": 1, "time_elapsed": 356852, "serialpos": 8, "key_press": -1, "wordID": 396, "type": "PRES_VIS", "trial_index": 63}, "uniqueid": "MTK2806:3WT783CTPCOPUJJ2JUPDBDIP9JNBCO", "dateTime": 1519403333854}, {"current_trial": 64, "trialdata": {"rt": -1, "trial_type": "single-stim", "word": "brandy", "stimulus": "<p id=\"stim\">BRANDY</p>", "conditions": [18, 1200, "v", 18000], "internal_node_id": "0.0-46.0", "trial": 1, "time_elapsed": 359127, "serialpos": 9, "key_press": -1, "wordID": 168, "type": "PRES_VIS", "trial_index": 64}, "uniqueid": "MTK2806:3WT783CTPCOPUJJ2JUPDBDIP9JNBCO", "dateTime": 1519403336129}, {"current_trial": 65, "trialdata": {"rt": -1, "trial_type": "single-stim", "word": "ulcer", "stimulus": "<p id=\"stim\">ULCER</p>", "conditions": [18, 1200, "v", 18000], "internal_node_id": "0.0-47.0", "trial": 1, "time_elapsed": 361220, "serialpos": 10, "key_press": -1, "wordID": 1532, "type": "PRES_VIS", "trial_index": 65}, "uniqueid": "MTK2806:3WT783CTPCOPUJJ2JUPDBDIP9JNBCO", "dateTime": 1519403338224}, {"current_trial": 66, "trialdata": {"rt": -1, "trial_type": "single-stim", "word": "scribble", "stimulus": "<p id=\"stim\">SCRIBBLE</p>", "conditions": [18, 1200, "v", 18000], "internal_node_id": "0.0-48.0", "trial": 1, "time_elapsed": 363599, "serialpos": 11, "key_press": -1, "wordID": 1255, "type": "PRES_VIS", "trial_index": 66}, "uniqueid": "MTK2806:3WT783CTPCOPUJJ2JUPDBDIP9JNBCO", "dateTime": 1519403340601}, {"current_trial": 67, "trialdata": {"rt": -1, "trial_type": "single-stim", "word": "sparrow", "stimulus": "<p id=\"stim\">SPARROW</p>", "conditions": [18, 1200, "v", 18000], "internal_node_id": "0.0-49.0", "trial": 1, "time_elapsed": 365860, "serialpos": 12, "key_press": -1, "wordID": 1346, "type": "PRES_VIS", "trial_index": 67}, "uniqueid": "MTK2806:3WT783CTPCOPUJJ2JUPDBDIP9JNBCO", "dateTime": 1519403342863}, {"current_trial": 68, "trialdata": {"rt": -1, "trial_type": "single-stim", "word": "drawing", "stimulus": "<p id=\"stim\">DRAWING</p>", "conditions": [18, 1200, "v", 18000], "internal_node_id": "0.0-50.0", "trial": 1, "time_elapsed": 368051, "serialpos": 13, "key_press": -1, "wordID": 493, "type": "PRES_VIS", "trial_index": 68}, "uniqueid": "MTK2806:3WT783CTPCOPUJJ2JUPDBDIP9JNBCO", "dateTime": 1519403345066}, {"current_trial": 69, "trialdata": {"rt": -1, "trial_type": "single-stim", "word": "wagon", "stimulus": "<p id=\"stim\">WAGON</p>", "conditions": [18, 1200, "v", 18000], "internal_node_id": "0.0-51.0", "trial": 1, "time_elapsed": 370424, "serialpos": 14, "key_press": -1, "wordID": 1577, "type": "PRES_VIS", "trial_index": 69}, "uniqueid": "MTK2806:3WT783CTPCOPUJJ2JUPDBDIP9JNBCO", "dateTime": 1519403347427}, {"current_trial": 70, "trialdata": {"rt": -1, "trial_type": "single-stim", "word": "husband", "stimulus": "<p id=\"stim\">HUSBAND</p>", "conditions": [18, 1200, "v", 18000], "internal_node_id": "0.0-52.0", "trial": 1, "time_elapsed": 372627, "serialpos": 15, "key_press": -1, "wordID": 727, "type": "PRES_VIS", "trial_index": 70}, "uniqueid": "MTK2806:3WT783CTPCOPUJJ2JUPDBDIP9JNBCO", "dateTime": 1519403349630}, {"current_trial": 71, "trialdata": {"rt": -1, "trial_type": "single-stim", "word": "rattle", "stimulus": "<p id=\"stim\">RATTLE</p>", "conditions": [18, 1200, "v", 18000], "internal_node_id": "0.0-53.0", "trial": 1, "time_elapsed": 374682, "serialpos": 16, "key_press": -1, "wordID": 1169, "type": "PRES_VIS", "trial_index": 71}, "uniqueid": "MTK2806:3WT783CTPCOPUJJ2JUPDBDIP9JNBCO", "dateTime": 1519403351684}, {"current_trial": 72, "trialdata": {"rt": -1, "trial_type": "single-stim", "word": "iceberg", "stimulus": "<p id=\"stim\">ICEBERG</p>", "conditions": [18, 1200, "v", 18000], "internal_node_id": "0.0-54.0", "trial": 1, "time_elapsed": 376818, "serialpos": 17, "key_press": -1, "wordID": 730, "type": "PRES_VIS", "trial_index": 72}, "uniqueid": "MTK2806:3WT783CTPCOPUJJ2JUPDBDIP9JNBCO", "dateTime": 1519403353821}, {"current_trial": 73, "trialdata": {"rt": -1, "trial_type": "single-stim", "stimulus": "", "internal_node_id": "0.0-55.0-0.0", "time_elapsed": 379030, "key_press": -1, "type": "PRE_RECALL_DELAY", "trial_index": 73}, "uniqueid": "MTK2806:3WT783CTPCOPUJJ2JUPDBDIP9JNBCO", "dateTime": 1519403356033}, {"current_trial": 74, "trialdata": {"rt": -1000, "trial_type": "single-audio", "stimulus": "/static/audio/400Hz.wav", "internal_node_id": "0.0-56.0", "time_elapsed": 379536, "key_press": -1, "type": "PRE_RECALL_ALERT", "trial_index": 74}, "uniqueid": "MTK2806:3WT783CTPCOPUJJ2JUPDBDIP9JNBCO", "dateTime": 1519403356538}, {"current_trial": 75, "trialdata": {"rt": [4387, 7147, 10923, 13214, 16503, 19506, 20997, 30263], "recwords": ["iceberg", "sheriff", "handbag", "tweezers", "tutu", "mailman", "crab", "dime"], "key_times": [2068, 2183, 2411, 2856, 2972, 3102, 3748, 4387, 5470, 5679, 5850, 5994, 6398, 6504, 6655, 7147, 8484, 8591, 8756, 8845, 9198, 9309, 9683, 9864, 10116, 10229, 10385, 10923, 11452, 11703, 11959, 12129, 12373, 12671, 12820, 12995, 13214, 15575, 15756, 15885, 16015, 16503, 17009, 17820, 18121, 18391, 18596, 18710, 18841, 19506, 19788, 20130, 20237, 20445, 20997, 29325, 29489, 29731, 29828, 30263], "trial_type": "free-recall", "conditions": [18, 1200, "v", 18000], "internal_node_id": "0.0-57.0-0.0", "key_presses": [73, 67, 69, 66, 69, 82, 71, 13, 83, 72, 69, 82, 73, 70, 70, 13, 72, 65, 78, 68, 71, 65, 8, 8, 66, 65, 71, 13, 84, 87, 69, 69, 90, 69, 82, 83, 13, 84, 85, 84, 85, 13, 77, 65, 73, 76, 77, 65, 78, 13, 67, 82, 65, 66, 13, 68, 73, 77, 69, 13], "trial": 1, "time_elapsed": 439552, "type": "FREE_RECALL", "trial_index": 75}, "uniqueid": "MTK2806:3WT783CTPCOPUJJ2JUPDBDIP9JNBCO", "dateTime": 1519403416572}, {"current_trial": 76, "trialdata": {"rt": 3184, "trial_type": "text", "internal_node_id": "0.0-58.0", "time_elapsed": 444760, "key_press": 32, "type": "INSTRUCTIONS", "trial_index": 76}, "uniqueid": "MTK2806:3WT783CTPCOPUJJ2JUPDBDIP9JNBCO", "dateTime": 1519403421762}, {"current_trial": 77, "trialdata": {"rt": [3218, 6100, 8112, 10603], "trial_type": "math-distractor", "key_times": [2249, 2655, 3218, 5440, 5816, 6100, 7828, 8112, 9900, 10323, 10603], "responses": ["17", "13", "9", "17"], "num2": [5, 6, 2, 6, 6], "num3": [6, 5, 1, 5, 9], "conditions": [24, 1600, "v", 12000], "internal_node_id": "0.0-59.0", "key_presses": [49, 55, 13, 49, 51, 13, 57, 13, 49, 55, 13], "trial": 2, "time_elapsed": 457779, "type": "DISTRACTOR", "trial_index": 77, "num1": [6, 2, 6, 6, 1]}, "uniqueid": "MTK2806:3WT783CTPCOPUJJ2JUPDBDIP9JNBCO", "dateTime": 1519403434781}, {"current_trial": 78, "trialdata": {"rt": -1, "trial_type": "single-stim", "stimulus": "<p id=\"stim\">10</p>", "internal_node_id": "0.0-60.0-0.0", "time_elapsed": 460785, "key_press": -1, "trial_index": 78}, "uniqueid": "MTK2806:3WT783CTPCOPUJJ2JUPDBDIP9JNBCO", "dateTime": 1519403437789}, {"current_trial": 79, "trialdata": {"rt": -1, "trial_type": "single-stim", "stimulus": "<p id=\"stim\">9</p>", "internal_node_id": "0.0-60.0-1.0", "time_elapsed": 461790, "key_press": -1, "trial_index": 79}, "uniqueid": "MTK2806:3WT783CTPCOPUJJ2JUPDBDIP9JNBCO", "dateTime": 1519403438794}, {"current_trial": 80, "trialdata": {"rt": -1, "trial_type": "single-stim", "stimulus": "<p id=\"stim\">8</p>", "internal_node_id": "0.0-60.0-2.0", "time_elapsed": 462797, "key_press": -1, "trial_index": 80}, "uniqueid": "MTK2806:3WT783CTPCOPUJJ2JUPDBDIP9JNBCO", "dateTime": 1519403439800}, {"current_trial": 81, "trialdata": {"rt": -1, "trial_type": "single-stim", "stimulus": "<p id=\"stim\">7</p>", "internal_node_id": "0.0-60.0-3.0", "time_elapsed": 463804, "key_press": -1, "trial_index": 81}, "uniqueid": "MTK2806:3WT783CTPCOPUJJ2JUPDBDIP9JNBCO", "dateTime": 1519403440806}, {"current_trial": 82, "trialdata": {"rt": -1, "trial_type": "single-stim", "stimulus": "<p id=\"stim\">6</p>", "internal_node_id": "0.0-60.0-4.0", "time_elapsed": 464809, "key_press": -1, "trial_index": 82}, "uniqueid": "MTK2806:3WT783CTPCOPUJJ2JUPDBDIP9JNBCO", "dateTime": 1519403441811}, {"current_trial": 83, "trialdata": {"rt": -1, "trial_type": "single-stim", "stimulus": "<p id=\"stim\">5</p>", "internal_node_id": "0.0-60.0-5.0", "time_elapsed": 465814, "key_press": -1, "trial_index": 83}, "uniqueid": "MTK2806:3WT783CTPCOPUJJ2JUPDBDIP9JNBCO", "dateTime": 1519403442817}, {"current_trial": 84, "trialdata": {"rt": -1, "trial_type": "single-stim", "stimulus": "<p id=\"stim\">4</p>", "internal_node_id": "0.0-60.0-6.0", "time_elapsed": 466820, "key_press": -1, "trial_index": 84}, "uniqueid": "MTK2806:3WT783CTPCOPUJJ2JUPDBDIP9JNBCO", "dateTime": 1519403443823}, {"current_trial": 85, "trialdata": {"rt": -1, "trial_type": "single-stim", "stimulus": "<p id=\"stim\">3</p>", "internal_node_id": "0.0-60.0-7.0", "time_elapsed": 467825, "key_press": -1, "trial_index": 85}, "uniqueid": "MTK2806:3WT783CTPCOPUJJ2JUPDBDIP9JNBCO", "dateTime": 1519403444829}, {"current_trial": 86, "trialdata": {"rt": -1, "trial_type": "single-stim", "stimulus": "<p id=\"stim\">2</p>", "internal_node_id": "0.0-60.0-8.0", "time_elapsed": 468833, "key_press": -1, "trial_index": 86}, "uniqueid": "MTK2806:3WT783CTPCOPUJJ2JUPDBDIP9JNBCO", "dateTime": 1519403445836}, {"current_trial": 87, "trialdata": {"rt": -1, "trial_type": "single-stim", "stimulus": "<p id=\"stim\">1</p>", "internal_node_id": "0.0-60.0-9.0", "time_elapsed": 469839, "key_press": -1, "trial_index": 87}, "uniqueid": "MTK2806:3WT783CTPCOPUJJ2JUPDBDIP9JNBCO", "dateTime": 1519403446843}, {"current_trial": 88, "trialdata": {"rt": -1, "trial_type": "single-stim", "stimulus": "<p id=\"stim\">+</p>", "internal_node_id": "0.0-61.0-0.0", "time_elapsed": 471345, "key_press": -1, "type": "FIXATION", "trial_index": 88}, "uniqueid": "MTK2806:3WT783CTPCOPUJJ2JUPDBDIP9JNBCO", "dateTime": 1519403448347}, {"current_trial": 89, "trialdata": {"rt": -1, "trial_type": "single-stim", "word": "bunny", "stimulus": "<p id=\"stim\">BUNNY</p>", "conditions": [24, 1600, "v", 12000], "internal_node_id": "0.0-62.0", "trial": 2, "time_elapsed": 472951, "serialpos": 0, "key_press": -1, "wordID": 197, "type": "PRES_VIS", "trial_index": 89}, "uniqueid": "MTK2806:3WT783CTPCOPUJJ2JUPDBDIP9JNBCO", "dateTime": 1519403449954}, {"current_trial": 90, "trialdata": {"rt": -1, "trial_type": "single-stim", "word": "swimmer", "stimulus": "<p id=\"stim\">SWIMMER</p>", "conditions": [24, 1600, "v", 12000], "internal_node_id": "0.0-63.0", "trial": 2, "time_elapsed": 475631, "serialpos": 1, "key_press": -1, "wordID": 1419, "type": "PRES_VIS", "trial_index": 90}, "uniqueid": "MTK2806:3WT783CTPCOPUJJ2JUPDBDIP9JNBCO", "dateTime": 1519403452634}, {"current_trial": 91, "trialdata": {"rt": -1, "trial_type": "single-stim", "word": "truck", "stimulus": "<p id=\"stim\">TRUCK</p>", "conditions": [24, 1600, "v", 12000], "internal_node_id": "0.0-64.0", "trial": 2, "time_elapsed": 478193, "serialpos": 2, "key_press": -1, "wordID": 1511, "type": "PRES_VIS", "trial_index": 91}, "uniqueid": "MTK2806:3WT783CTPCOPUJJ2JUPDBDIP9JNBCO", "dateTime": 1519403455197}, {"current_trial": 92, "trialdata": {"rt": -1, "trial_type": "single-stim", "word": "butcher", "stimulus": "<p id=\"stim\">BUTCHER</p>", "conditions": [24, 1600, "v", 12000], "internal_node_id": "0.0-65.0", "trial": 2, "time_elapsed": 480761, "serialpos": 3, "key_press": -1, "wordID": 202, "type": "PRES_VIS", "trial_index": 92}, "uniqueid": "MTK2806:3WT783CTPCOPUJJ2JUPDBDIP9JNBCO", "dateTime": 1519403457764}, {"current_trial": 93, "trialdata": {"rt": -1, "trial_type": "single-stim", "word": "saddle", "stimulus": "<p id=\"stim\">SADDLE</p>", "conditions": [24, 1600, "v", 12000], "internal_node_id": "0.0-66.0", "trial": 2, "time_elapsed": 483510, "serialpos": 4, "key_press": -1, "wordID": 1220, "type": "PRES_VIS", "trial_index": 93}, "uniqueid": "MTK2806:3WT783CTPCOPUJJ2JUPDBDIP9JNBCO", "dateTime": 1519403460513}, {"current_trial": 94, "trialdata": {"rt": -1, "trial_type": "single-stim", "word": "puppy", "stimulus": "<p id=\"stim\">PUPPY</p>", "conditions": [24, 1600, "v", 12000], "internal_node_id": "0.0-67.0", "trial": 2, "time_elapsed": 486273, "serialpos": 5, "key_press": -1, "wordID": 1143, "type": "PRES_VIS", "trial_index": 94}, "uniqueid": "MTK2806:3WT783CTPCOPUJJ2JUPDBDIP9JNBCO", "dateTime": 1519403463275}, {"current_trial": 95, "trialdata": {"rt": -1, "trial_type": "single-stim", "word": "knife", "stimulus": "<p id=\"stim\">KNIFE</p>", "conditions": [24, 1600, "v", 12000], "internal_node_id": "0.0-68.0", "trial": 2, "time_elapsed": 488751, "serialpos": 6, "key_press": -1, "wordID": 784, "type": "PRES_VIS", "trial_index": 95}, "uniqueid": "MTK2806:3WT783CTPCOPUJJ2JUPDBDIP9JNBCO", "dateTime": 1519403465753}, {"current_trial": 96, "trialdata": {"rt": -1, "trial_type": "single-stim", "word": "sword", "stimulus": "<p id=\"stim\">SWORD</p>", "conditions": [24, 1600, "v", 12000], "internal_node_id": "0.0-69.0", "trial": 2, "time_elapsed": 491192, "serialpos": 7, "key_press": -1, "wordID": 1422, "type": "PRES_VIS", "trial_index": 96}, "uniqueid": "MTK2806:3WT783CTPCOPUJJ2JUPDBDIP9JNBCO", "dateTime": 1519403468194}, {"current_trial": 97, "trialdata": {"rt": -1, "trial_type": "single-stim", "word": "record", "stimulus": "<p id=\"stim\">RECORD</p>", "conditions": [24, 1600, "v", 12000], "internal_node_id": "0.0-70.0", "trial": 2, "time_elapsed": 493867, "serialpos": 8, "key_press": -1, "wordID": 1175, "type": "PRES_VIS", "trial_index": 97}, "uniqueid": "MTK2806:3WT783CTPCOPUJJ2JUPDBDIP9JNBCO", "dateTime": 1519403470870}, {"current_trial": 98, "trialdata": {"rt": -1, "trial_type": "single-stim", "word": "driver", "stimulus": "<p id=\"stim\">DRIVER</p>", "conditions": [24, 1600, "v", 12000], "internal_node_id": "0.0-71.0", "trial": 2, "time_elapsed": 496304, "serialpos": 9, "key_press": -1, "wordID": 498, "type": "PRES_VIS", "trial_index": 98}, "uniqueid": "MTK2806:3WT783CTPCOPUJJ2JUPDBDIP9JNBCO", "dateTime": 1519403473306}, {"current_trial": 99, "trialdata": {"rt": -1, "trial_type": "single-stim", "word": "dolphin", "stimulus": "<p id=\"stim\">DOLPHIN</p>", "conditions": [24, 1600, "v", 12000], "internal_node_id": "0.0-72.0", "trial": 2, "time_elapsed": 498984, "serialpos": 10, "key_press": -1, "wordID": 482, "type": "PRES_VIS", "trial_index": 99}, "uniqueid": "MTK2806:3WT783CTPCOPUJJ2JUPDBDIP9JNBCO", "dateTime": 1519403475987}, {"current_trial": 100, "trialdata": {"rt": -1, "trial_type": "single-stim", "word": "pecan", "stimulus": "<p id=\"stim\">PECAN</p>", "conditions": [24, 1600, "v", 12000], "internal_node_id": "0.0-73.0", "trial": 2, "time_elapsed": 501614, "serialpos": 11, "key_press": -1, "wordID": 1035, "type": "PRES_VIS", "trial_index": 100}, "uniqueid": "MTK2806:3WT783CTPCOPUJJ2JUPDBDIP9JNBCO", "dateTime": 1519403478618}, {"current_trial": 101, "trialdata": {"rt": -1, "trial_type": "single-stim", "word": "zipper", "stimulus": "<p id=\"stim\">ZIPPER</p>", "conditions": [24, 1600, "v", 12000], "internal_node_id": "0.0-74.0", "trial": 2, "time_elapsed": 504239, "serialpos": 12, "key_press": -1, "wordID": 1635, "type": "PRES_VIS", "trial_index": 101}, "uniqueid": "MTK2806:3WT783CTPCOPUJJ2JUPDBDIP9JNBCO", "dateTime": 1519403481241}, {"current_trial": 102, "trialdata": {"rt": -1, "trial_type": "single-stim", "word": "chipmunk", "stimulus": "<p id=\"stim\">CHIPMUNK</p>", "conditions": [24, 1600, "v", 12000], "internal_node_id": "0.0-75.0", "trial": 2, "time_elapsed": 506690, "serialpos": 13, "key_press": -1, "wordID": 303, "type": "PRES_VIS", "trial_index": 102}, "uniqueid": "MTK2806:3WT783CTPCOPUJJ2JUPDBDIP9JNBCO", "dateTime": 1519403483692}, {"current_trial": 103, "trialdata": {"rt": -1, "trial_type": "single-stim", "word": "label", "stimulus": "<p id=\"stim\">LABEL</p>", "conditions": [24, 1600, "v", 12000], "internal_node_id": "0.0-76.0", "trial": 2, "time_elapsed": 509240, "serialpos": 14, "key_press": -1, "wordID": 789, "type": "PRES_VIS", "trial_index": 103}, "uniqueid": "MTK2806:3WT783CTPCOPUJJ2JUPDBDIP9JNBCO", "dateTime": 1519403486243}, {"current_trial": 104, "trialdata": {"rt": -1, "trial_type": "single-stim", "word": "box", "stimulus": "<p id=\"stim\">BOX</p>", "conditions": [24, 1600, "v", 12000], "internal_node_id": "0.0-77.0", "trial": 2, "time_elapsed": 511993, "serialpos": 15, "key_press": -1, "wordID": 158, "type": "PRES_VIS", "trial_index": 104}, "uniqueid": "MTK2806:3WT783CTPCOPUJJ2JUPDBDIP9JNBCO", "dateTime": 1519403488995}, {"current_trial": 105, "trialdata": {"rt": -1, "trial_type": "single-stim", "word": "lake", "stimulus": "<p id=\"stim\">LAKE</p>", "conditions": [24, 1600, "v", 12000], "internal_node_id": "0.0-78.0", "trial": 2, "time_elapsed": 514420, "serialpos": 16, "key_press": -1, "wordID": 795, "type": "PRES_VIS", "trial_index": 105}, "uniqueid": "MTK2806:3WT783CTPCOPUJJ2JUPDBDIP9JNBCO", "dateTime": 1519403491422}, {"current_trial": 106, "trialdata": {"rt": -1, "trial_type": "single-stim", "word": "onion", "stimulus": "<p id=\"stim\">ONION</p>", "conditions": [24, 1600, "v", 12000], "internal_node_id": "0.0-79.0", "trial": 2, "time_elapsed": 517047, "serialpos": 17, "key_press": -1, "wordID": 976, "type": "PRES_VIS", "trial_index": 106}, "uniqueid": "MTK2806:3WT783CTPCOPUJJ2JUPDBDIP9JNBCO", "dateTime": 1519403494050}, {"current_trial": 107, "trialdata": {"rt": -1, "trial_type": "single-stim", "word": "radish", "stimulus": "<p id=\"stim\">RADISH</p>", "conditions": [24, 1600, "v", 12000], "internal_node_id": "0.0-80.0", "trial": 2, "time_elapsed": 519766, "serialpos": 18, "key_press": -1, "wordID": 1157, "type": "PRES_VIS", "trial_index": 107}, "uniqueid": "MTK2806:3WT783CTPCOPUJJ2JUPDBDIP9JNBCO", "dateTime": 1519403496768}, {"current_trial": 108, "trialdata": {"rt": -1, "trial_type": "single-stim", "word": "marsh", "stimulus": "<p id=\"stim\">MARSH</p>", "conditions": [24, 1600, "v", 12000], "internal_node_id": "0.0-81.0", "trial": 2, "time_elapsed": 522359, "serialpos": 19, "key_press": -1, "wordID": 873, "type": "PRES_VIS", "trial_index": 108}, "uniqueid": "MTK2806:3WT783CTPCOPUJJ2JUPDBDIP9JNBCO", "dateTime": 1519403499362}, {"current_trial": 109, "trialdata": {"rt": -1, "trial_type": "single-stim", "word": "critic", "stimulus": "<p id=\"stim\">CRITIC</p>", "conditions": [24, 1600, "v", 12000], "internal_node_id": "0.0-82.0", "trial": 2, "time_elapsed": 524992, "serialpos": 20, "key_press": -1, "wordID": 409, "type": "PRES_VIS", "trial_index": 109}, "uniqueid": "MTK2806:3WT783CTPCOPUJJ2JUPDBDIP9JNBCO", "dateTime": 1519403501995}, {"current_trial": 110, "trialdata": {"rt": -1, "trial_type": "single-stim", "word": "bucket", "stimulus": "<p id=\"stim\">BUCKET</p>", "conditions": [24, 1600, "v", 12000], "internal_node_id": "0.0-83.0", "trial": 2, "time_elapsed": 527603, "serialpos": 21, "key_press": -1, "wordID": 183, "type": "PRES_VIS", "trial_index": 110}, "uniqueid": "MTK2806:3WT783CTPCOPUJJ2JUPDBDIP9JNBCO", "dateTime": 1519403504606}, {"current_trial": 111, "trialdata": {"rt": -1, "trial_type": "single-stim", "word": "slime", "stimulus": "<p id=\"stim\">SLIME</p>", "conditions": [24, 1600, "v", 12000], "internal_node_id": "0.0-84.0", "trial": 2, "time_elapsed": 530123, "serialpos": 22, "key_press": -1, "wordID": 1326, "type": "PRES_VIS", "trial_index": 111}, "uniqueid": "MTK2806:3WT783CTPCOPUJJ2JUPDBDIP9JNBCO", "dateTime": 1519403507125}, {"current_trial": 112, "trialdata": {"rt": -1, "trial_type": "single-stim", "word": "burglar", "stimulus": "<p id=\"stim\">BURGLAR</p>", "conditions": [24, 1600, "v", 12000], "internal_node_id": "0.0-85.0", "trial": 2, "time_elapsed": 532659, "serialpos": 23, "key_press": -1, "wordID": 199, "type": "PRES_VIS", "trial_index": 112}, "uniqueid": "MTK2806:3WT783CTPCOPUJJ2JUPDBDIP9JNBCO", "dateTime": 1519403509663}, {"current_trial": 113, "trialdata": {"rt": -1, "trial_type": "single-stim", "stimulus": "", "internal_node_id": "0.0-86.0-0.0", "time_elapsed": 534847, "key_press": -1, "type": "PRE_RECALL_DELAY", "trial_index": 113}, "uniqueid": "MTK2806:3WT783CTPCOPUJJ2JUPDBDIP9JNBCO", "dateTime": 1519403511850}, {"current_trial": 114, "trialdata": {"rt": -1000, "trial_type": "single-audio", "stimulus": "/static/audio/400Hz.wav", "internal_node_id": "0.0-87.0", "time_elapsed": 535353, "key_press": -1, "type": "PRE_RECALL_ALERT", "trial_index": 114}, "uniqueid": "MTK2806:3WT783CTPCOPUJJ2JUPDBDIP9JNBCO", "dateTime": 1519403512356}, {"current_trial": 115, "trialdata": {"rt": [5194, 6556, 8715, 10639, 12685, 14675, 18833, 20754, 25471, 28775], "recwords": ["burglar", "lake", "marsh", "slime", "onion", "radish", "bunny", "puppy", "chipmunk", "box"], "key_times": [1342, 2106, 2473, 2718, 2857, 3277, 3457, 3577, 3739, 5194, 5802, 5913, 6060, 6167, 6556, 7594, 7731, 7939, 8159, 8295, 8715, 9162, 9302, 9524, 9753, 9914, 10639, 11280, 11450, 11850, 12052, 12247, 12685, 12966, 13097, 13224, 13563, 13699, 13906, 14040, 14183, 14675, 17347, 17607, 17902, 18111, 18354, 18833, 19328, 19603, 19854, 20024, 20275, 20754, 22520, 22666, 22908, 24007, 24293, 24537, 24769, 25030, 25471, 27496, 27707, 28123, 28775], "trial_type": "free-recall", "conditions": [24, 1600, "v", 12000], "internal_node_id": "0.0-88.0-0.0", "key_presses": [66, 73, 8, 85, 82, 71, 76, 65, 82, 13, 76, 65, 75, 69, 13, 77, 65, 82, 83, 72, 13, 83, 76, 73, 77, 69, 13, 79, 78, 73, 79, 78, 13, 82, 65, 83, 8, 68, 73, 83, 72, 13, 66, 85, 78, 78, 89, 13, 80, 85, 80, 80, 89, 13, 67, 72, 73, 80, 77, 85, 78, 75, 13, 66, 79, 88, 13], "trial": 2, "time_elapsed": 595368, "type": "FREE_RECALL", "trial_index": 115}, "uniqueid": "MTK2806:3WT783CTPCOPUJJ2JUPDBDIP9JNBCO", "dateTime": 1519403572388}, {"current_trial": 116, "trialdata": {"rt": 1938, "trial_type": "text", "internal_node_id": "0.0-89.0", "time_elapsed": 599331, "key_press": 32, "type": "INSTRUCTIONS", "trial_index": 116}, "uniqueid": "MTK2806:3WT783CTPCOPUJJ2JUPDBDIP9JNBCO", "dateTime": 1519403576334}, {"current_trial": 117, "trialdata": {"rt": [2342, 4182, 6261, 11964], "trial_type": "math-distractor", "key_times": [1532, 1889, 2020, 2342, 3638, 3922, 4182, 6135, 6261, 11575, 11737, 11964], "responses": ["5", "14", "6", "24"], "num2": [2, 4, 3, 9, 6], "num3": [1, 1, 2, 7, 3], "conditions": [12, 800, "v", 12000], "internal_node_id": "0.0-90.0", "key_presses": [54, 8, 53, 13, 49, 52, 13, 54, 13, 50, 52, 13], "trial": 3, "time_elapsed": 613350, "type": "DISTRACTOR", "trial_index": 117, "num1": [2, 9, 1, 8, 2]}, "uniqueid": "MTK2806:3WT783CTPCOPUJJ2JUPDBDIP9JNBCO", "dateTime": 1519403590353}, {"current_trial": 118, "trialdata": {"rt": -1, "trial_type": "single-stim", "stimulus": "<p id=\"stim\">10</p>", "internal_node_id": "0.0-91.0-0.0", "time_elapsed": 616358, "key_press": -1, "trial_index": 118}, "uniqueid": "MTK2806:3WT783CTPCOPUJJ2JUPDBDIP9JNBCO", "dateTime": 1519403593362}, {"current_trial": 119, "trialdata": {"rt": -1, "trial_type": "single-stim", "stimulus": "<p id=\"stim\">9</p>", "internal_node_id": "0.0-91.0-1.0", "time_elapsed": 617365, "key_press": -1, "trial_index": 119}, "uniqueid": "MTK2806:3WT783CTPCOPUJJ2JUPDBDIP9JNBCO", "dateTime": 1519403594367}, {"current_trial": 120, "trialdata": {"rt": -1, "trial_type": "single-stim", "stimulus": "<p id=\"stim\">8</p>", "internal_node_id": "0.0-91.0-2.0", "time_elapsed": 618370, "key_press": -1, "trial_index": 120}, "uniqueid": "MTK2806:3WT783CTPCOPUJJ2JUPDBDIP9JNBCO", "dateTime": 1519403595373}, {"current_trial": 121, "trialdata": {"rt": -1, "trial_type": "single-stim", "stimulus": "<p id=\"stim\">7</p>", "internal_node_id": "0.0-91.0-3.0", "time_elapsed": 619375, "key_press": -1, "trial_index": 121}, "uniqueid": "MTK2806:3WT783CTPCOPUJJ2JUPDBDIP9JNBCO", "dateTime": 1519403596378}, {"current_trial": 122, "trialdata": {"rt": -1, "trial_type": "single-stim", "stimulus": "<p id=\"stim\">6</p>", "internal_node_id": "0.0-91.0-4.0", "time_elapsed": 620380, "key_press": -1, "trial_index": 122}, "uniqueid": "MTK2806:3WT783CTPCOPUJJ2JUPDBDIP9JNBCO", "dateTime": 1519403597383}, {"current_trial": 123, "trialdata": {"rt": -1, "trial_type": "single-stim", "stimulus": "<p id=\"stim\">5</p>", "internal_node_id": "0.0-91.0-5.0", "time_elapsed": 621384, "key_press": -1, "trial_index": 123}, "uniqueid": "MTK2806:3WT783CTPCOPUJJ2JUPDBDIP9JNBCO", "dateTime": 1519403598387}, {"current_trial": 124, "trialdata": {"rt": -1, "trial_type": "single-stim", "stimulus": "<p id=\"stim\">4</p>", "internal_node_id": "0.0-91.0-6.0", "time_elapsed": 622390, "key_press": -1, "trial_index": 124}, "uniqueid": "MTK2806:3WT783CTPCOPUJJ2JUPDBDIP9JNBCO", "dateTime": 1519403599392}, {"current_trial": 125, "trialdata": {"rt": -1, "trial_type": "single-stim", "stimulus": "<p id=\"stim\">3</p>", "internal_node_id": "0.0-91.0-7.0", "time_elapsed": 623394, "key_press": -1, "trial_index": 125}, "uniqueid": "MTK2806:3WT783CTPCOPUJJ2JUPDBDIP9JNBCO", "dateTime": 1519403600397}, {"current_trial": 126, "trialdata": {"rt": -1, "trial_type": "single-stim", "stimulus": "<p id=\"stim\">2</p>", "internal_node_id": "0.0-91.0-8.0", "time_elapsed": 624399, "key_press": -1, "trial_index": 126}, "uniqueid": "MTK2806:3WT783CTPCOPUJJ2JUPDBDIP9JNBCO", "dateTime": 1519403601402}, {"current_trial": 127, "trialdata": {"rt": -1, "trial_type": "single-stim", "stimulus": "<p id=\"stim\">1</p>", "internal_node_id": "0.0-91.0-9.0", "time_elapsed": 625404, "key_press": -1, "trial_index": 127}, "uniqueid": "MTK2806:3WT783CTPCOPUJJ2JUPDBDIP9JNBCO", "dateTime": 1519403602408}, {"current_trial": 128, "trialdata": {"rt": -1, "trial_type": "single-stim", "stimulus": "<p id=\"stim\">+</p>", "internal_node_id": "0.0-92.0-0.0", "time_elapsed": 626911, "key_press": -1, "type": "FIXATION", "trial_index": 128}, "uniqueid": "MTK2806:3WT783CTPCOPUJJ2JUPDBDIP9JNBCO", "dateTime": 1519403603914}, {"current_trial": 129, "trialdata": {"rt": -1, "trial_type": "single-stim", "word": "child", "stimulus": "<p id=\"stim\">CHILD</p>", "conditions": [12, 800, "v", 12000], "internal_node_id": "0.0-93.0", "trial": 3, "time_elapsed": 627716, "serialpos": 0, "key_press": -1, "wordID": 298, "type": "PRES_VIS", "trial_index": 129}, "uniqueid": "MTK2806:3WT783CTPCOPUJJ2JUPDBDIP9JNBCO", "dateTime": 1519403604718}, {"current_trial": 130, "trialdata": {"rt": -1, "trial_type": "single-stim", "word": "gallon", "stimulus": "<p id=\"stim\">GALLON</p>", "conditions": [12, 800, "v", 12000], "internal_node_id": "0.0-94.0", "trial": 3, "time_elapsed": 629532, "serialpos": 1, "key_press": -1, "wordID": 617, "type": "PRES_VIS", "trial_index": 130}, "uniqueid": "MTK2806:3WT783CTPCOPUJJ2JUPDBDIP9JNBCO", "dateTime": 1519403606534}, {"current_trial": 131, "trialdata": {"rt": -1, "trial_type": "single-stim", "word": "barrel", "stimulus": "<p id=\"stim\">BARREL</p>", "conditions": [12, 800, "v", 12000], "internal_node_id": "0.0-95.0", "trial": 3, "time_elapsed": 631464, "serialpos": 2, "key_press": -1, "wordID": 90, "type": "PRES_VIS", "trial_index": 131}, "uniqueid": "MTK2806:3WT783CTPCOPUJJ2JUPDBDIP9JNBCO", "dateTime": 1519403608466}, {"current_trial": 132, "trialdata": {"rt": -1, "trial_type": "single-stim", "word": "friend", "stimulus": "<p id=\"stim\">FRIEND</p>", "conditions": [12, 800, "v", 12000], "internal_node_id": "0.0-96.0", "trial": 3, "time_elapsed": 633237, "serialpos": 3, "key_press": -1, "wordID": 605, "type": "PRES_VIS", "trial_index": 132}, "uniqueid": "MTK2806:3WT783CTPCOPUJJ2JUPDBDIP9JNBCO", "dateTime": 1519403610239}, {"current_trial": 133, "trialdata": {"rt": -1, "trial_type": "single-stim", "word": "eagle", "stimulus": "<p id=\"stim\">EAGLE</p>", "conditions": [12, 800, "v", 12000], "internal_node_id": "0.0-97.0", "trial": 3, "time_elapsed": 635111, "serialpos": 4, "key_press": -1, "wordID": 511, "type": "PRES_VIS", "trial_index": 133}, "uniqueid": "MTK2806:3WT783CTPCOPUJJ2JUPDBDIP9JNBCO", "dateTime": 1519403612115}, {"current_trial": 134, "trialdata": {"rt": -1, "trial_type": "single-stim", "word": "pigeon", "stimulus": "<p id=\"stim\">PIGEON</p>", "conditions": [12, 800, "v", 12000], "internal_node_id": "0.0-98.0", "trial": 3, "time_elapsed": 636910, "serialpos": 5, "key_press": -1, "wordID": 1064, "type": "PRES_VIS", "trial_index": 134}, "uniqueid": "MTK2806:3WT783CTPCOPUJJ2JUPDBDIP9JNBCO", "dateTime": 1519403613913}, {"current_trial": 135, "trialdata": {"rt": -1, "trial_type": "single-stim", "word": "cod", "stimulus": "<p id=\"stim\">COD</p>", "conditions": [12, 800, "v", 12000], "internal_node_id": "0.0-99.0", "trial": 3, "time_elapsed": 638561, "serialpos": 6, "key_press": -1, "wordID": 339, "type": "PRES_VIS", "trial_index": 135}, "uniqueid": "MTK2806:3WT783CTPCOPUJJ2JUPDBDIP9JNBCO", "dateTime": 1519403615563}, {"current_trial": 136, "trialdata": {"rt": -1, "trial_type": "single-stim", "word": "wife", "stimulus": "<p id=\"stim\">WIFE</p>", "conditions": [12, 800, "v", 12000], "internal_node_id": "0.0-100.0", "trial": 3, "time_elapsed": 640227, "serialpos": 7, "key_press": -1, "wordID": 1608, "type": "PRES_VIS", "trial_index": 136}, "uniqueid": "MTK2806:3WT783CTPCOPUJJ2JUPDBDIP9JNBCO", "dateTime": 1519403617231}, {"current_trial": 137, "trialdata": {"rt": -1, "trial_type": "single-stim", "word": "police", "stimulus": "<p id=\"stim\">POLICE</p>", "conditions": [12, 800, "v", 12000], "internal_node_id": "0.0-101.0", "trial": 3, "time_elapsed": 642140, "serialpos": 8, "key_press": -1, "wordID": 1097, "type": "PRES_VIS", "trial_index": 137}, "uniqueid": "MTK2806:3WT783CTPCOPUJJ2JUPDBDIP9JNBCO", "dateTime": 1519403619142}, {"current_trial": 138, "trialdata": {"rt": -1, "trial_type": "single-stim", "word": "mammal", "stimulus": "<p id=\"stim\">MAMMAL</p>", "conditions": [12, 800, "v", 12000], "internal_node_id": "0.0-102.0", "trial": 3, "time_elapsed": 643830, "serialpos": 9, "key_press": -1, "wordID": 860, "type": "PRES_VIS", "trial_index": 138}, "uniqueid": "MTK2806:3WT783CTPCOPUJJ2JUPDBDIP9JNBCO", "dateTime": 1519403620833}, {"current_trial": 139, "trialdata": {"rt": -1, "trial_type": "single-stim", "word": "picture", "stimulus": "<p id=\"stim\">PICTURE</p>", "conditions": [12, 800, "v", 12000], "internal_node_id": "0.0-103.0", "trial": 3, "time_elapsed": 645605, "serialpos": 10, "key_press": -1, "wordID": 1060, "type": "PRES_VIS", "trial_index": 139}, "uniqueid": "MTK2806:3WT783CTPCOPUJJ2JUPDBDIP9JNBCO", "dateTime": 1519403622607}, {"current_trial": 140, "trialdata": {"rt": -1, "trial_type": "single-stim", "word": "ox", "stimulus": "<p id=\"stim\">OX</p>", "conditions": [12, 800, "v", 12000], "internal_node_id": "0.0-104.0", "trial": 3, "time_elapsed": 647365, "serialpos": 11, "key_press": -1, "wordID": 993, "type": "PRES_VIS", "trial_index": 140}, "uniqueid": "MTK2806:3WT783CTPCOPUJJ2JUPDBDIP9JNBCO", "dateTime": 1519403624368}, {"current_trial": 141, "trialdata": {"rt": -1, "trial_type": "single-stim", "stimulus": "", "internal_node_id": "0.0-105.0-0.0", "time_elapsed": 649542, "key_press": -1, "type": "PRE_RECALL_DELAY", "trial_index": 141}, "uniqueid": "MTK2806:3WT783CTPCOPUJJ2JUPDBDIP9JNBCO", "dateTime": 1519403626545}, {"current_trial": 142, "trialdata": {"rt": -1000, "trial_type": "single-audio", "stimulus": "/static/audio/400Hz.wav", "internal_node_id": "0.0-106.0", "time_elapsed": 650049, "key_press": -1, "type": "PRE_RECALL_ALERT", "trial_index": 142}, "uniqueid": "MTK2806:3WT783CTPCOPUJJ2JUPDBDIP9JNBCO", "dateTime": 1519403627052}, {"current_trial": 143, "trialdata": {"rt": [2625, 5873, 7395, 9803, 14422, 16265, 18334, 30141], "recwords": ["wife", "police", "child", "friend", "eagle", "pigeon", "cod", "ox"], "key_times": [1662, 1790, 2008, 2118, 2625, 3651, 3770, 4065, 4288, 4402, 4550, 5873, 6375, 6573, 6791, 7000, 7140, 7395, 7925, 8191, 8338, 8479, 8665, 8819, 9803, 12668, 12850, 13084, 13250, 13388, 14422, 14892, 15146, 15368, 15458, 15620, 15858, 16265, 17380, 17681, 17841, 18334, 29755, 29862, 30141], "trial_type": "free-recall", "conditions": [12, 800, "v", 12000], "internal_node_id": "0.0-107.0-0.0", "key_presses": [87, 73, 70, 69, 13, 80, 79, 76, 73, 67, 69, 13, 67, 72, 73, 76, 68, 13, 70, 82, 73, 69, 78, 68, 13, 69, 65, 71, 76, 69, 13, 80, 73, 71, 69, 79, 78, 13, 67, 79, 68, 13, 79, 88, 13], "trial": 3, "time_elapsed": 710067, "type": "FREE_RECALL", "trial_index": 143}, "uniqueid": "MTK2806:3WT783CTPCOPUJJ2JUPDBDIP9JNBCO", "dateTime": 1519403687088}, {"current_trial": 144, "trialdata": {"rt": 5994, "trial_type": "text", "internal_node_id": "0.0-108.0", "time_elapsed": 718085, "key_press": 32, "type": "INSTRUCTIONS", "trial_index": 144}, "uniqueid": "MTK2806:3WT783CTPCOPUJJ2JUPDBDIP9JNBCO", "dateTime": 1519403695088}, {"current_trial": 145, "trialdata": {"rt": [3250, 6138, 9299, 11754, 14264, 18739, 20591], "trial_type": "math-distractor", "key_times": [2543, 2759, 3250, 5518, 5872, 6138, 8939, 9149, 9299, 11219, 11572, 11754, 13502, 13994, 14264, 17673, 17979, 18739, 20212, 20406, 20591], "responses": ["20", "14", "12", "14", "18", "24", "12"], "num2": [9, 4, 4, 9, 2, 9, 8, 9], "num3": [4, 5, 3, 2, 9, 9, 2, 5], "conditions": [12, 800, "v", 24000], "internal_node_id": "0.0-109.0", "key_presses": [50, 48, 13, 49, 52, 13, 49, 50, 13, 49, 52, 13, 49, 56, 13, 50, 52, 13, 49, 50, 13], "trial": 4, "time_elapsed": 744104, "type": "DISTRACTOR", "trial_index": 145, "num1": [7, 4, 5, 3, 7, 6, 2, 9]}, "uniqueid": "MTK2806:3WT783CTPCOPUJJ2JUPDBDIP9JNBCO", "dateTime": 1519403721108}, {"current_trial": 146, "trialdata": {"rt": -1, "trial_type": "single-stim", "stimulus": "<p id=\"stim\">10</p>", "internal_node_id": "0.0-110.0-0.0", "time_elapsed": 747114, "key_press": -1, "trial_index": 146}, "uniqueid": "MTK2806:3WT783CTPCOPUJJ2JUPDBDIP9JNBCO", "dateTime": 1519403724118}, {"current_trial": 147, "trialdata": {"rt": -1, "trial_type": "single-stim", "stimulus": "<p id=\"stim\">9</p>", "internal_node_id": "0.0-110.0-1.0", "time_elapsed": 748122, "key_press": -1, "trial_index": 147}, "uniqueid": "MTK2806:3WT783CTPCOPUJJ2JUPDBDIP9JNBCO", "dateTime": 1519403725124}, {"current_trial": 148, "trialdata": {"rt": -1, "trial_type": "single-stim", "stimulus": "<p id=\"stim\">8</p>", "internal_node_id": "0.0-110.0-2.0", "time_elapsed": 749129, "key_press": -1, "trial_index": 148}, "uniqueid": "MTK2806:3WT783CTPCOPUJJ2JUPDBDIP9JNBCO", "dateTime": 1519403726131}, {"current_trial": 149, "trialdata": {"rt": -1, "trial_type": "single-stim", "stimulus": "<p id=\"stim\">7</p>", "internal_node_id": "0.0-110.0-3.0", "time_elapsed": 750140, "key_press": -1, "trial_index": 149}, "uniqueid": "MTK2806:3WT783CTPCOPUJJ2JUPDBDIP9JNBCO", "dateTime": 1519403727142}, {"current_trial": 150, "trialdata": {"rt": -1, "trial_type": "single-stim", "stimulus": "<p id=\"stim\">6</p>", "internal_node_id": "0.0-110.0-4.0", "time_elapsed": 751148, "key_press": -1, "trial_index": 150}, "uniqueid": "MTK2806:3WT783CTPCOPUJJ2JUPDBDIP9JNBCO", "dateTime": 1519403728150}, {"current_trial": 151, "trialdata": {"rt": -1, "trial_type": "single-stim", "stimulus": "<p id=\"stim\">5</p>", "internal_node_id": "0.0-110.0-5.0", "time_elapsed": 752155, "key_press": -1, "trial_index": 151}, "uniqueid": "MTK2806:3WT783CTPCOPUJJ2JUPDBDIP9JNBCO", "dateTime": 1519403729158}, {"current_trial": 152, "trialdata": {"rt": -1, "trial_type": "single-stim", "stimulus": "<p id=\"stim\">4</p>", "internal_node_id": "0.0-110.0-6.0", "time_elapsed": 753161, "key_press": -1, "trial_index": 152}, "uniqueid": "MTK2806:3WT783CTPCOPUJJ2JUPDBDIP9JNBCO", "dateTime": 1519403730164}, {"current_trial": 153, "trialdata": {"rt": -1, "trial_type": "single-stim", "stimulus": "<p id=\"stim\">3</p>", "internal_node_id": "0.0-110.0-7.0", "time_elapsed": 754167, "key_press": -1, "trial_index": 153}, "uniqueid": "MTK2806:3WT783CTPCOPUJJ2JUPDBDIP9JNBCO", "dateTime": 1519403731170}, {"current_trial": 154, "trialdata": {"rt": -1, "trial_type": "single-stim", "stimulus": "<p id=\"stim\">2</p>", "internal_node_id": "0.0-110.0-8.0", "time_elapsed": 755175, "key_press": -1, "trial_index": 154}, "uniqueid": "MTK2806:3WT783CTPCOPUJJ2JUPDBDIP9JNBCO", "dateTime": 1519403732177}, {"current_trial": 155, "trialdata": {"rt": -1, "trial_type": "single-stim", "stimulus": "<p id=\"stim\">1</p>", "internal_node_id": "0.0-110.0-9.0", "time_elapsed": 756181, "key_press": -1, "trial_index": 155}, "uniqueid": "MTK2806:3WT783CTPCOPUJJ2JUPDBDIP9JNBCO", "dateTime": 1519403733184}, {"current_trial": 156, "trialdata": {"rt": -1, "trial_type": "single-stim", "stimulus": "<p id=\"stim\">+</p>", "internal_node_id": "0.0-111.0-0.0", "time_elapsed": 757687, "key_press": -1, "type": "FIXATION", "trial_index": 156}, "uniqueid": "MTK2806:3WT783CTPCOPUJJ2JUPDBDIP9JNBCO", "dateTime": 1519403734690}, {"current_trial": 157, "trialdata": {"rt": -1, "trial_type": "single-stim", "word": "cobra", "stimulus": "<p id=\"stim\">COBRA</p>", "conditions": [12, 800, "v", 24000], "internal_node_id": "0.0-112.0", "trial": 4, "time_elapsed": 758491, "serialpos": 0, "key_press": -1, "wordID": 335, "type": "PRES_VIS", "trial_index": 157}, "uniqueid": "MTK2806:3WT783CTPCOPUJJ2JUPDBDIP9JNBCO", "dateTime": 1519403735494}, {"current_trial": 158, "trialdata": {"rt": -1, "trial_type": "single-stim", "word": "clamp", "stimulus": "<p id=\"stim\">CLAMP</p>", "conditions": [12, 800, "v", 24000], "internal_node_id": "0.0-113.0", "trial": 4, "time_elapsed": 760157, "serialpos": 1, "key_press": -1, "wordID": 315, "type": "PRES_VIS", "trial_index": 158}, "uniqueid": "MTK2806:3WT783CTPCOPUJJ2JUPDBDIP9JNBCO", "dateTime": 1519403737160}, {"current_trial": 159, "trialdata": {"rt": -1, "trial_type": "single-stim", "word": "flesh", "stimulus": "<p id=\"stim\">FLESH</p>", "conditions": [12, 800, "v", 24000], "internal_node_id": "0.0-114.0", "trial": 4, "time_elapsed": 762090, "serialpos": 2, "key_press": -1, "wordID": 578, "type": "PRES_VIS", "trial_index": 159}, "uniqueid": "MTK2806:3WT783CTPCOPUJJ2JUPDBDIP9JNBCO", "dateTime": 1519403739093}, {"current_trial": 160, "trialdata": {"rt": -1, "trial_type": "single-stim", "word": "heart", "stimulus": "<p id=\"stim\">HEART</p>", "conditions": [12, 800, "v", 24000], "internal_node_id": "0.0-115.0", "trial": 4, "time_elapsed": 763810, "serialpos": 3, "key_press": -1, "wordID": 696, "type": "PRES_VIS", "trial_index": 160}, "uniqueid": "MTK2806:3WT783CTPCOPUJJ2JUPDBDIP9JNBCO", "dateTime": 1519403740813}, {"current_trial": 161, "trialdata": {"rt": -1, "trial_type": "single-stim", "word": "tablet", "stimulus": "<p id=\"stim\">TABLET</p>", "conditions": [12, 800, "v", 24000], "internal_node_id": "0.0-116.0", "trial": 4, "time_elapsed": 765565, "serialpos": 4, "key_press": -1, "wordID": 1426, "type": "PRES_VIS", "trial_index": 161}, "uniqueid": "MTK2806:3WT783CTPCOPUJJ2JUPDBDIP9JNBCO", "dateTime": 1519403742568}, {"current_trial": 162, "trialdata": {"rt": -1, "trial_type": "single-stim", "word": "tractor", "stimulus": "<p id=\"stim\">TRACTOR</p>", "conditions": [12, 800, "v", 24000], "internal_node_id": "0.0-117.0", "trial": 4, "time_elapsed": 767562, "serialpos": 5, "key_press": -1, "wordID": 1492, "type": "PRES_VIS", "trial_index": 162}, "uniqueid": "MTK2806:3WT783CTPCOPUJJ2JUPDBDIP9JNBCO", "dateTime": 1519403744565}, {"current_trial": 163, "trialdata": {"rt": -1, "trial_type": "single-stim", "word": "elbow", "stimulus": "<p id=\"stim\">ELBOW</p>", "conditions": [12, 800, "v", 24000], "internal_node_id": "0.0-118.0", "trial": 4, "time_elapsed": 769485, "serialpos": 6, "key_press": -1, "wordID": 519, "type": "PRES_VIS", "trial_index": 163}, "uniqueid": "MTK2806:3WT783CTPCOPUJJ2JUPDBDIP9JNBCO", "dateTime": 1519403746488}, {"current_trial": 164, "trialdata": {"rt": -1, "trial_type": "single-stim", "word": "snake", "stimulus": "<p id=\"stim\">SNAKE</p>", "conditions": [12, 800, "v", 24000], "internal_node_id": "0.0-119.0", "trial": 4, "time_elapsed": 771247, "serialpos": 7, "key_press": -1, "wordID": 1332, "type": "PRES_VIS", "trial_index": 164}, "uniqueid": "MTK2806:3WT783CTPCOPUJJ2JUPDBDIP9JNBCO", "dateTime": 1519403748249}, {"current_trial": 165, "trialdata": {"rt": -1, "trial_type": "single-stim", "word": "stomach", "stimulus": "<p id=\"stim\">STOMACH</p>", "conditions": [12, 800, "v", 24000], "internal_node_id": "0.0-120.0", "trial": 4, "time_elapsed": 772972, "serialpos": 8, "key_press": -1, "wordID": 1383, "type": "PRES_VIS", "trial_index": 165}, "uniqueid": "MTK2806:3WT783CTPCOPUJJ2JUPDBDIP9JNBCO", "dateTime": 1519403749975}, {"current_trial": 166, "trialdata": {"rt": -1, "trial_type": "single-stim", "word": "bullet", "stimulus": "<p id=\"stim\">BULLET</p>", "conditions": [12, 800, "v", 24000], "internal_node_id": "0.0-121.0", "trial": 4, "time_elapsed": 774630, "serialpos": 9, "key_press": -1, "wordID": 193, "type": "PRES_VIS", "trial_index": 166}, "uniqueid": "MTK2806:3WT783CTPCOPUJJ2JUPDBDIP9JNBCO", "dateTime": 1519403751633}, {"current_trial": 167, "trialdata": {"rt": -1, "trial_type": "single-stim", "word": "garlic", "stimulus": "<p id=\"stim\">GARLIC</p>", "conditions": [12, 800, "v", 24000], "internal_node_id": "0.0-122.0", "trial": 4, "time_elapsed": 776373, "serialpos": 10, "key_press": -1, "wordID": 623, "type": "PRES_VIS", "trial_index": 167}, "uniqueid": "MTK2806:3WT783CTPCOPUJJ2JUPDBDIP9JNBCO", "dateTime": 1519403753375}, {"current_trial": 168, "trialdata": {"rt": -1, "trial_type": "single-stim", "word": "lettuce", "stimulus": "<p id=\"stim\">LETTUCE</p>", "conditions": [12, 800, "v", 24000], "internal_node_id": "0.0-123.0", "trial": 4, "time_elapsed": 778290, "serialpos": 11, "key_press": -1, "wordID": 813, "type": "PRES_VIS", "trial_index": 168}, "uniqueid": "MTK2806:3WT783CTPCOPUJJ2JUPDBDIP9JNBCO", "dateTime": 1519403755293}, {"current_trial": 169, "trialdata": {"rt": -1, "trial_type": "single-stim", "stimulus": "", "internal_node_id": "0.0-124.0-0.0", "time_elapsed": 780698, "key_press": -1, "type": "PRE_RECALL_DELAY", "trial_index": 169}, "uniqueid": "MTK2806:3WT783CTPCOPUJJ2JUPDBDIP9JNBCO", "dateTime": 1519403757700}, {"current_trial": 170, "trialdata": {"rt": -1000, "trial_type": "single-audio", "stimulus": "/static/audio/400Hz.wav", "internal_node_id": "0.0-125.0", "time_elapsed": 781204, "key_press": -1, "type": "PRE_RECALL_ALERT", "trial_index": 170}, "uniqueid": "MTK2806:3WT783CTPCOPUJJ2JUPDBDIP9JNBCO", "dateTime": 1519403758207}, {"current_trial": 171, "trialdata": {"rt": [3285, 5532, 7090, 8697, 10351, 13528, 15872, 49201], "recwords": ["lettuce", "garlic", "cobra", "snake", "elbow", "heart", "bullet", "tractor"], "key_times": [1394, 1553, 1833, 2041, 2238, 2459, 2628, 3285, 3864, 4027, 4251, 4494, 4723, 4837, 5532, 5947, 6136, 6413, 6539, 6646, 7090, 7434, 7618, 7755, 7922, 8071, 8697, 8973, 9267, 9499, 9611, 9849, 10351, 10945, 11078, 11259, 11434, 11657, 13528, 14168, 14383, 14679, 14845, 14984, 15287, 15872, 46143, 46627, 46790, 47468, 48009, 48121, 48412, 48583, 48759, 49201], "trial_type": "free-recall", "conditions": [12, 800, "v", 24000], "internal_node_id": "0.0-126.0-0.0", "key_presses": [76, 69, 84, 84, 85, 67, 69, 13, 71, 65, 82, 76, 73, 67, 13, 67, 79, 66, 82, 65, 13, 83, 78, 65, 75, 69, 13, 69, 76, 66, 79, 87, 13, 72, 69, 65, 82, 84, 13, 66, 85, 76, 76, 69, 84, 13, 84, 82, 65, 79, 8, 67, 84, 79, 82, 13], "trial": 4, "time_elapsed": 841227, "type": "FREE_RECALL", "trial_index": 171}, "uniqueid": "MTK2806:3WT783CTPCOPUJJ2JUPDBDIP9JNBCO", "dateTime": 1519403818251}, {"current_trial": 172, "trialdata": {"rt": 5425, "trial_type": "text", "internal_node_id": "0.0-127.0", "time_elapsed": 848679, "key_press": 13, "type": "INSTRUCTIONS", "trial_index": 172}, "uniqueid": "MTK2806:3WT783CTPCOPUJJ2JUPDBDIP9JNBCO", "dateTime": 1519403825682}, {"current_trial": 173, "trialdata": {"rt": [3566, 6615, 10543, 14247, 16381, 18192, 20697, 23513], "trial_type": "math-distractor", "key_times": [2739, 2917, 3566, 5311, 5972, 6615, 10071, 10243, 10543, 12857, 13069, 14247, 15337, 16033, 16381, 17554, 17881, 18192, 20070, 20358, 20697, 22848, 23242, 23513], "responses": ["11", "14", "22", "14", "19", "10", "20", "18"], "num2": [3, 4, 9, 5, 8, 1, 6, 9, 7], "num3": [4, 6, 5, 6, 9, 8, 6, 6, 6], "conditions": [12, 1600, "v", 24000], "internal_node_id": "0.0-128.0", "key_presses": [49, 49, 13, 49, 52, 13, 50, 50, 13, 49, 52, 13, 49, 57, 13, 49, 48, 13, 50, 48, 13, 49, 56, 13], "trial": 5, "time_elapsed": 874696, "type": "DISTRACTOR", "trial_index": 173, "num1": [4, 4, 8, 3, 2, 1, 8, 3, 1]}, "uniqueid": "MTK2806:3WT783CTPCOPUJJ2JUPDBDIP9JNBCO", "dateTime": 1519403851699}, {"current_trial": 174, "trialdata": {"rt": -1, "trial_type": "single-stim", "stimulus": "<p id=\"stim\">10</p>", "internal_node_id": "0.0-129.0-0.0", "time_elapsed": 877708, "key_press": -1, "trial_index": 174}, "uniqueid": "MTK2806:3WT783CTPCOPUJJ2JUPDBDIP9JNBCO", "dateTime": 1519403854710}, {"current_trial": 175, "trialdata": {"rt": -1, "trial_type": "single-stim", "stimulus": "<p id=\"stim\">9</p>", "internal_node_id": "0.0-129.0-1.0", "time_elapsed": 878714, "key_press": -1, "trial_index": 175}, "uniqueid": "MTK2806:3WT783CTPCOPUJJ2JUPDBDIP9JNBCO", "dateTime": 1519403855717}, {"current_trial": 176, "trialdata": {"rt": -1, "trial_type": "single-stim", "stimulus": "<p id=\"stim\">8</p>", "internal_node_id": "0.0-129.0-2.0", "time_elapsed": 879721, "key_press": -1, "trial_index": 176}, "uniqueid": "MTK2806:3WT783CTPCOPUJJ2JUPDBDIP9JNBCO", "dateTime": 1519403856724}, {"current_trial": 177, "trialdata": {"rt": -1, "trial_type": "single-stim", "stimulus": "<p id=\"stim\">7</p>", "internal_node_id": "0.0-129.0-3.0", "time_elapsed": 880726, "key_press": -1, "trial_index": 177}, "uniqueid": "MTK2806:3WT783CTPCOPUJJ2JUPDBDIP9JNBCO", "dateTime": 1519403857729}, {"current_trial": 178, "trialdata": {"rt": -1, "trial_type": "single-stim", "stimulus": "<p id=\"stim\">6</p>", "internal_node_id": "0.0-129.0-4.0", "time_elapsed": 881732, "key_press": -1, "trial_index": 178}, "uniqueid": "MTK2806:3WT783CTPCOPUJJ2JUPDBDIP9JNBCO", "dateTime": 1519403858734}, {"current_trial": 179, "trialdata": {"rt": -1, "trial_type": "single-stim", "stimulus": "<p id=\"stim\">5</p>", "internal_node_id": "0.0-129.0-5.0", "time_elapsed": 882738, "key_press": -1, "trial_index": 179}, "uniqueid": "MTK2806:3WT783CTPCOPUJJ2JUPDBDIP9JNBCO", "dateTime": 1519403859740}, {"current_trial": 180, "trialdata": {"rt": -1, "trial_type": "single-stim", "stimulus": "<p id=\"stim\">4</p>", "internal_node_id": "0.0-129.0-6.0", "time_elapsed": 883744, "key_press": -1, "trial_index": 180}, "uniqueid": "MTK2806:3WT783CTPCOPUJJ2JUPDBDIP9JNBCO", "dateTime": 1519403860746}, {"current_trial": 181, "trialdata": {"rt": -1, "trial_type": "single-stim", "stimulus": "<p id=\"stim\">3</p>", "internal_node_id": "0.0-129.0-7.0", "time_elapsed": 884750, "key_press": -1, "trial_index": 181}, "uniqueid": "MTK2806:3WT783CTPCOPUJJ2JUPDBDIP9JNBCO", "dateTime": 1519403861752}, {"current_trial": 182, "trialdata": {"rt": -1, "trial_type": "single-stim", "stimulus": "<p id=\"stim\">2</p>", "internal_node_id": "0.0-129.0-8.0", "time_elapsed": 885756, "key_press": -1, "trial_index": 182}, "uniqueid": "MTK2806:3WT783CTPCOPUJJ2JUPDBDIP9JNBCO", "dateTime": 1519403862760}, {"current_trial": 183, "trialdata": {"rt": -1, "trial_type": "single-stim", "stimulus": "<p id=\"stim\">1</p>", "internal_node_id": "0.0-129.0-9.0", "time_elapsed": 886765, "key_press": -1, "trial_index": 183}, "uniqueid": "MTK2806:3WT783CTPCOPUJJ2JUPDBDIP9JNBCO", "dateTime": 1519403863768}, {"current_trial": 184, "trialdata": {"rt": -1, "trial_type": "single-stim", "stimulus": "<p id=\"stim\">+</p>", "internal_node_id": "0.0-130.0-0.0", "time_elapsed": 888271, "key_press": -1, "type": "FIXATION", "trial_index": 184}, "uniqueid": "MTK2806:3WT783CTPCOPUJJ2JUPDBDIP9JNBCO", "dateTime": 1519403865274}, {"current_trial": 185, "trialdata": {"rt": -1, "trial_type": "single-stim", "word": "jelly", "stimulus": "<p id=\"stim\">JELLY</p>", "conditions": [12, 1600, "v", 24000], "internal_node_id": "0.0-131.0", "trial": 5, "time_elapsed": 889878, "serialpos": 0, "key_press": -1, "wordID": 754, "type": "PRES_VIS", "trial_index": 185}, "uniqueid": "MTK2806:3WT783CTPCOPUJJ2JUPDBDIP9JNBCO", "dateTime": 1519403866881}, {"current_trial": 186, "trialdata": {"rt": -1, "trial_type": "single-stim", "word": "scissors", "stimulus": "<p id=\"stim\">SCISSORS</p>", "conditions": [12, 1600, "v", 24000], "internal_node_id": "0.0-132.0", "trial": 5, "time_elapsed": 892465, "serialpos": 1, "key_press": -1, "wordID": 1249, "type": "PRES_VIS", "trial_index": 186}, "uniqueid": "MTK2806:3WT783CTPCOPUJJ2JUPDBDIP9JNBCO", "dateTime": 1519403869468}, {"current_trial": 187, "trialdata": {"rt": -1, "trial_type": "single-stim", "word": "star", "stimulus": "<p id=\"stim\">STAR</p>", "conditions": [12, 1600, "v", 24000], "internal_node_id": "0.0-133.0", "trial": 5, "time_elapsed": 895044, "serialpos": 2, "key_press": -1, "wordID": 1372, "type": "PRES_VIS", "trial_index": 187}, "uniqueid": "MTK2806:3WT783CTPCOPUJJ2JUPDBDIP9JNBCO", "dateTime": 1519403872048}, {"current_trial": 188, "trialdata": {"rt": -1, "trial_type": "single-stim", "word": "glass", "stimulus": "<p id=\"stim\">GLASS</p>", "conditions": [12, 1600, "v", 24000], "internal_node_id": "0.0-134.0", "trial": 5, "time_elapsed": 897687, "serialpos": 3, "key_press": -1, "wordID": 638, "type": "PRES_VIS", "trial_index": 188}, "uniqueid": "MTK2806:3WT783CTPCOPUJJ2JUPDBDIP9JNBCO", "dateTime": 1519403874689}, {"current_trial": 189, "trialdata": {"rt": -1, "trial_type": "single-stim", "word": "fiddle", "stimulus": "<p id=\"stim\">FIDDLE</p>", "conditions": [12, 1600, "v", 24000], "internal_node_id": "0.0-135.0", "trial": 5, "time_elapsed": 900155, "serialpos": 4, "key_press": -1, "wordID": 560, "type": "PRES_VIS", "trial_index": 189}, "uniqueid": "MTK2806:3WT783CTPCOPUJJ2JUPDBDIP9JNBCO", "dateTime": 1519403877158}, {"current_trial": 190, "trialdata": {"rt": -1, "trial_type": "single-stim", "word": "trombone", "stimulus": "<p id=\"stim\">TROMBONE</p>", "conditions": [12, 1600, "v", 24000], "internal_node_id": "0.0-136.0", "trial": 5, "time_elapsed": 902605, "serialpos": 5, "key_press": -1, "wordID": 1507, "type": "PRES_VIS", "trial_index": 190}, "uniqueid": "MTK2806:3WT783CTPCOPUJJ2JUPDBDIP9JNBCO", "dateTime": 1519403879608}, {"current_trial": 191, "trialdata": {"rt": -1, "trial_type": "single-stim", "word": "gavel", "stimulus": "<p id=\"stim\">GAVEL</p>", "conditions": [12, 1600, "v", 24000], "internal_node_id": "0.0-137.0", "trial": 5, "time_elapsed": 905047, "serialpos": 6, "key_press": -1, "wordID": 626, "type": "PRES_VIS", "trial_index": 191}, "uniqueid": "MTK2806:3WT783CTPCOPUJJ2JUPDBDIP9JNBCO", "dateTime": 1519403882050}, {"current_trial": 192, "trialdata": {"rt": -1, "trial_type": "single-stim", "word": "freckle", "stimulus": "<p id=\"stim\">FRECKLE</p>", "conditions": [12, 1600, "v", 24000], "internal_node_id": "0.0-138.0", "trial": 5, "time_elapsed": 907669, "serialpos": 7, "key_press": -1, "wordID": 601, "type": "PRES_VIS", "trial_index": 192}, "uniqueid": "MTK2806:3WT783CTPCOPUJJ2JUPDBDIP9JNBCO", "dateTime": 1519403884672}, {"current_trial": 193, "trialdata": {"rt": -1, "trial_type": "single-stim", "word": "lover", "stimulus": "<p id=\"stim\">LOVER</p>", "conditions": [12, 1600, "v", 24000], "internal_node_id": "0.0-139.0", "trial": 5, "time_elapsed": 910204, "serialpos": 8, "key_press": -1, "wordID": 845, "type": "PRES_VIS", "trial_index": 193}, "uniqueid": "MTK2806:3WT783CTPCOPUJJ2JUPDBDIP9JNBCO", "dateTime": 1519403887207}, {"current_trial": 194, "trialdata": {"rt": -1, "trial_type": "single-stim", "word": "couch", "stimulus": "<p id=\"stim\">COUCH</p>", "conditions": [12, 1600, "v", 24000], "internal_node_id": "0.0-140.0", "trial": 5, "time_elapsed": 913002, "serialpos": 9, "key_press": -1, "wordID": 385, "type": "PRES_VIS", "trial_index": 194}, "uniqueid": "MTK2806:3WT783CTPCOPUJJ2JUPDBDIP9JNBCO", "dateTime": 1519403890004}, {"current_trial": 195, "trialdata": {"rt": -1, "trial_type": "single-stim", "word": "silk", "stimulus": "<p id=\"stim\">SILK</p>", "conditions": [12, 1600, "v", 24000], "internal_node_id": "0.0-141.0", "trial": 5, "time_elapsed": 915492, "serialpos": 10, "key_press": -1, "wordID": 1306, "type": "PRES_VIS", "trial_index": 195}, "uniqueid": "MTK2806:3WT783CTPCOPUJJ2JUPDBDIP9JNBCO", "dateTime": 1519403892495}, {"current_trial": 196, "trialdata": {"rt": -1, "trial_type": "single-stim", "word": "razor", "stimulus": "<p id=\"stim\">RAZOR</p>", "conditions": [12, 1600, "v", 24000], "internal_node_id": "0.0-142.0", "trial": 5, "time_elapsed": 918158, "serialpos": 11, "key_press": -1, "wordID": 1170, "type": "PRES_VIS", "trial_index": 196}, "uniqueid": "MTK2806:3WT783CTPCOPUJJ2JUPDBDIP9JNBCO", "dateTime": 1519403895161}, {"current_trial": 197, "trialdata": {"rt": -1, "trial_type": "single-stim", "stimulus": "", "internal_node_id": "0.0-143.0-0.0", "time_elapsed": 920551, "key_press": -1, "type": "PRE_RECALL_DELAY", "trial_index": 197}, "uniqueid": "MTK2806:3WT783CTPCOPUJJ2JUPDBDIP9JNBCO", "dateTime": 1519403897554}, {"current_trial": 198, "trialdata": {"rt": -1000, "trial_type": "single-audio", "stimulus": "/static/audio/400Hz.wav", "internal_node_id": "0.0-144.0", "time_elapsed": 921056, "key_press": -1, "type": "PRE_RECALL_ALERT", "trial_index": 198}, "uniqueid": "MTK2806:3WT783CTPCOPUJJ2JUPDBDIP9JNBCO", "dateTime": 1519403898059}, {"current_trial": 199, "trialdata": {"rt": [2687, 4441, 5899, 7750, 10010, 13598, 16725, 19263, 27587, 28900], "recwords": ["silk", "razor", "lover", "couch", "jelly", "scissors", "gavel", "freckle", "star", "glass"], "key_times": [1320, 1471, 1751, 2254, 2687, 3056, 3193, 3497, 3622, 3817, 4441, 4965, 5070, 5202, 5433, 5577, 5899, 6249, 6454, 6585, 6725, 6896, 7750, 8647, 8744, 8911, 9094, 9222, 10010, 10344, 10569, 10802, 10968, 11123, 11382, 11597, 11811, 12570, 13028, 13598, 14724, 14882, 15217, 15361, 16312, 16725, 17214, 17494, 17584, 17875, 18445, 18670, 18772, 19263, 26493, 26751, 26876, 27013, 27587, 27909, 28102, 28270, 28371, 28579, 28900], "trial_type": "free-recall", "conditions": [12, 1600, "v", 24000], "internal_node_id": "0.0-145.0-0.0", "key_presses": [83, 73, 76, 75, 32, 82, 65, 90, 79, 82, 13, 76, 79, 86, 69, 82, 13, 67, 79, 85, 67, 72, 13, 74, 69, 76, 76, 89, 13, 83, 67, 73, 83, 83, 79, 82, 83, 8, 83, 13, 71, 65, 86, 69, 76, 13, 70, 82, 69, 67, 75, 76, 69, 13, 83, 84, 65, 82, 13, 71, 76, 65, 83, 83, 13], "trial": 5, "time_elapsed": 981074, "type": "FREE_RECALL", "trial_index": 199}, "uniqueid": "MTK2806:3WT783CTPCOPUJJ2JUPDBDIP9JNBCO", "dateTime": 1519403958103}, {"current_trial": 200, "trialdata": {"rt": 1302, "trial_type": "text", "internal_node_id": "0.0-146.0", "time_elapsed": 984408, "key_press": 32, "type": "INSTRUCTIONS", "trial_index": 200}, "uniqueid": "MTK2806:3WT783CTPCOPUJJ2JUPDBDIP9JNBCO", "dateTime": 1519403961410}, {"current_trial": 201, "trialdata": {"rt": [2409, 5701, 8587, 12090, 16584, 18665, 21722], "trial_type": "math-distractor", "key_times": [2409, 5081, 5344, 5701, 8194, 8587, 11565, 11782, 12090, 14795, 15084, 15929, 16284, 16584, 18038, 18291, 18665, 20724, 21275, 21722], "responses": ["", "15", "7", "21", "13", "12", "13"], "num2": [2, 7, 3, 3, 8, 3, 5, 7], "num3": [1, 5, 1, 9, 4, 6, 4, 7], "conditions": [24, 800, "v", 24000], "internal_node_id": "0.0-147.0", "key_presses": [13, 49, 53, 13, 55, 13, 50, 49, 13, 49, 52, 8, 51, 13, 49, 50, 13, 49, 51, 13], "trial": 6, "time_elapsed": 1010424, "type": "DISTRACTOR", "trial_index": 201, "num1": [5, 3, 3, 9, 1, 3, 4, 5]}, "uniqueid": "MTK2806:3WT783CTPCOPUJJ2JUPDBDIP9JNBCO", "dateTime": 1519403987426}, {"current_trial": 202, "trialdata": {"rt": -1, "trial_type": "single-stim", "stimulus": "<p id=\"stim\">10</p>", "internal_node_id": "0.0-148.0-0.0", "time_elapsed": 1013431, "key_press": -1, "trial_index": 202}, "uniqueid": "MTK2806:3WT783CTPCOPUJJ2JUPDBDIP9JNBCO", "dateTime": 1519403990434}, {"current_trial": 203, "trialdata": {"rt": -1, "trial_type": "single-stim", "stimulus": "<p id=\"stim\">9</p>", "internal_node_id": "0.0-148.0-1.0", "time_elapsed": 1014436, "key_press": -1, "trial_index": 203}, "uniqueid": "MTK2806:3WT783CTPCOPUJJ2JUPDBDIP9JNBCO", "dateTime": 1519403991439}, {"current_trial": 204, "trialdata": {"rt": -1, "trial_type": "single-stim", "stimulus": "<p id=\"stim\">8</p>", "internal_node_id": "0.0-148.0-2.0", "time_elapsed": 1015441, "key_press": -1, "trial_index": 204}, "uniqueid": "MTK2806:3WT783CTPCOPUJJ2JUPDBDIP9JNBCO", "dateTime": 1519403992444}, {"current_trial": 205, "trialdata": {"rt": -1, "trial_type": "single-stim", "stimulus": "<p id=\"stim\">7</p>", "internal_node_id": "0.0-148.0-3.0", "time_elapsed": 1016447, "key_press": -1, "trial_index": 205}, "uniqueid": "MTK2806:3WT783CTPCOPUJJ2JUPDBDIP9JNBCO", "dateTime": 1519403993450}, {"current_trial": 206, "trialdata": {"rt": -1, "trial_type": "single-stim", "stimulus": "<p id=\"stim\">6</p>", "internal_node_id": "0.0-148.0-4.0", "time_elapsed": 1017453, "key_press": -1, "trial_index": 206}, "uniqueid": "MTK2806:3WT783CTPCOPUJJ2JUPDBDIP9JNBCO", "dateTime": 1519403994456}, {"current_trial": 207, "trialdata": {"rt": -1, "trial_type": "single-stim", "stimulus": "<p id=\"stim\">5</p>", "internal_node_id": "0.0-148.0-5.0", "time_elapsed": 1018459, "key_press": -1, "trial_index": 207}, "uniqueid": "MTK2806:3WT783CTPCOPUJJ2JUPDBDIP9JNBCO", "dateTime": 1519403995462}, {"current_trial": 208, "trialdata": {"rt": -1, "trial_type": "single-stim", "stimulus": "<p id=\"stim\">4</p>", "internal_node_id": "0.0-148.0-6.0", "time_elapsed": 1019466, "key_press": -1, "trial_index": 208}, "uniqueid": "MTK2806:3WT783CTPCOPUJJ2JUPDBDIP9JNBCO", "dateTime": 1519403996468}, {"current_trial": 209, "trialdata": {"rt": -1, "trial_type": "single-stim", "stimulus": "<p id=\"stim\">3</p>", "internal_node_id": "0.0-148.0-7.0", "time_elapsed": 1020472, "key_press": -1, "trial_index": 209}, "uniqueid": "MTK2806:3WT783CTPCOPUJJ2JUPDBDIP9JNBCO", "dateTime": 1519403997475}, {"current_trial": 210, "trialdata": {"rt": -1, "trial_type": "single-stim", "stimulus": "<p id=\"stim\">2</p>", "internal_node_id": "0.0-148.0-8.0", "time_elapsed": 1021478, "key_press": -1, "trial_index": 210}, "uniqueid": "MTK2806:3WT783CTPCOPUJJ2JUPDBDIP9JNBCO", "dateTime": 1519403998480}, {"current_trial": 211, "trialdata": {"rt": -1, "trial_type": "single-stim", "stimulus": "<p id=\"stim\">1</p>", "internal_node_id": "0.0-148.0-9.0", "time_elapsed": 1022484, "key_press": -1, "trial_index": 211}, "uniqueid": "MTK2806:3WT783CTPCOPUJJ2JUPDBDIP9JNBCO", "dateTime": 1519403999486}, {"current_trial": 212, "trialdata": {"rt": -1, "trial_type": "single-stim", "stimulus": "<p id=\"stim\">+</p>", "internal_node_id": "0.0-149.0-0.0", "time_elapsed": 1023989, "key_press": -1, "type": "FIXATION", "trial_index": 212}, "uniqueid": "MTK2806:3WT783CTPCOPUJJ2JUPDBDIP9JNBCO", "dateTime": 1519404000992}, {"current_trial": 213, "trialdata": {"rt": -1, "trial_type": "single-stim", "word": "receipt", "stimulus": "<p id=\"stim\">RECEIPT</p>", "conditions": [24, 800, "v", 24000], "internal_node_id": "0.0-150.0", "trial": 6, "time_elapsed": 1024797, "serialpos": 0, "key_press": -1, "wordID": 1172, "type": "PRES_VIS", "trial_index": 213}, "uniqueid": "MTK2806:3WT783CTPCOPUJJ2JUPDBDIP9JNBCO", "dateTime": 1519404001799}, {"current_trial": 214, "trialdata": {"rt": -1, "trial_type": "single-stim", "word": "widow", "stimulus": "<p id=\"stim\">WIDOW</p>", "conditions": [24, 800, "v", 24000], "internal_node_id": "0.0-151.0", "trial": 6, "time_elapsed": 1026611, "serialpos": 1, "key_press": -1, "wordID": 1607, "type": "PRES_VIS", "trial_index": 214}, "uniqueid": "MTK2806:3WT783CTPCOPUJJ2JUPDBDIP9JNBCO", "dateTime": 1519404003613}, {"current_trial": 215, "trialdata": {"rt": -1, "trial_type": "single-stim", "word": "daughter", "stimulus": "<p id=\"stim\">DAUGHTER</p>", "conditions": [24, 800, "v", 24000], "internal_node_id": "0.0-152.0", "trial": 6, "time_elapsed": 1028369, "serialpos": 2, "key_press": -1, "wordID": 441, "type": "PRES_VIS", "trial_index": 215}, "uniqueid": "MTK2806:3WT783CTPCOPUJJ2JUPDBDIP9JNBCO", "dateTime": 1519404005371}, {"current_trial": 216, "trialdata": {"rt": -1, "trial_type": "single-stim", "word": "beaver", "stimulus": "<p id=\"stim\">BEAVER</p>", "conditions": [24, 800, "v", 24000], "internal_node_id": "0.0-153.0", "trial": 6, "time_elapsed": 1030090, "serialpos": 3, "key_press": -1, "wordID": 108, "type": "PRES_VIS", "trial_index": 216}, "uniqueid": "MTK2806:3WT783CTPCOPUJJ2JUPDBDIP9JNBCO", "dateTime": 1519404007092}, {"current_trial": 217, "trialdata": {"rt": -1, "trial_type": "single-stim", "word": "item", "stimulus": "<p id=\"stim\">ITEM</p>", "conditions": [24, 800, "v", 24000], "internal_node_id": "0.0-154.0", "trial": 6, "time_elapsed": 1031840, "serialpos": 4, "key_press": -1, "wordID": 745, "type": "PRES_VIS", "trial_index": 217}, "uniqueid": "MTK2806:3WT783CTPCOPUJJ2JUPDBDIP9JNBCO", "dateTime": 1519404008843}, {"current_trial": 218, "trialdata": {"rt": -1, "trial_type": "single-stim", "word": "chest", "stimulus": "<p id=\"stim\">CHEST</p>", "conditions": [24, 800, "v", 24000], "internal_node_id": "0.0-155.0", "trial": 6, "time_elapsed": 1033694, "serialpos": 5, "key_press": -1, "wordID": 294, "type": "PRES_VIS", "trial_index": 218}, "uniqueid": "MTK2806:3WT783CTPCOPUJJ2JUPDBDIP9JNBCO", "dateTime": 1519404010697}, {"current_trial": 219, "trialdata": {"rt": -1, "trial_type": "single-stim", "word": "sticker", "stimulus": "<p id=\"stim\">STICKER</p>", "conditions": [24, 800, "v", 24000], "internal_node_id": "0.0-156.0", "trial": 6, "time_elapsed": 1035584, "serialpos": 6, "key_press": -1, "wordID": 1381, "type": "PRES_VIS", "trial_index": 219}, "uniqueid": "MTK2806:3WT783CTPCOPUJJ2JUPDBDIP9JNBCO", "dateTime": 1519404012586}, {"current_trial": 220, "trialdata": {"rt": -1, "trial_type": "single-stim", "word": "helmet", "stimulus": "<p id=\"stim\">HELMET</p>", "conditions": [24, 800, "v", 24000], "internal_node_id": "0.0-157.0", "trial": 6, "time_elapsed": 1037207, "serialpos": 7, "key_press": -1, "wordID": 701, "type": "PRES_VIS", "trial_index": 220}, "uniqueid": "MTK2806:3WT783CTPCOPUJJ2JUPDBDIP9JNBCO", "dateTime": 1519404014211}, {"current_trial": 221, "trialdata": {"rt": -1, "trial_type": "single-stim", "word": "motor", "stimulus": "<p id=\"stim\">MOTOR</p>", "conditions": [24, 800, "v", 24000], "internal_node_id": "0.0-158.0", "trial": 6, "time_elapsed": 1038883, "serialpos": 8, "key_press": -1, "wordID": 921, "type": "PRES_VIS", "trial_index": 221}, "uniqueid": "MTK2806:3WT783CTPCOPUJJ2JUPDBDIP9JNBCO", "dateTime": 1519404015885}, {"current_trial": 222, "trialdata": {"rt": -1, "trial_type": "single-stim", "word": "shark", "stimulus": "<p id=\"stim\">SHARK</p>", "conditions": [24, 800, "v", 24000], "internal_node_id": "0.0-159.0", "trial": 6, "time_elapsed": 1040793, "serialpos": 9, "key_press": -1, "wordID": 1274, "type": "PRES_VIS", "trial_index": 222}, "uniqueid": "MTK2806:3WT783CTPCOPUJJ2JUPDBDIP9JNBCO", "dateTime": 1519404017796}, {"current_trial": 223, "trialdata": {"rt": -1, "trial_type": "single-stim", "word": "student", "stimulus": "<p id=\"stim\">STUDENT</p>", "conditions": [24, 800, "v", 24000], "internal_node_id": "0.0-160.0", "trial": 6, "time_elapsed": 1042697, "serialpos": 10, "key_press": -1, "wordID": 1394, "type": "PRES_VIS", "trial_index": 223}, "uniqueid": "MTK2806:3WT783CTPCOPUJJ2JUPDBDIP9JNBCO", "dateTime": 1519404019700}, {"current_trial": 224, "trialdata": {"rt": -1, "trial_type": "single-stim", "word": "forehead", "stimulus": "<p id=\"stim\">FOREHEAD</p>", "conditions": [24, 800, "v", 24000], "internal_node_id": "0.0-161.0", "trial": 6, "time_elapsed": 1044416, "serialpos": 11, "key_press": -1, "wordID": 591, "type": "PRES_VIS", "trial_index": 224}, "uniqueid": "MTK2806:3WT783CTPCOPUJJ2JUPDBDIP9JNBCO", "dateTime": 1519404021418}, {"current_trial": 225, "trialdata": {"rt": -1, "trial_type": "single-stim", "word": "river", "stimulus": "<p id=\"stim\">RIVER</p>", "conditions": [24, 800, "v", 24000], "internal_node_id": "0.0-162.0", "trial": 6, "time_elapsed": 1046093, "serialpos": 12, "key_press": -1, "wordID": 1193, "type": "PRES_VIS", "trial_index": 225}, "uniqueid": "MTK2806:3WT783CTPCOPUJJ2JUPDBDIP9JNBCO", "dateTime": 1519404023096}, {"current_trial": 226, "trialdata": {"rt": -1, "trial_type": "single-stim", "word": "stamp", "stimulus": "<p id=\"stim\">STAMP</p>", "conditions": [24, 800, "v", 24000], "internal_node_id": "0.0-163.0", "trial": 6, "time_elapsed": 1047774, "serialpos": 13, "key_press": -1, "wordID": 1369, "type": "PRES_VIS", "trial_index": 226}, "uniqueid": "MTK2806:3WT783CTPCOPUJJ2JUPDBDIP9JNBCO", "dateTime": 1519404024776}, {"current_trial": 227, "trialdata": {"rt": -1, "trial_type": "single-stim", "word": "knapsack", "stimulus": "<p id=\"stim\">KNAPSACK</p>", "conditions": [24, 800, "v", 24000], "internal_node_id": "0.0-164.0", "trial": 6, "time_elapsed": 1049614, "serialpos": 14, "key_press": -1, "wordID": 782, "type": "PRES_VIS", "trial_index": 227}, "uniqueid": "MTK2806:3WT783CTPCOPUJJ2JUPDBDIP9JNBCO", "dateTime": 1519404026617}, {"current_trial": 228, "trialdata": {"rt": -1, "trial_type": "single-stim", "word": "whistle", "stimulus": "<p id=\"stim\">WHISTLE</p>", "conditions": [24, 800, "v", 24000], "internal_node_id": "0.0-165.0", "trial": 6, "time_elapsed": 1051376, "serialpos": 15, "key_press": -1, "wordID": 1605, "type": "PRES_VIS", "trial_index": 228}, "uniqueid": "MTK2806:3WT783CTPCOPUJJ2JUPDBDIP9JNBCO", "dateTime": 1519404028378}, {"current_trial": 229, "trialdata": {"rt": -1, "trial_type": "single-stim", "word": "canal", "stimulus": "<p id=\"stim\">CANAL</p>", "conditions": [24, 800, "v", 24000], "internal_node_id": "0.0-166.0", "trial": 6, "time_elapsed": 1053103, "serialpos": 16, "key_press": -1, "wordID": 225, "type": "PRES_VIS", "trial_index": 229}, "uniqueid": "MTK2806:3WT783CTPCOPUJJ2JUPDBDIP9JNBCO", "dateTime": 1519404030107}, {"current_trial": 230, "trialdata": {"rt": -1, "trial_type": "single-stim", "word": "forest", "stimulus": "<p id=\"stim\">FOREST</p>", "conditions": [24, 800, "v", 24000], "internal_node_id": "0.0-167.0", "trial": 6, "time_elapsed": 1054924, "serialpos": 17, "key_press": -1, "wordID": 592, "type": "PRES_VIS", "trial_index": 230}, "uniqueid": "MTK2806:3WT783CTPCOPUJJ2JUPDBDIP9JNBCO", "dateTime": 1519404031927}, {"current_trial": 231, "trialdata": {"rt": -1, "trial_type": "single-stim", "word": "oyster", "stimulus": "<p id=\"stim\">OYSTER</p>", "conditions": [24, 800, "v", 24000], "internal_node_id": "0.0-168.0", "trial": 6, "time_elapsed": 1056867, "serialpos": 18, "key_press": -1, "wordID": 994, "type": "PRES_VIS", "trial_index": 231}, "uniqueid": "MTK2806:3WT783CTPCOPUJJ2JUPDBDIP9JNBCO", "dateTime": 1519404033869}, {"current_trial": 232, "trialdata": {"rt": -1, "trial_type": "single-stim", "word": "liver", "stimulus": "<p id=\"stim\">LIVER</p>", "conditions": [24, 800, "v", 24000], "internal_node_id": "0.0-169.0", "trial": 6, "time_elapsed": 1058562, "serialpos": 19, "key_press": -1, "wordID": 832, "type": "PRES_VIS", "trial_index": 232}, "uniqueid": "MTK2806:3WT783CTPCOPUJJ2JUPDBDIP9JNBCO", "dateTime": 1519404035565}, {"current_trial": 233, "trialdata": {"rt": -1, "trial_type": "single-stim", "word": "curtain", "stimulus": "<p id=\"stim\">CURTAIN</p>", "conditions": [24, 800, "v", 24000], "internal_node_id": "0.0-170.0", "trial": 6, "time_elapsed": 1060564, "serialpos": 20, "key_press": -1, "wordID": 426, "type": "PRES_VIS", "trial_index": 233}, "uniqueid": "MTK2806:3WT783CTPCOPUJJ2JUPDBDIP9JNBCO", "dateTime": 1519404037567}, {"current_trial": 234, "trialdata": {"rt": -1, "trial_type": "single-stim", "word": "jungle", "stimulus": "<p id=\"stim\">JUNGLE</p>", "conditions": [24, 800, "v", 24000], "internal_node_id": "0.0-171.0", "trial": 6, "time_elapsed": 1062546, "serialpos": 21, "key_press": -1, "wordID": 763, "type": "PRES_VIS", "trial_index": 234}, "uniqueid": "MTK2806:3WT783CTPCOPUJJ2JUPDBDIP9JNBCO", "dateTime": 1519404039550}, {"current_trial": 235, "trialdata": {"rt": -1, "trial_type": "single-stim", "word": "wrist", "stimulus": "<p id=\"stim\">WRIST</p>", "conditions": [24, 800, "v", 24000], "internal_node_id": "0.0-172.0", "trial": 6, "time_elapsed": 1064335, "serialpos": 22, "key_press": -1, "wordID": 1625, "type": "PRES_VIS", "trial_index": 235}, "uniqueid": "MTK2806:3WT783CTPCOPUJJ2JUPDBDIP9JNBCO", "dateTime": 1519404041339}, {"current_trial": 236, "trialdata": {"rt": -1, "trial_type": "single-stim", "word": "leg", "stimulus": "<p id=\"stim\">LEG</p>", "conditions": [24, 800, "v", 24000], "internal_node_id": "0.0-173.0", "trial": 6, "time_elapsed": 1066126, "serialpos": 23, "key_press": -1, "wordID": 808, "type": "PRES_VIS", "trial_index": 236}, "uniqueid": "MTK2806:3WT783CTPCOPUJJ2JUPDBDIP9JNBCO", "dateTime": 1519404043129}, {"current_trial": 237, "trialdata": {"rt": -1, "trial_type": "single-stim", "stimulus": "", "internal_node_id": "0.0-174.0-0.0", "time_elapsed": 1068538, "key_press": -1, "type": "PRE_RECALL_DELAY", "trial_index": 237}, "uniqueid": "MTK2806:3WT783CTPCOPUJJ2JUPDBDIP9JNBCO", "dateTime": 1519404045541}, {"current_trial": 238, "trialdata": {"rt": -1000, "trial_type": "single-audio", "stimulus": "/static/audio/400Hz.wav", "internal_node_id": "0.0-175.0", "time_elapsed": 1069043, "key_press": -1, "type": "PRE_RECALL_ALERT", "trial_index": 238}, "uniqueid": "MTK2806:3WT783CTPCOPUJJ2JUPDBDIP9JNBCO", "dateTime": 1519404046047}, {"current_trial": 239, "trialdata": {"rt": [2776, 4996, 6857, 9254, 11169, 13007, 25302, 27350, 31610, 34159, 38641], "recwords": ["wrist", "leg", "curtain", "jungle", "oyster", "liver", "widow", "daughter", "sticker", "helmet", "item"], "key_times": [1376, 1678, 2041, 2137, 2357, 2776, 3155, 3295, 4031, 4996, 5415, 5731, 5846, 6058, 6112, 6273, 6391, 6857, 7540, 7647, 7928, 7992, 8494, 8604, 9254, 9896, 10112, 10269, 10455, 10591, 10714, 11169, 11581, 11832, 11963, 12284, 12422, 13007, 23938, 24156, 24307, 24426, 24580, 25302, 25697, 25803, 26107, 26224, 26364, 26626, 26776, 26923, 27350, 30101, 30328, 30501, 30686, 30819, 30997, 31100, 31610, 32196, 32396, 32636, 32904, 32977, 33211, 34159, 37084, 37576, 37816, 37944, 38056, 38197, 38641], "trial_type": "free-recall", "conditions": [24, 800, "v", 24000], "internal_node_id": "0.0-176.0-0.0", "key_presses": [87, 82, 73, 83, 84, 13, 76, 69, 71, 13, 67, 85, 82, 84, 65, 73, 78, 13, 74, 85, 78, 71, 76, 69, 13, 79, 89, 83, 84, 69, 82, 13, 76, 73, 86, 69, 82, 13, 87, 73, 68, 79, 87, 13, 68, 65, 85, 71, 72, 84, 69, 82, 13, 83, 84, 73, 67, 75, 69, 82, 13, 72, 69, 76, 77, 69, 84, 13, 85, 8, 73, 84, 69, 77, 13], "trial": 6, "time_elapsed": 1129061, "type": "FREE_RECALL", "trial_index": 239}, "uniqueid": "MTK2806:3WT783CTPCOPUJJ2JUPDBDIP9JNBCO", "dateTime": 1519404106092}, {"current_trial": 240, "trialdata": {"rt": 946, "trial_type": "text", "internal_node_id": "0.0-177.0", "time_elapsed": 1132042, "key_press": 32, "type": "INSTRUCTIONS", "trial_index": 240}, "uniqueid": "MTK2806:3WT783CTPCOPUJJ2JUPDBDIP9JNBCO", "dateTime": 1519404109045}, {"current_trial": 241, "trialdata": {"rt": [4105, 10460, 14131, 16243, 20016, 23455], "trial_type": "math-distractor", "key_times": [3109, 3496, 4105, 6021, 6411, 8171, 8309, 8869, 9145, 10460, 13503, 13850, 14131, 15863, 16243, 19052, 19635, 20016, 22778, 23165, 23455], "responses": ["16", "14", "15", "8", "18", "16"], "num2": [5, 1, 6, 5, 9, 3, 7], "num3": [2, 9, 8, 2, 6, 9, 4], "conditions": [12, 1600, "v", 24000], "internal_node_id": "0.0-178.0", "key_presses": [49, 54, 13, 49, 51, 8, 51, 8, 52, 13, 49, 53, 13, 56, 13, 49, 56, 13, 49, 54, 13], "trial": 7, "time_elapsed": 1158062, "type": "DISTRACTOR", "trial_index": 241, "num1": [9, 4, 1, 1, 3, 4, 2]}, "uniqueid": "MTK2806:3WT783CTPCOPUJJ2JUPDBDIP9JNBCO", "dateTime": 1519404135065}, {"current_trial": 242, "trialdata": {"rt": -1, "trial_type": "single-stim", "stimulus": "<p id=\"stim\">10</p>", "internal_node_id": "0.0-179.0-0.0", "time_elapsed": 1161071, "key_press": -1, "trial_index": 242}, "uniqueid": "MTK2806:3WT783CTPCOPUJJ2JUPDBDIP9JNBCO", "dateTime": 1519404138074}, {"current_trial": 243, "trialdata": {"rt": -1, "trial_type": "single-stim", "stimulus": "<p id=\"stim\">9</p>", "internal_node_id": "0.0-179.0-1.0", "time_elapsed": 1162079, "key_press": -1, "trial_index": 243}, "uniqueid": "MTK2806:3WT783CTPCOPUJJ2JUPDBDIP9JNBCO", "dateTime": 1519404139082}, {"current_trial": 244, "trialdata": {"rt": -1, "trial_type": "single-stim", "stimulus": "<p id=\"stim\">8</p>", "internal_node_id": "0.0-179.0-2.0", "time_elapsed": 1163085, "key_press": -1, "trial_index": 244}, "uniqueid": "MTK2806:3WT783CTPCOPUJJ2JUPDBDIP9JNBCO", "dateTime": 1519404140088}, {"current_trial": 245, "trialdata": {"rt": -1, "trial_type": "single-stim", "stimulus": "<p id=\"stim\">7</p>", "internal_node_id": "0.0-179.0-3.0", "time_elapsed": 1164091, "key_press": -1, "trial_index": 245}, "uniqueid": "MTK2806:3WT783CTPCOPUJJ2JUPDBDIP9JNBCO", "dateTime": 1519404141094}, {"current_trial": 246, "trialdata": {"rt": -1, "trial_type": "single-stim", "stimulus": "<p id=\"stim\">6</p>", "internal_node_id": "0.0-179.0-4.0", "time_elapsed": 1165097, "key_press": -1, "trial_index": 246}, "uniqueid": "MTK2806:3WT783CTPCOPUJJ2JUPDBDIP9JNBCO", "dateTime": 1519404142101}, {"current_trial": 247, "trialdata": {"rt": -1, "trial_type": "single-stim", "stimulus": "<p id=\"stim\">5</p>", "internal_node_id": "0.0-179.0-5.0", "time_elapsed": 1166104, "key_press": -1, "trial_index": 247}, "uniqueid": "MTK2806:3WT783CTPCOPUJJ2JUPDBDIP9JNBCO", "dateTime": 1519404143106}, {"current_trial": 248, "trialdata": {"rt": -1, "trial_type": "single-stim", "stimulus": "<p id=\"stim\">4</p>", "internal_node_id": "0.0-179.0-6.0", "time_elapsed": 1167109, "key_press": -1, "trial_index": 248}, "uniqueid": "MTK2806:3WT783CTPCOPUJJ2JUPDBDIP9JNBCO", "dateTime": 1519404144112}, {"current_trial": 249, "trialdata": {"rt": -1, "trial_type": "single-stim", "stimulus": "<p id=\"stim\">3</p>", "internal_node_id": "0.0-179.0-7.0", "time_elapsed": 1168115, "key_press": -1, "trial_index": 249}, "uniqueid": "MTK2806:3WT783CTPCOPUJJ2JUPDBDIP9JNBCO", "dateTime": 1519404145118}, {"current_trial": 250, "trialdata": {"rt": -1, "trial_type": "single-stim", "stimulus": "<p id=\"stim\">2</p>", "internal_node_id": "0.0-179.0-8.0", "time_elapsed": 1169122, "key_press": -1, "trial_index": 250}, "uniqueid": "MTK2806:3WT783CTPCOPUJJ2JUPDBDIP9JNBCO", "dateTime": 1519404146125}, {"current_trial": 251, "trialdata": {"rt": -1, "trial_type": "single-stim", "stimulus": "<p id=\"stim\">1</p>", "internal_node_id": "0.0-179.0-9.0", "time_elapsed": 1170129, "key_press": -1, "trial_index": 251}, "uniqueid": "MTK2806:3WT783CTPCOPUJJ2JUPDBDIP9JNBCO", "dateTime": 1519404147132}, {"current_trial": 252, "trialdata": {"rt": -1, "trial_type": "single-stim", "stimulus": "<p id=\"stim\">+</p>", "internal_node_id": "0.0-180.0-0.0", "time_elapsed": 1171637, "key_press": -1, "type": "FIXATION", "trial_index": 252}, "uniqueid": "MTK2806:3WT783CTPCOPUJJ2JUPDBDIP9JNBCO", "dateTime": 1519404148645}, {"current_trial": 253, "trialdata": {"rt": -1, "trial_type": "single-stim", "word": "igloo", "stimulus": "<p id=\"stim\">IGLOO</p>", "conditions": [12, 1600, "v", 24000], "internal_node_id": "0.0-181.0", "trial": 7, "time_elapsed": 1173250, "serialpos": 0, "key_press": -1, "wordID": 733, "type": "PRES_VIS", "trial_index": 253}, "uniqueid": "MTK2806:3WT783CTPCOPUJJ2JUPDBDIP9JNBCO", "dateTime": 1519404150253}, {"current_trial": 254, "trialdata": {"rt": -1, "trial_type": "single-stim", "word": "grill", "stimulus": "<p id=\"stim\">GRILL</p>", "conditions": [12, 1600, "v", 24000], "internal_node_id": "0.0-182.0", "trial": 7, "time_elapsed": 1176056, "serialpos": 1, "key_press": -1, "wordID": 660, "type": "PRES_VIS", "trial_index": 254}, "uniqueid": "MTK2806:3WT783CTPCOPUJJ2JUPDBDIP9JNBCO", "dateTime": 1519404153058}, {"current_trial": 255, "trialdata": {"rt": -1, "trial_type": "single-stim",