{"assignmentId": "34YB12FSQZVYUM34C5B5FKEYH7GMGN", "workerId": "MTK2295", "questiondata": {"origin": "United States", "strat-rehearsal": "36", "marital": "Single", "education": "High school diploma", "ethnicity": "Hispanic", "color_depth": 24, "distracted": "No", "wrote-notes": "No", "strat-other": "I did not use any other strategies than the one that are listed above.", "screen_width": 1366, "avail_screen_width": 1366, "avail_screen_height": 768, "strat-image": "24", "language": "English", "gender": "Male", "age": "38", "gender_other": "", "race": ["White"], "strat-categorize": "5", "pixel_depth": 24, "strat-spatial": "57", "strat-story": "67", "race_other": "", "screen_height": 768}, "bonus": 0, "hitId": "3XU80RHWHZN0RWNKLY46VH4BMIS44D", "counterbalance": 143, "useragent": "Mozilla/5.0 (Windows NT 10.0; Win64; x64) AppleWebKit/537.36 (KHTML, like Gecko) Chrome/63.0.3239.132 Safari/537.36", "eventdata": [{"eventtype": "initialized", "interval": 0, "value": null, "timestamp": 1516921787591}, {"eventtype": "window_resize", "interval": 0, "value": [1366, 721], "timestamp": 1516921787591}, {"eventtype": "window_resize", "interval": 12276, "value": [1366, 717], "timestamp": 1516921799867}, {"eventtype": "window_resize", "interval": 1039660, "value": [1366, 721], "timestamp": 1516922839527}, {"eventtype": "window_resize", "interval": 1549, "value": [1366, 717], "timestamp": 1516922841076}, {"eventtype": "window_resize", "interval": 253170, "value": [1366, 721], "timestamp": 1516923094246}, {"eventtype": "window_resize", "interval": 1332, "value": [1366, 717], "timestamp": 1516923095578}, {"eventtype": "window_resize", "interval": 153650, "value": [1366, 721], "timestamp": 1516923249228}, {"eventtype": "window_resize", "interval": 1867, "value": [1366, 717], "timestamp": 1516923251095}, {"eventtype": "window_resize", "interval": 128045, "value": [1366, 721], "timestamp": 1516923379140}, {"eventtype": "window_resize", "interval": 1388, "value": [1366, 717], "timestamp": 1516923380528}, {"eventtype": "window_resize", "interval": 129671, "value": [1366, 721], "timestamp": 1516923510199}, {"eventtype": "window_resize", "interval": 866, "value": [1366, 717], "timestamp": 1516923511065}, {"eventtype": "window_resize", "interval": 116945, "value": [1366, 721], "timestamp": 1516923628010}, {"eventtype": "window_resize", "interval": 1036, "value": [1366, 717], "timestamp": 1516923629046}, {"eventtype": "window_resize", "interval": 126594, "value": [1366, 721], "timestamp": 1516923755640}, {"eventtype": "window_resize", "interval": 1152, "value": [1366, 717], "timestamp": 1516923756792}, {"eventtype": "window_resize", "interval": 291282, "value": [1366, 721], "timestamp": 1516924048074}, {"eventtype": "window_resize", "interval": 821, "value": [1366, 717], "timestamp": 1516924048895}, {"eventtype": "window_resize", "interval": 306470, "value": [1366, 721], "timestamp": 1516924355365}, {"eventtype": "window_resize", "interval": 5186, "value": [1366, 717], "timestamp": 1516924360551}, {"eventtype": "window_resize", "interval": 170830, "value": [1366, 721], "timestamp": 1516924531381}, {"eventtype": "window_resize", "interval": 3693, "value": [1366, 717], "timestamp": 1516924535074}], "data": [{"current_trial": 0, "trialdata": {"rt": 380, "trial_type": "text", "internal_node_id": "0.0-0.0", "time_elapsed": 388, "key_press": 175, "type": "INSTRUCTIONS", "trial_index": 0}, "uniqueid": "MTK2295:34YB12FSQZVYUM34C5B5FKEYH7GMGN", "dateTime": 1516921788559}, {"current_trial": 1, "trialdata": {"rt": 47, "trial_type": "text", "internal_node_id": "0.0-1.0", "time_elapsed": 440, "key_press": 175, "type": "INSTRUCTIONS", "trial_index": 1}, "uniqueid": "MTK2295:34YB12FSQZVYUM34C5B5FKEYH7GMGN", "dateTime": 1516921788609}, {"current_trial": 2, "trialdata": {"rt": [27088], "trial_type": "audio-test", "responses": ["ocean"], "internal_node_id": "0.0-2.0", "time_elapsed": 27612, "type": "AUDIO_TEST", "trial_index": 2}, "uniqueid": "MTK2295:34YB12FSQZVYUM34C5B5FKEYH7GMGN", "dateTime": 1516921815781}, {"current_trial": 3, "trialdata": {"rt": [7973], "trial_type": "audio-test", "responses": ["crystal"], "internal_node_id": "0.0-3.0", "time_elapsed": 35600, "type": "AUDIO_TEST", "trial_index": 3}, "uniqueid": "MTK2295:34YB12FSQZVYUM34C5B5FKEYH7GMGN", "dateTime": 1516921823769}, {"current_trial": 4, "trialdata": {"rt": [9003], "trial_type": "audio-test", "responses": ["spice"], "internal_node_id": "0.0-4.0", "time_elapsed": 44617, "type": "AUDIO_TEST", "trial_index": 4}, "uniqueid": "MTK2295:34YB12FSQZVYUM34C5B5FKEYH7GMGN", "dateTime": 1516921832786}, {"current_trial": 5, "trialdata": {"rt": 53024, "trial_type": "survey-text", "responses": "{\"Q0\":\"5:00 AM\",\"Q1\":\"11:00 AM\",\"Q2\":\"4\"}", "internal_node_id": "0.0-5.0", "time_elapsed": 98401, "type": "SLEEP_SURVEY", "trial_index": 5}, "uniqueid": "MTK2295:34YB12FSQZVYUM34C5B5FKEYH7GMGN", "dateTime": 1516921886570}, {"current_trial": 6, "trialdata": {"rt": 61620, "trial_type": "text", "internal_node_id": "0.0-6.0", "time_elapsed": 161024, "key_press": 32, "type": "INSTRUCTIONS", "trial_index": 6}, "uniqueid": "MTK2295:34YB12FSQZVYUM34C5B5FKEYH7GMGN", "dateTime": 1516921949193}, {"current_trial": 7, "trialdata": {"rt": 26540, "trial_type": "text", "internal_node_id": "0.0-7.0", "time_elapsed": 188068, "key_press": 32, "type": "INSTRUCTIONS", "trial_index": 7}, "uniqueid": "MTK2295:34YB12FSQZVYUM34C5B5FKEYH7GMGN", "dateTime": 1516921976237}, {"current_trial": 8, "trialdata": {"rt": 15310, "trial_type": "text", "internal_node_id": "0.0-8.0", "time_elapsed": 203880, "key_press": 32, "type": "INSTRUCTIONS", "trial_index": 8}, "uniqueid": "MTK2295:34YB12FSQZVYUM34C5B5FKEYH7GMGN", "dateTime": 1516921992050}, {"current_trial": 9, "trialdata": {"rt": [4550, 7223, 10839, 14688], "trial_type": "math-distractor", "key_times": [3317, 3424, 4550, 6478, 6687, 7223, 10178, 10287, 10839, 12713, 12936, 14688, 17257, 17493], "responses": ["15", "14", "21", "14"], "num2": [3, 2, 8, 7, 6], "num3": [8, 4, 7, 6, 6], "conditions": [18, 1200, "v", 18000], "internal_node_id": "0.0-9.0", "key_presses": [97, 101, 13, 97, 100, 13, 98, 97, 13, 97, 100, 13, 97, 105], "trial": 0, "time_elapsed": 223190, "type": "DISTRACTOR", "trial_index": 9, "num1": [4, 8, 6, 1, 7]}, "uniqueid": "MTK2295:34YB12FSQZVYUM34C5B5FKEYH7GMGN", "dateTime": 1516922011360}, {"current_trial": 10, "trialdata": {"rt": -1, "trial_type": "single-stim", "stimulus": "<p id=\"stim\">10</p>", "internal_node_id": "0.0-10.0-0.0", "time_elapsed": 226197, "key_press": -1, "trial_index": 10}, "uniqueid": "MTK2295:34YB12FSQZVYUM34C5B5FKEYH7GMGN", "dateTime": 1516922014366}, {"current_trial": 11, "trialdata": {"rt": -1, "trial_type": "single-stim", "stimulus": "<p id=\"stim\">9</p>", "internal_node_id": "0.0-10.0-1.0", "time_elapsed": 227200, "key_press": -1, "trial_index": 11}, "uniqueid": "MTK2295:34YB12FSQZVYUM34C5B5FKEYH7GMGN", "dateTime": 1516922015370}, {"current_trial": 12, "trialdata": {"rt": -1, "trial_type": "single-stim", "stimulus": "<p id=\"stim\">8</p>", "internal_node_id": "0.0-10.0-2.0", "time_elapsed": 228204, "key_press": -1, "trial_index": 12}, "uniqueid": "MTK2295:34YB12FSQZVYUM34C5B5FKEYH7GMGN", "dateTime": 1516922016373}, {"current_trial": 13, "trialdata": {"rt": -1, "trial_type": "single-stim", "stimulus": "<p id=\"stim\">7</p>", "internal_node_id": "0.0-10.0-3.0", "time_elapsed": 229208, "key_press": -1, "trial_index": 13}, "uniqueid": "MTK2295:34YB12FSQZVYUM34C5B5FKEYH7GMGN", "dateTime": 1516922017378}, {"current_trial": 14, "trialdata": {"rt": -1, "trial_type": "single-stim", "stimulus": "<p id=\"stim\">6</p>", "internal_node_id": "0.0-10.0-4.0", "time_elapsed": 230211, "key_press": -1, "trial_index": 14}, "uniqueid": "MTK2295:34YB12FSQZVYUM34C5B5FKEYH7GMGN", "dateTime": 1516922018381}, {"current_trial": 15, "trialdata": {"rt": -1, "trial_type": "single-stim", "stimulus": "<p id=\"stim\">5</p>", "internal_node_id": "0.0-10.0-5.0", "time_elapsed": 231216, "key_press": -1, "trial_index": 15}, "uniqueid": "MTK2295:34YB12FSQZVYUM34C5B5FKEYH7GMGN", "dateTime": 1516922019385}, {"current_trial": 16, "trialdata": {"rt": -1, "trial_type": "single-stim", "stimulus": "<p id=\"stim\">4</p>", "internal_node_id": "0.0-10.0-6.0", "time_elapsed": 232221, "key_press": -1, "trial_index": 16}, "uniqueid": "MTK2295:34YB12FSQZVYUM34C5B5FKEYH7GMGN", "dateTime": 1516922020390}, {"current_trial": 17, "trialdata": {"rt": -1, "trial_type": "single-stim", "stimulus": "<p id=\"stim\">3</p>", "internal_node_id": "0.0-10.0-7.0", "time_elapsed": 233227, "key_press": -1, "trial_index": 17}, "uniqueid": "MTK2295:34YB12FSQZVYUM34C5B5FKEYH7GMGN", "dateTime": 1516922021396}, {"current_trial": 18, "trialdata": {"rt": -1, "trial_type": "single-stim", "stimulus": "<p id=\"stim\">2</p>", "internal_node_id": "0.0-10.0-8.0", "time_elapsed": 234231, "key_press": -1, "trial_index": 18}, "uniqueid": "MTK2295:34YB12FSQZVYUM34C5B5FKEYH7GMGN", "dateTime": 1516922022400}, {"current_trial": 19, "trialdata": {"rt": -1, "trial_type": "single-stim", "stimulus": "<p id=\"stim\">1</p>", "internal_node_id": "0.0-10.0-9.0", "time_elapsed": 235234, "key_press": -1, "trial_index": 19}, "uniqueid": "MTK2295:34YB12FSQZVYUM34C5B5FKEYH7GMGN", "dateTime": 1516922023403}, {"current_trial": 20, "trialdata": {"rt": -1, "trial_type": "single-stim", "stimulus": "<p id=\"stim\">+</p>", "internal_node_id": "0.0-11.0-0.0", "time_elapsed": 236737, "key_press": -1, "type": "FIXATION", "trial_index": 20}, "uniqueid": "MTK2295:34YB12FSQZVYUM34C5B5FKEYH7GMGN", "dateTime": 1516922024907}, {"current_trial": 21, "trialdata": {"rt": -1, "trial_type": "single-stim", "word": "queen", "stimulus": "<p id=\"stim\">QUEEN</p>", "conditions": [18, 1200, "v", 18000], "internal_node_id": "0.0-12.0", "trial": 0, "time_elapsed": 237943, "serialpos": 0, "key_press": -1, "wordID": 1148, "type": "PRES_VIS", "trial_index": 21}, "uniqueid": "MTK2295:34YB12FSQZVYUM34C5B5FKEYH7GMGN", "dateTime": 1516922026113}, {"current_trial": 22, "trialdata": {"rt": -1, "trial_type": "single-stim", "word": "helmet", "stimulus": "<p id=\"stim\">HELMET</p>", "conditions": [18, 1200, "v", 18000], "internal_node_id": "0.0-13.0", "trial": 0, "time_elapsed": 240195, "serialpos": 1, "key_press": -1, "wordID": 701, "type": "PRES_VIS", "trial_index": 22}, "uniqueid": "MTK2295:34YB12FSQZVYUM34C5B5FKEYH7GMGN", "dateTime": 1516922028364}, {"current_trial": 23, "trialdata": {"rt": -1, "trial_type": "single-stim", "word": "slope", "stimulus": "<p id=\"stim\">SLOPE</p>", "conditions": [18, 1200, "v", 18000], "internal_node_id": "0.0-14.0", "trial": 0, "time_elapsed": 242583, "serialpos": 2, "key_press": -1, "wordID": 1327, "type": "PRES_VIS", "trial_index": 23}, "uniqueid": "MTK2295:34YB12FSQZVYUM34C5B5FKEYH7GMGN", "dateTime": 1516922030752}, {"current_trial": 24, "trialdata": {"rt": -1, "trial_type": "single-stim", "word": "pork", "stimulus": "<p id=\"stim\">PORK</p>", "conditions": [18, 1200, "v", 18000], "internal_node_id": "0.0-15.0", "trial": 0, "time_elapsed": 244771, "serialpos": 3, "key_press": -1, "wordID": 1107, "type": "PRES_VIS", "trial_index": 24}, "uniqueid": "MTK2295:34YB12FSQZVYUM34C5B5FKEYH7GMGN", "dateTime": 1516922032940}, {"current_trial": 25, "trialdata": {"rt": -1, "trial_type": "single-stim", "word": "snake", "stimulus": "<p id=\"stim\">SNAKE</p>", "conditions": [18, 1200, "v", 18000], "internal_node_id": "0.0-16.0", "trial": 0, "time_elapsed": 247011, "serialpos": 4, "key_press": -1, "wordID": 1332, "type": "PRES_VIS", "trial_index": 25}, "uniqueid": "MTK2295:34YB12FSQZVYUM34C5B5FKEYH7GMGN", "dateTime": 1516922035180}, {"current_trial": 26, "trialdata": {"rt": -1, "trial_type": "single-stim", "word": "uncle", "stimulus": "<p id=\"stim\">UNCLE</p>", "conditions": [18, 1200, "v", 18000], "internal_node_id": "0.0-17.0", "trial": 0, "time_elapsed": 249030, "serialpos": 5, "key_press": -1, "wordID": 1535, "type": "PRES_VIS", "trial_index": 26}, "uniqueid": "MTK2295:34YB12FSQZVYUM34C5B5FKEYH7GMGN", "dateTime": 1516922037199}, {"current_trial": 27, "trialdata": {"rt": -1, "trial_type": "single-stim", "word": "daughter", "stimulus": "<p id=\"stim\">DAUGHTER</p>", "conditions": [18, 1200, "v", 18000], "internal_node_id": "0.0-18.0", "trial": 0, "time_elapsed": 251287, "serialpos": 6, "key_press": -1, "wordID": 441, "type": "PRES_VIS", "trial_index": 27}, "uniqueid": "MTK2295:34YB12FSQZVYUM34C5B5FKEYH7GMGN", "dateTime": 1516922039456}, {"current_trial": 28, "trialdata": {"rt": -1, "trial_type": "single-stim", "word": "belly", "stimulus": "<p id=\"stim\">BELLY</p>", "conditions": [18, 1200, "v", 18000], "internal_node_id": "0.0-19.0", "trial": 0, "time_elapsed": 253369, "serialpos": 7, "key_press": -1, "wordID": 118, "type": "PRES_VIS", "trial_index": 28}, "uniqueid": "MTK2295:34YB12FSQZVYUM34C5B5FKEYH7GMGN", "dateTime": 1516922041538}, {"current_trial": 29, "trialdata": {"rt": -1, "trial_type": "single-stim", "word": "frame", "stimulus": "<p id=\"stim\">FRAME</p>", "conditions": [18, 1200, "v", 18000], "internal_node_id": "0.0-20.0", "trial": 0, "time_elapsed": 255374, "serialpos": 8, "key_press": -1, "wordID": 599, "type": "PRES_VIS", "trial_index": 29}, "uniqueid": "MTK2295:34YB12FSQZVYUM34C5B5FKEYH7GMGN", "dateTime": 1516922043543}, {"current_trial": 30, "trialdata": {"rt": -1, "trial_type": "single-stim", "word": "ankle", "stimulus": "<p id=\"stim\">ANKLE</p>", "conditions": [18, 1200, "v", 18000], "internal_node_id": "0.0-21.0", "trial": 0, "time_elapsed": 257674, "serialpos": 9, "key_press": -1, "wordID": 23, "type": "PRES_VIS", "trial_index": 30}, "uniqueid": "MTK2295:34YB12FSQZVYUM34C5B5FKEYH7GMGN", "dateTime": 1516922045844}, {"current_trial": 31, "trialdata": {"rt": -1, "trial_type": "single-stim", "word": "sunrise", "stimulus": "<p id=\"stim\">SUNRISE</p>", "conditions": [18, 1200, "v", 18000], "internal_node_id": "0.0-22.0", "trial": 0, "time_elapsed": 259964, "serialpos": 10, "key_press": -1, "wordID": 1406, "type": "PRES_VIS", "trial_index": 31}, "uniqueid": "MTK2295:34YB12FSQZVYUM34C5B5FKEYH7GMGN", "dateTime": 1516922048133}, {"current_trial": 32, "trialdata": {"rt": -1, "trial_type": "single-stim", "word": "ox", "stimulus": "<p id=\"stim\">OX</p>", "conditions": [18, 1200, "v", 18000], "internal_node_id": "0.0-23.0", "trial": 0, "time_elapsed": 262337, "serialpos": 11, "key_press": -1, "wordID": 993, "type": "PRES_VIS", "trial_index": 32}, "uniqueid": "MTK2295:34YB12FSQZVYUM34C5B5FKEYH7GMGN", "dateTime": 1516922050506}, {"current_trial": 33, "trialdata": {"rt": -1, "trial_type": "single-stim", "word": "wasp", "stimulus": "<p id=\"stim\">WASP</p>", "conditions": [18, 1200, "v", 18000], "internal_node_id": "0.0-24.0", "trial": 0, "time_elapsed": 264536, "serialpos": 12, "key_press": -1, "wordID": 1592, "type": "PRES_VIS", "trial_index": 33}, "uniqueid": "MTK2295:34YB12FSQZVYUM34C5B5FKEYH7GMGN", "dateTime": 1516922052705}, {"current_trial": 34, "trialdata": {"rt": -1, "trial_type": "single-stim", "word": "powder", "stimulus": "<p id=\"stim\">POWDER</p>", "conditions": [18, 1200, "v", 18000], "internal_node_id": "0.0-25.0", "trial": 0, "time_elapsed": 266810, "serialpos": 13, "key_press": -1, "wordID": 1116, "type": "PRES_VIS", "trial_index": 34}, "uniqueid": "MTK2295:34YB12FSQZVYUM34C5B5FKEYH7GMGN", "dateTime": 1516922054980}, {"current_trial": 35, "trialdata": {"rt": -1, "trial_type": "single-stim", "word": "bank", "stimulus": "<p id=\"stim\">BANK</p>", "conditions": [18, 1200, "v", 18000], "internal_node_id": "0.0-26.0", "trial": 0, "time_elapsed": 268969, "serialpos": 14, "key_press": -1, "wordID": 82, "type": "PRES_VIS", "trial_index": 35}, "uniqueid": "MTK2295:34YB12FSQZVYUM34C5B5FKEYH7GMGN", "dateTime": 1516922057139}, {"current_trial": 36, "trialdata": {"rt": -1, "trial_type": "single-stim", "word": "quarter", "stimulus": "<p id=\"stim\">QUARTER</p>", "conditions": [18, 1200, "v", 18000], "internal_node_id": "0.0-27.0", "trial": 0, "time_elapsed": 271333, "serialpos": 15, "key_press": -1, "wordID": 1147, "type": "PRES_VIS", "trial_index": 36}, "uniqueid": "MTK2295:34YB12FSQZVYUM34C5B5FKEYH7GMGN", "dateTime": 1516922059503}, {"current_trial": 37, "trialdata": {"rt": -1, "trial_type": "single-stim", "word": "ointment", "stimulus": "<p id=\"stim\">OINTMENT</p>", "conditions": [18, 1200, "v", 18000], "internal_node_id": "0.0-28.0", "trial": 0, "time_elapsed": 273440, "serialpos": 16, "key_press": -1, "wordID": 973, "type": "PRES_VIS", "trial_index": 37}, "uniqueid": "MTK2295:34YB12FSQZVYUM34C5B5FKEYH7GMGN", "dateTime": 1516922061610}, {"current_trial": 38, "trialdata": {"rt": -1, "trial_type": "single-stim", "word": "luggage", "stimulus": "<p id=\"stim\">LUGGAGE</p>", "conditions": [18, 1200, "v", 18000], "internal_node_id": "0.0-29.0", "trial": 0, "time_elapsed": 275732, "serialpos": 17, "key_press": -1, "wordID": 846, "type": "PRES_VIS", "trial_index": 38}, "uniqueid": "MTK2295:34YB12FSQZVYUM34C5B5FKEYH7GMGN", "dateTime": 1516922063901}, {"current_trial": 39, "trialdata": {"rt": -1, "trial_type": "single-stim", "stimulus": "", "internal_node_id": "0.0-30.0-0.0", "time_elapsed": 278034, "key_press": -1, "type": "PRE_RECALL_DELAY", "trial_index": 39}, "uniqueid": "MTK2295:34YB12FSQZVYUM34C5B5FKEYH7GMGN", "dateTime": 1516922066204}, {"current_trial": 40, "trialdata": {"rt": -1000, "trial_type": "single-audio", "stimulus": "/static/audio/400Hz.wav", "internal_node_id": "0.0-31.0", "time_elapsed": 278543, "key_press": -1, "type": "PRE_RECALL_ALERT", "trial_index": 40}, "uniqueid": "MTK2295:34YB12FSQZVYUM34C5B5FKEYH7GMGN", "dateTime": 1516922066713}, {"current_trial": 41, "trialdata": {"rt": [3647, 8752, 11998, 13648, 16472, 22000, 29561], "recwords": ["luggage", "ointment", "queen", "ox", "sunrise", "daughter", "bank"], "key_times": [1341, 1728, 2139, 2273, 2408, 2569, 2732, 3647, 4905, 4994, 5272, 5708, 6913, 7049, 7157, 8225, 8752, 9687, 9866, 10148, 11110, 11264, 11998, 13016, 13167, 13648, 14629, 14845, 14942, 15310, 15415, 15777, 16002, 16472, 20471, 20620, 20948, 21135, 21259, 21383, 21612, 21686, 22000, 26097, 26250, 26479, 27310, 29037, 29157, 29561], "trial_type": "free-recall", "conditions": [18, 1200, "v", 18000], "internal_node_id": "0.0-32.0-0.0", "key_presses": [76, 85, 71, 71, 65, 71, 69, 13, 79, 73, 78, 84, 77, 69, 78, 84, 13, 81, 85, 69, 69, 78, 13, 79, 88, 13, 83, 85, 78, 82, 73, 83, 69, 13, 68, 65, 85, 71, 72, 84, 69, 82, 13, 66, 65, 75, 8, 78, 75, 13], "trial": 0, "time_elapsed": 338553, "type": "FREE_RECALL", "trial_index": 41}, "uniqueid": "MTK2295:34YB12FSQZVYUM34C5B5FKEYH7GMGN", "dateTime": 1516922126731}, {"current_trial": 42, "trialdata": {"rt": 2293, "trial_type": "text", "internal_node_id": "0.0-33.0", "time_elapsed": 342859, "key_press": 32, "type": "INSTRUCTIONS", "trial_index": 42}, "uniqueid": "MTK2295:34YB12FSQZVYUM34C5B5FKEYH7GMGN", "dateTime": 1516922131028}, {"current_trial": 43, "trialdata": {"rt": [3587, 6475, 9842, 12784], "trial_type": "math-distractor", "key_times": [2701, 2976, 3587, 5851, 6475, 9376, 9450, 9842, 12334, 12536, 12784], "responses": ["17", "7", "13", "14"], "num2": [6, 2, 5, 2, 8], "num3": [7, 3, 1, 9, 9], "conditions": [18, 1200, "v", 18000], "internal_node_id": "0.0-34.0", "key_presses": [97, 103, 13, 103, 13, 97, 99, 13, 97, 100, 13], "trial": 1, "time_elapsed": 362867, "type": "DISTRACTOR", "trial_index": 43, "num1": [4, 2, 7, 3, 4]}, "uniqueid": "MTK2295:34YB12FSQZVYUM34C5B5FKEYH7GMGN", "dateTime": 1516922151036}, {"current_trial": 44, "trialdata": {"rt": -1, "trial_type": "single-stim", "stimulus": "<p id=\"stim\">10</p>", "internal_node_id": "0.0-35.0-0.0", "time_elapsed": 365872, "key_press": -1, "trial_index": 44}, "uniqueid": "MTK2295:34YB12FSQZVYUM34C5B5FKEYH7GMGN", "dateTime": 1516922154041}, {"current_trial": 45, "trialdata": {"rt": -1, "trial_type": "single-stim", "stimulus": "<p id=\"stim\">9</p>", "internal_node_id": "0.0-35.0-1.0", "time_elapsed": 366875, "key_press": -1, "trial_index": 45}, "uniqueid": "MTK2295:34YB12FSQZVYUM34C5B5FKEYH7GMGN", "dateTime": 1516922155044}, {"current_trial": 46, "trialdata": {"rt": -1, "trial_type": "single-stim", "stimulus": "<p id=\"stim\">8</p>", "internal_node_id": "0.0-35.0-2.0", "time_elapsed": 367878, "key_press": -1, "trial_index": 46}, "uniqueid": "MTK2295:34YB12FSQZVYUM34C5B5FKEYH7GMGN", "dateTime": 1516922156047}, {"current_trial": 47, "trialdata": {"rt": -1, "trial_type": "single-stim", "stimulus": "<p id=\"stim\">7</p>", "internal_node_id": "0.0-35.0-3.0", "time_elapsed": 368884, "key_press": -1, "trial_index": 47}, "uniqueid": "MTK2295:34YB12FSQZVYUM34C5B5FKEYH7GMGN", "dateTime": 1516922157053}, {"current_trial": 48, "trialdata": {"rt": -1, "trial_type": "single-stim", "stimulus": "<p id=\"stim\">6</p>", "internal_node_id": "0.0-35.0-4.0", "time_elapsed": 369888, "key_press": -1, "trial_index": 48}, "uniqueid": "MTK2295:34YB12FSQZVYUM34C5B5FKEYH7GMGN", "dateTime": 1516922158057}, {"current_trial": 49, "trialdata": {"rt": -1, "trial_type": "single-stim", "stimulus": "<p id=\"stim\">5</p>", "internal_node_id": "0.0-35.0-5.0", "time_elapsed": 370891, "key_press": -1, "trial_index": 49}, "uniqueid": "MTK2295:34YB12FSQZVYUM34C5B5FKEYH7GMGN", "dateTime": 1516922159061}, {"current_trial": 50, "trialdata": {"rt": -1, "trial_type": "single-stim", "stimulus": "<p id=\"stim\">4</p>", "internal_node_id": "0.0-35.0-6.0", "time_elapsed": 371893, "key_press": -1, "trial_index": 50}, "uniqueid": "MTK2295:34YB12FSQZVYUM34C5B5FKEYH7GMGN", "dateTime": 1516922160062}, {"current_trial": 51, "trialdata": {"rt": -1, "trial_type": "single-stim", "stimulus": "<p id=\"stim\">3</p>", "internal_node_id": "0.0-35.0-7.0", "time_elapsed": 372895, "key_press": -1, "trial_index": 51}, "uniqueid": "MTK2295:34YB12FSQZVYUM34C5B5FKEYH7GMGN", "dateTime": 1516922161065}, {"current_trial": 52, "trialdata": {"rt": -1, "trial_type": "single-stim", "stimulus": "<p id=\"stim\">2</p>", "internal_node_id": "0.0-35.0-8.0", "time_elapsed": 373898, "key_press": -1, "trial_index": 52}, "uniqueid": "MTK2295:34YB12FSQZVYUM34C5B5FKEYH7GMGN", "dateTime": 1516922162067}, {"current_trial": 53, "trialdata": {"rt": -1, "trial_type": "single-stim", "stimulus": "<p id=\"stim\">1</p>", "internal_node_id": "0.0-35.0-9.0", "time_elapsed": 374900, "key_press": -1, "trial_index": 53}, "uniqueid": "MTK2295:34YB12FSQZVYUM34C5B5FKEYH7GMGN", "dateTime": 1516922163070}, {"current_trial": 54, "trialdata": {"rt": -1, "trial_type": "single-stim", "stimulus": "<p id=\"stim\">+</p>", "internal_node_id": "0.0-36.0-0.0", "time_elapsed": 376403, "key_press": -1, "type": "FIXATION", "trial_index": 54}, "uniqueid": "MTK2295:34YB12FSQZVYUM34C5B5FKEYH7GMGN", "dateTime": 1516922164573}, {"current_trial": 55, "trialdata": {"rt": -1, "trial_type": "single-stim", "word": "grape", "stimulus": "<p id=\"stim\">GRAPE</p>", "conditions": [18, 1200, "v", 18000], "internal_node_id": "0.0-37.0", "trial": 1, "time_elapsed": 377606, "serialpos": 0, "key_press": -1, "wordID": 653, "type": "PRES_VIS", "trial_index": 55}, "uniqueid": "MTK2295:34YB12FSQZVYUM34C5B5FKEYH7GMGN", "dateTime": 1516922165775}, {"current_trial": 56, "trialdata": {"rt": -1, "trial_type": "single-stim", "word": "statue", "stimulus": "<p id=\"stim\">STATUE</p>", "conditions": [18, 1200, "v", 18000], "internal_node_id": "0.0-38.0", "trial": 1, "time_elapsed": 379969, "serialpos": 1, "key_press": -1, "wordID": 1373, "type": "PRES_VIS", "trial_index": 56}, "uniqueid": "MTK2295:34YB12FSQZVYUM34C5B5FKEYH7GMGN", "dateTime": 1516922168138}, {"current_trial": 57, "trialdata": {"rt": -1, "trial_type": "single-stim", "word": "truck", "stimulus": "<p id=\"stim\">TRUCK</p>", "conditions": [18, 1200, "v", 18000], "internal_node_id": "0.0-39.0", "trial": 1, "time_elapsed": 382291, "serialpos": 2, "key_press": -1, "wordID": 1511, "type": "PRES_VIS", "trial_index": 57}, "uniqueid": "MTK2295:34YB12FSQZVYUM34C5B5FKEYH7GMGN", "dateTime": 1516922170460}, {"current_trial": 58, "trialdata": {"rt": -1, "trial_type": "single-stim", "word": "ghetto", "stimulus": "<p id=\"stim\">GHETTO</p>", "conditions": [18, 1200, "v", 18000], "internal_node_id": "0.0-40.0", "trial": 1, "time_elapsed": 384479, "serialpos": 3, "key_press": -1, "wordID": 632, "type": "PRES_VIS", "trial_index": 58}, "uniqueid": "MTK2295:34YB12FSQZVYUM34C5B5FKEYH7GMGN", "dateTime": 1516922172648}, {"current_trial": 59, "trialdata": {"rt": -1, "trial_type": "single-stim", "word": "kleenex", "stimulus": "<p id=\"stim\">KLEENEX</p>", "conditions": [18, 1200, "v", 18000], "internal_node_id": "0.0-41.0", "trial": 1, "time_elapsed": 386484, "serialpos": 4, "key_press": -1, "wordID": 781, "type": "PRES_VIS", "trial_index": 59}, "uniqueid": "MTK2295:34YB12FSQZVYUM34C5B5FKEYH7GMGN", "dateTime": 1516922174653}, {"current_trial": 60, "trialdata": {"rt": -1, "trial_type": "single-stim", "word": "racket", "stimulus": "<p id=\"stim\">RACKET</p>", "conditions": [18, 1200, "v", 18000], "internal_node_id": "0.0-42.0", "trial": 1, "time_elapsed": 388807, "serialpos": 5, "key_press": -1, "wordID": 1154, "type": "PRES_VIS", "trial_index": 60}, "uniqueid": "MTK2295:34YB12FSQZVYUM34C5B5FKEYH7GMGN", "dateTime": 1516922176976}, {"current_trial": 61, "trialdata": {"rt": -1, "trial_type": "single-stim", "word": "nurse", "stimulus": "<p id=\"stim\">NURSE</p>", "conditions": [18, 1200, "v", 18000], "internal_node_id": "0.0-43.0", "trial": 1, "time_elapsed": 391069, "serialpos": 6, "key_press": -1, "wordID": 962, "type": "PRES_VIS", "trial_index": 61}, "uniqueid": "MTK2295:34YB12FSQZVYUM34C5B5FKEYH7GMGN", "dateTime": 1516922179239}, {"current_trial": 62, "trialdata": {"rt": -1, "trial_type": "single-stim", "word": "poison", "stimulus": "<p id=\"stim\">POISON</p>", "conditions": [18, 1200, "v", 18000], "internal_node_id": "0.0-44.0", "trial": 1, "time_elapsed": 393440, "serialpos": 7, "key_press": -1, "wordID": 1095, "type": "PRES_VIS", "trial_index": 62}, "uniqueid": "MTK2295:34YB12FSQZVYUM34C5B5FKEYH7GMGN", "dateTime": 1516922181609}, {"current_trial": 63, "trialdata": {"rt": -1, "trial_type": "single-stim", "word": "shoulder", "stimulus": "<p id=\"stim\">SHOULDER</p>", "conditions": [18, 1200, "v", 18000], "internal_node_id": "0.0-45.0", "trial": 1, "time_elapsed": 395798, "serialpos": 8, "key_press": -1, "wordID": 1293, "type": "PRES_VIS", "trial_index": 63}, "uniqueid": "MTK2295:34YB12FSQZVYUM34C5B5FKEYH7GMGN", "dateTime": 1516922183968}, {"current_trial": 64, "trialdata": {"rt": -1, "trial_type": "single-stim", "word": "notebook", "stimulus": "<p id=\"stim\">NOTEBOOK</p>", "conditions": [18, 1200, "v", 18000], "internal_node_id": "0.0-46.0", "trial": 1, "time_elapsed": 397992, "serialpos": 9, "key_press": -1, "wordID": 958, "type": "PRES_VIS", "trial_index": 64}, "uniqueid": "MTK2295:34YB12FSQZVYUM34C5B5FKEYH7GMGN", "dateTime": 1516922186161}, {"current_trial": 65, "trialdata": {"rt": -1, "trial_type": "single-stim", "word": "stomach", "stimulus": "<p id=\"stim\">STOMACH</p>", "conditions": [18, 1200, "v", 18000], "internal_node_id": "0.0-47.0", "trial": 1, "time_elapsed": 400240, "serialpos": 10, "key_press": -1, "wordID": 1383, "type": "PRES_VIS", "trial_index": 65}, "uniqueid": "MTK2295:34YB12FSQZVYUM34C5B5FKEYH7GMGN", "dateTime": 1516922188409}, {"current_trial": 66, "trialdata": {"rt": -1, "trial_type": "single-stim", "word": "parrot", "stimulus": "<p id=\"stim\">PARROT</p>", "conditions": [18, 1200, "v", 18000], "internal_node_id": "0.0-48.0", "trial": 1, "time_elapsed": 402256, "serialpos": 11, "key_press": -1, "wordID": 1014, "type": "PRES_VIS", "trial_index": 66}, "uniqueid": "MTK2295:34YB12FSQZVYUM34C5B5FKEYH7GMGN", "dateTime": 1516922190426}, {"current_trial": 67, "trialdata": {"rt": -1, "trial_type": "single-stim", "word": "tablet", "stimulus": "<p id=\"stim\">TABLET</p>", "conditions": [18, 1200, "v", 18000], "internal_node_id": "0.0-49.0", "trial": 1, "time_elapsed": 404512, "serialpos": 12, "key_press": -1, "wordID": 1426, "type": "PRES_VIS", "trial_index": 67}, "uniqueid": "MTK2295:34YB12FSQZVYUM34C5B5FKEYH7GMGN", "dateTime": 1516922192682}, {"current_trial": 68, "trialdata": {"rt": -1, "trial_type": "single-stim", "word": "glass", "stimulus": "<p id=\"stim\">GLASS</p>", "conditions": [18, 1200, "v", 18000], "internal_node_id": "0.0-50.0", "trial": 1, "time_elapsed": 406557, "serialpos": 13, "key_press": -1, "wordID": 638, "type": "PRES_VIS", "trial_index": 68}, "uniqueid": "MTK2295:34YB12FSQZVYUM34C5B5FKEYH7GMGN", "dateTime": 1516922194735}, {"current_trial": 69, "trialdata": {"rt": -1, "trial_type": "single-stim", "word": "neutron", "stimulus": "<p id=\"stim\">NEUTRON</p>", "conditions": [18, 1200, "v", 18000], "internal_node_id": "0.0-51.0", "trial": 1, "time_elapsed": 408862, "serialpos": 14, "key_press": -1, "wordID": 946, "type": "PRES_VIS", "trial_index": 69}, "uniqueid": "MTK2295:34YB12FSQZVYUM34C5B5FKEYH7GMGN", "dateTime": 1516922197031}, {"current_trial": 70, "trialdata": {"rt": -1, "trial_type": "single-stim", "word": "crayon", "stimulus": "<p id=\"stim\">CRAYON</p>", "conditions": [18, 1200, "v", 18000], "internal_node_id": "0.0-52.0", "trial": 1, "time_elapsed": 410983, "serialpos": 15, "key_press": -1, "wordID": 400, "type": "PRES_VIS", "trial_index": 70}, "uniqueid": "MTK2295:34YB12FSQZVYUM34C5B5FKEYH7GMGN", "dateTime": 1516922199152}, {"current_trial": 71, "trialdata": {"rt": -1, "trial_type": "single-stim", "word": "canyon", "stimulus": "<p id=\"stim\">CANYON</p>", "conditions": [18, 1200, "v", 18000], "internal_node_id": "0.0-53.0", "trial": 1, "time_elapsed": 413271, "serialpos": 16, "key_press": -1, "wordID": 234, "type": "PRES_VIS", "trial_index": 71}, "uniqueid": "MTK2295:34YB12FSQZVYUM34C5B5FKEYH7GMGN", "dateTime": 1516922201440}, {"current_trial": 72, "trialdata": {"rt": -1, "trial_type": "single-stim", "word": "lodge", "stimulus": "<p id=\"stim\">LODGE</p>", "conditions": [18, 1200, "v", 18000], "internal_node_id": "0.0-54.0", "trial": 1, "time_elapsed": 415584, "serialpos": 17, "key_press": -1, "wordID": 838, "type": "PRES_VIS", "trial_index": 72}, "uniqueid": "MTK2295:34YB12FSQZVYUM34C5B5FKEYH7GMGN", "dateTime": 1516922203754}, {"current_trial": 73, "trialdata": {"rt": -1, "trial_type": "single-stim", "stimulus": "", "internal_node_id": "0.0-55.0-0.0", "time_elapsed": 417778, "key_press": -1, "type": "PRE_RECALL_DELAY", "trial_index": 73}, "uniqueid": "MTK2295:34YB12FSQZVYUM34C5B5FKEYH7GMGN", "dateTime": 1516922205947}, {"current_trial": 74, "trialdata": {"rt": -1000, "trial_type": "single-audio", "stimulus": "/static/audio/400Hz.wav", "internal_node_id": "0.0-56.0", "time_elapsed": 418291, "key_press": -1, "type": "PRE_RECALL_ALERT", "trial_index": 74}, "uniqueid": "MTK2295:34YB12FSQZVYUM34C5B5FKEYH7GMGN", "dateTime": 1516922206460}, {"current_trial": 75, "trialdata": {"rt": [3314, 6142, 9273, 15851, 28301], "recwords": ["lodge", "ghetto", "grape", "kleenex", "truck"], "key_times": [1209, 1377, 2321, 2419, 2545, 3314, 4119, 4291, 4438, 4810, 4941, 5685, 6142, 7778, 8007, 8203, 8722, 8899, 9273, 13428, 13640, 13968, 14111, 14260, 14408, 14885, 15851, 26651, 26794, 27219, 27644, 27824, 28301], "trial_type": "free-recall", "conditions": [18, 1200, "v", 18000], "internal_node_id": "0.0-57.0-0.0", "key_presses": [76, 79, 68, 71, 69, 13, 71, 72, 69, 84, 84, 79, 13, 71, 82, 65, 80, 69, 13, 75, 76, 69, 69, 78, 69, 88, 13, 84, 82, 85, 67, 75, 13], "trial": 1, "time_elapsed": 478303, "type": "FREE_RECALL", "trial_index": 75}, "uniqueid": "MTK2295:34YB12FSQZVYUM34C5B5FKEYH7GMGN", "dateTime": 1516922266480}, {"current_trial": 76, "trialdata": {"rt": 2729, "trial_type": "text", "internal_node_id": "0.0-58.0", "time_elapsed": 483042, "key_press": 32, "type": "INSTRUCTIONS", "trial_index": 76}, "uniqueid": "MTK2295:34YB12FSQZVYUM34C5B5FKEYH7GMGN", "dateTime": 1516922271212}, {"current_trial": 77, "trialdata": {"rt": [4306, 7026, 9416, 11635, 13863, 20503, 23387], "trial_type": "math-distractor", "key_times": [3351, 3445, 4306, 6165, 6399, 7026, 8939, 9019, 9416, 11215, 11635, 13435, 13863, 16582, 17853, 19377, 19861, 20503, 22738, 22951, 23387], "responses": ["16", "19", "13", "8", "7", "25", "20"], "num2": [9, 9, 1, 4, 3, 9, 4, 8], "num3": [5, 9, 7, 1, 3, 8, 8, 7], "conditions": [12, 800, "v", 24000], "internal_node_id": "0.0-59.0", "key_presses": [97, 102, 13, 97, 105, 13, 97, 99, 13, 104, 13, 103, 13, 98, 102, 8, 101, 13, 98, 96, 13], "trial": 2, "time_elapsed": 508056, "type": "DISTRACTOR", "trial_index": 77, "num1": [2, 1, 5, 3, 1, 9, 8, 2]}, "uniqueid": "MTK2295:34YB12FSQZVYUM34C5B5FKEYH7GMGN", "dateTime": 1516922296225}, {"current_trial": 78, "trialdata": {"rt": -1, "trial_type": "single-stim", "stimulus": "<p id=\"stim\">10</p>", "internal_node_id": "0.0-60.0-0.0", "time_elapsed": 511060, "key_press": -1, "trial_index": 78}, "uniqueid": "MTK2295:34YB12FSQZVYUM34C5B5FKEYH7GMGN", "dateTime": 1516922299229}, {"current_trial": 79, "trialdata": {"rt": -1, "trial_type": "single-stim", "stimulus": "<p id=\"stim\">9</p>", "internal_node_id": "0.0-60.0-1.0", "time_elapsed": 512063, "key_press": -1, "trial_index": 79}, "uniqueid": "MTK2295:34YB12FSQZVYUM34C5B5FKEYH7GMGN", "dateTime": 1516922300233}, {"current_trial": 80, "trialdata": {"rt": -1, "trial_type": "single-stim", "stimulus": "<p id=\"stim\">8</p>", "internal_node_id": "0.0-60.0-2.0", "time_elapsed": 513067, "key_press": -1, "trial_index": 80}, "uniqueid": "MTK2295:34YB12FSQZVYUM34C5B5FKEYH7GMGN", "dateTime": 1516922301237}, {"current_trial": 81, "trialdata": {"rt": -1, "trial_type": "single-stim", "stimulus": "<p id=\"stim\">7</p>", "internal_node_id": "0.0-60.0-3.0", "time_elapsed": 514071, "key_press": -1, "trial_index": 81}, "uniqueid": "MTK2295:34YB12FSQZVYUM34C5B5FKEYH7GMGN", "dateTime": 1516922302240}, {"current_trial": 82, "trialdata": {"rt": -1, "trial_type": "single-stim", "stimulus": "<p id=\"stim\">6</p>", "internal_node_id": "0.0-60.0-4.0", "time_elapsed": 515074, "key_press": -1, "trial_index": 82}, "uniqueid": "MTK2295:34YB12FSQZVYUM34C5B5FKEYH7GMGN", "dateTime": 1516922303243}, {"current_trial": 83, "trialdata": {"rt": -1, "trial_type": "single-stim", "stimulus": "<p id=\"stim\">5</p>", "internal_node_id": "0.0-60.0-5.0", "time_elapsed": 516077, "key_press": -1, "trial_index": 83}, "uniqueid": "MTK2295:34YB12FSQZVYUM34C5B5FKEYH7GMGN", "dateTime": 1516922304246}, {"current_trial": 84, "trialdata": {"rt": -1, "trial_type": "single-stim", "stimulus": "<p id=\"stim\">4</p>", "internal_node_id": "0.0-60.0-6.0", "time_elapsed": 517080, "key_press": -1, "trial_index": 84}, "uniqueid": "MTK2295:34YB12FSQZVYUM34C5B5FKEYH7GMGN", "dateTime": 1516922305249}, {"current_trial": 85, "trialdata": {"rt": -1, "trial_type": "single-stim", "stimulus": "<p id=\"stim\">3</p>", "internal_node_id": "0.0-60.0-7.0", "time_elapsed": 518083, "key_press": -1, "trial_index": 85}, "uniqueid": "MTK2295:34YB12FSQZVYUM34C5B5FKEYH7GMGN", "dateTime": 1516922306252}, {"current_trial": 86, "trialdata": {"rt": -1, "trial_type": "single-stim", "stimulus": "<p id=\"stim\">2</p>", "internal_node_id": "0.0-60.0-8.0", "time_elapsed": 519086, "key_press": -1, "trial_index": 86}, "uniqueid": "MTK2295:34YB12FSQZVYUM34C5B5FKEYH7GMGN", "dateTime": 1516922307255}, {"current_trial": 87, "trialdata": {"rt": -1, "trial_type": "single-stim", "stimulus": "<p id=\"stim\">1</p>", "internal_node_id": "0.0-60.0-9.0", "time_elapsed": 520090, "key_press": -1, "trial_index": 87}, "uniqueid": "MTK2295:34YB12FSQZVYUM34C5B5FKEYH7GMGN", "dateTime": 1516922308259}, {"current_trial": 88, "trialdata": {"rt": -1, "trial_type": "single-stim", "stimulus": "<p id=\"stim\">+</p>", "internal_node_id": "0.0-61.0-0.0", "time_elapsed": 521592, "key_press": -1, "type": "FIXATION", "trial_index": 88}, "uniqueid": "MTK2295:34YB12FSQZVYUM34C5B5FKEYH7GMGN", "dateTime": 1516922309762}, {"current_trial": 89, "trialdata": {"rt": -1, "trial_type": "single-stim", "word": "clam", "stimulus": "<p id=\"stim\">CLAM</p>", "conditions": [12, 800, "v", 24000], "internal_node_id": "0.0-62.0", "trial": 2, "time_elapsed": 522396, "serialpos": 0, "key_press": -1, "wordID": 314, "type": "PRES_VIS", "trial_index": 89}, "uniqueid": "MTK2295:34YB12FSQZVYUM34C5B5FKEYH7GMGN", "dateTime": 1516922310565}, {"current_trial": 90, "trialdata": {"rt": -1, "trial_type": "single-stim", "word": "mildew", "stimulus": "<p id=\"stim\">MILDEW</p>", "conditions": [12, 800, "v", 24000], "internal_node_id": "0.0-63.0", "trial": 2, "time_elapsed": 524091, "serialpos": 1, "key_press": -1, "wordID": 892, "type": "PRES_VIS", "trial_index": 90}, "uniqueid": "MTK2295:34YB12FSQZVYUM34C5B5FKEYH7GMGN", "dateTime": 1516922312260}, {"current_trial": 91, "trialdata": {"rt": -1, "trial_type": "single-stim", "word": "crater", "stimulus": "<p id=\"stim\">CRATER</p>", "conditions": [12, 800, "v", 24000], "internal_node_id": "0.0-64.0", "trial": 2, "time_elapsed": 526042, "serialpos": 2, "key_press": -1, "wordID": 399, "type": "PRES_VIS", "trial_index": 91}, "uniqueid": "MTK2295:34YB12FSQZVYUM34C5B5FKEYH7GMGN", "dateTime": 1516922314212}, {"current_trial": 92, "trialdata": {"rt": -1, "trial_type": "single-stim", "word": "creature", "stimulus": "<p id=\"stim\">CREATURE</p>", "conditions": [12, 800, "v", 24000], "internal_node_id": "0.0-65.0", "trial": 2, "time_elapsed": 527872, "serialpos": 3, "key_press": -1, "wordID": 402, "type": "PRES_VIS", "trial_index": 92}, "uniqueid": "MTK2295:34YB12FSQZVYUM34C5B5FKEYH7GMGN", "dateTime": 1516922316041}, {"current_trial": 93, "trialdata": {"rt": -1, "trial_type": "single-stim", "word": "tuba", "stimulus": "<p id=\"stim\">TUBA</p>", "conditions": [12, 800, "v", 24000], "internal_node_id": "0.0-66.0", "trial": 2, "time_elapsed": 529694, "serialpos": 4, "key_press": -1, "wordID": 1514, "type": "PRES_VIS", "trial_index": 93}, "uniqueid": "MTK2295:34YB12FSQZVYUM34C5B5FKEYH7GMGN", "dateTime": 1516922317863}, {"current_trial": 94, "trialdata": {"rt": -1, "trial_type": "single-stim", "word": "ozone", "stimulus": "<p id=\"stim\">OZONE</p>", "conditions": [12, 800, "v", 24000], "internal_node_id": "0.0-67.0", "trial": 2, "time_elapsed": 531518, "serialpos": 5, "key_press": -1, "wordID": 995, "type": "PRES_VIS", "trial_index": 94}, "uniqueid": "MTK2295:34YB12FSQZVYUM34C5B5FKEYH7GMGN", "dateTime": 1516922319687}, {"current_trial": 95, "trialdata": {"rt": -1, "trial_type": "single-stim", "word": "witness", "stimulus": "<p id=\"stim\">WITNESS</p>", "conditions": [12, 800, "v", 24000], "internal_node_id": "0.0-68.0", "trial": 2, "time_elapsed": 533251, "serialpos": 6, "key_press": -1, "wordID": 1617, "type": "PRES_VIS", "trial_index": 95}, "uniqueid": "MTK2295:34YB12FSQZVYUM34C5B5FKEYH7GMGN", "dateTime": 1516922321420}, {"current_trial": 96, "trialdata": {"rt": -1, "trial_type": "single-stim", "word": "spider", "stimulus": "<p id=\"stim\">SPIDER</p>", "conditions": [12, 800, "v", 24000], "internal_node_id": "0.0-69.0", "trial": 2, "time_elapsed": 535014, "serialpos": 7, "key_press": -1, "wordID": 1350, "type": "PRES_VIS", "trial_index": 96}, "uniqueid": "MTK2295:34YB12FSQZVYUM34C5B5FKEYH7GMGN", "dateTime": 1516922323183}, {"current_trial": 97, "trialdata": {"rt": -1, "trial_type": "single-stim", "word": "cloud", "stimulus": "<p id=\"stim\">CLOUD</p>", "conditions": [12, 800, "v", 24000], "internal_node_id": "0.0-70.0", "trial": 2, "time_elapsed": 536663, "serialpos": 8, "key_press": -1, "wordID": 327, "type": "PRES_VIS", "trial_index": 97}, "uniqueid": "MTK2295:34YB12FSQZVYUM34C5B5FKEYH7GMGN", "dateTime": 1516922324832}, {"current_trial": 98, "trialdata": {"rt": -1, "trial_type": "single-stim", "word": "actress", "stimulus": "<p id=\"stim\">ACTRESS</p>", "conditions": [12, 800, "v", 24000], "internal_node_id": "0.0-71.0", "trial": 2, "time_elapsed": 538308, "serialpos": 9, "key_press": -1, "wordID": 5, "type": "PRES_VIS", "trial_index": 98}, "uniqueid": "MTK2295:34YB12FSQZVYUM34C5B5FKEYH7GMGN", "dateTime": 1516922326478}, {"current_trial": 99, "trialdata": {"rt": -1, "trial_type": "single-stim", "word": "robin", "stimulus": "<p id=\"stim\">ROBIN</p>", "conditions": [12, 800, "v", 24000], "internal_node_id": "0.0-72.0", "trial": 2, "time_elapsed": 540259, "serialpos": 10, "key_press": -1, "wordID": 1198, "type": "PRES_VIS", "trial_index": 99}, "uniqueid": "MTK2295:34YB12FSQZVYUM34C5B5FKEYH7GMGN", "dateTime": 1516922328428}, {"current_trial": 100, "trialdata": {"rt": -1, "trial_type": "single-stim", "word": "sparrow", "stimulus": "<p id=\"stim\">SPARROW</p>", "conditions": [12, 800, "v", 24000], "internal_node_id": "0.0-73.0", "trial": 2, "time_elapsed": 541866, "serialpos": 11, "key_press": -1, "wordID": 1346, "type": "PRES_VIS", "trial_index": 100}, "uniqueid": "MTK2295:34YB12FSQZVYUM34C5B5FKEYH7GMGN", "dateTime": 1516922330036}, {"current_trial": 101, "trialdata": {"rt": -1, "trial_type": "single-stim", "stimulus": "", "internal_node_id": "0.0-74.0-0.0", "time_elapsed": 544267, "key_press": -1, "type": "PRE_RECALL_DELAY", "trial_index": 101}, "uniqueid": "MTK2295:34YB12FSQZVYUM34C5B5FKEYH7GMGN", "dateTime": 1516922332436}, {"current_trial": 102, "trialdata": {"rt": -1000, "trial_type": "single-audio", "stimulus": "/static/audio/400Hz.wav", "internal_node_id": "0.0-75.0", "time_elapsed": 544772, "key_press": -1, "type": "PRE_RECALL_ALERT", "trial_index": 102}, "uniqueid": "MTK2295:34YB12FSQZVYUM34C5B5FKEYH7GMGN", "dateTime": 1516922332941}, {"current_trial": 103, "trialdata": {"rt": [2818, 5227, 7229, 20257, 27229, 31008, 46480], "recwords": ["actress", "robin", "sparrow", "mildew", "creature", "tuba", "clam"], "key_times": [1052, 1147, 1290, 1568, 1700, 2009, 2154, 2818, 3907, 4037, 4389, 4671, 4769, 5227, 5968, 6121, 6250, 6602, 6702, 6834, 6950, 7229, 17989, 18362, 18708, 18878, 19687, 19772, 20257, 25332, 25464, 25631, 25835, 26039, 26567, 26742, 26842, 27229, 30143, 30254, 30565, 30691, 31008, 37410, 37543, 37698, 39347, 39514, 39632, 44998, 45130, 45270, 45457, 46480], "trial_type": "free-recall", "conditions": [12, 800, "v", 24000], "internal_node_id": "0.0-76.0-0.0", "key_presses": [65, 67, 84, 82, 69, 83, 83, 13, 82, 79, 66, 73, 78, 13, 83, 80, 65, 82, 82, 79, 87, 13, 77, 73, 76, 68, 69, 87, 13, 67, 82, 69, 65, 84, 85, 82, 69, 13, 84, 85, 66, 65, 13, 67, 82, 65, 8, 8, 8, 67, 76, 65, 77, 13], "trial": 2, "time_elapsed": 604781, "type": "FREE_RECALL", "trial_index": 103}, "uniqueid": "MTK2295:34YB12FSQZVYUM34C5B5FKEYH7GMGN", "dateTime": 1516922392962}, {"current_trial": 104, "trialdata": {"rt": 1886, "trial_type": "text", "internal_node_id": "0.0-77.0", "time_elapsed": 608682, "key_press": 32, "type": "INSTRUCTIONS", "trial_index": 104}, "uniqueid": "MTK2295:34YB12FSQZVYUM34C5B5FKEYH7GMGN", "dateTime": 1516922396851}, {"current_trial": 105, "trialdata": {"rt": [3833, 5690, 9741, 11954], "trial_type": "math-distractor", "key_times": [3223, 3531, 3833, 5316, 5394, 5690, 9358, 9470, 9741, 11408, 11689, 11954], "responses": ["17", "13", "21", "17"], "num2": [9, 5, 6, 7, 2], "num3": [6, 3, 6, 4, 2], "conditions": [24, 800, "v", 12000], "internal_node_id": "0.0-78.0", "key_presses": [97, 103, 13, 97, 99, 13, 98, 97, 13, 97, 103, 13], "trial": 3, "time_elapsed": 622688, "type": "DISTRACTOR", "trial_index": 105, "num1": [2, 5, 9, 6, 1]}, "uniqueid": "MTK2295:34YB12FSQZVYUM34C5B5FKEYH7GMGN", "dateTime": 1516922410858}, {"current_trial": 106, "trialdata": {"rt": -1, "trial_type": "single-stim", "stimulus": "<p id=\"stim\">10</p>", "internal_node_id": "0.0-79.0-0.0", "time_elapsed": 625692, "key_press": -1, "trial_index": 106}, "uniqueid": "MTK2295:34YB12FSQZVYUM34C5B5FKEYH7GMGN", "dateTime": 1516922413861}, {"current_trial": 107, "trialdata": {"rt": -1, "trial_type": "single-stim", "stimulus": "<p id=\"stim\">9</p>", "internal_node_id": "0.0-79.0-1.0", "time_elapsed": 626695, "key_press": -1, "trial_index": 107}, "uniqueid": "MTK2295:34YB12FSQZVYUM34C5B5FKEYH7GMGN", "dateTime": 1516922414864}, {"current_trial": 108, "trialdata": {"rt": -1, "trial_type": "single-stim", "stimulus": "<p id=\"stim\">8</p>", "internal_node_id": "0.0-79.0-2.0", "time_elapsed": 627698, "key_press": -1, "trial_index": 108}, "uniqueid": "MTK2295:34YB12FSQZVYUM34C5B5FKEYH7GMGN", "dateTime": 1516922415868}, {"current_trial": 109, "trialdata": {"rt": -1, "trial_type": "single-stim", "stimulus": "<p id=\"stim\">7</p>", "internal_node_id": "0.0-79.0-3.0", "time_elapsed": 628701, "key_press": -1, "trial_index": 109}, "uniqueid": "MTK2295:34YB12FSQZVYUM34C5B5FKEYH7GMGN", "dateTime": 1516922416870}, {"current_trial": 110, "trialdata": {"rt": -1, "trial_type": "single-stim", "stimulus": "<p id=\"stim\">6</p>", "internal_node_id": "0.0-79.0-4.0", "time_elapsed": 629703, "key_press": -1, "trial_index": 110}, "uniqueid": "MTK2295:34YB12FSQZVYUM34C5B5FKEYH7GMGN", "dateTime": 1516922417873}, {"current_trial": 111, "trialdata": {"rt": -1, "trial_type": "single-stim", "stimulus": "<p id=\"stim\">5</p>", "internal_node_id": "0.0-79.0-5.0", "time_elapsed": 630706, "key_press": -1, "trial_index": 111}, "uniqueid": "MTK2295:34YB12FSQZVYUM34C5B5FKEYH7GMGN", "dateTime": 1516922418875}, {"current_trial": 112, "trialdata": {"rt": -1, "trial_type": "single-stim", "stimulus": "<p id=\"stim\">4</p>", "internal_node_id": "0.0-79.0-6.0", "time_elapsed": 631709, "key_press": -1, "trial_index": 112}, "uniqueid": "MTK2295:34YB12FSQZVYUM34C5B5FKEYH7GMGN", "dateTime": 1516922419878}, {"current_trial": 113, "trialdata": {"rt": -1, "trial_type": "single-stim", "stimulus": "<p id=\"stim\">3</p>", "internal_node_id": "0.0-79.0-7.0", "time_elapsed": 632713, "key_press": -1, "trial_index": 113}, "uniqueid": "MTK2295:34YB12FSQZVYUM34C5B5FKEYH7GMGN", "dateTime": 1516922420882}, {"current_trial": 114, "trialdata": {"rt": -1, "trial_type": "single-stim", "stimulus": "<p id=\"stim\">2</p>", "internal_node_id": "0.0-79.0-8.0", "time_elapsed": 633717, "key_press": -1, "trial_index": 114}, "uniqueid": "MTK2295:34YB12FSQZVYUM34C5B5FKEYH7GMGN", "dateTime": 1516922421887}, {"current_trial": 115, "trialdata": {"rt": -1, "trial_type": "single-stim", "stimulus": "<p id=\"stim\">1</p>", "internal_node_id": "0.0-79.0-9.0", "time_elapsed": 634725, "key_press": -1, "trial_index": 115}, "uniqueid": "MTK2295:34YB12FSQZVYUM34C5B5FKEYH7GMGN", "dateTime": 1516922422895}, {"current_trial": 116, "trialdata": {"rt": -1, "trial_type": "single-stim", "stimulus": "<p id=\"stim\">+</p>", "internal_node_id": "0.0-80.0-0.0", "time_elapsed": 636229, "key_press": -1, "type": "FIXATION", "trial_index": 116}, "uniqueid": "MTK2295:34YB12FSQZVYUM34C5B5FKEYH7GMGN", "dateTime": 1516922424398}, {"current_trial": 117, "trialdata": {"rt": -1, "trial_type": "single-stim", "word": "puppy", "stimulus": "<p id=\"stim\">PUPPY</p>", "conditions": [24, 800, "v", 12000], "internal_node_id": "0.0-81.0", "trial": 3, "time_elapsed": 637032, "serialpos": 0, "key_press": -1, "wordID": 1143, "type": "PRES_VIS", "trial_index": 117}, "uniqueid": "MTK2295:34YB12FSQZVYUM34C5B5FKEYH7GMGN", "dateTime": 1516922425202}, {"current_trial": 118, "trialdata": {"rt": -1, "trial_type": "single-stim", "word": "skillet", "stimulus": "<p id=\"stim\">SKILLET</p>", "conditions": [24, 800, "v", 12000], "internal_node_id": "0.0-82.0", "trial": 3, "time_elapsed": 638802, "serialpos": 1, "key_press": -1, "wordID": 1316, "type": "PRES_VIS", "trial_index": 118}, "uniqueid": "MTK2295:34YB12FSQZVYUM34C5B5FKEYH7GMGN", "dateTime": 1516922426971}, {"current_trial": 119, "trialdata": {"rt": -1, "trial_type": "single-stim", "word": "carriage", "stimulus": "<p id=\"stim\">CARRIAGE</p>", "conditions": [24, 800, "v", 12000], "internal_node_id": "0.0-83.0", "trial": 3, "time_elapsed": 640639, "serialpos": 2, "key_press": -1, "wordID": 247, "type": "PRES_VIS", "trial_index": 119}, "uniqueid": "MTK2295:34YB12FSQZVYUM34C5B5FKEYH7GMGN", "dateTime": 1516922428808}, {"current_trial": 120, "trialdata": {"rt": -1, "trial_type": "single-stim", "word": "fiddle", "stimulus": "<p id=\"stim\">FIDDLE</p>", "conditions": [24, 800, "v", 12000], "internal_node_id": "0.0-84.0", "trial": 3, "time_elapsed": 642583, "serialpos": 3, "key_press": -1, "wordID": 560, "type": "PRES_VIS", "trial_index": 120}, "uniqueid": "MTK2295:34YB12FSQZVYUM34C5B5FKEYH7GMGN", "dateTime": 1516922430752}, {"current_trial": 121, "trialdata": {"rt": -1, "trial_type": "single-stim", "word": "onion", "stimulus": "<p id=\"stim\">ONION</p>", "conditions": [24, 800, "v", 12000], "internal_node_id": "0.0-85.0", "trial": 3, "time_elapsed": 644526, "serialpos": 4, "key_press": -1, "wordID": 976, "type": "PRES_VIS", "trial_index": 121}, "uniqueid": "MTK2295:34YB12FSQZVYUM34C5B5FKEYH7GMGN", "dateTime": 1516922432696}, {"current_trial": 122, "trialdata": {"rt": -1, "trial_type": "single-stim", "word": "buggy", "stimulus": "<p id=\"stim\">BUGGY</p>", "conditions": [24, 800, "v", 12000], "internal_node_id": "0.0-86.0", "trial": 3, "time_elapsed": 646492, "serialpos": 5, "key_press": -1, "wordID": 187, "type": "PRES_VIS", "trial_index": 122}, "uniqueid": "MTK2295:34YB12FSQZVYUM34C5B5FKEYH7GMGN", "dateTime": 1516922434661}, {"current_trial": 123, "trialdata": {"rt": -1, "trial_type": "single-stim", "word": "leopard", "stimulus": "<p id=\"stim\">LEOPARD</p>", "conditions": [24, 800, "v", 12000], "internal_node_id": "0.0-87.0", "trial": 3, "time_elapsed": 648338, "serialpos": 6, "key_press": -1, "wordID": 811, "type": "PRES_VIS", "trial_index": 123}, "uniqueid": "MTK2295:34YB12FSQZVYUM34C5B5FKEYH7GMGN", "dateTime": 1516922436507}, {"current_trial": 124, "trialdata": {"rt": -1, "trial_type": "single-stim", "word": "dust", "stimulus": "<p id=\"stim\">DUST</p>", "conditions": [24, 800, "v", 12000], "internal_node_id": "0.0-88.0", "trial": 3, "time_elapsed": 650233, "serialpos": 7, "key_press": -1, "wordID": 507, "type": "PRES_VIS", "trial_index": 124}, "uniqueid": "MTK2295:34YB12FSQZVYUM34C5B5FKEYH7GMGN", "dateTime": 1516922438402}, {"current_trial": 125, "trialdata": {"rt": -1, "trial_type": "single-stim", "word": "smog", "stimulus": "<p id=\"stim\">SMOG</p>", "conditions": [24, 800, "v", 12000], "internal_node_id": "0.0-89.0", "trial": 3, "time_elapsed": 652143, "serialpos": 8, "key_press": -1, "wordID": 1329, "type": "PRES_VIS", "trial_index": 125}, "uniqueid": "MTK2295:34YB12FSQZVYUM34C5B5FKEYH7GMGN", "dateTime": 1516922440313}, {"current_trial": 126, "trialdata": {"rt": -1, "trial_type": "single-stim", "word": "freckle", "stimulus": "<p id=\"stim\">FRECKLE</p>", "conditions": [24, 800, "v", 12000], "internal_node_id": "0.0-90.0", "trial": 3, "time_elapsed": 653861, "serialpos": 9, "key_press": -1, "wordID": 601, "type": "PRES_VIS", "trial_index": 126}, "uniqueid": "MTK2295:34YB12FSQZVYUM34C5B5FKEYH7GMGN", "dateTime": 1516922442030}, {"current_trial": 127, "trialdata": {"rt": -1, "trial_type": "single-stim", "word": "pimple", "stimulus": "<p id=\"stim\">PIMPLE</p>", "conditions": [24, 800, "v", 12000], "internal_node_id": "0.0-91.0", "trial": 3, "time_elapsed": 655570, "serialpos": 10, "key_press": -1, "wordID": 1070, "type": "PRES_VIS", "trial_index": 127}, "uniqueid": "MTK2295:34YB12FSQZVYUM34C5B5FKEYH7GMGN", "dateTime": 1516922443740}, {"current_trial": 128, "trialdata": {"rt": -1, "trial_type": "single-stim", "word": "garlic", "stimulus": "<p id=\"stim\">GARLIC</p>", "conditions": [24, 800, "v", 12000], "internal_node_id": "0.0-92.0", "trial": 3, "time_elapsed": 657242, "serialpos": 11, "key_press": -1, "wordID": 623, "type": "PRES_VIS", "trial_index": 128}, "uniqueid": "MTK2295:34YB12FSQZVYUM34C5B5FKEYH7GMGN", "dateTime": 1516922445412}, {"current_trial": 129, "trialdata": {"rt": -1, "trial_type": "single-stim", "word": "turnip", "stimulus": "<p id=\"stim\">TURNIP</p>", "conditions": [24, 800, "v", 12000], "internal_node_id": "0.0-93.0", "trial": 3, "time_elapsed": 658922, "serialpos": 12, "key_press": -1, "wordID": 1520, "type": "PRES_VIS", "trial_index": 129}, "uniqueid": "MTK2295:34YB12FSQZVYUM34C5B5FKEYH7GMGN", "dateTime": 1516922447092}, {"current_trial": 130, "trialdata": {"rt": -1, "trial_type": "single-stim", "word": "preacher", "stimulus": "<p id=\"stim\">PREACHER</p>", "conditions": [24, 800, "v", 12000], "internal_node_id": "0.0-94.0", "trial": 3, "time_elapsed": 660903, "serialpos": 13, "key_press": -1, "wordID": 1118, "type": "PRES_VIS", "trial_index": 130}, "uniqueid": "MTK2295:34YB12FSQZVYUM34C5B5FKEYH7GMGN", "dateTime": 1516922449073}, {"current_trial": 131, "trialdata": {"rt": -1, "trial_type": "single-stim", "word": "leader", "stimulus": "<p id=\"stim\">LEADER</p>", "conditions": [24, 800, "v", 12000], "internal_node_id": "0.0-95.0", "trial": 3, "time_elapsed": 662734, "serialpos": 14, "key_press": -1, "wordID": 806, "type": "PRES_VIS", "trial_index": 131}, "uniqueid": "MTK2295:34YB12FSQZVYUM34C5B5FKEYH7GMGN", "dateTime": 1516922450903}, {"current_trial": 132, "trialdata": {"rt": -1, "trial_type": "single-stim", "word": "woman", "stimulus": "<p id=\"stim\">WOMAN</p>", "conditions": [24, 800, "v", 12000], "internal_node_id": "0.0-96.0", "trial": 3, "time_elapsed": 664552, "serialpos": 15, "key_press": -1, "wordID": 1619, "type": "PRES_VIS", "trial_index": 132}, "uniqueid": "MTK2295:34YB12FSQZVYUM34C5B5FKEYH7GMGN", "dateTime": 1516922452722}, {"current_trial": 133, "trialdata": {"rt": -1, "trial_type": "single-stim", "word": "gavel", "stimulus": "<p id=\"stim\">GAVEL</p>", "conditions": [24, 800, "v", 12000], "internal_node_id": "0.0-97.0", "trial": 3, "time_elapsed": 666194, "serialpos": 16, "key_press": -1, "wordID": 626, "type": "PRES_VIS", "trial_index": 133}, "uniqueid": "MTK2295:34YB12FSQZVYUM34C5B5FKEYH7GMGN", "dateTime": 1516922454364}, {"current_trial": 134, "trialdata": {"rt": -1, "trial_type": "single-stim", "word": "valve", "stimulus": "<p id=\"stim\">VALVE</p>", "conditions": [24, 800, "v", 12000], "internal_node_id": "0.0-98.0", "trial": 3, "time_elapsed": 668035, "serialpos": 17, "key_press": -1, "wordID": 1545, "type": "PRES_VIS", "trial_index": 134}, "uniqueid": "MTK2295:34YB12FSQZVYUM34C5B5FKEYH7GMGN", "dateTime": 1516922456207}, {"current_trial": 135, "trialdata": {"rt": -1, "trial_type": "single-stim", "word": "sticker", "stimulus": "<p id=\"stim\">STICKER</p>", "conditions": [24, 800, "v", 12000], "internal_node_id": "0.0-99.0", "trial": 3, "time_elapsed": 670015, "serialpos": 18, "key_press": -1, "wordID": 1381, "type": "PRES_VIS", "trial_index": 135}, "uniqueid": "MTK2295:34YB12FSQZVYUM34C5B5FKEYH7GMGN", "dateTime": 1516922458184}, {"current_trial": 136, "trialdata": {"rt": -1, "trial_type": "single-stim", "word": "blade", "stimulus": "<p id=\"stim\">BLADE</p>", "conditions": [24, 800, "v", 12000], "internal_node_id": "0.0-100.0", "trial": 3, "time_elapsed": 671907, "serialpos": 19, "key_press": -1, "wordID": 133, "type": "PRES_VIS", "trial_index": 136}, "uniqueid": "MTK2295:34YB12FSQZVYUM34C5B5FKEYH7GMGN", "dateTime": 1516922460076}, {"current_trial": 137, "trialdata": {"rt": -1, "trial_type": "single-stim", "word": "razor", "stimulus": "<p id=\"stim\">RAZOR</p>", "conditions": [24, 800, "v", 12000], "internal_node_id": "0.0-101.0", "trial": 3, "time_elapsed": 673759, "serialpos": 20, "key_press": -1, "wordID": 1170, "type": "PRES_VIS", "trial_index": 137}, "uniqueid": "MTK2295:34YB12FSQZVYUM34C5B5FKEYH7GMGN", "dateTime": 1516922461928}, {"current_trial": 138, "trialdata": {"rt": -1, "trial_type": "single-stim", "word": "spouse", "stimulus": "<p id=\"stim\">SPOUSE</p>", "conditions": [24, 800, "v", 12000], "internal_node_id": "0.0-102.0", "trial": 3, "time_elapsed": 675362, "serialpos": 21, "key_press": -1, "wordID": 1357, "type": "PRES_VIS", "trial_index": 138}, "uniqueid": "MTK2295:34YB12FSQZVYUM34C5B5FKEYH7GMGN", "dateTime": 1516922463532}, {"current_trial": 139, "trialdata": {"rt": -1, "trial_type": "single-stim", "word": "cabbage", "stimulus": "<p id=\"stim\">CABBAGE</p>", "conditions": [24, 800, "v", 12000], "internal_node_id": "0.0-103.0", "trial": 3, "time_elapsed": 677145, "serialpos": 22, "key_press": -1, "wordID": 209, "type": "PRES_VIS", "trial_index": 139}, "uniqueid": "MTK2295:34YB12FSQZVYUM34C5B5FKEYH7GMGN", "dateTime": 1516922465315}, {"current_trial": 140, "trialdata": {"rt": -1, "trial_type": "single-stim", "word": "spool", "stimulus": "<p id=\"stim\">SPOOL</p>", "conditions": [24, 800, "v", 12000], "internal_node_id": "0.0-104.0", "trial": 3, "time_elapsed": 679109, "serialpos": 23, "key_press": -1, "wordID": 1355, "type": "PRES_VIS", "trial_index": 140}, "uniqueid": "MTK2295:34YB12FSQZVYUM34C5B5FKEYH7GMGN", "dateTime": 1516922467279}, {"current_trial": 141, "trialdata": {"rt": -1, "trial_type": "single-stim", "stimulus": "", "internal_node_id": "0.0-105.0-0.0", "time_elapsed": 681307, "key_press": -1, "type": "PRE_RECALL_DELAY", "trial_index": 141}, "uniqueid": "MTK2295:34YB12FSQZVYUM34C5B5FKEYH7GMGN", "dateTime": 1516922469477}, {"current_trial": 142, "trialdata": {"rt": -1000, "trial_type": "single-audio", "stimulus": "/static/audio/400Hz.wav", "internal_node_id": "0.0-106.0", "time_elapsed": 681816, "key_press": -1, "type": "PRE_RECALL_ALERT", "trial_index": 142}, "uniqueid": "MTK2295:34YB12FSQZVYUM34C5B5FKEYH7GMGN", "dateTime": 1516922469985}, {"current_trial": 143, "trialdata": {"rt": [2806, 6458, 11001, 16955, 21704, 29348], "recwords": ["spool", "cabbage", "sticker", "buggy", "valve", "skillet"], "key_times": [1266, 1643, 1968, 2097, 2309, 2806, 4741, 4962, 5164, 5289, 5402, 5547, 5693, 6458, 9188, 9629, 9993, 10179, 10472, 10654, 10754, 11001, 15629, 15765, 16094, 16235, 16370, 16955, 20181, 20331, 20820, 21224, 21345, 21704, 26470, 26558, 26717, 26982, 27099, 27198, 27329, 29348, 52636, 53231, 54471, 54869, 55014, 55902, 56097, 56272, 57093, 57588, 58889, 58987, 59278, 59542, 59951], "trial_type": "free-recall", "conditions": [24, 800, "v", 12000], "internal_node_id": "0.0-107.0-0.0", "key_presses": [83, 80, 79, 79, 76, 13, 67, 65, 66, 66, 65, 71, 69, 13, 83, 84, 73, 67, 75, 69, 82, 13, 66, 85, 71, 71, 89, 13, 86, 65, 76, 86, 69, 13, 83, 75, 73, 76, 76, 69, 84, 13, 67, 65, 73, 82, 82, 8, 8, 8, 82, 82, 73, 65, 70, 69, 8], "trial": 3, "time_elapsed": 741824, "type": "FREE_RECALL", "trial_index": 143}, "uniqueid": "MTK2295:34YB12FSQZVYUM34C5B5FKEYH7GMGN", "dateTime": 1516922529998}, {"current_trial": 144, "trialdata": {"rt": 1899, "trial_type": "text", "internal_node_id": "0.0-108.0", "time_elapsed": 745731, "key_press": 13, "type": "INSTRUCTIONS", "trial_index": 144}, "uniqueid": "MTK2295:34YB12FSQZVYUM34C5B5FKEYH7GMGN", "dateTime": 1516922533900}, {"current_trial": 145, "trialdata": {"rt": [2285, 5921, 8816, 10926, 13085, 15979, 17894, 21270, 23539], "trial_type": "math-distractor", "key_times": [1884, 2053, 2285, 5479, 5545, 5921, 8242, 8324, 8816, 10448, 10532, 10926, 12749, 13085, 14912, 15082, 15979, 17507, 17587, 17894, 20777, 20886, 21270, 23076, 23289, 23539], "responses": ["14", "16", "16", "13", "9", "10", "15", "21", "14"], "num2": [3, 5, 5, 1, 2, 2, 2, 4, 9, 6], "num3": [5, 9, 8, 9, 3, 4, 5, 9, 3, 9], "conditions": [12, 1600, "v", 24000], "internal_node_id": "0.0-109.0", "key_presses": [97, 100, 13, 97, 102, 13, 97, 102, 13, 97, 99, 13, 105, 13, 97, 96, 13, 97, 101, 13, 98, 97, 13, 97, 100, 13], "trial": 4, "time_elapsed": 771779, "type": "DISTRACTOR", "trial_index": 145, "num1": [6, 2, 3, 3, 4, 2, 8, 8, 2, 2]}, "uniqueid": "MTK2295:34YB12FSQZVYUM34C5B5FKEYH7GMGN", "dateTime": 1516922559948}, {"current_trial": 146, "trialdata": {"rt": -1, "trial_type": "single-stim", "stimulus": "<p id=\"stim\">10</p>", "internal_node_id": "0.0-110.0-0.0", "time_elapsed": 774784, "key_press": -1, "trial_index": 146}, "uniqueid": "MTK2295:34YB12FSQZVYUM34C5B5FKEYH7GMGN", "dateTime": 1516922562953}, {"current_trial": 147, "trialdata": {"rt": -1, "trial_type": "single-stim", "stimulus": "<p id=\"stim\">9</p>", "internal_node_id": "0.0-110.0-1.0", "time_elapsed": 775787, "key_press": -1, "trial_index": 147}, "uniqueid": "MTK2295:34YB12FSQZVYUM34C5B5FKEYH7GMGN", "dateTime": 1516922563956}, {"current_trial": 148, "trialdata": {"rt": -1, "trial_type": "single-stim", "stimulus": "<p id=\"stim\">8</p>", "internal_node_id": "0.0-110.0-2.0", "time_elapsed": 776791, "key_press": -1, "trial_index": 148}, "uniqueid": "MTK2295:34YB12FSQZVYUM34C5B5FKEYH7GMGN", "dateTime": 1516922564960}, {"current_trial": 149, "trialdata": {"rt": -1, "trial_type": "single-stim", "stimulus": "<p id=\"stim\">7</p>", "internal_node_id": "0.0-110.0-3.0", "time_elapsed": 777796, "key_press": -1, "trial_index": 149}, "uniqueid": "MTK2295:34YB12FSQZVYUM34C5B5FKEYH7GMGN", "dateTime": 1516922565966}, {"current_trial": 150, "trialdata": {"rt": -1, "trial_type": "single-stim", "stimulus": "<p id=\"stim\">6</p>", "internal_node_id": "0.0-110.0-4.0", "time_elapsed": 778800, "key_press": -1, "trial_index": 150}, "uniqueid": "MTK2295:34YB12FSQZVYUM34C5B5FKEYH7GMGN", "dateTime": 1516922566969}, {"current_trial": 151, "trialdata": {"rt": -1, "trial_type": "single-stim", "stimulus": "<p id=\"stim\">5</p>", "internal_node_id": "0.0-110.0-5.0", "time_elapsed": 779803, "key_press": -1, "trial_index": 151}, "uniqueid": "MTK2295:34YB12FSQZVYUM34C5B5FKEYH7GMGN", "dateTime": 1516922567973}, {"current_trial": 152, "trialdata": {"rt": -1, "trial_type": "single-stim", "stimulus": "<p id=\"stim\">4</p>", "internal_node_id": "0.0-110.0-6.0", "time_elapsed": 780807, "key_press": -1, "trial_index": 152}, "uniqueid": "MTK2295:34YB12FSQZVYUM34C5B5FKEYH7GMGN", "dateTime": 1516922568976}, {"current_trial": 153, "trialdata": {"rt": -1, "trial_type": "single-stim", "stimulus": "<p id=\"stim\">3</p>", "internal_node_id": "0.0-110.0-7.0", "time_elapsed": 781811, "key_press": -1, "trial_index": 153}, "uniqueid": "MTK2295:34YB12FSQZVYUM34C5B5FKEYH7GMGN", "dateTime": 1516922569980}, {"current_trial": 154, "trialdata": {"rt": -1, "trial_type": "single-stim", "stimulus": "<p id=\"stim\">2</p>", "internal_node_id": "0.0-110.0-8.0", "time_elapsed": 782814, "key_press": -1, "trial_index": 154}, "uniqueid": "MTK2295:34YB12FSQZVYUM34C5B5FKEYH7GMGN", "dateTime": 1516922570983}, {"current_trial": 155, "trialdata": {"rt": -1, "trial_type": "single-stim", "stimulus": "<p id=\"stim\">1</p>", "internal_node_id": "0.0-110.0-9.0", "time_elapsed": 783815, "key_press": -1, "trial_index": 155}, "uniqueid": "MTK2295:34YB12FSQZVYUM34C5B5FKEYH7GMGN", "dateTime": 1516922571985}, {"current_trial": 156, "trialdata": {"rt": -1, "trial_type": "single-stim", "stimulus": "<p id=\"stim\">+</p>", "internal_node_id": "0.0-111.0-0.0", "time_elapsed": 785319, "key_press": -1, "type": "FIXATION", "trial_index": 156}, "uniqueid": "MTK2295:34YB12FSQZVYUM34C5B5FKEYH7GMGN", "dateTime": 1516922573488}, {"current_trial": 157, "trialdata": {"rt": -1, "trial_type": "single-stim", "word": "blender", "stimulus": "<p id=\"stim\">BLENDER</p>", "conditions": [12, 1600, "v", 24000], "internal_node_id": "0.0-112.0", "trial": 4, "time_elapsed": 786922, "serialpos": 0, "key_press": -1, "wordID": 135, "type": "PRES_VIS", "trial_index": 157}, "uniqueid": "MTK2295:34YB12FSQZVYUM34C5B5FKEYH7GMGN", "dateTime": 1516922575091}, {"current_trial": 158, "trialdata": {"rt": -1, "trial_type": "single-stim", "word": "plaid", "stimulus": "<p id=\"stim\">PLAID</p>", "conditions": [12, 1600, "v", 24000], "internal_node_id": "0.0-113.0", "trial": 4, "time_elapsed": 789456, "serialpos": 1, "key_press": -1, "wordID": 1079, "type": "PRES_VIS", "trial_index": 158}, "uniqueid": "MTK2295:34YB12FSQZVYUM34C5B5FKEYH7GMGN", "dateTime": 1516922577627}, {"current_trial": 159, "trialdata": {"rt": -1, "trial_type": "single-stim", "word": "dolphin", "stimulus": "<p id=\"stim\">DOLPHIN</p>", "conditions": [12, 1600, "v", 24000], "internal_node_id": "0.0-114.0", "trial": 4, "time_elapsed": 792127, "serialpos": 2, "key_press": -1, "wordID": 482, "type": "PRES_VIS", "trial_index": 159}, "uniqueid": "MTK2295:34YB12FSQZVYUM34C5B5FKEYH7GMGN", "dateTime": 1516922580297}, {"current_trial": 160, "trialdata": {"rt": -1, "trial_type": "single-stim", "word": "lava", "stimulus": "<p id=\"stim\">LAVA</p>", "conditions": [12, 1600, "v", 24000], "internal_node_id": "0.0-115.0", "trial": 4, "time_elapsed": 794610, "serialpos": 3, "key_press": -1, "wordID": 803, "type": "PRES_VIS", "trial_index": 160}, "uniqueid": "MTK2295:34YB12FSQZVYUM34C5B5FKEYH7GMGN", "dateTime": 1516922582780}, {"current_trial": 161, "trialdata": {"rt": -1, "trial_type": "single-stim", "word": "hook", "stimulus": "<p id=\"stim\">HOOK</p>", "conditions": [12, 1600, "v", 24000], "internal_node_id": "0.0-116.0", "trial": 4, "time_elapsed": 797398, "serialpos": 4, "key_press": -1, "wordID": 714, "type": "PRES_VIS", "trial_index": 161}, "uniqueid": "MTK2295:34YB12FSQZVYUM34C5B5FKEYH7GMGN", "dateTime": 1516922585567}, {"current_trial": 162, "trialdata": {"rt": -1, "trial_type": "single-stim", "word": "chipmunk", "stimulus": "<p id=\"stim\">CHIPMUNK</p>", "conditions": [12, 1600, "v", 24000], "internal_node_id": "0.0-117.0", "trial": 4, "time_elapsed": 799880, "serialpos": 5, "key_press": -1, "wordID": 303, "type": "PRES_VIS", "trial_index": 162}, "uniqueid": "MTK2295:34YB12FSQZVYUM34C5B5FKEYH7GMGN", "dateTime": 1516922588050}, {"current_trial": 163, "trialdata": {"rt": -1, "trial_type": "single-stim", "word": "bunny", "stimulus": "<p id=\"stim\">BUNNY</p>", "conditions": [12, 1600, "v", 24000], "internal_node_id": "0.0-118.0", "trial": 4, "time_elapsed": 802530, "serialpos": 6, "key_press": -1, "wordID": 197, "type": "PRES_VIS", "trial_index": 163}, "uniqueid": "MTK2295:34YB12FSQZVYUM34C5B5FKEYH7GMGN", "dateTime": 1516922590699}, {"current_trial": 164, "trialdata": {"rt": -1, "trial_type": "single-stim", "word": "switch", "stimulus": "<p id=\"stim\">SWITCH</p>", "conditions": [12, 1600, "v", 24000], "internal_node_id": "0.0-119.0", "trial": 4, "time_elapsed": 805159, "serialpos": 7, "key_press": -1, "wordID": 1421, "type": "PRES_VIS", "trial_index": 164}, "uniqueid": "MTK2295:34YB12FSQZVYUM34C5B5FKEYH7GMGN", "dateTime": 1516922593329}, {"current_trial": 165, "trialdata": {"rt": -1, "trial_type": "single-stim", "word": "denim", "stimulus": "<p id=\"stim\">DENIM</p>", "conditions": [12, 1600, "v", 24000], "internal_node_id": "0.0-120.0", "trial": 4, "time_elapsed": 807820, "serialpos": 8, "key_press": -1, "wordID": 445, "type": "PRES_VIS", "trial_index": 165}, "uniqueid": "MTK2295:34YB12FSQZVYUM34C5B5FKEYH7GMGN", "dateTime": 1516922595990}, {"current_trial": 166, "trialdata": {"rt": -1, "trial_type": "single-stim", "word": "mailbox", "stimulus": "<p id=\"stim\">MAILBOX</p>", "conditions": [12, 1600, "v", 24000], "internal_node_id": "0.0-121.0", "trial": 4, "time_elapsed": 810272, "serialpos": 9, "key_press": -1, "wordID": 856, "type": "PRES_VIS", "trial_index": 166}, "uniqueid": "MTK2295:34YB12FSQZVYUM34C5B5FKEYH7GMGN", "dateTime": 1516922598441}, {"current_trial": 167, "trialdata": {"rt": -1, "trial_type": "single-stim", "word": "office", "stimulus": "<p id=\"stim\">OFFICE</p>", "conditions": [12, 1600, "v", 24000], "internal_node_id": "0.0-122.0", "trial": 4, "time_elapsed": 812926, "serialpos": 10, "key_press": -1, "wordID": 971, "type": "PRES_VIS", "trial_index": 167}, "uniqueid": "MTK2295:34YB12FSQZVYUM34C5B5FKEYH7GMGN", "dateTime": 1516922601095}, {"current_trial": 168, "trialdata": {"rt": -1, "trial_type": "single-stim", "word": "lace", "stimulus": "<p id=\"stim\">LACE</p>", "conditions": [12, 1600, "v", 24000], "internal_node_id": "0.0-123.0", "trial": 4, "time_elapsed": 815725, "serialpos": 11, "key_press": -1, "wordID": 791, "type": "PRES_VIS", "trial_index": 168}, "uniqueid": "MTK2295:34YB12FSQZVYUM34C5B5FKEYH7GMGN", "dateTime": 1516922603894}, {"current_trial": 169, "trialdata": {"rt": -1, "trial_type": "single-stim", "stimulus": "", "internal_node_id": "0.0-124.0-0.0", "time_elapsed": 818094, "key_press": -1, "type": "PRE_RECALL_DELAY", "trial_index": 169}, "uniqueid": "MTK2295:34YB12FSQZVYUM34C5B5FKEYH7GMGN", "dateTime": 1516922606264}, {"current_trial": 170, "trialdata": {"rt": -1000, "trial_type": "single-audio", "stimulus": "/static/audio/400Hz.wav", "internal_node_id": "0.0-125.0", "time_elapsed": 818601, "key_press": -1, "type": "PRE_RECALL_ALERT", "trial_index": 170}, "uniqueid": "MTK2295:34YB12FSQZVYUM34C5B5FKEYH7GMGN", "dateTime": 1516922606771}, {"current_trial": 171, "trialdata": {"rt": [2737, 4311, 7318, 9814], "recwords": ["office", "lace", "mailbox", "denim"], "key_times": [880, 1280, 1413, 2053, 2318, 2416, 2737, 3390, 3496, 3780, 3900, 4311, 5076, 5192, 5418, 5603, 6475, 6616, 7093, 7318, 8800, 8917, 9237, 9392, 9557, 9814], "trial_type": "free-recall", "conditions": [12, 1600, "v", 24000], "internal_node_id": "0.0-126.0-0.0", "key_presses": [79, 70, 70, 73, 67, 69, 13, 76, 65, 67, 69, 13, 77, 65, 73, 76, 66, 79, 88, 13, 68, 69, 78, 73, 77, 13], "trial": 4, "time_elapsed": 878613, "type": "FREE_RECALL", "trial_index": 171}, "uniqueid": "MTK2295:34YB12FSQZVYUM34C5B5FKEYH7GMGN", "dateTime": 1516922666793}, {"current_trial": 172, "trialdata": {"rt": 1796, "trial_type": "text", "internal_node_id": "0.0-127.0", "time_elapsed": 882421, "key_press": 32, "type": "INSTRUCTIONS", "trial_index": 172}, "uniqueid": "MTK2295:34YB12FSQZVYUM34C5B5FKEYH7GMGN", "dateTime": 1516922670591}, {"current_trial": 173, "trialdata": {"rt": [2526, 4720, 8414, 10633, 12730, 16293, 18626, 20349, 22827], "trial_type": "math-distractor", "key_times": [2101, 2231, 2526, 4315, 4391, 4720, 7091, 7281, 8414, 10330, 10633, 12201, 12427, 12730, 15828, 15960, 16293, 18136, 18331, 18626, 20020, 20077, 20349, 22170, 22337, 22827], "responses": ["11", "13", "18", "7", "19", "21", "14", "13", "10"], "num2": [2, 3, 9, 2, 8, 6, 4, 8, 4, 2], "num3": [5, 8, 2, 3, 5, 6, 1, 1, 5, 1], "conditions": [24, 1600, "v", 24000], "internal_node_id": "0.0-128.0", "key_presses": [97, 97, 13, 97, 99, 13, 97, 104, 13, 103, 13, 97, 105, 13, 98, 97, 13, 97, 100, 13, 97, 99, 13, 97, 96, 13], "trial": 5, "time_elapsed": 908427, "type": "DISTRACTOR", "trial_index": 173, "num1": [4, 2, 7, 2, 6, 9, 9, 4, 1, 2]}, "uniqueid": "MTK2295:34YB12FSQZVYUM34C5B5FKEYH7GMGN", "dateTime": 1516922696599}, {"current_trial": 174, "trialdata": {"rt": -1, "trial_type": "single-stim", "stimulus": "<p id=\"stim\">10</p>", "internal_node_id": "0.0-129.0-0.0", "time_elapsed": 911432, "key_press": -1, "trial_index": 174}, "uniqueid": "MTK2295:34YB12FSQZVYUM34C5B5FKEYH7GMGN", "dateTime": 1516922699601}, {"current_trial": 175, "trialdata": {"rt": -1, "trial_type": "single-stim", "stimulus": "<p id=\"stim\">9</p>", "internal_node_id": "0.0-129.0-1.0", "time_elapsed": 912435, "key_press": -1, "trial_index": 175}, "uniqueid": "MTK2295:34YB12FSQZVYUM34C5B5FKEYH7GMGN", "dateTime": 1516922700604}, {"current_trial": 176, "trialdata": {"rt": -1, "trial_type": "single-stim", "stimulus": "<p id=\"stim\">8</p>", "internal_node_id": "0.0-129.0-2.0", "time_elapsed": 913438, "key_press": -1, "trial_index": 176}, "uniqueid": "MTK2295:34YB12FSQZVYUM34C5B5FKEYH7GMGN", "dateTime": 1516922701607}, {"current_trial": 177, "trialdata": {"rt": -1, "trial_type": "single-stim", "stimulus": "<p id=\"stim\">7</p>", "internal_node_id": "0.0-129.0-3.0", "time_elapsed": 914443, "key_press": -1, "trial_index": 177}, "uniqueid": "MTK2295:34YB12FSQZVYUM34C5B5FKEYH7GMGN", "dateTime": 1516922702612}, {"current_trial": 178, "trialdata": {"rt": -1, "trial_type": "single-stim", "stimulus": "<p id=\"stim\">6</p>", "internal_node_id": "0.0-129.0-4.0", "time_elapsed": 915445, "key_press": -1, "trial_index": 178}, "uniqueid": "MTK2295:34YB12FSQZVYUM34C5B5FKEYH7GMGN", "dateTime": 1516922703615}, {"current_trial": 179, "trialdata": {"rt": -1, "trial_type": "single-stim", "stimulus": "<p id=\"stim\">5</p>", "internal_node_id": "0.0-129.0-5.0", "time_elapsed": 916449, "key_press": -1, "trial_index": 179}, "uniqueid": "MTK2295:34YB12FSQZVYUM34C5B5FKEYH7GMGN", "dateTime": 1516922704618}, {"current_trial": 180, "trialdata": {"rt": -1, "trial_type": "single-stim", "stimulus": "<p id=\"stim\">4</p>", "internal_node_id": "0.0-129.0-6.0", "time_elapsed": 917452, "key_press": -1, "trial_index": 180}, "uniqueid": "MTK2295:34YB12FSQZVYUM34C5B5FKEYH7GMGN", "dateTime": 1516922705622}, {"current_trial": 181, "trialdata": {"rt": -1, "trial_type": "single-stim", "stimulus": "<p id=\"stim\">3</p>", "internal_node_id": "0.0-129.0-7.0", "time_elapsed": 918455, "key_press": -1, "trial_index": 181}, "uniqueid": "MTK2295:34YB12FSQZVYUM34C5B5FKEYH7GMGN", "dateTime": 1516922706624}, {"current_trial": 182, "trialdata": {"rt": -1, "trial_type": "single-stim", "stimulus": "<p id=\"stim\">2</p>", "internal_node_id": "0.0-129.0-8.0", "time_elapsed": 919457, "key_press": -1, "trial_index": 182}, "uniqueid": "MTK2295:34YB12FSQZVYUM34C5B5FKEYH7GMGN", "dateTime": 1516922707626}, {"current_trial": 183, "trialdata": {"rt": -1, "trial_type": "single-stim", "stimulus": "<p id=\"stim\">1</p>", "internal_node_id": "0.0-129.0-9.0", "time_elapsed": 920459, "key_press": -1, "trial_index": 183}, "uniqueid": "MTK2295:34YB12FSQZVYUM34C5B5FKEYH7GMGN", "dateTime": 1516922708629}, {"current_trial": 184, "trialdata": {"rt": -1, "trial_type": "single-stim", "stimulus": "<p id=\"stim\">+</p>", "internal_node_id": "0.0-130.0-0.0", "time_elapsed": 921962, "key_press": -1, "type": "FIXATION", "trial_index": 184}, "uniqueid": "MTK2295:34YB12FSQZVYUM34C5B5FKEYH7GMGN", "dateTime": 1516922710132}, {"current_trial": 185, "trialdata": {"rt": -1, "trial_type": "single-stim", "word": "parsley", "stimulus": "<p id=\"stim\">PARSLEY</p>", "conditions": [24, 1600, "v", 24000], "internal_node_id": "0.0-131.0", "trial": 5, "time_elapsed": 923566, "serialpos": 0, "key_press": -1, "wordID": 1015, "type": "PRES_VIS", "trial_index": 185}, "uniqueid": "MTK2295:34YB12FSQZVYUM34C5B5FKEYH7GMGN", "dateTime": 1516922711736}, {"current_trial": 186, "trialdata": {"rt": -1, "trial_type": "single-stim", "word": "eyelash", "stimulus": "<p id=\"stim\">EYELASH</p>", "conditions": [24, 1600, "v", 24000], "internal_node_id": "0.0-132.0", "trial": 5, "time_elapsed": 925988, "serialpos": 1, "key_press": -1, "wordID": 545, "type": "PRES_VIS", "trial_index": 186}, "uniqueid": "MTK2295:34YB12FSQZVYUM34C5B5FKEYH7GMGN", "dateTime": 1516922714158}, {"current_trial": 187, "trialdata": {"rt": -1, "trial_type": "single-stim", "word": "vagrant", "stimulus": "<p id=\"stim\">VAGRANT</p>", "conditions": [24, 1600, "v", 24000], "internal_node_id": "0.0-133.0", "trial": 5, "time_elapsed": 928553, "serialpos": 2, "key_press": -1, "wordID": 1543, "type": "PRES_VIS", "trial_index": 187}, "uniqueid": "MTK2295:34YB12FSQZVYUM34C5B5FKEYH7GMGN", "dateTime": 1516922716722}, {"current_trial": 188, "trialdata": {"rt": -1, "trial_type": "single-stim", "word": "cross", "stimulus": "<p id=\"stim\">CROSS</p>", "conditions": [24, 1600, "v", 24000], "internal_node_id": "0.0-134.0", "trial": 5, "time_elapsed": 931139, "serialpos": 3, "key_press": -1, "wordID": 412, "type": "PRES_VIS", "trial_index": 188}, "uniqueid": "MTK2295:34YB12FSQZVYUM34C5B5FKEYH7GMGN", "dateTime": 1516922719308}, {"current_trial": 189, "trialdata": {"rt": -1, "trial_type": "single-stim", "word": "church", "stimulus": "<p id=\"stim\">CHURCH</p>", "conditions": [24, 1600, "v", 24000], "internal_node_id": "0.0-135.0", "trial": 5, "time_elapsed": 933826, "serialpos": 4, "key_press": -1, "wordID": 306, "type": "PRES_VIS", "trial_index": 189}, "uniqueid": "MTK2295:34YB12FSQZVYUM34C5B5FKEYH7GMGN", "dateTime": 1516922721996}, {"current_trial": 190, "trialdata": {"rt": -1, "trial_type": "single-stim", "word": "lagoon", "stimulus": "<p id=\"stim\">LAGOON</p>", "conditions": [24, 1600, "v", 24000], "internal_node_id": "0.0-136.0", "trial": 5, "time_elapsed": 936460, "serialpos": 5, "key_press": -1, "wordID": 794, "type": "PRES_VIS", "trial_index": 190}, "uniqueid": "MTK2295:34YB12FSQZVYUM34C5B5FKEYH7GMGN", "dateTime": 1516922724630}, {"current_trial": 191, "trialdata": {"rt": -1, "trial_type": "single-stim", "word": "marsh", "stimulus": "<p id=\"stim\">MARSH</p>", "conditions": [24, 1600, "v", 24000], "internal_node_id": "0.0-137.0", "trial": 5, "time_elapsed": 938914, "serialpos": 6, "key_press": -1, "wordID": 873, "type": "PRES_VIS", "trial_index": 191}, "uniqueid": "MTK2295:34YB12FSQZVYUM34C5B5FKEYH7GMGN", "dateTime": 1516922727083}, {"current_trial": 192, "trialdata": {"rt": -1, "trial_type": "single-stim", "word": "pizza", "stimulus": "<p id=\"stim\">PIZZA</p>", "conditions": [24, 1600, "v", 24000], "internal_node_id": "0.0-138.0", "trial": 5, "time_elapsed": 941344, "serialpos": 7, "key_press": -1, "wordID": 1078, "type": "PRES_VIS", "trial_index": 192}, "uniqueid": "MTK2295:34YB12FSQZVYUM34C5B5FKEYH7GMGN", "dateTime": 1516922729514}, {"current_trial": 193, "trialdata": {"rt": -1, "trial_type": "single-stim", "word": "chapel", "stimulus": "<p id=\"stim\">CHAPEL</p>", "conditions": [24, 1600, "v", 24000], "internal_node_id": "0.0-139.0", "trial": 5, "time_elapsed": 943931, "serialpos": 8, "key_press": -1, "wordID": 279, "type": "PRES_VIS", "trial_index": 193}, "uniqueid": "MTK2295:34YB12FSQZVYUM34C5B5FKEYH7GMGN", "dateTime": 1516922732101}, {"current_trial": 194, "trialdata": {"rt": -1, "trial_type": "single-stim", "word": "pigeon", "stimulus": "<p id=\"stim\">PIGEON</p>", "conditions": [24, 1600, "v", 24000], "internal_node_id": "0.0-140.0", "trial": 5, "time_elapsed": 946561, "serialpos": 9, "key_press": -1, "wordID": 1064, "type": "PRES_VIS", "trial_index": 194}, "uniqueid": "MTK2295:34YB12FSQZVYUM34C5B5FKEYH7GMGN", "dateTime": 1516922734730}, {"current_trial": 195, "trialdata": {"rt": -1, "trial_type": "single-stim", "word": "thief", "stimulus": "<p id=\"stim\">THIEF</p>", "conditions": [24, 1600, "v", 24000], "internal_node_id": "0.0-141.0", "trial": 5, "time_elapsed": 948974, "serialpos": 10, "key_press": -1, "wordID": 1455, "type": "PRES_VIS", "trial_index": 195}, "uniqueid": "MTK2295:34YB12FSQZVYUM34C5B5FKEYH7GMGN", "dateTime": 1516922737144}, {"current_trial": 196, "trialdata": {"rt": -1, "trial_type": "single-stim", "word": "quail", "stimulus": "<p id=\"stim\">QUAIL</p>", "conditions": [24, 1600, "v", 24000], "internal_node_id": "0.0-142.0", "trial": 5, "time_elapsed": 951479, "serialpos": 11, "key_press": -1, "wordID": 1146, "type": "PRES_VIS", "trial_index": 196}, "uniqueid": "MTK2295:34YB12FSQZVYUM34C5B5FKEYH7GMGN", "dateTime": 1516922739648}, {"current_trial": 197, "trialdata": {"rt": -1, "trial_type": "single-stim", "word": "sandwich", "stimulus": "<p id=\"stim\">SANDWICH</p>", "conditions": [24, 1600, "v", 24000], "internal_node_id": "0.0-143.0", "trial": 5, "time_elapsed": 953913, "serialpos": 12, "key_press": -1, "wordID": 1231, "type": "PRES_VIS", "trial_index": 197}, "uniqueid": "MTK2295:34YB12FSQZVYUM34C5B5FKEYH7GMGN", "dateTime": 1516922742082}, {"current_trial": 198, "trialdata": {"rt": -1, "trial_type": "single-stim", "word": "salad", "stimulus": "<p id=\"stim\">SALAD</p>", "conditions": [24, 1600, "v", 24000], "internal_node_id": "0.0-144.0", "trial": 5, "time_elapsed": 956355, "serialpos": 13, "key_press": -1, "wordID": 1223, "type": "PRES_VIS", "trial_index": 198}, "uniqueid": "MTK2295:34YB12FSQZVYUM34C5B5FKEYH7GMGN", "dateTime": 1516922744524}, {"current_trial": 199, "trialdata": {"rt": -1, "trial_type": "single-stim", "word": "bouquet", "stimulus": "<p id=\"stim\">BOUQUET</p>", "conditions": [24, 1600, "v", 24000], "internal_node_id": "0.0-145.0", "trial": 5, "time_elapsed": 958831, "serialpos": 14, "key_press": -1, "wordID": 156, "type": "PRES_VIS", "trial_index": 199}, "uniqueid": "MTK2295:34YB12FSQZVYUM34C5B5FKEYH7GMGN", "dateTime": 1516922747000}, {"current_trial": 200, "trialdata": {"rt": -1, "trial_type": "single-stim", "word": "europe", "stimulus": "<p id=\"stim\">EUROPE</p>", "conditions": [24, 1600, "v", 24000], "internal_node_id": "0.0-146.0", "trial": 5, "time_elapsed": 961549, "serialpos": 15, "key_press": -1, "wordID": 540, "type": "PRES_VIS", "trial_index": 200}, "uniqueid": "MTK2295:34YB12FSQZVYUM34C5B5FKEYH7GMGN", "dateTime": 1516922749718}, {"current_trial": 201, "trialdata": {"rt": -1, "trial_type": "single-stim", "word": "elbow", "stimulus": "<p id=\"stim\">ELBOW</p>", "conditions": [24, 1600, "v", 24000], "internal_node_id": "0.0-147.0", "trial": 5, "time_elapsed": 963966, "serialpos": 16, "key_press": -1, "wordID": 519, "type": "PRES_VIS", "trial_index": 201}, "uniqueid": "MTK2295:34YB12FSQZVYUM34C5B5FKEYH7GMGN", "dateTime": 1516922752138}, {"current_trial": 202, "trialdata": {"rt": -1, "trial_type": "single-stim", "word": "maple", "stimulus": "<p id=\"stim\">MAPLE</p>", "conditions": [24, 1600, "v", 24000], "internal_node_id": "0.0-148.0", "trial": 5, "time_elapsed": 966393, "serialpos": 17, "key_press": -1, "wordID": 865, "type": "PRES_VIS", "trial_index": 202}, "uniqueid": "MTK2295:34YB12FSQZVYUM34C5B5FKEYH7GMGN", "dateTime": 1516922754562}, {"current_trial": 203, "trialdata": {"rt": -1, "trial_type": "single-stim", "word": "outdoors", "stimulus": "<p id=\"stim\">OUTDOORS</p>", "conditions": [24, 1600, "v", 24000], "internal_node_id": "0.0-149.0", "trial": 5, "time_elapsed": 968822, "serialpos": 18, "key_press": -1, "wordID": 986, "type": "PRES_VIS", "trial_index": 203}, "uniqueid": "MTK2295:34YB12FSQZVYUM34C5B5FKEYH7GMGN", "dateTime": 1516922756991}, {"current_trial": 204, "trialdata": {"rt": -1, "trial_type": "single-stim", "word": "mammal", "stimulus": "<p id=\"stim\">MAMMAL</p>", "conditions": [24, 1600, "v", 24000], "internal_node_id": "0.0-150.0", "trial": 5, "time_elapsed": 971271, "serialpos": 19, "key_press": -1, "wordID": 860, "type": "PRES_VIS", "trial_index": 204}, "uniqueid": "MTK2295:34YB12FSQZVYUM34C5B5FKEYH7GMGN", "dateTime": 1516922759441}, {"current_trial": 205, "trialdata": {"rt": -1, "trial_type": "single-stim", "word": "snack", "stimulus": "<p id=\"stim\">SNACK</p>", "conditions": [24, 1600, "v", 24000], "internal_node_id": "0.0-151.0", "trial": 5, "time_elapsed": 974005, "serialpos": 20, "key_press": -1, "wordID": 1330, "type": "PRES_VIS", "trial_index": 205}, "uniqueid": "MTK2295:34YB12FSQZVYUM34C5B5FKEYH7GMGN", "dateTime": 1516922762175}, {"current_trial": 206, "trialdata": {"rt": -1, "trial_type": "single-stim", "word": "sibling", "stimulus": "<p id=\"stim\">SIBLING</p>", "conditions": [24, 1600, "v", 24000], "internal_node_id": "0.0-152.0", "trial": 5, "time_elapsed": 976663, "serialpos": 21, "key_press": -1, "wordID": 1300, "type": "PRES_VIS", "trial_index": 206}, "uniqueid": "MTK2295:34YB12FSQZVYUM34C5B5FKEYH7GMGN", "dateTime": 1516922764832}, {"current_trial": 207, "trialdata": {"rt": -1, "trial_type": "single-stim", "word": "asia", "stimulus": "<p id=\"stim\">ASIA</p>", "conditions": [24, 1600, "v", 24000], "internal_node_id": "0.0-153.0", "trial": 5, "time_elapsed": 979319, "serialpos": 22, "key_press": -1, "wordID": 45, "type": "PRES_VIS", "trial_index": 207}, "uniqueid": "MTK2295:34YB12FSQZVYUM34C5B5FKEYH7GMGN", "dateTime": 1516922767489}, {"current_trial": 208, "trialdata": {"rt": -1, "trial_type": "single-stim", "word": "puddle", "stimulus": "<p id=\"stim\">PUDDLE</p>", "conditions": [24, 1600, "v", 24000], "internal_node_id": "0.0-154.0", "trial": 5, "time_elapsed": 981969, "serialpos": 23, "key_press": -1, "wordID": 1139, "type": "PRES_VIS", "trial_index": 208}, "uniqueid": "MTK2295:34YB12FSQZVYUM34C5B5FKEYH7GMGN", "dateTime": 1516922770139}, {"current_trial": 209, "trialdata": {"rt": -1, "trial_type": "single-stim", "stimulus": "", "internal_node_id": "0.0-155.0-0.0", "time_elapsed": 984391, "key_press": -1, "type": "PRE_RECALL_DELAY", "trial_index": 209}, "uniqueid": "MTK2295:34YB12FSQZVYUM34C5B5FKEYH7GMGN", "dateTime": 1516922772560}, {"current_trial": 210, "trialdata": {"rt": -1000, "trial_type": "single-audio", "stimulus": "/static/audio/400Hz.wav", "internal_node_id": "0.0-156.0", "time_elapsed": 984897, "key_press": -1, "type": "PRE_RECALL_ALERT", "trial_index": 210}, "uniqueid": "MTK2295:34YB12FSQZVYUM34C5B5FKEYH7GMGN", "dateTime": 1516922773067}, {"current_trial": 211, "trialdata": {"rt": [3053, 6415, 10092, 12471, 14927, 17083, 20066, 27790, 38605, 56480], "recwords": ["asia", "europe", "sibling", "puddle", "church", "cross", "lagoon", "pigeon", "priest", "quail"], "key_times": [1927, 2029, 2219, 2346, 3053, 4813, 5001, 5468, 5722, 5804, 5924, 6415, 8090, 8292, 8728, 8912, 9122, 9270, 9750, 10092, 10919, 11187, 11895, 12025, 12165, 12294, 12471, 13200, 13378, 13764, 14003, 14484, 14652, 14927, 15739, 15970, 16262, 16583, 16731, 17083, 18662, 18760, 19203, 19418, 19550, 19730, 20066, 24732, 25087, 25489, 25837, 26583, 27449, 27790, 37080, 37452, 37678, 37765, 37957, 38245, 38605, 52907, 53357, 55278, 55486, 55786, 56480], "trial_type": "free-recall", "conditions": [24, 1600, "v", 24000], "internal_node_id": "0.0-157.0-0.0", "key_presses": [65, 83, 73, 65, 13, 69, 85, 82, 79, 80, 69, 13, 83, 73, 66, 76, 73, 78, 71, 13, 80, 85, 68, 68, 76, 69, 13, 67, 72, 85, 82, 67, 72, 13, 67, 82, 79, 83, 83, 13, 76, 65, 71, 79, 79, 78, 13, 80, 73, 71, 69, 79, 78, 13, 80, 82, 73, 69, 83, 84, 13, 81, 85, 65, 73, 76, 13], "trial": 5, "time_elapsed": 1044905, "type": "FREE_RECALL", "trial_index": 211}, "uniqueid": "MTK2295:34YB12FSQZVYUM34C5B5FKEYH7GMGN", "dateTime": 1516922833090}, {"current_trial": 212, "trialdata": {"rt": 7072, "trial_type": "text", "internal_node_id": "0.0-158.0", "time_elapsed": 1053999, "key_press": 32, "type": "INSTRUCTIONS", "trial_index": 212}, "uniqueid": "MTK2295:34YB12FSQZVYUM34C5B5FKEYH7GMGN", "dateTime": 1516922842168}, {"current_trial": 213, "trialdata": {"rt": [2196, 5860, 7840, 10517], "trial_type": "math-distractor", "key_times": [1749, 1889, 2196, 5311, 5401, 5860, 7517, 7588, 7840, 9849, 10163, 10517], "responses": ["11", "16", "12", "17"], "num2": [4, 8, 8, 2, 7], "num3": [2, 5, 2, 8, 1], "conditions": [12, 800, "v", 12000], "internal_node_id": "0.0-159.0", "key_presses": [97, 97, 13, 97, 102, 13, 97, 98, 13, 97, 103, 13], "trial": 6, "time_elapsed": 1068021, "type": "DISTRACTOR", "trial_index": 213, "num1": [5, 3, 2, 7, 3]}, "uniqueid": "MTK2295:34YB12FSQZVYUM34C5B5FKEYH7GMGN", "dateTime": 1516922856190}, {"current_trial": 214, "trialdata": {"rt": -1, "trial_type": "single-stim", "stimulus": "<p id=\"stim\">10</p>", "internal_node_id": "0.0-160.0-0.0", "time_elapsed": 1071024, "key_press": -1, "trial_index": 214}, "uniqueid": "MTK2295:34YB12FSQZVYUM34C5B5FKEYH7GMGN", "dateTime": 1516922859193}, {"current_trial": 215, "trialdata": {"rt": -1, "trial_type": "single-stim", "stimulus": "<p id=\"stim\">9</p>", "internal_node_id": "0.0-160.0-1.0", "time_elapsed": 1072027, "key_press": -1, "trial_index": 215}, "uniqueid": "MTK2295:34YB12FSQZVYUM34C5B5FKEYH7GMGN", "dateTime": 1516922860197}, {"current_trial": 216, "trialdata": {"rt": -1, "trial_type": "single-stim", "stimulus": "<p id=\"stim\">8</p>", "internal_node_id": "0.0-160.0-2.0", "time_elapsed": 1073030, "key_press": -1, "trial_index": 216}, "uniqueid": "MTK2295:34YB12FSQZVYUM34C5B5FKEYH7GMGN", "dateTime": 1516922861199}, {"current_trial": 217, "trialdata": {"rt": -1, "trial_type": "single-stim", "stimulus": "<p id=\"stim\">7</p>", "internal_node_id": "0.0-160.0-3.0", "time_elapsed": 1074033, "key_press": -1, "trial_index": 217}, "uniqueid": "MTK2295:34YB12FSQZVYUM34C5B5FKEYH7GMGN", "dateTime": 1516922862203}, {"current_trial": 218, "trialdata": {"rt": -1, "trial_type": "single-stim", "stimulus": "<p id=\"stim\">6</p>", "internal_node_id": "0.0-160.0-4.0", "time_elapsed": 1075035, "key_press": -1, "trial_index": 218}, "uniqueid": "MTK2295:34YB12FSQZVYUM34C5B5FKEYH7GMGN", "dateTime": 1516922863205}, {"current_trial": 219, "trialdata": {"rt": -1, "trial_type": "single-stim", "stimulus": "<p id=\"stim\">5</p>", "internal_node_id": "0.0-160.0-5.0", "time_elapsed": 1076038, "key_press": -1, "trial_index": 219}, "uniqueid": "MTK2295:34YB12FSQZVYUM34C5B5FKEYH7GMGN", "dateTime": 1516922864207}, {"current_trial": 220, "trialdata": {"rt": -1, "trial_type": "single-stim", "stimulus": "<p id=\"stim\">4</p>", "internal_node_id": "0.0-160.0-6.0", "time_elapsed": 1077044, "key_press": -1, "trial_index": 220}, "uniqueid": "MTK2295:34YB12FSQZVYUM34C5B5FKEYH7GMGN", "dateTime": 1516922865213}, {"current_trial": 221, "trialdata": {"rt": -1, "trial_type": "single-stim", "stimulus": "<p id=\"stim\">3</p>", "internal_node_id": "0.0-160.0-7.0", "time_elapsed": 1078052, "key_press": -1, "trial_index": 221}, "uniqueid": "MTK2295:34YB12FSQZVYUM34C5B5FKEYH7GMGN", "dateTime": 1516922866221}, {"current_trial": 222, "trialdata": {"rt": -1, "trial_type": "single-stim", "stimulus": "<p id=\"stim\">2</p>", "internal_node_id": "0.0-160.0-8.0", "time_elapsed": 1079054, "key_press": -1, "trial_index": 222}, "uniqueid": "MTK2295:34YB12FSQZVYUM34C5B5FKEYH7GMGN", "dateTime": 1516922867224}, {"current_trial": 223, "trialdata": {"rt": -1, "trial_type": "single-stim", "stimulus": "<p id=\"stim\">1</p>", "internal_node_id": "0.0-160.0-9.0", "time_elapsed": 1080057, "key_press": -1, "trial_index": 223}, "uniqueid": "MTK2295:34YB12FSQZVYUM34C5B5FKEYH7GMGN", "dateTime": 1516922868226}, {"current_trial": 224, "trialdata": {"rt": -1, "trial_type": "single-stim", "stimulus": "<p id=\"stim\">+</p>", "internal_node_id": "0.0-161.0-0.0", "time_elapsed": 1081562, "key_press": -1, "type": "FIXATION", "trial_index": 224}, "uniqueid": "MTK2295:34YB12FSQZVYUM34C5B5FKEYH7GMGN", "dateTime": 1516922869732}, {"current_trial": 225, "trialdata": {"rt": -1, "trial_type": "single-stim", "word": "beaker", "stimulus": "<p id=\"stim\">BEAKER</p>", "conditions": [12, 800, "v", 12000], "internal_node_id": "0.0-162.0", "trial": 6, "time_elapsed": 1082364, "serialpos": 0, "key_press": -1, "wordID": 103, "type": "PRES_VIS", "trial_index": 225}, "uniqueid": "MTK2295:34YB12FSQZVYUM34C5B5FKEYH7GMGN", "dateTime": 1516922870533}, {"current_trial": 226, "trialdata": {"rt": -1, "trial_type": "single-stim", "word": "flask", "stimulus": "<p id=\"stim\">FLASK</p>", "conditions": [12, 800, "v", 12000], "internal_node_id": "0.0-163.0", "trial": 6, "time_elapsed": 1084193, "serialpos": 1, "key_press": -1, "wordID": 575, "type": "PRES_VIS", "trial_index": 226}, "uniqueid": "MTK2295:34YB12FSQZVYUM34C5B5FKEYH7GMGN", "dateTime": 1516922872363}, {"current_trial": 227, "trialdata": {"rt": -1, "trial_type": "single-stim", "word": "france", "stimulus": "<p id=\"stim\">FRANCE</p>", "conditions": [12, 800, "v", 12000], "internal_node_id": "0.0-164.0", "trial": 6, "time_elapsed": 1085989, "serialpos": 2, "key_press": -1, "wordID": 600, "type": "PRES_VIS", "trial_index": 227}, "uniqueid": "MTK2295:34YB12FSQZVYUM34C5B5FKEYH7GMGN", "dateTime": 1516922874160}, {"current_trial": 228, "trialdata": {"rt": -1, "trial_type": "single-stim", "word": "river", "stimulus": "<p id=\"stim\">RIVER</p>", "conditions": [12, 800, "v", 12000], "internal_node_id": "0.0-165.0", "trial": 6, "time_elapsed": 1087637, "serialpos": 3, "key_press": -1, "wordID": 1193, "type": "PRES_VIS", "trial_index": 228}, "uniqueid": "MTK2295:34YB12FSQZVYUM34C5B5FKEYH7GMGN", "dateTime": 1516922875806}, {"current_trial": 229, "trialdata": {"rt": -1, "trial_type": "single-stim", "word": "contract", "stimulus": "<p id=\"stim\">CONTRACT</p>", "conditions": [12, 800, "v", 12000], "internal_node_id": "0.0-166.0", "trial": 6, "time_elapsed": 1089565, "serialpos": 4, "key_press": -1, "wordID": 367, "type": "PRES_VIS", "trial_index": 229}, "uniqueid": "MTK2295:34YB12FSQZVYUM34C5B5FKEYH7GMGN", "dateTime": 1516922877734}, {"current_trial": 230, "trialdata": {"rt": -1, "trial_type": "single-stim", "word": "seal", "stimulus": "<p id=\"stim\">SEAL</p>", "conditions": [12, 800, "v", 12000], "internal_node_id": "0.0-167.0", "trial": 6, "time_elapsed": 1091553, "serialpos": 5, "key_press": -1, "wordID": 1261, "type": "PRES_VIS", "trial_index": 230}, "uniqueid": "MTK2295:34YB12FSQZVYUM34C5B5FKEYH7GMGN", "dateTime": 1516922879722}, {"current_trial": 231, "trialdata": {"rt": -1, "trial_type": "single-stim", "word": "citrus", "stimulus": "<p id=\"stim\">CITRUS</p>", "conditions": [12, 800, "v", 12000], "internal_node_id": "0.0-168.0", "trial": 6, "time_elapsed": 1093211, "serialpos": 6, "key_press": -1, "wordID": 312, "type": "PRES_VIS", "trial_index": 231}, "uniqueid": "MTK2295:34YB12FSQZVYUM34C5B5FKEYH7GMGN", "dateTime": 1516922881381}, {"current_trial": 232, "trialdata": {"rt": -1, "trial_type": "single-stim", "word": "permit", "stimulus": "<p id=\"stim\">PERMIT</p>", "conditions": [12, 800, "v", 12000], "internal_node_id": "0.0-169.0", "trial": 6, "time_elapsed": 1095079, "serialpos": 7, "key_press": -1, "wordID": 1050, "type": "PRES_VIS", "trial_index": 232}, "uniqueid": "MTK2295:34YB12FSQZVYUM34C5B5FKEYH7GMGN", "dateTime": 1516922883248}, {"current_trial": 233, "trialdata": {"rt": -1, "trial_type": "single-stim", "word": "cigar", "stimulus": "<p id=\"stim\">CIGAR</p>", "conditions": [12, 800, "v", 12000], "internal_node_id": "0.0-170.0", "trial": 6, "time_elapsed": 1096710, "serialpos": 8, "key_press": -1, "wordID": 307, "type": "PRES_VIS", "trial_index": 233}, "uniqueid": "MTK2295:34YB12FSQZVYUM34C5B5FKEYH7GMGN", "dateTime": 1516922884880}, {"current_trial": 234, "trialdata": {"rt": -1, "trial_type": "single-stim", "word": "soda", "stimulus": "<p id=\"stim\">SODA</p>", "conditions": [12, 800, "v", 12000], "internal_node_id": "0.0-171.0", "trial": 6, "time_elapsed": 1098359, "serialpos": 9, "key_press": -1, "wordID": 1340, "type": "PRES_VIS", "trial_index": 234}, "uniqueid": "MTK2295:34YB12FSQZVYUM34C5B5FKEYH7GMGN", "dateTime": 1516922886528}, {"current_trial": 235, "trialdata": {"rt": -1, "trial_type": "single-stim", "word": "scotch", "stimulus": "<p id=\"stim\">SCOTCH</p>", "conditions": [12, 800, "v", 12000], "internal_node_id": "0.0-172.0", "trial": 6, "time_elapsed": 1100318, "serialpos": 10, "key_press": -1, "wordID": 1250, "type": "PRES_VIS", "trial_index": 235}, "uniqueid": "MTK2295:34YB12FSQZVYUM34C5B5FKEYH7GMGN", "dateTime": 1516922888487}, {"current_trial": 236, "trialdata": {"rt": -1, "trial_type": "single-stim", "word": "brook", "stimulus": "<p id=\"stim\">BROOK</p>", "conditions": [12, 800, "v", 12000], "internal_node_id": "0.0-173.0", "trial": 6, "time_elapsed": 1102124, "serialpos": 11, "key_press": -1, "wordID": 176, "type": "PRES_VIS", "trial_index": 236}, "uniqueid": "MTK2295:34YB12FSQZVYUM34C5B5FKEYH7GMGN", "dateTime": 1516922890293}, {"current_trial": 237, "trialdata": {"rt": -1, "trial_type": "single-stim", "stimulus": "", "internal_node_id": "0.0-174.0-0.0", "time_elapsed": 1104533, "key_press": -1, "type": "PRE_RECALL_DELAY", "trial_index": 237}, "uniqueid": "MTK2295:34YB12FSQZVYUM34C5B5FKEYH7GMGN", "dateTime": 1516922892702}, {"current_trial": 238, "trialdata": {"rt": -1000, "trial_type": "single-audio", "stimulus": "/static/audio/400Hz.wav", "internal_node_id": "0.0-175.0", "time_elapsed": 1105038, "key_press": -1, "type": "PRE_RECALL_ALERT", "trial_index": 238}, "uniqueid": "MTK2295:34YB12FSQZVYUM34C5B5FKEYH7GMGN", "dateTime": 1516922893207}, {"current_trial": 239, "trialdata": {"rt": [4024, 6268, 8044, 9987, 32720], "recwords": ["brook", "scotch", "soda", "beaker", "flask"], "key_times": [1120, 1623, 1813, 1935, 2130, 2958, 3442, 4024, 4676, 4793, 5116, 5430, 5817, 5994, 6268, 7441, 7546, 7721, 7844, 8044, 8933, 9125, 9312, 9560, 9760, 9819, 9987, 30773, 30887, 31164, 31254, 31378, 32720], "trial_type": "free-recall", "conditions": [12, 800, "v", 12000], "internal_node_id": "0.0-176.0-0.0", "key_presses": [66, 82, 79, 79, 76, 8, 75, 13, 83, 67, 79, 84, 67, 72, 13, 83, 79, 68, 65, 13, 66, 69, 65, 75, 69, 82, 13, 70, 76, 65, 83, 75, 13], "trial": 6, "time_elapsed": 1165047, "type": "FREE_RECALL", "trial_index": 239}, "uniqueid": "MTK2295:34YB12FSQZVYUM34C5B5FKEYH7GMGN", "dateTime": 1516922953242}, {"current_trial": 240, "trialdata": {"rt": 2166, "trial_type": "text", "internal_node_id": "0.0-177.0", "time_elapsed": 1169242, "key_press": 32, "type": "INSTRUCTIONS", "trial_index": 240}, "uniqueid": "MTK2295:34YB12FSQZVYUM34C5B5FKEYH7GMGN", "dateTime": 1516922957411}, {"current_trial": 241, "trialdata": {"rt": [2842, 5859, 7893, 10205, 12310, 14776, 16878, 19022, 21774], "trial_type": "math-distractor", "key_times": [2475, 2632, 2842, 5393, 5467, 5859, 7614, 7893, 9817, 10205, 11889, 12019, 12310, 14257, 14339, 14776, 16504, 16595, 16878, 18576, 18747, 19022, 21148, 21452, 21774, 23990], "responses": ["18", "13", "5", "9", "15", "12", "16", "19", "17"], "num2": [5, 8, 1, 5, 4, 3, 5, 7, 3, 5], "num3": [4, 2, 3, 2, 2, 4, 8, 6, 5, 8], "conditions": [12, 1600, "v", 24000], "internal_node_id": "0.0-178.0", "key_presses": [97, 104, 13, 97, 99, 13, 101, 13, 105, 13, 97, 101, 13, 97, 98, 13, 97, 102, 13, 97, 105, 13, 97, 103, 13, 97], "trial": 7, "time_elapsed": 1195252, "type": "DISTRACTOR", "trial_index": 241, "num1": [9, 3, 1, 2, 9, 5, 3, 6, 9, 2]}, "uniqueid": "MTK2295:34YB12FSQZVYUM34C5B5FKEYH7GMGN", "dateTime": 1516922983421}, {"current_trial": 242, "trialdata": {"rt": -1, "trial_type": "single-stim", "stimulus": "<p id=\"stim\">10</p>", "internal_node_id": "0.0-179.0-0.0", "time_elapsed": 1198255, "key_press": -1, "trial_index": 242}, "uniqueid": "MTK2295:34YB12FSQZVYUM34C5B5FKEYH7GMGN", "dateTime": 1516922986425}, {"current_trial": 243, "trialdata": {"rt": -1, "trial_type": "single-stim", "stimulus": "<p id=\"stim\">9</p>", "internal_node_id": "0.0-179.0-1.0", "time_elapsed": 1199258, "key_press": -1, "trial_index": 243}, "uniqueid": "MTK2295:34YB12FSQZVYUM34C5B5FKEYH7GMGN", "dateTime": 1516922987427}, {"current_trial": 244, "trialdata": {"rt": -1, "trial_type": "single-stim", "stimulus": "<p id=\"stim\">8</p>", "internal_node_id": "0.0-179.0-2.0", "time_elapsed": 1200262, "key_press": -1, "trial_index": 244}, "uniqueid": "MTK2295:34YB12FSQZVYUM34C5B5FKEYH7GMGN", "dateTime": 1516922988431}, {"current_trial": 245, "trialdata": {"rt": -1, "trial_type": "single-stim", "stimulus": "<p id=\"stim\">7</p>", "internal_node_id": "0.0-179.0-3.0", "time_elapsed": 1201266, "key_press": -1, "trial_index": 245}, "uniqueid": "MTK2295:34YB12FSQZVYUM34C5B5FKEYH7GMGN", "dateTime": 1516922989436}, {"current_trial": 246, "trialdata": {"rt": -1, "trial_type": "single-stim", "stimulus": "<p id=\"stim\">6</p>", "internal_node_id": "0.0-179.0-4.0", "time_elapsed": 1202269, "key_press": -1, "trial_index": 246}, "uniqueid": "MTK2295:34YB12FSQZVYUM34C5B5FKEYH7GMGN", "dateTime": 1516922990439}, {"current_trial": 247, "trialdata": {"rt": -1, "trial_type": "single-stim", "stimulus": "<p id=\"stim\">5</p>", "internal_node_id": "0.0-179.0-5.0", "time_elapsed": 1203272, "key_press": -1, "trial_index": 247}, "uniqueid": "MTK2295:34YB12FSQZVYUM34C5B5FKEYH7GMGN", "dateTime": 1516922991442}, {"current_trial": 248, "trialdata": {"rt": -1, "trial_type": "single-stim", "stimulus": "<p id=\"stim\">4</p>", "internal_node_id": "0.0-179.0-6.0", "time_elapsed": 1204275, "key_press": -1, "trial_index": 248}, "uniqueid": "MTK2295:34YB12FSQZVYUM34C5B5FKEYH7GMGN", "dateTime": 1516922992445}, {"current_trial": 249, "trialdata": {"rt": -1, "trial_type": "single-stim", "stimulus": "<p id=\"stim\">3</p>", "internal_node_id": "0.0-179.0-7.0", "time_elapsed": 1205278, "key_press": -1, "trial_index": 249}, "uniqueid": "MTK2295:34YB12FSQZVYUM34C5B5FKEYH7GMGN", "dateTime": 1516922993447}, {"current_trial": 250, "trialdata": {"rt": -1, "trial_type": "single-stim", "stimulus": "<p id=\"stim\">2</p>", "internal_node_id": "0.0-179.0-8.0", "time_elapsed": 1206282, "key_press": -1, "trial_index": 250}, "uniqueid": "MTK2295:34YB12FSQZVYUM34C5B5FKEYH7GMGN", "dateTime": 1516922994451}, {"current_trial": 251, "trialdata": {"rt": -1, "trial_type": "single-stim", "stimulus": "<p id=\"stim\">1</p>", "internal_node_id": "0.0-179.0-9.0", "time_elapsed": 1207285, "key_press": -1, "trial_index": 251}, "uniqueid": "MTK2295:34YB12FSQZVYUM34C5B5FKEYH7GMGN", "dateTime": 1516922995454}, {"current_trial": 252, "trialdata": {"rt": -1, "trial_type": "single-stim", "stimulus": "<p id=\"stim\">+</p>", "internal_node_id": "0.0-180.0-0.0", "time_elapsed": 1208788, "key_press": -1, "type": "FIXATION", "trial_index": 252}, "uniqueid": "MTK2295:34YB12FSQZVYUM34C5B5FKEYH7GMGN", "dateTime": 1516922996957}, {"current_trial": 253, "trialdata": {"rt": -1, "trial_type": "single-stim", "word": "beef", "stimulus": "<p id=\"stim\">BEEF</p>", "conditions": [12, 1600, "v", 24000], "internal_node_id": "0.0-181.0", "trial": 7, "time_elapsed": 1210391, "serialpos": 0, "key_press": -1, "wordID": 112, "type": "PRES_VIS", "trial_index": 253}, "uniqueid": "MTK2295:34YB12FSQZV