{"assignmentId": "386PBUZZXG4OF6BKKZVTCKRPARIJLS", "workerId": "MTK2672", "questiondata": {"origin": "United States", "strat-rehearsal": "63", "marital": "Divorced", "education": "Some college", "ethnicity": "Not Hispanic", "color_depth": 24, "distracted": "No", "wrote-notes": "No", "strat-other": "I did a couple strategies together, trying to pair words together in a picture form so that I would remember them together.", "screen_width": 1366, "avail_screen_width": 1366, "avail_screen_height": 728, "strat-image": "92", "language": "English", "gender": "Female", "age": "35", "gender_other": "", "race": ["White"], "strat-categorize": "0", "pixel_depth": 24, "strat-spatial": "1", "strat-story": "86", "race_other": "", "screen_height": 768}, "bonus": 0, "hitId": "3SR6AEG6W50A1FPZPCCW5VHMM7FYHI", "counterbalance": 2144, "useragent": "Mozilla/5.0 (Windows NT 10.0; Win64; x64) AppleWebKit/537.36 (KHTML, like Gecko) Chrome/63.0.3239.132 Safari/537.36", "eventdata": [{"eventtype": "initialized", "interval": 0, "value": null, "timestamp": 1519232905230}, {"eventtype": "window_resize", "interval": 0, "value": [1366, 721], "timestamp": 1519232905230}, {"eventtype": "window_resize", "interval": 13488, "value": [1366, 677], "timestamp": 1519232918718}, {"eventtype": "focus", "interval": 25189, "value": "off", "timestamp": 1519232943907}, {"eventtype": "focus", "interval": 26926, "value": "on", "timestamp": 1519232970833}, {"eventtype": "focus", "interval": 3800, "value": "off", "timestamp": 1519232974633}, {"eventtype": "focus", "interval": 19600, "value": "on", "timestamp": 1519232994233}, {"eventtype": "focus", "interval": 5187, "value": "off", "timestamp": 1519232999420}, {"eventtype": "focus", "interval": 4232, "value": "on", "timestamp": 1519233003652}, {"eventtype": "focus", "interval": 21063, "value": "off", "timestamp": 1519233024715}, {"eventtype": "focus", "interval": 3213, "value": "on", "timestamp": 1519233027928}, {"eventtype": "focus", "interval": 101261, "value": "off", "timestamp": 1519233129189}, {"eventtype": "focus", "interval": 50005, "value": "on", "timestamp": 1519233179194}], "data": [{"current_trial": 0, "trialdata": {"rt": 10072, "trial_type": "text", "internal_node_id": "0.0-0.0", "time_elapsed": 10074, "key_press": 32, "type": "INSTRUCTIONS", "trial_index": 0}, "uniqueid": "MTK2672:386PBUZZXG4OF6BKKZVTCKRPARIJLS", "dateTime": 1519232971451}, {"current_trial": 1, "trialdata": {"rt": 23603, "trial_type": "text", "internal_node_id": "0.0-1.0", "time_elapsed": 33679, "key_press": 32, "type": "INSTRUCTIONS", "trial_index": 1}, "uniqueid": "MTK2672:386PBUZZXG4OF6BKKZVTCKRPARIJLS", "dateTime": 1519232995055}, {"current_trial": 2, "trialdata": {"rt": [11244], "trial_type": "audio-test", "responses": ["ocean"], "internal_node_id": "0.0-2.0", "time_elapsed": 44959, "type": "AUDIO_TEST", "trial_index": 2}, "uniqueid": "MTK2672:386PBUZZXG4OF6BKKZVTCKRPARIJLS", "dateTime": 1519233006335}, {"current_trial": 3, "trialdata": {"rt": [9111], "trial_type": "audio-test", "responses": ["crystal"], "internal_node_id": "0.0-3.0", "time_elapsed": 54074, "type": "AUDIO_TEST", "trial_index": 3}, "uniqueid": "MTK2672:386PBUZZXG4OF6BKKZVTCKRPARIJLS", "dateTime": 1519233015450}, {"current_trial": 4, "trialdata": {"rt": [7262], "trial_type": "audio-test", "responses": ["spice"], "internal_node_id": "0.0-4.0", "time_elapsed": 61340, "type": "AUDIO_TEST", "trial_index": 4}, "uniqueid": "MTK2672:386PBUZZXG4OF6BKKZVTCKRPARIJLS", "dateTime": 1519233022716}, {"current_trial": 5, "trialdata": {"rt": 17465, "trial_type": "survey-text", "responses": "{\"Q0\":\"10:00\",\"Q1\":\"5:30\",\"Q2\":\"5\"}", "internal_node_id": "0.0-5.0", "time_elapsed": 79557, "type": "SLEEP_SURVEY", "trial_index": 5}, "uniqueid": "MTK2672:386PBUZZXG4OF6BKKZVTCKRPARIJLS", "dateTime": 1519233040933}, {"current_trial": 6, "trialdata": {"rt": 22530, "trial_type": "text", "internal_node_id": "0.0-6.0", "time_elapsed": 103090, "key_press": 17, "type": "INSTRUCTIONS", "trial_index": 6}, "uniqueid": "MTK2672:386PBUZZXG4OF6BKKZVTCKRPARIJLS", "dateTime": 1519233064466}, {"current_trial": 7, "trialdata": {"rt": 26577, "trial_type": "text", "internal_node_id": "0.0-7.0", "time_elapsed": 130168, "key_press": 32, "type": "INSTRUCTIONS", "trial_index": 7}, "uniqueid": "MTK2672:386PBUZZXG4OF6BKKZVTCKRPARIJLS", "dateTime": 1519233091544}, {"current_trial": 8, "trialdata": {"rt": 11239, "trial_type": "text", "internal_node_id": "0.0-8.0", "time_elapsed": 141908, "key_press": 32, "type": "INSTRUCTIONS", "trial_index": 8}, "uniqueid": "MTK2672:386PBUZZXG4OF6BKKZVTCKRPARIJLS", "dateTime": 1519233103284}, {"current_trial": 9, "trialdata": {"rt": [5128, 6940, 10153, 13905, 17079], "trial_type": "math-distractor", "key_times": [3126, 3188, 5128, 6647, 6940, 9551, 9882, 10153, 13610, 13735, 13905, 16602, 16837, 17079], "responses": ["21", "8", "17", "22", "20"], "num2": [4, 2, 9, 7, 5, 2], "num3": [9, 1, 3, 8, 7, 4], "conditions": [18, 1200, "a", 18000], "internal_node_id": "0.0-9.0", "key_presses": [50, 49, 13, 56, 13, 49, 55, 13, 50, 50, 13, 50, 48, 13], "trial": 0, "time_elapsed": 160913, "type": "DISTRACTOR", "trial_index": 9, "num1": [8, 5, 5, 7, 8, 1]}, "uniqueid": "MTK2672:386PBUZZXG4OF6BKKZVTCKRPARIJLS", "dateTime": 1519233122289}, {"current_trial": 10, "trialdata": {"rt": -1, "trial_type": "single-stim", "stimulus": "<p id=\"stim\">10</p>", "internal_node_id": "0.0-10.0-0.0", "time_elapsed": 163915, "key_press": -1, "trial_index": 10}, "uniqueid": "MTK2672:386PBUZZXG4OF6BKKZVTCKRPARIJLS", "dateTime": 1519233125291}, {"current_trial": 11, "trialdata": {"rt": -1, "trial_type": "single-stim", "stimulus": "<p id=\"stim\">9</p>", "internal_node_id": "0.0-10.0-1.0", "time_elapsed": 164917, "key_press": -1, "trial_index": 11}, "uniqueid": "MTK2672:386PBUZZXG4OF6BKKZVTCKRPARIJLS", "dateTime": 1519233126293}, {"current_trial": 12, "trialdata": {"rt": -1, "trial_type": "single-stim", "stimulus": "<p id=\"stim\">8</p>", "internal_node_id": "0.0-10.0-2.0", "time_elapsed": 165919, "key_press": -1, "trial_index": 12}, "uniqueid": "MTK2672:386PBUZZXG4OF6BKKZVTCKRPARIJLS", "dateTime": 1519233127295}, {"current_trial": 13, "trialdata": {"rt": -1, "trial_type": "single-stim", "stimulus": "<p id=\"stim\">7</p>", "internal_node_id": "0.0-10.0-3.0", "time_elapsed": 166920, "key_press": -1, "trial_index": 13}, "uniqueid": "MTK2672:386PBUZZXG4OF6BKKZVTCKRPARIJLS", "dateTime": 1519233128296}, {"current_trial": 14, "trialdata": {"rt": -1, "trial_type": "single-stim", "stimulus": "<p id=\"stim\">6</p>", "internal_node_id": "0.0-10.0-4.0", "time_elapsed": 167921, "key_press": -1, "trial_index": 14}, "uniqueid": "MTK2672:386PBUZZXG4OF6BKKZVTCKRPARIJLS", "dateTime": 1519233129297}, {"current_trial": 15, "trialdata": {"rt": -1, "trial_type": "single-stim", "stimulus": "<p id=\"stim\">5</p>", "internal_node_id": "0.0-10.0-5.0", "time_elapsed": 168922, "key_press": -1, "trial_index": 15}, "uniqueid": "MTK2672:386PBUZZXG4OF6BKKZVTCKRPARIJLS", "dateTime": 1519233130299}, {"current_trial": 16, "trialdata": {"rt": -1, "trial_type": "single-stim", "stimulus": "<p id=\"stim\">4</p>", "internal_node_id": "0.0-10.0-6.0", "time_elapsed": 169924, "key_press": -1, "trial_index": 16}, "uniqueid": "MTK2672:386PBUZZXG4OF6BKKZVTCKRPARIJLS", "dateTime": 1519233131300}, {"current_trial": 17, "trialdata": {"rt": -1, "trial_type": "single-stim", "stimulus": "<p id=\"stim\">3</p>", "internal_node_id": "0.0-10.0-7.0", "time_elapsed": 170926, "key_press": -1, "trial_index": 17}, "uniqueid": "MTK2672:386PBUZZXG4OF6BKKZVTCKRPARIJLS", "dateTime": 1519233132302}, {"current_trial": 18, "trialdata": {"rt": -1, "trial_type": "single-stim", "stimulus": "<p id=\"stim\">2</p>", "internal_node_id": "0.0-10.0-8.0", "time_elapsed": 171927, "key_press": -1, "trial_index": 18}, "uniqueid": "MTK2672:386PBUZZXG4OF6BKKZVTCKRPARIJLS", "dateTime": 1519233133304}, {"current_trial": 19, "trialdata": {"rt": -1, "trial_type": "single-stim", "stimulus": "<p id=\"stim\">1</p>", "internal_node_id": "0.0-10.0-9.0", "time_elapsed": 172929, "key_press": -1, "trial_index": 19}, "uniqueid": "MTK2672:386PBUZZXG4OF6BKKZVTCKRPARIJLS", "dateTime": 1519233134305}, {"current_trial": 20, "trialdata": {"rt": -1, "trial_type": "single-stim", "stimulus": "<p id=\"stim\">+</p>", "internal_node_id": "0.0-11.0-0.0", "time_elapsed": 174429, "key_press": -1, "type": "FIXATION", "trial_index": 20}, "uniqueid": "MTK2672:386PBUZZXG4OF6BKKZVTCKRPARIJLS", "dateTime": 1519233135805}, {"current_trial": 21, "trialdata": {"rt": -1000, "trial_type": "single-audio", "word": "sword", "stimulus": "/static/audio/wordpool/SWORD.wav", "conditions": [18, 1200, "a", 18000], "internal_node_id": "0.0-12.0", "trial": 0, "time_elapsed": 176665, "serialpos": 0, "key_press": -1, "wordID": 1422, "type": "PRES_AUD", "trial_index": 21}, "uniqueid": "MTK2672:386PBUZZXG4OF6BKKZVTCKRPARIJLS", "dateTime": 1519233138042}, {"current_trial": 22, "trialdata": {"rt": -1000, "trial_type": "single-audio", "word": "drug", "stimulus": "/static/audio/wordpool/DRUG.wav", "conditions": [18, 1200, "a", 18000], "internal_node_id": "0.0-13.0", "trial": 0, "time_elapsed": 178966, "serialpos": 1, "key_press": -1, "wordID": 500, "type": "PRES_AUD", "trial_index": 22}, "uniqueid": "MTK2672:386PBUZZXG4OF6BKKZVTCKRPARIJLS", "dateTime": 1519233140342}, {"current_trial": 23, "trialdata": {"rt": -1000, "trial_type": "single-audio", "word": "salt", "stimulus": "/static/audio/wordpool/SALT.wav", "conditions": [18, 1200, "a", 18000], "internal_node_id": "0.0-14.0", "trial": 0, "time_elapsed": 181114, "serialpos": 2, "key_press": -1, "wordID": 1228, "type": "PRES_AUD", "trial_index": 23}, "uniqueid": "MTK2672:386PBUZZXG4OF6BKKZVTCKRPARIJLS", "dateTime": 1519233142490}, {"current_trial": 24, "trialdata": {"rt": -1000, "trial_type": "single-audio", "word": "crevice", "stimulus": "/static/audio/wordpool/CREVICE.wav", "conditions": [18, 1200, "a", 18000], "internal_node_id": "0.0-15.0", "trial": 0, "time_elapsed": 183353, "serialpos": 3, "key_press": -1, "wordID": 404, "type": "PRES_AUD", "trial_index": 24}, "uniqueid": "MTK2672:386PBUZZXG4OF6BKKZVTCKRPARIJLS", "dateTime": 1519233144729}, {"current_trial": 25, "trialdata": {"rt": -1000, "trial_type": "single-audio", "word": "flag", "stimulus": "/static/audio/wordpool/FLAG.wav", "conditions": [18, 1200, "a", 18000], "internal_node_id": "0.0-16.0", "trial": 0, "time_elapsed": 185357, "serialpos": 4, "key_press": -1, "wordID": 572, "type": "PRES_AUD", "trial_index": 25}, "uniqueid": "MTK2672:386PBUZZXG4OF6BKKZVTCKRPARIJLS", "dateTime": 1519233146733}, {"current_trial": 26, "trialdata": {"rt": -1000, "trial_type": "single-audio", "word": "costume", "stimulus": "/static/audio/wordpool/COSTUME.wav", "conditions": [18, 1200, "a", 18000], "internal_node_id": "0.0-17.0", "trial": 0, "time_elapsed": 187404, "serialpos": 5, "key_press": -1, "wordID": 382, "type": "PRES_AUD", "trial_index": 26}, "uniqueid": "MTK2672:386PBUZZXG4OF6BKKZVTCKRPARIJLS", "dateTime": 1519233148780}, {"current_trial": 27, "trialdata": {"rt": -1000, "trial_type": "single-audio", "word": "japan", "stimulus": "/static/audio/wordpool/JAPAN.wav", "conditions": [18, 1200, "a", 18000], "internal_node_id": "0.0-18.0", "trial": 0, "time_elapsed": 189489, "serialpos": 6, "key_press": -1, "wordID": 748, "type": "PRES_AUD", "trial_index": 27}, "uniqueid": "MTK2672:386PBUZZXG4OF6BKKZVTCKRPARIJLS", "dateTime": 1519233150865}, {"current_trial": 28, "trialdata": {"rt": -1000, "trial_type": "single-audio", "word": "turkey", "stimulus": "/static/audio/wordpool/TURKEY.wav", "conditions": [18, 1200, "a", 18000], "internal_node_id": "0.0-19.0", "trial": 0, "time_elapsed": 191830, "serialpos": 7, "key_press": -1, "wordID": 1519, "type": "PRES_AUD", "trial_index": 28}, "uniqueid": "MTK2672:386PBUZZXG4OF6BKKZVTCKRPARIJLS", "dateTime": 1519233153206}, {"current_trial": 29, "trialdata": {"rt": -1000, "trial_type": "single-audio", "word": "cashew", "stimulus": "/static/audio/wordpool/CASHEW.wav", "conditions": [18, 1200, "a", 18000], "internal_node_id": "0.0-20.0", "trial": 0, "time_elapsed": 194212, "serialpos": 8, "key_press": -1, "wordID": 252, "type": "PRES_AUD", "trial_index": 29}, "uniqueid": "MTK2672:386PBUZZXG4OF6BKKZVTCKRPARIJLS", "dateTime": 1519233155589}, {"current_trial": 30, "trialdata": {"rt": -1000, "trial_type": "single-audio", "word": "garden", "stimulus": "/static/audio/wordpool/GARDEN.wav", "conditions": [18, 1200, "a", 18000], "internal_node_id": "0.0-21.0", "trial": 0, "time_elapsed": 196390, "serialpos": 9, "key_press": -1, "wordID": 622, "type": "PRES_AUD", "trial_index": 30}, "uniqueid": "MTK2672:386PBUZZXG4OF6BKKZVTCKRPARIJLS", "dateTime": 1519233157766}, {"current_trial": 31, "trialdata": {"rt": -1000, "trial_type": "single-audio", "word": "treat", "stimulus": "/static/audio/wordpool/TREAT.wav", "conditions": [18, 1200, "a", 18000], "internal_node_id": "0.0-22.0", "trial": 0, "time_elapsed": 198782, "serialpos": 10, "key_press": -1, "wordID": 1500, "type": "PRES_AUD", "trial_index": 31}, "uniqueid": "MTK2672:386PBUZZXG4OF6BKKZVTCKRPARIJLS", "dateTime": 1519233160158}, {"current_trial": 32, "trialdata": {"rt": -1000, "trial_type": "single-audio", "word": "wasp", "stimulus": "/static/audio/wordpool/WASP.wav", "conditions": [18, 1200, "a", 18000], "internal_node_id": "0.0-23.0", "trial": 0, "time_elapsed": 200946, "serialpos": 11, "key_press": -1, "wordID": 1592, "type": "PRES_AUD", "trial_index": 32}, "uniqueid": "MTK2672:386PBUZZXG4OF6BKKZVTCKRPARIJLS", "dateTime": 1519233162322}, {"current_trial": 33, "trialdata": {"rt": -1000, "trial_type": "single-audio", "word": "tablet", "stimulus": "/static/audio/wordpool/TABLET.wav", "conditions": [18, 1200, "a", 18000], "internal_node_id": "0.0-24.0", "trial": 0, "time_elapsed": 203283, "serialpos": 12, "key_press": -1, "wordID": 1426, "type": "PRES_AUD", "trial_index": 33}, "uniqueid": "MTK2672:386PBUZZXG4OF6BKKZVTCKRPARIJLS", "dateTime": 1519233164659}, {"current_trial": 34, "trialdata": {"rt": -1000, "trial_type": "single-audio", "word": "chipmunk", "stimulus": "/static/audio/wordpool/CHIPMUNK.wav", "conditions": [18, 1200, "a", 18000], "internal_node_id": "0.0-25.0", "trial": 0, "time_elapsed": 205308, "serialpos": 13, "key_press": -1, "wordID": 303, "type": "PRES_AUD", "trial_index": 34}, "uniqueid": "MTK2672:386PBUZZXG4OF6BKKZVTCKRPARIJLS", "dateTime": 1519233166684}, {"current_trial": 35, "trialdata": {"rt": -1000, "trial_type": "single-audio", "word": "ketchup", "stimulus": "/static/audio/wordpool/KETCHUP.wav", "conditions": [18, 1200, "a", 18000], "internal_node_id": "0.0-26.0", "trial": 0, "time_elapsed": 207366, "serialpos": 14, "key_press": -1, "wordID": 770, "type": "PRES_AUD", "trial_index": 35}, "uniqueid": "MTK2672:386PBUZZXG4OF6BKKZVTCKRPARIJLS", "dateTime": 1519233168743}, {"current_trial": 36, "trialdata": {"rt": -1000, "trial_type": "single-audio", "word": "film", "stimulus": "/static/audio/wordpool/FILM.wav", "conditions": [18, 1200, "a", 18000], "internal_node_id": "0.0-27.0", "trial": 0, "time_elapsed": 209451, "serialpos": 15, "key_press": -1, "wordID": 564, "type": "PRES_AUD", "trial_index": 36}, "uniqueid": "MTK2672:386PBUZZXG4OF6BKKZVTCKRPARIJLS", "dateTime": 1519233170827}, {"current_trial": 37, "trialdata": {"rt": -1000, "trial_type": "single-audio", "word": "cafe", "stimulus": "/static/audio/wordpool/CAFE.wav", "conditions": [18, 1200, "a", 18000], "internal_node_id": "0.0-28.0", "trial": 0, "time_elapsed": 211755, "serialpos": 16, "key_press": -1, "wordID": 215, "type": "PRES_AUD", "trial_index": 37}, "uniqueid": "MTK2672:386PBUZZXG4OF6BKKZVTCKRPARIJLS", "dateTime": 1519233173131}, {"current_trial": 38, "trialdata": {"rt": -1000, "trial_type": "single-audio", "word": "valve", "stimulus": "/static/audio/wordpool/VALVE.wav", "conditions": [18, 1200, "a", 18000], "internal_node_id": "0.0-29.0", "trial": 0, "time_elapsed": 214016, "serialpos": 17, "key_press": -1, "wordID": 1545, "type": "PRES_AUD", "trial_index": 38}, "uniqueid": "MTK2672:386PBUZZXG4OF6BKKZVTCKRPARIJLS", "dateTime": 1519233175392}, {"current_trial": 39, "trialdata": {"rt": -1, "trial_type": "single-stim", "stimulus": "", "internal_node_id": "0.0-30.0-0.0", "time_elapsed": 215295, "key_press": -1, "type": "PRE_RECALL_DELAY", "trial_index": 39}, "uniqueid": "MTK2672:386PBUZZXG4OF6BKKZVTCKRPARIJLS", "dateTime": 1519233176671}, {"current_trial": 40, "trialdata": {"rt": -1000, "trial_type": "single-audio", "stimulus": "/static/audio/400Hz.wav", "internal_node_id": "0.0-31.0", "time_elapsed": 215796, "key_press": -1, "type": "PRE_RECALL_ALERT", "trial_index": 40}, "uniqueid": "MTK2672:386PBUZZXG4OF6BKKZVTCKRPARIJLS", "dateTime": 1519233177172}, {"current_trial": 41, "trialdata": {"rt": [5999, 9224, 11090, 13055, 17542, 21021, 27908, 36797, 40170, 50654], "recwords": ["turkey", "crevice", "salt", "ketchup", "valve", "japan", "treat", "garden", "sword", "wasp"], "key_times": [2731, 2889, 3830, 3964, 4101, 5391, 5999, 6445, 6662, 6751, 7031, 7802, 8370, 8595, 8676, 8859, 9224, 9738, 9825, 9930, 10061, 10395, 10510, 11090, 11400, 11501, 11681, 12219, 12375, 12555, 12661, 13055, 16540, 16647, 16777, 16983, 17335, 17542, 20077, 20161, 20330, 20452, 20548, 20654, 21021, 27191, 27372, 27454, 27538, 27615, 27908, 35637, 35836, 35862, 36352, 36526, 36608, 36797, 39337, 39516, 39637, 39858, 40012, 40170, 49916, 50074, 50182, 50435, 50654], "trial_type": "free-recall", "conditions": [18, 1200, "a", 18000], "internal_node_id": "0.0-32.0-0.0", "key_presses": [84, 85, 82, 75, 69, 89, 13, 67, 82, 69, 86, 65, 8, 73, 67, 69, 13, 83, 65, 76, 69, 8, 84, 13, 75, 69, 84, 67, 72, 85, 80, 13, 86, 65, 76, 86, 69, 13, 16, 74, 65, 80, 65, 78, 13, 84, 82, 69, 65, 84, 13, 71, 65, 82, 68, 69, 78, 13, 83, 87, 79, 82, 68, 13, 87, 65, 83, 80, 13], "trial": 0, "time_elapsed": 275799, "type": "FREE_RECALL", "trial_index": 41}, "uniqueid": "MTK2672:386PBUZZXG4OF6BKKZVTCKRPARIJLS", "dateTime": 1519233237176}, {"current_trial": 42, "trialdata": {"rt": 6758, "trial_type": "text", "internal_node_id": "0.0-33.0", "time_elapsed": 284559, "key_press": 32, "type": "INSTRUCTIONS", "trial_index": 42}, "uniqueid": "MTK2672:386PBUZZXG4OF6BKKZVTCKRPARIJLS", "dateTime": 1519233245935}, {"current_trial": 43, "trialdata": {"rt": [3095, 5200, 8198, 10650, 12766, 15647, 17156], "trial_type": "math-distractor", "key_times": [2478, 2670, 3095, 4678, 4959, 5200, 7829, 8009, 8198, 10235, 10413, 10650, 12430, 12578, 12766, 15302, 15477, 15647, 16975, 17156], "responses": ["20", "16", "19", "17", "19", "19", "8"], "num2": [5, 6, 8, 7, 7, 9, 3, 2], "num3": [7, 5, 7, 7, 5, 7, 1, 3], "conditions": [18, 1200, "a", 18000], "internal_node_id": "0.0-34.0", "key_presses": [50, 48, 13, 49, 54, 13, 49, 57, 13, 49, 55, 13, 49, 57, 13, 49, 57, 13, 56, 13], "trial": 1, "time_elapsed": 304562, "type": "DISTRACTOR", "trial_index": 43, "num1": [8, 5, 4, 3, 7, 3, 4, 2]}, "uniqueid": "MTK2672:386PBUZZXG4OF6BKKZVTCKRPARIJLS", "dateTime": 1519233265938}, {"current_trial": 44, "trialdata": {"rt": -1, "trial_type": "single-stim", "stimulus": "<p id=\"stim\">10</p>", "internal_node_id": "0.0-35.0-0.0", "time_elapsed": 307563, "key_press": -1, "trial_index": 44}, "uniqueid": "MTK2672:386PBUZZXG4OF6BKKZVTCKRPARIJLS", "dateTime": 1519233268939}, {"current_trial": 45, "trialdata": {"rt": -1, "trial_type": "single-stim", "stimulus": "<p id=\"stim\">9</p>", "internal_node_id": "0.0-35.0-1.0", "time_elapsed": 308564, "key_press": -1, "trial_index": 45}, "uniqueid": "MTK2672:386PBUZZXG4OF6BKKZVTCKRPARIJLS", "dateTime": 1519233269940}, {"current_trial": 46, "trialdata": {"rt": -1, "trial_type": "single-stim", "stimulus": "<p id=\"stim\">8</p>", "internal_node_id": "0.0-35.0-2.0", "time_elapsed": 309566, "key_press": -1, "trial_index": 46}, "uniqueid": "MTK2672:386PBUZZXG4OF6BKKZVTCKRPARIJLS", "dateTime": 1519233270942}, {"current_trial": 47, "trialdata": {"rt": -1, "trial_type": "single-stim", "stimulus": "<p id=\"stim\">7</p>", "internal_node_id": "0.0-35.0-3.0", "time_elapsed": 310567, "key_press": -1, "trial_index": 47}, "uniqueid": "MTK2672:386PBUZZXG4OF6BKKZVTCKRPARIJLS", "dateTime": 1519233271943}, {"current_trial": 48, "trialdata": {"rt": -1, "trial_type": "single-stim", "stimulus": "<p id=\"stim\">6</p>", "internal_node_id": "0.0-35.0-4.0", "time_elapsed": 311568, "key_press": -1, "trial_index": 48}, "uniqueid": "MTK2672:386PBUZZXG4OF6BKKZVTCKRPARIJLS", "dateTime": 1519233272944}, {"current_trial": 49, "trialdata": {"rt": -1, "trial_type": "single-stim", "stimulus": "<p id=\"stim\">5</p>", "internal_node_id": "0.0-35.0-5.0", "time_elapsed": 312569, "key_press": -1, "trial_index": 49}, "uniqueid": "MTK2672:386PBUZZXG4OF6BKKZVTCKRPARIJLS", "dateTime": 1519233273945}, {"current_trial": 50, "trialdata": {"rt": -1, "trial_type": "single-stim", "stimulus": "<p id=\"stim\">4</p>", "internal_node_id": "0.0-35.0-6.0", "time_elapsed": 313570, "key_press": -1, "trial_index": 50}, "uniqueid": "MTK2672:386PBUZZXG4OF6BKKZVTCKRPARIJLS", "dateTime": 1519233274946}, {"current_trial": 51, "trialdata": {"rt": -1, "trial_type": "single-stim", "stimulus": "<p id=\"stim\">3</p>", "internal_node_id": "0.0-35.0-7.0", "time_elapsed": 314571, "key_press": -1, "trial_index": 51}, "uniqueid": "MTK2672:386PBUZZXG4OF6BKKZVTCKRPARIJLS", "dateTime": 1519233275947}, {"current_trial": 52, "trialdata": {"rt": -1, "trial_type": "single-stim", "stimulus": "<p id=\"stim\">2</p>", "internal_node_id": "0.0-35.0-8.0", "time_elapsed": 315574, "key_press": -1, "trial_index": 52}, "uniqueid": "MTK2672:386PBUZZXG4OF6BKKZVTCKRPARIJLS", "dateTime": 1519233276950}, {"current_trial": 53, "trialdata": {"rt": -1, "trial_type": "single-stim", "stimulus": "<p id=\"stim\">1</p>", "internal_node_id": "0.0-35.0-9.0", "time_elapsed": 316575, "key_press": -1, "trial_index": 53}, "uniqueid": "MTK2672:386PBUZZXG4OF6BKKZVTCKRPARIJLS", "dateTime": 1519233277951}, {"current_trial": 54, "trialdata": {"rt": -1, "trial_type": "single-stim", "stimulus": "<p id=\"stim\">+</p>", "internal_node_id": "0.0-36.0-0.0", "time_elapsed": 318076, "key_press": -1, "type": "FIXATION", "trial_index": 54}, "uniqueid": "MTK2672:386PBUZZXG4OF6BKKZVTCKRPARIJLS", "dateTime": 1519233279452}, {"current_trial": 55, "trialdata": {"rt": -1000, "trial_type": "single-audio", "word": "driver", "stimulus": "/static/audio/wordpool/DRIVER.wav", "conditions": [18, 1200, "a", 18000], "internal_node_id": "0.0-37.0", "trial": 1, "time_elapsed": 320148, "serialpos": 0, "key_press": -1, "wordID": 498, "type": "PRES_AUD", "trial_index": 55}, "uniqueid": "MTK2672:386PBUZZXG4OF6BKKZVTCKRPARIJLS", "dateTime": 1519233281524}, {"current_trial": 56, "trialdata": {"rt": -1000, "trial_type": "single-audio", "word": "passage", "stimulus": "/static/audio/wordpool/PASSAGE.wav", "conditions": [18, 1200, "a", 18000], "internal_node_id": "0.0-38.0", "trial": 1, "time_elapsed": 322431, "serialpos": 1, "key_press": -1, "wordID": 1018, "type": "PRES_AUD", "trial_index": 56}, "uniqueid": "MTK2672:386PBUZZXG4OF6BKKZVTCKRPARIJLS", "dateTime": 1519233283807}, {"current_trial": 57, "trialdata": {"rt": -1000, "trial_type": "single-audio", "word": "sphinx", "stimulus": "/static/audio/wordpool/SPHINX.wav", "conditions": [18, 1200, "a", 18000], "internal_node_id": "0.0-39.0", "trial": 1, "time_elapsed": 324771, "serialpos": 2, "key_press": -1, "wordID": 1348, "type": "PRES_AUD", "trial_index": 57}, "uniqueid": "MTK2672:386PBUZZXG4OF6BKKZVTCKRPARIJLS", "dateTime": 1519233286147}, {"current_trial": 58, "trialdata": {"rt": -1000, "trial_type": "single-audio", "word": "package", "stimulus": "/static/audio/wordpool/PACKAGE.wav", "conditions": [18, 1200, "a", 18000], "internal_node_id": "0.0-40.0", "trial": 1, "time_elapsed": 326947, "serialpos": 3, "key_press": -1, "wordID": 996, "type": "PRES_AUD", "trial_index": 58}, "uniqueid": "MTK2672:386PBUZZXG4OF6BKKZVTCKRPARIJLS", "dateTime": 1519233288324}, {"current_trial": 59, "trialdata": {"rt": -1000, "trial_type": "single-audio", "word": "donkey", "stimulus": "/static/audio/wordpool/DONKEY.wav", "conditions": [18, 1200, "a", 18000], "internal_node_id": "0.0-41.0", "trial": 1, "time_elapsed": 329040, "serialpos": 4, "key_press": -1, "wordID": 483, "type": "PRES_AUD", "trial_index": 59}, "uniqueid": "MTK2672:386PBUZZXG4OF6BKKZVTCKRPARIJLS", "dateTime": 1519233290416}, {"current_trial": 60, "trialdata": {"rt": -1000, "trial_type": "single-audio", "word": "cocktail", "stimulus": "/static/audio/wordpool/COCKTAIL.wav", "conditions": [18, 1200, "a", 18000], "internal_node_id": "0.0-42.0", "trial": 1, "time_elapsed": 331432, "serialpos": 5, "key_press": -1, "wordID": 337, "type": "PRES_AUD", "trial_index": 60}, "uniqueid": "MTK2672:386PBUZZXG4OF6BKKZVTCKRPARIJLS", "dateTime": 1519233292808}, {"current_trial": 61, "trialdata": {"rt": -1000, "trial_type": "single-audio", "word": "asia", "stimulus": "/static/audio/wordpool/ASIA.wav", "conditions": [18, 1200, "a", 18000], "internal_node_id": "0.0-43.0", "trial": 1, "time_elapsed": 333436, "serialpos": 6, "key_press": -1, "wordID": 45, "type": "PRES_AUD", "trial_index": 61}, "uniqueid": "MTK2672:386PBUZZXG4OF6BKKZVTCKRPARIJLS", "dateTime": 1519233294812}, {"current_trial": 62, "trialdata": {"rt": -1000, "trial_type": "single-audio", "word": "stallion", "stimulus": "/static/audio/wordpool/STALLION.wav", "conditions": [18, 1200, "a", 18000], "internal_node_id": "0.0-44.0", "trial": 1, "time_elapsed": 335832, "serialpos": 7, "key_press": -1, "wordID": 1368, "type": "PRES_AUD", "trial_index": 62}, "uniqueid": "MTK2672:386PBUZZXG4OF6BKKZVTCKRPARIJLS", "dateTime": 1519233297208}, {"current_trial": 63, "trialdata": {"rt": -1000, "trial_type": "single-audio", "word": "summit", "stimulus": "/static/audio/wordpool/SUMMIT.wav", "conditions": [18, 1200, "a", 18000], "internal_node_id": "0.0-45.0", "trial": 1, "time_elapsed": 338057, "serialpos": 8, "key_press": -1, "wordID": 1404, "type": "PRES_AUD", "trial_index": 63}, "uniqueid": "MTK2672:386PBUZZXG4OF6BKKZVTCKRPARIJLS", "dateTime": 1519233299433}, {"current_trial": 64, "trialdata": {"rt": -1000, "trial_type": "single-audio", "word": "outfit", "stimulus": "/static/audio/wordpool/OUTFIT.wav", "conditions": [18, 1200, "a", 18000], "internal_node_id": "0.0-46.0", "trial": 1, "time_elapsed": 340365, "serialpos": 9, "key_press": -1, "wordID": 987, "type": "PRES_AUD", "trial_index": 64}, "uniqueid": "MTK2672:386PBUZZXG4OF6BKKZVTCKRPARIJLS", "dateTime": 1519233301741}, {"current_trial": 65, "trialdata": {"rt": -1000, "trial_type": "single-audio", "word": "silk", "stimulus": "/static/audio/wordpool/SILK.wav", "conditions": [18, 1200, "a", 18000], "internal_node_id": "0.0-47.0", "trial": 1, "time_elapsed": 342731, "serialpos": 10, "key_press": -1, "wordID": 1306, "type": "PRES_AUD", "trial_index": 65}, "uniqueid": "MTK2672:386PBUZZXG4OF6BKKZVTCKRPARIJLS", "dateTime": 1519233304108}, {"current_trial": 66, "trialdata": {"rt": -1000, "trial_type": "single-audio", "word": "wagon", "stimulus": "/static/audio/wordpool/WAGON.wav", "conditions": [18, 1200, "a", 18000], "internal_node_id": "0.0-48.0", "trial": 1, "time_elapsed": 344785, "serialpos": 11, "key_press": -1, "wordID": 1577, "type": "PRES_AUD", "trial_index": 66}, "uniqueid": "MTK2672:386PBUZZXG4OF6BKKZVTCKRPARIJLS", "dateTime": 1519233306161}, {"current_trial": 67, "trialdata": {"rt": -1000, "trial_type": "single-audio", "word": "wife", "stimulus": "/static/audio/wordpool/WIFE.wav", "conditions": [18, 1200, "a", 18000], "internal_node_id": "0.0-49.0", "trial": 1, "time_elapsed": 347014, "serialpos": 12, "key_press": -1, "wordID": 1608, "type": "PRES_AUD", "trial_index": 67}, "uniqueid": "MTK2672:386PBUZZXG4OF6BKKZVTCKRPARIJLS", "dateTime": 1519233308390}, {"current_trial": 68, "trialdata": {"rt": -1000, "trial_type": "single-audio", "word": "beaker", "stimulus": "/static/audio/wordpool/BEAKER.wav", "conditions": [18, 1200, "a", 18000], "internal_node_id": "0.0-50.0", "trial": 1, "time_elapsed": 349173, "serialpos": 13, "key_press": -1, "wordID": 103, "type": "PRES_AUD", "trial_index": 68}, "uniqueid": "MTK2672:386PBUZZXG4OF6BKKZVTCKRPARIJLS", "dateTime": 1519233310551}, {"current_trial": 69, "trialdata": {"rt": -1000, "trial_type": "single-audio", "word": "jello", "stimulus": "/static/audio/wordpool/JELLO.wav", "conditions": [18, 1200, "a", 18000], "internal_node_id": "0.0-51.0", "trial": 1, "time_elapsed": 351483, "serialpos": 14, "key_press": -1, "wordID": 753, "type": "PRES_AUD", "trial_index": 69}, "uniqueid": "MTK2672:386PBUZZXG4OF6BKKZVTCKRPARIJLS", "dateTime": 1519233312859}, {"current_trial": 70, "trialdata": {"rt": -1000, "trial_type": "single-audio", "word": "box", "stimulus": "/static/audio/wordpool/BOX.wav", "conditions": [18, 1200, "a", 18000], "internal_node_id": "0.0-52.0", "trial": 1, "time_elapsed": 353570, "serialpos": 15, "key_press": -1, "wordID": 158, "type": "PRES_AUD", "trial_index": 70}, "uniqueid": "MTK2672:386PBUZZXG4OF6BKKZVTCKRPARIJLS", "dateTime": 1519233314946}, {"current_trial": 71, "trialdata": {"rt": -1000, "trial_type": "single-audio", "word": "beast", "stimulus": "/static/audio/wordpool/BEAST.wav", "conditions": [18, 1200, "a", 18000], "internal_node_id": "0.0-53.0", "trial": 1, "time_elapsed": 355775, "serialpos": 16, "key_press": -1, "wordID": 107, "type": "PRES_AUD", "trial_index": 71}, "uniqueid": "MTK2672:386PBUZZXG4OF6BKKZVTCKRPARIJLS", "dateTime": 1519233317151}, {"current_trial": 72, "trialdata": {"rt": -1000, "trial_type": "single-audio", "word": "banjo", "stimulus": "/static/audio/wordpool/BANJO.wav", "conditions": [18, 1200, "a", 18000], "internal_node_id": "0.0-54.0", "trial": 1, "time_elapsed": 358009, "serialpos": 17, "key_press": -1, "wordID": 81, "type": "PRES_AUD", "trial_index": 72}, "uniqueid": "MTK2672:386PBUZZXG4OF6BKKZVTCKRPARIJLS", "dateTime": 1519233319385}, {"current_trial": 73, "trialdata": {"rt": -1, "trial_type": "single-stim", "stimulus": "", "internal_node_id": "0.0-55.0-0.0", "time_elapsed": 359323, "key_press": -1, "type": "PRE_RECALL_DELAY", "trial_index": 73}, "uniqueid": "MTK2672:386PBUZZXG4OF6BKKZVTCKRPARIJLS", "dateTime": 1519233320699}, {"current_trial": 74, "trialdata": {"rt": -1000, "trial_type": "single-audio", "stimulus": "/static/audio/400Hz.wav", "internal_node_id": "0.0-56.0", "time_elapsed": 359824, "key_press": -1, "type": "PRE_RECALL_ALERT", "trial_index": 74}, "uniqueid": "MTK2672:386PBUZZXG4OF6BKKZVTCKRPARIJLS", "dateTime": 1519233321200}, {"current_trial": 75, "trialdata": {"rt": [2007, 4013, 4844, 6318, 7655, 10588, 13626, 16036, 22920], "recwords": ["banjo", "beast", "box", "asia", "summit", "sphinx", "wife", "stallion", "cocktail"], "key_times": [508, 714, 1068, 1268, 1390, 2007, 2778, 2957, 3126, 3615, 3745, 4013, 4298, 4410, 4547, 4844, 5655, 5699, 5889, 6026, 6093, 6318, 6705, 6818, 7032, 7154, 7260, 7344, 7655, 9461, 9509, 9637, 9773, 9889, 10207, 10366, 10588, 12803, 12942, 13026, 13124, 13626, 14792, 15010, 15202, 15313, 15437, 15609, 15696, 15820, 16036, 21839, 21928, 22046, 22160, 22413, 22549, 22645, 22722, 22920, 27272, 27641], "trial_type": "free-recall", "conditions": [18, 1200, "a", 18000], "internal_node_id": "0.0-57.0-0.0", "key_presses": [66, 65, 78, 74, 79, 13, 66, 69, 65, 83, 84, 13, 66, 79, 88, 13, 16, 65, 83, 73, 65, 13, 83, 85, 77, 77, 73, 84, 13, 16, 83, 80, 72, 73, 78, 88, 13, 87, 73, 70, 69, 13, 83, 84, 65, 76, 76, 73, 79, 78, 13, 67, 79, 67, 75, 84, 65, 73, 76, 13, 66, 8], "trial": 1, "time_elapsed": 419826, "type": "FREE_RECALL", "trial_index": 75}, "uniqueid": "MTK2672:386PBUZZXG4OF6BKKZVTCKRPARIJLS", "dateTime": 1519233381204}, {"current_trial": 76, "trialdata": {"rt": 8922, "trial_type": "text", "internal_node_id": "0.0-58.0", "time_elapsed": 430751, "key_press": 32, "type": "INSTRUCTIONS", "trial_index": 76}, "uniqueid": "MTK2672:386PBUZZXG4OF6BKKZVTCKRPARIJLS", "dateTime": 1519233392127}, {"current_trial": 77, "trialdata": {"rt": [2016, 3986, 6008, 7589, 10198, 12418, 14457, 16763, 18429, 20977, 22648], "trial_type": "math-distractor", "key_times": [1780, 1836, 2016, 3606, 3766, 3986, 5781, 5835, 6008, 7240, 7412, 7589, 9801, 9906, 10198, 12104, 12247, 12418, 14129, 14316, 14457, 16429, 16623, 16763, 18154, 18284, 18429, 20548, 20819, 20977, 22341, 22499, 22648], "responses": ["13", "18", "21", "19", "13", "19", "14", "14", "11", "15", "11"], "num2": [7, 7, 3, 5, 5, 8, 2, 5, 1, 7, 4, 8], "num3": [1, 2, 9, 5, 6, 5, 8, 2, 8, 3, 2, 7], "conditions": [24, 1600, "a", 24000], "internal_node_id": "0.0-59.0", "key_presses": [49, 51, 13, 49, 56, 13, 50, 49, 13, 49, 57, 13, 49, 51, 13, 49, 57, 13, 49, 52, 13, 49, 52, 13, 49, 49, 13, 49, 53, 13, 49, 49, 13], "trial": 2, "time_elapsed": 455755, "type": "DISTRACTOR", "trial_index": 77, "num1": [5, 9, 9, 9, 2, 6, 4, 7, 2, 5, 5, 4]}, "uniqueid": "MTK2672:386PBUZZXG4OF6BKKZVTCKRPARIJLS", "dateTime": 1519233417131}, {"current_trial": 78, "trialdata": {"rt": -1, "trial_type": "single-stim", "stimulus": "<p id=\"stim\">10</p>", "internal_node_id": "0.0-60.0-0.0", "time_elapsed": 458758, "key_press": -1, "trial_index": 78}, "uniqueid": "MTK2672:386PBUZZXG4OF6BKKZVTCKRPARIJLS", "dateTime": 1519233420134}, {"current_trial": 79, "trialdata": {"rt": -1, "trial_type": "single-stim", "stimulus": "<p id=\"stim\">9</p>", "internal_node_id": "0.0-60.0-1.0", "time_elapsed": 459759, "key_press": -1, "trial_index": 79}, "uniqueid": "MTK2672:386PBUZZXG4OF6BKKZVTCKRPARIJLS", "dateTime": 1519233421136}, {"current_trial": 80, "trialdata": {"rt": -1, "trial_type": "single-stim", "stimulus": "<p id=\"stim\">8</p>", "internal_node_id": "0.0-60.0-2.0", "time_elapsed": 460760, "key_press": -1, "trial_index": 80}, "uniqueid": "MTK2672:386PBUZZXG4OF6BKKZVTCKRPARIJLS", "dateTime": 1519233422136}, {"current_trial": 81, "trialdata": {"rt": -1, "trial_type": "single-stim", "stimulus": "<p id=\"stim\">7</p>", "internal_node_id": "0.0-60.0-3.0", "time_elapsed": 461761, "key_press": -1, "trial_index": 81}, "uniqueid": "MTK2672:386PBUZZXG4OF6BKKZVTCKRPARIJLS", "dateTime": 1519233423137}, {"current_trial": 82, "trialdata": {"rt": -1, "trial_type": "single-stim", "stimulus": "<p id=\"stim\">6</p>", "internal_node_id": "0.0-60.0-4.0", "time_elapsed": 462762, "key_press": -1, "trial_index": 82}, "uniqueid": "MTK2672:386PBUZZXG4OF6BKKZVTCKRPARIJLS", "dateTime": 1519233424138}, {"current_trial": 83, "trialdata": {"rt": -1, "trial_type": "single-stim", "stimulus": "<p id=\"stim\">5</p>", "internal_node_id": "0.0-60.0-5.0", "time_elapsed": 463764, "key_press": -1, "trial_index": 83}, "uniqueid": "MTK2672:386PBUZZXG4OF6BKKZVTCKRPARIJLS", "dateTime": 1519233425140}, {"current_trial": 84, "trialdata": {"rt": -1, "trial_type": "single-stim", "stimulus": "<p id=\"stim\">4</p>", "internal_node_id": "0.0-60.0-6.0", "time_elapsed": 464765, "key_press": -1, "trial_index": 84}, "uniqueid": "MTK2672:386PBUZZXG4OF6BKKZVTCKRPARIJLS", "dateTime": 1519233426142}, {"current_trial": 85, "trialdata": {"rt": -1, "trial_type": "single-stim", "stimulus": "<p id=\"stim\">3</p>", "internal_node_id": "0.0-60.0-7.0", "time_elapsed": 465767, "key_press": -1, "trial_index": 85}, "uniqueid": "MTK2672:386PBUZZXG4OF6BKKZVTCKRPARIJLS", "dateTime": 1519233427143}, {"current_trial": 86, "trialdata": {"rt": -1, "trial_type": "single-stim", "stimulus": "<p id=\"stim\">2</p>", "internal_node_id": "0.0-60.0-8.0", "time_elapsed": 466768, "key_press": -1, "trial_index": 86}, "uniqueid": "MTK2672:386PBUZZXG4OF6BKKZVTCKRPARIJLS", "dateTime": 1519233428144}, {"current_trial": 87, "trialdata": {"rt": -1, "trial_type": "single-stim", "stimulus": "<p id=\"stim\">1</p>", "internal_node_id": "0.0-60.0-9.0", "time_elapsed": 467770, "key_press": -1, "trial_index": 87}, "uniqueid": "MTK2672:386PBUZZXG4OF6BKKZVTCKRPARIJLS", "dateTime": 1519233429146}, {"current_trial": 88, "trialdata": {"rt": -1, "trial_type": "single-stim", "stimulus": "<p id=\"stim\">+</p>", "internal_node_id": "0.0-61.0-0.0", "time_elapsed": 469271, "key_press": -1, "type": "FIXATION", "trial_index": 88}, "uniqueid": "MTK2672:386PBUZZXG4OF6BKKZVTCKRPARIJLS", "dateTime": 1519233430647}, {"current_trial": 89, "trialdata": {"rt": -1000, "trial_type": "single-audio", "word": "brick", "stimulus": "/static/audio/wordpool/BRICK.wav", "conditions": [24, 1600, "a", 24000], "internal_node_id": "0.0-62.0", "trial": 2, "time_elapsed": 471951, "serialpos": 0, "key_press": -1, "wordID": 171, "type": "PRES_AUD", "trial_index": 89}, "uniqueid": "MTK2672:386PBUZZXG4OF6BKKZVTCKRPARIJLS", "dateTime": 1519233433327}, {"current_trial": 90, "trialdata": {"rt": -1000, "trial_type": "single-audio", "word": "lace", "stimulus": "/static/audio/wordpool/LACE.wav", "conditions": [24, 1600, "a", 24000], "internal_node_id": "0.0-63.0", "trial": 2, "time_elapsed": 474502, "serialpos": 1, "key_press": -1, "wordID": 791, "type": "PRES_AUD", "trial_index": 90}, "uniqueid": "MTK2672:386PBUZZXG4OF6BKKZVTCKRPARIJLS", "dateTime": 1519233435878}, {"current_trial": 91, "trialdata": {"rt": -1000, "trial_type": "single-audio", "word": "dress", "stimulus": "/static/audio/wordpool/DRESS.wav", "conditions": [24, 1600, "a", 24000], "internal_node_id": "0.0-64.0", "trial": 2, "time_elapsed": 477208, "serialpos": 2, "key_press": -1, "wordID": 494, "type": "PRES_AUD", "trial_index": 91}, "uniqueid": "MTK2672:386PBUZZXG4OF6BKKZVTCKRPARIJLS", "dateTime": 1519233438585}, {"current_trial": 92, "trialdata": {"rt": -1000, "trial_type": "single-audio", "word": "tutu", "stimulus": "/static/audio/wordpool/TUTU.wav", "conditions": [24, 1600, "a", 24000], "internal_node_id": "0.0-65.0", "trial": 2, "time_elapsed": 479905, "serialpos": 3, "key_press": -1, "wordID": 1523, "type": "PRES_AUD", "trial_index": 92}, "uniqueid": "MTK2672:386PBUZZXG4OF6BKKZVTCKRPARIJLS", "dateTime": 1519233441281}, {"current_trial": 93, "trialdata": {"rt": -1000, "trial_type": "single-audio", "word": "bison", "stimulus": "/static/audio/wordpool/BISON.wav", "conditions": [24, 1600, "a", 24000], "internal_node_id": "0.0-66.0", "trial": 2, "time_elapsed": 482385, "serialpos": 4, "key_press": -1, "wordID": 130, "type": "PRES_AUD", "trial_index": 93}, "uniqueid": "MTK2672:386PBUZZXG4OF6BKKZVTCKRPARIJLS", "dateTime": 1519233443761}, {"current_trial": 94, "trialdata": {"rt": -1000, "trial_type": "single-audio", "word": "glove", "stimulus": "/static/audio/wordpool/GLOVE.wav", "conditions": [24, 1600, "a", 24000], "internal_node_id": "0.0-67.0", "trial": 2, "time_elapsed": 485095, "serialpos": 5, "key_press": -1, "wordID": 641, "type": "PRES_AUD", "trial_index": 94}, "uniqueid": "MTK2672:386PBUZZXG4OF6BKKZVTCKRPARIJLS", "dateTime": 1519233446471}, {"current_trial": 95, "trialdata": {"rt": -1000, "trial_type": "single-audio", "word": "eyelash", "stimulus": "/static/audio/wordpool/EYELASH.wav", "conditions": [24, 1600, "a", 24000], "internal_node_id": "0.0-68.0", "trial": 2, "time_elapsed": 487771, "serialpos": 6, "key_press": -1, "wordID": 545, "type": "PRES_AUD", "trial_index": 95}, "uniqueid": "MTK2672:386PBUZZXG4OF6BKKZVTCKRPARIJLS", "dateTime": 1519233449148}, {"current_trial": 96, "trialdata": {"rt": -1000, "trial_type": "single-audio", "word": "garlic", "stimulus": "/static/audio/wordpool/GARLIC.wav", "conditions": [24, 1600, "a", 24000], "internal_node_id": "0.0-69.0", "trial": 2, "time_elapsed": 490458, "serialpos": 7, "key_press": -1, "wordID": 623, "type": "PRES_AUD", "trial_index": 96}, "uniqueid": "MTK2672:386PBUZZXG4OF6BKKZVTCKRPARIJLS", "dateTime": 1519233451835}, {"current_trial": 97, "trialdata": {"rt": -1000, "trial_type": "single-audio", "word": "servant", "stimulus": "/static/audio/wordpool/SERVANT.wav", "conditions": [24, 1600, "a", 24000], "internal_node_id": "0.0-70.0", "trial": 2, "time_elapsed": 493167, "serialpos": 8, "key_press": -1, "wordID": 1270, "type": "PRES_AUD", "trial_index": 97}, "uniqueid": "MTK2672:386PBUZZXG4OF6BKKZVTCKRPARIJLS", "dateTime": 1519233454543}, {"current_trial": 98, "trialdata": {"rt": -1000, "trial_type": "single-audio", "word": "tile", "stimulus": "/static/audio/wordpool/TILE.wav", "conditions": [24, 1600, "a", 24000], "internal_node_id": "0.0-71.0", "trial": 2, "time_elapsed": 495944, "serialpos": 9, "key_press": -1, "wordID": 1467, "type": "PRES_AUD", "trial_index": 98}, "uniqueid": "MTK2672:386PBUZZXG4OF6BKKZVTCKRPARIJLS", "dateTime": 1519233457320}, {"current_trial": 99, "trialdata": {"rt": -1000, "trial_type": "single-audio", "word": "lunch", "stimulus": "/static/audio/wordpool/LUNCH.wav", "conditions": [24, 1600, "a", 24000], "internal_node_id": "0.0-72.0", "trial": 2, "time_elapsed": 498450, "serialpos": 10, "key_press": -1, "wordID": 848, "type": "PRES_AUD", "trial_index": 99}, "uniqueid": "MTK2672:386PBUZZXG4OF6BKKZVTCKRPARIJLS", "dateTime": 1519233459826}, {"current_trial": 100, "trialdata": {"rt": -1000, "trial_type": "single-audio", "word": "lipstick", "stimulus": "/static/audio/wordpool/LIPSTICK.wav", "conditions": [24, 1600, "a", 24000], "internal_node_id": "0.0-73.0", "trial": 2, "time_elapsed": 501171, "serialpos": 11, "key_press": -1, "wordID": 828, "type": "PRES_AUD", "trial_index": 100}, "uniqueid": "MTK2672:386PBUZZXG4OF6BKKZVTCKRPARIJLS", "dateTime": 1519233462547}, {"current_trial": 101, "trialdata": {"rt": -1000, "trial_type": "single-audio", "word": "clothes", "stimulus": "/static/audio/wordpool/CLOTHES.wav", "conditions": [24, 1600, "a", 24000], "internal_node_id": "0.0-74.0", "trial": 2, "time_elapsed": 503898, "serialpos": 12, "key_press": -1, "wordID": 326, "type": "PRES_AUD", "trial_index": 101}, "uniqueid": "MTK2672:386PBUZZXG4OF6BKKZVTCKRPARIJLS", "dateTime": 1519233465274}, {"current_trial": 102, "trialdata": {"rt": -1000, "trial_type": "single-audio", "word": "nightgown", "stimulus": "/static/audio/wordpool/NIGHTGOWN.wav", "conditions": [24, 1600, "a", 24000], "internal_node_id": "0.0-75.0", "trial": 2, "time_elapsed": 506425, "serialpos": 13, "key_press": -1, "wordID": 952, "type": "PRES_AUD", "trial_index": 102}, "uniqueid": "MTK2672:386PBUZZXG4OF6BKKZVTCKRPARIJLS", "dateTime": 1519233467801}, {"current_trial": 103, "trialdata": {"rt": -1000, "trial_type": "single-audio", "word": "perch", "stimulus": "/static/audio/wordpool/PERCH.wav", "conditions": [24, 1600, "a", 24000], "internal_node_id": "0.0-76.0", "trial": 2, "time_elapsed": 509065, "serialpos": 14, "key_press": -1, "wordID": 1047, "type": "PRES_AUD", "trial_index": 103}, "uniqueid": "MTK2672:386PBUZZXG4OF6BKKZVTCKRPARIJLS", "dateTime": 1519233470441}, {"current_trial": 104, "trialdata": {"rt": -1000, "trial_type": "single-audio", "word": "lava", "stimulus": "/static/audio/wordpool/LAVA.wav", "conditions": [24, 1600, "a", 24000], "internal_node_id": "0.0-77.0", "trial": 2, "time_elapsed": 511830, "serialpos": 15, "key_press": -1, "wordID": 803, "type": "PRES_AUD", "trial_index": 104}, "uniqueid": "MTK2672:386PBUZZXG4OF6BKKZVTCKRPARIJLS", "dateTime": 1519233473206}, {"current_trial": 105, "trialdata": {"rt": -1000, "trial_type": "single-audio", "word": "trench", "stimulus": "/static/audio/wordpool/TRENCH.wav", "conditions": [24, 1600, "a", 24000], "internal_node_id": "0.0-78.0", "trial": 2, "time_elapsed": 514496, "serialpos": 16, "key_press": -1, "wordID": 1502, "type": "PRES_AUD", "trial_index": 105}, "uniqueid": "MTK2672:386PBUZZXG4OF6BKKZVTCKRPARIJLS", "dateTime": 1519233475872}, {"current_trial": 106, "trialdata": {"rt": -1000, "trial_type": "single-audio", "word": "beef", "stimulus": "/static/audio/wordpool/BEEF.wav", "conditions": [24, 1600, "a", 24000], "internal_node_id": "0.0-79.0", "trial": 2, "time_elapsed": 517082, "serialpos": 17, "key_press": -1, "wordID": 112, "type": "PRES_AUD", "trial_index": 106}, "uniqueid": "MTK2672:386PBUZZXG4OF6BKKZVTCKRPARIJLS", "dateTime": 1519233478458}, {"current_trial": 107, "trialdata": {"rt": -1000, "trial_type": "single-audio", "word": "gazelle", "stimulus": "/static/audio/wordpool/GAZELLE.wav", "conditions": [24, 1600, "a", 24000], "internal_node_id": "0.0-80.0", "trial": 2, "time_elapsed": 519859, "serialpos": 18, "key_press": -1, "wordID": 627, "type": "PRES_AUD", "trial_index": 107}, "uniqueid": "MTK2672:386PBUZZXG4OF6BKKZVTCKRPARIJLS", "dateTime": 1519233481236}, {"current_trial": 108, "trialdata": {"rt": -1000, "trial_type": "single-audio", "word": "robot", "stimulus": "/static/audio/wordpool/ROBOT.wav", "conditions": [24, 1600, "a", 24000], "internal_node_id": "0.0-81.0", "trial": 2, "time_elapsed": 522539, "serialpos": 19, "key_press": -1, "wordID": 1199, "type": "PRES_AUD", "trial_index": 108}, "uniqueid": "MTK2672:386PBUZZXG4OF6BKKZVTCKRPARIJLS", "dateTime": 1519233483915}, {"current_trial": 109, "trialdata": {"rt": -1000, "trial_type": "single-audio", "word": "sunrise", "stimulus": "/static/audio/wordpool/SUNRISE.wav", "conditions": [24, 1600, "a", 24000], "internal_node_id": "0.0-82.0", "trial": 2, "time_elapsed": 525092, "serialpos": 20, "key_press": -1, "wordID": 1406, "type": "PRES_AUD", "trial_index": 109}, "uniqueid": "MTK2672:386PBUZZXG4OF6BKKZVTCKRPARIJLS", "dateTime": 1519233486468}, {"current_trial": 110, "trialdata": {"rt": -1000, "trial_type": "single-audio", "word": "slime", "stimulus": "/static/audio/wordpool/SLIME.wav", "conditions": [24, 1600, "a", 24000], "internal_node_id": "0.0-83.0", "trial": 2, "time_elapsed": 527658, "serialpos": 21, "key_press": -1, "wordID": 1326, "type": "PRES_AUD", "trial_index": 110}, "uniqueid": "MTK2672:386PBUZZXG4OF6BKKZVTCKRPARIJLS", "dateTime": 1519233489034}, {"current_trial": 111, "trialdata": {"rt": -1000, "trial_type": "single-audio", "word": "harp", "stimulus": "/static/audio/wordpool/HARP.wav", "conditions": [24, 1600, "a", 24000], "internal_node_id": "0.0-84.0", "trial": 2, "time_elapsed": 530299, "serialpos": 22, "key_press": -1, "wordID": 688, "type": "PRES_AUD", "trial_index": 111}, "uniqueid": "MTK2672:386PBUZZXG4OF6BKKZVTCKRPARIJLS", "dateTime": 1519233491676}, {"current_trial": 112, "trialdata": {"rt": -1000, "trial_type": "single-audio", "word": "pork", "stimulus": "/static/audio/wordpool/PORK.wav", "conditions": [24, 1600, "a", 24000], "internal_node_id": "0.0-85.0", "trial": 2, "time_elapsed": 533017, "serialpos": 23, "key_press": -1, "wordID": 1107, "type": "PRES_AUD", "trial_index": 112}, "uniqueid": "MTK2672:386PBUZZXG4OF6BKKZVTCKRPARIJLS", "dateTime": 1519233494393}, {"current_trial": 113, "trialdata": {"rt": -1, "trial_type": "single-stim", "stimulus": "", "internal_node_id": "0.0-86.0-0.0", "time_elapsed": 534330, "key_press": -1, "type": "PRE_RECALL_DELAY", "trial_index": 113}, "uniqueid": "MTK2672:386PBUZZXG4OF6BKKZVTCKRPARIJLS", "dateTime": 1519233495706}, {"current_trial": 114, "trialdata": {"rt": -1000, "trial_type": "single-audio", "stimulus": "/static/audio/400Hz.wav", "internal_node_id": "0.0-87.0", "time_elapsed": 534832, "key_press": -1, "type": "PRE_RECALL_ALERT", "trial_index": 114}, "uniqueid": "MTK2672:386PBUZZXG4OF6BKKZVTCKRPARIJLS", "dateTime": 1519233496209}, {"current_trial": 115, "trialdata": {"rt": [1180, 2289, 4023, 5705, 6718, 7667, 10707, 20514, 24620, 30166, 37173, 50601, 52866], "recwords": ["pork", "bison", "gazelle", "sunrise", "lunch", "garlic", "lace", "clothes", "servant", "brick", "harp", "lava", "trench"], "key_times": [458, 539, 778, 936, 1180, 1469, 1612, 1760, 1855, 1952, 2289, 2685, 2853, 3054, 3221, 3322, 3464, 3594, 4023, 4711, 4806, 5010, 5187, 5270, 5409, 5472, 5705, 5990, 6107, 6349, 6445, 6530, 6718, 6824, 7018, 7079, 7198, 7293, 7441, 7667, 10195, 10253, 10429, 10583, 10707, 19209, 19625, 19730, 19911, 20016, 20132, 20242, 20316, 20514, 23748, 23830, 23928, 24150, 24279, 24406, 24498, 24620, 29478, 29670, 29747, 29895, 29977, 30166, 36642, 36766, 36835, 36940, 37173, 50021, 50140, 50296, 50455, 50601, 51749, 51934, 52021, 52431, 52588, 52690, 52866], "trial_type": "free-recall", "conditions": [24, 1600, "a", 24000], "internal_node_id": "0.0-88.0-0.0", "key_presses": [80, 79, 82, 75, 13, 66, 73, 83, 79, 78, 13, 71, 65, 90, 69, 76, 76, 69, 13, 83, 85, 78, 82, 73, 83, 69, 13, 76, 85, 78, 67, 72, 13, 71, 65, 82, 76, 73, 67, 13, 76, 65, 67, 69, 13, 8, 67, 76, 79, 84, 72, 69, 83, 13, 83, 69, 82, 86, 65, 78, 84, 13, 66, 82, 73, 67, 75, 13, 72, 65, 82, 80, 13, 76, 65, 86, 65, 13, 84, 82, 69, 78, 67, 72, 13], "trial": 2, "time_elapsed": 594835, "type": "FREE_RECALL", "trial_index": 115}, "uniqueid": "MTK2672:386PBUZZXG4OF6BKKZVTCKRPARIJLS", "dateTime": 1519233556213}, {"current_trial": 116, "trialdata": {"rt": 986, "trial_type": "text", "internal_node_id": "0.0-89.0", "time_elapsed": 597824, "key_press": 32, "type": "INSTRUCTIONS", "trial_index": 116}, "uniqueid": "MTK2672:386PBUZZXG4OF6BKKZVTCKRPARIJLS", "dateTime": 1519233559200}, {"current_trial": 117, "trialdata": {"rt": [1968, 3756, 5902, 7658, 9130, 11215], "trial_type": "math-distractor", "key_times": [1765, 1968, 3505, 3756, 5330, 5712, 5902, 7438, 7499, 7658, 8949, 9130, 10682, 11012, 11215], "responses": ["8", "7", "16", "12", "9", "16"], "num2": [3, 2, 9, 1, 1, 3, 2], "num3": [3, 2, 4, 6, 4, 7, 9], "conditions": [12, 1600, "a", 12000], "internal_node_id": "0.0-90.0", "key_presses": [56, 13, 55, 13, 49, 54, 13, 49, 50, 13, 57, 13, 49, 54, 13], "trial": 3, "time_elapsed": 611826, "type": "DISTRACTOR", "trial_index": 117, "num1": [2, 3, 3, 5, 4, 6, 8]}, "uniqueid": "MTK2672:386PBUZZXG4OF6BKKZVTCKRPARIJLS", "dateTime": 1519233573202}, {"current_trial": 118, "trialdata": {"rt": -1, "trial_type": "single-stim", "stimulus": "<p id=\"stim\">10</p>", "internal_node_id": "0.0-91.0-0.0", "time_elapsed": 614828, "key_press": -1, "trial_index": 118}, "uniqueid": "MTK2672:386PBUZZXG4OF6BKKZVTCKRPARIJLS", "dateTime": 1519233576204}, {"current_trial": 119, "trialdata": {"rt": -1, "trial_type": "single-stim", "stimulus": "<p id=\"stim\">9</p>", "internal_node_id": "0.0-91.0-1.0", "time_elapsed": 615829, "key_press": -1, "trial_index": 119}, "uniqueid": "MTK2672:386PBUZZXG4OF6BKKZVTCKRPARIJLS", "dateTime": 1519233577205}, {"current_trial": 120, "trialdata": {"rt": -1, "trial_type": "single-stim", "stimulus": "<p id=\"stim\">8</p>", "internal_node_id": "0.0-91.0-2.0", "time_elapsed": 616830, "key_press": -1, "trial_index": 120}, "uniqueid": "MTK2672:386PBUZZXG4OF6BKKZVTCKRPARIJLS", "dateTime": 1519233578206}, {"current_trial": 121, "trialdata": {"rt": -1, "trial_type": "single-stim", "stimulus": "<p id=\"stim\">7</p>", "internal_node_id": "0.0-91.0-3.0", "time_elapsed": 617831, "key_press": -1, "trial_index": 121}, "uniqueid": "MTK2672:386PBUZZXG4OF6BKKZVTCKRPARIJLS", "dateTime": 1519233579207}, {"current_trial": 122, "trialdata": {"rt": -1, "trial_type": "single-stim", "stimulus": "<p id=\"stim\">6</p>", "internal_node_id": "0.0-91.0-4.0", "time_elapsed": 618832, "key_press": -1, "trial_index": 122}, "uniqueid": "MTK2672:386PBUZZXG4OF6BKKZVTCKRPARIJLS", "dateTime": 1519233580208}, {"current_trial": 123, "trialdata": {"rt": -1, "trial_type": "single-stim", "stimulus": "<p id=\"stim\">5</p>", "internal_node_id": "0.0-91.0-5.0", "time_elapsed": 619833, "key_press": -1, "trial_index": 123}, "uniqueid": "MTK2672:386PBUZZXG4OF6BKKZVTCKRPARIJLS", "dateTime": 1519233581209}, {"current_trial": 124, "trialdata": {"rt": -1, "trial_type": "single-stim", "stimulus": "<p id=\"stim\">4</p>", "internal_node_id": "0.0-91.0-6.0", "time_elapsed": 620834, "key_press": -1, "trial_index": 124}, "uniqueid": "MTK2672:386PBUZZXG4OF6BKKZVTCKRPARIJLS", "dateTime": 1519233582210}, {"current_trial": 125, "trialdata": {"rt": -1, "trial_type": "single-stim", "stimulus": "<p id=\"stim\">3</p>", "internal_node_id": "0.0-91.0-7.0", "time_elapsed": 621835, "key_press": -1, "trial_index": 125}, "uniqueid": "MTK2672:386PBUZZXG4OF6BKKZVTCKRPARIJLS", "dateTime": 1519233583211}, {"current_trial": 126, "trialdata": {"rt": -1, "trial_type": "single-stim", "stimulus": "<p id=\"stim\">2</p>", "internal_node_id": "0.0-91.0-8.0", "time_elapsed": 622837, "key_press": -1, "trial_index": 126}, "uniqueid": "MTK2672:386PBUZZXG4OF6BKKZVTCKRPARIJLS", "dateTime": 1519233584213}, {"current_trial": 127, "trialdata": {"rt": -1, "trial_type": "single-stim", "stimulus": "<p id=\"stim\">1</p>", "internal_node_id": "0.0-91.0-9.0", "time_elapsed": 623838, "key_press": -1, "trial_index": 127}, "uniqueid": "MTK2672:386PBUZZXG4OF6BKKZVTCKRPARIJLS", "dateTime": 1519233585214}, {"current_trial": 128, "trialdata": {"rt": -1, "trial_type": "single-stim", "stimulus": "<p id=\"stim\">+</p>", "internal_node_id": "0.0-92.0-0.0", "time_elapsed": 625339, "key_press": -1, "type": "FIXATION", "trial_index": 128}, "uniqueid": "MTK2672:386PBUZZXG4OF6BKKZVTCKRPARIJLS", "dateTime": 1519233586715}, {"current_trial": 129, "trialdata": {"rt": -1000, "trial_type": "single-audio", "word": "cobra", "stimulus": "/static/audio/wordpool/COBRA.wav", "conditions": [12, 1600, "a", 12000], "internal_node_id": "0.0-93.0", "trial": 3, "time_elapsed": 628041, "serialpos": 0, "key_press": -1, "wordID": 335, "type": "PRES_AUD", "trial_index": 129}, "uniqueid": "MTK2672:386PBUZZXG4OF6BKKZVTCKRPARIJLS", "dateTime": 1519233589417}, {"current_trial": 130, "trialdata": {"rt": -1000, "trial_type": "single-audio", "word": "pigeon", "stimulus": "/static/audio/wordpool/PIGEON.wav", "conditions": [12, 1600, "a", 12000], "internal_node_id": "0.0-94.0", "trial": 3, "time_elapsed": 630591, "serialpos": 1, "key_press": -1, "wordID": 1064, "type": "PRES_AUD", "trial_index": 130}, "uniqueid": "MTK2672:386PBUZZXG4OF6BKKZVTCKRPARIJLS", "dateTime": 1519233591967}, {"current_trial": 131, "trialdata": {"rt": -1000, "trial_type": "single-audio", "word": "pudding", "stimulus": "/static/audio/wordpool/PUDDING.wav", "conditions": [12, 1600, "a", 12000], "internal_node_id": "0.0-95.0", "trial": 3, "time_elapsed": 633293, "serialpos": 2, "key_press": -1, "wordID": 1138, "type": "PRES_AUD", "trial_index": 131}, "uniqueid": "MTK2672:386PBUZZXG4OF6BKKZVTCKRPARIJLS", "dateTime": 1519233594669}, {"current_trial": 132, "trialdata": {"rt": -1000, "trial_type": "single-audio", "word": "custard", "stimulus": "/static/audio/wordpool/CUSTARD.wav", "conditions": [12, 1600, "a", 12000], "internal_node_id": "0.0-96.0", "trial": 3, "time_elapsed": 635787, "serialpos": 3, "key_press": -1, "wordID": 428, "type": "PRES_AUD", "trial_index": 132}, "uniqueid": "MTK2672:386PBUZZXG4OF6BKKZVTCKRPARIJLS", "dateTime": 1519233597163}, {"current_trial": 133, "trialdata": {"rt": -1000, "trial_type": "single-audio", "word": "church", "stimulus": "/static/audio/wordpool/CHURCH.wav", "conditions": [12, 1600, "a", 12000], "internal_node_id": "0.0-97.0", "trial": 3, "time_elapsed": 638552, "serialpos": 4, "key_press": -1, "wordID": 306, "type": "PRES_AUD", "trial_index": 133}, "uniqueid": "MTK2672:386PBUZZXG4OF6BKKZVTCKRPARIJLS", "dateTime": 1519233599928}, {"current_trial": 134, "trialdata": {"rt": -1000, "trial_type": "single-audio", "word": "fireman", "stimulus": "/static/audio/wordpool/FIREMAN.wav", "conditions": [12, 1600, "a", 12000], "internal_node_id": "0.0-98.0", "trial": 3, "time_elapsed": 641016, "serialpos": 5, "key_press": -1, "wordID": 568, "type": "PRES_AUD", "trial_index": 134}, "uniqueid": "MTK2672:386PBUZZXG4OF6BKKZVTCKRPARIJLS", "dateTime": 1519233602392}, {"current_trial": 135, "trialdata": {"rt": -1000, "trial_type": "single-audio", "word": "child", "stimulus": "/static/audio/wordpool/CHILD.wav", "conditions": [12, 1600, "a", 12000], "internal_node_id": "0.0-99.0", "trial": 3, "time_elapsed": 643593, "serialpos": 6, "key_press": -1, "wordID": 298, "type": "PRES_AUD", "trial_index": 135}, "uniqueid": "MTK2672:386PBUZZXG4OF6BKKZVTCKRPARIJLS", "dateTime": 1519233604969}, {"current_trial": 136, "trialdata": {"rt": -1000, "trial_type": "single-audio", "word": "mailbox", "stimulus": "/static/audio/wordpool/MAILBOX.wav", "conditions": [12, 1600, "a", 12000], "internal_node_id": "0.0-100.0", "trial": 3, "time_elapsed": 646188, "serialpos": 7, "key_press": -1, "wordID": 856, "type": "PRES_AUD", "trial_index": 136}, "uniqueid": "MTK2672:386PBUZZXG4OF6BKKZVTCKRPARIJLS", "dateTime": 1519233607564}, {"current_trial": 137, "trialdata": {"rt": -1000, "trial_type": "single-audio", "word": "chapel", "stimulus": "/static/audio/wordpool/CHAPEL.wav", "conditions": [12, 1600, "a", 12000], "internal_node_id": "0.0-101.0", "trial": 3, "time_elapsed": 648608, "serialpos": 8, "key_press": -1, "wordID": 279, "type": "PRES_AUD", "trial_index": 137}, "uniqueid": "MTK2672:386PBUZZXG4OF6BKKZVTCKRPARIJLS", "dateTime": 1519233609984}, {"current_trial": 138, "trialdata": {"rt": -1000, "trial_type": "single-audio", "word": "airplane", "stimulus": "/static/audio/wordpool/AIRPLANE.wav", "conditions": [12, 1600, "a", 12000], "internal_node_id": "0.0-102.0", "trial": 3, "time_elapsed": 651320, "serialpos": 9, "key_press": -1, "wordID": 11, "type": "PRES_AUD", "trial_index": 138}, "uniqueid": "MTK2672:386PBUZZXG4OF6BKKZVTCKRPARIJLS", "dateTime": 1519233612696}, {"current_trial": 139, "trialdata": {"rt": -1000, "trial_type": "single-audio", "word": "burglar", "stimulus": "/static/audio/wordpool/BURGLAR.wav", "conditions": [12, 1600, "a", 12000], "internal_node_id": "0.0-103.0", "trial": 3, "time_elapsed": 653918, "serialpos": 10, "key_press": -1, "wordID": 199, "type": "PRES_AUD", "trial_index": 139}, "uniqueid": "MTK2672:386PBUZZXG4OF6BKKZVTCKRPARIJLS", "dateTime": 1519233615294}, {"current_trial": 140, "trialdata": {"rt": -1000, "trial_type": "single-audio", "word": "paper", "stimulus": "/static/audio/wordpool/PAPER.wav", "conditions": [12, 1600, "a", 12000], "internal_node_id": "0.0-104.0", "trial": 3, "time_elapsed": 656515, "serialpos": 11, "key_press": -1, "wordID": 1010, "type": "PRES_AUD", "trial_index": 140}, "uniqueid": "MTK2672:386PBUZZXG4OF6BKKZVTCKRPARIJLS", "dateTime": 1519233617891}, {"current_trial": 141, "trialdata": {"rt": -1, "trial_type": "single-stim", "stimulus": "", "internal_node_id": "0.0-105.0-0.0", "time_elapsed": 657804, "key_press": -1, "type": "PRE_RECALL_DELAY", "trial_index": 141}, "uniqueid": "MTK2672:386PBUZZXG4OF6BKKZVTCKRPARIJLS", "dateTime": 1519233619180}, {"current_trial": 142, "trialdata": {"rt": -1000, "trial_type": "single-audio", "stimulus": "/static/audio/400Hz.wav", "internal_node_id": "0.0-106.0", "time_elapsed": 658305, "key_press": -1, "type": "PRE_RECALL_ALERT", "trial_index": 142}, "uniqueid": "MTK2672:386PBUZZXG4OF6BKKZVTCKRPARIJLS", "dateTime": 1519233619681}, {"current_trial": 143, "trialdata": {"rt": [995, 2800, 3919, 5443, 8491, 12926, 21270, 29143, 50552], "recwords": ["paper", "burglar", "child", "fireman", "cobra", "church", "paper", "pigeon", "mailbox"], "key_times": [361, 497, 603, 731, 809, 995, 1579, 1720, 1878, 2096, 2308, 2467, 2556, 2800, 3199, 3276, 3332, 3413, 3678, 3919, 4436, 4554, 4641, 4691, 4882, 4978, 5092, 5443, 7707, 7817, 8004, 8185, 8273, 8491, 11975, 12069, 12229, 12284, 12523, 12674, 12926, 20696, 20773, 20890, 21017, 21108, 21270, 28190, 28275, 28475, 28665, 28814, 28935, 29143, 49355, 49450, 49554, 49641, 49819, 49947, 50103, 50552], "trial_type": "free-recall", "conditions": [12, 1600, "a", 12000], "internal_node_id": "0.0-107.0-0.0", "key_presses": [80, 65, 80, 69, 82, 13, 66, 85, 82, 71, 76, 65, 82, 13, 67, 72, 73, 76, 68, 13, 70, 73, 82, 69, 77, 65, 78, 13, 67, 79, 66, 82, 65, 13, 67, 72, 85, 82, 67, 72, 13, 80, 65, 80, 69, 82, 13, 80, 73, 71, 69, 79, 78, 13, 77, 65, 73, 76, 66, 79, 88, 13], "trial": 3, "time_elapsed": 718307, "type": "FREE_RECALL", "trial_index": 143}, "uniqueid": "MTK2672:386PBUZZXG4OF6BKKZVTCKRPARIJLS", "dateTime": 1519233679685}, {"current_trial": 144, "trialdata": {"rt": 708, "trial_type": "text", "internal_node_id": "0.0-108.0", "time_elapsed": 721020, "key_press": 32, "type": "INSTRUCTIONS", "trial_index": 144}, "uniqueid": "MTK2672:386PBUZZXG4OF6BKKZVTCKRPARIJLS", "dateTime": 1519233682397}, {"current_trial": 145, "trialdata": {"rt": [1684, 4046, 6574, 8320, 10798], "trial_type": "math-distractor", "key_times": [1204, 1510, 1684, 3566, 3842, 4046, 6090, 6397, 6574, 7991, 8153, 8320, 10473, 10576, 10798], "responses": ["16", "14", "16", "19", "18"], "num2": [7, 8, 8, 6, 8, 3], "num3": [7, 1, 6, 8, 3, 4], "conditions": [12, 800, "a", 12000], "internal_node_id": "0.0-109.0", "key_presses": [49, 54, 13, 49, 52, 13, 49, 54, 13, 49, 57, 13, 49, 56, 13], "trial": 4, "time_elapsed": 735024, "type": "DISTRACTOR", "trial_index": 145, "num1": [2, 5, 2, 5, 7, 7]}, "uniqueid": "MTK2672:386PBUZZXG4OF6BKKZVTCKRPARIJLS", "dateTime": 1519233696400}, {"current_trial": 146, "trialdata": {"rt": -1, "trial_type": "single-stim", "stimulus": "<p id=\"stim\">10</p>", "internal_node_id": "0.0-110.0-0.0", "time_elapsed": 738025, "key_press": -1, "trial_index": 146}, "uniqueid": "MTK2672:386PBUZZXG4OF6BKKZVTCKRPARIJLS", "dateTime": 1519233699402}, {"current_trial": 147, "trialdata": {"rt": -1, "trial_type": "single-stim", "stimulus": "<p id=\"stim\">9</p>", "internal_node_id": "0.0-110.0-1.0", "time_elapsed": 739027, "key_press": -1, "trial_index": 147}, "uniqueid": "MTK2672:386PBUZZXG4OF6BKKZVTCKRPARIJLS", "dateTime": 1519233700403}, {"current_trial": 148, "trialdata": {"rt": -1, "trial_type": "single-stim", "stimulus": "<p id=\"stim\">8</p>", "internal_node_id": "0.0-110.0-2.0", "time_elapsed": 740028, "key_press": -1, "trial_index": 148}, "uniqueid": "MTK2672:386PBUZZXG4OF6BKKZVTCKRPARIJLS", "dateTime": 1519233701404}, {"current_trial": 149, "trialdata": {"rt": -1, "trial_type": "single-stim", "stimulus": "<p id=\"stim\">7</p>", "internal_node_id": "0.0-110.0-3.0", "time_elapsed": 741029, "key_press": -1, "trial_index": 149}, "uniqueid": "MTK2672:386PBUZZXG4OF6BKKZVTCKRPARIJLS", "dateTime": 1519233702405}, {"current_trial": 150, "trialdata": {"rt": -1, "trial_type": "single-stim", "stimulus": "<p id=\"stim\">6</p>", "internal_node_id": "0.0-110.0-4.0", "time_elapsed": 742030, "key_press": -1, "trial_index": 150}, "uniqueid": "MTK2672:386PBUZZXG4OF6BKKZVTCKRPARIJLS", "dateTime": 1519233703406}, {"current_trial": 151, "trialdata": {"rt": -1, "trial_type": "single-stim", "stimulus": "<p id=\"stim\">5</p>", "internal_node_id": "0.0-110.0-5.0", "time_elapsed": 743031, "key_press": -1, "trial_index": 151}, "uniqueid": "MTK2672:386PBUZZXG4OF6BKKZVTCKRPARIJLS", "dateTime": 1519233704407}, {"current_trial": 152, "trialdata": {"rt": -1, "trial_type": "single-stim", "stimulus": "<p id=\"stim\">4</p>", "internal_node_id": "0.0-110.0-6.0", "time_elapsed": 744032, "key_press": -1, "trial_index": 152}, "uniqueid": "MTK2672:386PBUZZXG4OF6BKKZVTCKRPARIJLS", "dateTime": 1519233705408}, {"current_trial": 153, "trialdata": {"rt": -1, "trial_type": "single-stim", "stimulus": "<p id=\"stim\">3</p>", "internal_node_id": "0.0-110.0-7.0", "time_elapsed": 745033, "key_press": -1, "trial_index": 153}, "uniqueid": "MTK2672:386PBUZZXG4OF6BKKZVTCKRPARIJLS", "dateTime": 1519233706410}, {"current_trial": 154, "trialdata": {"rt": -1, "trial_type": "single-stim", "stimulus": "<p id=\"stim\">2</p>", "internal_node_id": "0.0-110.0-8.0", "time_elapsed": 746035, "key_press": -1, "trial_index": 154}, "uniqueid": "MTK2672:386PBUZZXG4OF6BKKZVTCKRPARIJLS", "dateTime": 1519233707411}, {"current_trial": 155, "trialdata": {"rt": -1, "trial_type": "single-stim", "stimulus": "<p id=\"stim\">1</p>", "internal_node_id": "0.0-110.0-9.0", "time_elapsed": 747036, "key_press": -1, "trial_index": 155}, "uniqueid": "MTK2672:386PBUZZXG4OF6BKKZVTCKRPARIJLS", "dateTime": 1519233708412}, {"current_trial": 156, "trialdata": {"rt": -1, "trial_type": "single-stim", "stimulus": "<p id=\"stim\">+</p>", "internal_node_id": "0.0-111.0-0.0", "time_elapsed": 748538, "key_press": -1, "type": "FIXATION", "trial_index": 156}, "uniqueid": "MTK2672:386PBUZZXG4OF6BKKZVTCKRPARIJLS", "dateTime": 1519233709914}, {"current_trial": 157, "trialdata": {"rt": -1000, "trial_type": "single-audio", "word": "waitress", "stimulus": "/static/audio/wordpool/WAITRESS.wav", "conditions": [12, 800, "a", 12000], "internal_node_id": "0.0-112.0", "trial": 4, "time_elapsed": 750321, "serialpos": 0, "key_press": -1, "wordID": 1580, "type": "PRES_AUD", "trial_index": 157}, "uniqueid": "MTK2672:386PBUZZXG4OF6BKKZVTCKRPARIJLS", "dateTime": 1519233711697}, {"current_trial": 158, "trialdata": {"rt": -1000, "trial_type": "single-audio", "word": "rocket", "stimulus": "/static/audio/wordpool/ROCKET.wav", "conditions": [12, 800, "a", 12000], "internal_node_id": "0.0-113.0", "trial": 4, "time_elapsed": 752133, "serialpos": 1, "key_press": -1, "wordID": 1201, "type": "PRES_AUD", "trial_index": 158}, "uniqueid": "MTK2672:386PBUZZXG4OF6BKKZVTCKRPARIJLS", "dateTime": 1519233713509}, {"current_trial": 159, "trialdata": {"rt": -1000, "trial_type": "single-audio", "word": "ground", "stimulus": "/static/audio/wordpool/GROUND.wav", "conditions": [12, 800, "a", 12000], "internal_node_id": "0.0-114.0", "trial": 4, "time_elapsed": 753768, "serialpos": 2, "key_press": -1, "wordID": 665, "type": "PRES_AUD", "trial_index": 159}, "uniqueid": "MTK2672:386PBUZZXG4OF6BKKZVTCKRPARIJLS", "dateTime": 1519233715144}, {"current_trial": 160, "trialdata": {"rt": -1000, "trial_type": "single-audio", "word": "taxi", "stimulus": "/static/audio/wordpool/TAXI.wav", "conditions": [12, 800, "a", 12000], "internal_node_id": "0.0-115.0", "trial": 4, "time_elapsed": 755714, "serialpos": 3, "key_press": -1, "wordID": 1437, "type": "PRES_AUD", "trial_index": 160}, "uniqueid": "MTK2672:386PBUZZXG4OF6BKKZVTCKRPARIJLS", "dateTime": 1519233717090}, {"current_trial": 161, "trialdata": {"rt": -1000, "trial_type": "single-audio", "word": "zipper", "stimulus": "/static/audio/wordpool/ZIPPER.wav", "conditions": [12, 800, "a", 12000], "internal_node_id": "0.0-116.0", "trial": 4, "time_elapsed": 757613, "serialpos": 4, "key_press": -1, "wordID": 1635, "type": "PRES_AUD", "trial_index": 161}, "uniqueid": "MTK2672:386PBUZZXG4OF6BKKZVTCKRPARIJLS", "dateTime": 1519233718989}, {"current_trial": 162, "trialdata": {"rt": -1000, "trial_type": "single-audio", "word": "cashier", "stimulus": "/static/audio/wordpool/CASHIER.wav", "conditions": [12, 800, "a", 12000], "internal_node_id": "0.0-117.0", "trial": 4, "time_elapsed": 759322, "serialpos": 5, "key_press": -1, "wordID": 253, "type": "PRES_AUD", "trial_index": 162}, "uniqueid": "MTK2672:386PBUZZXG4OF6BKKZVTCKRPARIJLS", "dateTime": 1519233720698}, {"current_trial": 163, "trialdata": {"rt": -1000, "trial_type": "single-audio", "word": "dustpan", "stimulus": "/static/audio/wordpool/DUSTPAN.wav", "conditions": [12, 800, "a", 12000], "internal_node_id": "0.0-118.0", "trial": 4, "time_elapsed": 760992, "serialpos": 6, "key_press": -1, "wordID": 508, "type": "PRES_AUD", "trial_index": 163}, "uniqueid": "MTK2672:386PBUZZXG4OF6BKKZVTCKRPARIJLS", "dateTime": 1519233722368}, {"current_trial": 164, "trialdata": {"rt": -1000, "trial_type": "single-audio", "word": "twig", "stimulus": "/static/audio/wordpool/TWIG.wav", "conditions": [12, 800, "a", 12000], "internal_node_id": "0.0-119.0", "trial": 4, "time_elapsed": 762780, "serialpos": 7, "key_press": -1, "wordID": 1526, "type": "PRES_AUD", "trial_index": 164}, "uniqueid": "MTK2672:386PBUZZXG4OF6BKKZVTCKRPARIJLS", "dateTime": 1519233724156}, {"current_trial": 165, "trialdata": {"rt": -1000, "trial_type": "single-audio", "word": "market", "stimulus": "/static/audio/wordpool/MARKET.wav", "conditions": [12, 800, "a", 12000], "internal_node_id": "0.0-120.0", "trial": 4, "time_elapsed": 764685, "serialpos": 8, "key_press": -1, "wordID": 870, "type": "PRES_AUD", "trial_index": 165}, "uniqueid": "MTK2672:386PBUZZXG4OF6BKKZVTCKRPARIJLS", "dateTime": 1519233726061}, {"current_trial": 166, "trialdata": {"rt": -1000, "trial_type": "single-audio", "word": "quarter", "stimulus": "/static/audio/wordpool/QUARTER.wav", "conditions": [12, 800, "a", 12000], "internal_node_id": "0.0-121.0", "trial": 4, "time_elapsed": 766323, "serialpos": 9, "key_press": -1, "wordID": 1147, "type": "PRES_AUD", "trial_index": 166}, "uniqueid": "MTK2672:386PBUZZXG4OF6BKKZVTCKRPARIJLS", "dateTime": 1519233727699}, {"current_trial": 167, "trialdata": {"rt": -1000, "trial_type": "single-audio", "word": "judge", "stimulus": "/static/audio/wordpool/JUDGE.wav", "conditions": [12, 800, "a", 12000], "internal_node_id": "0.0-122.0", "trial": 4, "time_elapsed": 768023, "serialpos": 10, "key_press": -1, "wordID": 760, "type": "PRES_AUD", "trial_index": 167}, "uniqueid": "MTK2672:386PBUZZXG4OF6BKKZVTCKRPARIJLS", "dateTime": 1519233729399}, {"current_trial": 168, "trialdata": {"rt": -1000, "trial_type": "single-audio", "word": "jury", "stimulus": "/static/audio/wordpool/JURY.wav", "conditions": [12, 800, "a", 12000], "internal_node_id": "0.0-123.0", "trial": 4, "time_elapsed": 769801, "serialpos": 11, "key_press": -1, "wordID": 765, "type": "PRES_AUD", "trial_index": 168}, "uniqueid": "MTK2672:386PBUZZXG4OF6BKKZVTCKRPARIJLS", "dateTime": 1519233731177}, {"current_trial": 169, "trialdata": {"rt": -1, "trial_type": "single-stim", "stimulus": "", "internal_node_id": "0.0-124.0-0.0", "time_elapsed": 771152, "key_press": -1, "type": "PRE_RECALL_DELAY", "trial_index": 169}, "uniqueid": "MTK2672:386PBUZZXG4OF6BKKZVTCKRPARIJLS", "dateTime": 1519233732529}, {"current_trial": 170, "trialdata": {"rt": -1000, "trial_type": "single-audio", "stimulus": "/static/audio/400Hz.wav", "internal_node_id": "0.0-125.0", "time_elapsed": 771653, "key_press": -1, "type": "PRE_RECALL_ALERT", "trial_index": 170}, "uniqueid": "MTK2672:386PBUZZXG4OF6BKKZVTCKRPARIJLS", "dateTime": 1519233733029}, {"current_trial": 171, "trialdata": {"rt": [1218, 2514, 3588, 5158, 6980, 7887, 8809, 13834], "recwords": ["judge", "jury", "market", "quarter", "waitress", "rocket", "ground", "market"], "key_times": [442, 649, 738, 950, 1109, 1218, 1641, 1893, 2028, 2147, 2514, 2887, 2992, 3058, 3174, 3301, 3386, 3588, 4095, 4253, 4427, 4519, 4774, 4911, 4978, 5158, 5539, 5609, 5789, 5927, 6340, 6383, 6703, 6843, 6980, 7158, 7270, 7397, 7500, 7612, 7707, 7887, 8070, 8228, 8284, 8344, 8563, 8661, 8809, 13019, 13120, 13160, 13247, 13353, 13442, 13834], "trial_type": "free-recall", "conditions": [12, 800, "a", 12000], "internal_node_id": "0.0-126.0-0.0", "key_presses": [74, 85, 68, 71, 69, 32, 74, 85, 82, 89, 13, 77, 65, 82, 75, 69, 84, 13, 81, 85, 65, 82, 84, 69, 82, 13, 87, 65, 73, 84, 82, 69, 83, 83, 13, 82, 79, 67, 75, 69, 84, 13, 71, 82, 79, 85, 78, 68, 13, 77, 65, 82, 75, 69, 84, 13], "trial": 4, "time_elapsed": 831655, "type": "FREE_RECALL", "trial_index": 171}, "uniqueid": "MTK2672:386PBUZZXG4OF6BKKZVTCKRPARIJLS", "dateTime": 1519233793033}, {"current_trial": 172, "trialdata": {"rt": 663, "trial_type": "text", "internal_node_id": "0.0-127.0", "time_elapsed": 834321, "key_press": 32, "type": "INSTRUCTIONS", "trial_index": 172}, "uniqueid": "MTK2672:386PBUZZXG4OF6BKKZVTCKRPARIJLS", "dateTime": 1519233795697}, {"current_trial": 173, "trialdata": {"rt": [3286, 5305, 7083, 9121, 11242, 13188, 14780, 16326, 18024, 19766, 21334], "trial_type": "math-distractor", "key_times": [2909, 2983, 3286, 4738, 5153, 5305, 6669, 6923, 7083, 8970, 9121, 10825, 11088, 11242, 12552, 12988, 13188, 14525, 14611, 14780, 15918, 16190, 16326, 17851, 18024, 19580, 19766, 21141, 21334, 23732, 23952], "responses": ["21", "16", "14", "7", "14", "15", "12", "15", "9", "9", "9"], "num2": [4, 5, 2, 1, 9, 1, 4, 9, 6, 4, 1, 6], "num3": [8, 9, 7, 2, 3, 8, 4, 5, 1, 3, 6, 9], "conditions": [12, 1600, "a", 24000], "internal_node_id": "0.0-128.0", "key_presses": [50, 49, 13, 49, 54, 13, 49, 52, 13, 55, 13, 49, 52, 13, 49, 53, 13, 49, 50, 13, 49, 53, 13, 57, 13, 57, 13, 57, 13, 50, 53], "trial": 5, "time_elapsed": 860324, "type": "DISTRACTOR", "trial_index": 173, "num1": [9, 2, 5, 4, 2, 6, 4, 1, 2, 2, 2, 8]}, "uniqueid": "MTK2672:386PBUZZXG4OF6BKKZVTCKRPARIJLS", "dateTime": 1519233821700}, {"current_trial": 174, "trialdata": {"rt": -1, "trial_type": "single-stim", "stimulus": "<p id=\"stim\">10</p>", "internal_node_id": "0.0-129.0-0.0", "time_elapsed": 863326, "key_press": -1, "trial_index": 174}, "uniqueid": "MTK2672:386PBUZZXG4OF6BKKZVTCKRPARIJLS", "dateTime": 1519233824702}, {"current_trial": 175, "trialdata": {"rt": -1, "trial_type": "single-stim", "stimulus": "<p id=\"stim\">9</p>", "internal_node_id": "0.0-129.0-1.0", "time_elapsed": 864326, "key_press": -1, "trial_index": 175}, "uniqueid": "MTK2672:386PBUZZXG4OF6BKKZVTCKRPARIJLS", "dateTime": 1519233825702}, {"current_trial": 176, "trialdata": {"rt": -1, "trial_type": "single-stim", "stimulus": "<p id=\"stim\">8</p>", "internal_node_id": "0.0-129.0-2.0", "time_elapsed": 865328, "key_press": -1, "trial_index": 176}, "uniqueid": "MTK2672:386PBUZZXG4OF6BKKZVTCKRPARIJLS", "dateTime": 1519233826704}, {"current_trial": 177, "trialdata": {"rt": -1, "trial_type": "single-stim", "stimulus": "<p id=\"stim\">7</p>", "internal_node_id": "0.0-129.0-3.0", "time_elapsed": 866328, "key_press": -1, "trial_index": 177}, "uniqueid": "MTK2672:386PBUZZXG4OF6BKKZVTCKRPARIJLS", "dateTime": 1519233827704}, {"current_trial": 178, "trialdata": {"rt": -1, "trial_type": "single-stim", "stimulus": "<p id=\"stim\">6</p>", "internal_node_id": "0.0-129.0-4.0", "time_elapsed": 867330, "key_press": -1, "trial_index": 178}, "uniqueid": "MTK2672:386PBUZZXG4OF6BKKZVTCKRPARIJLS", "dateTime": 1519233828706}, {"current_trial": 179, "trialdata": {"rt": -1, "trial_type": "single-stim", "stimulus": "<p id=\"stim\">5</p>", "internal_node_id": "0.0-129.0-5.0", "time_elapsed": 868330, "key_press": -1, "trial_index": 179}, "uniqueid": "MTK2672:386PBUZZXG4OF6BKKZVTCKRPARIJLS", "dateTime": 1519233829706}, {"current_trial": 180, "trialdata": {"rt": -1, "trial_type": "single-stim", "stimulus": "<p id=\"stim\">4</p>", "internal_node_id": "0.0-129.0-6.0", "time_elapsed": 869332, "key_press": -1, "trial_index": 180}, "uniqueid": "MTK2672:386PBUZZXG4OF6BKKZVTCKRPARIJLS", "dateTime": 1519233830708}, {"current_trial": 181, "trialdata": {"rt": -1, "trial_type": "single-stim", "stimulus": "<p id=\"stim\">3</p>", "internal_node_id": "0.0-129.0-7.0", "time_elapsed": 870333, "key_press": -1, "trial_index": 181}, "uniqueid": "MTK2672:386PBUZZXG4OF6BKKZVTCKRPARIJLS", "dateTime": 1519233831709}, {"current_trial": 182, "trialdata": {"rt": -1, "trial_type": "single-stim", "stimulus": "<p id=\"stim\">2</p>", "internal_node_id": "0.0-129.0-8.0", "time_elapsed": 871333, "key_press": -1, "trial_index": 182}, "uniqueid": "MTK2672:386PBUZZXG4OF6BKKZVTCKRPARIJLS", "dateTime": 1519233832709}, {"current_trial": 183, "trialdata": {"rt": -1, "trial_type": "single-stim", "stimulus": "<p id=\"stim\">1</p>", "internal_node_id": "0.0-129.0-9.0", "time_elapsed": 872336, "key_press": -1, "trial_index": 183}, "uniqueid": "MTK2672:386PBUZZXG4OF6BKKZVTCKRPARIJLS", "dateTime": 1519233833712}, {"current_trial": 184, "trialdata": {"rt": -1, "trial_type": "single-stim", "stimulus": "<p id=\"stim\">+</p>", "internal_node_id": "0.0-130.0-0.0", "time_elapsed": 873836, "key_press": -1, "type": "FIXATION", "trial_index": 184}, "uniqueid": "MTK2672:386PBUZZXG4OF6BKKZVTCKRPARIJLS", "dateTime": 1519233835212}, {"current_trial": 185, "trialdata": {"rt": -1000, "trial_type": "single-audio", "word": "daughter", "stimulus": "/static/audio/wordpool/DAUGHTER.wav", "conditions": [12, 1600, "a", 24000], "internal_node_id": "0.0-131.0", "trial": 5, "time_elapsed": 876284, "serialpos": 0, "key_press": -1, "wordID": 441, "type": "PRES_AUD", "trial_index": 185}, "uniqueid": "MTK2672:386PBUZZXG4OF6BKKZVTCKRPARIJLS", "dateTime": 1519233837660}, {"current_trial": 186, "trialdata": {"rt": -1000, "trial_type": "single-audio", "word": "piano", "stimulus": "/static/audio/wordpool/PIANO.wav", "conditions": [12, 1600, "a", 24000], "internal_node_id": "0.0-132.0", "trial": 5, "time_elapsed": 878752, "serialpos": 1, "key_press": -1, "wordID": 1056, "type": "PRES_AUD", "trial_index": 186}, "uniqueid": "MTK2672:386PBUZZXG4OF6BKKZVTCKRPARIJLS", "dateTime": 1519233840128}, {"current_trial": 187, "trialdata": {"rt": -1000, "trial_type": "single-audio", "word": "chest", "stimulus": "/static/audio/wordpool/CHEST.wav", "conditions": [12, 1600, "a", 24000], "internal_node_id": "0.0-133.0", "trial": 5, "time_elapsed": 881243, "serialpos": 2, "key_press": -1, "wordID": 294, "type": "PRES_AUD", "trial_index": 187}, "uniqueid": "MTK2672:386PBUZZXG4OF6BKKZVTCKRPARIJLS", "dateTime": 1519233842619}, {"current_trial": 188, "trialdata": {"rt": -1000, "trial_type": "single-audio", "word": "stomach", "stimulus": "/static/audio/wordpool/STOMACH.wav", "conditions": [12, 1600, "a", 24000], "internal_node_id": "0.0-134.0", "trial": 5, "time_elapsed": 883740, "serialpos": 3, "key_press": -1, "wordID": 1383, "type": "PRES_AUD", "trial_index": 188}, "uniqueid": "MTK2672:386PBUZZXG4OF6BKKZVTCKRPARIJLS", "dateTime": 1519233845117}, {"current_trial": 189, "trialdata": {"rt": -1000, "trial_type": "single-audio", "word": "comet", "stimulus": "/static/audio/wordpool/COMET.wav", "conditions": [12, 1600, "a", 24000], "internal_node_id": "0.0-135.0", "trial": 5, "time_elapsed": 886449, "serialpos": 4, "key_press": -1, "wordID": 352, "type": "PRES_AUD", "trial_index": 189}, "uniqueid": "MTK2672:386PBUZZXG4OF6BKKZVTCKRPARIJLS", "dateTime": 1519233847825}, {"current_trial": 190, "trialdata": {"rt": -1000, "trial_type": "single-audio", "word": "tuba", "stimulus": "/static/audio/wordpool/TUBA.wav", "conditions": [12, 1600, "a", 24000], "internal_node_id": "0.0-136.0", "trial": 5, "time_elapsed": 888855, "serialpos": 5, "key_press": -1, "wordID": 1514, "type": "PRES_AUD", "trial_index": 190}, "uniqueid": "MTK2672:386PBUZZXG4OF6BKKZVTCKRPARIJLS", "dateTime": 1519233850231}, {"current_trial": 191, "trialdata": {"rt": -1000, "trial_type": "single-audio", "word": "worker", "stimulus": "/static/audio/wordpool/WORKER.wav", "conditions": [12, 1600, "a", 24000], "internal_node_id": "0.0-137.0", "trial": 5, "time_elapsed": 891555, "serialpos": 6, "key_press": -1, "wordID": 1620, "type": "PRES_AUD", "trial_index": 191}, "uniqueid": "MTK2672:386PBUZZXG4OF6BKKZVTCKRPARIJLS", "dateTime": 1519233852931}, {"current_trial": 192, "trialdata": {"rt": -1000, "trial_type": "single-audio", "word": "actress", "stimulus": "/static/audio/wordpool/ACTRESS.wav", "conditions": [12, 1600, "a", 24000], "internal_node_id": "0.0-138.0", "trial": 5, "time_elapsed": 894038, "serialpos": 7, "key_press": -1, "wordID": 5, "type": "PRES_AUD", "trial_index": 192}, "uniqueid": "MTK2672:386PBUZZXG4OF6BKKZVTCKRPARIJLS", "dateTime": 1519233855415}, {"current_trial": 193, "trialdata": {"rt": -1000, "trial_type": "single-audio", "word": "actor", "stimulus": "/static/audio/wordpool/ACTOR.wav", "conditions": [12, 1600, "a", 24000], "internal_node_id": "0.0-139.0", "trial": 5, "time_elapsed": 896739, "serialpos": 8, "key_press": -1, "wordID": 4, "type": "PRES_AUD", "trial_index": 193}, "uniqueid": "MTK2672:386PBUZZXG4OF6BKKZVTCKRPARIJLS", "dateTime": 1519233858115}, {"current_trial": 194, "trialdata": {"rt": -1000, "trial_type": "single-audio", "word": "army", "stimulus": "/static/audio/wordpool/ARMY.wav", "conditions": [12, 1600, "a", 24000], "internal_node_id": "0.0-140.0", "trial": 5, "time_elapsed": 899353, "serialpos": 9, "key_press": -1, "wordID": 38, "type": "PRES_AUD", "trial_index": 194}, "uniqueid": "MTK2672:386PBUZZXG4OF6BKKZVTCKRPARIJLS", "dateTime": 1519233860729}, {"current_trial": 195, "trialdata": {"rt": -1000, "trial_type": "single-audio", "word": "thread", "stimulus": "/static/audio/wordpool/THREAD.wav", "conditions": [12, 1600, "a", 24000], "internal_node_id": "0.0-141.0", "trial": 5, "time_elapsed": 902151, "serialpos": 10, "key_press": -1, "wordID": 1459, "type": "PRES_AUD", "trial_index": 195}, "uniqueid": "MTK2672:386PBUZZXG4OF6BKKZVTCKRPARIJLS", "dateTime": 1519233863527}, {"current_trial": 196, "trialdata": {"rt": -1000, "trial_type": "single-audio", "word": "award", "stimulus": "/static/audio/wordpool/AWARD.wav", "conditions": [12, 1600, "a", 24000], "internal_node_id": "0.0-142.0", "trial": 5, "time_elapsed": 904947, "serialpos": 11, "key_press": -1, "wordID": 62, "type": "PRES_AUD", "trial_index": 196}, "uniqueid": "MTK2672:386PBUZZXG4OF6BKKZVTCKRPARIJLS", "dateTime": 1519233866323}, {"current_trial": 197, "trialdata": {"rt": -1, "trial_type": "single-stim", "stimulus": "", "internal_node_id": "0.0-143.0-0.0", "time_elapsed": 906287, "key_press": -1, "type": "PRE_RECALL_DELAY", "trial_index": 197}, "uniqueid": "MTK2672:386PBUZZXG4OF6BKKZVTCKRPARIJLS", "dateTime": 1519233867663}, {"current_trial": 198, "trialdata": {"rt": -1000, "trial_type": "single-audio", "stimulus": "/static/audio/400Hz.wav", "internal_node_id": "0.0-144.0", "time_elapsed": 906789, "key_press": -1, "type": "PRE_RECALL_ALERT", "trial_index": 198}, "uniqueid": "MTK2672:386PBUZZXG4OF6BKKZVTCKRPARIJLS", "dateTime": 1519233868165}, {"current_trial": 199, "trialdata": {"rt": [2393, 3422, 4652, 5884, 7505, 8429, 12130, 14088, 15771, 18985, 20868], "recwords": ["actress", "actor", "thread", "award", "army", "comet", "daughter", "stomach", "chest", "tuba", "piano"], "key_times": [347, 587, 834, 1281, 1470, 1663, 1729, 1800, 1949, 2393, 2616, 2828, 2965, 3105, 3188, 3422, 3952, 4034, 4140, 4166, 4259, 4479, 4652, 4896, 4974, 5089, 5585, 5717, 5884, 6596, 6658, 6836, 7061, 7505, 7801, 7887, 8071, 8138, 8259, 8429, 10425, 10507, 10643, 10772, 10935, 11033, 11210, 11284, 12130, 13093, 13204, 13316, 13384, 13508, 13708, 13829, 14088, 15184, 15268, 15386, 15448, 15537, 15771, 18397, 18526, 18653, 18829, 18985, 20062, 20212, 20403, 20509, 20650, 20868], "trial_type": "free-recall", "conditions": [12, 1600, "a", 24000], "internal_node_id": "0.0-145.0-0.0", "key_presses": [65, 67, 82, 8, 84, 82, 69, 83, 83, 13, 65, 67, 84, 79, 82, 13, 84, 72, 82, 69, 65, 68, 13, 65, 87, 65, 82, 68, 13, 65, 82, 77, 89, 13, 67, 79, 77, 69, 84, 13, 68, 65, 85, 71, 72, 84, 69, 82, 13, 83, 84, 79, 77, 65, 67, 72, 13, 67, 72, 69, 83, 84, 13, 84, 85, 66, 65, 13, 80, 73, 65, 78, 79, 13], "trial": 5, "time_elapsed": 966791, "type": "FREE_RECALL", "trial_index": 199}, "uniqueid": "MTK2672:386PBUZZXG4OF6BKKZVTCKRPARIJLS", "dateTime": 1519233928169}, {"current_trial": 200, "trialdata": {"rt": 723, "trial_type": "text", "internal_node_id": "0.0-146.0", "time_elapsed": 969517, "key_press": 32, "type": "INSTRUCTIONS", "trial_index": 200}, "uniqueid": "MTK2672:386PBUZZXG4OF6BKKZVTCKRPARIJLS", "dateTime": 1519233930893}, {"current_trial": 201, "trialdata": {"rt": [2788, 4331, 6023, 7923, 10671, 14264, 16186, 17987, 20022, 21759], "trial_type": "math-distractor", "key_times": [2315, 2636, 2788, 4138, 4189, 4331, 5660, 5890, 6023, 7476, 7784, 7923, 10478, 10566, 10671, 13615, 14094, 14264, 15845, 15991, 16186, 17498, 17831, 17987, 19588, 19831, 20022, 21498, 21646, 21759], "responses": ["16", "12", "13", "15", "21", "21", "11", "16", "25", "11"], "num2": [8, 4, 6, 7, 8, 6, 2, 4, 7, 2, 6], "num3": [3, 6, 4, 5, 6, 8, 5, 4, 9, 4, 7], "conditions": [24, 800, "a", 24000], "internal_node_id": "0.0-147.0", "key_presses": [49, 54, 13, 49, 50, 13, 49, 51, 13, 49, 53, 13, 50, 49, 13, 50, 49, 13, 49, 49, 13, 49, 54, 13, 50, 53, 13, 49, 49, 13], "trial": 6, "time_elapsed": 995520, "type": "DISTRACTOR", "trial_index": 201, "num1": [5, 2, 3, 3, 7, 7, 4, 8, 7, 5, 7]}, "uniqueid": "MTK2672:386PBUZZXG4OF6BKKZVTCKRPARIJLS", "dateTime": 1519233956896}, {"current_trial": 202, "trialdata": {"rt": -1, "trial_type": "single-stim", "stimulus": "<p id=\"stim\">10</p>", "internal_node_id": "0.0-148.0-0.0", "time_elapsed": 998522, "key_press": -1, "trial_index": 202}, "uniqueid": "MTK2672:386PBUZZXG4OF6BKKZVTCKRPARIJLS", "dateTime": 1519233959898}, {"current_trial": 203, "trialdata": {"rt": -1, "trial_type": "single-stim", "stimulus": "<p id=\"stim\">9</p>", "internal_node_id": "0.0-148.0-1.0", "time_elapsed": 999523, "key_press": -1, "trial_index": 203}, "uniqueid": "MTK2672:386PBUZZXG4OF6BKKZVTCKRPARIJLS", "dateTime": 1519233960899}, {"current_trial": 204, "trialdata": {"rt": -1, "trial_type": "single-stim", "stimulus": "<p id=\"stim\">8</p>", "internal_node_id": "0.0-148.0-2.0", "time_elapsed": 1000524, "key_press": -1, "trial_index": 204}, "uniqueid": "MTK2672:386PBUZZXG4OF6BKKZVTCKRPARIJLS", "dateTime": 1519233961900}, {"current_trial": 205, "trialdata": {"rt": -1, "trial_type": "single-stim", "stimulus": "<p id=\"stim\">7</p>", "internal_node_id": "0.0-148.0-3.0", "time_elapsed": 1001526, "key_press": -1, "trial_index": 205}, "uniqueid": "MTK2672:386PBUZZXG4OF6BKKZVTCKRPARIJLS", "dateTime": 1519233962902}, {"current_trial": 206, "trialdata": {"rt": -1, "trial_type": "single-stim", "stimulus": "<p id=\"stim\">6</p>", "internal_node_id": "0.0-148.0-4.0", "time_elapsed": 1002527, "key_press": -1, "trial_index": 206}, "uniqueid": "MTK2672:386PBUZZXG4OF6BKKZVTCKRPARIJLS", "dateTime": 1519233963903}, {"current_trial": 207, "trialdata": {"rt": -1, "trial_type": "single-stim", "stimulus": "<p id=\"stim\">5</p>", "internal_node_id": "0.0-148.0-5.0", "time_elapsed": 1003528, "key_press": -1, "trial_index": 207}, "uniqueid": "MTK2672:386PBUZZXG4OF6BKKZVTCKRPARIJLS", "dateTime": 1519233964904}, {"current_trial": 208, "trialdata": {"rt": -1, "trial_type": "single-stim", "stimulus": "<p id=\"stim\">4</p>", "internal_node_id": "0.0-148.0-6.0", "time_elapsed": 1004530, "key_press": -1, "trial_index": 208}, "uniqueid": "MTK2672:386PBUZZXG4OF6BKKZVTCKRPARIJLS", "dateTime": 1519233965906}, {"current_trial": 209, "trialdata": {"rt": -1, "trial_type": "single-stim", "stimulus": "<p id=\"stim\">3</p>", "internal_node_id": "0.0-148.0-7.0", "time_elapsed": 1005532, "key_press": -1, "trial_index": 209}, "uniqueid": "MTK2672:386PBUZZXG4OF6BKKZVTCKRPARIJLS", "dateTime": 1519233966908}, {"current_trial": 210, "trialdata": {"rt": -1, "trial_type": "single-stim", "stimulus": "<p id=\"stim\">2</p>", "internal_node_id": "0.0-148.0-8.0", "time_elapsed": 1006533, "key_press": -1, "trial_index": 210}, "uniqueid": "MTK2672:386PBUZZXG4OF6BKKZVTCKRPARIJLS", "dateTime": 1519233967909}, {"current_trial": 211, "trialdata": {"rt": -1, "trial_type": "single-stim", "stimulus": "<p id=\"stim\">1</p>", "internal_node_id": "0.0-148.0-9.0", "time_elapsed": 1007534, "key_press": -1, "trial_index": 211}, "uniqueid": "MTK2672:386PBUZZXG4OF6BKKZVTCKRPARIJLS", "dateTime": 1519233968910}, {"current_trial": 212, "trialdata": {"rt": -1, "trial_type": "single-stim", "stimulus": "<p id=\"stim\">+</p>", "internal_node_id": "0.0-149.0-0.0", "time_elapsed": 1009035, "key_press": -1, "type": "FIXATION", "trial_index": 212}, "uniqueid": "MTK2672:386PBUZZXG4OF6BKKZVTCKRPARIJLS", "dateTime": 1519233970411}, {"current_trial": 213, "trialdata": {"rt": -1000, "trial_type": "single-audio", "word": "bank", "stimulus": "/static/audio/wordpool/BANK.wav", "conditions": [24, 800, "a", 24000], "internal_node_id": "0.0-150.0", "trial": 6, "time_elapsed": 1011015, "serialpos": 0, "key_press": -1, "wordID": 82, "type": "PRES_AUD", "trial_index": 213}, "uniqueid": "MTK2672:386PBUZZXG4OF6BKKZVTCKRPARIJLS", "dateTime": 1519233972391}, {"current_trial": 214, "trialdata": {"rt": -1000, "trial_type": "single-audio", "word": "nomad", "stimulus": "/static/audio/wordpool/NOMAD.wav", "conditions": [24, 800, "a", 24000], "internal_node_id": "0.0-151.0", "trial": 6, "time_elapsed": 1012886, "serialpos": 1, "key_press": -1, "wordID": 954, "type": "PRES_AUD", "trial_index": 214}, "uniqueid": "MTK2672:386PBUZZXG4OF6BKKZVTCKRPARIJLS", "dateTime": 1519233974262}, {"current_trial": 215, "trialdata": {"rt": -1000, "trial_type": "single-audio", "word": "cross", "stimulus": "/static/audio/wordpool/CROSS.wav", "conditions": [24, 800, "a", 24000], "internal_node_id": "0.0-152.0", "trial": 6, "time_elapsed": 1014793, "serialpos": 2, "key_press": -1, "wordID": 412, "type": "PRES_AUD", "trial_index": 215}, "uniqueid": "MTK2672:386PBUZZXG4OF6BKKZVTCKRPARIJLS", "dateTime": 1519233976169}, {"current_trial": 216, "trialdata": {"rt": -1000, "trial_type": "single-audio", "word": "peach", "stimulus": "/static/audio/wordpool/PEACH.wav", "conditions": [24, 800, "a", 24000], "internal_node_id": "0.0-153.0", "trial": 6, "time_elapsed": 1016585, "serialpos": 3, "key_press": -1, "wordID": 1030, "type": "PRES_AUD", "trial_index": 216}, "uniqueid": "MTK2672:386PBUZZXG4OF6BKKZVTCKRPARIJLS", "dateTime": 1519233977962}, {"current_trial": 217, "trialdata": {"rt": -1000, "trial_type": "single-audio", "word": "cousin", "stimulus": "/static/audio/wordpool/COUSIN.wav", "conditions": [24, 800, "a", 24000], "internal_node_id": "0.0-154.0", "trial": 6, "time_elapsed": 1018345, "serialpos": 4, "key_press": -1, "wordID": 391, "type": "PRES_AUD", "trial_index": 217}, "uniqueid": "MTK2672:386PBUZZXG4OF6BKKZVTCKRPARIJLS", "dateTime": 1519233979721}, {"current_trial": 218, "trialdata": {"rt": -1000, "trial_type": "single-audio", "word": "uncle", "stimulus": "/static/audio/wordpool/UNCLE.wav", "conditions": [24, 800, "a", 24000], "internal_node_id": "0.0-155.0", "trial": 6, "time_elapsed": 1020197, "serialpos": 5, "key_press": -1, "wordID": 1535, "type": "PRES_AUD", "trial_index": 218}, "uniqueid": "MTK2672:386PBUZZXG4OF6BKKZVTCKRPARIJLS", "dateTime": 1519233981573}, {"current_trial": 219, "trialdata": {"rt": -1000, "trial_type": "single-audio", "word": "drill", "stimulus": "/static/audio/wordpool/DRILL.wav", "conditions": [24, 800, "a", 24000], "internal_node_id": "0.0-156.0", "trial": 6, "time_elapsed": 1021819, "serialpos": 6, "key_press": -1, "wordID": 496, "type": "PRES_AUD", "trial_index": 219}, "uniqueid": "MTK2672:386PBUZZXG4OF6BKKZVTCKRPARIJLS", "dateTime": 1519233983196}, {"current_trial": 220, "trialdata": {"rt": -1000, "trial_type": "single-audio", "word": "staple", "stimulus": "/static/audio/wordpool/STAPLE.wav", "conditions": [24, 800, "a", 24000], "internal_node_id": "0.0-157.0", "trial": 6, "time_elapsed": 1023469, "serialpos": 7, "key_press": -1, "wordID": 1370, "type": "PRES_AUD", "trial_index": 220}, "uniqueid": "MTK2672:386PBUZZXG4OF6BKKZVTCKRPARIJLS", "dateTime": 1519233984845}, {"current_trial": 221, "trialdata": {"rt": -1000, "trial_type": "single-audio", "word": "pastry", "stimulus": "/static/audio/wordpool/PASTRY.wav", "conditions": [24, 800, "a", 24000], "internal_node_id": "0.0-158.0", "trial": 6, "time_elapsed": 1025132, "serialpos": 8, "key_press": -1, "wordID": 1021, "type": "PRES_AUD", "trial_index": 221}, "uniqueid": "MTK2672:386PBUZZXG4OF6BKKZVTCKRPARIJLS", "dateTime": 1519233986508}, {"current_trial": 222, "trialdata": {"rt": -1000, "trial_type": "single-audio", "word": "chauffeur", "stimulus": "/static/audio/wordpool/CHAUFFEUR.wav", "conditions": [24, 800, "a", 24000], "internal_node_id": "0.0-159.0", "trial": 6, "time_elapsed": 1026971, "serialpos": 9, "key_press": -1, "wordID": 282, "type": "PRES_AUD", "trial_index": 222}, "uniqueid": "MTK2672:386PBUZZXG4OF6BKKZVTCKRPARIJLS", "dateTime": 1519233988347}, {"current_trial": 223, "trialdata": {"rt": -1000, "trial_type": "single-audio", "word": "star", "stimulus": "/static/audio/wordpool/STAR.wav", "conditions": [24, 800, "a", 24000], "internal_node_id": "0.0-160.0", "trial": 6, "time_elapsed": 1028849, "serialpos": 10, "key_press": -1, "wordID": 1372, "type": "PRES_AUD", "trial_index": 223}, "uniqueid": "MTK2672:386PBUZZXG4OF6BKKZVTCKRPARIJLS", "dateTime": 1519233990225}, {"current_trial": 224, "trialdata": {"rt": -1000, "trial_type": "single-audio", "word": "branch", "stimulus": "/static/audio/wordpool/BRANCH.wav", "conditions": [24, 800, "a", 24000], "internal_node_id": "0.0-161.0", "trial": 6, "time_elapsed": 1030629, "serialpos": 11, "key_press": -1, "wordID": 167, "type": "PRES_AUD", "trial_index": 224}, "uniqueid": "MTK2672:386PBUZZXG4OF6BKKZVTCKRPARIJLS", "dateTime": 1519233992006}, {"current_trial": 225, "trialdata": {"rt": -1000, "trial_type": "single-audio", "word": "partner", "stimulus": "/static/audio/wordpool/PARTNER.wav", "conditions": [24, 800, "a", 24000], "internal_node_id": "0.0-162.0", "trial": 6, "time_elapsed": 1032451, "serialpos": 12, "key_press": -1, "wordID": 1016, "type": "PRES_AUD", "trial_index": 225}, "uniqueid": "MTK2672:386PBUZZXG4OF6BKKZVTCKRPARIJLS", "dateTime": 1519233993828}, {"current_trial": 226, "trialdata": {"rt": -1000, "trial_type": "single-audio", "word": "turnip", "stimulus": "/static/audio/wordpool/TURNIP.wav", "conditions": [24, 800, "a", 24000], "internal_node_id": "0.0-163.0", "trial": 6, "time_elapsed": 1034166, "serialpos": 13, "key_press": -1, "wordID": 1520, "type": "PRES_AUD", "trial_index": 226}, "uniqueid": "MTK2672:386PBUZZXG4OF6BKKZVTCKRPARIJLS", "dateTime": 1519233995542}, {"current_trial": 227, "trialdata": {"rt": -1000, "trial_type": "single-audio", "word": "dorm", "stimulus": "/static/audio/wordpool/DORM.wav", "conditions": [24, 800, "a", 24000], "internal_node_id": "0.0-164.0", "trial": 6, "time_elapsed": 1036082, "serialpos": 14, "key_press": -1, "wordID": 487, "type": "PRES_AUD", "trial_index": 227}, "uniqueid": "MTK2672:386PBUZZXG4OF6BKKZVTCKRPARIJLS", "dateTime": 1519233997458}, {"current_trial": 228, "trialdata": {"rt": -1000, "trial_type": "single-audio", "word": "sister", "stimulus": "/static/audio/wordpool/SISTER.wav", "conditions": [24, 800, "a", 24000], "internal_node_id": "0.0-165.0", "trial": 6, "time_elapsed": 1037712, "serialpos": 15, "key_press": -1, "wordID": 1311, "type": "PRES_AUD", "trial_index": 228}, "uniqueid": "MTK2672:386PBUZZXG4OF6BKKZVTCKRPARIJLS", "dateTime": 1519233999088}, {"current_trial": 229, "trialdata": {"rt": -1000, "trial_type": "single-audio", "word": "picnic", "stimulus": "/static/audio/wordpool/PICNIC.wav", "conditions": [24, 800, "a", 24000], "internal_node_id": "0.0-166.0", "trial": 6, "time_elapsed": 1039613, "serialpos": 16, "key_press": -1, "wordID": 1059, "type": "PRES_AUD", "trial_index": 229}, "uniqueid": "MTK2672:386PBUZZXG4OF6BKKZVTCKRPARIJLS", "dateTime": 1519234000989}, {"current_trial": 230, "trialdata": {"rt": -1000, "trial_type": "single-audio", "word": "college", "stimulus": "/static/audio/wordpool/COLLEGE.wav", "conditions": [24, 800, "a", 24000], "internal_node_id": "0.0-167.0", "trial": 6, "time_elapsed": 1041385, "serialpos": 17, "key_press": -1, "wordID": 345, "type": "PRES_AUD", "trial_index": 230}, "uniqueid": "MTK2672:386PBUZZXG4OF6BKKZVTCKRPARIJLS", "dateTime": 1519234002761}, {"current_trial": 231, "trialdata": {"rt": -1000, "trial_type": "single-audio", "word": "spouse", "stimulus": "/static/audio/wordpool/SPOUSE.wav", "conditions": [24, 800, "a", 24000], "internal_node_id": "0.0-168.0", "trial": 6, "time_elapsed": 1043070, "serialpos": 18, "key_press": -1, "wordID": 1357, "type": "PRES_AUD", "trial_index": 231}, "uniqueid": "MTK2672:386PBUZZXG4OF6BKKZVTCKRPARIJLS", "dateTime": 1519234004446}, {"current_trial": 232, "trialdata": {"rt": -1000, "trial_type": "single-audio", "word": "europe", "stimulus": "/static/audio/wordpool/EUROPE.wav", "conditions": [24, 800, "a", 24000], "internal_node_id": "0.0-169.0", "trial": 6, "time_elapsed": 1044712, "serialpos": 19, "key_press": -1, "wordID": 540, "type": "PRES_AUD", "trial_index": 232}, "uniqueid": "MTK2672:386PBUZZXG4OF6BKKZVTCKRPARIJLS", "dateTime": 1519234006088}, {"current_trial": 233, "trialdata": {"rt": -1000, "trial_type": "single-audio", "word": "egypt", "stimulus": "/static/audio/wordpool/EGYPT.wav", "conditions": [24, 800, "a", 24000], "internal_node_id": "0.0-170.0", "trial": 6, "time_elapsed": 1046703, "serialpos": 20, "key_press": -1, "wordID": 518, "type": "PRES_AUD", "trial_index": 233}, "uniqueid": "MTK2672:386PBUZZXG4OF6BKKZVTCKRPARIJLS", "dateTime": 1519234008079}, {"current_trial": 234, "trialdata": {"rt": -1000, "trial_type": "single-audio", "word": "backbone", "stimulus": "/static/audio/wordpool/BACKBONE.wav", "conditions": [24, 800, "a", 24000], "internal_node_id": "0.0-171.0", "trial": 6, "time_elapsed": 1048572, "serialpos": 21, "key_press": -1, "wordID": 65, "type": "PRES_AUD", "trial_index": 234}, "uniqueid": "MTK2672:386PBUZZXG4OF6BKKZVTCKRPARIJLS", "dateTime": 1519234009948}, {"current_trial": 235, "trialdata": {"rt": -1000, "trial_type": "single-audio", "word": "husband", "stimulus": "/static/audio/wordpool/HUSBAND.wav", "conditions": [24, 800, "a", 24000], "internal_node_id": "0.0-172.0", "trial": 6, "time_elapsed": 1050568, "serialpos": 22, "key_press": -1, "wordID": 727, "type": "PRES_AUD", "trial_index": 235}, "uniqueid": "MTK2672:386PBUZZXG4OF6BKKZVTCKRPARIJLS", "dateTime": 1519234011944}, {"current_trial": 236, "trialdata": {"rt": -1000, "trial_type": "single-audio", "word": "puddle", "stimulus": "/static/audio/wordpool/PUDDLE.wav", "conditions": [24, 800, "a", 24000], "internal_node_id": "0.0-173.0", "trial": 6, "time_elapsed": 1052481, "serialpos": 23, "key_press": -1, "wordID": 1139, "type": "PRES_AUD", "trial_index": 236}, "uniqueid": "MTK2672:386PBUZZXG4OF6BKKZVTCKRPARIJLS", "dateTime": 1519234013857}, {"current_trial": 237, "trialdata": {"rt": -1, "trial_type": "single-stim", "stimulus": "", "internal_node_id": "0.0-174.0-0.0", "time_elapsed": 1053863, "key_press": -1, "type": "PRE_RECALL_DELAY", "trial_index": 237}, "uniqueid": "MTK2672:386PBUZZXG4OF6BKKZVTCKRPARIJLS", "dateTime": 1519234015239}, {"current_trial": 238, "trialdata": {"rt": -1000, "trial_type": "single-audio", "stimulus": "/static/audio/400Hz.wav", "internal_node_id": "0.0-175.0", "time_elapsed": 1054364, "key_press": -1, "type": "PRE_RECALL_ALERT", "trial_index": 238}, "uniqueid": "MTK2672:386PBUZZXG4OF6BKKZVTCKRPARIJLS", "dateTime": 1519234015740}, {"current_trial": 239, "trialdata": {"rt": [1185, 4091, 6214, 7891, 10155, 11251, 12790, 15258, 16438, 22883, 48200], "recwords": ["puddle", "europe", "egypt", "backbone", "spouse", "partner", "husband", "cousin", "uncle", "drill", "pastry"], "key_times": [328, 423, 582, 717, 885, 982, 1185, 1885, 1973, 2127, 2362, 2875, 2999, 3130, 3203, 3373, 3415, 3828, 4091, 4347, 4406, 4623, 4803, 5789, 5932, 6214, 6511, 6662, 6841, 7003, 7341, 7460, 7556, 7680, 7891, 9218, 9421, 9485, 9626, 9878, 9935, 10155, 10410, 10493, 10547, 10738, 10875, 10961, 11028, 11251, 11658, 11841, 11926, 12193, 12379, 12522, 12635, 12790, 13756, 13827, 13902, 14085, 14244, 14602, 14732, 14878, 14982, 15089, 15258, 15672, 15882, 16041, 16151, 16266, 16438, 22169, 22285, 22405, 22551, 22709, 22883, 46496, 46602, 46618, 46749, 46870, 47492, 47641, 47790, 48200], "trial_type": "free-recall", "conditions": [24, 800, "a", 24000], "internal_node_id": "0.0-176.0-0.0", "key_presses": [80, 85, 68, 68, 76, 69, 13, 16, 69, 85, 79, 8, 82, 79, 80, 69, 82, 8, 13, 16, 69, 71, 89, 80, 84, 13, 66, 65, 67, 75, 66, 79, 78, 69, 13, 83, 80, 79, 85, 83, 69, 13, 80, 65, 82, 84, 78, 69, 82, 13, 72, 85, 83, 66, 65, 78, 68, 13, 67, 79, 85, 73, 78, 8, 8, 83, 73, 78, 13, 85, 78, 67, 76, 69, 13, 68, 82, 73, 76, 76, 13, 80, 65, 83, 84, 89, 8, 82, 89, 13], "trial": 6, "time_elapsed": 1114366, "type": "FREE_RECALL", "trial_index": 239}, "uniqueid": "MTK2672:386PBUZZXG4OF6BKKZVTCKRPARIJLS", "dateTime": 1519234075745}, {"current_trial": 240, "trialdata": {"rt": 5130, "trial_type": "text", "internal_node_id": "0.0-177.0", "time_elapsed": 1121500, "key_press": 32, "type": "INSTRUCTIONS", "trial_index": 240}, "uniqueid": "MTK2672:386PBUZZXG4OF6BKKZVTCKRPARIJLS", "dateTime": 1519234082876}, {"current_trial": 241, "trialdata": {"rt": [1651, 4011, 6151, 7649, 9498, 11850, 13753, 15458, 17484, 20168, 22295], "trial_type": "math-distractor", "key_times": [1216, 1481, 1651, 3635, 3817, 4011, 5745, 5908, 6151, 7471, 7649, 9073, 9336, 9498, 11120, 11265, 11850, 13343, 13589, 13753, 15097, 15236, 15458, 17120, 17304, 17484, 19763, 19978, 20168, 21974, 22142, 22295], "responses": ["15", "17", "18", "9", "14", "19", "14", "17", "19", "14", "18"], "num2": [7, 5, 3, 2, 1, 6, 6, 4, 5, 5, 7, 8], "num3": [1, 6, 6, 1, 4, 6, 1, 8, 9, 2, 2, 3], "conditions": [24, 800, "a", 24000], "internal_node_id": "0.0-178.0", "key_presses": [49, 53, 13, 49, 55, 13, 49, 56, 13, 57, 13, 49, 52, 13, 49, 57, 13, 49, 52, 13, 49, 55, 13, 49, 57, 13, 49, 52, 13, 49, 56, 13], "trial": 7, "time_elapsed": 1147503, "type": "DISTRACTOR", "trial_index": 241, "num1": [7, 6, 9, 6, 9, 7, 7, 5, 5, 7, 9, 1]}, "uniqueid": "MTK2672:386PBUZZXG4OF6BKKZVTCKRPARIJLS", "dateTime": 1519234108879}, {"current_trial": 242, "trialdata": {"rt": -1, "trial_type": "single-stim", "stimulus": "<p id=\"stim\">10</p>", "internal_node_id": "0.0-179.0-0.0", "time_elapsed": 1150505, "key_press": -1, "trial_index": 242}, "uniqueid": "MTK2672:386PBUZZXG4OF6BKKZVTCKRPARIJLS", "dateTime": 151923411