{"assignmentId": "3R6P78PK7LI27HTOL2CH1Y9QCBEGTD", "workerId": "MTK2653", "questiondata": {"origin": "United States", "strat-rehearsal": "10", "marital": "Married/Domestic Partnership", "education": "Associate degree", "ethnicity": "Not Hispanic", "color_depth": 24, "distracted": "No", "wrote-notes": "No", "strat-other": "Just tried to associate words together, like husband is a spouse to fill crib and buggy.", "screen_width": 1366, "avail_screen_width": 1366, "avail_screen_height": 728, "strat-image": "70", "language": "English", "gender": "Female", "age": "31", "gender_other": "", "race": ["White"], "strat-categorize": "100", "pixel_depth": 24, "strat-spatial": "0", "strat-story": "90", "race_other": "", "screen_height": 768}, "bonus": 0, "hitId": "3W9XHF7WGK25MJRDLRSUA65ZZMOTKF", "counterbalance": 1551, "useragent": "Mozilla/5.0 (Windows NT 10.0; Win64; x64) AppleWebKit/537.36 (KHTML, like Gecko) Chrome/64.0.3282.167 Safari/537.36", "eventdata": [{"eventtype": "initialized", "interval": 0, "value": null, "timestamp": 1519185456485}, {"eventtype": "window_resize", "interval": 0, "value": [1366, 721], "timestamp": 1519185456485}, {"eventtype": "focus", "interval": 198859, "value": "off", "timestamp": 1519185655344}, {"eventtype": "focus", "interval": 2013665, "value": "on", "timestamp": 1519187669009}, {"eventtype": "focus", "interval": 1275668, "value": "off", "timestamp": 1519188944677}, {"eventtype": "focus", "interval": 10447, "value": "on", "timestamp": 1519188955124}, {"eventtype": "focus", "interval": 392354, "value": "off", "timestamp": 1519189347478}, {"eventtype": "focus", "interval": 188288, "value": "on", "timestamp": 1519189535766}], "data": [{"current_trial": 0, "trialdata": {"rt": 2758, "trial_type": "text", "internal_node_id": "0.0-0.0", "time_elapsed": 2760, "key_press": 13, "type": "INSTRUCTIONS", "trial_index": 0}, "uniqueid": "MTK2653:3R6P78PK7LI27HTOL2CH1Y9QCBEGTD", "dateTime": 1519185459704}, {"current_trial": 1, "trialdata": {"rt": 4854, "trial_type": "text", "internal_node_id": "0.0-1.0", "time_elapsed": 7615, "key_press": 13, "type": "INSTRUCTIONS", "trial_index": 1}, "uniqueid": "MTK2653:3R6P78PK7LI27HTOL2CH1Y9QCBEGTD", "dateTime": 1519185464559}, {"current_trial": 2, "trialdata": {"rt": [10251], "trial_type": "audio-test", "responses": ["ocean"], "internal_node_id": "0.0-2.0", "time_elapsed": 17870, "type": "AUDIO_TEST", "trial_index": 2}, "uniqueid": "MTK2653:3R6P78PK7LI27HTOL2CH1Y9QCBEGTD", "dateTime": 1519185474814}, {"current_trial": 3, "trialdata": {"rt": [7053], "trial_type": "audio-test", "responses": ["crystal"], "internal_node_id": "0.0-3.0", "time_elapsed": 24927, "type": "AUDIO_TEST", "trial_index": 3}, "uniqueid": "MTK2653:3R6P78PK7LI27HTOL2CH1Y9QCBEGTD", "dateTime": 1519185481870}, {"current_trial": 4, "trialdata": {"rt": [5844], "trial_type": "audio-test", "responses": ["spice"], "internal_node_id": "0.0-4.0", "time_elapsed": 30774, "type": "AUDIO_TEST", "trial_index": 4}, "uniqueid": "MTK2653:3R6P78PK7LI27HTOL2CH1Y9QCBEGTD", "dateTime": 1519185487717}, {"current_trial": 5, "trialdata": {"rt": 15930, "trial_type": "survey-text", "responses": "{\"Q0\":\"0100\",\"Q1\":\"0630\",\"Q2\":\"4\"}", "internal_node_id": "0.0-5.0", "time_elapsed": 47456, "type": "SLEEP_SURVEY", "trial_index": 5}, "uniqueid": "MTK2653:3R6P78PK7LI27HTOL2CH1Y9QCBEGTD", "dateTime": 1519185504400}, {"current_trial": 6, "trialdata": {"rt": 53705, "trial_type": "text", "internal_node_id": "0.0-6.0", "time_elapsed": 102165, "key_press": 13, "type": "INSTRUCTIONS", "trial_index": 6}, "uniqueid": "MTK2653:3R6P78PK7LI27HTOL2CH1Y9QCBEGTD", "dateTime": 1519185559108}, {"current_trial": 7, "trialdata": {"rt": 33655, "trial_type": "text", "internal_node_id": "0.0-7.0", "time_elapsed": 136323, "key_press": 13, "type": "INSTRUCTIONS", "trial_index": 7}, "uniqueid": "MTK2653:3R6P78PK7LI27HTOL2CH1Y9QCBEGTD", "dateTime": 1519185593266}, {"current_trial": 8, "trialdata": {"rt": 2081116, "trial_type": "text", "internal_node_id": "0.0-8.0", "time_elapsed": 2217941, "key_press": 13, "type": "INSTRUCTIONS", "trial_index": 8}, "uniqueid": "MTK2653:3R6P78PK7LI27HTOL2CH1Y9QCBEGTD", "dateTime": 1519187674884}, {"current_trial": 9, "trialdata": {"rt": [4542, 7894, 10101, 14966], "trial_type": "math-distractor", "key_times": [3518, 3758, 4542, 7245, 7430, 7894, 9709, 10101, 13653, 13974, 14966], "responses": ["11", "12", "5", "13"], "num2": [1, 8, 1, 8, 9], "num3": [5, 3, 1, 1, 4], "conditions": [18, 1200, "v", 18000], "internal_node_id": "0.0-9.0", "key_presses": [49, 49, 13, 49, 50, 13, 53, 13, 49, 51, 13], "trial": 0, "time_elapsed": 2236951, "type": "DISTRACTOR", "trial_index": 9, "num1": [5, 1, 3, 4, 3]}, "uniqueid": "MTK2653:3R6P78PK7LI27HTOL2CH1Y9QCBEGTD", "dateTime": 1519187693894}, {"current_trial": 10, "trialdata": {"rt": -1, "trial_type": "single-stim", "stimulus": "<p id=\"stim\">10</p>", "internal_node_id": "0.0-10.0-0.0", "time_elapsed": 2239957, "key_press": -1, "trial_index": 10}, "uniqueid": "MTK2653:3R6P78PK7LI27HTOL2CH1Y9QCBEGTD", "dateTime": 1519187696900}, {"current_trial": 11, "trialdata": {"rt": -1, "trial_type": "single-stim", "stimulus": "<p id=\"stim\">9</p>", "internal_node_id": "0.0-10.0-1.0", "time_elapsed": 2240960, "key_press": -1, "trial_index": 11}, "uniqueid": "MTK2653:3R6P78PK7LI27HTOL2CH1Y9QCBEGTD", "dateTime": 1519187697903}, {"current_trial": 12, "trialdata": {"rt": -1, "trial_type": "single-stim", "stimulus": "<p id=\"stim\">8</p>", "internal_node_id": "0.0-10.0-2.0", "time_elapsed": 2241963, "key_press": -1, "trial_index": 12}, "uniqueid": "MTK2653:3R6P78PK7LI27HTOL2CH1Y9QCBEGTD", "dateTime": 1519187698906}, {"current_trial": 13, "trialdata": {"rt": -1, "trial_type": "single-stim", "stimulus": "<p id=\"stim\">7</p>", "internal_node_id": "0.0-10.0-3.0", "time_elapsed": 2242965, "key_press": -1, "trial_index": 13}, "uniqueid": "MTK2653:3R6P78PK7LI27HTOL2CH1Y9QCBEGTD", "dateTime": 1519187699908}, {"current_trial": 14, "trialdata": {"rt": -1, "trial_type": "single-stim", "stimulus": "<p id=\"stim\">6</p>", "internal_node_id": "0.0-10.0-4.0", "time_elapsed": 2243969, "key_press": -1, "trial_index": 14}, "uniqueid": "MTK2653:3R6P78PK7LI27HTOL2CH1Y9QCBEGTD", "dateTime": 1519187700912}, {"current_trial": 15, "trialdata": {"rt": -1, "trial_type": "single-stim", "stimulus": "<p id=\"stim\">5</p>", "internal_node_id": "0.0-10.0-5.0", "time_elapsed": 2244971, "key_press": -1, "trial_index": 15}, "uniqueid": "MTK2653:3R6P78PK7LI27HTOL2CH1Y9QCBEGTD", "dateTime": 1519187701914}, {"current_trial": 16, "trialdata": {"rt": -1, "trial_type": "single-stim", "stimulus": "<p id=\"stim\">4</p>", "internal_node_id": "0.0-10.0-6.0", "time_elapsed": 2245973, "key_press": -1, "trial_index": 16}, "uniqueid": "MTK2653:3R6P78PK7LI27HTOL2CH1Y9QCBEGTD", "dateTime": 1519187702916}, {"current_trial": 17, "trialdata": {"rt": -1, "trial_type": "single-stim", "stimulus": "<p id=\"stim\">3</p>", "internal_node_id": "0.0-10.0-7.0", "time_elapsed": 2246974, "key_press": -1, "trial_index": 17}, "uniqueid": "MTK2653:3R6P78PK7LI27HTOL2CH1Y9QCBEGTD", "dateTime": 1519187703917}, {"current_trial": 18, "trialdata": {"rt": -1, "trial_type": "single-stim", "stimulus": "<p id=\"stim\">2</p>", "internal_node_id": "0.0-10.0-8.0", "time_elapsed": 2247976, "key_press": -1, "trial_index": 18}, "uniqueid": "MTK2653:3R6P78PK7LI27HTOL2CH1Y9QCBEGTD", "dateTime": 1519187704919}, {"current_trial": 19, "trialdata": {"rt": -1, "trial_type": "single-stim", "stimulus": "<p id=\"stim\">1</p>", "internal_node_id": "0.0-10.0-9.0", "time_elapsed": 2248978, "key_press": -1, "trial_index": 19}, "uniqueid": "MTK2653:3R6P78PK7LI27HTOL2CH1Y9QCBEGTD", "dateTime": 1519187705921}, {"current_trial": 20, "trialdata": {"rt": -1, "trial_type": "single-stim", "stimulus": "<p id=\"stim\">+</p>", "internal_node_id": "0.0-11.0-0.0", "time_elapsed": 2250480, "key_press": -1, "type": "FIXATION", "trial_index": 20}, "uniqueid": "MTK2653:3R6P78PK7LI27HTOL2CH1Y9QCBEGTD", "dateTime": 1519187707423}, {"current_trial": 21, "trialdata": {"rt": -1, "trial_type": "single-stim", "word": "whistle", "stimulus": "<p id=\"stim\">WHISTLE</p>", "conditions": [18, 1200, "v", 18000], "internal_node_id": "0.0-12.0", "trial": 0, "time_elapsed": 2251682, "serialpos": 0, "key_press": -1, "wordID": 1605, "type": "PRES_VIS", "trial_index": 21}, "uniqueid": "MTK2653:3R6P78PK7LI27HTOL2CH1Y9QCBEGTD", "dateTime": 1519187708625}, {"current_trial": 22, "trialdata": {"rt": -1, "trial_type": "single-stim", "word": "couch", "stimulus": "<p id=\"stim\">COUCH</p>", "conditions": [18, 1200, "v", 18000], "internal_node_id": "0.0-13.0", "trial": 0, "time_elapsed": 2253926, "serialpos": 1, "key_press": -1, "wordID": 385, "type": "PRES_VIS", "trial_index": 22}, "uniqueid": "MTK2653:3R6P78PK7LI27HTOL2CH1Y9QCBEGTD", "dateTime": 1519187710869}, {"current_trial": 23, "trialdata": {"rt": -1, "trial_type": "single-stim", "word": "queen", "stimulus": "<p id=\"stim\">QUEEN</p>", "conditions": [18, 1200, "v", 18000], "internal_node_id": "0.0-14.0", "trial": 0, "time_elapsed": 2255987, "serialpos": 2, "key_press": -1, "wordID": 1148, "type": "PRES_VIS", "trial_index": 23}, "uniqueid": "MTK2653:3R6P78PK7LI27HTOL2CH1Y9QCBEGTD", "dateTime": 1519187712930}, {"current_trial": 24, "trialdata": {"rt": -1, "trial_type": "single-stim", "word": "lake", "stimulus": "<p id=\"stim\">LAKE</p>", "conditions": [18, 1200, "v", 18000], "internal_node_id": "0.0-15.0", "trial": 0, "time_elapsed": 2258214, "serialpos": 3, "key_press": -1, "wordID": 795, "type": "PRES_VIS", "trial_index": 24}, "uniqueid": "MTK2653:3R6P78PK7LI27HTOL2CH1Y9QCBEGTD", "dateTime": 1519187715157}, {"current_trial": 25, "trialdata": {"rt": -1, "trial_type": "single-stim", "word": "lodge", "stimulus": "<p id=\"stim\">LODGE</p>", "conditions": [18, 1200, "v", 18000], "internal_node_id": "0.0-16.0", "trial": 0, "time_elapsed": 2260520, "serialpos": 4, "key_press": -1, "wordID": 838, "type": "PRES_VIS", "trial_index": 25}, "uniqueid": "MTK2653:3R6P78PK7LI27HTOL2CH1Y9QCBEGTD", "dateTime": 1519187717463}, {"current_trial": 26, "trialdata": {"rt": -1, "trial_type": "single-stim", "word": "crayon", "stimulus": "<p id=\"stim\">CRAYON</p>", "conditions": [18, 1200, "v", 18000], "internal_node_id": "0.0-17.0", "trial": 0, "time_elapsed": 2262602, "serialpos": 5, "key_press": -1, "wordID": 400, "type": "PRES_VIS", "trial_index": 26}, "uniqueid": "MTK2653:3R6P78PK7LI27HTOL2CH1Y9QCBEGTD", "dateTime": 1519187719545}, {"current_trial": 27, "trialdata": {"rt": -1, "trial_type": "single-stim", "word": "swamp", "stimulus": "<p id=\"stim\">SWAMP</p>", "conditions": [18, 1200, "v", 18000], "internal_node_id": "0.0-18.0", "trial": 0, "time_elapsed": 2264606, "serialpos": 6, "key_press": -1, "wordID": 1415, "type": "PRES_VIS", "trial_index": 27}, "uniqueid": "MTK2653:3R6P78PK7LI27HTOL2CH1Y9QCBEGTD", "dateTime": 1519187721549}, {"current_trial": 28, "trialdata": {"rt": -1, "trial_type": "single-stim", "word": "apple", "stimulus": "<p id=\"stim\">APPLE</p>", "conditions": [18, 1200, "v", 18000], "internal_node_id": "0.0-19.0", "trial": 0, "time_elapsed": 2266874, "serialpos": 7, "key_press": -1, "wordID": 32, "type": "PRES_VIS", "trial_index": 28}, "uniqueid": "MTK2653:3R6P78PK7LI27HTOL2CH1Y9QCBEGTD", "dateTime": 1519187723818}, {"current_trial": 29, "trialdata": {"rt": -1, "trial_type": "single-stim", "word": "pizza", "stimulus": "<p id=\"stim\">PIZZA</p>", "conditions": [18, 1200, "v", 18000], "internal_node_id": "0.0-20.0", "trial": 0, "time_elapsed": 2268969, "serialpos": 8, "key_press": -1, "wordID": 1078, "type": "PRES_VIS", "trial_index": 29}, "uniqueid": "MTK2653:3R6P78PK7LI27HTOL2CH1Y9QCBEGTD", "dateTime": 1519187725912}, {"current_trial": 30, "trialdata": {"rt": -1, "trial_type": "single-stim", "word": "passage", "stimulus": "<p id=\"stim\">PASSAGE</p>", "conditions": [18, 1200, "v", 18000], "internal_node_id": "0.0-21.0", "trial": 0, "time_elapsed": 2271290, "serialpos": 9, "key_press": -1, "wordID": 1018, "type": "PRES_VIS", "trial_index": 30}, "uniqueid": "MTK2653:3R6P78PK7LI27HTOL2CH1Y9QCBEGTD", "dateTime": 1519187728233}, {"current_trial": 31, "trialdata": {"rt": -1, "trial_type": "single-stim", "word": "freckle", "stimulus": "<p id=\"stim\">FRECKLE</p>", "conditions": [18, 1200, "v", 18000], "internal_node_id": "0.0-22.0", "trial": 0, "time_elapsed": 2273646, "serialpos": 10, "key_press": -1, "wordID": 601, "type": "PRES_VIS", "trial_index": 31}, "uniqueid": "MTK2653:3R6P78PK7LI27HTOL2CH1Y9QCBEGTD", "dateTime": 1519187730589}, {"current_trial": 32, "trialdata": {"rt": -1, "trial_type": "single-stim", "word": "twig", "stimulus": "<p id=\"stim\">TWIG</p>", "conditions": [18, 1200, "v", 18000], "internal_node_id": "0.0-23.0", "trial": 0, "time_elapsed": 2275842, "serialpos": 11, "key_press": -1, "wordID": 1526, "type": "PRES_VIS", "trial_index": 32}, "uniqueid": "MTK2653:3R6P78PK7LI27HTOL2CH1Y9QCBEGTD", "dateTime": 1519187732785}, {"current_trial": 33, "trialdata": {"rt": -1, "trial_type": "single-stim", "word": "tablet", "stimulus": "<p id=\"stim\">TABLET</p>", "conditions": [18, 1200, "v", 18000], "internal_node_id": "0.0-24.0", "trial": 0, "time_elapsed": 2278043, "serialpos": 12, "key_press": -1, "wordID": 1426, "type": "PRES_VIS", "trial_index": 33}, "uniqueid": "MTK2653:3R6P78PK7LI27HTOL2CH1Y9QCBEGTD", "dateTime": 1519187734986}, {"current_trial": 34, "trialdata": {"rt": -1, "trial_type": "single-stim", "word": "pistol", "stimulus": "<p id=\"stim\">PISTOL</p>", "conditions": [18, 1200, "v", 18000], "internal_node_id": "0.0-25.0", "trial": 0, "time_elapsed": 2280152, "serialpos": 13, "key_press": -1, "wordID": 1074, "type": "PRES_VIS", "trial_index": 34}, "uniqueid": "MTK2653:3R6P78PK7LI27HTOL2CH1Y9QCBEGTD", "dateTime": 1519187737095}, {"current_trial": 35, "trialdata": {"rt": -1, "trial_type": "single-stim", "word": "barrel", "stimulus": "<p id=\"stim\">BARREL</p>", "conditions": [18, 1200, "v", 18000], "internal_node_id": "0.0-26.0", "trial": 0, "time_elapsed": 2282346, "serialpos": 14, "key_press": -1, "wordID": 90, "type": "PRES_VIS", "trial_index": 35}, "uniqueid": "MTK2653:3R6P78PK7LI27HTOL2CH1Y9QCBEGTD", "dateTime": 1519187739289}, {"current_trial": 36, "trialdata": {"rt": -1, "trial_type": "single-stim", "word": "cocktail", "stimulus": "<p id=\"stim\">COCKTAIL</p>", "conditions": [18, 1200, "v", 18000], "internal_node_id": "0.0-27.0", "trial": 0, "time_elapsed": 2284745, "serialpos": 15, "key_press": -1, "wordID": 337, "type": "PRES_VIS", "trial_index": 36}, "uniqueid": "MTK2653:3R6P78PK7LI27HTOL2CH1Y9QCBEGTD", "dateTime": 1519187741689}, {"current_trial": 37, "trialdata": {"rt": -1, "trial_type": "single-stim", "word": "hawk", "stimulus": "<p id=\"stim\">HAWK</p>", "conditions": [18, 1200, "v", 18000], "internal_node_id": "0.0-28.0", "trial": 0, "time_elapsed": 2286962, "serialpos": 16, "key_press": -1, "wordID": 691, "type": "PRES_VIS", "trial_index": 37}, "uniqueid": "MTK2653:3R6P78PK7LI27HTOL2CH1Y9QCBEGTD", "dateTime": 1519187743905}, {"current_trial": 38, "trialdata": {"rt": -1, "trial_type": "single-stim", "word": "garlic", "stimulus": "<p id=\"stim\">GARLIC</p>", "conditions": [18, 1200, "v", 18000], "internal_node_id": "0.0-29.0", "trial": 0, "time_elapsed": 2288998, "serialpos": 17, "key_press": -1, "wordID": 623, "type": "PRES_VIS", "trial_index": 38}, "uniqueid": "MTK2653:3R6P78PK7LI27HTOL2CH1Y9QCBEGTD", "dateTime": 1519187745941}, {"current_trial": 39, "trialdata": {"rt": -1, "trial_type": "single-stim", "stimulus": "", "internal_node_id": "0.0-30.0-0.0", "time_elapsed": 2291070, "key_press": -1, "type": "PRE_RECALL_DELAY", "trial_index": 39}, "uniqueid": "MTK2653:3R6P78PK7LI27HTOL2CH1Y9QCBEGTD", "dateTime": 1519187748013}, {"current_trial": 40, "trialdata": {"rt": -1000, "trial_type": "single-audio", "stimulus": "/static/audio/400Hz.wav", "internal_node_id": "0.0-31.0", "time_elapsed": 2291574, "key_press": -1, "type": "PRE_RECALL_ALERT", "trial_index": 40}, "uniqueid": "MTK2653:3R6P78PK7LI27HTOL2CH1Y9QCBEGTD", "dateTime": 1519187748517}, {"current_trial": 41, "trialdata": {"rt": [5383, 9767, 13167, 16278, 24934], "recwords": ["cabin", "lake", "vacation", "passage", "cabin"], "key_times": [3776, 3919, 4159, 4623, 4879, 5383, 5847, 5991, 6256, 6258, 6399, 7688, 7919, 8110, 8983, 9159, 9767, 10695, 10831, 11143, 11367, 11991, 12183, 12359, 12543, 13167, 14455, 14623, 14903, 15047, 15222, 15463, 15543, 16278, 22735, 22998, 23199, 24319, 24526, 24934], "trial_type": "free-recall", "conditions": [18, 1200, "v", 18000], "internal_node_id": "0.0-32.0-0.0", "key_presses": [67, 65, 66, 73, 78, 13, 76, 65, 74, 75, 69, 8, 8, 8, 75, 69, 13, 86, 65, 67, 65, 84, 73, 79, 78, 13, 80, 65, 83, 83, 65, 71, 69, 13, 67, 65, 66, 73, 78, 13], "trial": 0, "time_elapsed": 2351580, "type": "FREE_RECALL", "trial_index": 41}, "uniqueid": "MTK2653:3R6P78PK7LI27HTOL2CH1Y9QCBEGTD", "dateTime": 1519187808527}, {"current_trial": 42, "trialdata": {"rt": 2204, "trial_type": "text", "internal_node_id": "0.0-33.0", "time_elapsed": 2355790, "key_press": 13, "type": "INSTRUCTIONS", "trial_index": 42}, "uniqueid": "MTK2653:3R6P78PK7LI27HTOL2CH1Y9QCBEGTD", "dateTime": 1519187812733}, {"current_trial": 43, "trialdata": {"rt": [3923, 7955, 11419, 14115], "trial_type": "math-distractor", "key_times": [3187, 3620, 3923, 7659, 7955, 10580, 11067, 11419, 13380, 13859, 14115], "responses": ["16", "8", "17", "17"], "num2": [8, 3, 3, 7, 9], "num3": [6, 3, 7, 9, 6], "conditions": [18, 1200, "v", 18000], "internal_node_id": "0.0-34.0", "key_presses": [49, 54, 13, 56, 13, 49, 55, 13, 49, 55, 13], "trial": 1, "time_elapsed": 2375796, "type": "DISTRACTOR", "trial_index": 43, "num1": [2, 2, 7, 1, 9]}, "uniqueid": "MTK2653:3R6P78PK7LI27HTOL2CH1Y9QCBEGTD", "dateTime": 1519187832739}, {"current_trial": 44, "trialdata": {"rt": -1, "trial_type": "single-stim", "stimulus": "<p id=\"stim\">10</p>", "internal_node_id": "0.0-35.0-0.0", "time_elapsed": 2378799, "key_press": -1, "trial_index": 44}, "uniqueid": "MTK2653:3R6P78PK7LI27HTOL2CH1Y9QCBEGTD", "dateTime": 1519187835742}, {"current_trial": 45, "trialdata": {"rt": -1, "trial_type": "single-stim", "stimulus": "<p id=\"stim\">9</p>", "internal_node_id": "0.0-35.0-1.0", "time_elapsed": 2379801, "key_press": -1, "trial_index": 45}, "uniqueid": "MTK2653:3R6P78PK7LI27HTOL2CH1Y9QCBEGTD", "dateTime": 1519187836744}, {"current_trial": 46, "trialdata": {"rt": -1, "trial_type": "single-stim", "stimulus": "<p id=\"stim\">8</p>", "internal_node_id": "0.0-35.0-2.0", "time_elapsed": 2380804, "key_press": -1, "trial_index": 46}, "uniqueid": "MTK2653:3R6P78PK7LI27HTOL2CH1Y9QCBEGTD", "dateTime": 1519187837747}, {"current_trial": 47, "trialdata": {"rt": -1, "trial_type": "single-stim", "stimulus": "<p id=\"stim\">7</p>", "internal_node_id": "0.0-35.0-3.0", "time_elapsed": 2381807, "key_press": -1, "trial_index": 47}, "uniqueid": "MTK2653:3R6P78PK7LI27HTOL2CH1Y9QCBEGTD", "dateTime": 1519187838750}, {"current_trial": 48, "trialdata": {"rt": -1, "trial_type": "single-stim", "stimulus": "<p id=\"stim\">6</p>", "internal_node_id": "0.0-35.0-4.0", "time_elapsed": 2382808, "key_press": -1, "trial_index": 48}, "uniqueid": "MTK2653:3R6P78PK7LI27HTOL2CH1Y9QCBEGTD", "dateTime": 1519187839752}, {"current_trial": 49, "trialdata": {"rt": -1, "trial_type": "single-stim", "stimulus": "<p id=\"stim\">5</p>", "internal_node_id": "0.0-35.0-5.0", "time_elapsed": 2383811, "key_press": -1, "trial_index": 49}, "uniqueid": "MTK2653:3R6P78PK7LI27HTOL2CH1Y9QCBEGTD", "dateTime": 1519187840754}, {"current_trial": 50, "trialdata": {"rt": -1, "trial_type": "single-stim", "stimulus": "<p id=\"stim\">4</p>", "internal_node_id": "0.0-35.0-6.0", "time_elapsed": 2384812, "key_press": -1, "trial_index": 50}, "uniqueid": "MTK2653:3R6P78PK7LI27HTOL2CH1Y9QCBEGTD", "dateTime": 1519187841755}, {"current_trial": 51, "trialdata": {"rt": -1, "trial_type": "single-stim", "stimulus": "<p id=\"stim\">3</p>", "internal_node_id": "0.0-35.0-7.0", "time_elapsed": 2385814, "key_press": -1, "trial_index": 51}, "uniqueid": "MTK2653:3R6P78PK7LI27HTOL2CH1Y9QCBEGTD", "dateTime": 1519187842757}, {"current_trial": 52, "trialdata": {"rt": -1, "trial_type": "single-stim", "stimulus": "<p id=\"stim\">2</p>", "internal_node_id": "0.0-35.0-8.0", "time_elapsed": 2386816, "key_press": -1, "trial_index": 52}, "uniqueid": "MTK2653:3R6P78PK7LI27HTOL2CH1Y9QCBEGTD", "dateTime": 1519187843760}, {"current_trial": 53, "trialdata": {"rt": -1, "trial_type": "single-stim", "stimulus": "<p id=\"stim\">1</p>", "internal_node_id": "0.0-35.0-9.0", "time_elapsed": 2387819, "key_press": -1, "trial_index": 53}, "uniqueid": "MTK2653:3R6P78PK7LI27HTOL2CH1Y9QCBEGTD", "dateTime": 1519187844762}, {"current_trial": 54, "trialdata": {"rt": -1, "trial_type": "single-stim", "stimulus": "<p id=\"stim\">+</p>", "internal_node_id": "0.0-36.0-0.0", "time_elapsed": 2389321, "key_press": -1, "type": "FIXATION", "trial_index": 54}, "uniqueid": "MTK2653:3R6P78PK7LI27HTOL2CH1Y9QCBEGTD", "dateTime": 1519187846264}, {"current_trial": 55, "trialdata": {"rt": -1, "trial_type": "single-stim", "word": "powder", "stimulus": "<p id=\"stim\">POWDER</p>", "conditions": [18, 1200, "v", 18000], "internal_node_id": "0.0-37.0", "trial": 1, "time_elapsed": 2390522, "serialpos": 0, "key_press": -1, "wordID": 1116, "type": "PRES_VIS", "trial_index": 55}, "uniqueid": "MTK2653:3R6P78PK7LI27HTOL2CH1Y9QCBEGTD", "dateTime": 1519187847465}, {"current_trial": 56, "trialdata": {"rt": -1, "trial_type": "single-stim", "word": "receipt", "stimulus": "<p id=\"stim\">RECEIPT</p>", "conditions": [18, 1200, "v", 18000], "internal_node_id": "0.0-38.0", "trial": 1, "time_elapsed": 2392853, "serialpos": 1, "key_press": -1, "wordID": 1172, "type": "PRES_VIS", "trial_index": 56}, "uniqueid": "MTK2653:3R6P78PK7LI27HTOL2CH1Y9QCBEGTD", "dateTime": 1519187849796}, {"current_trial": 57, "trialdata": {"rt": -1, "trial_type": "single-stim", "word": "fruit", "stimulus": "<p id=\"stim\">FRUIT</p>", "conditions": [18, 1200, "v", 18000], "internal_node_id": "0.0-39.0", "trial": 1, "time_elapsed": 2395050, "serialpos": 2, "key_press": -1, "wordID": 609, "type": "PRES_VIS", "trial_index": 57}, "uniqueid": "MTK2653:3R6P78PK7LI27HTOL2CH1Y9QCBEGTD", "dateTime": 1519187851994}, {"current_trial": 58, "trialdata": {"rt": -1, "trial_type": "single-stim", "word": "switch", "stimulus": "<p id=\"stim\">SWITCH</p>", "conditions": [18, 1200, "v", 18000], "internal_node_id": "0.0-40.0", "trial": 1, "time_elapsed": 2397413, "serialpos": 3, "key_press": -1, "wordID": 1421, "type": "PRES_VIS", "trial_index": 58}, "uniqueid": "MTK2653:3R6P78PK7LI27HTOL2CH1Y9QCBEGTD", "dateTime": 1519187854356}, {"current_trial": 59, "trialdata": {"rt": -1, "trial_type": "single-stim", "word": "coin", "stimulus": "<p id=\"stim\">COIN</p>", "conditions": [18, 1200, "v", 18000], "internal_node_id": "0.0-41.0", "trial": 1, "time_elapsed": 2399766, "serialpos": 4, "key_press": -1, "wordID": 342, "type": "PRES_VIS", "trial_index": 59}, "uniqueid": "MTK2653:3R6P78PK7LI27HTOL2CH1Y9QCBEGTD", "dateTime": 1519187856709}, {"current_trial": 60, "trialdata": {"rt": -1, "trial_type": "single-stim", "word": "whiskers", "stimulus": "<p id=\"stim\">WHISKERS</p>", "conditions": [18, 1200, "v", 18000], "internal_node_id": "0.0-42.0", "trial": 1, "time_elapsed": 2401913, "serialpos": 5, "key_press": -1, "wordID": 1604, "type": "PRES_VIS", "trial_index": 60}, "uniqueid": "MTK2653:3R6P78PK7LI27HTOL2CH1Y9QCBEGTD", "dateTime": 1519187858856}, {"current_trial": 61, "trialdata": {"rt": -1, "trial_type": "single-stim", "word": "turkey", "stimulus": "<p id=\"stim\">TURKEY</p>", "conditions": [18, 1200, "v", 18000], "internal_node_id": "0.0-43.0", "trial": 1, "time_elapsed": 2404128, "serialpos": 6, "key_press": -1, "wordID": 1519, "type": "PRES_VIS", "trial_index": 61}, "uniqueid": "MTK2653:3R6P78PK7LI27HTOL2CH1Y9QCBEGTD", "dateTime": 1519187861071}, {"current_trial": 62, "trialdata": {"rt": -1, "trial_type": "single-stim", "word": "headband", "stimulus": "<p id=\"stim\">HEADBAND</p>", "conditions": [18, 1200, "v", 18000], "internal_node_id": "0.0-44.0", "trial": 1, "time_elapsed": 2406303, "serialpos": 7, "key_press": -1, "wordID": 695, "type": "PRES_VIS", "trial_index": 62}, "uniqueid": "MTK2653:3R6P78PK7LI27HTOL2CH1Y9QCBEGTD", "dateTime": 1519187863247}, {"current_trial": 63, "trialdata": {"rt": -1, "trial_type": "single-stim", "word": "luggage", "stimulus": "<p id=\"stim\">LUGGAGE</p>", "conditions": [18, 1200, "v", 18000], "internal_node_id": "0.0-45.0", "trial": 1, "time_elapsed": 2408444, "serialpos": 8, "key_press": -1, "wordID": 846, "type": "PRES_VIS", "trial_index": 63}, "uniqueid": "MTK2653:3R6P78PK7LI27HTOL2CH1Y9QCBEGTD", "dateTime": 1519187865387}, {"current_trial": 64, "trialdata": {"rt": -1, "trial_type": "single-stim", "word": "curtain", "stimulus": "<p id=\"stim\">CURTAIN</p>", "conditions": [18, 1200, "v", 18000], "internal_node_id": "0.0-46.0", "trial": 1, "time_elapsed": 2410785, "serialpos": 9, "key_press": -1, "wordID": 426, "type": "PRES_VIS", "trial_index": 64}, "uniqueid": "MTK2653:3R6P78PK7LI27HTOL2CH1Y9QCBEGTD", "dateTime": 1519187867728}, {"current_trial": 65, "trialdata": {"rt": -1, "trial_type": "single-stim", "word": "heart", "stimulus": "<p id=\"stim\">HEART</p>", "conditions": [18, 1200, "v", 18000], "internal_node_id": "0.0-47.0", "trial": 1, "time_elapsed": 2412915, "serialpos": 10, "key_press": -1, "wordID": 696, "type": "PRES_VIS", "trial_index": 65}, "uniqueid": "MTK2653:3R6P78PK7LI27HTOL2CH1Y9QCBEGTD", "dateTime": 1519187869858}, {"current_trial": 66, "trialdata": {"rt": -1, "trial_type": "single-stim", "word": "mailman", "stimulus": "<p id=\"stim\">MAILMAN</p>", "conditions": [18, 1200, "v", 18000], "internal_node_id": "0.0-48.0", "trial": 1, "time_elapsed": 2414963, "serialpos": 11, "key_press": -1, "wordID": 857, "type": "PRES_VIS", "trial_index": 66}, "uniqueid": "MTK2653:3R6P78PK7LI27HTOL2CH1Y9QCBEGTD", "dateTime": 1519187871906}, {"current_trial": 67, "trialdata": {"rt": -1, "trial_type": "single-stim", "word": "silk", "stimulus": "<p id=\"stim\">SILK</p>", "conditions": [18, 1200, "v", 18000], "internal_node_id": "0.0-49.0", "trial": 1, "time_elapsed": 2417136, "serialpos": 12, "key_press": -1, "wordID": 1306, "type": "PRES_VIS", "trial_index": 67}, "uniqueid": "MTK2653:3R6P78PK7LI27HTOL2CH1Y9QCBEGTD", "dateTime": 1519187874079}, {"current_trial": 68, "trialdata": {"rt": -1, "trial_type": "single-stim", "word": "padding", "stimulus": "<p id=\"stim\">PADDING</p>", "conditions": [18, 1200, "v", 18000], "internal_node_id": "0.0-50.0", "trial": 1, "time_elapsed": 2419231, "serialpos": 13, "key_press": -1, "wordID": 998, "type": "PRES_VIS", "trial_index": 68}, "uniqueid": "MTK2653:3R6P78PK7LI27HTOL2CH1Y9QCBEGTD", "dateTime": 1519187876178}, {"current_trial": 69, "trialdata": {"rt": -1, "trial_type": "single-stim", "word": "rifle", "stimulus": "<p id=\"stim\">RIFLE</p>", "conditions": [18, 1200, "v", 18000], "internal_node_id": "0.0-51.0", "trial": 1, "time_elapsed": 2421262, "serialpos": 14, "key_press": -1, "wordID": 1191, "type": "PRES_VIS", "trial_index": 69}, "uniqueid": "MTK2653:3R6P78PK7LI27HTOL2CH1Y9QCBEGTD", "dateTime": 1519187878205}, {"current_trial": 70, "trialdata": {"rt": -1, "trial_type": "single-stim", "word": "monster", "stimulus": "<p id=\"stim\">MONSTER</p>", "conditions": [18, 1200, "v", 18000], "internal_node_id": "0.0-52.0", "trial": 1, "time_elapsed": 2423427, "serialpos": 15, "key_press": -1, "wordID": 911, "type": "PRES_VIS", "trial_index": 70}, "uniqueid": "MTK2653:3R6P78PK7LI27HTOL2CH1Y9QCBEGTD", "dateTime": 1519187880370}, {"current_trial": 71, "trialdata": {"rt": -1, "trial_type": "single-stim", "word": "airport", "stimulus": "<p id=\"stim\">AIRPORT</p>", "conditions": [18, 1200, "v", 18000], "internal_node_id": "0.0-53.0", "trial": 1, "time_elapsed": 2425543, "serialpos": 16, "key_press": -1, "wordID": 12, "type": "PRES_VIS", "trial_index": 71}, "uniqueid": "MTK2653:3R6P78PK7LI27HTOL2CH1Y9QCBEGTD", "dateTime": 1519187882488}, {"current_trial": 72, "trialdata": {"rt": -1, "trial_type": "single-stim", "word": "pecan", "stimulus": "<p id=\"stim\">PECAN</p>", "conditions": [18, 1200, "v", 18000], "internal_node_id": "0.0-54.0", "trial": 1, "time_elapsed": 2427938, "serialpos": 17, "key_press": -1, "wordID": 1035, "type": "PRES_VIS", "trial_index": 72}, "uniqueid": "MTK2653:3R6P78PK7LI27HTOL2CH1Y9QCBEGTD", "dateTime": 1519187884881}, {"current_trial": 73, "trialdata": {"rt": -1, "trial_type": "single-stim", "stimulus": "", "internal_node_id": "0.0-55.0-0.0", "time_elapsed": 2430120, "key_press": -1, "type": "PRE_RECALL_DELAY", "trial_index": 73}, "uniqueid": "MTK2653:3R6P78PK7LI27HTOL2CH1Y9QCBEGTD", "dateTime": 1519187887064}, {"current_trial": 74, "trialdata": {"rt": -1000, "trial_type": "single-audio", "stimulus": "/static/audio/400Hz.wav", "internal_node_id": "0.0-56.0", "time_elapsed": 2430623, "key_press": -1, "type": "PRE_RECALL_ALERT", "trial_index": 74}, "uniqueid": "MTK2653:3R6P78PK7LI27HTOL2CH1Y9QCBEGTD", "dateTime": 1519187887566}, {"current_trial": 75, "trialdata": {"rt": [3570, 4033, 5866, 9929, 12017, 14153, 16417, 29848], "recwords": ["rifle", "", "pecan", "whistle", "heart", "curtain", "mailman", "silk"], "key_times": [1914, 2202, 2529, 2817, 2946, 3570, 4033, 4401, 4537, 4809, 5089, 5297, 5866, 7737, 7969, 8250, 8585, 8969, 9289, 9425, 9929, 10769, 10921, 11137, 11409, 11609, 12017, 12442, 12714, 12864, 13081, 13409, 13593, 13858, 14153, 14929, 15073, 15217, 15433, 15689, 15809, 15937, 16417, 28009, 28377, 28640, 29697, 29848], "trial_type": "free-recall", "conditions": [18, 1200, "v", 18000], "internal_node_id": "0.0-57.0-0.0", "key_presses": [82, 73, 70, 76, 69, 13, 13, 80, 69, 67, 65, 78, 13, 87, 72, 73, 83, 84, 76, 69, 13, 72, 69, 65, 82, 84, 13, 67, 85, 82, 84, 65, 73, 78, 13, 77, 65, 73, 76, 77, 65, 78, 13, 83, 73, 76, 75, 13], "trial": 1, "time_elapsed": 2490627, "type": "FREE_RECALL", "trial_index": 75}, "uniqueid": "MTK2653:3R6P78PK7LI27HTOL2CH1Y9QCBEGTD", "dateTime": 1519187947573}, {"current_trial": 76, "trialdata": {"rt": 3401, "trial_type": "text", "internal_node_id": "0.0-58.0", "time_elapsed": 2496033, "key_press": 13, "type": "INSTRUCTIONS", "trial_index": 76}, "uniqueid": "MTK2653:3R6P78PK7LI27HTOL2CH1Y9QCBEGTD", "dateTime": 1519187952976}, {"current_trial": 77, "trialdata": {"rt": [2773, 5301, 8717, 10733, 13429, 16333, 21404], "trial_type": "math-distractor", "key_times": [1838, 2301, 2773, 5125, 5301, 8205, 8541, 8717, 10542, 10733, 12517, 13229, 13429, 15324, 16133, 16333, 20765, 21069, 21404], "responses": ["18", "7", "16", "6", "18", "19", "25"], "num2": [5, 2, 6, 1, 9, 9, 7, 4], "num3": [5, 4, 3, 1, 1, 5, 9, 7], "conditions": [12, 1600, "v", 24000], "internal_node_id": "0.0-59.0", "key_presses": [49, 56, 13, 55, 13, 49, 54, 13, 54, 13, 49, 56, 13, 49, 57, 13, 50, 53, 13], "trial": 2, "time_elapsed": 2521038, "type": "DISTRACTOR", "trial_index": 77, "num1": [8, 1, 7, 4, 8, 5, 9, 5]}, "uniqueid": "MTK2653:3R6P78PK7LI27HTOL2CH1Y9QCBEGTD", "dateTime": 1519187977981}, {"current_trial": 78, "trialdata": {"rt": -1, "trial_type": "single-stim", "stimulus": "<p id=\"stim\">10</p>", "internal_node_id": "0.0-60.0-0.0", "time_elapsed": 2524041, "key_press": -1, "trial_index": 78}, "uniqueid": "MTK2653:3R6P78PK7LI27HTOL2CH1Y9QCBEGTD", "dateTime": 1519187980984}, {"current_trial": 79, "trialdata": {"rt": -1, "trial_type": "single-stim", "stimulus": "<p id=\"stim\">9</p>", "internal_node_id": "0.0-60.0-1.0", "time_elapsed": 2525042, "key_press": -1, "trial_index": 79}, "uniqueid": "MTK2653:3R6P78PK7LI27HTOL2CH1Y9QCBEGTD", "dateTime": 1519187981985}, {"current_trial": 80, "trialdata": {"rt": -1, "trial_type": "single-stim", "stimulus": "<p id=\"stim\">8</p>", "internal_node_id": "0.0-60.0-2.0", "time_elapsed": 2526043, "key_press": -1, "trial_index": 80}, "uniqueid": "MTK2653:3R6P78PK7LI27HTOL2CH1Y9QCBEGTD", "dateTime": 1519187982986}, {"current_trial": 81, "trialdata": {"rt": -1, "trial_type": "single-stim", "stimulus": "<p id=\"stim\">7</p>", "internal_node_id": "0.0-60.0-3.0", "time_elapsed": 2527047, "key_press": -1, "trial_index": 81}, "uniqueid": "MTK2653:3R6P78PK7LI27HTOL2CH1Y9QCBEGTD", "dateTime": 1519187983990}, {"current_trial": 82, "trialdata": {"rt": -1, "trial_type": "single-stim", "stimulus": "<p id=\"stim\">6</p>", "internal_node_id": "0.0-60.0-4.0", "time_elapsed": 2528048, "key_press": -1, "trial_index": 82}, "uniqueid": "MTK2653:3R6P78PK7LI27HTOL2CH1Y9QCBEGTD", "dateTime": 1519187984991}, {"current_trial": 83, "trialdata": {"rt": -1, "trial_type": "single-stim", "stimulus": "<p id=\"stim\">5</p>", "internal_node_id": "0.0-60.0-5.0", "time_elapsed": 2529050, "key_press": -1, "trial_index": 83}, "uniqueid": "MTK2653:3R6P78PK7LI27HTOL2CH1Y9QCBEGTD", "dateTime": 1519187985993}, {"current_trial": 84, "trialdata": {"rt": -1, "trial_type": "single-stim", "stimulus": "<p id=\"stim\">4</p>", "internal_node_id": "0.0-60.0-6.0", "time_elapsed": 2530052, "key_press": -1, "trial_index": 84}, "uniqueid": "MTK2653:3R6P78PK7LI27HTOL2CH1Y9QCBEGTD", "dateTime": 1519187986995}, {"current_trial": 85, "trialdata": {"rt": -1, "trial_type": "single-stim", "stimulus": "<p id=\"stim\">3</p>", "internal_node_id": "0.0-60.0-7.0", "time_elapsed": 2531053, "key_press": -1, "trial_index": 85}, "uniqueid": "MTK2653:3R6P78PK7LI27HTOL2CH1Y9QCBEGTD", "dateTime": 1519187987996}, {"current_trial": 86, "trialdata": {"rt": -1, "trial_type": "single-stim", "stimulus": "<p id=\"stim\">2</p>", "internal_node_id": "0.0-60.0-8.0", "time_elapsed": 2532054, "key_press": -1, "trial_index": 86}, "uniqueid": "MTK2653:3R6P78PK7LI27HTOL2CH1Y9QCBEGTD", "dateTime": 1519187988997}, {"current_trial": 87, "trialdata": {"rt": -1, "trial_type": "single-stim", "stimulus": "<p id=\"stim\">1</p>", "internal_node_id": "0.0-60.0-9.0", "time_elapsed": 2533056, "key_press": -1, "trial_index": 87}, "uniqueid": "MTK2653:3R6P78PK7LI27HTOL2CH1Y9QCBEGTD", "dateTime": 1519187990000}, {"current_trial": 88, "trialdata": {"rt": -1, "trial_type": "single-stim", "stimulus": "<p id=\"stim\">+</p>", "internal_node_id": "0.0-61.0-0.0", "time_elapsed": 2534558, "key_press": -1, "type": "FIXATION", "trial_index": 88}, "uniqueid": "MTK2653:3R6P78PK7LI27HTOL2CH1Y9QCBEGTD", "dateTime": 1519187991501}, {"current_trial": 89, "trialdata": {"rt": -1, "trial_type": "single-stim", "word": "jelly", "stimulus": "<p id=\"stim\">JELLY</p>", "conditions": [12, 1600, "v", 24000], "internal_node_id": "0.0-62.0", "trial": 2, "time_elapsed": 2536159, "serialpos": 0, "key_press": -1, "wordID": 754, "type": "PRES_VIS", "trial_index": 89}, "uniqueid": "MTK2653:3R6P78PK7LI27HTOL2CH1Y9QCBEGTD", "dateTime": 1519187993103}, {"current_trial": 90, "trialdata": {"rt": -1, "trial_type": "single-stim", "word": "backbone", "stimulus": "<p id=\"stim\">BACKBONE</p>", "conditions": [12, 1600, "v", 24000], "internal_node_id": "0.0-63.0", "trial": 2, "time_elapsed": 2538915, "serialpos": 1, "key_press": -1, "wordID": 65, "type": "PRES_VIS", "trial_index": 90}, "uniqueid": "MTK2653:3R6P78PK7LI27HTOL2CH1Y9QCBEGTD", "dateTime": 1519187995858}, {"current_trial": 91, "trialdata": {"rt": -1, "trial_type": "single-stim", "word": "girl", "stimulus": "<p id=\"stim\">GIRL</p>", "conditions": [12, 1600, "v", 24000], "internal_node_id": "0.0-64.0", "trial": 2, "time_elapsed": 2541562, "serialpos": 2, "key_press": -1, "wordID": 636, "type": "PRES_VIS", "trial_index": 91}, "uniqueid": "MTK2653:3R6P78PK7LI27HTOL2CH1Y9QCBEGTD", "dateTime": 1519187998505}, {"current_trial": 92, "trialdata": {"rt": -1, "trial_type": "single-stim", "word": "fiddle", "stimulus": "<p id=\"stim\">FIDDLE</p>", "conditions": [12, 1600, "v", 24000], "internal_node_id": "0.0-65.0", "trial": 2, "time_elapsed": 2544318, "serialpos": 3, "key_press": -1, "wordID": 560, "type": "PRES_VIS", "trial_index": 92}, "uniqueid": "MTK2653:3R6P78PK7LI27HTOL2CH1Y9QCBEGTD", "dateTime": 1519188001261}, {"current_trial": 93, "trialdata": {"rt": -1, "trial_type": "single-stim", "word": "gravel", "stimulus": "<p id=\"stim\">GRAVEL</p>", "conditions": [12, 1600, "v", 24000], "internal_node_id": "0.0-66.0", "trial": 2, "time_elapsed": 2546866, "serialpos": 4, "key_press": -1, "wordID": 658, "type": "PRES_VIS", "trial_index": 93}, "uniqueid": "MTK2653:3R6P78PK7LI27HTOL2CH1Y9QCBEGTD", "dateTime": 1519188003809}, {"current_trial": 94, "trialdata": {"rt": -1, "trial_type": "single-stim", "word": "picnic", "stimulus": "<p id=\"stim\">PICNIC</p>", "conditions": [12, 1600, "v", 24000], "internal_node_id": "0.0-67.0", "trial": 2, "time_elapsed": 2549480, "serialpos": 5, "key_press": -1, "wordID": 1059, "type": "PRES_VIS", "trial_index": 94}, "uniqueid": "MTK2653:3R6P78PK7LI27HTOL2CH1Y9QCBEGTD", "dateTime": 1519188006424}, {"current_trial": 95, "trialdata": {"rt": -1, "trial_type": "single-stim", "word": "baby", "stimulus": "<p id=\"stim\">BABY</p>", "conditions": [12, 1600, "v", 24000], "internal_node_id": "0.0-68.0", "trial": 2, "time_elapsed": 2552108, "serialpos": 6, "key_press": -1, "wordID": 63, "type": "PRES_VIS", "trial_index": 95}, "uniqueid": "MTK2653:3R6P78PK7LI27HTOL2CH1Y9QCBEGTD", "dateTime": 1519188009051}, {"current_trial": 96, "trialdata": {"rt": -1, "trial_type": "single-stim", "word": "mars", "stimulus": "<p id=\"stim\">MARS</p>", "conditions": [12, 1600, "v", 24000], "internal_node_id": "0.0-69.0", "trial": 2, "time_elapsed": 2554652, "serialpos": 7, "key_press": -1, "wordID": 872, "type": "PRES_VIS", "trial_index": 96}, "uniqueid": "MTK2653:3R6P78PK7LI27HTOL2CH1Y9QCBEGTD", "dateTime": 1519188011595}, {"current_trial": 97, "trialdata": {"rt": -1, "trial_type": "single-stim", "word": "widow", "stimulus": "<p id=\"stim\">WIDOW</p>", "conditions": [12, 1600, "v", 24000], "internal_node_id": "0.0-70.0", "trial": 2, "time_elapsed": 2557184, "serialpos": 8, "key_press": -1, "wordID": 1607, "type": "PRES_VIS", "trial_index": 97}, "uniqueid": "MTK2653:3R6P78PK7LI27HTOL2CH1Y9QCBEGTD", "dateTime": 1519188014127}, {"current_trial": 98, "trialdata": {"rt": -1, "trial_type": "single-stim", "word": "wife", "stimulus": "<p id=\"stim\">WIFE</p>", "conditions": [12, 1600, "v", 24000], "internal_node_id": "0.0-71.0", "trial": 2, "time_elapsed": 2559831, "serialpos": 9, "key_press": -1, "wordID": 1608, "type": "PRES_VIS", "trial_index": 98}, "uniqueid": "MTK2653:3R6P78PK7LI27HTOL2CH1Y9QCBEGTD", "dateTime": 1519188016774}, {"current_trial": 99, "trialdata": {"rt": -1, "trial_type": "single-stim", "word": "cabin", "stimulus": "<p id=\"stim\">CABIN</p>", "conditions": [12, 1600, "v", 24000], "internal_node_id": "0.0-72.0", "trial": 2, "time_elapsed": 2562370, "serialpos": 10, "key_press": -1, "wordID": 210, "type": "PRES_VIS", "trial_index": 99}, "uniqueid": "MTK2653:3R6P78PK7LI27HTOL2CH1Y9QCBEGTD", "dateTime": 1519188019313}, {"current_trial": 100, "trialdata": {"rt": -1, "trial_type": "single-stim", "word": "captive", "stimulus": "<p id=\"stim\">CAPTIVE</p>", "conditions": [12, 1600, "v", 24000], "internal_node_id": "0.0-73.0", "trial": 2, "time_elapsed": 2565067, "serialpos": 11, "key_press": -1, "wordID": 239, "type": "PRES_VIS", "trial_index": 100}, "uniqueid": "MTK2653:3R6P78PK7LI27HTOL2CH1Y9QCBEGTD", "dateTime": 1519188022010}, {"current_trial": 101, "trialdata": {"rt": -1, "trial_type": "single-stim", "stimulus": "", "internal_node_id": "0.0-74.0-0.0", "time_elapsed": 2567395, "key_press": -1, "type": "PRE_RECALL_DELAY", "trial_index": 101}, "uniqueid": "MTK2653:3R6P78PK7LI27HTOL2CH1Y9QCBEGTD", "dateTime": 1519188024338}, {"current_trial": 102, "trialdata": {"rt": -1000, "trial_type": "single-audio", "stimulus": "/static/audio/400Hz.wav", "internal_node_id": "0.0-75.0", "time_elapsed": 2567898, "key_press": -1, "type": "PRE_RECALL_ALERT", "trial_index": 102}, "uniqueid": "MTK2653:3R6P78PK7LI27HTOL2CH1Y9QCBEGTD", "dateTime": 1519188024841}, {"current_trial": 103, "trialdata": {"rt": [4370, 7034, 9889, 11681, 19305, 21473, 24241, 26377], "recwords": ["cabin", "captive", "widow", "wife", "fiddle", "jelly", "backbone", "girl"], "key_times": [1450, 1730, 1890, 2266, 2849, 3698, 3930, 4370, 4633, 4849, 5025, 5534, 5673, 6137, 6266, 7034, 8258, 8546, 8818, 9081, 9226, 9889, 10340, 10682, 11090, 11305, 11681, 17721, 18001, 18362, 18497, 18698, 18809, 19305, 20345, 20513, 20913, 21073, 21273, 21473, 21954, 22065, 22329, 22697, 23049, 23425, 23745, 23881, 24241, 24897, 25369, 25536, 25905, 26377], "trial_type": "free-recall", "conditions": [12, 1600, "v", 24000], "internal_node_id": "0.0-76.0-0.0", "key_presses": [67, 65, 66, 79, 8, 73, 78, 13, 67, 65, 80, 84, 73, 86, 69, 13, 87, 73, 68, 79, 87, 13, 87, 73, 70, 69, 13, 70, 73, 68, 68, 76, 69, 13, 74, 69, 76, 76, 89, 13, 66, 65, 67, 75, 66, 79, 78, 69, 13, 71, 73, 82, 76, 13], "trial": 2, "time_elapsed": 2627903, "type": "FREE_RECALL", "trial_index": 103}, "uniqueid": "MTK2653:3R6P78PK7LI27HTOL2CH1Y9QCBEGTD", "dateTime": 1519188084848}, {"current_trial": 104, "trialdata": {"rt": 3456, "trial_type": "text", "internal_node_id": "0.0-77.0", "time_elapsed": 2633364, "key_press": 13, "type": "INSTRUCTIONS", "trial_index": 104}, "uniqueid": "MTK2653:3R6P78PK7LI27HTOL2CH1Y9QCBEGTD", "dateTime": 1519188090307}, {"current_trial": 105, "trialdata": {"rt": [4693, 10012], "trial_type": "math-distractor", "key_times": [3885, 4453, 4693, 7901, 8693, 9181, 9797, 10012], "responses": ["17", "15"], "num2": [9, 9, 7], "num3": [4, 3, 5], "conditions": [24, 1600, "v", 12000], "internal_node_id": "0.0-78.0", "key_presses": [49, 55, 13, 50, 8, 49, 53, 13], "trial": 3, "time_elapsed": 2647367, "type": "DISTRACTOR", "trial_index": 105, "num1": [4, 3, 8]}, "uniqueid": "MTK2653:3R6P78PK7LI27HTOL2CH1Y9QCBEGTD", "dateTime": 1519188104310}, {"current_trial": 106, "trialdata": {"rt": -1, "trial_type": "single-stim", "stimulus": "<p id=\"stim\">10</p>", "internal_node_id": "0.0-79.0-0.0", "time_elapsed": 2650370, "key_press": -1, "trial_index": 106}, "uniqueid": "MTK2653:3R6P78PK7LI27HTOL2CH1Y9QCBEGTD", "dateTime": 1519188107313}, {"current_trial": 107, "trialdata": {"rt": -1, "trial_type": "single-stim", "stimulus": "<p id=\"stim\">9</p>", "internal_node_id": "0.0-79.0-1.0", "time_elapsed": 2651371, "key_press": -1, "trial_index": 107}, "uniqueid": "MTK2653:3R6P78PK7LI27HTOL2CH1Y9QCBEGTD", "dateTime": 1519188108314}, {"current_trial": 108, "trialdata": {"rt": -1, "trial_type": "single-stim", "stimulus": "<p id=\"stim\">8</p>", "internal_node_id": "0.0-79.0-2.0", "time_elapsed": 2652373, "key_press": -1, "trial_index": 108}, "uniqueid": "MTK2653:3R6P78PK7LI27HTOL2CH1Y9QCBEGTD", "dateTime": 1519188109316}, {"current_trial": 109, "trialdata": {"rt": -1, "trial_type": "single-stim", "stimulus": "<p id=\"stim\">7</p>", "internal_node_id": "0.0-79.0-3.0", "time_elapsed": 2653375, "key_press": -1, "trial_index": 109}, "uniqueid": "MTK2653:3R6P78PK7LI27HTOL2CH1Y9QCBEGTD", "dateTime": 1519188110319}, {"current_trial": 110, "trialdata": {"rt": -1, "trial_type": "single-stim", "stimulus": "<p id=\"stim\">6</p>", "internal_node_id": "0.0-79.0-4.0", "time_elapsed": 2654378, "key_press": -1, "trial_index": 110}, "uniqueid": "MTK2653:3R6P78PK7LI27HTOL2CH1Y9QCBEGTD", "dateTime": 1519188111321}, {"current_trial": 111, "trialdata": {"rt": -1, "trial_type": "single-stim", "stimulus": "<p id=\"stim\">5</p>", "internal_node_id": "0.0-79.0-5.0", "time_elapsed": 2655379, "key_press": -1, "trial_index": 111}, "uniqueid": "MTK2653:3R6P78PK7LI27HTOL2CH1Y9QCBEGTD", "dateTime": 1519188112322}, {"current_trial": 112, "trialdata": {"rt": -1, "trial_type": "single-stim", "stimulus": "<p id=\"stim\">4</p>", "internal_node_id": "0.0-79.0-6.0", "time_elapsed": 2656380, "key_press": -1, "trial_index": 112}, "uniqueid": "MTK2653:3R6P78PK7LI27HTOL2CH1Y9QCBEGTD", "dateTime": 1519188113323}, {"current_trial": 113, "trialdata": {"rt": -1, "trial_type": "single-stim", "stimulus": "<p id=\"stim\">3</p>", "internal_node_id": "0.0-79.0-7.0", "time_elapsed": 2657381, "key_press": -1, "trial_index": 113}, "uniqueid": "MTK2653:3R6P78PK7LI27HTOL2CH1Y9QCBEGTD", "dateTime": 1519188114325}, {"current_trial": 114, "trialdata": {"rt": -1, "trial_type": "single-stim", "stimulus": "<p id=\"stim\">2</p>", "internal_node_id": "0.0-79.0-8.0", "time_elapsed": 2658382, "key_press": -1, "trial_index": 114}, "uniqueid": "MTK2653:3R6P78PK7LI27HTOL2CH1Y9QCBEGTD", "dateTime": 1519188115325}, {"current_trial": 115, "trialdata": {"rt": -1, "trial_type": "single-stim", "stimulus": "<p id=\"stim\">1</p>", "internal_node_id": "0.0-79.0-9.0", "time_elapsed": 2659384, "key_press": -1, "trial_index": 115}, "uniqueid": "MTK2653:3R6P78PK7LI27HTOL2CH1Y9QCBEGTD", "dateTime": 1519188116327}, {"current_trial": 116, "trialdata": {"rt": -1, "trial_type": "single-stim", "stimulus": "<p id=\"stim\">+</p>", "internal_node_id": "0.0-80.0-0.0", "time_elapsed": 2660887, "key_press": -1, "type": "FIXATION", "trial_index": 116}, "uniqueid": "MTK2653:3R6P78PK7LI27HTOL2CH1Y9QCBEGTD", "dateTime": 1519188117830}, {"current_trial": 117, "trialdata": {"rt": -1, "trial_type": "single-stim", "word": "daisy", "stimulus": "<p id=\"stim\">DAISY</p>", "conditions": [24, 1600, "v", 12000], "internal_node_id": "0.0-81.0", "trial": 3, "time_elapsed": 2662488, "serialpos": 0, "key_press": -1, "wordID": 434, "type": "PRES_VIS", "trial_index": 117}, "uniqueid": "MTK2653:3R6P78PK7LI27HTOL2CH1Y9QCBEGTD", "dateTime": 1519188119431}, {"current_trial": 118, "trialdata": {"rt": -1, "trial_type": "single-stim", "word": "wasp", "stimulus": "<p id=\"stim\">WASP</p>", "conditions": [24, 1600, "v", 12000], "internal_node_id": "0.0-82.0", "trial": 3, "time_elapsed": 2665076, "serialpos": 1, "key_press": -1, "wordID": 1592, "type": "PRES_VIS", "trial_index": 118}, "uniqueid": "MTK2653:3R6P78PK7LI27HTOL2CH1Y9QCBEGTD", "dateTime": 1519188122019}, {"current_trial": 119, "trialdata": {"rt": -1, "trial_type": "single-stim", "word": "hornet", "stimulus": "<p id=\"stim\">HORNET</p>", "conditions": [24, 1600, "v", 12000], "internal_node_id": "0.0-83.0", "trial": 3, "time_elapsed": 2667787, "serialpos": 2, "key_press": -1, "wordID": 717, "type": "PRES_VIS", "trial_index": 119}, "uniqueid": "MTK2653:3R6P78PK7LI27HTOL2CH1Y9QCBEGTD", "dateTime": 1519188124730}, {"current_trial": 120, "trialdata": {"rt": -1, "trial_type": "single-stim", "word": "outfit", "stimulus": "<p id=\"stim\">OUTFIT</p>", "conditions": [24, 1600, "v", 12000], "internal_node_id": "0.0-84.0", "trial": 3, "time_elapsed": 2670505, "serialpos": 3, "key_press": -1, "wordID": 987, "type": "PRES_VIS", "trial_index": 120}, "uniqueid": "MTK2653:3R6P78PK7LI27HTOL2CH1Y9QCBEGTD", "dateTime": 1519188127449}, {"current_trial": 121, "trialdata": {"rt": -1, "trial_type": "single-stim", "word": "statue", "stimulus": "<p id=\"stim\">STATUE</p>", "conditions": [24, 1600, "v", 12000], "internal_node_id": "0.0-85.0", "trial": 3, "time_elapsed": 2673292, "serialpos": 4, "key_press": -1, "wordID": 1373, "type": "PRES_VIS", "trial_index": 121}, "uniqueid": "MTK2653:3R6P78PK7LI27HTOL2CH1Y9QCBEGTD", "dateTime": 1519188130236}, {"current_trial": 122, "trialdata": {"rt": -1, "trial_type": "single-stim", "word": "knapsack", "stimulus": "<p id=\"stim\">KNAPSACK</p>", "conditions": [24, 1600, "v", 12000], "internal_node_id": "0.0-86.0", "trial": 3, "time_elapsed": 2675847, "serialpos": 5, "key_press": -1, "wordID": 782, "type": "PRES_VIS", "trial_index": 122}, "uniqueid": "MTK2653:3R6P78PK7LI27HTOL2CH1Y9QCBEGTD", "dateTime": 1519188132791}, {"current_trial": 123, "trialdata": {"rt": -1, "trial_type": "single-stim", "word": "shorts", "stimulus": "<p id=\"stim\">SHORTS</p>", "conditions": [24, 1600, "v", 12000], "internal_node_id": "0.0-87.0", "trial": 3, "time_elapsed": 2678377, "serialpos": 6, "key_press": -1, "wordID": 1292, "type": "PRES_VIS", "trial_index": 123}, "uniqueid": "MTK2653:3R6P78PK7LI27HTOL2CH1Y9QCBEGTD", "dateTime": 1519188135320}, {"current_trial": 124, "trialdata": {"rt": -1, "trial_type": "single-stim", "word": "rabbit", "stimulus": "<p id=\"stim\">RABBIT</p>", "conditions": [24, 1600, "v", 12000], "internal_node_id": "0.0-88.0", "trial": 3, "time_elapsed": 2680861, "serialpos": 7, "key_press": -1, "wordID": 1151, "type": "PRES_VIS", "trial_index": 124}, "uniqueid": "MTK2653:3R6P78PK7LI27HTOL2CH1Y9QCBEGTD", "dateTime": 1519188137805}, {"current_trial": 125, "trialdata": {"rt": -1, "trial_type": "single-stim", "word": "pudding", "stimulus": "<p id=\"stim\">PUDDING</p>", "conditions": [24, 1600, "v", 12000], "internal_node_id": "0.0-89.0", "trial": 3, "time_elapsed": 2683327, "serialpos": 8, "key_press": -1, "wordID": 1138, "type": "PRES_VIS", "trial_index": 125}, "uniqueid": "MTK2653:3R6P78PK7LI27HTOL2CH1Y9QCBEGTD", "dateTime": 1519188140270}, {"current_trial": 126, "trialdata": {"rt": -1, "trial_type": "single-stim", "word": "pastry", "stimulus": "<p id=\"stim\">PASTRY</p>", "conditions": [24, 1600, "v", 12000], "internal_node_id": "0.0-90.0", "trial": 3, "time_elapsed": 2685882, "serialpos": 9, "key_press": -1, "wordID": 1021, "type": "PRES_VIS", "trial_index": 126}, "uniqueid": "MTK2653:3R6P78PK7LI27HTOL2CH1Y9QCBEGTD", "dateTime": 1519188142826}, {"current_trial": 127, "trialdata": {"rt": -1, "trial_type": "single-stim", "word": "flashlight", "stimulus": "<p id=\"stim\">FLASHLIGHT</p>", "conditions": [24, 1600, "v", 12000], "internal_node_id": "0.0-91.0", "trial": 3, "time_elapsed": 2688379, "serialpos": 10, "key_press": -1, "wordID": 574, "type": "PRES_VIS", "trial_index": 127}, "uniqueid": "MTK2653:3R6P78PK7LI27HTOL2CH1Y9QCBEGTD", "dateTime": 1519188145322}, {"current_trial": 128, "trialdata": {"rt": -1, "trial_type": "single-stim", "word": "suitcase", "stimulus": "<p id=\"stim\">SUITCASE</p>", "conditions": [24, 1600, "v", 12000], "internal_node_id": "0.0-92.0", "trial": 3, "time_elapsed": 2691020, "serialpos": 11, "key_press": -1, "wordID": 1402, "type": "PRES_VIS", "trial_index": 128}, "uniqueid": "MTK2653:3R6P78PK7LI27HTOL2CH1Y9QCBEGTD", "dateTime": 1519188147963}, {"current_trial": 129, "trialdata": {"rt": -1, "trial_type": "single-stim", "word": "brick", "stimulus": "<p id=\"stim\">BRICK</p>", "conditions": [24, 1600, "v", 12000], "internal_node_id": "0.0-93.0", "trial": 3, "time_elapsed": 2693820, "serialpos": 12, "key_press": -1, "wordID": 171, "type": "PRES_VIS", "trial_index": 129}, "uniqueid": "MTK2653:3R6P78PK7LI27HTOL2CH1Y9QCBEGTD", "dateTime": 1519188150763}, {"current_trial": 130, "trialdata": {"rt": -1, "trial_type": "single-stim", "word": "orange", "stimulus": "<p id=\"stim\">ORANGE</p>", "conditions": [24, 1600, "v", 12000], "internal_node_id": "0.0-94.0", "trial": 3, "time_elapsed": 2696580, "serialpos": 13, "key_press": -1, "wordID": 979, "type": "PRES_VIS", "trial_index": 130}, "uniqueid": "MTK2653:3R6P78PK7LI27HTOL2CH1Y9QCBEGTD", "dateTime": 1519188153523}, {"current_trial": 131, "trialdata": {"rt": -1, "trial_type": "single-stim", "word": "rug", "stimulus": "<p id=\"stim\">RUG</p>", "conditions": [24, 1600, "v", 12000], "internal_node_id": "0.0-95.0", "trial": 3, "time_elapsed": 2699290, "serialpos": 14, "key_press": -1, "wordID": 1214, "type": "PRES_VIS", "trial_index": 131}, "uniqueid": "MTK2653:3R6P78PK7LI27HTOL2CH1Y9QCBEGTD", "dateTime": 1519188156234}, {"current_trial": 132, "trialdata": {"rt": -1, "trial_type": "single-stim", "word": "ketchup", "stimulus": "<p id=\"stim\">KETCHUP</p>", "conditions": [24, 1600, "v", 12000], "internal_node_id": "0.0-96.0", "trial": 3, "time_elapsed": 2702067, "serialpos": 15, "key_press": -1, "wordID": 770, "type": "PRES_VIS", "trial_index": 132}, "uniqueid": "MTK2653:3R6P78PK7LI27HTOL2CH1Y9QCBEGTD", "dateTime": 1519188159010}, {"current_trial": 133, "trialdata": {"rt": -1, "trial_type": "single-stim", "word": "robot", "stimulus": "<p id=\"stim\">ROBOT</p>", "conditions": [24, 1600, "v", 12000], "internal_node_id": "0.0-97.0", "trial": 3, "time_elapsed": 2704609, "serialpos": 16, "key_press": -1, "wordID": 1199, "type": "PRES_VIS", "trial_index": 133}, "uniqueid": "MTK2653:3R6P78PK7LI27HTOL2CH1Y9QCBEGTD", "dateTime": 1519188161552}, {"current_trial": 134, "trialdata": {"rt": -1, "trial_type": "single-stim", "word": "panther", "stimulus": "<p id=\"stim\">PANTHER</p>", "conditions": [24, 1600, "v", 12000], "internal_node_id": "0.0-98.0", "trial": 3, "time_elapsed": 2707402, "serialpos": 17, "key_press": -1, "wordID": 1008, "type": "PRES_VIS", "trial_index": 134}, "uniqueid": "MTK2653:3R6P78PK7LI27HTOL2CH1Y9QCBEGTD", "dateTime": 1519188164345}, {"current_trial": 135, "trialdata": {"rt": -1, "trial_type": "single-stim", "word": "sunrise", "stimulus": "<p id=\"stim\">SUNRISE</p>", "conditions": [24, 1600, "v", 12000], "internal_node_id": "0.0-99.0", "trial": 3, "time_elapsed": 2710163, "serialpos": 18, "key_press": -1, "wordID": 1406, "type": "PRES_VIS", "trial_index": 135}, "uniqueid": "MTK2653:3R6P78PK7LI27HTOL2CH1Y9QCBEGTD", "dateTime": 1519188167106}, {"current_trial": 136, "trialdata": {"rt": -1, "trial_type": "single-stim", "word": "taxi", "stimulus": "<p id=\"stim\">TAXI</p>", "conditions": [24, 1600, "v", 12000], "internal_node_id": "0.0-100.0", "trial": 3, "time_elapsed": 2712963, "serialpos": 19, "key_press": -1, "wordID": 1437, "type": "PRES_VIS", "trial_index": 136}, "uniqueid": "MTK2653:3R6P78PK7LI27HTOL2CH1Y9QCBEGTD", "dateTime": 1519188169906}, {"current_trial": 137, "trialdata": {"rt": -1, "trial_type": "single-stim", "word": "badge", "stimulus": "<p id=\"stim\">BADGE</p>", "conditions": [24, 1600, "v", 12000], "internal_node_id": "0.0-101.0", "trial": 3, "time_elapsed": 2715664, "serialpos": 20, "key_press": -1, "wordID": 67, "type": "PRES_VIS", "trial_index": 137}, "uniqueid": "MTK2653:3R6P78PK7LI27HTOL2CH1Y9QCBEGTD", "dateTime": 1519188172607}, {"current_trial": 138, "trialdata": {"rt": -1, "trial_type": "single-stim", "word": "turtle", "stimulus": "<p id=\"stim\">TURTLE</p>", "conditions": [24, 1600, "v", 12000], "internal_node_id": "0.0-102.0", "trial": 3, "time_elapsed": 2718371, "serialpos": 21, "key_press": -1, "wordID": 1521, "type": "PRES_VIS", "trial_index": 138}, "uniqueid": "MTK2653:3R6P78PK7LI27HTOL2CH1Y9QCBEGTD", "dateTime": 1519188175314}, {"current_trial": 139, "trialdata": {"rt": -1, "trial_type": "single-stim", "word": "seafood", "stimulus": "<p id=\"stim\">SEAFOOD</p>", "conditions": [24, 1600, "v", 12000], "internal_node_id": "0.0-103.0", "trial": 3, "time_elapsed": 2721032, "serialpos": 22, "key_press": -1, "wordID": 1259, "type": "PRES_VIS", "trial_index": 139}, "uniqueid": "MTK2653:3R6P78PK7LI27HTOL2CH1Y9QCBEGTD", "dateTime": 1519188177975}, {"current_trial": 140, "trialdata": {"rt": -1, "trial_type": "single-stim", "word": "salmon", "stimulus": "<p id=\"stim\">SALMON</p>", "conditions": [24, 1600, "v", 12000], "internal_node_id": "0.0-104.0", "trial": 3, "time_elapsed": 2723823, "serialpos": 23, "key_press": -1, "wordID": 1226, "type": "PRES_VIS", "trial_index": 140}, "uniqueid": "MTK2653:3R6P78PK7LI27HTOL2CH1Y9QCBEGTD", "dateTime": 1519188180766}, {"current_trial": 141, "trialdata": {"rt": -1, "trial_type": "single-stim", "stimulus": "", "internal_node_id": "0.0-105.0-0.0", "time_elapsed": 2726230, "key_press": -1, "type": "PRE_RECALL_DELAY", "trial_index": 141}, "uniqueid": "MTK2653:3R6P78PK7LI27HTOL2CH1Y9QCBEGTD", "dateTime": 1519188183173}, {"current_trial": 142, "trialdata": {"rt": -1000, "trial_type": "single-audio", "stimulus": "/static/audio/400Hz.wav", "internal_node_id": "0.0-106.0", "time_elapsed": 2726731, "key_press": -1, "type": "PRE_RECALL_ALERT", "trial_index": 142}, "uniqueid": "MTK2653:3R6P78PK7LI27HTOL2CH1Y9QCBEGTD", "dateTime": 1519188183675}, {"current_trial": 143, "trialdata": {"rt": [3643, 5891, 8298, 10307, 12970, 15586, 18442, 46346, 49961, 52081], "recwords": ["salmon", "seafood", "wasp", "daisy", "hornet", "outfit", "brick", "shellfish", "seafood", "salmon"], "key_times": [2131, 2315, 2564, 2795, 3027, 3258, 3643, 4178, 4387, 4627, 4955, 5266, 5443, 5610, 5891, 7019, 7219, 7387, 7755, 8298, 8867, 9083, 9323, 9458, 9771, 10307, 10835, 11187, 11386, 11762, 12171, 12403, 12970, 13762, 14051, 14283, 14538, 15011, 15331, 15586, 17099, 17250, 17546, 17794, 17971, 18442, 43234, 43473, 43745, 44369, 44513, 44762, 44986, 45577, 45721, 46346, 46953, 47217, 47481, 48617, 49377, 49537, 49729, 49961, 50649, 50848, 51017, 51249, 51473, 51704, 52081], "trial_type": "free-recall", "conditions": [24, 1600, "v", 12000], "internal_node_id": "0.0-107.0-0.0", "key_presses": [83, 65, 76, 77, 79, 78, 13, 83, 69, 65, 70, 79, 79, 68, 13, 87, 65, 83, 80, 13, 68, 65, 73, 83, 89, 13, 72, 79, 82, 78, 69, 84, 13, 79, 85, 84, 70, 73, 84, 13, 66, 82, 73, 67, 75, 13, 83, 72, 69, 76, 76, 70, 73, 83, 72, 13, 83, 69, 65, 70, 79, 79, 68, 13, 83, 65, 76, 77, 79, 78, 13], "trial": 3, "time_elapsed": 2786734, "type": "FREE_RECALL", "trial_index": 143}, "uniqueid": "MTK2653:3R6P78PK7LI27HTOL2CH1Y9QCBEGTD", "dateTime": 1519188243679}, {"current_trial": 144, "trialdata": {"rt": 1364, "trial_type": "text", "internal_node_id": "0.0-108.0", "time_elapsed": 2790102, "key_press": 13, "type": "INSTRUCTIONS", "trial_index": 144}, "uniqueid": "MTK2653:3R6P78PK7LI27HTOL2CH1Y9QCBEGTD", "dateTime": 1519188247045}, {"current_trial": 145, "trialdata": {"rt": [3899, 10187], "trial_type": "math-distractor", "key_times": [2772, 3437, 3899, 9340, 9644, 10187], "responses": ["19", "16"], "num2": [7, 7, 9], "num3": [9, 4, 3], "conditions": [24, 1600, "v", 12000], "internal_node_id": "0.0-109.0", "key_presses": [49, 57, 13, 49, 54, 13], "trial": 4, "time_elapsed": 2804106, "type": "DISTRACTOR", "trial_index": 145, "num1": [3, 5, 3]}, "uniqueid": "MTK2653:3R6P78PK7LI27HTOL2CH1Y9QCBEGTD", "dateTime": 1519188261049}, {"current_trial": 146, "trialdata": {"rt": -1, "trial_type": "single-stim", "stimulus": "<p id=\"stim\">10</p>", "internal_node_id": "0.0-110.0-0.0", "time_elapsed": 2807109, "key_press": -1, "trial_index": 146}, "uniqueid": "MTK2653:3R6P78PK7LI27HTOL2CH1Y9QCBEGTD", "dateTime": 1519188264052}, {"current_trial": 147, "trialdata": {"rt": -1, "trial_type": "single-stim", "stimulus": "<p id=\"stim\">9</p>", "internal_node_id": "0.0-110.0-1.0", "time_elapsed": 2808110, "key_press": -1, "trial_index": 147}, "uniqueid": "MTK2653:3R6P78PK7LI27HTOL2CH1Y9QCBEGTD", "dateTime": 1519188265053}, {"current_trial": 148, "trialdata": {"rt": -1, "trial_type": "single-stim", "stimulus": "<p id=\"stim\">8</p>", "internal_node_id": "0.0-110.0-2.0", "time_elapsed": 2809113, "key_press": -1, "trial_index": 148}, "uniqueid": "MTK2653:3R6P78PK7LI27HTOL2CH1Y9QCBEGTD", "dateTime": 1519188266056}, {"current_trial": 149, "trialdata": {"rt": -1, "trial_type": "single-stim", "stimulus": "<p id=\"stim\">7</p>", "internal_node_id": "0.0-110.0-3.0", "time_elapsed": 2810115, "key_press": -1, "trial_index": 149}, "uniqueid": "MTK2653:3R6P78PK7LI27HTOL2CH1Y9QCBEGTD", "dateTime": 1519188267058}, {"current_trial": 150, "trialdata": {"rt": -1, "trial_type": "single-stim", "stimulus": "<p id=\"stim\">6</p>", "internal_node_id": "0.0-110.0-4.0", "time_elapsed": 2811117, "key_press": -1, "trial_index": 150}, "uniqueid": "MTK2653:3R6P78PK7LI27HTOL2CH1Y9QCBEGTD", "dateTime": 1519188268060}, {"current_trial": 151, "trialdata": {"rt": -1, "trial_type": "single-stim", "stimulus": "<p id=\"stim\">5</p>", "internal_node_id": "0.0-110.0-5.0", "time_elapsed": 2812119, "key_press": -1, "trial_index": 151}, "uniqueid": "MTK2653:3R6P78PK7LI27HTOL2CH1Y9QCBEGTD", "dateTime": 1519188269062}, {"current_trial": 152, "trialdata": {"rt": -1, "trial_type": "single-stim", "stimulus": "<p id=\"stim\">4</p>", "internal_node_id": "0.0-110.0-6.0", "time_elapsed": 2813121, "key_press": -1, "trial_index": 152}, "uniqueid": "MTK2653:3R6P78PK7LI27HTOL2CH1Y9QCBEGTD", "dateTime": 1519188270064}, {"current_trial": 153, "trialdata": {"rt": -1, "trial_type": "single-stim", "stimulus": "<p id=\"stim\">3</p>", "internal_node_id": "0.0-110.0-7.0", "time_elapsed": 2814121, "key_press": -1, "trial_index": 153}, "uniqueid": "MTK2653:3R6P78PK7LI27HTOL2CH1Y9QCBEGTD", "dateTime": 1519188271064}, {"current_trial": 154, "trialdata": {"rt": -1, "trial_type": "single-stim", "stimulus": "<p id=\"stim\">2</p>", "internal_node_id": "0.0-110.0-8.0", "time_elapsed": 2815123, "key_press": -1, "trial_index": 154}, "uniqueid": "MTK2653:3R6P78PK7LI27HTOL2CH1Y9QCBEGTD", "dateTime": 1519188272066}, {"current_trial": 155, "trialdata": {"rt": -1, "trial_type": "single-stim", "stimulus": "<p id=\"stim\">1</p>", "internal_node_id": "0.0-110.0-9.0", "time_elapsed": 2816124, "key_press": -1, "trial_index": 155}, "uniqueid": "MTK2653:3R6P78PK7LI27HTOL2CH1Y9QCBEGTD", "dateTime": 1519188273067}, {"current_trial": 156, "trialdata": {"rt": -1, "trial_type": "single-stim", "stimulus": "<p id=\"stim\">+</p>", "internal_node_id": "0.0-111.0-0.0", "time_elapsed": 2817626, "key_press": -1, "type": "FIXATION", "trial_index": 156}, "uniqueid": "MTK2653:3R6P78PK7LI27HTOL2CH1Y9QCBEGTD", "dateTime": 1519188274569}, {"current_trial": 157, "trialdata": {"rt": -1, "trial_type": "single-stim", "word": "boyfriend", "stimulus": "<p id=\"stim\">BOYFRIEND</p>", "conditions": [24, 1600, "v", 12000], "internal_node_id": "0.0-112.0", "trial": 4, "time_elapsed": 2819228, "serialpos": 0, "key_press": -1, "wordID": 161, "type": "PRES_VIS", "trial_index": 157}, "uniqueid": "MTK2653:3R6P78PK7LI27HTOL2CH1Y9QCBEGTD", "dateTime": 1519188276171}, {"current_trial": 158, "trialdata": {"rt": -1, "trial_type": "single-stim", "word": "bison", "stimulus": "<p id=\"stim\">BISON</p>", "conditions": [24, 1600, "v", 12000], "internal_node_id": "0.0-113.0", "trial": 4, "time_elapsed": 2821674, "serialpos": 1, "key_press": -1, "wordID": 130, "type": "PRES_VIS", "trial_index": 158}, "uniqueid": "MTK2653:3R6P78PK7LI27HTOL2CH1Y9QCBEGTD", "dateTime": 1519188278618}, {"current_trial": 159, "trialdata": {"rt": -1, "trial_type": "single-stim", "word": "valley", "stimulus": "<p id=\"stim\">VALLEY</p>", "conditions": [24, 1600, "v", 12000], "internal_node_id": "0.0-114.0", "trial": 4, "time_elapsed": 2824330, "serialpos": 2, "key_press": -1, "wordID": 1544, "type": "PRES_VIS", "trial_index": 159}, "uniqueid": "MTK2653:3R6P78PK7LI27HTOL2CH1Y9QCBEGTD", "dateTime": 1519188281273}, {"current_trial": 160, "trialdata": {"rt": -1, "trial_type": "single-stim", "word": "canyon", "stimulus": "<p id=\"stim\">CANYON</p>", "conditions": [24, 1600, "v", 12000], "internal_node_id": "0.0-115.0", "trial": 4, "time_elapsed": 2827087, "serialpos": 3, "key_press": -1, "wordID": 234, "type": "PRES_VIS", "trial_index": 160}, "uniqueid": "MTK2653:3R6P78PK7LI27HTOL2CH1Y9QCBEGTD", "dateTime": 1519188284030}, {"current_trial": 161, "trialdata": {"rt": -1, "trial_type": "single-stim", "word": "nightgown", "stimulus": "<p id=\"stim\">NIGHTGOWN</p>", "conditions": [24, 1600, "v", 12000], "internal_node_id": "0.0-116.0", "trial": 4, "time_elapsed": 2829537, "serialpos": 4, "key_press": -1, "wordID": 952, "type": "PRES_VIS", "trial_index": 161}, "uniqueid": "MTK2653:3R6P78PK7LI27HTOL2CH1Y9QCBEGTD", "dateTime": 1519188286480}, {"current_trial": 162, "trialdata": {"rt": -1, "trial_type": "single-stim", "word": "garbage", "stimulus": "<p id=\"stim\">GARBAGE</p>", "conditions": [24, 1600, "v", 12000], "internal_node_id": "0.0-117.0", "trial": 4, "time_elapsed": 2832252, "serialpos": 5, "key_press": -1, "wordID": 621, "type": "PRES_VIS", "trial_index": 162}, "uniqueid": "MTK2653:3R6P78PK7LI27HTOL2CH1Y9QCBEGTD", "dateTime": 1519188289196}, {"current_trial": 163, "trialdata": {"rt": -1, "trial_type": "single-stim", "word": "burglar", "stimulus": "<p id=\"stim\">BURGLAR</p>", "conditions": [24, 1600, "v", 12000], "internal_node_id": "0.0-118.0", "trial": 4, "time_elapsed": 2834790, "serialpos": 6, "key_press": -1, "wordID": 199, "type": "PRES_VIS", "trial_index": 163}, "uniqueid": "MTK2653:3R6P78PK7LI27HTOL2CH1Y9QCBEGTD", "dateTime": 1519188291733}, {"current_trial": 164, "trialdata": {"rt": -1, "trial_type": "single-stim", "word": "wardrobe", "stimulus": "<p id=\"stim\">WARDROBE</p>", "conditions": [24, 1600, "v", 12000], "internal_node_id": "0.0-119.0", "trial": 4, "time_elapsed": 2837225, "serialpos": 7, "key_press": -1, "wordID": 1586, "type": "PRES_VIS", "trial_index": 164}, "uniqueid": "MTK2653:3R6P78PK7LI27HTOL2CH1Y9QCBEGTD", "dateTime": 1519188294168}, {"current_trial": 165, "trialdata": {"rt": -1, "trial_type": "single-stim", "word": "cellar", "stimulus": "<p id=\"stim\">CELLAR</p>", "conditions": [24, 1600, "v", 12000], "internal_node_id": "0.0-120.0", "trial": 4, "time_elapsed": 2839750, "serialpos": 8, "key_press": -1, "wordID": 266, "type": "PRES_VIS", "trial_index": 165}, "uniqueid": "MTK2653:3R6P78PK7LI27HTOL2CH1Y9QCBEGTD", "dateTime": 1519188296694}, {"current_trial": 166, "trialdata": {"rt": -1, "trial_type": "single-stim", "word": "beef", "stimulus": "<p id=\"stim\">BEEF</p>", "conditions": [24, 1600, "v", 12000], "internal_node_id": "0.0-121.0", "trial": 4, "time_elapsed": 2842163, "serialpos": 9, "key_press": -1, "wordID": 112, "type": "PRES_VIS", "trial_index": 166}, "uniqueid": "MTK2653:3R6P78PK7LI27HTOL2CH1Y9QCBEGTD", "dateTime": 1519188299106}, {"current_trial": 167, "trialdata": {"rt": -1, "trial_type": "single-stim", "word": "football", "stimulus": "<p id=\"stim\">FOOTBALL</p>", "conditions": [24, 1600, "v", 12000], "internal_node_id": "0.0-122.0", "trial": 4, "time_elapsed": 2844889, "serialpos": 10, "key_press": -1, "wordID": 590, "type": "PRES_VIS", "trial_index": 167}, "uniqueid": "MTK2653:3R6P78PK7LI27HTOL2CH1Y9QCBEGTD", "dateTime": 1519188301832}, {"current_trial": 168, "trialdata": {"rt": -1, "trial_type": "single-stim", "word": "friend", "stimulus": "<p id=\"stim\">FRIEND</p>", "conditions": [24, 1600, "v", 12000], "internal_node_id": "0.0-123.0", "trial": 4, "time_elapsed": 2847349, "serialpos": 11, "key_press": -1, "wordID": 605, "type": "PRES_VIS", "trial_index": 168}, "uniqueid": "MTK2653:3R6P78PK7LI27HTOL2CH1Y9QCBEGTD", "dateTime": 1519188304292}, {"current_trial": 169, "trialdata": {"rt": -1, "trial_type": "single-stim", "word": "trench", "stimulus": "<p id=\"stim\">TRENCH</p>", "conditions": [24, 1600, "v", 12000], "internal_node_id": "0.0-124.0", "trial": 4, "time_elapsed": 2849892, "serialpos": 12, "key_press": -1, "wordID": 1502, "type": "PRES_VIS", "trial_index": 169}, "uniqueid": "MTK2653:3R6P78PK7LI27HTOL2CH1Y9QCBEGTD", "dateTime": 1519188306835}, {"current_trial": 170, "trialdata": {"rt": -1, "trial_type": "single-stim", "word": "stamp", "stimulus": "<p id=\"stim\">STAMP</p>", "conditions": [24, 1600, "v", 12000], "internal_node_id": "0.0-125.0", "trial": 4, "time_elapsed": 2852654, "serialpos": 13, "key_press": -1, "wordID": 1369, "type": "PRES_VIS", "trial_index": 170}, "uniqueid": "MTK2653:3R6P78PK7LI27HTOL2CH1Y9QCBEGTD", "dateTime": 1519188309597}, {"current_trial": 171, "trialdata": {"rt": -1, "trial_type": "single-stim", "word": "napkin", "stimulus": "<p id=\"stim\">NAPKIN</p>", "conditions": [24, 1600, "v", 12000], "internal_node_id": "0.0-126.0", "trial": 4, "time_elapsed": 2855256, "serialpos": 14, "key_press": -1, "wordID": 936, "type": "PRES_VIS", "trial_index": 171}, "uniqueid": "MTK2653:3R6P78PK7LI27HTOL2CH1Y9QCBEGTD", "dateTime": 1519188312199}, {"current_trial": 172, "trialdata": {"rt": -1, "trial_type": "single-stim", "word": "lava", "stimulus": "<p id=\"stim\">LAVA</p>", "conditions": [24, 1600, "v", 12000], "internal_node_id": "0.0-127.0", "trial": 4, "time_elapsed": 2857670, "serialpos": 15, "key_press": -1, "wordID": 803, "type": "PRES_VIS", "trial_index": 172}, "uniqueid": "MTK2653:3R6P78PK7LI27HTOL2CH1Y9QCBEGTD", "dateTime": 1519188314613}, {"current_trial": 173, "trialdata": {"rt": -1, "trial_type": "single-stim", "word": "orchid", "stimulus": "<p id=\"stim\">ORCHID</p>", "conditions": [24, 1600, "v", 12000], "internal_node_id": "0.0-128.0", "trial": 4, "time_elapsed": 2860372, "serialpos": 16, "key_press": -1, "wordID": 981, "type": "PRES_VIS", "trial_index": 173}, "uniqueid": "MTK2653:3R6P78PK7LI27HTOL2CH1Y9QCBEGTD", "dateTime": 1519188317315}, {"current_trial": 174, "trialdata": {"rt": -1, "trial_type": "single-stim", "word": "scissors", "stimulus": "<p id=\"stim\">SCISSORS</p>", "conditions": [24, 1600, "v", 12000], "internal_node_id": "0.0-129.0", "trial": 4, "time_elapsed": 2863035, "serialpos": 17, "key_press": -1, "wordID": 1249, "type": "PRES_VIS", "trial_index": 174}, "uniqueid": "MTK2653:3R6P78PK7LI27HTOL2CH1Y9QCBEGTD", "dateTime": 1519188319978}, {"current_trial": 175, "trialdata": {"rt": -1, "trial_type": "single-stim", "word": "peach", "stimulus": "<p id=\"stim\">PEACH</p>", "conditions": [24, 1600, "v", 12000], "internal_node_id": "0.0-130.0", "trial": 4, "time_elapsed": 2865722, "serialpos": 18, "key_press": -1, "wordID": 1030, "type": "PRES_VIS", "trial_index": 175}, "uniqueid": "MTK2653:3R6P78PK7LI27HTOL2CH1Y9QCBEGTD", "dateTime": 1519188322665}, {"current_trial": 176, "trialdata": {"rt": -1, "trial_type": "single-stim", "word": "lettuce", "stimulus": "<p id=\"stim\">LETTUCE</p>", "conditions": [24, 1600, "v", 12000], "internal_node_id": "0.0-131.0", "trial": 4, "time_elapsed": 2868256, "serialpos": 19, "key_press": -1, "wordID": 813, "type": "PRES_VIS", "trial_index": 176}, "uniqueid": "MTK2653:3R6P78PK7LI27HTOL2CH1Y9QCBEGTD", "dateTime": 1519188325200}, {"current_trial": 177, "trialdata": {"rt": -1, "trial_type": "single-stim", "word": "chapel", "stimulus": "<p id=\"stim\">CHAPEL</p>", "conditions": [24, 1600, "v", 12000], "internal_node_id": "0.0-132.0", "trial": 4, "time_elapsed": 2870994, "serialpos": 20, "key_press": -1, "wordID": 279, "type": "PRES_VIS", "trial_index": 177}, "uniqueid": "MTK2653:3R6P78PK7LI27HTOL2CH1Y9QCBEGTD", "dateTime": 1519188327937}, {"current_trial": 178, "trialdata": {"rt": -1, "trial_type": "single-stim", "word": "church", "stimulus": "<p id=\"stim\">CHURCH</p>", "conditions": [24, 1600, "v", 12000], "internal_node_id": "0.0-133.0", "trial": 4, "time_elapsed": 2873500, "serialpos": 21, "key_press": -1, "wordID": 306, "type": "PRES_VIS", "trial_index": 178}, "uniqueid": "MTK2653:3R6P78PK7LI27HTOL2CH1Y9QCBEGTD", "dateTime": 1519188330444}, {"current_trial": 179, "trialdata": {"rt": -1, "trial_type": "single-stim", "word": "onion", "stimulus": "<p id=\"stim\">ONION</p>", "conditions": [24, 1600, "v", 12000], "internal_node_id": "0.0-134.0", "trial": 4, "time_elapsed": 2876293, "serialpos": 22, "key_press": -1, "wordID": 976, "type": "PRES_VIS", "trial_index": 179}, "uniqueid": "MTK2653:3R6P78PK7LI27HTOL2CH1Y9QCBEGTD", "dateTime": 1519188333237}, {"current_trial": 180, "trialdata": {"rt": -1, "trial_type": "single-stim", "word": "shovel", "stimulus": "<p id=\"stim\">SHOVEL</p>", "conditions": [24, 1600, "v", 12000], "internal_node_id": "0.0-135.0", "trial": 4, "time_elapsed": 2878856, "serialpos": 23, "key_press": -1, "wordID": 1294, "type": "PRES_VIS", "trial_index": 180}, "uniqueid": "MTK2653:3R6P78PK7LI27HTOL2CH1Y9QCBEGTD", "dateTime": 1519188335799}, {"current_trial": 181, "trialdata": {"rt": -1, "trial_type": "single-stim", "stimulus": "", "internal_node_id": "0.0-136.0-0.0", "time_elapsed": 2881278, "key_press": -1, "type": "PRE_RECALL_DELAY", "trial_index": 181}, "uniqueid": "MTK2653:3R6P78PK7LI27HTOL2CH1Y9QCBEGTD", "dateTime": 1519188338222}, {"current_trial": 182, "trialdata": {"rt": -1000, "trial_type": "single-audio", "stimulus": "/static/audio/400Hz.wav", "internal_node_id": "0.0-137.0", "time_elapsed": 2881781, "key_press": -1, "type": "PRE_RECALL_ALERT", "trial_index": 182}, "uniqueid": "MTK2653:3R6P78PK7LI27HTOL2CH1Y9QCBEGTD", "dateTime": 1519188338724}, {"current_trial": 183, "trialdata": {"rt": [4907, 6939, 8794, 10890, 30706, 32282, 34018], "recwords": ["lettuce", "onion", "chapel", "church", "trash", "gown", "lava"], "key_times": [1596, 1843, 2163, 2307, 2635, 2883, 3620, 3811, 4083, 4907, 5522, 5842, 6107, 6283, 6507, 6939, 7316, 7483, 7611, 8019, 8187, 8402, 8794, 9059, 9331, 9563, 9755, 10003, 10235, 10890, 29082, 29282, 29634, 29859, 30002, 30706, 30954, 31282, 31521, 31802, 32282, 33114, 33249, 33578, 33674, 34018, 59873], "trial_type": "free-recall", "conditions": [24, 1600, "v", 12000], "internal_node_id": "0.0-138.0-0.0", "key_presses": [76, 69, 84, 84, 85, 83, 8, 67, 69, 13, 79, 78, 73, 79, 78, 13, 67, 72, 65, 80, 69, 76, 13, 67, 72, 85, 82, 67, 72, 13, 84, 82, 65, 83, 72, 13, 71, 79, 87, 78, 13, 76, 65, 86, 65, 13, 67], "trial": 4, "time_elapsed": 2941785, "type": "FREE_RECALL", "trial_index": 183}, "uniqueid": "MTK2653:3R6P78PK7LI27HTOL2CH1Y9QCBEGTD", "dateTime": 1519188398732}, {"current_trial": 184, "trialdata": {"rt": 1665, "trial_type": "text", "internal_node_id": "0.0-139.0", "time_elapsed": 2945456, "key_press": 13, "type": "INSTRUCTIONS", "trial_index": 184}, "uniqueid": "MTK2653:3R6P78PK7LI27HTOL2CH1Y9QCBEGTD", "dateTime": 1519188402399}, {"current_trial": 185, "trialdata": {"rt": [4414, 7413, 11701, 14829, 17444, 20189], "trial_type": "math-distractor", "key_times": [3831, 4414, 7222, 7413, 11181, 11517, 11701, 14132, 14645, 14829, 16613, 17229, 17444, 19548, 19740, 20189, 23893], "responses": ["9", "9", "16", "18", "13", "11"], "num2": [4, 1, 9, 8, 3, 2, 6], "num3": [3, 5, 3, 3, 2, 2, 8], "conditions": [12, 800, "v", 24000], "internal_node_id": "0.0-140.0", "key_presses": [57, 13, 57, 13, 49, 54, 13, 49, 56, 13, 49, 51, 13, 49, 49, 13, 49], "trial": 5, "time_elapsed": 2971461, "type": "DISTRACTOR", "trial_index": 185, "num1": [2, 3, 4, 7, 8, 7, 1]}, "uniqueid": "MTK2653:3R6P78PK7LI27HTOL2CH1Y9QCBEGTD", "dateTime": 1519188428404}, {"current_trial": 186, "trialdata": {"rt": -1, "trial_type": "single-stim", "stimulus": "<p id=\"stim\">10</p>", "internal_node_id": "0.0-141.0-0.0", "time_elapsed": 2974462, "key_press": -1, "trial_index": 186}, "uniqueid": "MTK2653:3R6P78PK7LI27HTOL2CH1Y9QCBEGTD", "dateTime": 1519188431405}, {"current_trial": 187, "trialdata": {"rt": -1, "trial_type": "single-stim", "stimulus": "<p id=\"stim\">9</p>", "internal_node_id": "0.0-141.0-1.0", "time_elapsed": 2975463, "key_press": -1, "trial_index": 187}, "uniqueid": "MTK2653:3R6P78PK7LI27HTOL2CH1Y9QCBEGTD", "dateTime": 1519188432406}, {"current_trial": 188, "trialdata": {"rt": -1, "trial_type": "single-stim", "stimulus": "<p id=\"stim\">8</p>", "internal_node_id": "0.0-141.0-2.0", "time_elapsed": 2976464, "key_press": -1, "trial_index": 188}, "uniqueid": "MTK2653:3R6P78PK7LI27HTOL2CH1Y9QCBEGTD", "dateTime": 1519188433407}, {"current_trial": 189, "trialdata": {"rt": -1, "trial_type": "single-stim", "stimulus": "<p id=\"stim\">7</p>", "internal_node_id": "0.0-141.0-3.0", "time_elapsed": 2977467, "key_press": -1, "trial_index": 189}, "uniqueid": "MTK2653:3R6P78PK7LI27HTOL2CH1Y9QCBEGTD", "dateTime": 1519188434410}, {"current_trial": 190, "trialdata": {"rt": -1, "trial_type": "single-stim", "stimulus": "<p id=\"stim\">6</p>", "internal_node_id": "0.0-141.0-4.0", "time_elapsed": 2978468, "key_press": -1, "trial_index": 190}, "uniqueid": "MTK2653:3R6P78PK7LI27HTOL2CH1Y9QCBEGTD", "dateTime": 1519188435411}, {"current_trial": 191, "trialdata": {"rt": -1, "trial_type": "single-stim", "stimulus": "<p id=\"stim\">5</p>", "internal_node_id": "0.0-141.0-5.0", "time_elapsed": 2979470, "key_press": -1, "trial_index": 191}, "uniqueid": "MTK2653:3R6P78PK7LI27HTOL2CH1Y9QCBEGTD", "dateTime": 1519188436413}, {"current_trial": 192, "trialdata": {"rt": -1, "trial_type": "single-stim", "stimulus": "<p id=\"stim\">4</p>", "internal_node_id": "0.0-141.0-6.0", "time_elapsed": 2980471, "key_press": -1, "trial_index": 192}, "uniqueid": "MTK2653:3R6P78PK7LI27HTOL2CH1Y9QCBEGTD", "dateTime": 1519188437414}, {"current_trial": 193, "trialdata": {"rt": -1, "trial_type": "single-stim", "stimulus": "<p id=\"stim\">3</p>", "internal_node_id": "0.0-141.0-7.0", "time_elapsed": 2981471, "key_press": -1, "trial_index": 193}, "uniqueid": "MTK2653:3R6P78PK7LI27HTOL2CH1Y9QCBEGTD", "dateTime": 1519188438415}, {"current_trial": 194, "trialdata": {"rt": -1, "trial_type": "single-stim", "stimulus": "<p id=\"stim\">2</p>", "internal_node_id": "0.0-141.0-8.0", "time_elapsed": 2982474, "key_press": -1, "trial_index": 194}, "uniqueid": "MTK2653:3R6P78PK7LI27HTOL2CH1Y9QCBEGTD", "dateTime": 1519188439418}, {"current_trial": 195, "trialdata": {"rt": -1, "trial_type": "single-stim", "stimulus": "<p id=\"stim\">1</p>", "internal_node_id": "0.0-141.0-9.0", "time_elapsed": 2983476, "key_press": -1, "trial_index": 195}, "uniqueid": "MTK2653:3R6P78PK7LI27HTOL2CH1Y9QCBEGTD", "dateTime": 1519188440419}, {"current_trial": 196, "trialdata": {"rt": -1, "trial_type": "single-stim", "stimulus": "<p id=\"stim\">+</p>", "internal_node_id": "0.0-142.0-0.0", "time_elapsed": 2984978, "key_press": -1, "type": "FIXATION", "trial_index": 196}, "uniqueid": "MTK2653:3R6P78PK7LI27HTOL2CH1Y9QCBEGTD", "dateTime": 1519188441921}, {"current_trial": 197, "trialdata": {"rt": -1, "trial_type": "single-stim", "word": "breast", "stimulus": "<p id=\"stim\">BREAST</p>", "conditions": [12, 800, "v", 24000], "internal_node_id": "0.0-143.0", "trial": 5, "time_elapsed": 2985780, "serialpos": 0, "key_press": -1, "wordID": 170, "type": "PRES_VIS", "trial_index": 197}, "uniqueid": "MTK2653:3R6P78PK7LI27HTOL2CH1Y9QCBEGTD", "dateTime": 1519188442723}, {"current_trial": 198, "trialdata": {"rt": -1, "trial_type": "single-stim", "word": "transplant", "stimulus": "<p id=\"stim\">TRANSPLANT</p>", "conditions": [12, 800, "v", 24000], "internal_node_id": "0.0-144.0", "trial": 5, "time_elapsed": 2987710, "serialpos": 1, "key_press": -1, "wordID": 1495, "type": "PRES_VIS", "trial_index": 198}, "uniqueid": "MTK2653:3R6P78PK7LI27HTOL2CH1Y9QCBEGTD", "dateTime": 1519188444653}, {"current_trial": 199, "trialdata": {"rt": -1, "trial_type": "single-stim", "word": "film", "stimulus": "<p id=\"stim\">FILM</p>", "conditions": [12, 800, "v", 24000], "internal_node_id": "0.0-145.0", "trial": 5, "time_elapsed": 2989314, "serialpos": 2, "key_press": -1, "wordID": 564, "type": "PRES_VIS", "trial_index": 199}, "uniqueid": "MTK2653:3R6P78PK7LI27HTOL2CH1Y9QCBEGTD", "dateTime": 1519188446257}, {"current_trial": 200, "trialdata": {"rt": -1, "trial_type": "single-stim", "word": "butcher", "stimulus": "<p id=\"stim\">BUTCHER</p>", "conditions": [12, 800, "v", 24000], "internal_node_id": "0.0-146.0", "trial": 5, "time_elapsed": 2990946, "serialpos": 3, "key_press": -1, "wordID": 202, "type": "PRES_VIS", "trial_index": 200}, "uniqueid": "MTK2653:3R6P78PK7LI27HTOL2CH1Y9QCBEGTD", "dateTime": 1519188447889}, {"current_trial": 201, "trialdata": {"rt": -1, "trial_type": "single-stim", "word": "pebble", "stimulus": "<p id=\"stim\">PEBBLE</p>", "conditions": [12, 800, "v", 24000], "internal_node_id": "0.0-147.0", "trial": 5, "time_elapsed": 2992805, "serialpos": 4, "key_press": -1, "wordID": 1034, "type": "PRES_VIS", "trial_index": 201}, "uniqueid": "MTK2653:3R6P78PK7LI27HTOL2CH1Y9QCBEGTD", "dateTime": 1519188449748}, {"current_trial": 202, "trialdata": {"rt": -1, "trial_type": "single-stim", "word": "trombone", "stimulus": "<p id=\"stim\">TROMBONE</p>", "conditions": [12, 800, "v", 24000], "internal_node_id": "0.0-148.0", "trial": 5, "time_elapsed": 2994760, "serialpos": 5, "key_press": -1, "wordID": 1507, "type": "PRES_VIS", "trial_index": 202}, "uniqueid": "MTK2653:3R6P78PK7LI27HTOL2CH1Y9QCBEGTD", "dateTime": 1519188451703}, {"current_trial": 203, "trialdata": {"rt": -1, "trial_type": "single-stim", "word": "climber", "stimulus": "<p id=\"stim\">CLIMBER</p>", "conditions": [12, 800, "v", 24000], "internal_node_id": "0.0-149.0", "trial": 5, "time_elapsed": 2996552, "serialpos": 6, "key_press": -1, "wordID": 322, "type": "PRES_VIS", "trial_index": 203}, "uniqueid": "MTK2653:3R6P78PK7LI27HTOL2CH1Y9QCBEGTD", "dateTime": 1519188453495}, {"current_trial": 204, "trialdata": {"rt": -1, "trial_type": "single-stim", "word": "hero", "stimulus": "<p id=\"stim\">HERO</p>", "conditions": [12, 800, "v", 24000], "internal_node_id": "0.0-150.0", "trial": 5, "time_elapsed": 2998157, "serialpos": 7, "key_press": -1, "wordID": 705, "type": "PRES_VIS", "trial_index": 204}, "uniqueid": "MTK2653:3R6P78PK7LI27HTOL2CH1Y9QCBEGTD", "dateTime": 1519188455101}, {"current_trial": 205, "trialdata": {"rt": -1, "trial_type": "single-stim", "word": "tuba", "stimulus": "<p id=\"stim\">TUBA</p>", "conditions": [12, 800, "v", 24000], "internal_node_id": "0.0-151.0", "trial": 5, "time_elapsed": 2999848, "serialpos": 8, "key_press": -1, "wordID": 1514, "type": "PRES_VIS", "trial_index": 205}, "uniqueid": "MTK2653:3R6P78PK7LI27HTOL2CH1Y9QCBEGTD", "dateTime": 1519188456791}, {"current_trial": 206, "trialdata": {"rt": -1, "trial_type": "single-stim", "word": "clam", "stimulus": "<p id=\"stim\">CLAM</p>", "conditions": [12, 800, "v", 24000], "internal_node_id": "0.0-152.0", "trial": 5, "time_elapsed": 3001732, "serialpos": 9, "key_press": -1, "wordID": 314, "type": "PRES_VIS", "trial_index": 206}, "uniqueid": "MTK2653:3R6P78PK7LI27HTOL2CH1Y9QCBEGTD", "dateTime": 1519188458675}, {"current_trial": 207, "trialdata": {"rt": -1, "trial_type": "single-stim", "word": "oyster", "stimulus": "<p id=\"stim\">OYSTER</p>", "conditions": [12, 800, "v", 24000], "internal_node_id": "0.0-153.0", "trial": 5, "time_elapsed": 3003389, "serialpos": 10, "key_press": -1, "wordID": 994, "type": "PRES_VIS", "trial_index": 207}, "uniqueid": "MTK2653:3R6P78PK7LI27HTOL2CH1Y9QCBEGTD", "dateTime": 1519188460333}, {"current_trial": 208, "trialdata": {"rt": -1, "trial_type": "single-stim", "word": "preacher", "stimulus": "<p id=\"stim\">PREACHER</p>", "conditions": [12, 800, "v", 24000], "internal_node_id": "0.0-154.0", "trial": 5, "time_elapsed": 3005132, "serialpos": 11, "key_press": -1, "wordID": 1118, "type": "PRES_VIS", "trial_index": 208}, "uniqueid": "MTK2653:3R6P78PK7LI27HTOL2CH1Y9QCBEGTD", "dateTime": 1519188462075}, {"current_trial": 209, "trialdata": {"rt": -1, "trial_type": "single-stim", "stimulus": "", "internal_node_id": "0.0-155.0-0.0", "time_elapsed": 3007304, "key_press": -1, "type": "PRE_RECALL_DELAY", "trial_index": 209}, "uniqueid": "MTK2653:3R6P78PK7LI27HTOL2CH1Y9QCBEGTD", "dateTime": 1519188464247}, {"current_trial": 210, "trialdata": {"rt": -1000, "trial_type": "single-audio", "stimulus": "/static/audio/400Hz.wav", "internal_node_id": "0.0-156.0", "time_elapsed": 3007806, "key_press": -1, "type": "PRE_RECALL_ALERT", "trial_index": 210}, "uniqueid": "MTK2653:3R6P78PK7LI27HTOL2CH1Y9QCBEGTD", "dateTime": 1519188464749}, {"current_trial": 211, "trialdata": {"rt": [4397, 7940, 11468, 14093, 17044, 20437, 37676], "recwords": ["preacheer", "preacher", "clam", "oyster", "trombone", "tuba", "preacher"], "key_times": [2492, 2757, 2958, 3301, 3628, 3852, 4029, 4213, 4213, 4397, 6308, 6452, 6645, 6941, 7188, 7445, 7581, 7765, 7940, 9357, 10085, 10692, 11020, 11468, 12196, 12948, 13100, 13252, 13388, 13540, 14093, 14941, 15117, 15340, 15597, 15900, 16325, 16645, 16797, 17044, 17853, 18420, 18845, 18989, 20069, 20213, 20437, 36029, 36235, 36428, 36732, 36996, 37189, 37324, 37501, 37676], "trial_type": "free-recall", "conditions": [12, 800, "v", 24000], "internal_node_id": "0.0-157.0-0.0", "key_presses": [80, 82, 69, 65, 67, 72, 69, 69, 82, 13, 80, 82, 69, 65, 67, 72, 69, 82, 13, 67, 76, 65, 77, 13, 79, 89, 83, 84, 69, 82, 13, 84, 82, 79, 77, 66, 79, 78, 69, 13, 84, 85, 66, 69, 8, 65, 13, 80, 82, 69, 65, 67, 72, 69, 82, 13], "trial": 5, "time_elapsed": 3067810, "type": "FREE_RECALL", "trial_index": 211}, "uniqueid": "MTK2653:3R6P78PK7LI27HTOL2CH1Y9QCBEGTD", "dateTime": 1519188524758}, {"current_trial": 212, "trialdata": {"rt": 2141, "trial_type": "text", "internal_node_id": "0.0-158.0", "time_elapsed": 3071956, "key_press": 13, "type": "INSTRUCTIONS", "trial_index": 212}, "uniqueid": "MTK2653:3R6P78PK7LI27HTOL2CH1Y9QCBEGTD", "dateTime": 1519188528899}, {"current_trial": 213, "trialdata": {"rt": [2229, 9061, 11325], "trial_type": "math-distractor", "key_times": [2045, 2229, 8661, 8844, 9061, 10645, 11148, 11325], "responses": ["7", "23", "17"], "num2": [3, 8, 8, 5], "num3": [3, 8, 7, 8], "conditions": [12, 800, "v", 12000], "internal_node_id": "0.0-159.0", "key_presses": [55, 13, 50, 51, 13, 49, 55, 13], "trial": 6, "time_elapsed": 3085960, "type": "DISTRACTOR", "trial_index": 213, "num1": [1, 7, 2, 7]}, "uniqueid": "MTK2653:3R6P78PK7LI27HTOL2CH1Y9QCBEGTD", "dateTime": 1519188542904}, {"current_trial": 214, "trialdata": {"rt": -1, "trial_type": "single-stim", "stimulus": "<p id=\"stim\">10</p>", "internal_node_id": "0.0-160.0-0.0", "time_elapsed": 3088963, "key_press": -1, "trial_index": 214}, "uniqueid": "MTK2653:3R6P78PK7LI27HTOL2CH1Y9QCBEGTD", "dateTime": 1519188545906}, {"current_trial": 215, "trialdata": {"rt": -1, "trial_type": "single-stim", "stimulus": "<p id=\"stim\">9</p>", "internal_node_id": "0.0-160.0-1.0", "time_elapsed": 3089966, "key_press": -1, "trial_index": 215}, "uniqueid": "MTK2653:3R6P78PK7LI27HTOL2CH1Y9QCBEGTD", "dateTime": 1519188546910}, {"current_trial": 216, "trialdata": {"rt": -1, "trial_type": "single-stim", "stimulus": "<p id=\"stim\">8</p>", "internal_node_id": "0.0-160.0-2.0", "time_elapsed": 3090968, "key_press": -1, "trial_index": 216}, "uniqueid": "MTK2653:3R6P78PK7LI27HTOL2CH1Y9QCBEGTD", "dateTime": 1519188547911}, {"current_trial": 217, "trialdata": {"rt": -1, "trial_type": "single-stim", "stimulus": "<p id=\"stim\">7</p>", "internal_node_id": "0.0-160.0-3.0", "time_elapsed": 3091971, "key_press": -1, "trial_index": 217}, "uniqueid": "MTK2653:3R6P78PK7LI27HTOL2CH1Y9QCBEGTD", "dateTime": 1519188548915}, {"current_trial": 218, "trialdata": {"rt": -1, "trial_type": "single-stim", "stimulus": "<p id=\"stim\">6</p>", "internal_node_id": "0.0-160.0-4.0", "time_elapsed": 3092973, "key_press": -1, "trial_index": 218}, "uniqueid": "MTK2653:3R6P78PK7LI27HTOL2CH1Y9QCBEGTD", "dateTime": 1519188549916}, {"current_trial": 219, "trialdata": {"rt": -1, "trial_type": "single-stim", "stimulus": "<p id=\"stim\">5</p>", "internal_node_id": "0.0-160.0-5.0", "time_elapsed": 3093976, "key_press": -1, "trial_index": 219}, "uniqueid": "MTK2653:3R6P78PK7LI27HTOL2CH1Y9QCBEGTD", "dateTime": 1519188550919}, {"current_trial": 220, "trialdata": {"rt": -1, "trial_type": "single-stim", "stimulus": "<p id=\"stim\">4</p>", "internal_node_id": "0.0-160.0-6.0", "time_elapsed": 3094976, "key_press": -1, "trial_index": 220}, "uniqueid": "MTK2653:3R6P78PK7LI27HTOL2CH1Y9QCBEGTD", "dateTime": 1519188551921}, {"current_trial": 221, "trialdata": {"rt": -1, "trial_type": "single-stim", "stimulus": "<p id=\"stim\">3</p>", "internal_node_id": "0.0-160.0-7.0", "time_elapsed": 3095980, "key_press": -1, "trial_index": 221}, "uniqueid": "MTK2653:3R6P78PK7LI27HTOL2CH1Y9QCBEGTD", "dateTime": 1519188552923}, {"current_trial": 222, "trialdata": {"rt": -1, "trial_type": "single-stim", "stimulus": "<p id=\"stim\">2</p>", "internal_node_id": "0.0-160.0-8.0", "time_elapsed": 3096982, "key_press": -1, "trial_index": 222}, "uniqueid": "MTK2653:3R6P78PK7LI27HTOL2CH1Y9QCBEGTD", "dateTime": 1519188553925}, {"current_trial": 223, "trialdata": {"rt": -1, "trial_type": "single-stim", "stimulus": "<p id=\"stim\">1</p>", "internal_node_id": "0.0-160.0-9.0", "time_elapsed": 3097984, "key_press": -1, "trial_index": 223}, "uniqueid": "MTK2653:3R6P78PK7LI27HTOL2CH1Y9QCBEGTD", "dateTime": 1519188554928}, {"current_trial": 224, "trialdata": {"rt": -1, "trial_type": "single-stim", "stimulus": "<p id=\"stim\">+</p>", "internal_node_id": "0.0-161.0-0.0", "time_elapsed": 3099487, "key_press": -1, "type": "FIXATION", "trial_index": 224}, "uniqueid": "MTK2653:3R6P78PK7LI27HTOL2CH1Y9QCBEGTD", "dateTime": 1519188556430}, {"current_trial": 225, "trialdata": {"rt": -1, "trial_type": "single-stim", "word": "cobra", "stimulus": "<p id=\"stim\">COBRA</p>", "conditions": [12, 800, "v", 12000], "internal_node_id": "0.0-162.0", "trial": 6, "time_elapsed": 3100289, "serialpos": 0, "key_press": -1, "wordID": 335, "type": "PRES_VIS", "trial_index": 225}, "uniqueid": "MTK2653:3R6P78PK7LI27HTOL2CH1Y9QCBEGTD", "dateTime": 1519188557232}, {"current_trial": 226, "trialdata": {"rt": -1, "trial_type": "single-stim", "word": "scallop", "stimulus": "<p id=\"stim\">SCALLOP</p>", "conditions": [12, 800, "v", 12000], "internal_node_id": "0.0-163.0", "trial": 6, "time_elapsed": 3101911, "serialpos": 1, "key_press": -1, "wordID": 1241, "type": "PRES_VIS", "trial_index": 226}, "uniqueid": "MTK2653:3R6P78PK7LI27HTOL2CH1Y9QCBEGTD", "dateTime": 1519188558854}, {"current_trial": 227, "trialdata": {"rt": -1, "trial_type": "single-stim", "word": "valve", "stimulus": "<p id=\"stim\">VALVE</p>", "conditions": [12, 800, "v", 12000], "internal_node_id": "0.0-164.0", "trial": 6, "time_elapsed": 3103688, "serialpos": 2, "key_press": -1, "wordID": 1545, "type": "PRES_VIS", "trial_index": 227}, "uniqueid": "MTK2653:3R6P78PK7LI27HTOL2CH1Y9QCBEGTD", "dateTime": 1519188560631}, {"current_trial": 228, "trialdata": {"rt": -1, "trial_type": "single-stim", "word": "salad", "stimulus": "<p id=\"stim\">SALAD</p>", "conditions": [12, 800, "v", 12000], "internal_node_id": "0.0-165.0", "trial": 6, "time_elapsed": 3105354, "serialpos": 3, "key_press": -1, "wordID": 1223, "type": "PRES_VIS", "trial_index": 228}, "uniqueid": "MTK2653:3R6P78PK7LI27HTOL2CH1Y9QCBEGTD", "dateTime": 1519188562298}, {"current_trial": 229, "trialdata": {"rt": -1, "trial_type": "single-stim", "word": "survey", "stimulus": "<p id=\"stim\">SURVEY</p>", "conditions": [12, 800, "v", 12000], "internal_node_id": "0.0-166.0", "trial": 6, "time_elapsed": 3107216, "serialpos": 4, "key_press": -1, "wordID": 1413, "type": "PRES_VIS", "trial_index": 229}, "uniqueid": "MTK2653:3R6P78PK7LI27HTOL2CH1Y9QCBEGTD", "dateTime": 1519188564159}, {"current_trial": 230, "trialdata": {"rt": -1, "trial_type": "single-stim", "word": "dancer", "stimulus": "<p id=\"stim\">DANCER</p>", "conditions": [12, 800, "v", 12000], "internal_node_id": "0.0-167.0", "trial": 6, "time_elapsed": 3109089, "serialpos": 5, "key_press": -1, "wordID": 436, "type": "PRES_VIS", "trial_index": 230}, "uniqueid": "MTK2653:3R6P78PK7LI27HTOL2CH1Y9QCBEGTD", "dateTime": 1519188566032}, {"current_trial": 231, "trialdata": {"rt": -1, "trial_type": "single-stim", "word": "basement", "stimulus": "<p id=\"stim\">BASEMENT</p>", "conditions": [12, 800, "v", 12000], "internal_node_id": "0.0-168.0", "trial": 6, "time_elapsed": 3110843, "serialpos": 6, "key_press": -1, "wordID": 93, "type": "PRES_VIS", "trial_index": 231}, "uniqueid": "MTK2653:3R6P78PK7LI27HTOL2CH1Y9QCBEGTD", "dateTime": 1519188567786}, {"current_trial": 232, "trialdata": {"rt": -1, "trial_type": "single-stim", "word": "kitchen", "stimulus": "<p id=\"stim\">KITCHEN</p>", "conditions": [12, 800, "v", 12000], "internal_node_id": "0.0-169.0", "trial": 6, "time_elapsed": 3112705, "serialpos": 7, "key_press": -1, "wordID": 777, "type": "PRES_VIS", "trial_index": 232}, "uniqueid": "MTK2653:3R6P78PK7LI27HTOL2CH1Y9QCBEGTD", "dateTime": 1519188569648}, {"current_trial": 233, "trialdata": {"rt": -1, "trial_type": "single-stim", "word": "lizard", "stimulus": "<p id=\"stim\">LIZARD</p>", "conditions": [12, 800, "v", 12000], "internal_node_id": "0.0-170.0", "trial": 6, "time_elapsed": 3114371, "serialpos": 8, "key_press": -1, "wordID": 833, "type": "PRES_VIS", "trial_index": 233}, "uniqueid": "MTK2653:3R6P78PK7LI27HTOL2CH1Y9QCBEGTD", "dateTime": 1519188571314}, {"current_trial": 234, "trialdata": {"rt": -1, "trial_type": "single-stim", "word": "bathtub", "stimulus": "<p id=\"stim\">BATHTUB</p>", "conditions": [12, 800, "v", 12000], "internal_node_id": "0.0-171.0", "trial": 6, "time_elapsed": 3115998, "serialpos": 9, "key_press": -1, "wordID": 99, "type": "PRES_VIS", "trial_index": 234}, "uniqueid": "MTK2653:3R6P78PK7LI27HTOL2CH1Y9QCBEGTD", "dateTime": 1519188572941}, {"current_trial": 235, "trialdata": {"rt": -1, "trial_type": "single-stim", "word": "critic", "stimulus": "<p id=\"stim\">CRITIC</p>", "conditions": [12, 800, "v", 12000], "internal_node_id": "0.0-172.0", "trial": 6, "time_elapsed": 3117804, "serialpos": 10, "key_press": -1, "wordID": 409, "type": "PRES_VIS", "trial_index": 235}, "uniqueid": "MTK2653:3R6P78PK7LI27HTOL2CH1Y9QCBEGTD", "dateTime": 1519188574747}, {"current_trial": 236, "trialdata": {"rt": -1, "trial_type": "single-stim", "word": "report", "stimulus": "<p id=\"stim\">REPORT</p>", "conditions": [12, 800, "v", 12000], "internal_node_id": "0.0-173.0", "trial": 6, "time_elapsed": 3119573, "serialpos": 11, "key_press": -1, "wordID": 1183, "type": "PRES_VIS", "trial_index": 236}, "uniqueid": "MTK2653:3R6P78PK7LI27HTOL2CH1Y9QCBEGTD", "dateTime": 1519188576516}, {"current_trial": 237, "trialdata": {"rt": -1, "trial_type": "single-stim", "stimulus": "", "internal_node_id": "0.0-174.0-0.0", "time_elapsed": 3121885, "key_press": -1, "type": "PRE_RECALL_DELAY", "trial_index": 237}, "uniqueid": "MTK2653:3R6P78PK7LI27HTOL2CH1Y9QCBEGTD", "dateTime": 1519188578828}, {"current_trial": 238, "trialdata": {"rt": -1000, "trial_type": "single-audio", "stimulus": "/static/audio/400Hz.wav", "internal_node_id": "0.0-175.0", "time_elapsed": 3122386, "key_press": -1, "type": "PRE_RECALL_ALERT", "trial_index": 238}, "uniqueid": "MTK2653:3R6P78PK7LI27HTOL2CH1Y9QCBEGTD", "dateTime": 1519188579329}, {"current_trial": 239, "trialdata": {"rt": [4053, 6517, 10582, 12597, 14646, 18181, 32613, 41636], "recwords": ["kitchen", "basement", "bathtub", "report", "lizard", "dancer", "salad", "lettuce"], "key_times": [1863, 2054, 2470, 2726, 2870, 3014, 3214, 4053, 4798, 4950, 5149, 5342, 5590, 5678, 6078, 6206, 6517, 7294, 7422, 7790, 7910, 8246, 8854, 9213, 9854, 10125, 10582, 11286, 11445, 11839, 12038, 12174, 12382, 12597, 13317, 13550, 13782, 13957, 14286, 14470, 14646, 17093, 17310, 17501, 17622, 17837, 17997, 18181, 31566, 31765, 31972, 32077, 32436, 32613, 40212, 40404, 40684, 40828, 41020, 41308, 41492, 41636], "trial_type": "free-recall", "conditions": [12, 800, "v", 12000], "internal_node_id": "0.0-176.0-0.0", "key_presses": [75, 73, 84, 67, 72, 69, 78, 13, 66, 65, 83, 69, 77, 69, 78, 84, 13, 66, 65, 84, 72, 82, 8, 84, 85, 66, 13, 82, 69, 80, 79, 82, 84, 13, 76, 73, 90, 65, 82, 68, 13, 68, 65, 78, 67, 69, 82, 13, 83, 65, 76, 65, 68, 13, 76, 69, 84, 84, 85, 67, 69, 13], "trial": 6, "time_elapsed": 3182388, "type": "FREE_RECALL", "trial_index": 239}, "uniqueid": "MTK2653:3R6P78PK7LI27HTOL2CH1Y9QCBEGTD", "dateTime": 1519188639336}, {"current_trial": 240, "trialdata": {"rt": 1715, "trial_type": "text", "internal_node_id": "0.0-177.0", "time_elapsed": 3186111, "key_press": 13, "type": "INSTRUCTIONS", "trial_index": 240}, "uniqueid": "MTK2653:3R6P78PK7LI27HTOL2CH1Y9QCBEGTD", "dateTime": 1519188643054}, {"current_trial": 241, "trialdata": {"rt": [2988, 7084, 9163], "trial_type": "math-distractor", "key_times": [2244, 2484, 2988, 5596, 5756, 7084, 8652, 8812, 9163, 11763], "responses": ["16", "18", "11"], "num2": [4, 6, 9, 5], "num3": [6, 4, 1, 6], "conditions": [24, 800, "v", 12000], "internal_node_id": "0.0-178.0", "key_presses": [49, 54, 13, 49, 56, 13, 49, 49, 13, 49], "trial": 7, "time_elapsed": 3200116, "type": "DISTRACTOR", "trial_index": 241, "num1": [6, 8, 1, 4]}, "uniqueid": "MTK2653:3R6P78PK7LI27HTOL2CH1Y9QCBEGTD", "dateTime": 1519188657059}, {"current_trial": 242, "trialdata": {"rt": -1, "trial_type": "single-stim", "stimulus": "<p id=\"stim\">10</p>", "internal_node_id": "0.0-179.0-0.0", "time_elapsed": 3203120, "key_press": -1, "trial_index": 242}, "uniqueid": "MTK2653:3R6P78PK7LI27HTOL2CH1Y9QCBEGTD", "dateTime": 1519188660063}, {"current_trial": 243, "trialdata": {"rt": -1, "trial_type": "single-stim", "stimulus": "<p id=\"stim\">9</p>", "internal_node_id": "0.0-179.0-1.0", "time_elapsed": 3204122, "key_press": -1, "trial_index": 243}, "uniqueid": "MTK2653:3R6P78PK7LI27HTOL2CH1Y9QCBEGTD", "dateTime": 1519188661065}, {"current_trial": 244, "trialdata": {"rt": -1, "trial_type": "single-stim", "stimulus": "<p id=\"stim\">8</p>", "internal_node_id": "0.0-179.0-2.0", "time_elapsed": 3205124, "key_press": -1, "trial_index": 244}, "uniqueid": "MTK2653:3R6P78PK7LI27HTOL2CH1Y9QCBEGTD", "dateTime": 1519188662067}, {"current_trial": 245, "trialdata": {"rt": -1, "trial_type": "single-stim", "stimulus": "<p id=\"stim\">7</p>", "internal_node_id": "0.0-179.0-3.0", "time_elapsed": 3206127, "key_press": -1, "trial_index": 245}, "uniqueid": "MTK2653:3R6P78PK7LI27HTOL2CH1Y9QCBEGTD", "dateTime": 1519188663070}, {"current_trial": 246, "trialdata": {"rt": -1, "trial_type": "single-stim", "stimulus": "<p id=\"stim\">6</p>", "internal_node_id": "0.0-179.0-4.0", "time_elapsed": 3207129, "key_press": -1, "trial_index": 246}, "uniqueid": "MTK2653:3R6P78PK7LI27HTOL2CH1Y9QCBEGTD", "dateTime": 1519188664072}, {"current_trial": 247, "trialdata": {"rt": -1, "trial_type": "single-stim", "stimulus": "<p id=\"stim\">5</p>", "internal_node_id": "0.0-179.0-5.0", "time_elapsed": 3208131, "key_press": -1, "trial_index": 247}, "uniqueid": "MTK2653:3R6P78PK7LI27HTOL2CH1Y9QCBEGTD", "dateTime": 1519188665075}, {"current_trial": 248, "trialdata": {"rt": -1, "trial_type": "single-stim", "stimulus": "<p id=\"stim\">4</p>", "internal_node_id": "0.0-179.0-6.0", "time_elapsed": 3209133, "key_press": -1, "trial_index": 248}, "uniqueid": "MTK2653:3R6P78PK7LI27HTOL2CH1Y9QCBEGTD", "dateTime": 1519188666076}, {"current_trial": 249, "trialdata": {"rt": -1, "trial_type": "single-stim", "stimulus": "<p id=\"stim\">3</p>", "internal_node_id": "0.0-179.0-7.0", "time_elapsed": 3210135, "key_press": -1, "trial_index": 249}, "uniqueid": "MTK2653:3R6P78PK7LI27HTOL2CH1Y9QCBEGTD", "dateTime": 1519188667079}, {"current_trial": 250, "trialdata": {"rt": -1, "trial_type": "single-stim", "stimulus": "<p id=\"stim\">2</p>", "internal_node_id": "0.0-179.0-8.0", "time_elapsed": 3211138, "key_press": -1, "trial_index": 250}, "uniqueid": "MTK2653:3R6P78PK7LI27HTOL2CH1Y9QCBEGTD", "dateTime": 1519188668081}, {"current_trial": 251, "trialdata": {"rt": -1, "trial_type": "single-stim", "stimulus": "<p id=\"stim\">1</p>", "internal_node_id": "0.0-179.0-9.0", "time_elapsed": 3212140, "key_press": -1, "trial_index": 251}, "uniqueid": "MTK2653:3R6P78PK7LI27HTOL2CH1Y9QCBEGTD", "dateTime": 1519188669083}, {"current_trial": 252, "trialdata": {"rt": -1, "trial_type": "single-stim", "stimulus": "<p id=\"stim\">+</p>", "internal_node_id": "0.0-180.0-0.0", "time_elapsed": 3213642, "key_press": -1, "type": "FIXATION", "trial_index": 252}, "uniqueid": "MTK2653:3R6P78PK7LI27HTOL2CH1Y9QCBEGTD", "dateTime": 1519188670585}, {"current_trial": 253, "trialdata": {"rt": -1, "trial_type": "single-stim", "word": "parent", "stimulus": "<p id=\"stim\">PARENT</p>", "conditions": [24, 800, "v", 12000], "internal_node_id": "0.0-181.0", "trial": 7, "time_elapsed": 3214444, "serialpos": 0, "key_press": -1, "wordID": 1012, "type": "PRES_VIS", "trial_index": 253}, "uniqueid": "MTK2653:3R6P78PK7LI27HTOL2CH1Y9QCBEGTD", "dateTime": 1519188671387}, {"current_trial": 254, "trialdata": {"rt": -1, "trial_type": "single-stim", "word": "honey", "stimulus": "<p id=\"stim\">HONEY</p>", "conditions": [24, 800, "v", 12000], "internal_node_id": "0.0-182.0", "trial": 7, "time_elapsed": 3216391, "serialpos": 1, "key_press": -1, "wordID": 712, "type": "PRES_VIS", "trial_index": 254}, "uniqueid": "MTK2653:3R6P78PK7LI27HTOL2CH1Y9QCBEGTD", "dateTime": 1519188673334}, {"current_trial": 255, "trialdata": {"rt": -1, "trial_type": "single-stim", "word": "sculpture", "stimulus": "<p id=\"stim\">SCULPTURE</p>", "conditions": [24, 800, "v", 12000], "internal_node_id": "0.0-183.0", "trial": 7, "time_elapsed": 3218155, "serialpos": 2, "key_press": -1, "wordID": 1257, "type": "PRES_VIS", "trial_index": 255}, "uniqueid": "MTK2653:3R6P78PK7LI27HTOL2CH1Y9QCBEGTD", "dateTime": 1519188675098}, {"current_trial": 256, "trialdata": {"rt": -1, "trial_type": "single-stim", "word": "lamp", "stimulus": "<p id=\"stim\">LAMP</p>", "conditions": [24, 800, "v", 12000], "internal_node_id": "0.0-184.0", "trial": 7, "time_elapsed": 3219797, "serialpos": 3, "key_press": -1, "wordID": 797, "type": "PRES_VIS", "trial_index": 256}, "uniqueid": "MTK2653:3R6P78PK7LI27HTOL2CH1Y9QCBEGTD", "dateTime": 1519188676740}, {"current_trial": 257, "trialdata": {"rt": -1, "trial_type": "single-stim", "word": "milk", "stimulus": "<p id=\"stim\">MILK</p>", "conditions": [24, 800, "v", 12000], "internal_node_id": "0.0-185.0", "trial": 7, "time_elapsed": 3221467, "serialpos": 