{"assignmentId": "3U8YCDAGXQNS4XQBQWTJB1BNJO5Q0L", "workerId": "MTK2215", "questiondata": {"origin": "United States", "strat-rehearsal": "97", "marital": "Married/Domestic Partnership", "education": "Bachelor's degree", "ethnicity": "Not Hispanic", "color_depth": 24, "distracted": "No", "wrote-notes": "Yes", "strat-other": "", "screen_width": 1366, "avail_screen_width": 1366, "avail_screen_height": 720, "strat-image": "65", "language": "english", "gender": "Female", "age": "54", "gender_other": "", "race": ["White"], "strat-categorize": "99", "pixel_depth": 24, "strat-spatial": "3", "strat-story": "97", "race_other": "", "screen_height": 768}, "bonus": 0, "hitId": "3CVBMEMMXBNRMVTY23MWSIXPIOT7H9", "counterbalance": 807, "useragent": "Mozilla/5.0 (X11; CrOS x86_64 9901.77.0) AppleWebKit/537.36 (KHTML, like Gecko) Chrome/62.0.3202.97 Safari/537.36", "eventdata": [{"eventtype": "initialized", "interval": 0, "value": null, "timestamp": 1516840880343}, {"eventtype": "window_resize", "interval": 0, "value": [1366, 648], "timestamp": 1516840880343}, {"eventtype": "window_resize", "interval": 75565, "value": [1346, 628], "timestamp": 1516840955908}, {"eventtype": "focus", "interval": 3705, "value": "off", "timestamp": 1516840959613}, {"eventtype": "focus", "interval": 4906, "value": "on", "timestamp": 1516840964519}, {"eventtype": "focus", "interval": 6, "value": "off", "timestamp": 1516840964525}, {"eventtype": "focus", "interval": 4, "value": "on", "timestamp": 1516840964529}, {"eventtype": "focus", "interval": 12212, "value": "off", "timestamp": 1516840976741}, {"eventtype": "focus", "interval": 3, "value": "on", "timestamp": 1516840976744}, {"eventtype": "focus", "interval": 6958, "value": "off", "timestamp": 1516840983702}, {"eventtype": "focus", "interval": 1, "value": "on", "timestamp": 1516840983703}, {"eventtype": "focus", "interval": 2550142, "value": "off", "timestamp": 1516843533845}, {"eventtype": "focus", "interval": 4779, "value": "on", "timestamp": 1516843538624}], "data": [{"current_trial": 0, "trialdata": {"rt": 15147, "trial_type": "text", "internal_node_id": "0.0-0.0", "time_elapsed": 15153, "key_press": 32, "type": "INSTRUCTIONS", "trial_index": 0}, "uniqueid": "MTK2215:3U8YCDAGXQNS4XQBQWTJB1BNJO5Q0L", "dateTime": 1516840896339}, {"current_trial": 1, "trialdata": {"rt": 23378, "trial_type": "text", "internal_node_id": "0.0-1.0", "time_elapsed": 38537, "key_press": 32, "type": "INSTRUCTIONS", "trial_index": 1}, "uniqueid": "MTK2215:3U8YCDAGXQNS4XQBQWTJB1BNJO5Q0L", "dateTime": 1516840919722}, {"current_trial": 2, "trialdata": {"rt": [46964], "trial_type": "audio-test", "responses": ["ocean"], "internal_node_id": "0.0-2.0", "time_elapsed": 85559, "type": "AUDIO_TEST", "trial_index": 2}, "uniqueid": "MTK2215:3U8YCDAGXQNS4XQBQWTJB1BNJO5Q0L", "dateTime": 1516840966743}, {"current_trial": 3, "trialdata": {"rt": [6780, 14172, 23675], "trial_type": "audio-test", "responses": ["ctysta", "crysta", "crystal"], "internal_node_id": "0.0-3.0", "time_elapsed": 109247, "type": "AUDIO_TEST", "trial_index": 3}, "uniqueid": "MTK2215:3U8YCDAGXQNS4XQBQWTJB1BNJO5Q0L", "dateTime": 1516840990431}, {"current_trial": 4, "trialdata": {"rt": [9560], "trial_type": "audio-test", "responses": ["spice"], "internal_node_id": "0.0-4.0", "time_elapsed": 118815, "type": "AUDIO_TEST", "trial_index": 4}, "uniqueid": "MTK2215:3U8YCDAGXQNS4XQBQWTJB1BNJO5Q0L", "dateTime": 1516840999999}, {"current_trial": 5, "trialdata": {"rt": 51380, "trial_type": "survey-text", "responses": "{\"Q0\":\"10:45pm\",\"Q1\":\"5:50am\",\"Q2\":\"4\"}", "internal_node_id": "0.0-5.0", "time_elapsed": 170956, "type": "SLEEP_SURVEY", "trial_index": 5}, "uniqueid": "MTK2215:3U8YCDAGXQNS4XQBQWTJB1BNJO5Q0L", "dateTime": 1516841052140}, {"current_trial": 6, "trialdata": {"rt": 28449, "trial_type": "text", "internal_node_id": "0.0-6.0", "time_elapsed": 200408, "key_press": 32, "type": "INSTRUCTIONS", "trial_index": 6}, "uniqueid": "MTK2215:3U8YCDAGXQNS4XQBQWTJB1BNJO5Q0L", "dateTime": 1516841081593}, {"current_trial": 7, "trialdata": {"rt": 11595, "trial_type": "text", "internal_node_id": "0.0-7.0", "time_elapsed": 212508, "key_press": 32, "type": "INSTRUCTIONS", "trial_index": 7}, "uniqueid": "MTK2215:3U8YCDAGXQNS4XQBQWTJB1BNJO5Q0L", "dateTime": 1516841093693}, {"current_trial": 8, "trialdata": {"rt": 8707, "trial_type": "text", "internal_node_id": "0.0-8.0", "time_elapsed": 221720, "key_press": 32, "type": "INSTRUCTIONS", "trial_index": 8}, "uniqueid": "MTK2215:3U8YCDAGXQNS4XQBQWTJB1BNJO5Q0L", "dateTime": 1516841102904}, {"current_trial": 9, "trialdata": {"rt": [4640, 10140, 15330], "trial_type": "math-distractor", "key_times": [3122, 3374, 4640, 8264, 8814, 10140, 12992, 13305, 15330, 17431], "responses": ["12", "15", "13"], "num2": [4, 4, 1, 2], "num3": [6, 3, 4, 1], "conditions": [18, 1200, "v", 18000], "internal_node_id": "0.0-9.0", "key_presses": [49, 50, 13, 49, 53, 13, 49, 51, 13, 57], "trial": 0, "time_elapsed": 240768, "type": "DISTRACTOR", "trial_index": 9, "num1": [2, 8, 8, 6]}, "uniqueid": "MTK2215:3U8YCDAGXQNS4XQBQWTJB1BNJO5Q0L", "dateTime": 1516841121952}, {"current_trial": 10, "trialdata": {"rt": -1, "trial_type": "single-stim", "stimulus": "<p id=\"stim\">10</p>", "internal_node_id": "0.0-10.0-0.0", "time_elapsed": 243773, "key_press": -1, "trial_index": 10}, "uniqueid": "MTK2215:3U8YCDAGXQNS4XQBQWTJB1BNJO5Q0L", "dateTime": 1516841124958}, {"current_trial": 11, "trialdata": {"rt": -1, "trial_type": "single-stim", "stimulus": "<p id=\"stim\">9</p>", "internal_node_id": "0.0-10.0-1.0", "time_elapsed": 244776, "key_press": -1, "trial_index": 11}, "uniqueid": "MTK2215:3U8YCDAGXQNS4XQBQWTJB1BNJO5Q0L", "dateTime": 1516841125960}, {"current_trial": 12, "trialdata": {"rt": -1, "trial_type": "single-stim", "stimulus": "<p id=\"stim\">8</p>", "internal_node_id": "0.0-10.0-2.0", "time_elapsed": 245779, "key_press": -1, "trial_index": 12}, "uniqueid": "MTK2215:3U8YCDAGXQNS4XQBQWTJB1BNJO5Q0L", "dateTime": 1516841126963}, {"current_trial": 13, "trialdata": {"rt": -1, "trial_type": "single-stim", "stimulus": "<p id=\"stim\">7</p>", "internal_node_id": "0.0-10.0-3.0", "time_elapsed": 246782, "key_press": -1, "trial_index": 13}, "uniqueid": "MTK2215:3U8YCDAGXQNS4XQBQWTJB1BNJO5Q0L", "dateTime": 1516841127966}, {"current_trial": 14, "trialdata": {"rt": -1, "trial_type": "single-stim", "stimulus": "<p id=\"stim\">6</p>", "internal_node_id": "0.0-10.0-4.0", "time_elapsed": 247785, "key_press": -1, "trial_index": 14}, "uniqueid": "MTK2215:3U8YCDAGXQNS4XQBQWTJB1BNJO5Q0L", "dateTime": 1516841128969}, {"current_trial": 15, "trialdata": {"rt": -1, "trial_type": "single-stim", "stimulus": "<p id=\"stim\">5</p>", "internal_node_id": "0.0-10.0-5.0", "time_elapsed": 248789, "key_press": -1, "trial_index": 15}, "uniqueid": "MTK2215:3U8YCDAGXQNS4XQBQWTJB1BNJO5Q0L", "dateTime": 1516841129973}, {"current_trial": 16, "trialdata": {"rt": -1, "trial_type": "single-stim", "stimulus": "<p id=\"stim\">4</p>", "internal_node_id": "0.0-10.0-6.0", "time_elapsed": 249792, "key_press": -1, "trial_index": 16}, "uniqueid": "MTK2215:3U8YCDAGXQNS4XQBQWTJB1BNJO5Q0L", "dateTime": 1516841130976}, {"current_trial": 17, "trialdata": {"rt": -1, "trial_type": "single-stim", "stimulus": "<p id=\"stim\">3</p>", "internal_node_id": "0.0-10.0-7.0", "time_elapsed": 250796, "key_press": -1, "trial_index": 17}, "uniqueid": "MTK2215:3U8YCDAGXQNS4XQBQWTJB1BNJO5Q0L", "dateTime": 1516841131981}, {"current_trial": 18, "trialdata": {"rt": -1, "trial_type": "single-stim", "stimulus": "<p id=\"stim\">2</p>", "internal_node_id": "0.0-10.0-8.0", "time_elapsed": 251800, "key_press": -1, "trial_index": 18}, "uniqueid": "MTK2215:3U8YCDAGXQNS4XQBQWTJB1BNJO5Q0L", "dateTime": 1516841132984}, {"current_trial": 19, "trialdata": {"rt": -1, "trial_type": "single-stim", "stimulus": "<p id=\"stim\">1</p>", "internal_node_id": "0.0-10.0-9.0", "time_elapsed": 252803, "key_press": -1, "trial_index": 19}, "uniqueid": "MTK2215:3U8YCDAGXQNS4XQBQWTJB1BNJO5Q0L", "dateTime": 1516841133987}, {"current_trial": 20, "trialdata": {"rt": -1, "trial_type": "single-stim", "stimulus": "<p id=\"stim\">+</p>", "internal_node_id": "0.0-11.0-0.0", "time_elapsed": 254306, "key_press": -1, "type": "FIXATION", "trial_index": 20}, "uniqueid": "MTK2215:3U8YCDAGXQNS4XQBQWTJB1BNJO5Q0L", "dateTime": 1516841135490}, {"current_trial": 21, "trialdata": {"rt": -1, "trial_type": "single-stim", "word": "highway", "stimulus": "<p id=\"stim\">HIGHWAY</p>", "conditions": [18, 1200, "v", 18000], "internal_node_id": "0.0-12.0", "trial": 0, "time_elapsed": 255510, "serialpos": 0, "key_press": -1, "wordID": 706, "type": "PRES_VIS", "trial_index": 21}, "uniqueid": "MTK2215:3U8YCDAGXQNS4XQBQWTJB1BNJO5Q0L", "dateTime": 1516841136694}, {"current_trial": 22, "trialdata": {"rt": -1, "trial_type": "single-stim", "word": "judge", "stimulus": "<p id=\"stim\">JUDGE</p>", "conditions": [18, 1200, "v", 18000], "internal_node_id": "0.0-13.0", "trial": 0, "time_elapsed": 257690, "serialpos": 1, "key_press": -1, "wordID": 760, "type": "PRES_VIS", "trial_index": 22}, "uniqueid": "MTK2215:3U8YCDAGXQNS4XQBQWTJB1BNJO5Q0L", "dateTime": 1516841138874}, {"current_trial": 23, "trialdata": {"rt": -1, "trial_type": "single-stim", "word": "crib", "stimulus": "<p id=\"stim\">CRIB</p>", "conditions": [18, 1200, "v", 18000], "internal_node_id": "0.0-14.0", "trial": 0, "time_elapsed": 259786, "serialpos": 2, "key_press": -1, "wordID": 406, "type": "PRES_VIS", "trial_index": 23}, "uniqueid": "MTK2215:3U8YCDAGXQNS4XQBQWTJB1BNJO5Q0L", "dateTime": 1516841140971}, {"current_trial": 24, "trialdata": {"rt": -1, "trial_type": "single-stim", "word": "basement", "stimulus": "<p id=\"stim\">BASEMENT</p>", "conditions": [18, 1200, "v", 18000], "internal_node_id": "0.0-15.0", "trial": 0, "time_elapsed": 261927, "serialpos": 3, "key_press": -1, "wordID": 93, "type": "PRES_VIS", "trial_index": 24}, "uniqueid": "MTK2215:3U8YCDAGXQNS4XQBQWTJB1BNJO5Q0L", "dateTime": 1516841143111}, {"current_trial": 25, "trialdata": {"rt": -1, "trial_type": "single-stim", "word": "contract", "stimulus": "<p id=\"stim\">CONTRACT</p>", "conditions": [18, 1200, "v", 18000], "internal_node_id": "0.0-16.0", "trial": 0, "time_elapsed": 264029, "serialpos": 4, "key_press": -1, "wordID": 367, "type": "PRES_VIS", "trial_index": 25}, "uniqueid": "MTK2215:3U8YCDAGXQNS4XQBQWTJB1BNJO5Q0L", "dateTime": 1516841145214}, {"current_trial": 26, "trialdata": {"rt": -1, "trial_type": "single-stim", "word": "piston", "stimulus": "<p id=\"stim\">PISTON</p>", "conditions": [18, 1200, "v", 18000], "internal_node_id": "0.0-17.0", "trial": 0, "time_elapsed": 266192, "serialpos": 5, "key_press": -1, "wordID": 1075, "type": "PRES_VIS", "trial_index": 26}, "uniqueid": "MTK2215:3U8YCDAGXQNS4XQBQWTJB1BNJO5Q0L", "dateTime": 1516841147376}, {"current_trial": 27, "trialdata": {"rt": -1, "trial_type": "single-stim", "word": "cyclone", "stimulus": "<p id=\"stim\">CYCLONE</p>", "conditions": [18, 1200, "v", 18000], "internal_node_id": "0.0-18.0", "trial": 0, "time_elapsed": 268354, "serialpos": 6, "key_press": -1, "wordID": 430, "type": "PRES_VIS", "trial_index": 27}, "uniqueid": "MTK2215:3U8YCDAGXQNS4XQBQWTJB1BNJO5Q0L", "dateTime": 1516841149538}, {"current_trial": 28, "trialdata": {"rt": -1, "trial_type": "single-stim", "word": "thief", "stimulus": "<p id=\"stim\">THIEF</p>", "conditions": [18, 1200, "v", 18000], "internal_node_id": "0.0-19.0", "trial": 0, "time_elapsed": 270555, "serialpos": 7, "key_press": -1, "wordID": 1455, "type": "PRES_VIS", "trial_index": 28}, "uniqueid": "MTK2215:3U8YCDAGXQNS4XQBQWTJB1BNJO5Q0L", "dateTime": 1516841151740}, {"current_trial": 29, "trialdata": {"rt": -1, "trial_type": "single-stim", "word": "outlaw", "stimulus": "<p id=\"stim\">OUTLAW</p>", "conditions": [18, 1200, "v", 18000], "internal_node_id": "0.0-20.0", "trial": 0, "time_elapsed": 272569, "serialpos": 8, "key_press": -1, "wordID": 988, "type": "PRES_VIS", "trial_index": 29}, "uniqueid": "MTK2215:3U8YCDAGXQNS4XQBQWTJB1BNJO5Q0L", "dateTime": 1516841153754}, {"current_trial": 30, "trialdata": {"rt": -1, "trial_type": "single-stim", "word": "flesh", "stimulus": "<p id=\"stim\">FLESH</p>", "conditions": [18, 1200, "v", 18000], "internal_node_id": "0.0-21.0", "trial": 0, "time_elapsed": 274650, "serialpos": 9, "key_press": -1, "wordID": 578, "type": "PRES_VIS", "trial_index": 30}, "uniqueid": "MTK2215:3U8YCDAGXQNS4XQBQWTJB1BNJO5Q0L", "dateTime": 1516841155835}, {"current_trial": 31, "trialdata": {"rt": -1, "trial_type": "single-stim", "word": "daisy", "stimulus": "<p id=\"stim\">DAISY</p>", "conditions": [18, 1200, "v", 18000], "internal_node_id": "0.0-22.0", "trial": 0, "time_elapsed": 276938, "serialpos": 10, "key_press": -1, "wordID": 434, "type": "PRES_VIS", "trial_index": 31}, "uniqueid": "MTK2215:3U8YCDAGXQNS4XQBQWTJB1BNJO5Q0L", "dateTime": 1516841158123}, {"current_trial": 32, "trialdata": {"rt": -1, "trial_type": "single-stim", "word": "lagoon", "stimulus": "<p id=\"stim\">LAGOON</p>", "conditions": [18, 1200, "v", 18000], "internal_node_id": "0.0-23.0", "trial": 0, "time_elapsed": 279179, "serialpos": 11, "key_press": -1, "wordID": 794, "type": "PRES_VIS", "trial_index": 32}, "uniqueid": "MTK2215:3U8YCDAGXQNS4XQBQWTJB1BNJO5Q0L", "dateTime": 1516841160363}, {"current_trial": 33, "trialdata": {"rt": -1, "trial_type": "single-stim", "word": "banker", "stimulus": "<p id=\"stim\">BANKER</p>", "conditions": [18, 1200, "v", 18000], "internal_node_id": "0.0-24.0", "trial": 0, "time_elapsed": 281215, "serialpos": 12, "key_press": -1, "wordID": 83, "type": "PRES_VIS", "trial_index": 33}, "uniqueid": "MTK2215:3U8YCDAGXQNS4XQBQWTJB1BNJO5Q0L", "dateTime": 1516841162399}, {"current_trial": 34, "trialdata": {"rt": -1, "trial_type": "single-stim", "word": "playground", "stimulus": "<p id=\"stim\">PLAYGROUND</p>", "conditions": [18, 1200, "v", 18000], "internal_node_id": "0.0-25.0", "trial": 0, "time_elapsed": 283249, "serialpos": 13, "key_press": -1, "wordID": 1086, "type": "PRES_VIS", "trial_index": 34}, "uniqueid": "MTK2215:3U8YCDAGXQNS4XQBQWTJB1BNJO5Q0L", "dateTime": 1516841164433}, {"current_trial": 35, "trialdata": {"rt": -1, "trial_type": "single-stim", "word": "coffee", "stimulus": "<p id=\"stim\">COFFEE</p>", "conditions": [18, 1200, "v", 18000], "internal_node_id": "0.0-26.0", "trial": 0, "time_elapsed": 285299, "serialpos": 14, "key_press": -1, "wordID": 340, "type": "PRES_VIS", "trial_index": 35}, "uniqueid": "MTK2215:3U8YCDAGXQNS4XQBQWTJB1BNJO5Q0L", "dateTime": 1516841166484}, {"current_trial": 36, "trialdata": {"rt": -1, "trial_type": "single-stim", "word": "pistol", "stimulus": "<p id=\"stim\">PISTOL</p>", "conditions": [18, 1200, "v", 18000], "internal_node_id": "0.0-27.0", "trial": 0, "time_elapsed": 287560, "serialpos": 15, "key_press": -1, "wordID": 1074, "type": "PRES_VIS", "trial_index": 36}, "uniqueid": "MTK2215:3U8YCDAGXQNS4XQBQWTJB1BNJO5Q0L", "dateTime": 1516841168745}, {"current_trial": 37, "trialdata": {"rt": -1, "trial_type": "single-stim", "word": "chipmunk", "stimulus": "<p id=\"stim\">CHIPMUNK</p>", "conditions": [18, 1200, "v", 18000], "internal_node_id": "0.0-28.0", "trial": 0, "time_elapsed": 289731, "serialpos": 16, "key_press": -1, "wordID": 303, "type": "PRES_VIS", "trial_index": 37}, "uniqueid": "MTK2215:3U8YCDAGXQNS4XQBQWTJB1BNJO5Q0L", "dateTime": 1516841170916}, {"current_trial": 38, "trialdata": {"rt": -1, "trial_type": "single-stim", "word": "fragrance", "stimulus": "<p id=\"stim\">FRAGRANCE</p>", "conditions": [18, 1200, "v", 18000], "internal_node_id": "0.0-29.0", "trial": 0, "time_elapsed": 291984, "serialpos": 17, "key_press": -1, "wordID": 598, "type": "PRES_VIS", "trial_index": 38}, "uniqueid": "MTK2215:3U8YCDAGXQNS4XQBQWTJB1BNJO5Q0L", "dateTime": 1516841173169}, {"current_trial": 39, "trialdata": {"rt": -1, "trial_type": "single-stim", "stimulus": "", "internal_node_id": "0.0-30.0-0.0", "time_elapsed": 294173, "key_press": -1, "type": "PRE_RECALL_DELAY", "trial_index": 39}, "uniqueid": "MTK2215:3U8YCDAGXQNS4XQBQWTJB1BNJO5Q0L", "dateTime": 1516841175358}, {"current_trial": 40, "trialdata": {"rt": -1000, "trial_type": "single-audio", "stimulus": "/static/audio/400Hz.wav", "internal_node_id": "0.0-31.0", "time_elapsed": 294679, "key_press": -1, "type": "PRE_RECALL_ALERT", "trial_index": 40}, "uniqueid": "MTK2215:3U8YCDAGXQNS4XQBQWTJB1BNJO5Q0L", "dateTime": 1516841175863}, {"current_trial": 41, "trialdata": {"rt": [3997, 6957, 9423, 11341, 29724, 35747, 41646], "recwords": ["highway", "crib", "banker", "judge", "piston", "piston", "banker"], "key_times": [1326, 1626, 1862, 2035, 2501, 2749, 2984, 3997, 5198, 5520, 6011, 6300, 6957, 7435, 7754, 8154, 8435, 8680, 8916, 9423, 9820, 10049, 10332, 10590, 10784, 11341, 27728, 28032, 28295, 28654, 28903, 29192, 29724, 33449, 33774, 34429, 34759, 34979, 35230, 35747, 39403, 39644, 40052, 40431, 40689, 40936, 41646], "trial_type": "free-recall", "conditions": [18, 1200, "v", 18000], "internal_node_id": "0.0-32.0-0.0", "key_presses": [72, 73, 71, 72, 87, 65, 89, 13, 67, 82, 73, 66, 13, 66, 65, 78, 75, 69, 82, 13, 74, 85, 68, 71, 69, 13, 80, 73, 83, 84, 79, 78, 13, 80, 73, 83, 84, 79, 78, 13, 66, 65, 78, 75, 69, 82, 13], "trial": 0, "time_elapsed": 354686, "type": "FREE_RECALL", "trial_index": 41}, "uniqueid": "MTK2215:3U8YCDAGXQNS4XQBQWTJB1BNJO5Q0L", "dateTime": 1516841235876}, {"current_trial": 42, "trialdata": {"rt": 1623, "trial_type": "text", "internal_node_id": "0.0-33.0", "time_elapsed": 358318, "key_press": 32, "type": "INSTRUCTIONS", "trial_index": 42}, "uniqueid": "MTK2215:3U8YCDAGXQNS4XQBQWTJB1BNJO5Q0L", "dateTime": 1516841239503}, {"current_trial": 43, "trialdata": {"rt": [4494, 8969, 11478, 14671], "trial_type": "math-distractor", "key_times": [3962, 4173, 4494, 8280, 8523, 8969, 11187, 11478, 13836, 14244, 14671], "responses": ["22", "21", "7", "14"], "num2": [7, 5, 2, 4, 6], "num3": [8, 8, 1, 2, 6], "conditions": [18, 1200, "v", 18000], "internal_node_id": "0.0-34.0", "key_presses": [50, 50, 13, 50, 49, 13, 55, 13, 49, 52, 13], "trial": 1, "time_elapsed": 378329, "type": "DISTRACTOR", "trial_index": 43, "num1": [6, 8, 4, 8, 7]}, "uniqueid": "MTK2215:3U8YCDAGXQNS4XQBQWTJB1BNJO5Q0L", "dateTime": 1516841259513}, {"current_trial": 44, "trialdata": {"rt": -1, "trial_type": "single-stim", "stimulus": "<p id=\"stim\">10</p>", "internal_node_id": "0.0-35.0-0.0", "time_elapsed": 381333, "key_press": -1, "trial_index": 44}, "uniqueid": "MTK2215:3U8YCDAGXQNS4XQBQWTJB1BNJO5Q0L", "dateTime": 1516841262517}, {"current_trial": 45, "trialdata": {"rt": -1, "trial_type": "single-stim", "stimulus": "<p id=\"stim\">9</p>", "internal_node_id": "0.0-35.0-1.0", "time_elapsed": 382337, "key_press": -1, "trial_index": 45}, "uniqueid": "MTK2215:3U8YCDAGXQNS4XQBQWTJB1BNJO5Q0L", "dateTime": 1516841263522}, {"current_trial": 46, "trialdata": {"rt": -1, "trial_type": "single-stim", "stimulus": "<p id=\"stim\">8</p>", "internal_node_id": "0.0-35.0-2.0", "time_elapsed": 383341, "key_press": -1, "trial_index": 46}, "uniqueid": "MTK2215:3U8YCDAGXQNS4XQBQWTJB1BNJO5Q0L", "dateTime": 1516841264525}, {"current_trial": 47, "trialdata": {"rt": -1, "trial_type": "single-stim", "stimulus": "<p id=\"stim\">7</p>", "internal_node_id": "0.0-35.0-3.0", "time_elapsed": 384343, "key_press": -1, "trial_index": 47}, "uniqueid": "MTK2215:3U8YCDAGXQNS4XQBQWTJB1BNJO5Q0L", "dateTime": 1516841265528}, {"current_trial": 48, "trialdata": {"rt": -1, "trial_type": "single-stim", "stimulus": "<p id=\"stim\">6</p>", "internal_node_id": "0.0-35.0-4.0", "time_elapsed": 385348, "key_press": -1, "trial_index": 48}, "uniqueid": "MTK2215:3U8YCDAGXQNS4XQBQWTJB1BNJO5Q0L", "dateTime": 1516841266533}, {"current_trial": 49, "trialdata": {"rt": -1, "trial_type": "single-stim", "stimulus": "<p id=\"stim\">5</p>", "internal_node_id": "0.0-35.0-5.0", "time_elapsed": 386352, "key_press": -1, "trial_index": 49}, "uniqueid": "MTK2215:3U8YCDAGXQNS4XQBQWTJB1BNJO5Q0L", "dateTime": 1516841267536}, {"current_trial": 50, "trialdata": {"rt": -1, "trial_type": "single-stim", "stimulus": "<p id=\"stim\">4</p>", "internal_node_id": "0.0-35.0-6.0", "time_elapsed": 387356, "key_press": -1, "trial_index": 50}, "uniqueid": "MTK2215:3U8YCDAGXQNS4XQBQWTJB1BNJO5Q0L", "dateTime": 1516841268541}, {"current_trial": 51, "trialdata": {"rt": -1, "trial_type": "single-stim", "stimulus": "<p id=\"stim\">3</p>", "internal_node_id": "0.0-35.0-7.0", "time_elapsed": 388360, "key_press": -1, "trial_index": 51}, "uniqueid": "MTK2215:3U8YCDAGXQNS4XQBQWTJB1BNJO5Q0L", "dateTime": 1516841269544}, {"current_trial": 52, "trialdata": {"rt": -1, "trial_type": "single-stim", "stimulus": "<p id=\"stim\">2</p>", "internal_node_id": "0.0-35.0-8.0", "time_elapsed": 389363, "key_press": -1, "trial_index": 52}, "uniqueid": "MTK2215:3U8YCDAGXQNS4XQBQWTJB1BNJO5Q0L", "dateTime": 1516841270548}, {"current_trial": 53, "trialdata": {"rt": -1, "trial_type": "single-stim", "stimulus": "<p id=\"stim\">1</p>", "internal_node_id": "0.0-35.0-9.0", "time_elapsed": 390366, "key_press": -1, "trial_index": 53}, "uniqueid": "MTK2215:3U8YCDAGXQNS4XQBQWTJB1BNJO5Q0L", "dateTime": 1516841271551}, {"current_trial": 54, "trialdata": {"rt": -1, "trial_type": "single-stim", "stimulus": "<p id=\"stim\">+</p>", "internal_node_id": "0.0-36.0-0.0", "time_elapsed": 391871, "key_press": -1, "type": "FIXATION", "trial_index": 54}, "uniqueid": "MTK2215:3U8YCDAGXQNS4XQBQWTJB1BNJO5Q0L", "dateTime": 1516841273056}, {"current_trial": 55, "trialdata": {"rt": -1, "trial_type": "single-stim", "word": "outdoors", "stimulus": "<p id=\"stim\">OUTDOORS</p>", "conditions": [18, 1200, "v", 18000], "internal_node_id": "0.0-37.0", "trial": 1, "time_elapsed": 393077, "serialpos": 0, "key_press": -1, "wordID": 986, "type": "PRES_VIS", "trial_index": 55}, "uniqueid": "MTK2215:3U8YCDAGXQNS4XQBQWTJB1BNJO5Q0L", "dateTime": 1516841274261}, {"current_trial": 56, "trialdata": {"rt": -1, "trial_type": "single-stim", "word": "garlic", "stimulus": "<p id=\"stim\">GARLIC</p>", "conditions": [18, 1200, "v", 18000], "internal_node_id": "0.0-38.0", "trial": 1, "time_elapsed": 395195, "serialpos": 1, "key_press": -1, "wordID": 623, "type": "PRES_VIS", "trial_index": 56}, "uniqueid": "MTK2215:3U8YCDAGXQNS4XQBQWTJB1BNJO5Q0L", "dateTime": 1516841276380}, {"current_trial": 57, "trialdata": {"rt": -1, "trial_type": "single-stim", "word": "rug", "stimulus": "<p id=\"stim\">RUG</p>", "conditions": [18, 1200, "v", 18000], "internal_node_id": "0.0-39.0", "trial": 1, "time_elapsed": 397374, "serialpos": 2, "key_press": -1, "wordID": 1214, "type": "PRES_VIS", "trial_index": 57}, "uniqueid": "MTK2215:3U8YCDAGXQNS4XQBQWTJB1BNJO5Q0L", "dateTime": 1516841278559}, {"current_trial": 58, "trialdata": {"rt": -1, "trial_type": "single-stim", "word": "airport", "stimulus": "<p id=\"stim\">AIRPORT</p>", "conditions": [18, 1200, "v", 18000], "internal_node_id": "0.0-40.0", "trial": 1, "time_elapsed": 399473, "serialpos": 3, "key_press": -1, "wordID": 12, "type": "PRES_VIS", "trial_index": 58}, "uniqueid": "MTK2215:3U8YCDAGXQNS4XQBQWTJB1BNJO5Q0L", "dateTime": 1516841280657}, {"current_trial": 59, "trialdata": {"rt": -1, "trial_type": "single-stim", "word": "cashew", "stimulus": "<p id=\"stim\">CASHEW</p>", "conditions": [18, 1200, "v", 18000], "internal_node_id": "0.0-41.0", "trial": 1, "time_elapsed": 401836, "serialpos": 4, "key_press": -1, "wordID": 252, "type": "PRES_VIS", "trial_index": 59}, "uniqueid": "MTK2215:3U8YCDAGXQNS4XQBQWTJB1BNJO5Q0L", "dateTime": 1516841283021}, {"current_trial": 60, "trialdata": {"rt": -1, "trial_type": "single-stim", "word": "cabbage", "stimulus": "<p id=\"stim\">CABBAGE</p>", "conditions": [18, 1200, "v", 18000], "internal_node_id": "0.0-42.0", "trial": 1, "time_elapsed": 404089, "serialpos": 5, "key_press": -1, "wordID": 209, "type": "PRES_VIS", "trial_index": 60}, "uniqueid": "MTK2215:3U8YCDAGXQNS4XQBQWTJB1BNJO5Q0L", "dateTime": 1516841285274}, {"current_trial": 61, "trialdata": {"rt": -1, "trial_type": "single-stim", "word": "fireplace", "stimulus": "<p id=\"stim\">FIREPLACE</p>", "conditions": [18, 1200, "v", 18000], "internal_node_id": "0.0-43.0", "trial": 1, "time_elapsed": 406302, "serialpos": 6, "key_press": -1, "wordID": 569, "type": "PRES_VIS", "trial_index": 61}, "uniqueid": "MTK2215:3U8YCDAGXQNS4XQBQWTJB1BNJO5Q0L", "dateTime": 1516841287486}, {"current_trial": 62, "trialdata": {"rt": -1, "trial_type": "single-stim", "word": "necklace", "stimulus": "<p id=\"stim\">NECKLACE</p>", "conditions": [18, 1200, "v", 18000], "internal_node_id": "0.0-44.0", "trial": 1, "time_elapsed": 408599, "serialpos": 7, "key_press": -1, "wordID": 939, "type": "PRES_VIS", "trial_index": 62}, "uniqueid": "MTK2215:3U8YCDAGXQNS4XQBQWTJB1BNJO5Q0L", "dateTime": 1516841289784}, {"current_trial": 63, "trialdata": {"rt": -1, "trial_type": "single-stim", "word": "orange", "stimulus": "<p id=\"stim\">ORANGE</p>", "conditions": [18, 1200, "v", 18000], "internal_node_id": "0.0-45.0", "trial": 1, "time_elapsed": 410891, "serialpos": 8, "key_press": -1, "wordID": 979, "type": "PRES_VIS", "trial_index": 63}, "uniqueid": "MTK2215:3U8YCDAGXQNS4XQBQWTJB1BNJO5Q0L", "dateTime": 1516841292075}, {"current_trial": 64, "trialdata": {"rt": -1, "trial_type": "single-stim", "word": "office", "stimulus": "<p id=\"stim\">OFFICE</p>", "conditions": [18, 1200, "v", 18000], "internal_node_id": "0.0-46.0", "trial": 1, "time_elapsed": 413013, "serialpos": 9, "key_press": -1, "wordID": 971, "type": "PRES_VIS", "trial_index": 64}, "uniqueid": "MTK2215:3U8YCDAGXQNS4XQBQWTJB1BNJO5Q0L", "dateTime": 1516841294198}, {"current_trial": 65, "trialdata": {"rt": -1, "trial_type": "single-stim", "word": "captive", "stimulus": "<p id=\"stim\">CAPTIVE</p>", "conditions": [18, 1200, "v", 18000], "internal_node_id": "0.0-47.0", "trial": 1, "time_elapsed": 415133, "serialpos": 10, "key_press": -1, "wordID": 239, "type": "PRES_VIS", "trial_index": 65}, "uniqueid": "MTK2215:3U8YCDAGXQNS4XQBQWTJB1BNJO5Q0L", "dateTime": 1516841296318}, {"current_trial": 66, "trialdata": {"rt": -1, "trial_type": "single-stim", "word": "farmer", "stimulus": "<p id=\"stim\">FARMER</p>", "conditions": [18, 1200, "v", 18000], "internal_node_id": "0.0-48.0", "trial": 1, "time_elapsed": 417456, "serialpos": 11, "key_press": -1, "wordID": 552, "type": "PRES_VIS", "trial_index": 66}, "uniqueid": "MTK2215:3U8YCDAGXQNS4XQBQWTJB1BNJO5Q0L", "dateTime": 1516841298640}, {"current_trial": 67, "trialdata": {"rt": -1, "trial_type": "single-stim", "word": "statue", "stimulus": "<p id=\"stim\">STATUE</p>", "conditions": [18, 1200, "v", 18000], "internal_node_id": "0.0-49.0", "trial": 1, "time_elapsed": 419566, "serialpos": 12, "key_press": -1, "wordID": 1373, "type": "PRES_VIS", "trial_index": 67}, "uniqueid": "MTK2215:3U8YCDAGXQNS4XQBQWTJB1BNJO5Q0L", "dateTime": 1516841300751}, {"current_trial": 68, "trialdata": {"rt": -1, "trial_type": "single-stim", "word": "belly", "stimulus": "<p id=\"stim\">BELLY</p>", "conditions": [18, 1200, "v", 18000], "internal_node_id": "0.0-50.0", "trial": 1, "time_elapsed": 421637, "serialpos": 13, "key_press": -1, "wordID": 118, "type": "PRES_VIS", "trial_index": 68}, "uniqueid": "MTK2215:3U8YCDAGXQNS4XQBQWTJB1BNJO5Q0L", "dateTime": 1516841302825}, {"current_trial": 69, "trialdata": {"rt": -1, "trial_type": "single-stim", "word": "leopard", "stimulus": "<p id=\"stim\">LEOPARD</p>", "conditions": [18, 1200, "v", 18000], "internal_node_id": "0.0-51.0", "trial": 1, "time_elapsed": 423800, "serialpos": 14, "key_press": -1, "wordID": 811, "type": "PRES_VIS", "trial_index": 69}, "uniqueid": "MTK2215:3U8YCDAGXQNS4XQBQWTJB1BNJO5Q0L", "dateTime": 1516841304984}, {"current_trial": 70, "trialdata": {"rt": -1, "trial_type": "single-stim", "word": "bucket", "stimulus": "<p id=\"stim\">BUCKET</p>", "conditions": [18, 1200, "v", 18000], "internal_node_id": "0.0-52.0", "trial": 1, "time_elapsed": 425844, "serialpos": 15, "key_press": -1, "wordID": 183, "type": "PRES_VIS", "trial_index": 70}, "uniqueid": "MTK2215:3U8YCDAGXQNS4XQBQWTJB1BNJO5Q0L", "dateTime": 1516841307029}, {"current_trial": 71, "trialdata": {"rt": -1, "trial_type": "single-stim", "word": "money", "stimulus": "<p id=\"stim\">MONEY</p>", "conditions": [18, 1200, "v", 18000], "internal_node_id": "0.0-53.0", "trial": 1, "time_elapsed": 428112, "serialpos": 16, "key_press": -1, "wordID": 907, "type": "PRES_VIS", "trial_index": 71}, "uniqueid": "MTK2215:3U8YCDAGXQNS4XQBQWTJB1BNJO5Q0L", "dateTime": 1516841309297}, {"current_trial": 72, "trialdata": {"rt": -1, "trial_type": "single-stim", "word": "plate", "stimulus": "<p id=\"stim\">PLATE</p>", "conditions": [18, 1200, "v", 18000], "internal_node_id": "0.0-54.0", "trial": 1, "time_elapsed": 430462, "serialpos": 17, "key_press": -1, "wordID": 1085, "type": "PRES_VIS", "trial_index": 72}, "uniqueid": "MTK2215:3U8YCDAGXQNS4XQBQWTJB1BNJO5Q0L", "dateTime": 1516841311646}, {"current_trial": 73, "trialdata": {"rt": -1, "trial_type": "single-stim", "stimulus": "", "internal_node_id": "0.0-55.0-0.0", "time_elapsed": 432828, "key_press": -1, "type": "PRE_RECALL_DELAY", "trial_index": 73}, "uniqueid": "MTK2215:3U8YCDAGXQNS4XQBQWTJB1BNJO5Q0L", "dateTime": 1516841314013}, {"current_trial": 74, "trialdata": {"rt": -1000, "trial_type": "single-audio", "stimulus": "/static/audio/400Hz.wav", "internal_node_id": "0.0-56.0", "time_elapsed": 433334, "key_press": -1, "type": "PRE_RECALL_ALERT", "trial_index": 74}, "uniqueid": "MTK2215:3U8YCDAGXQNS4XQBQWTJB1BNJO5Q0L", "dateTime": 1516841314518}, {"current_trial": 75, "trialdata": {"rt": [2920, 5198, 8652, 19971, 24145], "recwords": ["plate", "rug", "captive", "necklace", "orange"], "key_times": [778, 1087, 1370, 1719, 1986, 2920, 4006, 4356, 4703, 5198, 5873, 6241, 6681, 6949, 7270, 7655, 7877, 8652, 16596, 16819, 17217, 17714, 18022, 18258, 18607, 18949, 19971, 21510, 21767, 22134, 22386, 22734, 23392, 24145], "trial_type": "free-recall", "conditions": [18, 1200, "v", 18000], "internal_node_id": "0.0-57.0-0.0", "key_presses": [80, 76, 65, 84, 69, 13, 82, 85, 71, 13, 67, 65, 80, 84, 73, 86, 69, 13, 78, 69, 67, 75, 76, 65, 67, 69, 13, 79, 82, 65, 78, 71, 69, 13], "trial": 1, "time_elapsed": 493341, "type": "FREE_RECALL", "trial_index": 75}, "uniqueid": "MTK2215:3U8YCDAGXQNS4XQBQWTJB1BNJO5Q0L", "dateTime": 1516841374536}, {"current_trial": 76, "trialdata": {"rt": 3038, "trial_type": "text", "internal_node_id": "0.0-58.0", "time_elapsed": 498393, "key_press": 32, "type": "INSTRUCTIONS", "trial_index": 76}, "uniqueid": "MTK2215:3U8YCDAGXQNS4XQBQWTJB1BNJO5Q0L", "dateTime": 1516841379578}, {"current_trial": 77, "trialdata": {"rt": [3105, 6739, 10192], "trial_type": "math-distractor", "key_times": [2079, 2569, 3105, 5793, 6267, 6739, 8789, 9411, 10192], "responses": ["15", "17", "17"], "num2": [5, 2, 9, 7], "num3": [5, 6, 7, 9], "conditions": [24, 1600, "v", 12000], "internal_node_id": "0.0-59.0", "key_presses": [49, 53, 13, 49, 55, 13, 49, 55, 13], "trial": 2, "time_elapsed": 511400, "type": "DISTRACTOR", "trial_index": 77, "num1": [5, 9, 1, 1]}, "uniqueid": "MTK2215:3U8YCDAGXQNS4XQBQWTJB1BNJO5Q0L", "dateTime": 1516841392584}, {"current_trial": 78, "trialdata": {"rt": -1, "trial_type": "single-stim", "stimulus": "<p id=\"stim\">10</p>", "internal_node_id": "0.0-60.0-0.0", "time_elapsed": 514403, "key_press": -1, "trial_index": 78}, "uniqueid": "MTK2215:3U8YCDAGXQNS4XQBQWTJB1BNJO5Q0L", "dateTime": 1516841395588}, {"current_trial": 79, "trialdata": {"rt": -1, "trial_type": "single-stim", "stimulus": "<p id=\"stim\">9</p>", "internal_node_id": "0.0-60.0-1.0", "time_elapsed": 515406, "key_press": -1, "trial_index": 79}, "uniqueid": "MTK2215:3U8YCDAGXQNS4XQBQWTJB1BNJO5Q0L", "dateTime": 1516841396590}, {"current_trial": 80, "trialdata": {"rt": -1, "trial_type": "single-stim", "stimulus": "<p id=\"stim\">8</p>", "internal_node_id": "0.0-60.0-2.0", "time_elapsed": 516409, "key_press": -1, "trial_index": 80}, "uniqueid": "MTK2215:3U8YCDAGXQNS4XQBQWTJB1BNJO5Q0L", "dateTime": 1516841397593}, {"current_trial": 81, "trialdata": {"rt": -1, "trial_type": "single-stim", "stimulus": "<p id=\"stim\">7</p>", "internal_node_id": "0.0-60.0-3.0", "time_elapsed": 517412, "key_press": -1, "trial_index": 81}, "uniqueid": "MTK2215:3U8YCDAGXQNS4XQBQWTJB1BNJO5Q0L", "dateTime": 1516841398596}, {"current_trial": 82, "trialdata": {"rt": -1, "trial_type": "single-stim", "stimulus": "<p id=\"stim\">6</p>", "internal_node_id": "0.0-60.0-4.0", "time_elapsed": 518414, "key_press": -1, "trial_index": 82}, "uniqueid": "MTK2215:3U8YCDAGXQNS4XQBQWTJB1BNJO5Q0L", "dateTime": 1516841399598}, {"current_trial": 83, "trialdata": {"rt": -1, "trial_type": "single-stim", "stimulus": "<p id=\"stim\">5</p>", "internal_node_id": "0.0-60.0-5.0", "time_elapsed": 519417, "key_press": -1, "trial_index": 83}, "uniqueid": "MTK2215:3U8YCDAGXQNS4XQBQWTJB1BNJO5Q0L", "dateTime": 1516841400602}, {"current_trial": 84, "trialdata": {"rt": -1, "trial_type": "single-stim", "stimulus": "<p id=\"stim\">4</p>", "internal_node_id": "0.0-60.0-6.0", "time_elapsed": 520421, "key_press": -1, "trial_index": 84}, "uniqueid": "MTK2215:3U8YCDAGXQNS4XQBQWTJB1BNJO5Q0L", "dateTime": 1516841401605}, {"current_trial": 85, "trialdata": {"rt": -1, "trial_type": "single-stim", "stimulus": "<p id=\"stim\">3</p>", "internal_node_id": "0.0-60.0-7.0", "time_elapsed": 521423, "key_press": -1, "trial_index": 85}, "uniqueid": "MTK2215:3U8YCDAGXQNS4XQBQWTJB1BNJO5Q0L", "dateTime": 1516841402607}, {"current_trial": 86, "trialdata": {"rt": -1, "trial_type": "single-stim", "stimulus": "<p id=\"stim\">2</p>", "internal_node_id": "0.0-60.0-8.0", "time_elapsed": 522425, "key_press": -1, "trial_index": 86}, "uniqueid": "MTK2215:3U8YCDAGXQNS4XQBQWTJB1BNJO5Q0L", "dateTime": 1516841403610}, {"current_trial": 87, "trialdata": {"rt": -1, "trial_type": "single-stim", "stimulus": "<p id=\"stim\">1</p>", "internal_node_id": "0.0-60.0-9.0", "time_elapsed": 523429, "key_press": -1, "trial_index": 87}, "uniqueid": "MTK2215:3U8YCDAGXQNS4XQBQWTJB1BNJO5Q0L", "dateTime": 1516841404613}, {"current_trial": 88, "trialdata": {"rt": -1, "trial_type": "single-stim", "stimulus": "<p id=\"stim\">+</p>", "internal_node_id": "0.0-61.0-0.0", "time_elapsed": 524934, "key_press": -1, "type": "FIXATION", "trial_index": 88}, "uniqueid": "MTK2215:3U8YCDAGXQNS4XQBQWTJB1BNJO5Q0L", "dateTime": 1516841406118}, {"current_trial": 89, "trialdata": {"rt": -1, "trial_type": "single-stim", "word": "daughter", "stimulus": "<p id=\"stim\">DAUGHTER</p>", "conditions": [24, 1600, "v", 12000], "internal_node_id": "0.0-62.0", "trial": 2, "time_elapsed": 526537, "serialpos": 0, "key_press": -1, "wordID": 441, "type": "PRES_VIS", "trial_index": 89}, "uniqueid": "MTK2215:3U8YCDAGXQNS4XQBQWTJB1BNJO5Q0L", "dateTime": 1516841407722}, {"current_trial": 90, "trialdata": {"rt": -1, "trial_type": "single-stim", "word": "blade", "stimulus": "<p id=\"stim\">BLADE</p>", "conditions": [24, 1600, "v", 12000], "internal_node_id": "0.0-63.0", "trial": 2, "time_elapsed": 528965, "serialpos": 1, "key_press": -1, "wordID": 133, "type": "PRES_VIS", "trial_index": 90}, "uniqueid": "MTK2215:3U8YCDAGXQNS4XQBQWTJB1BNJO5Q0L", "dateTime": 1516841410149}, {"current_trial": 91, "trialdata": {"rt": -1, "trial_type": "single-stim", "word": "glass", "stimulus": "<p id=\"stim\">GLASS</p>", "conditions": [24, 1600, "v", 12000], "internal_node_id": "0.0-64.0", "trial": 2, "time_elapsed": 531761, "serialpos": 2, "key_press": -1, "wordID": 638, "type": "PRES_VIS", "trial_index": 91}, "uniqueid": "MTK2215:3U8YCDAGXQNS4XQBQWTJB1BNJO5Q0L", "dateTime": 1516841412945}, {"current_trial": 92, "trialdata": {"rt": -1, "trial_type": "single-stim", "word": "child", "stimulus": "<p id=\"stim\">CHILD</p>", "conditions": [24, 1600, "v", 12000], "internal_node_id": "0.0-65.0", "trial": 2, "time_elapsed": 534396, "serialpos": 3, "key_press": -1, "wordID": 298, "type": "PRES_VIS", "trial_index": 92}, "uniqueid": "MTK2215:3U8YCDAGXQNS4XQBQWTJB1BNJO5Q0L", "dateTime": 1516841415580}, {"current_trial": 93, "trialdata": {"rt": -1, "trial_type": "single-stim", "word": "stallion", "stimulus": "<p id=\"stim\">STALLION</p>", "conditions": [24, 1600, "v", 12000], "internal_node_id": "0.0-66.0", "trial": 2, "time_elapsed": 536953, "serialpos": 4, "key_press": -1, "wordID": 1368, "type": "PRES_VIS", "trial_index": 93}, "uniqueid": "MTK2215:3U8YCDAGXQNS4XQBQWTJB1BNJO5Q0L", "dateTime": 1516841418137}, {"current_trial": 94, "trialdata": {"rt": -1, "trial_type": "single-stim", "word": "cross", "stimulus": "<p id=\"stim\">CROSS</p>", "conditions": [24, 1600, "v", 12000], "internal_node_id": "0.0-67.0", "trial": 2, "time_elapsed": 539589, "serialpos": 5, "key_press": -1, "wordID": 412, "type": "PRES_VIS", "trial_index": 94}, "uniqueid": "MTK2215:3U8YCDAGXQNS4XQBQWTJB1BNJO5Q0L", "dateTime": 1516841420774}, {"current_trial": 95, "trialdata": {"rt": -1, "trial_type": "single-stim", "word": "fruit", "stimulus": "<p id=\"stim\">FRUIT</p>", "conditions": [24, 1600, "v", 12000], "internal_node_id": "0.0-68.0", "trial": 2, "time_elapsed": 542129, "serialpos": 6, "key_press": -1, "wordID": 609, "type": "PRES_VIS", "trial_index": 95}, "uniqueid": "MTK2215:3U8YCDAGXQNS4XQBQWTJB1BNJO5Q0L", "dateTime": 1516841423313}, {"current_trial": 96, "trialdata": {"rt": -1, "trial_type": "single-stim", "word": "shoulder", "stimulus": "<p id=\"stim\">SHOULDER</p>", "conditions": [24, 1600, "v", 12000], "internal_node_id": "0.0-69.0", "trial": 2, "time_elapsed": 544875, "serialpos": 7, "key_press": -1, "wordID": 1293, "type": "PRES_VIS", "trial_index": 96}, "uniqueid": "MTK2215:3U8YCDAGXQNS4XQBQWTJB1BNJO5Q0L", "dateTime": 1516841426059}, {"current_trial": 97, "trialdata": {"rt": -1, "trial_type": "single-stim", "word": "ground", "stimulus": "<p id=\"stim\">GROUND</p>", "conditions": [24, 1600, "v", 12000], "internal_node_id": "0.0-70.0", "trial": 2, "time_elapsed": 547391, "serialpos": 8, "key_press": -1, "wordID": 665, "type": "PRES_VIS", "trial_index": 97}, "uniqueid": "MTK2215:3U8YCDAGXQNS4XQBQWTJB1BNJO5Q0L", "dateTime": 1516841428575}, {"current_trial": 98, "trialdata": {"rt": -1, "trial_type": "single-stim", "word": "cattle", "stimulus": "<p id=\"stim\">CATTLE</p>", "conditions": [24, 1600, "v", 12000], "internal_node_id": "0.0-71.0", "trial": 2, "time_elapsed": 550080, "serialpos": 9, "key_press": -1, "wordID": 260, "type": "PRES_VIS", "trial_index": 98}, "uniqueid": "MTK2215:3U8YCDAGXQNS4XQBQWTJB1BNJO5Q0L", "dateTime": 1516841431264}, {"current_trial": 99, "trialdata": {"rt": -1, "trial_type": "single-stim", "word": "bison", "stimulus": "<p id=\"stim\">BISON</p>", "conditions": [24, 1600, "v", 12000], "internal_node_id": "0.0-72.0", "trial": 2, "time_elapsed": 552753, "serialpos": 10, "key_press": -1, "wordID": 130, "type": "PRES_VIS", "trial_index": 99}, "uniqueid": "MTK2215:3U8YCDAGXQNS4XQBQWTJB1BNJO5Q0L", "dateTime": 1516841433937}, {"current_trial": 100, "trialdata": {"rt": -1, "trial_type": "single-stim", "word": "uncle", "stimulus": "<p id=\"stim\">UNCLE</p>", "conditions": [24, 1600, "v", 12000], "internal_node_id": "0.0-73.0", "trial": 2, "time_elapsed": 555292, "serialpos": 11, "key_press": -1, "wordID": 1535, "type": "PRES_VIS", "trial_index": 100}, "uniqueid": "MTK2215:3U8YCDAGXQNS4XQBQWTJB1BNJO5Q0L", "dateTime": 1516841436476}, {"current_trial": 101, "trialdata": {"rt": -1, "trial_type": "single-stim", "word": "nurse", "stimulus": "<p id=\"stim\">NURSE</p>", "conditions": [24, 1600, "v", 12000], "internal_node_id": "0.0-74.0", "trial": 2, "time_elapsed": 558085, "serialpos": 12, "key_press": -1, "wordID": 962, "type": "PRES_VIS", "trial_index": 101}, "uniqueid": "MTK2215:3U8YCDAGXQNS4XQBQWTJB1BNJO5Q0L", "dateTime": 1516841439269}, {"current_trial": 102, "trialdata": {"rt": -1, "trial_type": "single-stim", "word": "trombone", "stimulus": "<p id=\"stim\">TROMBONE</p>", "conditions": [24, 1600, "v", 12000], "internal_node_id": "0.0-75.0", "trial": 2, "time_elapsed": 560823, "serialpos": 13, "key_press": -1, "wordID": 1507, "type": "PRES_VIS", "trial_index": 102}, "uniqueid": "MTK2215:3U8YCDAGXQNS4XQBQWTJB1BNJO5Q0L", "dateTime": 1516841442007}, {"current_trial": 103, "trialdata": {"rt": -1, "trial_type": "single-stim", "word": "guitar", "stimulus": "<p id=\"stim\">GUITAR</p>", "conditions": [24, 1600, "v", 12000], "internal_node_id": "0.0-76.0", "trial": 2, "time_elapsed": 563365, "serialpos": 14, "key_press": -1, "wordID": 669, "type": "PRES_VIS", "trial_index": 103}, "uniqueid": "MTK2215:3U8YCDAGXQNS4XQBQWTJB1BNJO5Q0L", "dateTime": 1516841444549}, {"current_trial": 104, "trialdata": {"rt": -1, "trial_type": "single-stim", "word": "chest", "stimulus": "<p id=\"stim\">CHEST</p>", "conditions": [24, 1600, "v", 12000], "internal_node_id": "0.0-77.0", "trial": 2, "time_elapsed": 566039, "serialpos": 15, "key_press": -1, "wordID": 294, "type": "PRES_VIS", "trial_index": 104}, "uniqueid": "MTK2215:3U8YCDAGXQNS4XQBQWTJB1BNJO5Q0L", "dateTime": 1516841447223}, {"current_trial": 105, "trialdata": {"rt": -1, "trial_type": "single-stim", "word": "sticker", "stimulus": "<p id=\"stim\">STICKER</p>", "conditions": [24, 1600, "v", 12000], "internal_node_id": "0.0-78.0", "trial": 2, "time_elapsed": 568539, "serialpos": 16, "key_press": -1, "wordID": 1381, "type": "PRES_VIS", "trial_index": 105}, "uniqueid": "MTK2215:3U8YCDAGXQNS4XQBQWTJB1BNJO5Q0L", "dateTime": 1516841449723}, {"current_trial": 106, "trialdata": {"rt": -1, "trial_type": "single-stim", "word": "student", "stimulus": "<p id=\"stim\">STUDENT</p>", "conditions": [24, 1600, "v", 12000], "internal_node_id": "0.0-79.0", "trial": 2, "time_elapsed": 571314, "serialpos": 17, "key_press": -1, "wordID": 1394, "type": "PRES_VIS", "trial_index": 106}, "uniqueid": "MTK2215:3U8YCDAGXQNS4XQBQWTJB1BNJO5Q0L", "dateTime": 1516841452498}, {"current_trial": 107, "trialdata": {"rt": -1, "trial_type": "single-stim", "word": "flower", "stimulus": "<p id=\"stim\">FLOWER</p>", "conditions": [24, 1600, "v", 12000], "internal_node_id": "0.0-80.0", "trial": 2, "time_elapsed": 573800, "serialpos": 18, "key_press": -1, "wordID": 583, "type": "PRES_VIS", "trial_index": 107}, "uniqueid": "MTK2215:3U8YCDAGXQNS4XQBQWTJB1BNJO5Q0L", "dateTime": 1516841454984}, {"current_trial": 108, "trialdata": {"rt": -1, "trial_type": "single-stim", "word": "stomach", "stimulus": "<p id=\"stim\">STOMACH</p>", "conditions": [24, 1600, "v", 12000], "internal_node_id": "0.0-81.0", "trial": 2, "time_elapsed": 576343, "serialpos": 19, "key_press": -1, "wordID": 1383, "type": "PRES_VIS", "trial_index": 108}, "uniqueid": "MTK2215:3U8YCDAGXQNS4XQBQWTJB1BNJO5Q0L", "dateTime": 1516841457531}, {"current_trial": 109, "trialdata": {"rt": -1, "trial_type": "single-stim", "word": "cricket", "stimulus": "<p id=\"stim\">CRICKET</p>", "conditions": [24, 1600, "v", 12000], "internal_node_id": "0.0-82.0", "trial": 2, "time_elapsed": 578762, "serialpos": 20, "key_press": -1, "wordID": 407, "type": "PRES_VIS", "trial_index": 109}, "uniqueid": "MTK2215:3U8YCDAGXQNS4XQBQWTJB1BNJO5Q0L", "dateTime": 1516841459946}, {"current_trial": 110, "trialdata": {"rt": -1, "trial_type": "single-stim", "word": "friend", "stimulus": "<p id=\"stim\">FRIEND</p>", "conditions": [24, 1600, "v", 12000], "internal_node_id": "0.0-83.0", "trial": 2, "time_elapsed": 581471, "serialpos": 21, "key_press": -1, "wordID": 605, "type": "PRES_VIS", "trial_index": 110}, "uniqueid": "MTK2215:3U8YCDAGXQNS4XQBQWTJB1BNJO5Q0L", "dateTime": 1516841462655}, {"current_trial": 111, "trialdata": {"rt": -1, "trial_type": "single-stim", "word": "pliers", "stimulus": "<p id=\"stim\">PLIERS</p>", "conditions": [24, 1600, "v", 12000], "internal_node_id": "0.0-84.0", "trial": 2, "time_elapsed": 584052, "serialpos": 22, "key_press": -1, "wordID": 1088, "type": "PRES_VIS", "trial_index": 111}, "uniqueid": "MTK2215:3U8YCDAGXQNS4XQBQWTJB1BNJO5Q0L", "dateTime": 1516841465236}, {"current_trial": 112, "trialdata": {"rt": -1, "trial_type": "single-stim", "word": "hood", "stimulus": "<p id=\"stim\">HOOD</p>", "conditions": [24, 1600, "v", 12000], "internal_node_id": "0.0-85.0", "trial": 2, "time_elapsed": 586549, "serialpos": 23, "key_press": -1, "wordID": 713, "type": "PRES_VIS", "trial_index": 112}, "uniqueid": "MTK2215:3U8YCDAGXQNS4XQBQWTJB1BNJO5Q0L", "dateTime": 1516841467734}, {"current_trial": 113, "trialdata": {"rt": -1, "trial_type": "single-stim", "stimulus": "", "internal_node_id": "0.0-86.0-0.0", "time_elapsed": 588950, "key_press": -1, "type": "PRE_RECALL_DELAY", "trial_index": 113}, "uniqueid": "MTK2215:3U8YCDAGXQNS4XQBQWTJB1BNJO5Q0L", "dateTime": 1516841470134}, {"current_trial": 114, "trialdata": {"rt": -1000, "trial_type": "single-audio", "stimulus": "/static/audio/400Hz.wav", "internal_node_id": "0.0-87.0", "time_elapsed": 589453, "key_press": -1, "type": "PRE_RECALL_ALERT", "trial_index": 114}, "uniqueid": "MTK2215:3U8YCDAGXQNS4XQBQWTJB1BNJO5Q0L", "dateTime": 1516841470637}, {"current_trial": 115, "trialdata": {"rt": [4300, 7333, 10606, 13041, 15199, 35012, 42612, 50380], "recwords": ["daughter", "student", "friend", "uncle", "pliers", "trombone", "trombone", "blade"], "key_times": [976, 1317, 1719, 2036, 2190, 2648, 3005, 3820, 4300, 4986, 5326, 5667, 5981, 6235, 6478, 6812, 7333, 7710, 7970, 8283, 9119, 9387, 9786, 10606, 11303, 11567, 11879, 12227, 12470, 13041, 13526, 13715, 13948, 14216, 14441, 14739, 15199, 32441, 32676, 32947, 33229, 33727, 34030, 34333, 34553, 35012, 38609, 39541, 39775, 40049, 40362, 40646, 40930, 41346, 41654, 41927, 42612, 48402, 48734, 49013, 49450, 49686, 50380], "trial_type": "free-recall", "conditions": [24, 1600, "v", 12000], "internal_node_id": "0.0-88.0-0.0", "key_presses": [68, 65, 85, 71, 72, 84, 69, 82, 13, 83, 84, 85, 68, 69, 78, 84, 13, 70, 82, 73, 69, 78, 68, 13, 85, 78, 67, 76, 69, 13, 80, 76, 73, 69, 82, 83, 13, 84, 82, 79, 77, 66, 79, 78, 69, 13, 82, 8, 84, 82, 79, 77, 66, 79, 78, 69, 13, 66, 76, 65, 68, 69, 13], "trial": 2, "time_elapsed": 649459, "type": "FREE_RECALL", "trial_index": 115}, "uniqueid": "MTK2215:3U8YCDAGXQNS4XQBQWTJB1BNJO5Q0L", "dateTime": 1516841530650}, {"current_trial": 116, "trialdata": {"rt": 1527, "trial_type": "text", "internal_node_id": "0.0-89.0", "time_elapsed": 652995, "key_press": 32, "type": "INSTRUCTIONS", "trial_index": 116}, "uniqueid": "MTK2215:3U8YCDAGXQNS4XQBQWTJB1BNJO5Q0L", "dateTime": 1516841534179}, {"current_trial": 117, "trialdata": {"rt": [3370, 6068, 9379, 13125, 17435, 22236], "trial_type": "math-distractor", "key_times": [2495, 2725, 3370, 5024, 5588, 6068, 8330, 8886, 9379, 12225, 12650, 13125, 16897, 17435, 20681, 21162, 22236], "responses": ["22", "18", "14", "17", "8", "13"], "num2": [9, 8, 8, 6, 2, 5, 7], "num3": [9, 8, 3, 3, 3, 1, 3], "conditions": [24, 800, "v", 24000], "internal_node_id": "0.0-90.0", "key_presses": [50, 50, 13, 49, 56, 13, 49, 52, 13, 49, 55, 13, 56, 13, 49, 51, 13], "trial": 3, "time_elapsed": 679004, "type": "DISTRACTOR", "trial_index": 117, "num1": [4, 2, 3, 8, 3, 7, 3]}, "uniqueid": "MTK2215:3U8YCDAGXQNS4XQBQWTJB1BNJO5Q0L", "dateTime": 1516841560188}, {"current_trial": 118, "trialdata": {"rt": -1, "trial_type": "single-stim", "stimulus": "<p id=\"stim\">10</p>", "internal_node_id": "0.0-91.0-0.0", "time_elapsed": 682008, "key_press": -1, "trial_index": 118}, "uniqueid": "MTK2215:3U8YCDAGXQNS4XQBQWTJB1BNJO5Q0L", "dateTime": 1516841563192}, {"current_trial": 119, "trialdata": {"rt": -1, "trial_type": "single-stim", "stimulus": "<p id=\"stim\">9</p>", "internal_node_id": "0.0-91.0-1.0", "time_elapsed": 683010, "key_press": -1, "trial_index": 119}, "uniqueid": "MTK2215:3U8YCDAGXQNS4XQBQWTJB1BNJO5Q0L", "dateTime": 1516841564195}, {"current_trial": 120, "trialdata": {"rt": -1, "trial_type": "single-stim", "stimulus": "<p id=\"stim\">8</p>", "internal_node_id": "0.0-91.0-2.0", "time_elapsed": 684013, "key_press": -1, "trial_index": 120}, "uniqueid": "MTK2215:3U8YCDAGXQNS4XQBQWTJB1BNJO5Q0L", "dateTime": 1516841565197}, {"current_trial": 121, "trialdata": {"rt": -1, "trial_type": "single-stim", "stimulus": "<p id=\"stim\">7</p>", "internal_node_id": "0.0-91.0-3.0", "time_elapsed": 685016, "key_press": -1, "trial_index": 121}, "uniqueid": "MTK2215:3U8YCDAGXQNS4XQBQWTJB1BNJO5Q0L", "dateTime": 1516841566200}, {"current_trial": 122, "trialdata": {"rt": -1, "trial_type": "single-stim", "stimulus": "<p id=\"stim\">6</p>", "internal_node_id": "0.0-91.0-4.0", "time_elapsed": 686019, "key_press": -1, "trial_index": 122}, "uniqueid": "MTK2215:3U8YCDAGXQNS4XQBQWTJB1BNJO5Q0L", "dateTime": 1516841567204}, {"current_trial": 123, "trialdata": {"rt": -1, "trial_type": "single-stim", "stimulus": "<p id=\"stim\">5</p>", "internal_node_id": "0.0-91.0-5.0", "time_elapsed": 687023, "key_press": -1, "trial_index": 123}, "uniqueid": "MTK2215:3U8YCDAGXQNS4XQBQWTJB1BNJO5Q0L", "dateTime": 1516841568207}, {"current_trial": 124, "trialdata": {"rt": -1, "trial_type": "single-stim", "stimulus": "<p id=\"stim\">4</p>", "internal_node_id": "0.0-91.0-6.0", "time_elapsed": 688027, "key_press": -1, "trial_index": 124}, "uniqueid": "MTK2215:3U8YCDAGXQNS4XQBQWTJB1BNJO5Q0L", "dateTime": 1516841569212}, {"current_trial": 125, "trialdata": {"rt": -1, "trial_type": "single-stim", "stimulus": "<p id=\"stim\">3</p>", "internal_node_id": "0.0-91.0-7.0", "time_elapsed": 689032, "key_press": -1, "trial_index": 125}, "uniqueid": "MTK2215:3U8YCDAGXQNS4XQBQWTJB1BNJO5Q0L", "dateTime": 1516841570216}, {"current_trial": 126, "trialdata": {"rt": -1, "trial_type": "single-stim", "stimulus": "<p id=\"stim\">2</p>", "internal_node_id": "0.0-91.0-8.0", "time_elapsed": 690035, "key_press": -1, "trial_index": 126}, "uniqueid": "MTK2215:3U8YCDAGXQNS4XQBQWTJB1BNJO5Q0L", "dateTime": 1516841571219}, {"current_trial": 127, "trialdata": {"rt": -1, "trial_type": "single-stim", "stimulus": "<p id=\"stim\">1</p>", "internal_node_id": "0.0-91.0-9.0", "time_elapsed": 691038, "key_press": -1, "trial_index": 127}, "uniqueid": "MTK2215:3U8YCDAGXQNS4XQBQWTJB1BNJO5Q0L", "dateTime": 1516841572222}, {"current_trial": 128, "trialdata": {"rt": -1, "trial_type": "single-stim", "stimulus": "<p id=\"stim\">+</p>", "internal_node_id": "0.0-92.0-0.0", "time_elapsed": 692541, "key_press": -1, "type": "FIXATION", "trial_index": 128}, "uniqueid": "MTK2215:3U8YCDAGXQNS4XQBQWTJB1BNJO5Q0L", "dateTime": 1516841573726}, {"current_trial": 129, "trialdata": {"rt": -1, "trial_type": "single-stim", "word": "softball", "stimulus": "<p id=\"stim\">SOFTBALL</p>", "conditions": [24, 800, "v", 24000], "internal_node_id": "0.0-93.0", "trial": 3, "time_elapsed": 693345, "serialpos": 0, "key_press": -1, "wordID": 1342, "type": "PRES_VIS", "trial_index": 129}, "uniqueid": "MTK2215:3U8YCDAGXQNS4XQBQWTJB1BNJO5Q0L", "dateTime": 1516841574529}, {"current_trial": 130, "trialdata": {"rt": -1, "trial_type": "single-stim", "word": "suspect", "stimulus": "<p id=\"stim\">SUSPECT</p>", "conditions": [24, 800, "v", 24000], "internal_node_id": "0.0-94.0", "trial": 3, "time_elapsed": 695046, "serialpos": 1, "key_press": -1, "wordID": 1414, "type": "PRES_VIS", "trial_index": 130}, "uniqueid": "MTK2215:3U8YCDAGXQNS4XQBQWTJB1BNJO5Q0L", "dateTime": 1516841576231}, {"current_trial": 131, "trialdata": {"rt": -1, "trial_type": "single-stim", "word": "bathtub", "stimulus": "<p id=\"stim\">BATHTUB</p>", "conditions": [24, 800, "v", 24000], "internal_node_id": "0.0-95.0", "trial": 3, "time_elapsed": 696904, "serialpos": 2, "key_press": -1, "wordID": 99, "type": "PRES_VIS", "trial_index": 131}, "uniqueid": "MTK2215:3U8YCDAGXQNS4XQBQWTJB1BNJO5Q0L", "dateTime": 1516841578088}, {"current_trial": 132, "trialdata": {"rt": -1, "trial_type": "single-stim", "word": "grave", "stimulus": "<p id=\"stim\">GRAVE</p>", "conditions": [24, 800, "v", 24000], "internal_node_id": "0.0-96.0", "trial": 3, "time_elapsed": 698773, "serialpos": 3, "key_press": -1, "wordID": 657, "type": "PRES_VIS", "trial_index": 132}, "uniqueid": "MTK2215:3U8YCDAGXQNS4XQBQWTJB1BNJO5Q0L", "dateTime": 1516841579957}, {"current_trial": 133, "trialdata": {"rt": -1, "trial_type": "single-stim", "word": "dragon", "stimulus": "<p id=\"stim\">DRAGON</p>", "conditions": [24, 800, "v", 24000], "internal_node_id": "0.0-97.0", "trial": 3, "time_elapsed": 700442, "serialpos": 4, "key_press": -1, "wordID": 491, "type": "PRES_VIS", "trial_index": 133}, "uniqueid": "MTK2215:3U8YCDAGXQNS4XQBQWTJB1BNJO5Q0L", "dateTime": 1516841581626}, {"current_trial": 134, "trialdata": {"rt": -1, "trial_type": "single-stim", "word": "catcher", "stimulus": "<p id=\"stim\">CATCHER</p>", "conditions": [24, 800, "v", 24000], "internal_node_id": "0.0-98.0", "trial": 3, "time_elapsed": 702101, "serialpos": 5, "key_press": -1, "wordID": 257, "type": "PRES_VIS", "trial_index": 134}, "uniqueid": "MTK2215:3U8YCDAGXQNS4XQBQWTJB1BNJO5Q0L", "dateTime": 1516841583288}, {"current_trial": 135, "trialdata": {"rt": -1, "trial_type": "single-stim", "word": "match", "stimulus": "<p id=\"stim\">MATCH</p>", "conditions": [24, 800, "v", 24000], "internal_node_id": "0.0-99.0", "trial": 3, "time_elapsed": 704090, "serialpos": 6, "key_press": -1, "wordID": 877, "type": "PRES_VIS", "trial_index": 135}, "uniqueid": "MTK2215:3U8YCDAGXQNS4XQBQWTJB1BNJO5Q0L", "dateTime": 1516841585275}, {"current_trial": 136, "trialdata": {"rt": -1, "trial_type": "single-stim", "word": "football", "stimulus": "<p id=\"stim\">FOOTBALL</p>", "conditions": [24, 800, "v", 24000], "internal_node_id": "0.0-100.0", "trial": 3, "time_elapsed": 705859, "serialpos": 7, "key_press": -1, "wordID": 590, "type": "PRES_VIS", "trial_index": 136}, "uniqueid": "MTK2215:3U8YCDAGXQNS4XQBQWTJB1BNJO5Q0L", "dateTime": 1516841587044}, {"current_trial": 137, "trialdata": {"rt": -1, "trial_type": "single-stim", "word": "staple", "stimulus": "<p id=\"stim\">STAPLE</p>", "conditions": [24, 800, "v", 24000], "internal_node_id": "0.0-101.0", "trial": 3, "time_elapsed": 707604, "serialpos": 8, "key_press": -1, "wordID": 1370, "type": "PRES_VIS", "trial_index": 137}, "uniqueid": "MTK2215:3U8YCDAGXQNS4XQBQWTJB1BNJO5Q0L", "dateTime": 1516841588789}, {"current_trial": 138, "trialdata": {"rt": -1, "trial_type": "single-stim", "word": "victim", "stimulus": "<p id=\"stim\">VICTIM</p>", "conditions": [24, 800, "v", 24000], "internal_node_id": "0.0-102.0", "trial": 3, "time_elapsed": 709586, "serialpos": 9, "key_press": -1, "wordID": 1561, "type": "PRES_VIS", "trial_index": 138}, "uniqueid": "MTK2215:3U8YCDAGXQNS4XQBQWTJB1BNJO5Q0L", "dateTime": 1516841590771}, {"current_trial": 139, "trialdata": {"rt": -1, "trial_type": "single-stim", "word": "finger", "stimulus": "<p id=\"stim\">FINGER</p>", "conditions": [24, 800, "v", 24000], "internal_node_id": "0.0-103.0", "trial": 3, "time_elapsed": 711390, "serialpos": 10, "key_press": -1, "wordID": 566, "type": "PRES_VIS", "trial_index": 139}, "uniqueid": "MTK2215:3U8YCDAGXQNS4XQBQWTJB1BNJO5Q0L", "dateTime": 1516841592574}, {"current_trial": 140, "trialdata": {"rt": -1, "trial_type": "single-stim", "word": "wrist", "stimulus": "<p id=\"stim\">WRIST</p>", "conditions": [24, 800, "v", 24000], "internal_node_id": "0.0-104.0", "trial": 3, "time_elapsed": 713060, "serialpos": 11, "key_press": -1, "wordID": 1625, "type": "PRES_VIS", "trial_index": 140}, "uniqueid": "MTK2215:3U8YCDAGXQNS4XQBQWTJB1BNJO5Q0L", "dateTime": 1516841594244}, {"current_trial": 141, "trialdata": {"rt": -1, "trial_type": "single-stim", "word": "breast", "stimulus": "<p id=\"stim\">BREAST</p>", "conditions": [24, 800, "v", 24000], "internal_node_id": "0.0-105.0", "trial": 3, "time_elapsed": 714694, "serialpos": 12, "key_press": -1, "wordID": 170, "type": "PRES_VIS", "trial_index": 141}, "uniqueid": "MTK2215:3U8YCDAGXQNS4XQBQWTJB1BNJO5Q0L", "dateTime": 1516841595878}, {"current_trial": 142, "trialdata": {"rt": -1, "trial_type": "single-stim", "word": "turtle", "stimulus": "<p id=\"stim\">TURTLE</p>", "conditions": [24, 800, "v", 24000], "internal_node_id": "0.0-106.0", "trial": 3, "time_elapsed": 716562, "serialpos": 13, "key_press": -1, "wordID": 1521, "type": "PRES_VIS", "trial_index": 142}, "uniqueid": "MTK2215:3U8YCDAGXQNS4XQBQWTJB1BNJO5Q0L", "dateTime": 1516841597747}, {"current_trial": 143, "trialdata": {"rt": -1, "trial_type": "single-stim", "word": "lace", "stimulus": "<p id=\"stim\">LACE</p>", "conditions": [24, 800, "v", 24000], "internal_node_id": "0.0-107.0", "trial": 3, "time_elapsed": 718302, "serialpos": 14, "key_press": -1, "wordID": 791, "type": "PRES_VIS", "trial_index": 143}, "uniqueid": "MTK2215:3U8YCDAGXQNS4XQBQWTJB1BNJO5Q0L", "dateTime": 1516841599487}, {"current_trial": 144, "trialdata": {"rt": -1, "trial_type": "single-stim", "word": "asia", "stimulus": "<p id=\"stim\">ASIA</p>", "conditions": [24, 800, "v", 24000], "internal_node_id": "0.0-108.0", "trial": 3, "time_elapsed": 719962, "serialpos": 15, "key_press": -1, "wordID": 45, "type": "PRES_VIS", "trial_index": 144}, "uniqueid": "MTK2215:3U8YCDAGXQNS4XQBQWTJB1BNJO5Q0L", "dateTime": 1516841601147}, {"current_trial": 145, "trialdata": {"rt": -1, "trial_type": "single-stim", "word": "hostess", "stimulus": "<p id=\"stim\">HOSTESS</p>", "conditions": [24, 800, "v", 24000], "internal_node_id": "0.0-109.0", "trial": 3, "time_elapsed": 721615, "serialpos": 16, "key_press": -1, "wordID": 722, "type": "PRES_VIS", "trial_index": 145}, "uniqueid": "MTK2215:3U8YCDAGXQNS4XQBQWTJB1BNJO5Q0L", "dateTime": 1516841602800}, {"current_trial": 146, "trialdata": {"rt": -1, "trial_type": "single-stim", "word": "waitress", "stimulus": "<p id=\"stim\">WAITRESS</p>", "conditions": [24, 800, "v", 24000], "internal_node_id": "0.0-110.0", "trial": 3, "time_elapsed": 723536, "serialpos": 17, "key_press": -1, "wordID": 1580, "type": "PRES_VIS", "trial_index": 146}, "uniqueid": "MTK2215:3U8YCDAGXQNS4XQBQWTJB1BNJO5Q0L", "dateTime": 1516841604721}, {"current_trial": 147, "trialdata": {"rt": -1, "trial_type": "single-stim", "word": "river", "stimulus": "<p id=\"stim\">RIVER</p>", "conditions": [24, 800, "v", 24000], "internal_node_id": "0.0-111.0", "trial": 3, "time_elapsed": 725224, "serialpos": 18, "key_press": -1, "wordID": 1193, "type": "PRES_VIS", "trial_index": 147}, "uniqueid": "MTK2215:3U8YCDAGXQNS4XQBQWTJB1BNJO5Q0L", "dateTime": 1516841606409}, {"current_trial": 148, "trialdata": {"rt": -1, "trial_type": "single-stim", "word": "velvet", "stimulus": "<p id=\"stim\">VELVET</p>", "conditions": [24, 800, "v", 24000], "internal_node_id": "0.0-112.0", "trial": 3, "time_elapsed": 727100, "serialpos": 19, "key_press": -1, "wordID": 1554, "type": "PRES_VIS", "trial_index": 148}, "uniqueid": "MTK2215:3U8YCDAGXQNS4XQBQWTJB1BNJO5Q0L", "dateTime": 1516841608284}, {"current_trial": 149, "trialdata": {"rt": -1, "trial_type": "single-stim", "word": "county", "stimulus": "<p id=\"stim\">COUNTY</p>", "conditions": [24, 800, "v", 24000], "internal_node_id": "0.0-113.0", "trial": 3, "time_elapsed": 729064, "serialpos": 20, "key_press": -1, "wordID": 388, "type": "PRES_VIS", "trial_index": 149}, "uniqueid": "MTK2215:3U8YCDAGXQNS4XQBQWTJB1BNJO5Q0L", "dateTime": 1516841610249}, {"current_trial": 150, "trialdata": {"rt": -1, "trial_type": "single-stim", "word": "garden", "stimulus": "<p id=\"stim\">GARDEN</p>", "conditions": [24, 800, "v", 24000], "internal_node_id": "0.0-114.0", "trial": 3, "time_elapsed": 730886, "serialpos": 21, "key_press": -1, "wordID": 622, "type": "PRES_VIS", "trial_index": 150}, "uniqueid": "MTK2215:3U8YCDAGXQNS4XQBQWTJB1BNJO5Q0L", "dateTime": 1516841612070}, {"current_trial": 151, "trialdata": {"rt": -1, "trial_type": "single-stim", "word": "lady", "stimulus": "<p id=\"stim\">LADY</p>", "conditions": [24, 800, "v", 24000], "internal_node_id": "0.0-115.0", "trial": 3, "time_elapsed": 732515, "serialpos": 22, "key_press": -1, "wordID": 793, "type": "PRES_VIS", "trial_index": 151}, "uniqueid": "MTK2215:3U8YCDAGXQNS4XQBQWTJB1BNJO5Q0L", "dateTime": 1516841613700}, {"current_trial": 152, "trialdata": {"rt": -1, "trial_type": "single-stim", "word": "perfume", "stimulus": "<p id=\"stim\">PERFUME</p>", "conditions": [24, 800, "v", 24000], "internal_node_id": "0.0-116.0", "trial": 3, "time_elapsed": 734160, "serialpos": 23, "key_press": -1, "wordID": 1048, "type": "PRES_VIS", "trial_index": 152}, "uniqueid": "MTK2215:3U8YCDAGXQNS4XQBQWTJB1BNJO5Q0L", "dateTime": 1516841615344}, {"current_trial": 153, "trialdata": {"rt": -1, "trial_type": "single-stim", "stimulus": "", "internal_node_id": "0.0-117.0-0.0", "time_elapsed": 736230, "key_press": -1, "type": "PRE_RECALL_DELAY", "trial_index": 153}, "uniqueid": "MTK2215:3U8YCDAGXQNS4XQBQWTJB1BNJO5Q0L", "dateTime": 1516841617414}, {"current_trial": 154, "trialdata": {"rt": -1000, "trial_type": "single-audio", "stimulus": "/static/audio/400Hz.wav", "internal_node_id": "0.0-118.0", "time_elapsed": 736732, "key_press": -1, "type": "PRE_RECALL_ALERT", "trial_index": 154}, "uniqueid": "MTK2215:3U8YCDAGXQNS4XQBQWTJB1BNJO5Q0L", "dateTime": 1516841617917}, {"current_trial": 155, "trialdata": {"rt": [3264, 5815, 9062, 9265, 15905, 19884, 24005, 25897, 33484, 36315, 39028], "recwords": ["perfume", "waitress", "footba", "", "football", "softball", "waitress", "lady", "wrist", "finger", "breast"], "key_times": [894, 1158, 1404, 1649, 1908, 2158, 2326, 3264, 3667, 3922, 4176, 4684, 4916, 5124, 5292, 5513, 5815, 6718, 7053, 7216, 7508, 8415, 8682, 9062, 9265, 12911, 13309, 13452, 13779, 14594, 14856, 15322, 15502, 15905, 16424, 16757, 17203, 17452, 18520, 18877, 19157, 19341, 19884, 20603, 21371, 21601, 22285, 22589, 22921, 23130, 23356, 23498, 23710, 24005, 24511, 24703, 25047, 25295, 25897, 31184, 31600, 32483, 32764, 33005, 33484, 34004, 34336, 34603, 34901, 35359, 35556, 36315, 36865, 37171, 37384, 37812, 38071, 38321, 39028], "trial_type": "free-recall", "conditions": [24, 800, "v", 24000], "internal_node_id": "0.0-119.0-0.0", "key_presses": [80, 69, 82, 70, 85, 77, 69, 13, 87, 65, 73, 84, 82, 69, 83, 83, 13, 70, 79, 79, 84, 66, 65, 186, 186, 70, 79, 79, 84, 66, 65, 76, 76, 13, 83, 79, 70, 84, 66, 65, 76, 76, 13, 81, 8, 87, 65, 73, 84, 82, 69, 83, 83, 13, 76, 65, 68, 89, 13, 87, 82, 73, 83, 84, 13, 70, 73, 78, 71, 69, 82, 13, 66, 82, 69, 65, 83, 84, 13], "trial": 3, "time_elapsed": 796740, "type": "FREE_RECALL", "trial_index": 155}, "uniqueid": "MTK2215:3U8YCDAGXQNS4XQBQWTJB1BNJO5Q0L", "dateTime": 1516841677937}, {"current_trial": 156, "trialdata": {"rt": 1152, "trial_type": "text", "internal_node_id": "0.0-120.0", "time_elapsed": 799908, "key_press": 32, "type": "INSTRUCTIONS", "trial_index": 156}, "uniqueid": "MTK2215:3U8YCDAGXQNS4XQBQWTJB1BNJO5Q0L", "dateTime": 1516841681092}, {"current_trial": 157, "trialdata": {"rt": [4073, 7334, 9300], "trial_type": "math-distractor", "key_times": [2617, 2869, 4073, 6287, 6772, 7334, 8679, 8959, 9300, 11624], "responses": ["12", "18", "12"], "num2": [1, 8, 1, 4], "num3": [6, 1, 2, 9], "conditions": [24, 800, "v", 12000], "internal_node_id": "0.0-121.0", "key_presses": [49, 50, 13, 49, 56, 13, 49, 50, 13, 49], "trial": 4, "time_elapsed": 813919, "type": "DISTRACTOR", "trial_index": 157, "num1": [5, 9, 9, 4]}, "uniqueid": "MTK2215:3U8YCDAGXQNS4XQBQWTJB1BNJO5Q0L", "dateTime": 1516841695103}, {"current_trial": 158, "trialdata": {"rt": -1, "trial_type": "single-stim", "stimulus": "<p id=\"stim\">10</p>", "internal_node_id": "0.0-122.0-0.0", "time_elapsed": 816924, "key_press": -1, "trial_index": 158}, "uniqueid": "MTK2215:3U8YCDAGXQNS4XQBQWTJB1BNJO5Q0L", "dateTime": 1516841698109}, {"current_trial": 159, "trialdata": {"rt": -1, "trial_type": "single-stim", "stimulus": "<p id=\"stim\">9</p>", "internal_node_id": "0.0-122.0-1.0", "time_elapsed": 817928, "key_press": -1, "trial_index": 159}, "uniqueid": "MTK2215:3U8YCDAGXQNS4XQBQWTJB1BNJO5Q0L", "dateTime": 1516841699113}, {"current_trial": 160, "trialdata": {"rt": -1, "trial_type": "single-stim", "stimulus": "<p id=\"stim\">8</p>", "internal_node_id": "0.0-122.0-2.0", "time_elapsed": 818932, "key_press": -1, "trial_index": 160}, "uniqueid": "MTK2215:3U8YCDAGXQNS4XQBQWTJB1BNJO5Q0L", "dateTime": 1516841700116}, {"current_trial": 161, "trialdata": {"rt": -1, "trial_type": "single-stim", "stimulus": "<p id=\"stim\">7</p>", "internal_node_id": "0.0-122.0-3.0", "time_elapsed": 819934, "key_press": -1, "trial_index": 161}, "uniqueid": "MTK2215:3U8YCDAGXQNS4XQBQWTJB1BNJO5Q0L", "dateTime": 1516841701118}, {"current_trial": 162, "trialdata": {"rt": -1, "trial_type": "single-stim", "stimulus": "<p id=\"stim\">6</p>", "internal_node_id": "0.0-122.0-4.0", "time_elapsed": 820937, "key_press": -1, "trial_index": 162}, "uniqueid": "MTK2215:3U8YCDAGXQNS4XQBQWTJB1BNJO5Q0L", "dateTime": 1516841702122}, {"current_trial": 163, "trialdata": {"rt": -1, "trial_type": "single-stim", "stimulus": "<p id=\"stim\">5</p>", "internal_node_id": "0.0-122.0-5.0", "time_elapsed": 821941, "key_press": -1, "trial_index": 163}, "uniqueid": "MTK2215:3U8YCDAGXQNS4XQBQWTJB1BNJO5Q0L", "dateTime": 1516841703126}, {"current_trial": 164, "trialdata": {"rt": -1, "trial_type": "single-stim", "stimulus": "<p id=\"stim\">4</p>", "internal_node_id": "0.0-122.0-6.0", "time_elapsed": 822945, "key_press": -1, "trial_index": 164}, "uniqueid": "MTK2215:3U8YCDAGXQNS4XQBQWTJB1BNJO5Q0L", "dateTime": 1516841704130}, {"current_trial": 165, "trialdata": {"rt": -1, "trial_type": "single-stim", "stimulus": "<p id=\"stim\">3</p>", "internal_node_id": "0.0-122.0-7.0", "time_elapsed": 823950, "key_press": -1, "trial_index": 165}, "uniqueid": "MTK2215:3U8YCDAGXQNS4XQBQWTJB1BNJO5Q0L", "dateTime": 1516841705134}, {"current_trial": 166, "trialdata": {"rt": -1, "trial_type": "single-stim", "stimulus": "<p id=\"stim\">2</p>", "internal_node_id": "0.0-122.0-8.0", "time_elapsed": 824954, "key_press": -1, "trial_index": 166}, "uniqueid": "MTK2215:3U8YCDAGXQNS4XQBQWTJB1BNJO5Q0L", "dateTime": 1516841706138}, {"current_trial": 167, "trialdata": {"rt": -1, "trial_type": "single-stim", "stimulus": "<p id=\"stim\">1</p>", "internal_node_id": "0.0-122.0-9.0", "time_elapsed": 825957, "key_press": -1, "trial_index": 167}, "uniqueid": "MTK2215:3U8YCDAGXQNS4XQBQWTJB1BNJO5Q0L", "dateTime": 1516841707141}, {"current_trial": 168, "trialdata": {"rt": -1, "trial_type": "single-stim", "stimulus": "<p id=\"stim\">+</p>", "internal_node_id": "0.0-123.0-0.0", "time_elapsed": 827461, "key_press": -1, "type": "FIXATION", "trial_index": 168}, "uniqueid": "MTK2215:3U8YCDAGXQNS4XQBQWTJB1BNJO5Q0L", "dateTime": 1516841708645}, {"current_trial": 169, "trialdata": {"rt": -1, "trial_type": "single-stim", "word": "xerox", "stimulus": "<p id=\"stim\">XEROX</p>", "conditions": [24, 800, "v", 12000], "internal_node_id": "0.0-124.0", "trial": 4, "time_elapsed": 828264, "serialpos": 0, "key_press": -1, "wordID": 1627, "type": "PRES_VIS", "trial_index": 169}, "uniqueid": "MTK2215:3U8YCDAGXQNS4XQBQWTJB1BNJO5Q0L", "dateTime": 1516841709448}, {"current_trial": 170, "trialdata": {"rt": -1, "trial_type": "single-stim", "word": "monster", "stimulus": "<p id=\"stim\">MONSTER</p>", "conditions": [24, 800, "v", 12000], "internal_node_id": "0.0-125.0", "trial": 4, "time_elapsed": 830177, "serialpos": 1, "key_press": -1, "wordID": 911, "type": "PRES_VIS", "trial_index": 170}, "uniqueid": "MTK2215:3U8YCDAGXQNS4XQBQWTJB1BNJO5Q0L", "dateTime": 1516841711365}, {"current_trial": 171, "trialdata": {"rt": -1, "trial_type": "single-stim", "word": "beast", "stimulus": "<p id=\"stim\">BEAST</p>", "conditions": [24, 800, "v", 12000], "internal_node_id": "0.0-126.0", "trial": 4, "time_elapsed": 831890, "serialpos": 2, "key_press": -1, "wordID": 107, "type": "PRES_VIS", "trial_index": 171}, "uniqueid": "MTK2215:3U8YCDAGXQNS4XQBQWTJB1BNJO5Q0L", "dateTime": 1516841713074}, {"current_trial": 172, "trialdata": {"rt": -1, "trial_type": "single-stim", "word": "ozone", "stimulus": "<p id=\"stim\">OZONE</p>", "conditions": [24, 800, "v", 12000], "internal_node_id": "0.0-127.0", "trial": 4, "time_elapsed": 833670, "serialpos": 3, "key_press": -1, "wordID": 995, "type": "PRES_VIS", "trial_index": 172}, "uniqueid": "MTK2215:3U8YCDAGXQNS4XQBQWTJB1BNJO5Q0L", "dateTime": 1516841714854}, {"current_trial": 173, "trialdata": {"rt": -1, "trial_type": "single-stim", "word": "lover", "stimulus": "<p id=\"stim\">LOVER</p>", "conditions": [24, 800, "v", 12000], "internal_node_id": "0.0-128.0", "trial": 4, "time_elapsed": 835662, "serialpos": 4, "key_press": -1, "wordID": 845, "type": "PRES_VIS", "trial_index": 173}, "uniqueid": "MTK2215:3U8YCDAGXQNS4XQBQWTJB1BNJO5Q0L", "dateTime": 1516841716846}, {"current_trial": 174, "trialdata": {"rt": -1, "trial_type": "single-stim", "word": "expert", "stimulus": "<p id=\"stim\">EXPERT</p>", "conditions": [24, 800, "v", 12000], "internal_node_id": "0.0-129.0", "trial": 4, "time_elapsed": 837410, "serialpos": 5, "key_press": -1, "wordID": 542, "type": "PRES_VIS", "trial_index": 174}, "uniqueid": "MTK2215:3U8YCDAGXQNS4XQBQWTJB1BNJO5Q0L", "dateTime": 1516841718594}, {"current_trial": 175, "trialdata": {"rt": -1, "trial_type": "single-stim", "word": "poison", "stimulus": "<p id=\"stim\">POISON</p>", "conditions": [24, 800, "v", 12000], "internal_node_id": "0.0-130.0", "trial": 4, "time_elapsed": 839165, "serialpos": 6, "key_press": -1, "wordID": 1095, "type": "PRES_VIS", "trial_index": 175}, "uniqueid": "MTK2215:3U8YCDAGXQNS4XQBQWTJB1BNJO5Q0L", "dateTime": 1516841720349}, {"current_trial": 176, "trialdata": {"rt": -1, "trial_type": "single-stim", "word": "barrel", "stimulus": "<p id=\"stim\">BARREL</p>", "conditions": [24, 800, "v", 12000], "internal_node_id": "0.0-131.0", "trial": 4, "time_elapsed": 841062, "serialpos": 7, "key_press": -1, "wordID": 90, "type": "PRES_VIS", "trial_index": 176}, "uniqueid": "MTK2215:3U8YCDAGXQNS4XQBQWTJB1BNJO5Q0L", "dateTime": 1516841722246}, {"current_trial": 177, "trialdata": {"rt": -1, "trial_type": "single-stim", "word": "label", "stimulus": "<p id=\"stim\">LABEL</p>", "conditions": [24, 800, "v", 12000], "internal_node_id": "0.0-132.0", "trial": 4, "time_elapsed": 842745, "serialpos": 8, "key_press": -1, "wordID": 789, "type": "PRES_VIS", "trial_index": 177}, "uniqueid": "MTK2215:3U8YCDAGXQNS4XQBQWTJB1BNJO5Q0L", "dateTime": 1516841723930}, {"current_trial": 178, "trialdata": {"rt": -1, "trial_type": "single-stim", "word": "treat", "stimulus": "<p id=\"stim\">TREAT</p>", "conditions": [24, 800, "v", 12000], "internal_node_id": "0.0-133.0", "trial": 4, "time_elapsed": 844662, "serialpos": 9, "key_press": -1, "wordID": 1500, "type": "PRES_VIS", "trial_index": 178}, "uniqueid": "MTK2215:3U8YCDAGXQNS4XQBQWTJB1BNJO5Q0L", "dateTime": 1516841725847}, {"current_trial": 179, "trialdata": {"rt": -1, "trial_type": "single-stim", "word": "gallon", "stimulus": "<p id=\"stim\">GALLON</p>", "conditions": [24, 800, "v", 12000], "internal_node_id": "0.0-134.0", "trial": 4, "time_elapsed": 846318, "serialpos": 10, "key_press": -1, "wordID": 617, "type": "PRES_VIS", "trial_index": 179}, "uniqueid": "MTK2215:3U8YCDAGXQNS4XQBQWTJB1BNJO5Q0L", "dateTime": 1516841727502}, {"current_trial": 180, "trialdata": {"rt": -1, "trial_type": "single-stim", "word": "receipt", "stimulus": "<p id=\"stim\">RECEIPT</p>", "conditions": [24, 800, "v", 12000], "internal_node_id": "0.0-135.0", "trial": 4, "time_elapsed": 848286, "serialpos": 11, "key_press": -1, "wordID": 1172, "type": "PRES_VIS", "trial_index": 180}, "uniqueid": "MTK2215:3U8YCDAGXQNS4XQBQWTJB1BNJO5Q0L", "dateTime": 1516841729470}, {"current_trial": 181, "trialdata": {"rt": -1, "trial_type": "single-stim", "word": "world", "stimulus": "<p id=\"stim\">WORLD</p>", "conditions": [24, 800, "v", 12000], "internal_node_id": "0.0-136.0", "trial": 4, "time_elapsed": 850200, "serialpos": 12, "key_press": -1, "wordID": 1621, "type": "PRES_VIS", "trial_index": 181}, "uniqueid": "MTK2215:3U8YCDAGXQNS4XQBQWTJB1BNJO5Q0L", "dateTime": 1516841731384}, {"current_trial": 182, "trialdata": {"rt": -1, "trial_type": "single-stim", "word": "whistle", "stimulus": "<p id=\"stim\">WHISTLE</p>", "conditions": [24, 800, "v", 12000], "internal_node_id": "0.0-137.0", "trial": 4, "time_elapsed": 852026, "serialpos": 13, "key_press": -1, "wordID": 1605, "type": "PRES_VIS", "trial_index": 182}, "uniqueid": "MTK2215:3U8YCDAGXQNS4XQBQWTJB1BNJO5Q0L", "dateTime": 1516841733210}, {"current_trial": 183, "trialdata": {"rt": -1, "trial_type": "single-stim", "word": "butcher", "stimulus": "<p id=\"stim\">BUTCHER</p>", "conditions": [24, 800, "v", 12000], "internal_node_id": "0.0-138.0", "trial": 4, "time_elapsed": 853833, "serialpos": 14, "key_press": -1, "wordID": 202, "type": "PRES_VIS", "trial_index": 183}, "uniqueid": "MTK2215:3U8YCDAGXQNS4XQBQWTJB1BNJO5Q0L", "dateTime": 1516841735017}, {"current_trial": 184, "trialdata": {"rt": -1, "trial_type": "single-stim", "word": "picture", "stimulus": "<p id=\"stim\">PICTURE</p>", "conditions": [24, 800, "v", 12000], "internal_node_id": "0.0-139.0", "trial": 4, "time_elapsed": 855724, "serialpos": 15, "key_press": -1, "wordID": 1060, "type": "PRES_VIS", "trial_index": 184}, "uniqueid": "MTK2215:3U8YCDAGXQNS4XQBQWTJB1BNJO5Q0L", "dateTime": 1516841736909}, {"current_trial": 185, "trialdata": {"rt": -1, "trial_type": "single-stim", "word": "jungle", "stimulus": "<p id=\"stim\">JUNGLE</p>", "conditions": [24, 800, "v", 12000], "internal_node_id": "0.0-140.0", "trial": 4, "time_elapsed": 857709, "serialpos": 16, "key_press": -1, "wordID": 763, "type": "PRES_VIS", "trial_index": 185}, "uniqueid": "MTK2215:3U8YCDAGXQNS4XQBQWTJB1BNJO5Q0L", "dateTime": 1516841738893}, {"current_trial": 186, "trialdata": {"rt": -1, "trial_type": "single-stim", "word": "beaver", "stimulus": "<p id=\"stim\">BEAVER</p>", "conditions": [24, 800, "v", 12000], "internal_node_id": "0.0-141.0", "trial": 4, "time_elapsed": 859521, "serialpos": 17, "key_press": -1, "wordID": 108, "type": "PRES_VIS", "trial_index": 186}, "uniqueid": "MTK2215:3U8YCDAGXQNS4XQBQWTJB1BNJO5Q0L", "dateTime": 1516841740706}, {"current_trial": 187, "trialdata": {"rt": -1, "trial_type": "single-stim", "word": "country", "stimulus": "<p id=\"stim\">COUNTRY</p>", "conditions": [24, 800, "v", 12000], "internal_node_id": "0.0-142.0", "trial": 4, "time_elapsed": 861344, "serialpos": 18, "key_press": -1, "wordID": 387, "type": "PRES_VIS", "trial_index": 187}, "uniqueid": "MTK2215:3U8YCDAGXQNS4XQBQWTJB1BNJO5Q0L", "dateTime": 1516841742529}, {"current_trial": 188, "trialdata": {"rt": -1, "trial_type": "single-stim", "word": "husband", "stimulus": "<p id=\"stim\">HUSBAND</p>", "conditions": [24, 800, "v", 12000], "internal_node_id": "0.0-143.0", "trial": 4, "time_elapsed": 863020, "serialpos": 19, "key_press": -1, "wordID": 727, "type": "PRES_VIS", "trial_index": 188}, "uniqueid": "MTK2215:3U8YCDAGXQNS4XQBQWTJB1BNJO5Q0L", "dateTime": 1516841744204}, {"current_trial": 189, "trialdata": {"rt": -1, "trial_type": "single-stim", "word": "puppy", "stimulus": "<p id=\"stim\">PUPPY</p>", "conditions": [24, 800, "v", 12000], "internal_node_id": "0.0-144.0", "trial": 4, "time_elapsed": 864859, "serialpos": 20, "key_press": -1, "wordID": 1143, "type": "PRES_VIS", "trial_index": 189}, "uniqueid": "MTK2215:3U8YCDAGXQNS4XQBQWTJB1BNJO5Q0L", "dateTime": 1516841746043}, {"current_trial": 190, "trialdata": {"rt": -1, "trial_type": "single-stim", "word": "primate", "stimulus": "<p id=\"stim\">PRIMATE</p>", "conditions": [24, 800, "v", 12000], "internal_node_id": "0.0-145.0", "trial": 4, "time_elapsed": 866655, "serialpos": 21, "key_press": -1, "wordID": 1122, "type": "PRES_VIS", "trial_index": 190}, "uniqueid": "MTK2215:3U8YCDAGXQNS4XQBQWTJB1BNJO5Q0L", "dateTime": 1516841747839}, {"current_trial": 191, "trialdata": {"rt": -1, "trial_type": "single-stim", "word": "climber", "stimulus": "<p id=\"stim\">CLIMBER</p>", "conditions": [24, 800, "v", 12000], "internal_node_id": "0.0-146.0", "trial": 4, "time_elapsed": 868315, "serialpos": 22, "key_press": -1, "wordID": 322, "type": "PRES_VIS", "trial_index": 191}, "uniqueid": "MTK2215:3U8YCDAGXQNS4XQBQWTJB1BNJO5Q0L", "dateTime": 1516841749499}, {"current_trial": 192, "trialdata": {"rt": -1, "trial_type": "single-stim", "word": "hiker", "stimulus": "<p id=\"stim\">HIKER</p>", "conditions": [24, 800, "v", 12000], "internal_node_id": "0.0-147.0", "trial": 4, "time_elapsed": 869973, "serialpos": 23, "key_press": -1, "wordID": 707, "type": "PRES_VIS", "trial_index": 192}, "uniqueid": "MTK2215:3U8YCDAGXQNS4XQBQWTJB1BNJO5Q0L", "dateTime": 1516841751158}, {"current_trial": 193, "trialdata": {"rt": -1, "trial_type": "single-stim", "stimulus": "", "internal_node_id": "0.0-148.0-0.0", "time_elapsed": 872348, "key_press": -1, "type": "PRE_RECALL_DELAY", "trial_index": 193}, "uniqueid": "MTK2215:3U8YCDAGXQNS4XQBQWTJB1BNJO5Q0L", "dateTime": 1516841753532}, {"current_trial": 194, "trialdata": {"rt": -1000, "trial_type": "single-audio", "stimulus": "/static/audio/400Hz.wav", "internal_node_id": "0.0-149.0", "time_elapsed": 872851, "key_press": -1, "type": "PRE_RECALL_ALERT", "trial_index": 194}, "uniqueid": "MTK2215:3U8YCDAGXQNS4XQBQWTJB1BNJO5Q0L", "dateTime": 1516841754035}, {"current_trial": 195, "trialdata": {"rt": [2705, 5486, 9600, 11973, 15229, 20792, 32077], "recwords": ["hiker", "climber", "puppy", "beast", "husband", "lover", "grave"], "key_times": [854, 1220, 1463, 1731, 2068, 2705, 3168, 3751, 4009, 4332, 4633, 4881, 5138, 5486, 5910, 6186, 7721, 8169, 8432, 8579, 8858, 9600, 10053, 10252, 10639, 10918, 11216, 11973, 12706, 12942, 13240, 13665, 13878, 14086, 14382, 15229, 15687, 15908, 16223, 16546, 16727, 16736, 18403, 19333, 20013, 20792, 29567, 29867, 30502, 30997, 31305, 32077], "trial_type": "free-recall", "conditions": [24, 800, "v", 12000], "internal_node_id": "0.0-150.0-0.0", "key_presses": [72, 73, 75, 69, 82, 13, 67, 76, 73, 77, 66, 69, 82, 13, 80, 73, 8, 85, 80, 80, 89, 13, 66, 69, 65, 83, 84, 13, 72, 85, 83, 66, 65, 78, 68, 13, 76, 79, 86, 69, 69, 82, 8, 8, 82, 13, 71, 82, 65, 86, 69, 13], "trial": 4, "time_elapsed": 932857, "type": "FREE_RECALL", "trial_index": 195}, "uniqueid": "MTK2215:3U8YCDAGXQNS4XQBQWTJB1BNJO5Q0L", "dateTime": 1516841814051}, {"current_trial": 196, "trialdata": {"rt": 1214, "trial_type": "text", "internal_node_id": "0.0-151.0", "time_elapsed": 936083, "key_press": 32, "type": "INSTRUCTIONS", "trial_index": 196}, "uniqueid": "MTK2215:3U8YCDAGXQNS4XQBQWTJB1BNJO5Q0L", "dateTime": 1516841817268}, {"current_trial": 197, "trialdata": {"rt": [3418, 6965, 11813, 14548, 17536, 22864], "trial_type": "math-distractor", "key_times": [2026, 3418, 6009, 6473, 6965, 9896, 10640, 10839, 11358, 11813, 13737, 14099, 14548, 16983, 17536, 21946, 22180, 22864], "responses": ["7", "20", "15", "13", "8", "22"], "num2": [2, 7, 3, 8, 2, 7, 7], "num3": [3, 8, 7, 4, 3, 8, 9], "conditions": [12, 1600, "v", 24000], "internal_node_id": "0.0-152.0", "key_presses": [55, 13, 50, 48, 13, 50, 8, 49, 53, 13, 49, 51, 13, 56, 13, 50, 50, 13], "trial": 5, "time_elapsed": 962094, "type": "DISTRACTOR", "trial_index": 197, "num1": [2, 4, 4, 1, 3, 6, 1]}, "uniqueid": "MTK2215:3U8YCDAGXQNS4XQBQWTJB1BNJO5Q0L", "dateTime": 1516841843279}, {"current_trial": 198, "trialdata": {"rt": -1, "trial_type": "single-stim", "stimulus": "<p id=\"stim\">10</p>", "internal_node_id": "0.0-153.0-0.0", "time_elapsed": 965100, "key_press": -1, "trial_index": 198}, "uniqueid": "MTK2215:3U8YCDAGXQNS4XQBQWTJB1BNJO5Q0L", "dateTime": 1516841846285}, {"current_trial": 199, "trialdata": {"rt": -1, "trial_type": "single-stim", "stimulus": "<p id=\"stim\">9</p>", "internal_node_id": "0.0-153.0-1.0", "time_elapsed": 966104, "key_press": -1, "trial_index": 199}, "uniqueid": "MTK2215:3U8YCDAGXQNS4XQBQWTJB1BNJO5Q0L", "dateTime": 1516841847288}, {"current_trial": 200, "trialdata": {"rt": -1, "trial_type": "single-stim", "stimulus": "<p id=\"stim\">8</p>", "internal_node_id": "0.0-153.0-2.0", "time_elapsed": 967106, "key_press": -1, "trial_index": 200}, "uniqueid": "MTK2215:3U8YCDAGXQNS4XQBQWTJB1BNJO5Q0L", "dateTime": 1516841848290}, {"current_trial": 201, "trialdata": {"rt": -1, "trial_type": "single-stim", "stimulus": "<p id=\"stim\">7</p>", "internal_node_id": "0.0-153.0-3.0", "time_elapsed": 968110, "key_press": -1, "trial_index": 201}, "uniqueid": "MTK2215:3U8YCDAGXQNS4XQBQWTJB1BNJO5Q0L", "dateTime": 1516841849295}, {"current_trial": 202, "trialdata": {"rt": -1, "trial_type": "single-stim", "stimulus": "<p id=\"stim\">6</p>", "internal_node_id": "0.0-153.0-4.0", "time_elapsed": 969115, "key_press": -1, "trial_index": 202}, "uniqueid": "MTK2215:3U8YCDAGXQNS4XQBQWTJB1BNJO5Q0L", "dateTime": 1516841850299}, {"current_trial": 203, "trialdata": {"rt": -1, "trial_type": "single-stim", "stimulus": "<p id=\"stim\">5</p>", "internal_node_id": "0.0-153.0-5.0", "time_elapsed": 970119, "key_press": -1, "trial_index": 203}, "uniqueid": "MTK2215:3U8YCDAGXQNS4XQBQWTJB1BNJO5Q0L", "dateTime": 1516841851304}, {"current_trial": 204, "trialdata": {"rt": -1, "trial_type": "single-stim", "stimulus": "<p id=\"stim\">4</p>", "internal_node_id": "0.0-153.0-6.0", "time_elapsed": 971127, "key_press": -1, "trial_index": 204}, "uniqueid": "MTK2215:3U8YCDAGXQNS4XQBQWTJB1BNJO5Q0L", "dateTime": 1516841852311}, {"current_trial": 205, "trialdata": {"rt": -1, "trial_type": "single-stim", "stimulus": "<p id=\"stim\">3</p>", "internal_node_id": "0.0-153.0-7.0", "time_elapsed": 972129, "key_press": -1, "trial_index": 205}, "uniqueid": "MTK2215:3U8YCDAGXQNS4XQBQWTJB1BNJO5Q0L", "dateTime": 1516841853314}, {"current_trial": 206, "trialdata": {"rt": -1, "trial_type": "single-stim", "stimulus": "<p id=\"stim\">2</p>", "internal_node_id": "0.0-153.0-8.0", "time_elapsed": 973131, "key_press": -1, "trial_index": 206}, "uniqueid": "MTK2215:3U8YCDAGXQNS4XQBQWTJB1BNJO5Q0L", "dateTime": 1516841854316}, {"current_trial": 207, "trialdata": {"rt": -1, "trial_type": "single-stim", "stimulus": "<p id=\"stim\">1</p>", "internal_node_id": "0.0-153.0-9.0", "time_elapsed": 974134, "key_press": -1, "trial_index": 207}, "uniqueid": "MTK2215:3U8YCDAGXQNS4XQBQWTJB1BNJO5Q0L", "dateTime": 1516841855318}, {"current_trial": 208, "trialdata": {"rt": -1, "trial_type": "single-stim", "stimulus": "<p id=\"stim\">+</p>", "internal_node_id": "0.0-154.0-0.0", "time_elapsed": 975637, "key_press": -1, "type": "FIXATION", "trial_index": 208}, "uniqueid": "MTK2215:3U8YCDAGXQNS4XQBQWTJB1BNJO5Q0L", "dateTime": 1516841856822}, {"current_trial": 209, "trialdata": {"rt": -1, "trial_type": "single-stim", "word": "couch", "stimulus": "<p id=\"stim\">COUCH</p>", "conditions": [12, 1600, "v", 24000], "internal_node_id": "0.0-155.0", "trial": 5, "time_elapsed": 977241, "serialpos": 0, "key_press": -1, "wordID": 385, "type": "PRES_VIS", "trial_index": 209}, "uniqueid": "MTK2215:3U8YCDAGXQNS4XQBQWTJB1BNJO5Q0L", "dateTime": 1516841858425}, {"current_trial": 210, "trialdata": {"rt": -1, "trial_type": "single-stim", "word": "vagrant", "stimulus": "<p id=\"stim\">VAGRANT</p>", "conditions": [12, 1600, "v", 24000], "internal_node_id": "0.0-156.0", "trial": 5, "time_elapsed": 979974, "serialpos": 1, "key_press": -1, "wordID": 1543, "type": "PRES_VIS", "trial_index": 210}, "uniqueid": "MTK2215:3U8YCDAGXQNS4XQBQWTJB1BNJO5Q0L", "dateTime": 1516841861159}, {"current_trial": 211, "trialdata": {"rt": -1, "trial_type": "single-stim", "word": "fungus", "stimulus": "<p id=\"stim\">FUNGUS</p>", "conditions": [12, 1600, "v", 24000], "internal_node_id": "0.0-157.0", "trial": 5, "time_elapsed": 982421, "serialpos": 2, "key_press": -1, "wordID": 613, "type": "PRES_VIS", "trial_index": 211}, "uniqueid": "MTK2215:3U8YCDAGXQNS4XQBQWTJB1BNJO5Q0L", "dateTime": 1516841863606}, {"current_trial": 212, "trialdata": {"rt": -1, "trial_type": "single-stim", "word": "onion", "stimulus": "<p id=\"stim\">ONION</p>", "conditions": [12, 1600, "v", 24000], "internal_node_id": "0.0-158.0", "trial": 5, "time_elapsed": 984889, "serialpos": 3, "key_press": -1, "wordID": 976, "type": "PRES_VIS", "trial_index": 212}, "uniqueid": "MTK2215:3U8YCDAGXQNS4XQBQWTJB1BNJO5Q0L", "dateTime": 1516841866074}, {"current_trial": 213, "trialdata": {"rt": -1, "trial_type": "single-stim", "word": "sketch", "stimulus": "<p id=\"stim\">SKETCH</p>", "conditions": [12, 1600, "v", 24000], "internal_node_id": "0.0-159.0", "trial": 5, "time_elapsed": 987584, "serialpos": 4, "key_press": -1, "wordID": 1314, "type": "PRES_VIS", "trial_index": 213}, "uniqueid": "MTK2215:3U8YCDAGXQNS4XQBQWTJB1BNJO5Q0L", "dateTime": 1516841868769}, {"current_trial": 214, "trialdata": {"rt": -1, "trial_type": "single-stim", "word": "plaid", "stimulus": "<p id=\"stim\">PLAID</p>", "conditions": [12, 1600, "v", 24000], "internal_node_id": "0.0-160.0", "trial": 5, "time_elapsed": 990090, "serialpos": 5, "key_press": -1, "wordID": 1079, "type": "PRES_VIS", "trial_index": 214}, "uniqueid": "MTK2215:3U8YCDAGXQNS4XQBQWTJB1BNJO5Q0L", "dateTime": 1516841871275}, {"current_trial": 215, "trialdata": {"rt": -1, "trial_type": "single-stim", "word": "sunrise", "stimulus": "<p id=\"stim\">SUNRISE</p>", "conditions": [12, 1600, "v", 24000], "internal_node_id": "0.0-161.0", "trial": 5, "time_elapsed": 992840, "serialpos": 6, "key_press": -1, "wordID": 1406, "type": "PRES_VIS", "trial_index": 215}, "uniqueid": "MTK2215:3U8YCDAGXQNS4XQBQWTJB1BNJO5Q0L", "dateTime": 1516841874025}, {"current_trial": 216, "trialdata": {"rt": -1, "trial_type": "single-stim", "word": "rooster", "stimulus": "<p id=\"stim\">ROOSTER</p>", "conditions": [12, 1600, "v", 24000], "internal_node_id": "0.0-162.0", "trial": 5, "time_elapsed": 995451, "serialpos": 7, "key_press": -1, "wordID": 1208, "type": "PRES_VIS", "trial_index": 216}, "uniqueid": "MTK2215:3U8YCDAGXQNS4XQBQWTJB1BNJO5Q0L", "dateTime": 1516841876635}, {"current_trial": 217, "trialdata": {"rt": -1, "trial_type": "single-stim", "word": "wasp", "stimulus": "<p id=\"stim\">WASP</p>", "conditions": [12, 1600, "v", 24000], "internal_node_id": "0.0-163.0", "trial": 5, "time_elapsed": 997906, "serialpos": 8, "key_press": -1, "wordID": 1592, "type": "PRES_VIS", "trial_index": 217}, "uniqueid": "MTK2215:3U8YCDAGXQNS4XQBQWTJB1BNJO5Q0L", "dateTime": 1516841879090}, {"current_trial": 218, "trialdata": {"rt": -1, "trial_type": "single-stim", "word": "creature", "stimulus": "<p id=\"stim\">CREATURE</p>", "conditions": [12, 1600, "v", 24000], "internal_node_id": "0.0-164.0", "trial": 5, "time_elapsed": 1000338, "serialpos": 9, "key_press": -1, "wordID": 402, "type": "PRES_VIS", "trial_index": 218}, "uniqueid": "MTK2215:3U8YCDAGXQNS4XQBQWTJB1BNJO5Q0L", "dateTime": 1516841881523}, {"current_trial": 219, "trialdata": {"rt": -1, "trial_type": "single-stim", "word": "rocket", "stimulus": "<p id=\"stim\">ROCKET</p>", "conditions": [12, 1600, "v", 24000], "internal_node_id": "0.0-165.0", "trial": 5, "time_elapsed": 1002940, "serialpos": 10, "key_press": -1, "wordID": 1201, "type": "PRES_VIS", "trial_index": 219}, "uniqueid": "MTK2215:3U8YCDAGXQNS4XQBQWTJB1BNJO5Q0L", "dateTime": 1516841884124}, {"current_trial": 220, "trialdata": {"rt": -1, "trial_type": "single-stim", "word": "missile", "stimulus": "<p id=\"stim\">MISSILE</p>", "conditions": [12, 1600, "v", 24000], "internal_node_id": "0.0-166.0", "trial": 5, "time_elapsed": 1005593, "serialpos": 11, "key_press": -1, "wordID": 899, "type": "PRES_VIS", "trial_index": 220}, "uniqueid": "MTK2215:3U8YCDAGXQNS4XQBQWTJB1BNJO5Q0L", "dateTime": 1516841886778}, {"current_trial": 221, "trialdata": {"rt": -1, "trial_type": "single-stim", "stimulus": "", "internal_node_id": "0.0-167.0-0.0", "time_elapsed": 1008000, "key_press": -1, "type": "PRE_RECALL_DELAY", "trial_index": 221}, "uniqueid": "MTK2215:3U8YCDAGXQNS4XQBQWTJB1BNJO5Q0L", "dateTime": 1516841889184}, {"current_trial": 222, "trialdata": {"rt": -1000, "trial_type": "single-audio", "stimulus": "/static/audio/400Hz.wav", "internal_node_id": "0.0-168.0", "time_elapsed": 1008503, "key_press": -1, "type": "PRE_RECALL_ALERT", "trial_index": 222}, "uniqueid": "MTK2215:3U8YCDAGXQNS4XQBQWTJB1BNJO5Q0L", "dateTime": 1516841889687}, {"current_trial": 223, "trialdata": {"rt": [3543, 5797, 8544, 10846, 14367, 16166, 20399, 51799], "recwords": ["rocket", "missle", "sunrise", "rooster", "vagrant", "onion", "couch", "fungus"], "key_times": [767, 1633, 1925, 2242, 2491, 2825, 3543, 3950, 4459, 4760, 4960, 5202, 5389, 5797, 6174, 6446, 6696, 6985, 7307, 7547, 7791, 8544, 9057, 9423, 9582, 9805, 10075, 10251, 10506, 10846, 11473, 11740, 12161, 12440, 12643, 13260, 13621, 14367, 14824, 15155, 15426, 15593, 15807, 16166, 16721, 16997, 17278, 17628, 17859, 20399, 49804, 50114, 50361, 50666, 50918, 51205, 51799], "trial_type": "free-recall", "conditions": [12, 1600, "v", 24000], "internal_node_id": "0.0-169.0-0.0", "key_presses": [82, 79, 67, 75, 69, 84, 13, 77, 73, 83, 83, 76, 69, 13, 83, 85, 78, 82, 73, 83, 69, 13, 82, 79, 79, 83, 84, 69, 82, 13, 86, 65, 71, 82, 65, 78, 84, 13, 79, 78, 73, 79, 78, 13, 67, 79, 85, 67, 72, 13, 70, 85, 78, 71, 85, 83, 13], "trial": 5, "time_elapsed": 1068509, "type": "FREE_RECALL", "trial_index": 223}, "uniqueid": "MTK2215:3U8YCDAGXQNS4XQBQWTJB1BNJO5Q0L", "dateTime": 1516841949708}, {"current_trial": 224, "trialdata": {"rt": 739, "trial_type": "text", "internal_node_id": "0.0-170.0", "time_elapsed": 1071267, "key_press": 32, "type": "INSTRUCTIONS", "trial_index": 224}, "uniqueid": "MTK2215:3U8YCDAGXQNS4XQBQWTJB1BNJO5Q0L", "dateTime": 1516841952451}, {"current_trial": 225, "trialdata": {"rt": [2718, 6341, 10282], "trial_type": "math-distractor", "key_times": [1967, 2309, 2718, 5823, 6048, 6341, 9311, 9846, 10282], "responses": ["13", "22", "16"], "num2": [9, 6, 7, 5], "num3": [1, 8, 3, 2], "conditions": [12, 800, "v", 12000], "internal_node_id": "0.0-171.0", "key_presses": [49, 51, 13, 50, 50, 13, 49, 54, 13], "trial": 6, "time_elapsed": 1085275, "type": "DISTRACTOR", "trial_index": 225, "num1": [3, 8, 6, 8]}, "uniqueid": "MTK2215:3U8YCDAGXQNS4XQBQWTJB1BNJO5Q0L", "dateTime": 1516841966459}, {"current_trial": 226, "trialdata": {"rt": -1, "trial_type": "single-stim", "stimulus": "<p id=\"stim\">10</p>", "internal_node_id": "0.0-172.0-0.0", "time_elapsed": 1088279, "key_press": -1, "trial_index": 226}, "uniqueid": "MTK2215:3U8YCDAGXQNS4XQBQWTJB1BNJO5Q0L", "dateTime": 1516841969464}, {"current_trial": 227, "trialdata": {"rt": -1, "trial_type": "single-stim", "stimulus": "<p id=\"stim\">9</p>", "internal_node_id": "0.0-172.0-1.0", "time_elapsed": 1089282, "key_press": -1, "trial_index": 227}, "uniqueid": "MTK2215:3U8YCDAGXQNS4XQBQWTJB1BNJO5Q0L", "dateTime": 1516841970467}, {"current_trial": 228, "trialdata": {"rt": -1, "trial_type": "single-stim", "stimulus": "<p id=\"stim\">8</p>", "internal_node_id": "0.0-172.0-2.0", "time_elapsed": 1090285, "key_press": -1, "trial_index": 228}, "uniqueid": "MTK2215:3U8YCDAGXQNS4XQBQWTJB1BNJO5Q0L", "dateTime": 1516841971470}, {"current_trial": 229, "trialdata": {"rt": -1, "trial_type": "single-stim", "stimulus": "<p id=\"stim\">7</p>", "internal_node_id": "0.0-172.0-3.0", "time_elapsed": 1091289, "key_press": -1, "trial_index": 229}, "uniqueid": "MTK2215:3U8YCDAGXQNS4XQBQWTJB1BNJO5Q0L", "dateTime": 1516841972473}, {"current_trial": 230, "trialdata": {"rt": -1, "trial_type": "single-stim", "stimulus": "<p id=\"stim\">6</p>", "internal_node_id": "0.0-172.0-4.0", "time_elapsed": 1092291, "key_press": -1, "trial_index": 230}, "uniqueid": "MTK2215:3U8YCDAGXQNS4XQBQWTJB1BNJO5Q0L", "dateTime": 1516841973476}, {"current_trial": 231, "trialdata": {"rt": -1, "trial_type": "single-stim", "stimulus": "<p id=\"stim\">5</p>", "internal_node_id": "0.0-172.0-5.0", "time_elapsed": 1093294, "key_press": -1, "trial_index": 231}, "uniqueid": "MTK2215:3U8YCDAGXQNS4XQBQWTJB1BNJO5Q0L", "dateTime": 1516841974478}, {"current_trial": 232, "trialdata": {"rt": -1, "trial_type": "single-stim", "stimulus": "<p id=\"stim\">4</p>", "internal_node_id": "0.0-172.0-6.0", "time_elapsed": 1094297, "key_press": -1, "trial_index": 232}, "uniqueid": "MTK2215:3U8YCDAGXQNS4XQBQWTJB1BNJO5Q0L", "dateTime": 1516841975481}, {"current_trial": 233, "trialdata": {"rt": -1, "trial_type": "single-stim", "stimulus": "<p id=\"stim\">3</p>", "internal_node_id": "0.0-172.0-7.0", "time_elapsed": 1095299, "key_press": -1, "trial_index": 233}, "uniqueid": "MTK2215:3U8YCDAGXQNS4XQBQWTJB1BNJO5Q0L", "dateTime": 1516841976484}, {"current_trial": 234, "trialdata": {"rt": -1, "trial_type": "single-stim", "stimulus": "<p id=\"stim\">2</p>", "internal_node_id": "0.0-172.0-8.0", "time_elapsed": 1096302, "key_press": -1, "trial_index": 234}, "uniqueid": "MTK2215:3U8YCDAGXQNS4XQBQWTJB1BNJO5Q0L", "dateTime": 1516841977486}, {"current_trial": 235, "trialdata": {"rt": -1, "trial_type": "single-stim", "stimulus": "<p id=\"stim\">1</p>", "internal_node_id": "0.0-172.0-9.0", "time_elapsed": 1097304, "key_press": -1, "trial_index": 235}, "uniqueid": "MTK2215:3U8YCDAGXQNS4XQBQWTJB1BNJO5Q0L", "dateTime": 1516841978489}, {"current_trial": 236, "trialdata": {"rt": -1, "trial_type": "single-stim", "stimulus": "<p id=\"stim\">+</p>", "internal_node_id": "0.0-173.0-0.0", "time_elapsed": 1098807, "key_press": -1, "type": "FIXATION", "trial_index": 236}, "uniqueid": "MTK2215:3U8YCDAGXQNS4XQBQWTJB1BNJO5Q0L", "dateTime": 1516841979992}, {"current_trial": 237, "trialdata": {"rt": -1, "trial_type": "single-stim", "word": "girl", "stimulus": "<p id=\"stim\">GIRL</p>", "conditions": [12, 800, "v", 12000], "internal_node_id": "0.0-174.0", "trial": 6, "time_elapsed": 1099610, "serialpos": 0, "key_press": -1, "wordID": 636, "type": "PRES_VIS", "trial_index": 237}, "uniqueid": "MTK2215:3U8YCDAGXQNS4XQBQWTJB1BNJO5Q0L", "dateTime": 1516841980794}, {"current_trial": 238, "trialdata": {"rt": -1, "trial_type": "single-stim", "word": "tractor", "stimulus": "<p id=\"stim\">TRACTOR</p>", "conditions": [12, 800, "v", 12000], "internal_node_id": "0.0-175.0", "trial": 6, "time_elapsed": 1101448, "serialpos": 1, "key_press": -1, "wordID": 1492, "type": "PRES_VIS", "trial_index": 238}, "uniqueid": "MTK2215:3U8YCDAGXQNS4XQBQWTJB1BNJO5Q0L", "dateTime": 1516841982633}, {"current_trial": 239, "trialdata": {"rt": -1, "trial_type": "single-stim", "word": "police", "stimulus": "<p id=\"stim\">POLICE</p>", "conditions": [12, 800, "v", 12000], "internal_node_id": "0.0-176.0", "trial": 6, "time_elapsed": 1103076, "serialpos": 2, "key_press": -1, "wordID": 1097, "type": "PRES_VIS", "trial_index": 239}, "uniqueid": "MTK2215:3U8YCDAGXQNS4XQBQWTJB1BNJO5Q0L", "dateTime": 1516841984261}, {"current_trial": 240, "trialdata": {"rt": -1, "trial_type": "single-stim", "word": "denim", "stimulus": "<p id=\"stim\">DENIM</p>", "conditions": [12, 800, "v", 12000], "internal_node_id": "0.0-177.0", "trial": 6, "time_elapsed": 1104695, "serialpos": 3, "key_press": -1, "wordID": 445, "type": "PRES_VIS", "trial_index": 240}, "uniqueid": "MTK2215:3U8YCDAGXQNS4XQBQWTJB1BNJO5Q0L", "dateTime": 1516841985879}, {"current_trial": 241, "trialdata": {"rt": -1, "trial_type": "single-stim", "word": "ointment", "stimulus": "<p id=\"stim\">OINTMENT</p>", "conditions": [12, 800, "v", 12000], "internal_node_id": "0.0-178.0", "trial": 6, "time_elapsed": 1106618, "serialpos": 4, "key_press": -1, "wordID": 973, "type": "PRES_VIS", "trial_index": 241}, "uniqueid": "MTK2215:3U8YCDAGXQNS4XQBQWTJB1BNJO5Q0L", "dateTime": 1516841987803}, {"current_trial": 242, "trialdata": {"rt": -1, "trial_type": "single-stim", "word": "wagon", "stimulus": "<p id=\"stim\">WAGON</p>", "conditions": [12, 800, "v", 12000], "internal_node_id": "0.0-179.0", "trial": 6, "time_elapsed": 1108289, "serialpos": 5, "key_press": -1, "wordID": 1577, "type": "PRES_VIS", "trial_index": 242}, "uniqueid": "MTK2215:3U8YCDAGXQNS4XQBQWTJB1BNJO5Q0L", "dateTime": 1516841989474}, {"current_trial": 243, "trialdata": {"rt": -1, "trial_type": "single-stim", "word": "stove", "stimulus": "<p id=\"stim\">STOVE</p>", "conditions": [12, 800, "v", 12000], "internal_node_id": "0.0-180.0", "trial": 6, "time_elapsed": 1110153, "serialpos": 6, "key_press": -1, "wordID": 1387, "type": "PRES_VIS", "trial_index": 243}, "uniqueid": "MTK2215:3U8YCDAGXQNS4XQBQWTJB1BNJO5Q0L", "dateTime": 1516841991337}, {"current_trial": 244, "trialdata": {"rt": -1, "trial_type": "single-stim", "word": "kitchen", "stimulus": "<p id=\"stim\">KITCHEN</p>", "conditions": [12, 800, "v", 12000], "internal_node_id": "0.0-181.0", "trial": 6, "time_elapsed": 1112127, "serialpos": 7, "key_press": -1, "wordID": 777, "type": "PRES_VIS", "trial_index": 244}, "uniqueid": "MTK2215:3U8YCDAGXQNS4XQBQWTJB1BNJO5Q0L", "dateTime": 1516841993314}, {"current_trial": 245, "trialdata": {"rt": -1, "trial_type": "single-stim", "word": "box", "stimulus": "<p id=\"stim\">BOX</p>", "conditions": [12, 800, "v", 12000], "internal_node_id": "0.0-182.0", "trial": 6, "time_elapsed": 1113825, "serialpos": 8, "key_press": -1, "wordID": 158, "type": "PRES_VIS", "trial_index": 245}, "uniqueid": "MTK2215:3U8YCDAGXQNS4XQBQWTJB1BNJO5Q0L", "dateTime": 1516841995010}, {"current_trial": 246, "trialdata": {"rt": -1, "trial_type": "single-stim", "word": "cupboard", "stimulus": "<p id=\"stim\">CUPBOARD</p>", "conditions": [12, 800, "v", 12000], "internal_node_id": "0.0-183.0", "trial": 6, "time_elapsed": 1115446, "serialpos": 9, "key_press": -1, "wordID": 424, "type": "PRES_VIS", "trial_index": 246}, "uniqueid": "MTK2215:3U8YCDAGXQNS4XQBQWTJB1BNJO5Q0L", "dateTime": 1516841996631}, {"current_trial": 247, "trialdata": {"rt": -1, "trial_type": "single-stim", "word": "valve", "stimulus": "<p id=\"stim\">VALVE</p>", "conditions": [12, 800, "v", 12000], "internal_node_id": "0.0-184.0", "trial": 6, "time_elapsed": 1117311, "serialpos": 10, "key_press": -1, "wordID": 1545, "type": "PRES_VIS", "trial_index": 247}, "uniqueid": "MTK2215:3U8YCDAGXQNS4XQBQWTJB1BNJO5Q0L", "dateTime": 1516841998495}, {"current_trial": 248, "trialdata": {"rt": -1, "trial_type": "single-stim", "word": "washer", "stimulus": "<p id=\"stim\">WASHER</p>", "conditions": [12, 800, "v", 12000], "internal_node_id": "0.0-185.0", "trial": 6, "time_elapsed": 1119160, "serialpos": 11, "key_press": -1, "wordID": 1591, "type": "PRES_VIS", "trial_index": 248}, "uniqueid": "MTK2215:3U8YCDAGXQNS4XQBQWTJB1BNJO5Q0L", "dateTime": 1516842000344}, {"current_trial": 249, "trialdata": {"rt": -1, "trial_type": "single-stim", "stimulus": "", "internal_node_id": "0.0-186.0-0.0", "time_elapsed": 1121605, "key_press": -1, "type": "PRE_RECALL_DELAY", "trial_index": 249}, "uniqueid": "MTK2215:3U8YCDAGXQNS4XQBQWTJB1BNJO5Q0L", "dateTime": 1516842002789}, {"current_trial": 250, "trialdata": {"rt": -1000, "trial_type": "single-audio", "stimulus": "/static/audio/400Hz.wav", "internal_node_id": "0.0-187.0", "time_elapsed": 1122109, "key_press": -1, "type": "PRE_RECALL_ALERT", "trial_index": 250}, "uniqueid": "MTK2215:3U8YCDAGXQNS4XQBQWTJB1BNJO5Q0L", "dateTime": 1516842003293}, {"current_trial": 251, "trialdata": {"rt": [3285, 5826, 8702, 11830, 20107, 23265, 34630], "recwords": ["washer", "stove", "kitchen", "girl", "tractor", "washer", "cupboard"], "key_times": [918, 1162, 1401, 2199, 2419, 2654, 3285, 3710, 4201, 4679, 5089, 5370, 5826, 6277, 6489, 6854, 7148, 7408, 7649, 7958, 8702, 9362, 9698, 10408, 11110, 11830, 12401, 12647, 12906, 13267, 13629, 14544, 15700, 15972, 16198, 17163, 17388, 18064, 18418, 18981, 20107, 21565, 21789, 22002, 22228, 22388, 22643, 23265, 31506, 31855, 32437, 32844, 33198, 33534, 33764, 33977, 34630], "trial_type": "free-recall", "conditions": [12, 800, "v", 12000], "internal_node_id": "0.0-188.0-0.0", "key_presses": [87, 65, 83, 72, 69, 82, 13, 83, 84, 79, 86, 69, 13, 75, 73, 84, 67, 72, 69, 78, 13, 71, 73, 82, 76, 13, 84, 82, 65, 67, 84, 79, 8, 69, 82, 8, 8, 79, 82, 16, 13, 87, 65, 83, 72, 69, 82, 13, 67, 85, 80, 66, 79, 65, 82, 68, 13], "trial": 6, "time_elapsed": 1182114, "type": "FREE_RECALL", "trial_index": 251}, "uniqueid": "MTK2215:3U8YCDAGXQNS4XQBQWTJB1BNJO5Q0L", "dateTime": 1516842063306}, {"current_trial": 252, "trialdata": {"rt": 1479, "trial_type": "text", "internal_node_id": "0.0-189.0", "time_elapsed": 1185608, "key_press": 32, "type": "INSTRUCTIONS", "trial_index": 252}, "uniqueid": "MTK2215:3U8YCDAGXQNS4XQBQWTJB1BNJO5Q0L", "dateTime": 1516842066792}, {"current_trial": 253, "trialdata": {"rt": [10052], "trial_type": "math-distractor", "key_times": [3777, 4449, 5411, 6654, 9198, 9556, 10052, 11822], "responses": ["13"], "num2": [2, 3], "num3": [7, 3], "conditions": [12, 800, "v", 12000], "internal_node_id": "0.0-190.0", "key_presses": [49, 51, 8, 8, 49, 51, 13, 49], "trial": 7, "time_elapsed": 1199619, "type": "DISTRACTOR", "trial_index": 253, "num1": [4, 5]}, "uniqueid": "MTK2