{"assignmentId": "3MRNMEIQW6DBCKBSA39I9MWC58NLDK", "workerId": "MTK2701", "questiondata": {"origin": "United States", "strat-rehearsal": "87", "marital": "Married/Domestic Partnership", "education": "Bachelor's degree", "ethnicity": "Not Hispanic", "color_depth": 24, "distracted": "No", "wrote-notes": "Yes", "strat-other": "", "screen_width": 1280, "avail_screen_width": 1280, "avail_screen_height": 984, "strat-image": "20", "language": " English", "gender": "Female", "age": "32", "gender_other": "", "race": ["White"], "strat-categorize": "79", "pixel_depth": 24, "strat-spatial": "6", "strat-story": "6", "race_other": "", "screen_height": 1024}, "bonus": 0, "hitId": "3SR6AEG6W50A1FPZPCCW5VHMM7FYHI", "counterbalance": 2626, "useragent": "Mozilla/5.0 (Windows NT 10.0; Win64; x64) AppleWebKit/537.36 (KHTML, like Gecko) Chrome/63.0.3239.132 Safari/537.36", "eventdata": [{"eventtype": "initialized", "interval": 0, "value": null, "timestamp": 1519239793770}, {"eventtype": "window_resize", "interval": 0, "value": [1280, 977], "timestamp": 1519239793770}, {"eventtype": "focus", "interval": 95908, "value": "off", "timestamp": 1519239889678}, {"eventtype": "focus", "interval": 179532, "value": "on", "timestamp": 1519240069210}, {"eventtype": "window_resize", "interval": 1564487, "value": [1280, 973], "timestamp": 1519241633697}, {"eventtype": "focus", "interval": 679458, "value": "off", "timestamp": 1519242313155}, {"eventtype": "focus", "interval": 30917, "value": "on", "timestamp": 1519242344072}], "data": [{"current_trial": 0, "trialdata": {"rt": 6358, "trial_type": "text", "internal_node_id": "0.0-0.0", "time_elapsed": 6361, "key_press": 13, "type": "INSTRUCTIONS", "trial_index": 0}, "uniqueid": "MTK2701:3MRNMEIQW6DBCKBSA39I9MWC58NLDK", "dateTime": 1519239800731}, {"current_trial": 1, "trialdata": {"rt": 269301, "trial_type": "text", "internal_node_id": "0.0-1.0", "time_elapsed": 275663, "key_press": 13, "type": "INSTRUCTIONS", "trial_index": 1}, "uniqueid": "MTK2701:3MRNMEIQW6DBCKBSA39I9MWC58NLDK", "dateTime": 1519240070033}, {"current_trial": 2, "trialdata": {"rt": [6621], "trial_type": "audio-test", "responses": ["ocean"], "internal_node_id": "0.0-2.0", "time_elapsed": 282294, "type": "AUDIO_TEST", "trial_index": 2}, "uniqueid": "MTK2701:3MRNMEIQW6DBCKBSA39I9MWC58NLDK", "dateTime": 1519240076664}, {"current_trial": 3, "trialdata": {"rt": [6149], "trial_type": "audio-test", "responses": ["crystal"], "internal_node_id": "0.0-3.0", "time_elapsed": 288445, "type": "AUDIO_TEST", "trial_index": 3}, "uniqueid": "MTK2701:3MRNMEIQW6DBCKBSA39I9MWC58NLDK", "dateTime": 1519240082815}, {"current_trial": 4, "trialdata": {"rt": [4605], "trial_type": "audio-test", "responses": ["spice"], "internal_node_id": "0.0-4.0", "time_elapsed": 293054, "type": "AUDIO_TEST", "trial_index": 4}, "uniqueid": "MTK2701:3MRNMEIQW6DBCKBSA39I9MWC58NLDK", "dateTime": 1519240087424}, {"current_trial": 5, "trialdata": {"rt": 18334, "trial_type": "survey-text", "responses": "{\"Q0\":\"9:00 PM\",\"Q1\":\"4:30 AM\",\"Q2\":\"5\"}", "internal_node_id": "0.0-5.0", "time_elapsed": 312142, "type": "SLEEP_SURVEY", "trial_index": 5}, "uniqueid": "MTK2701:3MRNMEIQW6DBCKBSA39I9MWC58NLDK", "dateTime": 1519240106512}, {"current_trial": 6, "trialdata": {"rt": 25401, "trial_type": "text", "internal_node_id": "0.0-6.0", "time_elapsed": 338543, "key_press": 13, "type": "INSTRUCTIONS", "trial_index": 6}, "uniqueid": "MTK2701:3MRNMEIQW6DBCKBSA39I9MWC58NLDK", "dateTime": 1519240132914}, {"current_trial": 7, "trialdata": {"rt": 9937, "trial_type": "text", "internal_node_id": "0.0-7.0", "time_elapsed": 348982, "key_press": 13, "type": "INSTRUCTIONS", "trial_index": 7}, "uniqueid": "MTK2701:3MRNMEIQW6DBCKBSA39I9MWC58NLDK", "dateTime": 1519240143352}, {"current_trial": 8, "trialdata": {"rt": 13001, "trial_type": "text", "internal_node_id": "0.0-8.0", "time_elapsed": 362486, "key_press": 13, "type": "INSTRUCTIONS", "trial_index": 8}, "uniqueid": "MTK2701:3MRNMEIQW6DBCKBSA39I9MWC58NLDK", "dateTime": 1519240156856}, {"current_trial": 9, "trialdata": {"rt": [2518, 5838, 7854, 10430, 14830], "trial_type": "math-distractor", "key_times": [2072, 2170, 2518, 5344, 5600, 5838, 7512, 7624, 7854, 10031, 10144, 10430, 13056, 13944, 14441, 14593, 14830], "responses": ["21", "24", "13", "15", "24"], "num2": [7, 8, 2, 2, 9, 5], "num3": [7, 8, 2, 8, 8, 4], "conditions": [18, 1200, "v", 18000], "internal_node_id": "0.0-9.0", "key_presses": [98, 97, 13, 98, 100, 13, 97, 99, 13, 97, 101, 13, 97, 8, 98, 100, 13], "trial": 0, "time_elapsed": 381500, "type": "DISTRACTOR", "trial_index": 9, "num1": [7, 8, 9, 5, 7, 9]}, "uniqueid": "MTK2701:3MRNMEIQW6DBCKBSA39I9MWC58NLDK", "dateTime": 1519240175870}, {"current_trial": 10, "trialdata": {"rt": -1, "trial_type": "single-stim", "stimulus": "<p id=\"stim\">10</p>", "internal_node_id": "0.0-10.0-0.0", "time_elapsed": 384506, "key_press": -1, "trial_index": 10}, "uniqueid": "MTK2701:3MRNMEIQW6DBCKBSA39I9MWC58NLDK", "dateTime": 1519240178876}, {"current_trial": 11, "trialdata": {"rt": -1, "trial_type": "single-stim", "stimulus": "<p id=\"stim\">9</p>", "internal_node_id": "0.0-10.0-1.0", "time_elapsed": 385509, "key_press": -1, "trial_index": 11}, "uniqueid": "MTK2701:3MRNMEIQW6DBCKBSA39I9MWC58NLDK", "dateTime": 1519240179879}, {"current_trial": 12, "trialdata": {"rt": -1, "trial_type": "single-stim", "stimulus": "<p id=\"stim\">8</p>", "internal_node_id": "0.0-10.0-2.0", "time_elapsed": 386511, "key_press": -1, "trial_index": 12}, "uniqueid": "MTK2701:3MRNMEIQW6DBCKBSA39I9MWC58NLDK", "dateTime": 1519240180881}, {"current_trial": 13, "trialdata": {"rt": -1, "trial_type": "single-stim", "stimulus": "<p id=\"stim\">7</p>", "internal_node_id": "0.0-10.0-3.0", "time_elapsed": 387514, "key_press": -1, "trial_index": 13}, "uniqueid": "MTK2701:3MRNMEIQW6DBCKBSA39I9MWC58NLDK", "dateTime": 1519240181884}, {"current_trial": 14, "trialdata": {"rt": -1, "trial_type": "single-stim", "stimulus": "<p id=\"stim\">6</p>", "internal_node_id": "0.0-10.0-4.0", "time_elapsed": 388516, "key_press": -1, "trial_index": 14}, "uniqueid": "MTK2701:3MRNMEIQW6DBCKBSA39I9MWC58NLDK", "dateTime": 1519240182886}, {"current_trial": 15, "trialdata": {"rt": -1, "trial_type": "single-stim", "stimulus": "<p id=\"stim\">5</p>", "internal_node_id": "0.0-10.0-5.0", "time_elapsed": 389520, "key_press": -1, "trial_index": 15}, "uniqueid": "MTK2701:3MRNMEIQW6DBCKBSA39I9MWC58NLDK", "dateTime": 1519240183890}, {"current_trial": 16, "trialdata": {"rt": -1, "trial_type": "single-stim", "stimulus": "<p id=\"stim\">4</p>", "internal_node_id": "0.0-10.0-6.0", "time_elapsed": 390524, "key_press": -1, "trial_index": 16}, "uniqueid": "MTK2701:3MRNMEIQW6DBCKBSA39I9MWC58NLDK", "dateTime": 1519240184894}, {"current_trial": 17, "trialdata": {"rt": -1, "trial_type": "single-stim", "stimulus": "<p id=\"stim\">3</p>", "internal_node_id": "0.0-10.0-7.0", "time_elapsed": 391528, "key_press": -1, "trial_index": 17}, "uniqueid": "MTK2701:3MRNMEIQW6DBCKBSA39I9MWC58NLDK", "dateTime": 1519240185898}, {"current_trial": 18, "trialdata": {"rt": -1, "trial_type": "single-stim", "stimulus": "<p id=\"stim\">2</p>", "internal_node_id": "0.0-10.0-8.0", "time_elapsed": 392532, "key_press": -1, "trial_index": 18}, "uniqueid": "MTK2701:3MRNMEIQW6DBCKBSA39I9MWC58NLDK", "dateTime": 1519240186902}, {"current_trial": 19, "trialdata": {"rt": -1, "trial_type": "single-stim", "stimulus": "<p id=\"stim\">1</p>", "internal_node_id": "0.0-10.0-9.0", "time_elapsed": 393534, "key_press": -1, "trial_index": 19}, "uniqueid": "MTK2701:3MRNMEIQW6DBCKBSA39I9MWC58NLDK", "dateTime": 1519240187905}, {"current_trial": 20, "trialdata": {"rt": -1, "trial_type": "single-stim", "stimulus": "<p id=\"stim\">+</p>", "internal_node_id": "0.0-11.0-0.0", "time_elapsed": 395037, "key_press": -1, "type": "FIXATION", "trial_index": 20}, "uniqueid": "MTK2701:3MRNMEIQW6DBCKBSA39I9MWC58NLDK", "dateTime": 1519240189407}, {"current_trial": 21, "trialdata": {"rt": -1, "trial_type": "single-stim", "word": "star", "stimulus": "<p id=\"stim\">STAR</p>", "conditions": [18, 1200, "v", 18000], "internal_node_id": "0.0-12.0", "trial": 0, "time_elapsed": 396240, "serialpos": 0, "key_press": -1, "wordID": 1372, "type": "PRES_VIS", "trial_index": 21}, "uniqueid": "MTK2701:3MRNMEIQW6DBCKBSA39I9MWC58NLDK", "dateTime": 1519240190610}, {"current_trial": 22, "trialdata": {"rt": -1, "trial_type": "single-stim", "word": "xerox", "stimulus": "<p id=\"stim\">XEROX</p>", "conditions": [18, 1200, "v", 18000], "internal_node_id": "0.0-13.0", "trial": 0, "time_elapsed": 398590, "serialpos": 1, "key_press": -1, "wordID": 1627, "type": "PRES_VIS", "trial_index": 22}, "uniqueid": "MTK2701:3MRNMEIQW6DBCKBSA39I9MWC58NLDK", "dateTime": 1519240192960}, {"current_trial": 23, "trialdata": {"rt": -1, "trial_type": "single-stim", "word": "dime", "stimulus": "<p id=\"stim\">DIME</p>", "conditions": [18, 1200, "v", 18000], "internal_node_id": "0.0-14.0", "trial": 0, "time_elapsed": 400755, "serialpos": 2, "key_press": -1, "wordID": 465, "type": "PRES_VIS", "trial_index": 23}, "uniqueid": "MTK2701:3MRNMEIQW6DBCKBSA39I9MWC58NLDK", "dateTime": 1519240195125}, {"current_trial": 24, "trialdata": {"rt": -1, "trial_type": "single-stim", "word": "marker", "stimulus": "<p id=\"stim\">MARKER</p>", "conditions": [18, 1200, "v", 18000], "internal_node_id": "0.0-15.0", "trial": 0, "time_elapsed": 402788, "serialpos": 3, "key_press": -1, "wordID": 869, "type": "PRES_VIS", "trial_index": 24}, "uniqueid": "MTK2701:3MRNMEIQW6DBCKBSA39I9MWC58NLDK", "dateTime": 1519240197158}, {"current_trial": 25, "trialdata": {"rt": -1, "trial_type": "single-stim", "word": "parrot", "stimulus": "<p id=\"stim\">PARROT</p>", "conditions": [18, 1200, "v", 18000], "internal_node_id": "0.0-16.0", "trial": 0, "time_elapsed": 405080, "serialpos": 4, "key_press": -1, "wordID": 1014, "type": "PRES_VIS", "trial_index": 25}, "uniqueid": "MTK2701:3MRNMEIQW6DBCKBSA39I9MWC58NLDK", "dateTime": 1519240199450}, {"current_trial": 26, "trialdata": {"rt": -1, "trial_type": "single-stim", "word": "eyelash", "stimulus": "<p id=\"stim\">EYELASH</p>", "conditions": [18, 1200, "v", 18000], "internal_node_id": "0.0-17.0", "trial": 0, "time_elapsed": 407144, "serialpos": 5, "key_press": -1, "wordID": 545, "type": "PRES_VIS", "trial_index": 26}, "uniqueid": "MTK2701:3MRNMEIQW6DBCKBSA39I9MWC58NLDK", "dateTime": 1519240201514}, {"current_trial": 27, "trialdata": {"rt": -1, "trial_type": "single-stim", "word": "ox", "stimulus": "<p id=\"stim\">OX</p>", "conditions": [18, 1200, "v", 18000], "internal_node_id": "0.0-18.0", "trial": 0, "time_elapsed": 409222, "serialpos": 6, "key_press": -1, "wordID": 993, "type": "PRES_VIS", "trial_index": 27}, "uniqueid": "MTK2701:3MRNMEIQW6DBCKBSA39I9MWC58NLDK", "dateTime": 1519240203592}, {"current_trial": 28, "trialdata": {"rt": -1, "trial_type": "single-stim", "word": "flashlight", "stimulus": "<p id=\"stim\">FLASHLIGHT</p>", "conditions": [18, 1200, "v", 18000], "internal_node_id": "0.0-19.0", "trial": 0, "time_elapsed": 411619, "serialpos": 7, "key_press": -1, "wordID": 574, "type": "PRES_VIS", "trial_index": 28}, "uniqueid": "MTK2701:3MRNMEIQW6DBCKBSA39I9MWC58NLDK", "dateTime": 1519240205989}, {"current_trial": 29, "trialdata": {"rt": -1, "trial_type": "single-stim", "word": "drawing", "stimulus": "<p id=\"stim\">DRAWING</p>", "conditions": [18, 1200, "v", 18000], "internal_node_id": "0.0-20.0", "trial": 0, "time_elapsed": 413985, "serialpos": 8, "key_press": -1, "wordID": 493, "type": "PRES_VIS", "trial_index": 29}, "uniqueid": "MTK2701:3MRNMEIQW6DBCKBSA39I9MWC58NLDK", "dateTime": 1519240208357}, {"current_trial": 30, "trialdata": {"rt": -1, "trial_type": "single-stim", "word": "beaver", "stimulus": "<p id=\"stim\">BEAVER</p>", "conditions": [18, 1200, "v", 18000], "internal_node_id": "0.0-21.0", "trial": 0, "time_elapsed": 416091, "serialpos": 9, "key_press": -1, "wordID": 108, "type": "PRES_VIS", "trial_index": 30}, "uniqueid": "MTK2701:3MRNMEIQW6DBCKBSA39I9MWC58NLDK", "dateTime": 1519240210462}, {"current_trial": 31, "trialdata": {"rt": -1, "trial_type": "single-stim", "word": "fleet", "stimulus": "<p id=\"stim\">FLEET</p>", "conditions": [18, 1200, "v", 18000], "internal_node_id": "0.0-22.0", "trial": 0, "time_elapsed": 418377, "serialpos": 10, "key_press": -1, "wordID": 577, "type": "PRES_VIS", "trial_index": 31}, "uniqueid": "MTK2701:3MRNMEIQW6DBCKBSA39I9MWC58NLDK", "dateTime": 1519240212747}, {"current_trial": 32, "trialdata": {"rt": -1, "trial_type": "single-stim", "word": "thread", "stimulus": "<p id=\"stim\">THREAD</p>", "conditions": [18, 1200, "v", 18000], "internal_node_id": "0.0-23.0", "trial": 0, "time_elapsed": 420408, "serialpos": 11, "key_press": -1, "wordID": 1459, "type": "PRES_VIS", "trial_index": 32}, "uniqueid": "MTK2701:3MRNMEIQW6DBCKBSA39I9MWC58NLDK", "dateTime": 1519240214779}, {"current_trial": 33, "trialdata": {"rt": -1, "trial_type": "single-stim", "word": "gift", "stimulus": "<p id=\"stim\">GIFT</p>", "conditions": [18, 1200, "v", 18000], "internal_node_id": "0.0-24.0", "trial": 0, "time_elapsed": 422547, "serialpos": 12, "key_press": -1, "wordID": 634, "type": "PRES_VIS", "trial_index": 33}, "uniqueid": "MTK2701:3MRNMEIQW6DBCKBSA39I9MWC58NLDK", "dateTime": 1519240216917}, {"current_trial": 34, "trialdata": {"rt": -1, "trial_type": "single-stim", "word": "fireplace", "stimulus": "<p id=\"stim\">FIREPLACE</p>", "conditions": [18, 1200, "v", 18000], "internal_node_id": "0.0-25.0", "trial": 0, "time_elapsed": 424772, "serialpos": 13, "key_press": -1, "wordID": 569, "type": "PRES_VIS", "trial_index": 34}, "uniqueid": "MTK2701:3MRNMEIQW6DBCKBSA39I9MWC58NLDK", "dateTime": 1519240219142}, {"current_trial": 35, "trialdata": {"rt": -1, "trial_type": "single-stim", "word": "hand", "stimulus": "<p id=\"stim\">HAND</p>", "conditions": [18, 1200, "v", 18000], "internal_node_id": "0.0-26.0", "trial": 0, "time_elapsed": 427132, "serialpos": 14, "key_press": -1, "wordID": 682, "type": "PRES_VIS", "trial_index": 35}, "uniqueid": "MTK2701:3MRNMEIQW6DBCKBSA39I9MWC58NLDK", "dateTime": 1519240221502}, {"current_trial": 36, "trialdata": {"rt": -1, "trial_type": "single-stim", "word": "burglar", "stimulus": "<p id=\"stim\">BURGLAR</p>", "conditions": [18, 1200, "v", 18000], "internal_node_id": "0.0-27.0", "trial": 0, "time_elapsed": 429377, "serialpos": 15, "key_press": -1, "wordID": 199, "type": "PRES_VIS", "trial_index": 36}, "uniqueid": "MTK2701:3MRNMEIQW6DBCKBSA39I9MWC58NLDK", "dateTime": 1519240223747}, {"current_trial": 37, "trialdata": {"rt": -1, "trial_type": "single-stim", "word": "lipstick", "stimulus": "<p id=\"stim\">LIPSTICK</p>", "conditions": [18, 1200, "v", 18000], "internal_node_id": "0.0-28.0", "trial": 0, "time_elapsed": 431767, "serialpos": 16, "key_press": -1, "wordID": 828, "type": "PRES_VIS", "trial_index": 37}, "uniqueid": "MTK2701:3MRNMEIQW6DBCKBSA39I9MWC58NLDK", "dateTime": 1519240226137}, {"current_trial": 38, "trialdata": {"rt": -1, "trial_type": "single-stim", "word": "student", "stimulus": "<p id=\"stim\">STUDENT</p>", "conditions": [18, 1200, "v", 18000], "internal_node_id": "0.0-29.0", "trial": 0, "time_elapsed": 434038, "serialpos": 17, "key_press": -1, "wordID": 1394, "type": "PRES_VIS", "trial_index": 38}, "uniqueid": "MTK2701:3MRNMEIQW6DBCKBSA39I9MWC58NLDK", "dateTime": 1519240228408}, {"current_trial": 39, "trialdata": {"rt": -1, "trial_type": "single-stim", "stimulus": "", "internal_node_id": "0.0-30.0-0.0", "time_elapsed": 436403, "key_press": -1, "type": "PRE_RECALL_DELAY", "trial_index": 39}, "uniqueid": "MTK2701:3MRNMEIQW6DBCKBSA39I9MWC58NLDK", "dateTime": 1519240230773}, {"current_trial": 40, "trialdata": {"rt": -1000, "trial_type": "single-audio", "stimulus": "/static/audio/400Hz.wav", "internal_node_id": "0.0-31.0", "time_elapsed": 436915, "key_press": -1, "type": "PRE_RECALL_ALERT", "trial_index": 40}, "uniqueid": "MTK2701:3MRNMEIQW6DBCKBSA39I9MWC58NLDK", "dateTime": 1519240231285}, {"current_trial": 41, "trialdata": {"rt": [4216, 6033, 8544, 10784, 11729, 13168, 18353], "recwords": ["ox", "eyelash", "lipstick", "flashlight", "studnet", "star", "marker"], "key_times": [2075, 2250, 2882, 3058, 3691, 3858, 4010, 4216, 4770, 4875, 5330, 5475, 5601, 5714, 5818, 6033, 7418, 7562, 7707, 7834, 7930, 8000, 8258, 8314, 8544, 8834, 8946, 9482, 9674, 9851, 10218, 10306, 10435, 10546, 10641, 10784, 10930, 11010, 11123, 11251, 11418, 11506, 11626, 11729, 12635, 12778, 12899, 13026, 13168, 17683, 17811, 17923, 18019, 18107, 18204, 18353], "trial_type": "free-recall", "conditions": [18, 1200, "v", 18000], "internal_node_id": "0.0-32.0-0.0", "key_presses": [79, 88, 8, 8, 20, 79, 88, 13, 69, 89, 69, 76, 65, 83, 72, 13, 76, 73, 80, 83, 84, 73, 67, 75, 13, 70, 76, 65, 83, 72, 76, 73, 71, 72, 84, 13, 83, 84, 85, 68, 78, 69, 84, 13, 83, 84, 65, 82, 13, 77, 65, 82, 75, 69, 82, 13], "trial": 0, "time_elapsed": 496922, "type": "FREE_RECALL", "trial_index": 41}, "uniqueid": "MTK2701:3MRNMEIQW6DBCKBSA39I9MWC58NLDK", "dateTime": 1519240291297}, {"current_trial": 42, "trialdata": {"rt": 4240, "trial_type": "text", "internal_node_id": "0.0-33.0", "time_elapsed": 503169, "key_press": 13, "type": "INSTRUCTIONS", "trial_index": 42}, "uniqueid": "MTK2701:3MRNMEIQW6DBCKBSA39I9MWC58NLDK", "dateTime": 1519240297539}, {"current_trial": 43, "trialdata": {"rt": [2596, 4908, 10181, 15061, 17437], "trial_type": "math-distractor", "key_times": [2222, 2303, 2596, 4430, 4598, 4908, 8839, 9375, 10181, 14310, 14735, 15061, 16935, 17088, 17437], "responses": ["15", "12", "22", "17", "18"], "num2": [3, 5, 8, 1, 4, 6], "num3": [5, 3, 6, 8, 7, 1], "conditions": [18, 1200, "v", 18000], "internal_node_id": "0.0-34.0", "key_presses": [97, 101, 13, 97, 98, 13, 98, 98, 13, 97, 103, 13, 97, 104, 13], "trial": 1, "time_elapsed": 523177, "type": "DISTRACTOR", "trial_index": 43, "num1": [7, 4, 8, 8, 7, 2]}, "uniqueid": "MTK2701:3MRNMEIQW6DBCKBSA39I9MWC58NLDK", "dateTime": 1519240317547}, {"current_trial": 44, "trialdata": {"rt": -1, "trial_type": "single-stim", "stimulus": "<p id=\"stim\">10</p>", "internal_node_id": "0.0-35.0-0.0", "time_elapsed": 526181, "key_press": -1, "trial_index": 44}, "uniqueid": "MTK2701:3MRNMEIQW6DBCKBSA39I9MWC58NLDK", "dateTime": 1519240320552}, {"current_trial": 45, "trialdata": {"rt": -1, "trial_type": "single-stim", "stimulus": "<p id=\"stim\">9</p>", "internal_node_id": "0.0-35.0-1.0", "time_elapsed": 527184, "key_press": -1, "trial_index": 45}, "uniqueid": "MTK2701:3MRNMEIQW6DBCKBSA39I9MWC58NLDK", "dateTime": 1519240321554}, {"current_trial": 46, "trialdata": {"rt": -1, "trial_type": "single-stim", "stimulus": "<p id=\"stim\">8</p>", "internal_node_id": "0.0-35.0-2.0", "time_elapsed": 528186, "key_press": -1, "trial_index": 46}, "uniqueid": "MTK2701:3MRNMEIQW6DBCKBSA39I9MWC58NLDK", "dateTime": 1519240322556}, {"current_trial": 47, "trialdata": {"rt": -1, "trial_type": "single-stim", "stimulus": "<p id=\"stim\">7</p>", "internal_node_id": "0.0-35.0-3.0", "time_elapsed": 529188, "key_press": -1, "trial_index": 47}, "uniqueid": "MTK2701:3MRNMEIQW6DBCKBSA39I9MWC58NLDK", "dateTime": 1519240323559}, {"current_trial": 48, "trialdata": {"rt": -1, "trial_type": "single-stim", "stimulus": "<p id=\"stim\">6</p>", "internal_node_id": "0.0-35.0-4.0", "time_elapsed": 530191, "key_press": -1, "trial_index": 48}, "uniqueid": "MTK2701:3MRNMEIQW6DBCKBSA39I9MWC58NLDK", "dateTime": 1519240324561}, {"current_trial": 49, "trialdata": {"rt": -1, "trial_type": "single-stim", "stimulus": "<p id=\"stim\">5</p>", "internal_node_id": "0.0-35.0-5.0", "time_elapsed": 531194, "key_press": -1, "trial_index": 49}, "uniqueid": "MTK2701:3MRNMEIQW6DBCKBSA39I9MWC58NLDK", "dateTime": 1519240325564}, {"current_trial": 50, "trialdata": {"rt": -1, "trial_type": "single-stim", "stimulus": "<p id=\"stim\">4</p>", "internal_node_id": "0.0-35.0-6.0", "time_elapsed": 532196, "key_press": -1, "trial_index": 50}, "uniqueid": "MTK2701:3MRNMEIQW6DBCKBSA39I9MWC58NLDK", "dateTime": 1519240326566}, {"current_trial": 51, "trialdata": {"rt": -1, "trial_type": "single-stim", "stimulus": "<p id=\"stim\">3</p>", "internal_node_id": "0.0-35.0-7.0", "time_elapsed": 533199, "key_press": -1, "trial_index": 51}, "uniqueid": "MTK2701:3MRNMEIQW6DBCKBSA39I9MWC58NLDK", "dateTime": 1519240327569}, {"current_trial": 52, "trialdata": {"rt": -1, "trial_type": "single-stim", "stimulus": "<p id=\"stim\">2</p>", "internal_node_id": "0.0-35.0-8.0", "time_elapsed": 534201, "key_press": -1, "trial_index": 52}, "uniqueid": "MTK2701:3MRNMEIQW6DBCKBSA39I9MWC58NLDK", "dateTime": 1519240328572}, {"current_trial": 53, "trialdata": {"rt": -1, "trial_type": "single-stim", "stimulus": "<p id=\"stim\">1</p>", "internal_node_id": "0.0-35.0-9.0", "time_elapsed": 535204, "key_press": -1, "trial_index": 53}, "uniqueid": "MTK2701:3MRNMEIQW6DBCKBSA39I9MWC58NLDK", "dateTime": 1519240329574}, {"current_trial": 54, "trialdata": {"rt": -1, "trial_type": "single-stim", "stimulus": "<p id=\"stim\">+</p>", "internal_node_id": "0.0-36.0-0.0", "time_elapsed": 536706, "key_press": -1, "type": "FIXATION", "trial_index": 54}, "uniqueid": "MTK2701:3MRNMEIQW6DBCKBSA39I9MWC58NLDK", "dateTime": 1519240331076}, {"current_trial": 55, "trialdata": {"rt": -1, "trial_type": "single-stim", "word": "puppy", "stimulus": "<p id=\"stim\">PUPPY</p>", "conditions": [18, 1200, "v", 18000], "internal_node_id": "0.0-37.0", "trial": 1, "time_elapsed": 537908, "serialpos": 0, "key_press": -1, "wordID": 1143, "type": "PRES_VIS", "trial_index": 55}, "uniqueid": "MTK2701:3MRNMEIQW6DBCKBSA39I9MWC58NLDK", "dateTime": 1519240332278}, {"current_trial": 56, "trialdata": {"rt": -1, "trial_type": "single-stim", "word": "server", "stimulus": "<p id=\"stim\">SERVER</p>", "conditions": [18, 1200, "v", 18000], "internal_node_id": "0.0-38.0", "trial": 1, "time_elapsed": 540301, "serialpos": 1, "key_press": -1, "wordID": 1271, "type": "PRES_VIS", "trial_index": 56}, "uniqueid": "MTK2701:3MRNMEIQW6DBCKBSA39I9MWC58NLDK", "dateTime": 1519240334671}, {"current_trial": 57, "trialdata": {"rt": -1, "trial_type": "single-stim", "word": "banjo", "stimulus": "<p id=\"stim\">BANJO</p>", "conditions": [18, 1200, "v", 18000], "internal_node_id": "0.0-39.0", "trial": 1, "time_elapsed": 542405, "serialpos": 2, "key_press": -1, "wordID": 81, "type": "PRES_VIS", "trial_index": 57}, "uniqueid": "MTK2701:3MRNMEIQW6DBCKBSA39I9MWC58NLDK", "dateTime": 1519240336775}, {"current_trial": 58, "trialdata": {"rt": -1, "trial_type": "single-stim", "word": "scalpel", "stimulus": "<p id=\"stim\">SCALPEL</p>", "conditions": [18, 1200, "v", 18000], "internal_node_id": "0.0-40.0", "trial": 1, "time_elapsed": 544673, "serialpos": 3, "key_press": -1, "wordID": 1242, "type": "PRES_VIS", "trial_index": 58}, "uniqueid": "MTK2701:3MRNMEIQW6DBCKBSA39I9MWC58NLDK", "dateTime": 1519240339044}, {"current_trial": 59, "trialdata": {"rt": -1, "trial_type": "single-stim", "word": "pizza", "stimulus": "<p id=\"stim\">PIZZA</p>", "conditions": [18, 1200, "v", 18000], "internal_node_id": "0.0-41.0", "trial": 1, "time_elapsed": 546874, "serialpos": 4, "key_press": -1, "wordID": 1078, "type": "PRES_VIS", "trial_index": 59}, "uniqueid": "MTK2701:3MRNMEIQW6DBCKBSA39I9MWC58NLDK", "dateTime": 1519240341244}, {"current_trial": 60, "trialdata": {"rt": -1, "trial_type": "single-stim", "word": "rifle", "stimulus": "<p id=\"stim\">RIFLE</p>", "conditions": [18, 1200, "v", 18000], "internal_node_id": "0.0-42.0", "trial": 1, "time_elapsed": 549027, "serialpos": 5, "key_press": -1, "wordID": 1191, "type": "PRES_VIS", "trial_index": 60}, "uniqueid": "MTK2701:3MRNMEIQW6DBCKBSA39I9MWC58NLDK", "dateTime": 1519240343397}, {"current_trial": 61, "trialdata": {"rt": -1, "trial_type": "single-stim", "word": "typist", "stimulus": "<p id=\"stim\">TYPIST</p>", "conditions": [18, 1200, "v", 18000], "internal_node_id": "0.0-43.0", "trial": 1, "time_elapsed": 551405, "serialpos": 6, "key_press": -1, "wordID": 1531, "type": "PRES_VIS", "trial_index": 61}, "uniqueid": "MTK2701:3MRNMEIQW6DBCKBSA39I9MWC58NLDK", "dateTime": 1519240345775}, {"current_trial": 62, "trialdata": {"rt": -1, "trial_type": "single-stim", "word": "bathtub", "stimulus": "<p id=\"stim\">BATHTUB</p>", "conditions": [18, 1200, "v", 18000], "internal_node_id": "0.0-44.0", "trial": 1, "time_elapsed": 553656, "serialpos": 7, "key_press": -1, "wordID": 99, "type": "PRES_VIS", "trial_index": 62}, "uniqueid": "MTK2701:3MRNMEIQW6DBCKBSA39I9MWC58NLDK", "dateTime": 1519240348026}, {"current_trial": 63, "trialdata": {"rt": -1, "trial_type": "single-stim", "word": "whistle", "stimulus": "<p id=\"stim\">WHISTLE</p>", "conditions": [18, 1200, "v", 18000], "internal_node_id": "0.0-45.0", "trial": 1, "time_elapsed": 555952, "serialpos": 8, "key_press": -1, "wordID": 1605, "type": "PRES_VIS", "trial_index": 63}, "uniqueid": "MTK2701:3MRNMEIQW6DBCKBSA39I9MWC58NLDK", "dateTime": 1519240350322}, {"current_trial": 64, "trialdata": {"rt": -1, "trial_type": "single-stim", "word": "crutch", "stimulus": "<p id=\"stim\">CRUTCH</p>", "conditions": [18, 1200, "v", 18000], "internal_node_id": "0.0-46.0", "trial": 1, "time_elapsed": 558098, "serialpos": 9, "key_press": -1, "wordID": 416, "type": "PRES_VIS", "trial_index": 64}, "uniqueid": "MTK2701:3MRNMEIQW6DBCKBSA39I9MWC58NLDK", "dateTime": 1519240352468}, {"current_trial": 65, "trialdata": {"rt": -1, "trial_type": "single-stim", "word": "antler", "stimulus": "<p id=\"stim\">ANTLER</p>", "conditions": [18, 1200, "v", 18000], "internal_node_id": "0.0-47.0", "trial": 1, "time_elapsed": 560145, "serialpos": 10, "key_press": -1, "wordID": 28, "type": "PRES_VIS", "trial_index": 65}, "uniqueid": "MTK2701:3MRNMEIQW6DBCKBSA39I9MWC58NLDK", "dateTime": 1519240354515}, {"current_trial": 66, "trialdata": {"rt": -1, "trial_type": "single-stim", "word": "mister", "stimulus": "<p id=\"stim\">MISTER</p>", "conditions": [18, 1200, "v", 18000], "internal_node_id": "0.0-48.0", "trial": 1, "time_elapsed": 562334, "serialpos": 11, "key_press": -1, "wordID": 900, "type": "PRES_VIS", "trial_index": 66}, "uniqueid": "MTK2701:3MRNMEIQW6DBCKBSA39I9MWC58NLDK", "dateTime": 1519240356705}, {"current_trial": 67, "trialdata": {"rt": -1, "trial_type": "single-stim", "word": "bouquet", "stimulus": "<p id=\"stim\">BOUQUET</p>", "conditions": [18, 1200, "v", 18000], "internal_node_id": "0.0-49.0", "trial": 1, "time_elapsed": 564720, "serialpos": 12, "key_press": -1, "wordID": 156, "type": "PRES_VIS", "trial_index": 67}, "uniqueid": "MTK2701:3MRNMEIQW6DBCKBSA39I9MWC58NLDK", "dateTime": 1519240359091}, {"current_trial": 68, "trialdata": {"rt": -1, "trial_type": "single-stim", "word": "gravel", "stimulus": "<p id=\"stim\">GRAVEL</p>", "conditions": [18, 1200, "v", 18000], "internal_node_id": "0.0-50.0", "trial": 1, "time_elapsed": 566864, "serialpos": 13, "key_press": -1, "wordID": 658, "type": "PRES_VIS", "trial_index": 68}, "uniqueid": "MTK2701:3MRNMEIQW6DBCKBSA39I9MWC58NLDK", "dateTime": 1519240361240}, {"current_trial": 69, "trialdata": {"rt": -1, "trial_type": "single-stim", "word": "bubble", "stimulus": "<p id=\"stim\">BUBBLE</p>", "conditions": [18, 1200, "v", 18000], "internal_node_id": "0.0-51.0", "trial": 1, "time_elapsed": 569202, "serialpos": 14, "key_press": -1, "wordID": 182, "type": "PRES_VIS", "trial_index": 69}, "uniqueid": "MTK2701:3MRNMEIQW6DBCKBSA39I9MWC58NLDK", "dateTime": 1519240363572}, {"current_trial": 70, "trialdata": {"rt": -1, "trial_type": "single-stim", "word": "hound", "stimulus": "<p id=\"stim\">HOUND</p>", "conditions": [18, 1200, "v", 18000], "internal_node_id": "0.0-52.0", "trial": 1, "time_elapsed": 571288, "serialpos": 15, "key_press": -1, "wordID": 723, "type": "PRES_VIS", "trial_index": 70}, "uniqueid": "MTK2701:3MRNMEIQW6DBCKBSA39I9MWC58NLDK", "dateTime": 1519240365658}, {"current_trial": 71, "trialdata": {"rt": -1, "trial_type": "single-stim", "word": "daughter", "stimulus": "<p id=\"stim\">DAUGHTER</p>", "conditions": [18, 1200, "v", 18000], "internal_node_id": "0.0-53.0", "trial": 1, "time_elapsed": 573371, "serialpos": 16, "key_press": -1, "wordID": 441, "type": "PRES_VIS", "trial_index": 71}, "uniqueid": "MTK2701:3MRNMEIQW6DBCKBSA39I9MWC58NLDK", "dateTime": 1519240367741}, {"current_trial": 72, "trialdata": {"rt": -1, "trial_type": "single-stim", "word": "diver", "stimulus": "<p id=\"stim\">DIVER</p>", "conditions": [18, 1200, "v", 18000], "internal_node_id": "0.0-54.0", "trial": 1, "time_elapsed": 575669, "serialpos": 17, "key_press": -1, "wordID": 475, "type": "PRES_VIS", "trial_index": 72}, "uniqueid": "MTK2701:3MRNMEIQW6DBCKBSA39I9MWC58NLDK", "dateTime": 1519240370039}, {"current_trial": 73, "trialdata": {"rt": -1, "trial_type": "single-stim", "stimulus": "", "internal_node_id": "0.0-55.0-0.0", "time_elapsed": 578166, "key_press": -1, "type": "PRE_RECALL_DELAY", "trial_index": 73}, "uniqueid": "MTK2701:3MRNMEIQW6DBCKBSA39I9MWC58NLDK", "dateTime": 1519240372536}, {"current_trial": 74, "trialdata": {"rt": -1000, "trial_type": "single-audio", "stimulus": "/static/audio/400Hz.wav", "internal_node_id": "0.0-56.0", "time_elapsed": 578671, "key_press": -1, "type": "PRE_RECALL_ALERT", "trial_index": 74}, "uniqueid": "MTK2701:3MRNMEIQW6DBCKBSA39I9MWC58NLDK", "dateTime": 1519240373041}, {"current_trial": 75, "trialdata": {"rt": [2520, 5528, 6936, 8081, 10240, 12360, 13744, 16944, 18168, 20904, 27640], "recwords": ["puppy", "banjo", "pizza", "rifle", "crutch", "whistle", "daughter", "hound", "bubble", "diver", "gravel"], "key_times": [1378, 1617, 1866, 2057, 2257, 2520, 3778, 3856, 4785, 5154, 5282, 5528, 5962, 6162, 6337, 6513, 6770, 6936, 7394, 7507, 7657, 7729, 7930, 8081, 8433, 8657, 8898, 9337, 9561, 9705, 9977, 10058, 10240, 11057, 11321, 11410, 11537, 11706, 11739, 11947, 12360, 12586, 12772, 12823, 13010, 13146, 13331, 13521, 13634, 13744, 16066, 16202, 16338, 16513, 16801, 16944, 17434, 17504, 17617, 17793, 17874, 18043, 18168, 20226, 20337, 20507, 20697, 20753, 20904, 26434, 26722, 26778, 27154, 27273, 27401, 27640], "trial_type": "free-recall", "conditions": [18, 1200, "v", 18000], "internal_node_id": "0.0-57.0-0.0", "key_presses": [80, 85, 80, 80, 89, 13, 66, 65, 78, 74, 79, 13, 80, 73, 90, 90, 65, 13, 82, 73, 70, 76, 69, 13, 67, 82, 84, 8, 85, 84, 67, 72, 13, 87, 72, 73, 83, 84, 76, 69, 13, 68, 65, 85, 71, 72, 84, 69, 82, 13, 72, 79, 85, 78, 68, 13, 66, 85, 66, 66, 76, 69, 13, 68, 73, 86, 69, 82, 13, 71, 82, 65, 86, 69, 76, 13], "trial": 1, "time_elapsed": 638678, "type": "FREE_RECALL", "trial_index": 75}, "uniqueid": "MTK2701:3MRNMEIQW6DBCKBSA39I9MWC58NLDK", "dateTime": 1519240433053}, {"current_trial": 76, "trialdata": {"rt": 2223, "trial_type": "text", "internal_node_id": "0.0-58.0", "time_elapsed": 642907, "key_press": 13, "type": "INSTRUCTIONS", "trial_index": 76}, "uniqueid": "MTK2701:3MRNMEIQW6DBCKBSA39I9MWC58NLDK", "dateTime": 1519240437277}, {"current_trial": 77, "trialdata": {"rt": [3940, 6851, 8548, 11124], "trial_type": "math-distractor", "key_times": [3486, 3701, 3940, 6445, 6645, 6851, 8157, 8325, 8548, 10678, 10901, 11124], "responses": ["20", "14", "14", "20"], "num2": [6, 7, 8, 4, 8], "num3": [6, 6, 4, 9, 3], "conditions": [24, 1600, "v", 12000], "internal_node_id": "0.0-59.0", "key_presses": [98, 96, 13, 97, 100, 13, 97, 100, 13, 98, 96, 13], "trial": 2, "time_elapsed": 655915, "type": "DISTRACTOR", "trial_index": 77, "num1": [8, 1, 2, 7, 3]}, "uniqueid": "MTK2701:3MRNMEIQW6DBCKBSA39I9MWC58NLDK", "dateTime": 1519240450285}, {"current_trial": 78, "trialdata": {"rt": -1, "trial_type": "single-stim", "stimulus": "<p id=\"stim\">10</p>", "internal_node_id": "0.0-60.0-0.0", "time_elapsed": 658919, "key_press": -1, "trial_index": 78}, "uniqueid": "MTK2701:3MRNMEIQW6DBCKBSA39I9MWC58NLDK", "dateTime": 1519240453289}, {"current_trial": 79, "trialdata": {"rt": -1, "trial_type": "single-stim", "stimulus": "<p id=\"stim\">9</p>", "internal_node_id": "0.0-60.0-1.0", "time_elapsed": 659922, "key_press": -1, "trial_index": 79}, "uniqueid": "MTK2701:3MRNMEIQW6DBCKBSA39I9MWC58NLDK", "dateTime": 1519240454292}, {"current_trial": 80, "trialdata": {"rt": -1, "trial_type": "single-stim", "stimulus": "<p id=\"stim\">8</p>", "internal_node_id": "0.0-60.0-2.0", "time_elapsed": 660925, "key_press": -1, "trial_index": 80}, "uniqueid": "MTK2701:3MRNMEIQW6DBCKBSA39I9MWC58NLDK", "dateTime": 1519240455295}, {"current_trial": 81, "trialdata": {"rt": -1, "trial_type": "single-stim", "stimulus": "<p id=\"stim\">7</p>", "internal_node_id": "0.0-60.0-3.0", "time_elapsed": 661927, "key_press": -1, "trial_index": 81}, "uniqueid": "MTK2701:3MRNMEIQW6DBCKBSA39I9MWC58NLDK", "dateTime": 1519240456297}, {"current_trial": 82, "trialdata": {"rt": -1, "trial_type": "single-stim", "stimulus": "<p id=\"stim\">6</p>", "internal_node_id": "0.0-60.0-4.0", "time_elapsed": 662929, "key_press": -1, "trial_index": 82}, "uniqueid": "MTK2701:3MRNMEIQW6DBCKBSA39I9MWC58NLDK", "dateTime": 1519240457299}, {"current_trial": 83, "trialdata": {"rt": -1, "trial_type": "single-stim", "stimulus": "<p id=\"stim\">5</p>", "internal_node_id": "0.0-60.0-5.0", "time_elapsed": 663931, "key_press": -1, "trial_index": 83}, "uniqueid": "MTK2701:3MRNMEIQW6DBCKBSA39I9MWC58NLDK", "dateTime": 1519240458302}, {"current_trial": 84, "trialdata": {"rt": -1, "trial_type": "single-stim", "stimulus": "<p id=\"stim\">4</p>", "internal_node_id": "0.0-60.0-6.0", "time_elapsed": 664934, "key_press": -1, "trial_index": 84}, "uniqueid": "MTK2701:3MRNMEIQW6DBCKBSA39I9MWC58NLDK", "dateTime": 1519240459304}, {"current_trial": 85, "trialdata": {"rt": -1, "trial_type": "single-stim", "stimulus": "<p id=\"stim\">3</p>", "internal_node_id": "0.0-60.0-7.0", "time_elapsed": 665936, "key_press": -1, "trial_index": 85}, "uniqueid": "MTK2701:3MRNMEIQW6DBCKBSA39I9MWC58NLDK", "dateTime": 1519240460306}, {"current_trial": 86, "trialdata": {"rt": -1, "trial_type": "single-stim", "stimulus": "<p id=\"stim\">2</p>", "internal_node_id": "0.0-60.0-8.0", "time_elapsed": 666938, "key_press": -1, "trial_index": 86}, "uniqueid": "MTK2701:3MRNMEIQW6DBCKBSA39I9MWC58NLDK", "dateTime": 1519240461309}, {"current_trial": 87, "trialdata": {"rt": -1, "trial_type": "single-stim", "stimulus": "<p id=\"stim\">1</p>", "internal_node_id": "0.0-60.0-9.0", "time_elapsed": 667941, "key_press": -1, "trial_index": 87}, "uniqueid": "MTK2701:3MRNMEIQW6DBCKBSA39I9MWC58NLDK", "dateTime": 1519240462311}, {"current_trial": 88, "trialdata": {"rt": -1, "trial_type": "single-stim", "stimulus": "<p id=\"stim\">+</p>", "internal_node_id": "0.0-61.0-0.0", "time_elapsed": 669444, "key_press": -1, "type": "FIXATION", "trial_index": 88}, "uniqueid": "MTK2701:3MRNMEIQW6DBCKBSA39I9MWC58NLDK", "dateTime": 1519240463814}, {"current_trial": 89, "trialdata": {"rt": -1, "trial_type": "single-stim", "word": "tourist", "stimulus": "<p id=\"stim\">TOURIST</p>", "conditions": [24, 1600, "v", 12000], "internal_node_id": "0.0-62.0", "trial": 2, "time_elapsed": 671046, "serialpos": 0, "key_press": -1, "wordID": 1487, "type": "PRES_VIS", "trial_index": 89}, "uniqueid": "MTK2701:3MRNMEIQW6DBCKBSA39I9MWC58NLDK", "dateTime": 1519240465416}, {"current_trial": 90, "trialdata": {"rt": -1, "trial_type": "single-stim", "word": "turtle", "stimulus": "<p id=\"stim\">TURTLE</p>", "conditions": [24, 1600, "v", 12000], "internal_node_id": "0.0-63.0", "trial": 2, "time_elapsed": 673514, "serialpos": 1, "key_press": -1, "wordID": 1521, "type": "PRES_VIS", "trial_index": 90}, "uniqueid": "MTK2701:3MRNMEIQW6DBCKBSA39I9MWC58NLDK", "dateTime": 1519240467884}, {"current_trial": 91, "trialdata": {"rt": -1, "trial_type": "single-stim", "word": "creature", "stimulus": "<p id=\"stim\">CREATURE</p>", "conditions": [24, 1600, "v", 12000], "internal_node_id": "0.0-64.0", "trial": 2, "time_elapsed": 676222, "serialpos": 2, "key_press": -1, "wordID": 402, "type": "PRES_VIS", "trial_index": 91}, "uniqueid": "MTK2701:3MRNMEIQW6DBCKBSA39I9MWC58NLDK", "dateTime": 1519240470592}, {"current_trial": 92, "trialdata": {"rt": -1, "trial_type": "single-stim", "word": "football", "stimulus": "<p id=\"stim\">FOOTBALL</p>", "conditions": [24, 1600, "v", 12000], "internal_node_id": "0.0-65.0", "trial": 2, "time_elapsed": 678700, "serialpos": 3, "key_press": -1, "wordID": 590, "type": "PRES_VIS", "trial_index": 92}, "uniqueid": "MTK2701:3MRNMEIQW6DBCKBSA39I9MWC58NLDK", "dateTime": 1519240473070}, {"current_trial": 93, "trialdata": {"rt": -1, "trial_type": "single-stim", "word": "basement", "stimulus": "<p id=\"stim\">BASEMENT</p>", "conditions": [24, 1600, "v", 12000], "internal_node_id": "0.0-66.0", "trial": 2, "time_elapsed": 681183, "serialpos": 4, "key_press": -1, "wordID": 93, "type": "PRES_VIS", "trial_index": 93}, "uniqueid": "MTK2701:3MRNMEIQW6DBCKBSA39I9MWC58NLDK", "dateTime": 1519240475553}, {"current_trial": 94, "trialdata": {"rt": -1, "trial_type": "single-stim", "word": "pilot", "stimulus": "<p id=\"stim\">PILOT</p>", "conditions": [24, 1600, "v", 12000], "internal_node_id": "0.0-67.0", "trial": 2, "time_elapsed": 683970, "serialpos": 5, "key_press": -1, "wordID": 1069, "type": "PRES_VIS", "trial_index": 94}, "uniqueid": "MTK2701:3MRNMEIQW6DBCKBSA39I9MWC58NLDK", "dateTime": 1519240478340}, {"current_trial": 95, "trialdata": {"rt": -1, "trial_type": "single-stim", "word": "salad", "stimulus": "<p id=\"stim\">SALAD</p>", "conditions": [24, 1600, "v", 12000], "internal_node_id": "0.0-68.0", "trial": 2, "time_elapsed": 686666, "serialpos": 6, "key_press": -1, "wordID": 1223, "type": "PRES_VIS", "trial_index": 95}, "uniqueid": "MTK2701:3MRNMEIQW6DBCKBSA39I9MWC58NLDK", "dateTime": 1519240481036}, {"current_trial": 96, "trialdata": {"rt": -1, "trial_type": "single-stim", "word": "patrol", "stimulus": "<p id=\"stim\">PATROL</p>", "conditions": [24, 1600, "v", 12000], "internal_node_id": "0.0-69.0", "trial": 2, "time_elapsed": 689219, "serialpos": 7, "key_press": -1, "wordID": 1026, "type": "PRES_VIS", "trial_index": 96}, "uniqueid": "MTK2701:3MRNMEIQW6DBCKBSA39I9MWC58NLDK", "dateTime": 1519240483589}, {"current_trial": 97, "trialdata": {"rt": -1, "trial_type": "single-stim", "word": "window", "stimulus": "<p id=\"stim\">WINDOW</p>", "conditions": [24, 1600, "v", 12000], "internal_node_id": "0.0-70.0", "trial": 2, "time_elapsed": 691948, "serialpos": 8, "key_press": -1, "wordID": 1610, "type": "PRES_VIS", "trial_index": 97}, "uniqueid": "MTK2701:3MRNMEIQW6DBCKBSA39I9MWC58NLDK", "dateTime": 1519240486319}, {"current_trial": 98, "trialdata": {"rt": -1, "trial_type": "single-stim", "word": "flower", "stimulus": "<p id=\"stim\">FLOWER</p>", "conditions": [24, 1600, "v", 12000], "internal_node_id": "0.0-71.0", "trial": 2, "time_elapsed": 694711, "serialpos": 9, "key_press": -1, "wordID": 583, "type": "PRES_VIS", "trial_index": 98}, "uniqueid": "MTK2701:3MRNMEIQW6DBCKBSA39I9MWC58NLDK", "dateTime": 1519240489081}, {"current_trial": 99, "trialdata": {"rt": -1, "trial_type": "single-stim", "word": "lettuce", "stimulus": "<p id=\"stim\">LETTUCE</p>", "conditions": [24, 1600, "v", 12000], "internal_node_id": "0.0-72.0", "trial": 2, "time_elapsed": 697437, "serialpos": 10, "key_press": -1, "wordID": 813, "type": "PRES_VIS", "trial_index": 99}, "uniqueid": "MTK2701:3MRNMEIQW6DBCKBSA39I9MWC58NLDK", "dateTime": 1519240491807}, {"current_trial": 100, "trialdata": {"rt": -1, "trial_type": "single-stim", "word": "mop", "stimulus": "<p id=\"stim\">MOP</p>", "conditions": [24, 1600, "v", 12000], "internal_node_id": "0.0-73.0", "trial": 2, "time_elapsed": 699863, "serialpos": 11, "key_press": -1, "wordID": 915, "type": "PRES_VIS", "trial_index": 100}, "uniqueid": "MTK2701:3MRNMEIQW6DBCKBSA39I9MWC58NLDK", "dateTime": 1519240494234}, {"current_trial": 101, "trialdata": {"rt": -1, "trial_type": "single-stim", "word": "puddle", "stimulus": "<p id=\"stim\">PUDDLE</p>", "conditions": [24, 1600, "v", 12000], "internal_node_id": "0.0-74.0", "trial": 2, "time_elapsed": 702291, "serialpos": 12, "key_press": -1, "wordID": 1139, "type": "PRES_VIS", "trial_index": 101}, "uniqueid": "MTK2701:3MRNMEIQW6DBCKBSA39I9MWC58NLDK", "dateTime": 1519240496661}, {"current_trial": 102, "trialdata": {"rt": -1, "trial_type": "single-stim", "word": "liver", "stimulus": "<p id=\"stim\">LIVER</p>", "conditions": [24, 1600, "v", 12000], "internal_node_id": "0.0-75.0", "trial": 2, "time_elapsed": 704738, "serialpos": 13, "key_press": -1, "wordID": 832, "type": "PRES_VIS", "trial_index": 102}, "uniqueid": "MTK2701:3MRNMEIQW6DBCKBSA39I9MWC58NLDK", "dateTime": 1519240499108}, {"current_trial": 103, "trialdata": {"rt": -1, "trial_type": "single-stim", "word": "cabbage", "stimulus": "<p id=\"stim\">CABBAGE</p>", "conditions": [24, 1600, "v", 12000], "internal_node_id": "0.0-76.0", "trial": 2, "time_elapsed": 707506, "serialpos": 14, "key_press": -1, "wordID": 209, "type": "PRES_VIS", "trial_index": 103}, "uniqueid": "MTK2701:3MRNMEIQW6DBCKBSA39I9MWC58NLDK", "dateTime": 1519240501876}, {"current_trial": 104, "trialdata": {"rt": -1, "trial_type": "single-stim", "word": "banker", "stimulus": "<p id=\"stim\">BANKER</p>", "conditions": [24, 1600, "v", 12000], "internal_node_id": "0.0-77.0", "trial": 2, "time_elapsed": 710042, "serialpos": 15, "key_press": -1, "wordID": 83, "type": "PRES_VIS", "trial_index": 104}, "uniqueid": "MTK2701:3MRNMEIQW6DBCKBSA39I9MWC58NLDK", "dateTime": 1519240504412}, {"current_trial": 105, "trialdata": {"rt": -1, "trial_type": "single-stim", "word": "pocket", "stimulus": "<p id=\"stim\">POCKET</p>", "conditions": [24, 1600, "v", 12000], "internal_node_id": "0.0-78.0", "trial": 2, "time_elapsed": 712808, "serialpos": 16, "key_press": -1, "wordID": 1092, "type": "PRES_VIS", "trial_index": 105}, "uniqueid": "MTK2701:3MRNMEIQW6DBCKBSA39I9MWC58NLDK", "dateTime": 1519240507178}, {"current_trial": 106, "trialdata": {"rt": -1, "trial_type": "single-stim", "word": "shelf", "stimulus": "<p id=\"stim\">SHELF</p>", "conditions": [24, 1600, "v", 12000], "internal_node_id": "0.0-79.0", "trial": 2, "time_elapsed": 715257, "serialpos": 17, "key_press": -1, "wordID": 1279, "type": "PRES_VIS", "trial_index": 106}, "uniqueid": "MTK2701:3MRNMEIQW6DBCKBSA39I9MWC58NLDK", "dateTime": 1519240509628}, {"current_trial": 107, "trialdata": {"rt": -1, "trial_type": "single-stim", "word": "flask", "stimulus": "<p id=\"stim\">FLASK</p>", "conditions": [24, 1600, "v", 12000], "internal_node_id": "0.0-80.0", "trial": 2, "time_elapsed": 717803, "serialpos": 18, "key_press": -1, "wordID": 575, "type": "PRES_VIS", "trial_index": 107}, "uniqueid": "MTK2701:3MRNMEIQW6DBCKBSA39I9MWC58NLDK", "dateTime": 1519240512173}, {"current_trial": 108, "trialdata": {"rt": -1, "trial_type": "single-stim", "word": "canyon", "stimulus": "<p id=\"stim\">CANYON</p>", "conditions": [24, 1600, "v", 12000], "internal_node_id": "0.0-81.0", "trial": 2, "time_elapsed": 720322, "serialpos": 19, "key_press": -1, "wordID": 234, "type": "PRES_VIS", "trial_index": 108}, "uniqueid": "MTK2701:3MRNMEIQW6DBCKBSA39I9MWC58NLDK", "dateTime": 1519240514693}, {"current_trial": 109, "trialdata": {"rt": -1, "trial_type": "single-stim", "word": "diner", "stimulus": "<p id=\"stim\">DINER</p>", "conditions": [24, 1600, "v", 12000], "internal_node_id": "0.0-82.0", "trial": 2, "time_elapsed": 723023, "serialpos": 20, "key_press": -1, "wordID": 466, "type": "PRES_VIS", "trial_index": 109}, "uniqueid": "MTK2701:3MRNMEIQW6DBCKBSA39I9MWC58NLDK", "dateTime": 1519240517393}, {"current_trial": 110, "trialdata": {"rt": -1, "trial_type": "single-stim", "word": "cafe", "stimulus": "<p id=\"stim\">CAFE</p>", "conditions": [24, 1600, "v", 12000], "internal_node_id": "0.0-83.0", "trial": 2, "time_elapsed": 725454, "serialpos": 21, "key_press": -1, "wordID": 215, "type": "PRES_VIS", "trial_index": 110}, "uniqueid": "MTK2701:3MRNMEIQW6DBCKBSA39I9MWC58NLDK", "dateTime": 1519240519824}, {"current_trial": 111, "trialdata": {"rt": -1, "trial_type": "single-stim", "word": "ground", "stimulus": "<p id=\"stim\">GROUND</p>", "conditions": [24, 1600, "v", 12000], "internal_node_id": "0.0-84.0", "trial": 2, "time_elapsed": 727968, "serialpos": 22, "key_press": -1, "wordID": 665, "type": "PRES_VIS", "trial_index": 111}, "uniqueid": "MTK2701:3MRNMEIQW6DBCKBSA39I9MWC58NLDK", "dateTime": 1519240522338}, {"current_trial": 112, "trialdata": {"rt": -1, "trial_type": "single-stim", "word": "valley", "stimulus": "<p id=\"stim\">VALLEY</p>", "conditions": [24, 1600, "v", 12000], "internal_node_id": "0.0-85.0", "trial": 2, "time_elapsed": 730651, "serialpos": 23, "key_press": -1, "wordID": 1544, "type": "PRES_VIS", "trial_index": 112}, "uniqueid": "MTK2701:3MRNMEIQW6DBCKBSA39I9MWC58NLDK", "dateTime": 1519240525021}, {"current_trial": 113, "trialdata": {"rt": -1, "trial_type": "single-stim", "stimulus": "", "internal_node_id": "0.0-86.0-0.0", "time_elapsed": 732905, "key_press": -1, "type": "PRE_RECALL_DELAY", "trial_index": 113}, "uniqueid": "MTK2701:3MRNMEIQW6DBCKBSA39I9MWC58NLDK", "dateTime": 1519240527275}, {"current_trial": 114, "trialdata": {"rt": -1000, "trial_type": "single-audio", "stimulus": "/static/audio/400Hz.wav", "internal_node_id": "0.0-87.0", "time_elapsed": 733409, "key_press": -1, "type": "PRE_RECALL_ALERT", "trial_index": 114}, "uniqueid": "MTK2701:3MRNMEIQW6DBCKBSA39I9MWC58NLDK", "dateTime": 1519240527779}, {"current_trial": 115, "trialdata": {"rt": [7194, 9826, 11122, 14314, 15273, 17690, 21818, 26098, 28370, 31290], "recwords": ["tourist", "pilot", "salad", "lettuce", "mop", "puddle", "cabbage", "valley", "cafe", "flask"], "key_times": [5813, 5924, 6045, 6532, 6644, 6747, 6826, 7194, 9097, 9244, 9395, 9611, 9716, 9826, 9980, 10097, 10235, 10635, 10860, 11122, 13276, 13371, 13499, 13651, 13771, 14011, 14243, 14314, 14619, 14763, 14963, 15273, 16635, 16819, 16987, 17123, 17227, 17539, 17690, 20604, 20804, 20956, 21132, 21300, 21436, 21637, 21818, 25253, 25388, 25484, 25644, 25756, 25868, 26098, 27388, 27900, 28012, 28156, 28370, 30588, 30700, 30901, 30972, 31044, 31290], "trial_type": "free-recall", "conditions": [24, 1600, "v", 12000], "internal_node_id": "0.0-88.0-0.0", "key_presses": [84, 79, 85, 82, 73, 83, 84, 13, 80, 73, 76, 79, 84, 13, 83, 65, 76, 65, 68, 13, 76, 69, 84, 84, 85, 67, 69, 13, 77, 79, 80, 13, 80, 85, 68, 68, 76, 69, 13, 67, 65, 66, 66, 65, 71, 69, 13, 86, 65, 76, 76, 69, 89, 13, 67, 65, 70, 69, 13, 70, 76, 65, 83, 75, 13], "trial": 2, "time_elapsed": 793414, "type": "FREE_RECALL", "trial_index": 115}, "uniqueid": "MTK2701:3MRNMEIQW6DBCKBSA39I9MWC58NLDK", "dateTime": 1519240587790}, {"current_trial": 116, "trialdata": {"rt": 1583, "trial_type": "text", "internal_node_id": "0.0-89.0", "time_elapsed": 797005, "key_press": 13, "type": "INSTRUCTIONS", "trial_index": 116}, "uniqueid": "MTK2701:3MRNMEIQW6DBCKBSA39I9MWC58NLDK", "dateTime": 1519240591375}, {"current_trial": 117, "trialdata": {"rt": [3660, 6572, 8836, 11037, 13542, 15862, 17862, 19662, 21686, 23374], "trial_type": "math-distractor", "key_times": [3264, 3470, 3660, 5982, 6214, 6572, 8383, 8526, 8836, 10686, 10806, 11037, 13160, 13375, 13542, 15431, 15568, 15862, 17416, 17560, 17862, 19416, 19662, 21303, 21471, 21686, 23064, 23374], "responses": ["21", "19", "18", "16", "20", "19", "19", "8", "14", "8"], "num2": [9, 7, 7, 9, 7, 7, 4, 2, 4, 6, 9], "num3": [9, 7, 2, 4, 7, 5, 8, 5, 7, 1, 9], "conditions": [12, 1600, "v", 24000], "internal_node_id": "0.0-90.0", "key_presses": [98, 97, 13, 97, 105, 13, 97, 104, 13, 97, 102, 13, 98, 96, 13, 97, 105, 13, 97, 105, 13, 104, 13, 97, 100, 13, 104, 13], "trial": 3, "time_elapsed": 823013, "type": "DISTRACTOR", "trial_index": 117, "num1": [3, 5, 9, 3, 6, 7, 7, 1, 3, 1, 1]}, "uniqueid": "MTK2701:3MRNMEIQW6DBCKBSA39I9MWC58NLDK", "dateTime": 1519240617383}, {"current_trial": 118, "trialdata": {"rt": -1, "trial_type": "single-stim", "stimulus": "<p id=\"stim\">10</p>", "internal_node_id": "0.0-91.0-0.0", "time_elapsed": 826017, "key_press": -1, "trial_index": 118}, "uniqueid": "MTK2701:3MRNMEIQW6DBCKBSA39I9MWC58NLDK", "dateTime": 1519240620387}, {"current_trial": 119, "trialdata": {"rt": -1, "trial_type": "single-stim", "stimulus": "<p id=\"stim\">9</p>", "internal_node_id": "0.0-91.0-1.0", "time_elapsed": 827021, "key_press": -1, "trial_index": 119}, "uniqueid": "MTK2701:3MRNMEIQW6DBCKBSA39I9MWC58NLDK", "dateTime": 1519240621391}, {"current_trial": 120, "trialdata": {"rt": -1, "trial_type": "single-stim", "stimulus": "<p id=\"stim\">8</p>", "internal_node_id": "0.0-91.0-2.0", "time_elapsed": 828023, "key_press": -1, "trial_index": 120}, "uniqueid": "MTK2701:3MRNMEIQW6DBCKBSA39I9MWC58NLDK", "dateTime": 1519240622393}, {"current_trial": 121, "trialdata": {"rt": -1, "trial_type": "single-stim", "stimulus": "<p id=\"stim\">7</p>", "internal_node_id": "0.0-91.0-3.0", "time_elapsed": 829026, "key_press": -1, "trial_index": 121}, "uniqueid": "MTK2701:3MRNMEIQW6DBCKBSA39I9MWC58NLDK", "dateTime": 1519240623396}, {"current_trial": 122, "trialdata": {"rt": -1, "trial_type": "single-stim", "stimulus": "<p id=\"stim\">6</p>", "internal_node_id": "0.0-91.0-4.0", "time_elapsed": 830029, "key_press": -1, "trial_index": 122}, "uniqueid": "MTK2701:3MRNMEIQW6DBCKBSA39I9MWC58NLDK", "dateTime": 1519240624399}, {"current_trial": 123, "trialdata": {"rt": -1, "trial_type": "single-stim", "stimulus": "<p id=\"stim\">5</p>", "internal_node_id": "0.0-91.0-5.0", "time_elapsed": 831033, "key_press": -1, "trial_index": 123}, "uniqueid": "MTK2701:3MRNMEIQW6DBCKBSA39I9MWC58NLDK", "dateTime": 1519240625403}, {"current_trial": 124, "trialdata": {"rt": -1, "trial_type": "single-stim", "stimulus": "<p id=\"stim\">4</p>", "internal_node_id": "0.0-91.0-6.0", "time_elapsed": 832035, "key_press": -1, "trial_index": 124}, "uniqueid": "MTK2701:3MRNMEIQW6DBCKBSA39I9MWC58NLDK", "dateTime": 1519240626406}, {"current_trial": 125, "trialdata": {"rt": -1, "trial_type": "single-stim", "stimulus": "<p id=\"stim\">3</p>", "internal_node_id": "0.0-91.0-7.0", "time_elapsed": 833038, "key_press": -1, "trial_index": 125}, "uniqueid": "MTK2701:3MRNMEIQW6DBCKBSA39I9MWC58NLDK", "dateTime": 1519240627408}, {"current_trial": 126, "trialdata": {"rt": -1, "trial_type": "single-stim", "stimulus": "<p id=\"stim\">2</p>", "internal_node_id": "0.0-91.0-8.0", "time_elapsed": 834040, "key_press": -1, "trial_index": 126}, "uniqueid": "MTK2701:3MRNMEIQW6DBCKBSA39I9MWC58NLDK", "dateTime": 1519240628411}, {"current_trial": 127, "trialdata": {"rt": -1, "trial_type": "single-stim", "stimulus": "<p id=\"stim\">1</p>", "internal_node_id": "0.0-91.0-9.0", "time_elapsed": 835043, "key_press": -1, "trial_index": 127}, "uniqueid": "MTK2701:3MRNMEIQW6DBCKBSA39I9MWC58NLDK", "dateTime": 1519240629413}, {"current_trial": 128, "trialdata": {"rt": -1, "trial_type": "single-stim", "stimulus": "<p id=\"stim\">+</p>", "internal_node_id": "0.0-92.0-0.0", "time_elapsed": 836546, "key_press": -1, "type": "FIXATION", "trial_index": 128}, "uniqueid": "MTK2701:3MRNMEIQW6DBCKBSA39I9MWC58NLDK", "dateTime": 1519240630916}, {"current_trial": 129, "trialdata": {"rt": -1, "trial_type": "single-stim", "word": "husband", "stimulus": "<p id=\"stim\">HUSBAND</p>", "conditions": [12, 1600, "v", 24000], "internal_node_id": "0.0-93.0", "trial": 3, "time_elapsed": 838148, "serialpos": 0, "key_press": -1, "wordID": 727, "type": "PRES_VIS", "trial_index": 129}, "uniqueid": "MTK2701:3MRNMEIQW6DBCKBSA39I9MWC58NLDK", "dateTime": 1519240632519}, {"current_trial": 130, "trialdata": {"rt": -1, "trial_type": "single-stim", "word": "necklace", "stimulus": "<p id=\"stim\">NECKLACE</p>", "conditions": [12, 1600, "v", 24000], "internal_node_id": "0.0-94.0", "trial": 3, "time_elapsed": 840799, "serialpos": 1, "key_press": -1, "wordID": 939, "type": "PRES_VIS", "trial_index": 130}, "uniqueid": "MTK2701:3MRNMEIQW6DBCKBSA39I9MWC58NLDK", "dateTime": 1519240635169}, {"current_trial": 131, "trialdata": {"rt": -1, "trial_type": "single-stim", "word": "bullet", "stimulus": "<p id=\"stim\">BULLET</p>", "conditions": [12, 1600, "v", 24000], "internal_node_id": "0.0-95.0", "trial": 3, "time_elapsed": 843389, "serialpos": 2, "key_press": -1, "wordID": 193, "type": "PRES_VIS", "trial_index": 131}, "uniqueid": "MTK2701:3MRNMEIQW6DBCKBSA39I9MWC58NLDK", "dateTime": 1519240637760}, {"current_trial": 132, "trialdata": {"rt": -1, "trial_type": "single-stim", "word": "cook", "stimulus": "<p id=\"stim\">COOK</p>", "conditions": [12, 1600, "v", 24000], "internal_node_id": "0.0-96.0", "trial": 3, "time_elapsed": 846173, "serialpos": 3, "key_press": -1, "wordID": 371, "type": "PRES_VIS", "trial_index": 132}, "uniqueid": "MTK2701:3MRNMEIQW6DBCKBSA39I9MWC58NLDK", "dateTime": 1519240640543}, {"current_trial": 133, "trialdata": {"rt": -1, "trial_type": "single-stim", "word": "island", "stimulus": "<p id=\"stim\">ISLAND</p>", "conditions": [12, 1600, "v", 24000], "internal_node_id": "0.0-97.0", "trial": 3, "time_elapsed": 848824, "serialpos": 4, "key_press": -1, "wordID": 744, "type": "PRES_VIS", "trial_index": 133}, "uniqueid": "MTK2701:3MRNMEIQW6DBCKBSA39I9MWC58NLDK", "dateTime": 1519240643195}, {"current_trial": 134, "trialdata": {"rt": -1, "trial_type": "single-stim", "word": "france", "stimulus": "<p id=\"stim\">FRANCE</p>", "conditions": [12, 1600, "v", 24000], "internal_node_id": "0.0-98.0", "trial": 3, "time_elapsed": 851486, "serialpos": 5, "key_press": -1, "wordID": 600, "type": "PRES_VIS", "trial_index": 134}, "uniqueid": "MTK2701:3MRNMEIQW6DBCKBSA39I9MWC58NLDK", "dateTime": 1519240645856}, {"current_trial": 135, "trialdata": {"rt": -1, "trial_type": "single-stim", "word": "rug", "stimulus": "<p id=\"stim\">RUG</p>", "conditions": [12, 1600, "v", 24000], "internal_node_id": "0.0-99.0", "trial": 3, "time_elapsed": 853954, "serialpos": 6, "key_press": -1, "wordID": 1214, "type": "PRES_VIS", "trial_index": 135}, "uniqueid": "MTK2701:3MRNMEIQW6DBCKBSA39I9MWC58NLDK", "dateTime": 1519240648324}, {"current_trial": 136, "trialdata": {"rt": -1, "trial_type": "single-stim", "word": "parsley", "stimulus": "<p id=\"stim\">PARSLEY</p>", "conditions": [12, 1600, "v", 24000], "internal_node_id": "0.0-100.0", "trial": 3, "time_elapsed": 856653, "serialpos": 7, "key_press": -1, "wordID": 1015, "type": "PRES_VIS", "trial_index": 136}, "uniqueid": "MTK2701:3MRNMEIQW6DBCKBSA39I9MWC58NLDK", "dateTime": 1519240651023}, {"current_trial": 137, "trialdata": {"rt": -1, "trial_type": "single-stim", "word": "jury", "stimulus": "<p id=\"stim\">JURY</p>", "conditions": [12, 1600, "v", 24000], "internal_node_id": "0.0-101.0", "trial": 3, "time_elapsed": 859389, "serialpos": 8, "key_press": -1, "wordID": 765, "type": "PRES_VIS", "trial_index": 137}, "uniqueid": "MTK2701:3MRNMEIQW6DBCKBSA39I9MWC58NLDK", "dateTime": 1519240653759}, {"current_trial": 138, "trialdata": {"rt": -1, "trial_type": "single-stim", "word": "judge", "stimulus": "<p id=\"stim\">JUDGE</p>", "conditions": [12, 1600, "v", 24000], "internal_node_id": "0.0-102.0", "trial": 3, "time_elapsed": 862034, "serialpos": 9, "key_press": -1, "wordID": 760, "type": "PRES_VIS", "trial_index": 138}, "uniqueid": "MTK2701:3MRNMEIQW6DBCKBSA39I9MWC58NLDK", "dateTime": 1519240656404}, {"current_trial": 139, "trialdata": {"rt": -1, "trial_type": "single-stim", "word": "kitchen", "stimulus": "<p id=\"stim\">KITCHEN</p>", "conditions": [12, 1600, "v", 24000], "internal_node_id": "0.0-103.0", "trial": 3, "time_elapsed": 864581, "serialpos": 10, "key_press": -1, "wordID": 777, "type": "PRES_VIS", "trial_index": 139}, "uniqueid": "MTK2701:3MRNMEIQW6DBCKBSA39I9MWC58NLDK", "dateTime": 1519240658952}, {"current_trial": 140, "trialdata": {"rt": -1, "trial_type": "single-stim", "word": "lake", "stimulus": "<p id=\"stim\">LAKE</p>", "conditions": [12, 1600, "v", 24000], "internal_node_id": "0.0-104.0", "trial": 3, "time_elapsed": 866985, "serialpos": 11, "key_press": -1, "wordID": 795, "type": "PRES_VIS", "trial_index": 140}, "uniqueid": "MTK2701:3MRNMEIQW6DBCKBSA39I9MWC58NLDK", "dateTime": 1519240661355}, {"current_trial": 141, "trialdata": {"rt": -1, "trial_type": "single-stim", "stimulus": "", "internal_node_id": "0.0-105.0-0.0", "time_elapsed": 869195, "key_press": -1, "type": "PRE_RECALL_DELAY", "trial_index": 141}, "uniqueid": "MTK2701:3MRNMEIQW6DBCKBSA39I9MWC58NLDK", "dateTime": 1519240663566}, {"current_trial": 142, "trialdata": {"rt": -1000, "trial_type": "single-audio", "stimulus": "/static/audio/400Hz.wav", "internal_node_id": "0.0-106.0", "time_elapsed": 869707, "key_press": -1, "type": "PRE_RECALL_ALERT", "trial_index": 142}, "uniqueid": "MTK2701:3MRNMEIQW6DBCKBSA39I9MWC58NLDK", "dateTime": 1519240664077}, {"current_trial": 143, "trialdata": {"rt": [3497, 6057, 7257, 8953, 11401, 13289, 15153, 17201], "recwords": ["husband", "necklace", "cook", "bullet", "rug", "jury", "judge", "lake"], "key_times": [2651, 2835, 2931, 3092, 3178, 3266, 3394, 3497, 4730, 4858, 5155, 5217, 5338, 5482, 5731, 5955, 6057, 6706, 6763, 6922, 7051, 7257, 8018, 8083, 8218, 8378, 8490, 8611, 8953, 10986, 11148, 11290, 11401, 12536, 12828, 12986, 13066, 13289, 13570, 13755, 13759, 13898, 14338, 14515, 14611, 14771, 14907, 15153, 16715, 16874, 16969, 17106, 17201], "trial_type": "free-recall", "conditions": [12, 1600, "v", 24000], "internal_node_id": "0.0-107.0-0.0", "key_presses": [72, 85, 83, 66, 65, 78, 68, 13, 78, 69, 67, 75, 76, 65, 67, 69, 13, 67, 79, 79, 75, 13, 66, 85, 76, 76, 69, 84, 13, 82, 85, 71, 13, 74, 85, 82, 89, 13, 74, 85, 73, 68, 8, 8, 68, 71, 69, 13, 76, 65, 75, 69, 13], "trial": 3, "time_elapsed": 929714, "type": "FREE_RECALL", "trial_index": 143}, "uniqueid": "MTK2701:3MRNMEIQW6DBCKBSA39I9MWC58NLDK", "dateTime": 1519240724091}, {"current_trial": 144, "trialdata": {"rt": 1158, "trial_type": "text", "internal_node_id": "0.0-108.0", "time_elapsed": 932881, "key_press": 13, "type": "INSTRUCTIONS", "trial_index": 144}, "uniqueid": "MTK2701:3MRNMEIQW6DBCKBSA39I9MWC58NLDK", "dateTime": 1519240727251}, {"current_trial": 145, "trialdata": {"rt": [2323, 4283, 6962, 8771, 10571, 13100, 15403, 17419, 20499, 22379], "trial_type": "math-distractor", "key_times": [1839, 2069, 2323, 3925, 4101, 4283, 6661, 6812, 6962, 8413, 8588, 8771, 10213, 10389, 10571, 12789, 12949, 13100, 14957, 15188, 15403, 16948, 17181, 17419, 20157, 20277, 20499, 21957, 22157, 22379], "responses": ["17", "13", "22", "10", "10", "22", "17", "17", "23", "17"], "num2": [2, 9, 9, 2, 4, 8, 3, 7, 6, 4, 6], "num3": [8, 2, 9, 1, 5, 5, 5, 5, 9, 6, 7], "conditions": [12, 800, "v", 24000], "internal_node_id": "0.0-109.0", "key_presses": [97, 103, 13, 97, 99, 13, 98, 98, 13, 97, 96, 13, 97, 96, 13, 98, 98, 13, 97, 103, 13, 97, 103, 13, 98, 99, 13, 97, 103, 13], "trial": 4, "time_elapsed": 958888, "type": "DISTRACTOR", "trial_index": 145, "num1": [7, 2, 4, 7, 1, 9, 9, 5, 8, 7, 4]}, "uniqueid": "MTK2701:3MRNMEIQW6DBCKBSA39I9MWC58NLDK", "dateTime": 1519240753258}, {"current_trial": 146, "trialdata": {"rt": -1, "trial_type": "single-stim", "stimulus": "<p id=\"stim\">10</p>", "internal_node_id": "0.0-110.0-0.0", "time_elapsed": 961893, "key_press": -1, "trial_index": 146}, "uniqueid": "MTK2701:3MRNMEIQW6DBCKBSA39I9MWC58NLDK", "dateTime": 1519240756263}, {"current_trial": 147, "trialdata": {"rt": -1, "trial_type": "single-stim", "stimulus": "<p id=\"stim\">9</p>", "internal_node_id": "0.0-110.0-1.0", "time_elapsed": 962897, "key_press": -1, "trial_index": 147}, "uniqueid": "MTK2701:3MRNMEIQW6DBCKBSA39I9MWC58NLDK", "dateTime": 1519240757267}, {"current_trial": 148, "trialdata": {"rt": -1, "trial_type": "single-stim", "stimulus": "<p id=\"stim\">8</p>", "internal_node_id": "0.0-110.0-2.0", "time_elapsed": 963899, "key_press": -1, "trial_index": 148}, "uniqueid": "MTK2701:3MRNMEIQW6DBCKBSA39I9MWC58NLDK", "dateTime": 1519240758269}, {"current_trial": 149, "trialdata": {"rt": -1, "trial_type": "single-stim", "stimulus": "<p id=\"stim\">7</p>", "internal_node_id": "0.0-110.0-3.0", "time_elapsed": 964901, "key_press": -1, "trial_index": 149}, "uniqueid": "MTK2701:3MRNMEIQW6DBCKBSA39I9MWC58NLDK", "dateTime": 1519240759272}, {"current_trial": 150, "trialdata": {"rt": -1, "trial_type": "single-stim", "stimulus": "<p id=\"stim\">6</p>", "internal_node_id": "0.0-110.0-4.0", "time_elapsed": 965904, "key_press": -1, "trial_index": 150}, "uniqueid": "MTK2701:3MRNMEIQW6DBCKBSA39I9MWC58NLDK", "dateTime": 1519240760274}, {"current_trial": 151, "trialdata": {"rt": -1, "trial_type": "single-stim", "stimulus": "<p id=\"stim\">5</p>", "internal_node_id": "0.0-110.0-5.0", "time_elapsed": 966907, "key_press": -1, "trial_index": 151}, "uniqueid": "MTK2701:3MRNMEIQW6DBCKBSA39I9MWC58NLDK", "dateTime": 1519240761277}, {"current_trial": 152, "trialdata": {"rt": -1, "trial_type": "single-stim", "stimulus": "<p id=\"stim\">4</p>", "internal_node_id": "0.0-110.0-6.0", "time_elapsed": 967910, "key_press": -1, "trial_index": 152}, "uniqueid": "MTK2701:3MRNMEIQW6DBCKBSA39I9MWC58NLDK", "dateTime": 1519240762281}, {"current_trial": 153, "trialdata": {"rt": -1, "trial_type": "single-stim", "stimulus": "<p id=\"stim\">3</p>", "internal_node_id": "0.0-110.0-7.0", "time_elapsed": 968913, "key_press": -1, "trial_index": 153}, "uniqueid": "MTK2701:3MRNMEIQW6DBCKBSA39I9MWC58NLDK", "dateTime": 1519240763283}, {"current_trial": 154, "trialdata": {"rt": -1, "trial_type": "single-stim", "stimulus": "<p id=\"stim\">2</p>", "internal_node_id": "0.0-110.0-8.0", "time_elapsed": 969915, "key_press": -1, "trial_index": 154}, "uniqueid": "MTK2701:3MRNMEIQW6DBCKBSA39I9MWC58NLDK", "dateTime": 1519240764286}, {"current_trial": 155, "trialdata": {"rt": -1, "trial_type": "single-stim", "stimulus": "<p id=\"stim\">1</p>", "internal_node_id": "0.0-110.0-9.0", "time_elapsed": 970917, "key_press": -1, "trial_index": 155}, "uniqueid": "MTK2701:3MRNMEIQW6DBCKBSA39I9MWC58NLDK", "dateTime": 1519240765288}, {"current_trial": 156, "trialdata": {"rt": -1, "trial_type": "single-stim", "stimulus": "<p id=\"stim\">+</p>", "internal_node_id": "0.0-111.0-0.0", "time_elapsed": 972420, "key_press": -1, "type": "FIXATION", "trial_index": 156}, "uniqueid": "MTK2701:3MRNMEIQW6DBCKBSA39I9MWC58NLDK", "dateTime": 1519240766790}, {"current_trial": 157, "trialdata": {"rt": -1, "trial_type": "single-stim", "word": "yacht", "stimulus": "<p id=\"stim\">YACHT</p>", "conditions": [12, 800, "v", 24000], "internal_node_id": "0.0-112.0", "trial": 4, "time_elapsed": 973222, "serialpos": 0, "key_press": -1, "wordID": 1628, "type": "PRES_VIS", "trial_index": 157}, "uniqueid": "MTK2701:3MRNMEIQW6DBCKBSA39I9MWC58NLDK", "dateTime": 1519240767592}, {"current_trial": 158, "trialdata": {"rt": -1, "trial_type": "single-stim", "word": "virus", "stimulus": "<p id=\"stim\">VIRUS</p>", "conditions": [12, 800, "v", 24000], "internal_node_id": "0.0-113.0", "trial": 4, "time_elapsed": 974930, "serialpos": 1, "key_press": -1, "wordID": 1571, "type": "PRES_VIS", "trial_index": 158}, "uniqueid": "MTK2701:3MRNMEIQW6DBCKBSA39I9MWC58NLDK", "dateTime": 1519240769300}, {"current_trial": 159, "trialdata": {"rt": -1, "trial_type": "single-stim", "word": "church", "stimulus": "<p id=\"stim\">CHURCH</p>", "conditions": [12, 800, "v", 24000], "internal_node_id": "0.0-114.0", "trial": 4, "time_elapsed": 976726, "serialpos": 2, "key_press": -1, "wordID": 306, "type": "PRES_VIS", "trial_index": 159}, "uniqueid": "MTK2701:3MRNMEIQW6DBCKBSA39I9MWC58NLDK", "dateTime": 1519240771097}, {"current_trial": 160, "trialdata": {"rt": -1, "trial_type": "single-stim", "word": "wife", "stimulus": "<p id=\"stim\">WIFE</p>", "conditions": [12, 800, "v", 24000], "internal_node_id": "0.0-115.0", "trial": 4, "time_elapsed": 978426, "serialpos": 3, "key_press": -1, "wordID": 1608, "type": "PRES_VIS", "trial_index": 160}, "uniqueid": "MTK2701:3MRNMEIQW6DBCKBSA39I9MWC58NLDK", "dateTime": 1519240772796}, {"current_trial": 161, "trialdata": {"rt": -1, "trial_type": "single-stim", "word": "poison", "stimulus": "<p id=\"stim\">POISON</p>", "conditions": [12, 800, "v", 24000], "internal_node_id": "0.0-116.0", "trial": 4, "time_elapsed": 980420, "serialpos": 4, "key_press": -1, "wordID": 1095, "type": "PRES_VIS", "trial_index": 161}, "uniqueid": "MTK2701:3MRNMEIQW6DBCKBSA39I9MWC58NLDK", "dateTime": 1519240774790}, {"current_trial": 162, "trialdata": {"rt": -1, "trial_type": "single-stim", "word": "wardrobe", "stimulus": "<p id=\"stim\">WARDROBE</p>", "conditions": [12, 800, "v", 24000], "internal_node_id": "0.0-117.0", "trial": 4, "time_elapsed": 982340, "serialpos": 5, "key_press": -1, "wordID": 1586, "type": "PRES_VIS", "trial_index": 162}, "uniqueid": "MTK2701:3MRNMEIQW6DBCKBSA39I9MWC58NLDK", "dateTime": 1519240776710}, {"current_trial": 163, "trialdata": {"rt": -1, "trial_type": "single-stim", "word": "braces", "stimulus": "<p id=\"stim\">BRACES</p>", "conditions": [12, 800, "v", 24000], "internal_node_id": "0.0-118.0", "trial": 4, "time_elapsed": 984283, "serialpos": 6, "key_press": -1, "wordID": 163, "type": "PRES_VIS", "trial_index": 163}, "uniqueid": "MTK2701:3MRNMEIQW6DBCKBSA39I9MWC58NLDK", "dateTime": 1519240778653}, {"current_trial": 164, "trialdata": {"rt": -1, "trial_type": "single-stim", "word": "flesh", "stimulus": "<p id=\"stim\">FLESH</p>", "conditions": [12, 800, "v", 24000], "internal_node_id": "0.0-119.0", "trial": 4, "time_elapsed": 985973, "serialpos": 7, "key_press": -1, "wordID": 578, "type": "PRES_VIS", "trial_index": 164}, "uniqueid": "MTK2701:3MRNMEIQW6DBCKBSA39I9MWC58NLDK", "dateTime": 1519240780343}, {"current_trial": 165, "trialdata": {"rt": -1, "trial_type": "single-stim", "word": "bug", "stimulus": "<p id=\"stim\">BUG</p>", "conditions": [12, 800, "v", 24000], "internal_node_id": "0.0-120.0", "trial": 4, "time_elapsed": 987916, "serialpos": 8, "key_press": -1, "wordID": 186, "type": "PRES_VIS", "trial_index": 165}, "uniqueid": "MTK2701:3MRNMEIQW6DBCKBSA39I9MWC58NLDK", "dateTime": 1519240782286}, {"current_trial": 166, "trialdata": {"rt": -1, "trial_type": "single-stim", "word": "cocoon", "stimulus": "<p id=\"stim\">COCOON</p>", "conditions": [12, 800, "v", 24000], "internal_node_id": "0.0-121.0", "trial": 4, "time_elapsed": 989680, "serialpos": 9, "key_press": -1, "wordID": 338, "type": "PRES_VIS", "trial_index": 166}, "uniqueid": "MTK2701:3MRNMEIQW6DBCKBSA39I9MWC58NLDK", "dateTime": 1519240784051}, {"current_trial": 167, "trialdata": {"rt": -1, "trial_type": "single-stim", "word": "wasp", "stimulus": "<p id=\"stim\">WASP</p>", "conditions": [12, 800, "v", 24000], "internal_node_id": "0.0-122.0", "trial": 4, "time_elapsed": 991573, "serialpos": 10, "key_press": -1, "wordID": 1592, "type": "PRES_VIS", "trial_index": 167}, "uniqueid": "MTK2701:3MRNMEIQW6DBCKBSA39I9MWC58NLDK", "dateTime": 1519240785943}, {"current_trial": 168, "trialdata": {"rt": -1, "trial_type": "single-stim", "word": "hornet", "stimulus": "<p id=\"stim\">HORNET</p>", "conditions": [12, 800, "v", 24000], "internal_node_id": "0.0-123.0", "trial": 4, "time_elapsed": 993401, "serialpos": 11, "key_press": -1, "wordID": 717, "type": "PRES_VIS", "trial_index": 168}, "uniqueid": "MTK2701:3MRNMEIQW6DBCKBSA39I9MWC58NLDK", "dateTime": 1519240787771}, {"current_trial": 169, "trialdata": {"rt": -1, "trial_type": "single-stim", "stimulus": "", "internal_node_id": "0.0-124.0-0.0", "time_elapsed": 995453, "key_press": -1, "type": "PRE_RECALL_DELAY", "trial_index": 169}, "uniqueid": "MTK2701:3MRNMEIQW6DBCKBSA39I9MWC58NLDK", "dateTime": 1519240789826}, {"current_trial": 170, "trialdata": {"rt": -1000, "trial_type": "single-audio", "stimulus": "/static/audio/400Hz.wav", "internal_node_id": "0.0-125.0", "time_elapsed": 995958, "key_press": -1, "type": "PRE_RECALL_ALERT", "trial_index": 170}, "uniqueid": "MTK2701:3MRNMEIQW6DBCKBSA39I9MWC58NLDK", "dateTime": 1519240790329}, {"current_trial": 171, "trialdata": {"rt": [3416, 4536, 8248, 12480, 14472, 16080], "recwords": ["yacht", "virus", "wife", "flesh", "bug", "cocoon"], "key_times": [2360, 2498, 2690, 3050, 3242, 3416, 3898, 3962, 4122, 4202, 4339, 4536, 6698, 6866, 7322, 7497, 7626, 7698, 7899, 8083, 8248, 10298, 10434, 10619, 10778, 10906, 11593, 11746, 12122, 12233, 12480, 14058, 14179, 14323, 14472, 15122, 15211, 15378, 15434, 15610, 15778, 16080], "trial_type": "free-recall", "conditions": [12, 800, "v", 24000], "internal_node_id": "0.0-126.0-0.0", "key_presses": [89, 65, 67, 72, 84, 13, 86, 73, 82, 85, 83, 13, 73, 87, 8, 8, 87, 73, 70, 69, 13, 70, 76, 69, 72, 83, 8, 8, 83, 72, 13, 66, 85, 71, 13, 67, 79, 67, 79, 79, 78, 13], "trial": 4, "time_elapsed": 1055965, "type": "FREE_RECALL", "trial_index": 171}, "uniqueid": "MTK2701:3MRNMEIQW6DBCKBSA39I9MWC58NLDK", "dateTime": 1519240850342}, {"current_trial": 172, "trialdata": {"rt": 1117, "trial_type": "text", "internal_node_id": "0.0-127.0", "time_elapsed": 1059091, "key_press": 13, "type": "INSTRUCTIONS", "trial_index": 172}, "uniqueid": "MTK2701:3MRNMEIQW6DBCKBSA39I9MWC58NLDK", "dateTime": 1519240853461}, {"current_trial": 173, "trialdata": {"rt": [2173, 4708, 6484, 7956, 10572], "trial_type": "math-distractor", "key_times": [1790, 1998, 2173, 4358, 4478, 4708, 6149, 6262, 6484, 7710, 7956, 10206, 10374, 10572], "responses": ["20", "15", "12", "8", "14"], "num2": [8, 8, 4, 3, 9, 5], "num3": [9, 4, 7, 4, 3, 4], "conditions": [12, 800, "v", 12000], "internal_node_id": "0.0-128.0", "key_presses": [98, 96, 13, 97, 101, 13, 97, 98, 13, 104, 13, 97, 100, 13], "trial": 5, "time_elapsed": 1073098, "type": "DISTRACTOR", "trial_index": 173, "num1": [3, 3, 1, 1, 2, 2]}, "uniqueid": "MTK2701:3MRNMEIQW6DBCKBSA39I9MWC58NLDK", "dateTime": 1519240867469}, {"current_trial": 174, "trialdata": {"rt": -1, "trial_type": "single-stim", "stimulus": "<p id=\"stim\">10</p>", "internal_node_id": "0.0-129.0-0.0", "time_elapsed": 1076101, "key_press": -1, "trial_index": 174}, "uniqueid": "MTK2701:3MRNMEIQW6DBCKBSA39I9MWC58NLDK", "dateTime": 1519240870471}, {"current_trial": 175, "trialdata": {"rt": -1, "trial_type": "single-stim", "stimulus": "<p id=\"stim\">9</p>", "internal_node_id": "0.0-129.0-1.0", "time_elapsed": 1077103, "key_press": -1, "trial_index": 175}, "uniqueid": "MTK2701:3MRNMEIQW6DBCKBSA39I9MWC58NLDK", "dateTime": 1519240871473}, {"current_trial": 176, "trialdata": {"rt": -1, "trial_type": "single-stim", "stimulus": "<p id=\"stim\">8</p>", "internal_node_id": "0.0-129.0-2.0", "time_elapsed": 1078106, "key_press": -1, "trial_index": 176}, "uniqueid": "MTK2701:3MRNMEIQW6DBCKBSA39I9MWC58NLDK", "dateTime": 1519240872476}, {"current_trial": 177, "trialdata": {"rt": -1, "trial_type": "single-stim", "stimulus": "<p id=\"stim\">7</p>", "internal_node_id": "0.0-129.0-3.0", "time_elapsed": 1079109, "key_press": -1, "trial_index": 177}, "uniqueid": "MTK2701:3MRNMEIQW6DBCKBSA39I9MWC58NLDK", "dateTime": 1519240873479}, {"current_trial": 178, "trialdata": {"rt": -1, "trial_type": "single-stim", "stimulus": "<p id=\"stim\">6</p>", "internal_node_id": "0.0-129.0-4.0", "time_elapsed": 1080112, "key_press": -1, "trial_index": 178}, "uniqueid": "MTK2701:3MRNMEIQW6DBCKBSA39I9MWC58NLDK", "dateTime": 1519240874482}, {"current_trial": 179, "trialdata": {"rt": -1, "trial_type": "single-stim", "stimulus": "<p id=\"stim\">5</p>", "internal_node_id": "0.0-129.0-5.0", "time_elapsed": 1081115, "key_press": -1, "trial_index": 179}, "uniqueid": "MTK2701:3MRNMEIQW6DBCKBSA39I9MWC58NLDK", "dateTime": 1519240875485}, {"current_trial": 180, "trialdata": {"rt": -1, "trial_type": "single-stim", "stimulus": "<p id=\"stim\">4</p>", "internal_node_id": "0.0-129.0-6.0", "time_elapsed": 1082117, "key_press": -1, "trial_index": 180}, "uniqueid": "MTK2701:3MRNMEIQW6DBCKBSA39I9MWC58NLDK", "dateTime": 1519240876489}, {"current_trial": 181, "trialdata": {"rt": -1, "trial_type": "single-stim", "stimulus": "<p id=\"stim\">3</p>", "internal_node_id": "0.0-129.0-7.0", "time_elapsed": 1083122, "key_press": -1, "trial_index": 181}, "uniqueid": "MTK2701:3MRNMEIQW6DBCKBSA39I9MWC58NLDK", "dateTime": 1519240877492}, {"current_trial": 182, "trialdata": {"rt": -1, "trial_type": "single-stim", "stimulus": "<p id=\"stim\">2</p>", "internal_node_id": "0.0-129.0-8.0", "time_elapsed": 1084124, "key_press": -1, "trial_index": 182}, "uniqueid": "MTK2701:3MRNMEIQW6DBCKBSA39I9MWC58NLDK", "dateTime": 1519240878494}, {"current_trial": 183, "trialdata": {"rt": -1, "trial_type": "single-stim", "stimulus": "<p id=\"stim\">1</p>", "internal_node_id": "0.0-129.0-9.0", "time_elapsed": 1085126, "key_press": -1, "trial_index": 183}, "uniqueid": "MTK2701:3MRNMEIQW6DBCKBSA39I9MWC58NLDK", "dateTime": 1519240879497}, {"current_trial": 184, "trialdata": {"rt": -1, "trial_type": "single-stim", "stimulus": "<p id=\"stim\">+</p>", "internal_node_id": "0.0-130.0-0.0", "time_elapsed": 1086630, "key_press": -1, "type": "FIXATION", "trial_index": 184}, "uniqueid": "MTK2701:3MRNMEIQW6DBCKBSA39I9MWC58NLDK", "dateTime": 1519240881000}, {"current_trial": 185, "trialdata": {"rt": -1, "trial_type": "single-stim", "word": "crib", "stimulus": "<p id=\"stim\">CRIB</p>", "conditions": [12, 800, "v", 12000], "internal_node_id": "0.0-131.0", "trial": 5, "time_elapsed": 1087433, "serialpos": 0, "key_press": -1, "wordID": 406, "type": "PRES_VIS", "trial_index": 185}, "uniqueid": "MTK2701:3MRNMEIQW6DBCKBSA39I9MWC58NLDK", "dateTime": 1519240881803}, {"current_trial": 186, "trialdata": {"rt": -1, "trial_type": "single-stim", "word": "mailbox", "stimulus": "<p id=\"stim\">MAILBOX</p>", "conditions": [12, 800, "v", 12000], "internal_node_id": "0.0-132.0", "trial": 5, "time_elapsed": 1089329, "serialpos": 1, "key_press": -1, "wordID": 856, "type": "PRES_VIS", "trial_index": 186}, "uniqueid": "MTK2701:3MRNMEIQW6DBCKBSA39I9MWC58NLDK", "dateTime": 1519240883699}, {"current_trial": 187, "trialdata": {"rt": -1, "trial_type": "single-stim", "word": "paper", "stimulus": "<p id=\"stim\">PAPER</p>", "conditions": [12, 800, "v", 12000], "internal_node_id": "0.0-133.0", "trial": 5, "time_elapsed": 1091108, "serialpos": 2, "key_press": -1, "wordID": 1010, "type": "PRES_VIS", "trial_index": 187}, "uniqueid": "MTK2701:3MRNMEIQW6DBCKBSA39I9MWC58NLDK", "dateTime": 1519240885479}, {"current_trial": 188, "trialdata": {"rt": -1, "trial_type": "single-stim", "word": "thief", "stimulus": "<p id=\"stim\">THIEF</p>", "conditions": [12, 800, "v", 12000], "internal_node_id": "0.0-134.0", "trial": 5, "time_elapsed": 1092715, "serialpos": 3, "key_press": -1, "wordID": 1455, "type": "PRES_VIS", "trial_index": 188}, "uniqueid": "MTK2701:3MRNMEIQW6DBCKBSA39I9MWC58NLDK", "dateTime": 1519240887086}, {"current_trial": 189, "trialdata": {"rt": -1, "trial_type": "single-stim", "word": "baby", "stimulus": "<p id=\"stim\">BABY</p>", "conditions": [12, 800, "v", 12000], "internal_node_id": "0.0-135.0", "trial": 5, "time_elapsed": 1094630, "serialpos": 4, "key_press": -1, "wordID": 63, "type": "PRES_VIS", "trial_index": 189}, "uniqueid": "MTK2701:3MRNMEIQW6DBCKBSA39I9MWC58NLDK", "dateTime": 1519240889000}, {"current_trial": 190, "trialdata": {"rt": -1, "trial_type": "single-stim", "word": "sunrise", "stimulus": "<p id=\"stim\">SUNRISE</p>", "conditions": [12, 800, "v", 12000], "internal_node_id": "0.0-136.0", "trial": 5, "time_elapsed": 1096530, "serialpos": 5, "key_press": -1, "wordID": 1406, "type": "PRES_VIS", "trial_index": 190}, "uniqueid": "MTK2701:3MRNMEIQW6DBCKBSA39I9MWC58NLDK", "dateTime": 1519240890900}, {"current_trial": 191, "trialdata": {"rt": -1, "trial_type": "single-stim", "word": "sunset", "stimulus": "<p id=\"stim\">SUNSET</p>", "conditions": [12, 800, "v", 12000], "internal_node_id": "0.0-137.0", "trial": 5, "time_elapsed": 1098338, "serialpos": 6, "key_press": -1, "wordID": 1407, "type": "PRES_VIS", "trial_index": 191}, "uniqueid": "MTK2701:3MRNMEIQW6DBCKBSA39I9MWC58NLDK", "dateTime": 1519240892708}, {"current_trial": 192, "trialdata": {"rt": -1, "trial_type": "single-stim", "word": "belly", "stimulus": "<p id=\"stim\">BELLY</p>", "conditions": [12, 800, "v", 12000], "internal_node_id": "0.0-138.0", "trial": 5, "time_elapsed": 1099958, "serialpos": 7, "key_press": -1, "wordID": 118, "type": "PRES_VIS", "trial_index": 192}, "uniqueid": "MTK2701:3MRNMEIQW6DBCKBSA39I9MWC58NLDK", "dateTime": 1519240894329}, {"current_trial": 193, "trialdata": {"rt": -1, "trial_type": "single-stim", "word": "breast", "stimulus": "<p id=\"stim\">BREAST</p>", "conditions": [12, 800, "v", 12000], "internal_node_id": "0.0-139.0", "trial": 5, "time_elapsed": 1101810, "serialpos": 8, "key_press": -1, "wordID": 170, "type": "PRES_VIS", "trial_index": 193}, "uniqueid": "MTK2701:3MRNMEIQW6DBCKBSA39I9MWC58NLDK", "dateTime": 1519240896180}, {"current_trial": 194, "trialdata": {"rt": -1, "trial_type": "single-stim", "word": "monster", "stimulus": "<p id=\"stim\">MONSTER</p>", "conditions": [12, 800, "v", 12000], "internal_node_id": "0.0-140.0", "trial": 5, "time_elapsed": 1103683, "serialpos": 9, "key_press": -1, "wordID": 911, "type": "PRES_VIS", "trial_index": 194}, "uniqueid": "MTK2701:3MRNMEIQW6DBCKBSA39I9MWC58NLDK", "dateTime": 1519240898054}, {"current_trial": 195, "trialdata": {"rt": -1, "trial_type": "single-stim", "word": "blouse", "stimulus": "<p id=\"stim\">BLOUSE</p>", "conditions": [12, 800, "v", 12000], "internal_node_id": "0.0-141.0", "trial": 5, "time_elapsed": 1105570, "serialpos": 10, "key_press": -1, "wordID": 138, "type": "PRES_VIS", "trial_index": 195}, "uniqueid": "MTK2701:3MRNMEIQW6DBCKBSA39I9MWC58NLDK", "dateTime": 1519240899940}, {"current_trial": 196, "trialdata": {"rt": -1, "trial_type": "single-stim", "word": "hedge", "stimulus": "<p id=\"stim\">HEDGE</p>", "conditions": [12, 800, "v", 12000], "internal_node_id": "0.0-142.0", "trial": 5, "time_elapsed": 1107546, "serialpos": 11, "key_press": -1, "wordID": 698, "type": "PRES_VIS", "trial_index": 196}, "uniqueid": "MTK2701:3MRNMEIQW6DBCKBSA39I9MWC58NLDK", "dateTime": 1519240901917}, {"current_trial": 197, "trialdata": {"rt": -1, "trial_type": "single-stim", "stimulus": "", "internal_node_id": "0.0-143.0-0.0", "time_elapsed": 1110106, "key_press": -1, "type": "PRE_RECALL_DELAY", "trial_index": 197}, "uniqueid": "MTK2701:3MRNMEIQW6DBCKBSA39I9MWC58NLDK", "dateTime": 1519240904477}, {"current_trial": 198, "trialdata": {"rt": -1000, "trial_type": "single-audio", "stimulus": "/static/audio/400Hz.wav", "internal_node_id": "0.0-144.0", "time_elapsed": 1110609, "key_press": -1, "type": "PRE_RECALL_ALERT", "trial_index": 198}, "uniqueid": "MTK2701:3MRNMEIQW6DBCKBSA39I9MWC58NLDK", "dateTime": 1519240904979}, {"current_trial": 199, "trialdata": {"rt": [4463, 5639, 7111, 8519, 9512, 11425, 13759, 14921], "recwords": ["crib", "thief", "baby", "sunrise", "sunset", "belly", "breast", "hedge"], "key_times": [3602, 3879, 4018, 4251, 4463, 4857, 5025, 5154, 5273, 5418, 5639, 6593, 6722, 6809, 6872, 7111, 7449, 7553, 7778, 7937, 8081, 8169, 8257, 8519, 8793, 8938, 9145, 9241, 9297, 9425, 9512, 10418, 10633, 10857, 11065, 11259, 11425, 12066, 12385, 12456, 12577, 13329, 13466, 13520, 13641, 13759, 14169, 14297, 14505, 14657, 14761, 14921], "trial_type": "free-recall", "conditions": [12, 800, "v", 12000], "internal_node_id": "0.0-145.0-0.0", "key_presses": [67, 82, 73, 66, 13, 84, 72, 73, 69, 70, 13, 66, 65, 66, 89, 13, 83, 85, 78, 82, 73, 83, 69, 13, 83, 85, 78, 83, 69, 84, 13, 66, 69, 76, 76, 89, 32, 66, 82, 69, 83, 8, 65, 83, 84, 13, 72, 69, 68, 71, 69, 13], "trial": 5, "time_elapsed": 1170616, "type": "FREE_RECALL", "trial_index": 199}, "uniqueid": "MTK2701:3MRNMEIQW6DBCKBSA39I9MWC58NLDK", "dateTime": 1519240964993}, {"current_trial": 200, "trialdata": {"rt": 1980, "trial_type": "text", "internal_node_id": "0.0-146.0", "time_elapsed": 1174605, "key_press": 13, "type": "INSTRUCTIONS", "trial_index": 200}, "uniqueid": "MTK2701:3MRNMEIQW6DBCKBSA39I9MWC58NLDK", "dateTime": 1519240968975}, {"current_trial": 201, "trialdata": {"rt": [3195, 5195, 9507, 11611], "trial_type": "math-distractor", "key_times": [2557, 2917, 3195, 4773, 4981, 5195, 8822, 9005, 9507, 11205, 11414, 11611], "responses": ["17", "13", "16", "21"], "num2": [6, 8, 9, 8, 3], "num3": [9, 4, 6, 5, 9], "conditions": [12, 1600, "v", 12000], "internal_node_id": "0.0-147.0", "key_presses": [97, 103, 13, 97, 99, 13, 97, 102, 13, 98, 97, 13], "trial": 6, "time_elapsed": 1188611, "type": "DISTRACTOR", "trial_index": 201, "num1": [2, 1, 1, 8, 9]}, "uniqueid": "MTK2701:3MRNMEIQW6DBCKBSA39I9MWC58NLDK", "dateTime": 1519240982982}, {"current_trial": 202, "trialdata": {"rt": -1, "trial_type": "single-stim", "stimulus": "<p id=\"stim\">10</p>", "internal_node_id": "0.0-148.0-0.0", "time_elapsed": 1191615, "key_press": -1, "trial_index": 202}, "uniqueid": "MTK2701:3MRNMEIQW6DBCKBSA39I9MWC58NLDK", "dateTime": 1519240985985}, {"current_trial": 203, "trialdata": {"rt": -1, "trial_type": "single-stim", "stimulus": "<p id=\"stim\">9</p>", "internal_node_id": "0.0-148.0-1.0", "time_elapsed": 1192617, "key_press": -1, "trial_index": 203}, "uniqueid": "MTK2701:3MRNMEIQW6DBCKBSA39I9MWC58NLDK", "dateTime": 1519240986987}, {"current_trial": 204, "trialdata": {"rt": -1, "trial_type": "single-stim", "stimulus": "<p id=\"stim\">8</p>", "internal_node_id": "0.0-148.0-2.0", "time_elapsed": 1193620, "key_press": -1, "trial_index": 204}, "uniqueid": "MTK2701:3MRNMEIQW6DBCKBSA39I9MWC58NLDK", "dateTime": 1519240987990}, {"current_trial": 205, "trialdata": {"rt": -1, "trial_type": "single-stim", "stimulus": "<p id=\"stim\">7</p>", "internal_node_id": "0.0-148.0-3.0", "time_elapsed": 1194622, "key_press": -1, "trial_index": 205}, "uniqueid": "MTK2701:3MRNMEIQW6DBCKBSA39I9MWC58NLDK", "dateTime": 1519240988993}, {"current_trial": 206, "trialdata": {"rt": -1, "trial_type": "single-stim", "stimulus": "<p id=\"stim\">6</p>", "internal_node_id": "0.0-148.0-4.0", "time_elapsed": 1195625, "key_press": -1, "trial_index": 206}, "uniqueid": "MTK2701:3MRNMEIQW6DBCKBSA39I9MWC58NLDK", "dateTime": 1519240989995}, {"current_trial": 207, "trialdata": {"rt": -1, "trial_type": "single-stim", "stimulus": "<p id=\"stim\">5</p>", "internal_node_id": "0.0-148.0-5.0", "time_elapsed": 1196628, "key_press": -1, "trial_index": 207}, "uniqueid": "MTK2701:3MRNMEIQW6DBCKBSA39I9MWC58NLDK", "dateTime": 1519240990998}, {"current_trial": 208, "trialdata": {"rt": -1, "trial_type": "single-stim", "stimulus": "<p id=\"stim\">4</p>", "internal_node_id": "0.0-148.0-6.0", "time_elapsed": 1197631, "key_press": -1, "trial_index": 208}, "uniqueid": "MTK2701:3MRNMEIQW6DBCKBSA39I9MWC58NLDK", "dateTime": 1519240992001}, {"current_trial": 209, "trialdata": {"rt": -1, "trial_type": "single-stim", "stimulus": "<p id=\"stim\">3</p>", "internal_node_id": "0.0-148.0-7.0", "time_elapsed": 1198634, "key_press": -1, "trial_index": 209}, "uniqueid": "MTK2701:3MRNMEIQW6DBCKBSA39I9MWC58NLDK", "dateTime": 1519240993004}, {"current_trial": 210, "trialdata": {"rt": -1, "trial_type": "single-stim", "stimulus": "<p id=\"stim\">2</p>", "internal_node_id": "0.0-148.0-8.0", "time_elapsed": 1199636, "key_press": -1, "trial_index": 210}, "uniqueid": "MTK2701:3MRNMEIQW6DBCKBSA39I9MWC58NLDK", "dateTime": 1519240994006}, {"current_trial": 211, "trialdata": {"rt": -1, "trial_type": "single-stim", "stimulus": "<p id=\"stim\">1</p>", "internal_node_id": "0.0-148.0-9.0", "time_elapsed": 1200639, "key_press": -1, "trial_index": 211}, "uniqueid": "MTK2701:3MRNMEIQW6DBCKBSA39I9MWC58NLDK", "dateTime": 1519240995009}, {"current_trial": 212, "trialdata": {"rt": -1, "trial_type": "single-stim", "stimulus": "<p id=\"stim\">+</p>", "internal_node_id": "0.0-149.0-0.0", "time_elapsed": 1202141, "key_press": -1, "type": "FIXATION", "trial_index": 212}, "uniqueid": "MTK2701:3MRNMEIQW6DBCKBSA39I9MWC58NLDK", "dateTime": 1519240996511}, {"current_trial": 213, "trialdata": {"rt": -1, "trial_type": "single-stim", "word": "pudding", "stimulus": "<p id=\"stim\">PUDDING</p>", "conditions": [12, 1600, "v", 12000], "internal_node_id": "0.0-150.0", "trial": 6, "time_elapsed": 1203745, "serialpos": 0, "key_press": -1, "wordID": 1138, "type": "PRES_VIS", "trial_index": 213}, "uniqueid": "MTK2701:3MRNMEIQW6DBCKBSA39I9MWC58NLDK", "dateTime": 1519240998115}, {"current_trial": 214, "trialdata": {"rt": -1, "trial_type": "single-stim", "word": "trombone", "stimulus": "<p id=\"stim\">TROMBONE</p>", "conditions": [12, 1600, "v", 12000], "internal_node_id": "0.0-151.0", "trial": 6, "time_elapsed": 1206245, "serialpos": 1, "key_press": -1, "wordID": 1507, "type": "PRES_VIS", "trial_index": 214}, "uniqueid": "MTK2701:3MRNMEIQW6DBCKBSA39I9MWC58NLDK", "dateTime": 1519241000616}, {"current_trial": 215, "trialdata": {"rt": -1, "trial_type": "single-stim", "word": "fiddle", "stimulus": "<p id=\"stim\">FIDDLE</p>", "conditions": [12, 1600, "v", 12000], "internal_node_id": "0.0-152.0", "trial": 6, "time_elapsed": 1208769, "serialpos": 2, "key_press": -1, "wordID": 560, "type": "PRES_VIS", "trial_index": 215}, "uniqueid": "MTK2701:3MRNMEIQW6DBCKBSA39I9MWC58NLDK", "dateTime": 1519241003139}, {"current_trial": 216, "trialdata": {"rt": -1, "trial_type": "single-stim", "word": "hostess", "stimulus": "<p id=\"stim\">HOSTESS</p>", "conditions": [12, 1600, "v", 12000], "internal_node_id": "0.0-153.0", "trial": 6, "time_elapsed": 1211457, "serialpos": 3, "key_press": -1, "wordID": 722, "type": "PRES_VIS", "trial_index": 216}, "uniqueid": "MTK2701:3MRNMEIQW6DBCKBSA39I9MWC58NLDK", "dateTime": 1519241005827}, {"current_trial": 217, "trialdata": {"rt": -1, "trial_type": "single-stim", "word": "tweezers", "stimulus": "<p id=\"stim\">TWEEZERS</p>", "conditions": [12, 1600, "v", 12000], "internal_node_id": "0.0-154.0", "trial": 6, "time_elapsed": 1214168, "serialpos": 4, "key_press": -1, "wordID": 1525, "type": "PRES_VIS", "trial_index": 217}, "uniqueid": "MTK2701:3MRNMEIQW6DBCKBSA39I9MWC58NLDK", "dateTime": 1519241008538}, {"current_trial": 218, "trialdata": {"rt": -1, "trial_type": "single-stim", "word": "marsh", "stimulus": "<p id=\"stim\">MARSH</p>", "conditions": [12, 1600, "v", 12000], "internal_node_id": "0.0-155.0", "trial": 6, "time_elapsed": 1216685, "serialpos": 5, "key_press": -1, "wordID": 873, "type": "PRES_VIS", "trial_index": 218}, "uniqueid": "MTK2701:3MRNMEIQW6DBCKBSA39I9MWC58NLDK", "dateTime": 1519241011055}, {"current_trial": 219, "trialdata": {"rt": -1, "trial_type": "single-stim", "word": "playground", "stimulus": "<p id=\"stim\">PLAYGROUND</p>", "conditions": [12, 1600, "v", 12000], "internal_node_id": "0.0-156.0", "trial": 6, "time_elapsed": 1219414, "serialpos": 6, "key_press": -1, "wordID": 1086, "type": "PRES_VIS", "trial_index": 219}, "uniqueid": "MTK2701:3MRNMEIQW6DBCKBSA39I9MWC58NLDK", "dateTime": 1519241013784}, {"current_trial": 220, "trialdata": {"rt": -1, "trial_type": "single-stim", "word": "scallop", "stimulus": "<p id=\"stim\">SCALLOP</p>", "conditions": [12, 1600, "v", 12000], "internal_node_id": "0.0-157.0", "trial": 6, "time_elapsed": 1221885, "serialpos": 7, "key_press": -1, "wordID": 1241, "type": "PRES_VIS", "trial_index": 220}, "uniqueid": "MTK2701:3MRNMEIQW6DBCKBSA39I9MWC58NLDK", "dateTime": 1519241016255}, {"current_trial": 221, "trialdata": {"rt": -1, "trial_type": "single-stim", "word": "lady", "stimulus": "<p id=\"stim\">LADY</p>", "conditions": [12, 1600, "v", 12000], "internal_node_id": "0.0-158.0", "trial": 6, "time_elapsed": 1224383, "serialpos": 8, "key_press": -1, "wordID": 793, "type": "PRES_VIS", "trial_index": 221}, "uniqueid": "MTK2701:3MRNMEIQW6DBCKBSA39I9MWC58NLDK", "dateTime": 1519241018754}, {"current_trial": 222, "trialdata": {"rt": -1, "trial_type": "single-stim", "word": "custard", "stimulus": "<p id=\"stim\">CUSTARD</p>", "conditions": [12, 1600, "v", 12000], "internal_node_id": "0.0-159.0", "trial": 6, "time_elapsed": 1226852, "serialpos": 9, "key_press": -1, "wordID": 428, "type": "PRES_VIS", "trial_index": 222}, "uniqueid": "MTK2701:3MRNMEIQW6DBCKBSA39I9MWC58NLDK", "dateTime": 1519241021222}, {"current_trial": 223, "trialdata": {"rt": -1, "trial_type": "single-stim", "word": "plaid", "stimulus": "<p id=\"stim\">PLAID</p>", "conditions": [12, 1600, "v", 12000], "internal_node_id": "0.0-160.0", "trial": 6, "time_elapsed": 1229318, "serialpos": 10, "key_press": -1, "wordID": 1079, "type": "PRES_VIS", "trial_index": 223}, "uniqueid": "MTK2701:3MRNMEIQW6DBCKBSA39I9MWC58NLDK", "dateTime": 1519241023689}, {"current_trial": 224, "trialdata": {"rt": -1, "trial_type": "single-stim", "word": "umpire", "stimulus": "<p id=\"stim\">UMPIRE</p>", "conditions": [12, 1600, "v", 12000], "internal_node_id": "0.0-161.0", "trial": 6, "time_elapsed": 1231751, "serialpos": 11, "key_press": -1, "wordID": 1534, "type": "PRES_VIS", "trial_index": 224}, "uniqueid": "MTK2701:3MRNMEIQW6DBCKBSA39I9MWC58NLDK", "dateTime": 1519241026121}, {"current_trial": 225, "trialdata": {"rt": -1, "trial_type": "single-stim", "stimulus": "", "internal_node_id": "0.0-162.0-0.0", "time_elapsed": 1234049, "key_press": -1, "type": "PRE_RECALL_DELAY", "trial_index": 225}, "uniqueid": "MTK2701:3MRNMEIQW6DBCKBSA39I9MWC58NLDK", "dateTime": 1519241028419}, {"current_trial": 226, "trialdata": {"rt": -1000, "trial_type": "single-audio", "stimulus": "/static/audio/400Hz.wav", "internal_node_id": "0.0-163.0", "time_elapsed": 1234556, "key_press": -1, "type": "PRE_RECALL_ALERT", "trial_index": 226}, "uniqueid": "MTK2701:3MRNMEIQW6DBCKBSA39I9MWC58NLDK", "dateTime": 1519241028926}, {"current_trial": 227, "trialdata": {"rt": [2983, 4222, 6903, 9183, 10022, 12190, 13926, 15047, 19423], "recwords": ["plaid", "umpire", "scallop", "playground", "lady", "pudding", "trombone", "fiddle", "tweezers"], "key_times": [2113, 2281, 2456, 2600, 2841, 2983, 3312, 3512, 3632, 3793, 3976, 4120, 4222, 5256, 5464, 5560, 5880, 6008, 6184, 6616, 6903, 7950, 8064, 8129, 8296, 8449, 8648, 8704, 8767, 8958, 9073, 9183, 9456, 9608, 9729, 9808, 10022, 11392, 11536, 11680, 11840, 11920, 11959, 12065, 12190, 12336, 12929, 13040, 13160, 13400, 13496, 13576, 13696, 13926, 14232, 14328, 14497, 14664, 14768, 14930, 15047, 16936, 17544, 18200, 18344, 18456, 18704, 18904, 19080, 19184, 19304, 19423], "trial_type": "free-recall", "conditions": [12, 1600, "v", 12000], "internal_node_id": "0.0-164.0-0.0", "key_presses": [80, 76, 65, 73, 68, 13, 85, 77, 80, 73, 82, 69, 13, 83, 67, 65, 76, 76, 79, 80, 13, 80, 76, 65, 89, 71, 82, 79, 85, 78, 68, 13, 76, 65, 68, 89, 13, 80, 85, 68, 68, 73, 78, 71, 13, 84, 82, 79, 77, 66, 79, 78, 69, 13, 70, 73, 68, 68, 76, 69, 13, 79, 8, 84, 87, 69, 69, 90, 69, 82, 83, 13], "trial": 6, "time_elapsed": 1294563, "type": "FREE_RECALL", "trial_index": 227}, "uniqueid": "MTK2701:3MRNMEIQW6DBCKBSA39I9MWC58NLDK", "dateTime": 1519241088945}, {"current_trial": 228, "trialdata": {"rt": 1247, "trial_type": "text", "internal_node_id": "0.0-165.0", "time_elapsed": 1297823, "key_press": 13, "type": "INSTRUCTIONS", "trial_index": 228}, "uniqueid": "MTK2701:3MRNMEIQW6DBCKBSA39I9MWC58NLDK", "dateTime": 1519241092193}, {"current_trial": 229, "trialdata": {"rt": [1853, 3493, 4981, 8061, 10493], "trial_type": "math-distractor", "key_times": [1543, 1639, 1853, 3094, 3271, 3493, 4591, 4727, 4981, 7543, 7800, 8061, 10174, 10262, 10493], "responses": ["16", "12", "18", "17", "21"], "num2": [8, 3, 3, 4, 5, 5], "num3": [1, 1, 8, 4, 7, 6], "conditions": [24, 800, "v", 12000], "internal_node_id": "0.0-166.0", "key_presses": [97, 102, 13, 97, 98, 13, 97, 104, 13, 97, 103, 13, 98, 97, 13], "trial": 7, "time_elapsed": 1311828, "type": "DISTRACTOR", "trial_index": 229, "num1": [7, 8, 7, 9, 9, 9]}, "uniqueid": "MTK2701:3MRNMEIQW6DBCKBSA39I9MWC58NLDK", "dateTime": 1519241106199}, {"current_trial": 230, "trialdata": {"rt": -1, "trial_type": "single-stim", "stimulus": "<p id=\"stim\">10</p>", "internal_node_id": "0.0-167.0-0.0", "time_elapsed": 1314832, "key_press": -1, "trial_index": 230}, "uniqueid": "MTK2701:3MRNMEIQW6DBCKBSA39I9MWC58NLDK", "dateTime": 1519241109202}, {"current_trial": 231, "trialdata": {"rt": -1, "trial_type": "single-stim", "stimulus": "<p id=\"stim\">9</p>", "internal_node_id": "0.0-167.0-1.0", "time_elapsed": 1315834, "key_press": -1, "trial_index": 231}, "uniqueid": "MTK2701:3MRNMEIQW6DBCKBSA39I9MWC58NLDK", "dateTime": 1519241110204}, {"current_trial": 232, "trialdata": {"rt": -1, "trial_type": "single-stim", "stimulus": "<p id=\"stim\">8</p>", "internal_node_id": "0.0-167.0-2.0", "time_elapsed": 1316836, "key_press": -1, "trial_index": 232}, "uniqueid": "MTK2701:3MRNMEIQW6DBCKBSA39I9MWC58NLDK", "dateTime": 1519241111207}, {"current_trial": 233, "trialdata": {"rt": -1, "trial_type": "single-stim", "stimulus": "<p id=\"stim\">7</p>", "internal_node_id": "0.0-167.0-3.0", "time_elapsed": 1317839, "key_press": -1, "trial_index": 233}, "uniqueid": "MTK2701:3MRNMEIQW6DBCKBSA39I9MWC58NLDK", "dateTime": 1519241112209}, {"current_trial": 234, "trialdata": {"rt": -1, "trial_type": "single-stim", "stimulus": "<p id=\"stim\">6</p>", "internal_node_id": "0.0-167.0-4.0", "time_elapsed": 1318842, "key_press": -1, "trial_index": 234}, "uniqueid": "MTK2701:3MRNMEIQW6DBCKBSA39I9MWC58NLDK", "dateTime": 1519241113212}, {"current_trial": 235, "trialdata": {"rt": -1, "trial_type": "single-stim", "stimulus": "<p id=\"stim\">5</p>", "internal_node_id": "0.0-167.0-5.0", "time_elapsed": 1319844, "key_press": -1, "trial_index": 235}, "uniqueid": "MTK2701:3MRNMEIQW6DBCKBSA39I9MWC58NLDK", "dateTime": 1519241114214}, {"current_trial": 236, "trialdata": {"rt": -1, "trial_type": "single-stim", "stimulus": "<p id=\"stim\">4</p>", "internal_node_id": "0.0-167.0-6.0", "time_elapsed": 1320846, "key_press": -1, "trial_index": 236}, "uniqueid": "MTK2701:3MRNMEIQW6DBCKBSA39I9MWC58NLDK", "dateTime": 1519241115216}, {"current_trial": 237, "trialdata": {"rt": -1, "trial_type": "single-stim", "stimulus": "<p id=\"stim\">3</p>", "internal_node_id": "0.0-167.0-7.0", "time_elapsed": 1321848, "key_press": -1, "trial_index": 237}, "uniqueid": "MTK2701:3MRNMEIQW6DBCKBSA39I9MWC58NLDK", "dateTime": 1519241116218}, {"current_trial": 238, "trialdata": {"rt": -1, "trial_type": "single-stim", "stimulus": "<p id=\"stim\">2</p>", "internal_node_id": "0.0-167.0-8.0", "time_elapsed": 1322851, "key_press": -1, "trial_index": 238}, "uniqueid": "MTK2701:3MRNMEIQW6DBCKBSA39I9MWC58NLDK", "dateTime": 1519241117221}, {"current_trial": 239, "trialdata": {"rt": -1, "trial_type": "single-stim", "stimulus": "<p id=\"stim\">1</p>", "internal_node_id": "0.0-167.0-9.0", "time_elapsed": 1323854, "key_press": -1, "trial_index": 239}, "uniqueid": "MTK2701:3MRNMEIQW6DBCKBSA39I9MWC58NLDK", "dateTime": 1519241118224}, {"current_trial": 240, "trialdata": {"rt": -1, "trial_type": "single-stim", "stimulus": "<p id=\"stim\">+</p>", "internal_node_id": "0.0-168.0-0.0", "time_elapsed": 1325356, "key_press": -1, "type": "FIXATION", "trial_index": 240}, "uniqueid": "MTK2701:3MRNMEIQW6DBCKBSA39I9MWC58NLDK", "dateTime": 1519241119726}, {"current_trial": 241, "trialdata": {"rt": -1, "trial_type": "single-stim", "word": "velvet", "stimulus": "<p id=\"stim\">VELVET</p>", "conditions": [24, 800, "v", 12000], "internal_node_id": "0.0-169.0", "trial": 7, "time_elapsed": 1326158, "serialpos": 0, "key_press": -1, "wordID": 1554, "type": "PRES_VIS", "trial_index": 241}, "uniqueid": "MTK2701:3MRNMEIQW6DBCKBSA39I9MWC58NLDK", "dateTime": 1519241120528}, {"current_trial": 242, "trialdata": {"rt": -1, "trial_type": "single-stim", "word": "apple", "stimulus": "<p id=\"stim\">APPLE</p>", "conditions": [24, 800, "v", 12000], "internal_node_id": "0.0-170.0", "trial": 7, "time_elapsed": 1327946, "serialpos": 1, "key_press": -1, "wordID": 32, "type": "PRES_VIS", "trial_index": 242}, "uniqueid": "MTK2701:3MRNMEIQW6DBCKBSA39I9MWC58NLDK", "dateTime": 1519241122317}, {"current_trial": 243, "trialdata": {"rt": -1, "trial_type": "single-stim", "word": "citrus", "stimulus": "<p id=\"stim\">CITRUS</p>", "conditions": [24, 800, "v", 12000], "internal_node_id": "0.0-171.0", "trial": 7, "time_elapsed": 1329734, "serialpos": 2, "key_press": -1, "wordID": 312, "type": "PRES_VIS", "trial_index": 243}, "uniqueid": "MTK2701:3MRNMEIQW6DBCKBSA39I9MWC58NLDK", "dateTime": 1519241124104}, {"current_trial": 244, "trialdata": {"rt": -1, "trial_type": "single-stim", "word": "cobra", "stimulus": "<p id=\"stim\">COBRA</p>", "conditions": [24, 800, "v", 12000], "internal_node_id": "0.0-172.0", "trial": 7, "time_elapsed": 1331491, "serialpos": 3, "key_press": -1, "wordID": 335, "type": "PRES_VIS", "trial_index": 244}, "uniqueid": "MTK2701:3MRNMEIQW6DBCKBSA39I9MWC58NLDK", "dateTime": 1519241125861}, {"current_trial": 245, "trialdata": {"rt": -1, "trial_type": "single-stim", "word": "shelter", "stimulus": "<p id=\"stim\">SHELTER</p>", "conditions": [24, 800, "v", 12000], "internal_node_id": "0.0-173.0", "trial": 7, "time_elapsed": 1333278, "serialpos": 4, "key_press": -1, "wordID": 1281, "type": "PRES_VIS", "trial_index": 245}, "uniqueid": "MTK2701:3MRNMEIQW6DBCKBSA39I9MWC58NLDK", "dateTime": 1519241127648}, {"current_trial": 246, "trialdata": {"rt": -1, "trial_type": "single-stim", "word": "tombstone", "stimulus": "<p id=\"stim\">TOMBSTONE</p>", "conditions": [24, 800, "v", 12000], "internal_node_id": "0.0-174.0", "trial": 7, "time_elapsed": 1335264, "serialpos": 5, "key_press": -1, "wordID": 1477, "type": "PRES_VIS", "trial_index": 246}, "uniqueid": "MTK2701:3MRNMEIQW6DBCKBSA39I9MWC58NLDK", "dateTime": 1519241129634}, {"current_trial": 247, "trialdata": {"rt": -1, "trial_type": "single-stim", "word": "casket", "stimulus": "<p id=\"stim\">CASKET</p>", "conditions": [24, 800, "v", 12000], "internal_node_id": "0.0-175.0", "trial": 7, "time_elapsed": 1336959, "serialpos": 6, "key_press": -1, "wordID": 254, "type": "PRES_VIS", "trial_index": 247}, "uniqueid": "MTK2701:3MRNMEIQW6DBCKBSA39I9MWC58NLDK", "dateTime": 1519241131329}, {"current_trial": 248, "trialdata": {"rt": -1, "trial_type": "single-stim", "word": "harp", "stimulus": "<p id=\"stim\">HARP</p>", "conditions": [24, 800, "v", 12000], "internal_node_id": "0.0-176.0", "trial": 7, "time_elapsed": 1338933, "serialpos": 7, "key_press": -1, "wordID": 688, "type": "PRES_VIS", "trial_index": 248}, "uniqueid": "MTK2701:3MRNMEIQW6DBCKBSA39I9MWC58NLDK", "dateTime": 1519241133304}, {"current_trial": 249, "trialdata": {"rt": -1, "trial_type": "single-stim", "word": "lizard", "stimulus": "<p id=\"stim\">LIZARD</p>", "conditions": [24, 800, "v", 12000], "internal_node_id": "0.0-177.0", "trial": 7, "time_elapsed": 1340783, "serialpos": 8, "key_press": -1, "wordID": 833, "type": "PRES_VIS", "trial_index": 249}, "uniqueid": "MTK2701:3MRNMEIQW6DBCKBSA39I9MWC58NLDK", "dateTime": 1519241135155}, {"current_trial": 250, "trialdata": {"rt": -1, "trial_type": "single-stim", "word": "neutron", "stimulus": "<p id=\"stim\">NEUTRON</p>", "conditions": [24, 800, "v", 12000], "internal_node_id": "0.0-178.0", "trial": 7, "time_elapsed": 1342389, "serialpos": 9, "key_press": -1, "wordID": 946, "type": "PRES_VIS", "trial_index": 250}, "uniqueid": "MTK2701:3MRNMEIQW6DBCKBSA39I9MWC58NLDK", "dateTime": 1519241136760}, {"current_trial": 251, "trialdata": {"rt": -1, "trial_type": "single-stim", "word": "coffee", "stimulus": "<p id=\"stim\">COFFEE</p>", "conditions": [24, 800, "v", 12000], "internal_node_id": "0.0-179.0", "trial": 7, "time_elapsed": 1344049, "serialpos": 10, "key_press": -1, "wordID": 340, "type": "PRES_VIS", "trial_index": 251}, "uniqueid": "MTK2701:3MRNMEIQW6DBCKBSA39I9MWC58NLDK", "dateTime": 1519241138419}, {"current_trial": 252, "trialdata": {"rt": -1, "trial_type": "single-stim", "word": "hamper", "stimulus": "<p id=\"stim\">HAMPER</p>", "conditions": [24, 800, "v", 12000], "internal_node_id": "0.0-180.0", "trial": 7, "time_elapsed": 1345756, "serialpos": 11, "key_press": -1, "wordID": 681, "type": "PRES_VIS", "trial_index": 252}, "uniqueid": "MTK2701:3MRNMEIQW6DBCKBSA39I9MWC58NLDK", "dateTime": 1519241140127}, {"current_trial": 253, "trialdata": {"rt": -1, "trial_type": "single-stim", "word": "cocktail", "stimulus": "<p id=\"stim\">COCKTAIL</p>", "conditions": [24, 800, "v", 12000], "internal_node_id": "0.0-181.0", "trial": 7, "time_elapsed": 1347703, "serialpos": 12, "key_press": -1, "wordID": 337, "type": "PRES_VIS", "trial_index": 253}, "uniqueid": "MTK2701:3MRNMEIQW6DBCKBSA39I9MWC58NLDK", "dateTime": 1519241142073}, {"current_trial": 254, "trialdata": {"rt": -1, "trial_type": "single-stim", "word": "airport", "stimulus": "<p id=\"stim\">AIRPORT</p>", "conditions": [24, 800, "v", 12000], "internal_node_id": "0.0-182.0", "trial": 7, "time_elapsed": 1349555, "serialpos": 13, "key_press": -1, "wordID": 12, "type": "PRES_VIS", "trial_index": 254}, "uniqueid": "MTK2701:3MRNMEIQW6DBCKBSA39I9MWC58NLDK", "dateTime": 1519241143925}, {"current_trial": 255, "tria