{"assignmentId": "3VHHR074H4OVVBAIJQ6W9UMGLX77L2", "workerId": "MTK3750", "questiondata": {"origin": "United States", "strat-rehearsal": "30", "marital": "Single", "education": "Bachelor's degree", "ethnicity": "Not Hispanic", "color_depth": 24, "distracted": "No", "wrote-notes": "No", "strat-other": "I tried to group together words that started with the same sounds or sounded similar.", "screen_width": 1280, "avail_screen_width": 1280, "avail_screen_height": 727, "strat-image": "60", "language": "English", "gender": "Male", "age": "22", "gender_other": "", "race": ["Asian"], "strat-categorize": "89", "pixel_depth": 24, "strat-spatial": "9", "strat-story": "0", "race_other": "", "screen_height": 800}, "bonus": 0, "hitId": "3P520RYKCHDH4DLZE9EYDD8JMV55U9", "counterbalance": 308, "useragent": "Mozilla/5.0 (Macintosh; Intel Mac OS X 10_12_6) AppleWebKit/537.36 (KHTML, like Gecko) Chrome/65.0.3325.162 Safari/537.36", "eventdata": [{"eventtype": "initialized", "interval": 0, "value": null, "timestamp": 1521225201639}, {"eventtype": "window_resize", "interval": 0, "value": [1280, 676], "timestamp": 1521225201639}, {"eventtype": "focus", "interval": 2402774, "value": "off", "timestamp": 1521227604413}, {"eventtype": "focus", "interval": 2818, "value": "on", "timestamp": 1521227607231}], "data": [{"current_trial": 0, "trialdata": {"rt": 18275, "trial_type": "text", "internal_node_id": "0.0-0.0", "time_elapsed": 18277, "key_press": 32, "type": "INSTRUCTIONS", "trial_index": 0}, "uniqueid": "MTK3750:3VHHR074H4OVVBAIJQ6W9UMGLX77L2", "dateTime": 1521225220797}, {"current_trial": 1, "trialdata": {"rt": 13406, "trial_type": "text", "internal_node_id": "0.0-1.0", "time_elapsed": 31685, "key_press": 32, "type": "INSTRUCTIONS", "trial_index": 1}, "uniqueid": "MTK3750:3VHHR074H4OVVBAIJQ6W9UMGLX77L2", "dateTime": 1521225234204}, {"current_trial": 2, "trialdata": {"rt": [5193], "trial_type": "audio-test", "responses": ["ocean"], "internal_node_id": "0.0-2.0", "time_elapsed": 36891, "type": "AUDIO_TEST", "trial_index": 2}, "uniqueid": "MTK3750:3VHHR074H4OVVBAIJQ6W9UMGLX77L2", "dateTime": 1521225239410}, {"current_trial": 3, "trialdata": {"rt": [4060], "trial_type": "audio-test", "responses": ["crystal"], "internal_node_id": "0.0-3.0", "time_elapsed": 40955, "type": "AUDIO_TEST", "trial_index": 3}, "uniqueid": "MTK3750:3VHHR074H4OVVBAIJQ6W9UMGLX77L2", "dateTime": 1521225243474}, {"current_trial": 4, "trialdata": {"rt": [4265], "trial_type": "audio-test", "responses": ["spice"], "internal_node_id": "0.0-4.0", "time_elapsed": 45223, "type": "AUDIO_TEST", "trial_index": 4}, "uniqueid": "MTK3750:3VHHR074H4OVVBAIJQ6W9UMGLX77L2", "dateTime": 1521225247742}, {"current_trial": 5, "trialdata": {"rt": 17764, "trial_type": "survey-text", "responses": "{\"Q0\":\"12:30 am\",\"Q1\":\"10:00pm\",\"Q2\":\"5\"}", "internal_node_id": "0.0-5.0", "time_elapsed": 63744, "type": "SLEEP_SURVEY", "trial_index": 5}, "uniqueid": "MTK3750:3VHHR074H4OVVBAIJQ6W9UMGLX77L2", "dateTime": 1521225266263}, {"current_trial": 6, "trialdata": {"rt": 37120, "trial_type": "text", "internal_node_id": "0.0-6.0", "time_elapsed": 101866, "key_press": 32, "type": "INSTRUCTIONS", "trial_index": 6}, "uniqueid": "MTK3750:3VHHR074H4OVVBAIJQ6W9UMGLX77L2", "dateTime": 1521225304385}, {"current_trial": 7, "trialdata": {"rt": 7170, "trial_type": "text", "internal_node_id": "0.0-7.0", "time_elapsed": 109539, "key_press": 32, "type": "INSTRUCTIONS", "trial_index": 7}, "uniqueid": "MTK3750:3VHHR074H4OVVBAIJQ6W9UMGLX77L2", "dateTime": 1521225312058}, {"current_trial": 8, "trialdata": {"rt": 46115, "trial_type": "text", "internal_node_id": "0.0-8.0", "time_elapsed": 156157, "key_press": 32, "type": "INSTRUCTIONS", "trial_index": 8}, "uniqueid": "MTK3750:3VHHR074H4OVVBAIJQ6W9UMGLX77L2", "dateTime": 1521225358676}, {"current_trial": 9, "trialdata": {"rt": [3221, 5198, 7237, 9494, 11329, 13319, 14903, 17100], "trial_type": "math-distractor", "key_times": [2244, 2375, 3221, 4800, 5066, 5198, 6256, 6547, 7237, 8967, 9274, 9494, 10766, 10975, 11329, 12910, 13044, 13319, 14477, 14744, 14903, 16488, 16875, 17100], "responses": ["12", "16", "11", "16", "11", "21", "13", "10"], "num2": [1, 3, 2, 8, 4, 9, 8, 4, 7], "num3": [8, 4, 1, 4, 3, 3, 1, 4, 7], "conditions": [18, 1200, "v", 18000], "internal_node_id": "0.0-9.0", "key_presses": [49, 50, 13, 49, 54, 13, 49, 49, 13, 49, 54, 13, 49, 49, 13, 50, 49, 13, 49, 51, 13, 49, 48, 13], "trial": 0, "time_elapsed": 175170, "type": "DISTRACTOR", "trial_index": 9, "num1": [3, 9, 8, 4, 4, 9, 4, 2, 6]}, "uniqueid": "MTK3750:3VHHR074H4OVVBAIJQ6W9UMGLX77L2", "dateTime": 1521225377689}, {"current_trial": 10, "trialdata": {"rt": -1, "trial_type": "single-stim", "stimulus": "<p id=\"stim\">10</p>", "internal_node_id": "0.0-10.0-0.0", "time_elapsed": 178179, "key_press": -1, "trial_index": 10}, "uniqueid": "MTK3750:3VHHR074H4OVVBAIJQ6W9UMGLX77L2", "dateTime": 1521225380698}, {"current_trial": 11, "trialdata": {"rt": -1, "trial_type": "single-stim", "stimulus": "<p id=\"stim\">9</p>", "internal_node_id": "0.0-10.0-1.0", "time_elapsed": 179184, "key_press": -1, "trial_index": 11}, "uniqueid": "MTK3750:3VHHR074H4OVVBAIJQ6W9UMGLX77L2", "dateTime": 1521225381703}, {"current_trial": 12, "trialdata": {"rt": -1, "trial_type": "single-stim", "stimulus": "<p id=\"stim\">8</p>", "internal_node_id": "0.0-10.0-2.0", "time_elapsed": 180186, "key_press": -1, "trial_index": 12}, "uniqueid": "MTK3750:3VHHR074H4OVVBAIJQ6W9UMGLX77L2", "dateTime": 1521225382706}, {"current_trial": 13, "trialdata": {"rt": -1, "trial_type": "single-stim", "stimulus": "<p id=\"stim\">7</p>", "internal_node_id": "0.0-10.0-3.0", "time_elapsed": 181190, "key_press": -1, "trial_index": 13}, "uniqueid": "MTK3750:3VHHR074H4OVVBAIJQ6W9UMGLX77L2", "dateTime": 1521225383709}, {"current_trial": 14, "trialdata": {"rt": -1, "trial_type": "single-stim", "stimulus": "<p id=\"stim\">6</p>", "internal_node_id": "0.0-10.0-4.0", "time_elapsed": 182196, "key_press": -1, "trial_index": 14}, "uniqueid": "MTK3750:3VHHR074H4OVVBAIJQ6W9UMGLX77L2", "dateTime": 1521225384715}, {"current_trial": 15, "trialdata": {"rt": -1, "trial_type": "single-stim", "stimulus": "<p id=\"stim\">5</p>", "internal_node_id": "0.0-10.0-5.0", "time_elapsed": 183199, "key_press": -1, "trial_index": 15}, "uniqueid": "MTK3750:3VHHR074H4OVVBAIJQ6W9UMGLX77L2", "dateTime": 1521225385718}, {"current_trial": 16, "trialdata": {"rt": -1, "trial_type": "single-stim", "stimulus": "<p id=\"stim\">4</p>", "internal_node_id": "0.0-10.0-6.0", "time_elapsed": 184204, "key_press": -1, "trial_index": 16}, "uniqueid": "MTK3750:3VHHR074H4OVVBAIJQ6W9UMGLX77L2", "dateTime": 1521225386723}, {"current_trial": 17, "trialdata": {"rt": -1, "trial_type": "single-stim", "stimulus": "<p id=\"stim\">3</p>", "internal_node_id": "0.0-10.0-7.0", "time_elapsed": 185208, "key_press": -1, "trial_index": 17}, "uniqueid": "MTK3750:3VHHR074H4OVVBAIJQ6W9UMGLX77L2", "dateTime": 1521225387727}, {"current_trial": 18, "trialdata": {"rt": -1, "trial_type": "single-stim", "stimulus": "<p id=\"stim\">2</p>", "internal_node_id": "0.0-10.0-8.0", "time_elapsed": 186214, "key_press": -1, "trial_index": 18}, "uniqueid": "MTK3750:3VHHR074H4OVVBAIJQ6W9UMGLX77L2", "dateTime": 1521225388733}, {"current_trial": 19, "trialdata": {"rt": -1, "trial_type": "single-stim", "stimulus": "<p id=\"stim\">1</p>", "internal_node_id": "0.0-10.0-9.0", "time_elapsed": 187215, "key_press": -1, "trial_index": 19}, "uniqueid": "MTK3750:3VHHR074H4OVVBAIJQ6W9UMGLX77L2", "dateTime": 1521225389734}, {"current_trial": 20, "trialdata": {"rt": -1, "trial_type": "single-stim", "stimulus": "<p id=\"stim\">+</p>", "internal_node_id": "0.0-11.0-0.0", "time_elapsed": 188718, "key_press": -1, "type": "FIXATION", "trial_index": 20}, "uniqueid": "MTK3750:3VHHR074H4OVVBAIJQ6W9UMGLX77L2", "dateTime": 1521225391238}, {"current_trial": 21, "trialdata": {"rt": -1, "trial_type": "single-stim", "word": "scribble", "stimulus": "<p id=\"stim\">SCRIBBLE</p>", "conditions": [18, 1200, "v", 18000], "internal_node_id": "0.0-12.0", "trial": 0, "time_elapsed": 189924, "serialpos": 0, "key_press": -1, "wordID": 1255, "type": "PRES_VIS", "trial_index": 21}, "uniqueid": "MTK3750:3VHHR074H4OVVBAIJQ6W9UMGLX77L2", "dateTime": 1521225392443}, {"current_trial": 22, "trialdata": {"rt": -1, "trial_type": "single-stim", "word": "clothes", "stimulus": "<p id=\"stim\">CLOTHES</p>", "conditions": [18, 1200, "v", 18000], "internal_node_id": "0.0-13.0", "trial": 0, "time_elapsed": 192085, "serialpos": 1, "key_press": -1, "wordID": 326, "type": "PRES_VIS", "trial_index": 22}, "uniqueid": "MTK3750:3VHHR074H4OVVBAIJQ6W9UMGLX77L2", "dateTime": 1521225394604}, {"current_trial": 23, "trialdata": {"rt": -1, "trial_type": "single-stim", "word": "salt", "stimulus": "<p id=\"stim\">SALT</p>", "conditions": [18, 1200, "v", 18000], "internal_node_id": "0.0-14.0", "trial": 0, "time_elapsed": 194387, "serialpos": 2, "key_press": -1, "wordID": 1228, "type": "PRES_VIS", "trial_index": 23}, "uniqueid": "MTK3750:3VHHR074H4OVVBAIJQ6W9UMGLX77L2", "dateTime": 1521225396907}, {"current_trial": 24, "trialdata": {"rt": -1, "trial_type": "single-stim", "word": "canal", "stimulus": "<p id=\"stim\">CANAL</p>", "conditions": [18, 1200, "v", 18000], "internal_node_id": "0.0-15.0", "trial": 0, "time_elapsed": 196642, "serialpos": 3, "key_press": -1, "wordID": 225, "type": "PRES_VIS", "trial_index": 24}, "uniqueid": "MTK3750:3VHHR074H4OVVBAIJQ6W9UMGLX77L2", "dateTime": 1521225399161}, {"current_trial": 25, "trialdata": {"rt": -1, "trial_type": "single-stim", "word": "paper", "stimulus": "<p id=\"stim\">PAPER</p>", "conditions": [18, 1200, "v", 18000], "internal_node_id": "0.0-16.0", "trial": 0, "time_elapsed": 198899, "serialpos": 4, "key_press": -1, "wordID": 1010, "type": "PRES_VIS", "trial_index": 25}, "uniqueid": "MTK3750:3VHHR074H4OVVBAIJQ6W9UMGLX77L2", "dateTime": 1521225401418}, {"current_trial": 26, "trialdata": {"rt": -1, "trial_type": "single-stim", "word": "girl", "stimulus": "<p id=\"stim\">GIRL</p>", "conditions": [18, 1200, "v", 18000], "internal_node_id": "0.0-17.0", "trial": 0, "time_elapsed": 201069, "serialpos": 5, "key_press": -1, "wordID": 636, "type": "PRES_VIS", "trial_index": 26}, "uniqueid": "MTK3750:3VHHR074H4OVVBAIJQ6W9UMGLX77L2", "dateTime": 1521225403588}, {"current_trial": 27, "trialdata": {"rt": -1, "trial_type": "single-stim", "word": "tile", "stimulus": "<p id=\"stim\">TILE</p>", "conditions": [18, 1200, "v", 18000], "internal_node_id": "0.0-18.0", "trial": 0, "time_elapsed": 203334, "serialpos": 6, "key_press": -1, "wordID": 1467, "type": "PRES_VIS", "trial_index": 27}, "uniqueid": "MTK3750:3VHHR074H4OVVBAIJQ6W9UMGLX77L2", "dateTime": 1521225405853}, {"current_trial": 28, "trialdata": {"rt": -1, "trial_type": "single-stim", "word": "juggler", "stimulus": "<p id=\"stim\">JUGGLER</p>", "conditions": [18, 1200, "v", 18000], "internal_node_id": "0.0-19.0", "trial": 0, "time_elapsed": 205553, "serialpos": 7, "key_press": -1, "wordID": 762, "type": "PRES_VIS", "trial_index": 28}, "uniqueid": "MTK3750:3VHHR074H4OVVBAIJQ6W9UMGLX77L2", "dateTime": 1521225408072}, {"current_trial": 29, "trialdata": {"rt": -1, "trial_type": "single-stim", "word": "atlas", "stimulus": "<p id=\"stim\">ATLAS</p>", "conditions": [18, 1200, "v", 18000], "internal_node_id": "0.0-20.0", "trial": 0, "time_elapsed": 207885, "serialpos": 8, "key_press": -1, "wordID": 52, "type": "PRES_VIS", "trial_index": 29}, "uniqueid": "MTK3750:3VHHR074H4OVVBAIJQ6W9UMGLX77L2", "dateTime": 1521225410404}, {"current_trial": 30, "trialdata": {"rt": -1, "trial_type": "single-stim", "word": "partner", "stimulus": "<p id=\"stim\">PARTNER</p>", "conditions": [18, 1200, "v", 18000], "internal_node_id": "0.0-21.0", "trial": 0, "time_elapsed": 209922, "serialpos": 9, "key_press": -1, "wordID": 1016, "type": "PRES_VIS", "trial_index": 30}, "uniqueid": "MTK3750:3VHHR074H4OVVBAIJQ6W9UMGLX77L2", "dateTime": 1521225412441}, {"current_trial": 31, "trialdata": {"rt": -1, "trial_type": "single-stim", "word": "tribe", "stimulus": "<p id=\"stim\">TRIBE</p>", "conditions": [18, 1200, "v", 18000], "internal_node_id": "0.0-22.0", "trial": 0, "time_elapsed": 212080, "serialpos": 10, "key_press": -1, "wordID": 1504, "type": "PRES_VIS", "trial_index": 31}, "uniqueid": "MTK3750:3VHHR074H4OVVBAIJQ6W9UMGLX77L2", "dateTime": 1521225414600}, {"current_trial": 32, "trialdata": {"rt": -1, "trial_type": "single-stim", "word": "cricket", "stimulus": "<p id=\"stim\">CRICKET</p>", "conditions": [18, 1200, "v", 18000], "internal_node_id": "0.0-23.0", "trial": 0, "time_elapsed": 214168, "serialpos": 11, "key_press": -1, "wordID": 407, "type": "PRES_VIS", "trial_index": 32}, "uniqueid": "MTK3750:3VHHR074H4OVVBAIJQ6W9UMGLX77L2", "dateTime": 1521225416687}, {"current_trial": 33, "trialdata": {"rt": -1, "trial_type": "single-stim", "word": "radish", "stimulus": "<p id=\"stim\">RADISH</p>", "conditions": [18, 1200, "v", 18000], "internal_node_id": "0.0-24.0", "trial": 0, "time_elapsed": 216196, "serialpos": 12, "key_press": -1, "wordID": 1157, "type": "PRES_VIS", "trial_index": 33}, "uniqueid": "MTK3750:3VHHR074H4OVVBAIJQ6W9UMGLX77L2", "dateTime": 1521225418715}, {"current_trial": 34, "trialdata": {"rt": -1, "trial_type": "single-stim", "word": "film", "stimulus": "<p id=\"stim\">FILM</p>", "conditions": [18, 1200, "v", 18000], "internal_node_id": "0.0-25.0", "trial": 0, "time_elapsed": 218291, "serialpos": 13, "key_press": -1, "wordID": 564, "type": "PRES_VIS", "trial_index": 34}, "uniqueid": "MTK3750:3VHHR074H4OVVBAIJQ6W9UMGLX77L2", "dateTime": 1521225420810}, {"current_trial": 35, "trialdata": {"rt": -1, "trial_type": "single-stim", "word": "wardrobe", "stimulus": "<p id=\"stim\">WARDROBE</p>", "conditions": [18, 1200, "v", 18000], "internal_node_id": "0.0-26.0", "trial": 0, "time_elapsed": 220497, "serialpos": 14, "key_press": -1, "wordID": 1586, "type": "PRES_VIS", "trial_index": 35}, "uniqueid": "MTK3750:3VHHR074H4OVVBAIJQ6W9UMGLX77L2", "dateTime": 1521225423016}, {"current_trial": 36, "trialdata": {"rt": -1, "trial_type": "single-stim", "word": "sidewalk", "stimulus": "<p id=\"stim\">SIDEWALK</p>", "conditions": [18, 1200, "v", 18000], "internal_node_id": "0.0-27.0", "trial": 0, "time_elapsed": 222873, "serialpos": 15, "key_press": -1, "wordID": 1302, "type": "PRES_VIS", "trial_index": 36}, "uniqueid": "MTK3750:3VHHR074H4OVVBAIJQ6W9UMGLX77L2", "dateTime": 1521225425392}, {"current_trial": 37, "trialdata": {"rt": -1, "trial_type": "single-stim", "word": "rocket", "stimulus": "<p id=\"stim\">ROCKET</p>", "conditions": [18, 1200, "v", 18000], "internal_node_id": "0.0-28.0", "trial": 0, "time_elapsed": 225059, "serialpos": 16, "key_press": -1, "wordID": 1201, "type": "PRES_VIS", "trial_index": 37}, "uniqueid": "MTK3750:3VHHR074H4OVVBAIJQ6W9UMGLX77L2", "dateTime": 1521225427578}, {"current_trial": 38, "trialdata": {"rt": -1, "trial_type": "single-stim", "word": "pliers", "stimulus": "<p id=\"stim\">PLIERS</p>", "conditions": [18, 1200, "v", 18000], "internal_node_id": "0.0-29.0", "trial": 0, "time_elapsed": 227209, "serialpos": 17, "key_press": -1, "wordID": 1088, "type": "PRES_VIS", "trial_index": 38}, "uniqueid": "MTK3750:3VHHR074H4OVVBAIJQ6W9UMGLX77L2", "dateTime": 1521225429728}, {"current_trial": 39, "trialdata": {"rt": -1, "trial_type": "single-stim", "stimulus": "", "internal_node_id": "0.0-30.0-0.0", "time_elapsed": 229385, "key_press": -1, "type": "PRE_RECALL_DELAY", "trial_index": 39}, "uniqueid": "MTK3750:3VHHR074H4OVVBAIJQ6W9UMGLX77L2", "dateTime": 1521225431904}, {"current_trial": 40, "trialdata": {"rt": -1000, "trial_type": "single-audio", "stimulus": "/static/audio/400Hz.wav", "internal_node_id": "0.0-31.0", "time_elapsed": 229891, "key_press": -1, "type": "PRE_RECALL_ALERT", "trial_index": 40}, "uniqueid": "MTK3750:3VHHR074H4OVVBAIJQ6W9UMGLX77L2", "dateTime": 1521225432410}, {"current_trial": 41, "trialdata": {"rt": [2413, 3726, 6709, 8526, 10108, 12176, 16030, 53605], "recwords": ["sidewalk", "pliers", "scribble", "sidewalk", "rocket", "girl", "tribe", "clothes"], "key_times": [1078, 1262, 1358, 1430, 1681, 1793, 1893, 2013, 2413, 2713, 2809, 3036, 3117, 3235, 3317, 3726, 4844, 5059, 5298, 5420, 5734, 5911, 6040, 6183, 6709, 7245, 7387, 7513, 7605, 7803, 8018, 8105, 8214, 8526, 9014, 9094, 9251, 9335, 9468, 9607, 10108, 11185, 11204, 11333, 11431, 12176, 15030, 15204, 15281, 15449, 15532, 16030, 52471, 52666, 52865, 53006, 53104, 53228, 53313, 53605], "trial_type": "free-recall", "conditions": [18, 1200, "v", 18000], "internal_node_id": "0.0-32.0-0.0", "key_presses": [83, 73, 68, 69, 87, 65, 76, 75, 13, 80, 76, 73, 69, 82, 83, 13, 83, 67, 82, 73, 66, 66, 76, 69, 13, 83, 73, 68, 69, 87, 65, 76, 75, 13, 82, 79, 67, 75, 69, 84, 13, 71, 73, 82, 76, 13, 84, 82, 73, 66, 69, 13, 67, 76, 79, 84, 72, 69, 83, 13], "trial": 0, "time_elapsed": 289898, "type": "FREE_RECALL", "trial_index": 41}, "uniqueid": "MTK3750:3VHHR074H4OVVBAIJQ6W9UMGLX77L2", "dateTime": 1521225492419}, {"current_trial": 42, "trialdata": {"rt": 1472, "trial_type": "text", "internal_node_id": "0.0-33.0", "time_elapsed": 293380, "key_press": 32, "type": "INSTRUCTIONS", "trial_index": 42}, "uniqueid": "MTK3750:3VHHR074H4OVVBAIJQ6W9UMGLX77L2", "dateTime": 1521225495899}, {"current_trial": 43, "trialdata": {"rt": [3283, 6379, 9123, 10862, 12879, 17052], "trial_type": "math-distractor", "key_times": [2069, 2368, 3283, 4547, 5414, 6012, 6379, 7608, 7966, 9123, 10543, 10862, 12521, 12663, 12879, 15700, 15826, 17052], "responses": ["20", "7", "14", "9", "23", "24"], "num2": [4, 3, 5, 1, 5, 9, 7], "num3": [7, 3, 1, 2, 9, 7, 6], "conditions": [18, 1200, "v", 18000], "internal_node_id": "0.0-34.0", "key_presses": [50, 48, 13, 53, 8, 55, 13, 49, 52, 13, 57, 13, 50, 51, 13, 50, 52, 13], "trial": 1, "time_elapsed": 313388, "type": "DISTRACTOR", "trial_index": 43, "num1": [9, 1, 8, 6, 9, 8, 9]}, "uniqueid": "MTK3750:3VHHR074H4OVVBAIJQ6W9UMGLX77L2", "dateTime": 1521225515907}, {"current_trial": 44, "trialdata": {"rt": -1, "trial_type": "single-stim", "stimulus": "<p id=\"stim\">10</p>", "internal_node_id": "0.0-35.0-0.0", "time_elapsed": 316394, "key_press": -1, "trial_index": 44}, "uniqueid": "MTK3750:3VHHR074H4OVVBAIJQ6W9UMGLX77L2", "dateTime": 1521225518913}, {"current_trial": 45, "trialdata": {"rt": -1, "trial_type": "single-stim", "stimulus": "<p id=\"stim\">9</p>", "internal_node_id": "0.0-35.0-1.0", "time_elapsed": 317398, "key_press": -1, "trial_index": 45}, "uniqueid": "MTK3750:3VHHR074H4OVVBAIJQ6W9UMGLX77L2", "dateTime": 1521225519917}, {"current_trial": 46, "trialdata": {"rt": -1, "trial_type": "single-stim", "stimulus": "<p id=\"stim\">8</p>", "internal_node_id": "0.0-35.0-2.0", "time_elapsed": 318402, "key_press": -1, "trial_index": 46}, "uniqueid": "MTK3750:3VHHR074H4OVVBAIJQ6W9UMGLX77L2", "dateTime": 1521225520921}, {"current_trial": 47, "trialdata": {"rt": -1, "trial_type": "single-stim", "stimulus": "<p id=\"stim\">7</p>", "internal_node_id": "0.0-35.0-3.0", "time_elapsed": 319406, "key_press": -1, "trial_index": 47}, "uniqueid": "MTK3750:3VHHR074H4OVVBAIJQ6W9UMGLX77L2", "dateTime": 1521225521926}, {"current_trial": 48, "trialdata": {"rt": -1, "trial_type": "single-stim", "stimulus": "<p id=\"stim\">6</p>", "internal_node_id": "0.0-35.0-4.0", "time_elapsed": 320410, "key_press": -1, "trial_index": 48}, "uniqueid": "MTK3750:3VHHR074H4OVVBAIJQ6W9UMGLX77L2", "dateTime": 1521225522929}, {"current_trial": 49, "trialdata": {"rt": -1, "trial_type": "single-stim", "stimulus": "<p id=\"stim\">5</p>", "internal_node_id": "0.0-35.0-5.0", "time_elapsed": 321414, "key_press": -1, "trial_index": 49}, "uniqueid": "MTK3750:3VHHR074H4OVVBAIJQ6W9UMGLX77L2", "dateTime": 1521225523933}, {"current_trial": 50, "trialdata": {"rt": -1, "trial_type": "single-stim", "stimulus": "<p id=\"stim\">4</p>", "internal_node_id": "0.0-35.0-6.0", "time_elapsed": 322418, "key_press": -1, "trial_index": 50}, "uniqueid": "MTK3750:3VHHR074H4OVVBAIJQ6W9UMGLX77L2", "dateTime": 1521225524937}, {"current_trial": 51, "trialdata": {"rt": -1, "trial_type": "single-stim", "stimulus": "<p id=\"stim\">3</p>", "internal_node_id": "0.0-35.0-7.0", "time_elapsed": 323422, "key_press": -1, "trial_index": 51}, "uniqueid": "MTK3750:3VHHR074H4OVVBAIJQ6W9UMGLX77L2", "dateTime": 1521225525941}, {"current_trial": 52, "trialdata": {"rt": -1, "trial_type": "single-stim", "stimulus": "<p id=\"stim\">2</p>", "internal_node_id": "0.0-35.0-8.0", "time_elapsed": 324427, "key_press": -1, "trial_index": 52}, "uniqueid": "MTK3750:3VHHR074H4OVVBAIJQ6W9UMGLX77L2", "dateTime": 1521225526947}, {"current_trial": 53, "trialdata": {"rt": -1, "trial_type": "single-stim", "stimulus": "<p id=\"stim\">1</p>", "internal_node_id": "0.0-35.0-9.0", "time_elapsed": 325432, "key_press": -1, "trial_index": 53}, "uniqueid": "MTK3750:3VHHR074H4OVVBAIJQ6W9UMGLX77L2", "dateTime": 1521225527951}, {"current_trial": 54, "trialdata": {"rt": -1, "trial_type": "single-stim", "stimulus": "<p id=\"stim\">+</p>", "internal_node_id": "0.0-36.0-0.0", "time_elapsed": 326936, "key_press": -1, "type": "FIXATION", "trial_index": 54}, "uniqueid": "MTK3750:3VHHR074H4OVVBAIJQ6W9UMGLX77L2", "dateTime": 1521225529455}, {"current_trial": 55, "trialdata": {"rt": -1, "trial_type": "single-stim", "word": "neutron", "stimulus": "<p id=\"stim\">NEUTRON</p>", "conditions": [18, 1200, "v", 18000], "internal_node_id": "0.0-37.0", "trial": 1, "time_elapsed": 328142, "serialpos": 0, "key_press": -1, "wordID": 946, "type": "PRES_VIS", "trial_index": 55}, "uniqueid": "MTK3750:3VHHR074H4OVVBAIJQ6W9UMGLX77L2", "dateTime": 1521225530661}, {"current_trial": 56, "trialdata": {"rt": -1, "trial_type": "single-stim", "word": "lettuce", "stimulus": "<p id=\"stim\">LETTUCE</p>", "conditions": [18, 1200, "v", 18000], "internal_node_id": "0.0-38.0", "trial": 1, "time_elapsed": 330550, "serialpos": 1, "key_press": -1, "wordID": 813, "type": "PRES_VIS", "trial_index": 56}, "uniqueid": "MTK3750:3VHHR074H4OVVBAIJQ6W9UMGLX77L2", "dateTime": 1521225533070}, {"current_trial": 57, "trialdata": {"rt": -1, "trial_type": "single-stim", "word": "parent", "stimulus": "<p id=\"stim\">PARENT</p>", "conditions": [18, 1200, "v", 18000], "internal_node_id": "0.0-39.0", "trial": 1, "time_elapsed": 332799, "serialpos": 2, "key_press": -1, "wordID": 1012, "type": "PRES_VIS", "trial_index": 57}, "uniqueid": "MTK3750:3VHHR074H4OVVBAIJQ6W9UMGLX77L2", "dateTime": 1521225535318}, {"current_trial": 58, "trialdata": {"rt": -1, "trial_type": "single-stim", "word": "money", "stimulus": "<p id=\"stim\">MONEY</p>", "conditions": [18, 1200, "v", 18000], "internal_node_id": "0.0-40.0", "trial": 1, "time_elapsed": 335120, "serialpos": 3, "key_press": -1, "wordID": 907, "type": "PRES_VIS", "trial_index": 58}, "uniqueid": "MTK3750:3VHHR074H4OVVBAIJQ6W9UMGLX77L2", "dateTime": 1521225537639}, {"current_trial": 59, "trialdata": {"rt": -1, "trial_type": "single-stim", "word": "scotch", "stimulus": "<p id=\"stim\">SCOTCH</p>", "conditions": [18, 1200, "v", 18000], "internal_node_id": "0.0-41.0", "trial": 1, "time_elapsed": 337410, "serialpos": 4, "key_press": -1, "wordID": 1250, "type": "PRES_VIS", "trial_index": 59}, "uniqueid": "MTK3750:3VHHR074H4OVVBAIJQ6W9UMGLX77L2", "dateTime": 1521225539929}, {"current_trial": 60, "trialdata": {"rt": -1, "trial_type": "single-stim", "word": "leader", "stimulus": "<p id=\"stim\">LEADER</p>", "conditions": [18, 1200, "v", 18000], "internal_node_id": "0.0-42.0", "trial": 1, "time_elapsed": 339584, "serialpos": 5, "key_press": -1, "wordID": 806, "type": "PRES_VIS", "trial_index": 60}, "uniqueid": "MTK3750:3VHHR074H4OVVBAIJQ6W9UMGLX77L2", "dateTime": 1521225542104}, {"current_trial": 61, "trialdata": {"rt": -1, "trial_type": "single-stim", "word": "spouse", "stimulus": "<p id=\"stim\">SPOUSE</p>", "conditions": [18, 1200, "v", 18000], "internal_node_id": "0.0-43.0", "trial": 1, "time_elapsed": 341770, "serialpos": 6, "key_press": -1, "wordID": 1357, "type": "PRES_VIS", "trial_index": 61}, "uniqueid": "MTK3750:3VHHR074H4OVVBAIJQ6W9UMGLX77L2", "dateTime": 1521225544289}, {"current_trial": 62, "trialdata": {"rt": -1, "trial_type": "single-stim", "word": "sunset", "stimulus": "<p id=\"stim\">SUNSET</p>", "conditions": [18, 1200, "v", 18000], "internal_node_id": "0.0-44.0", "trial": 1, "time_elapsed": 344109, "serialpos": 7, "key_press": -1, "wordID": 1407, "type": "PRES_VIS", "trial_index": 62}, "uniqueid": "MTK3750:3VHHR074H4OVVBAIJQ6W9UMGLX77L2", "dateTime": 1521225546628}, {"current_trial": 63, "trialdata": {"rt": -1, "trial_type": "single-stim", "word": "briefcase", "stimulus": "<p id=\"stim\">BRIEFCASE</p>", "conditions": [18, 1200, "v", 18000], "internal_node_id": "0.0-45.0", "trial": 1, "time_elapsed": 346349, "serialpos": 8, "key_press": -1, "wordID": 174, "type": "PRES_VIS", "trial_index": 63}, "uniqueid": "MTK3750:3VHHR074H4OVVBAIJQ6W9UMGLX77L2", "dateTime": 1521225548868}, {"current_trial": 64, "trialdata": {"rt": -1, "trial_type": "single-stim", "word": "flesh", "stimulus": "<p id=\"stim\">FLESH</p>", "conditions": [18, 1200, "v", 18000], "internal_node_id": "0.0-46.0", "trial": 1, "time_elapsed": 348554, "serialpos": 9, "key_press": -1, "wordID": 578, "type": "PRES_VIS", "trial_index": 64}, "uniqueid": "MTK3750:3VHHR074H4OVVBAIJQ6W9UMGLX77L2", "dateTime": 1521225551073}, {"current_trial": 65, "trialdata": {"rt": -1, "trial_type": "single-stim", "word": "blueprint", "stimulus": "<p id=\"stim\">BLUEPRINT</p>", "conditions": [18, 1200, "v", 18000], "internal_node_id": "0.0-47.0", "trial": 1, "time_elapsed": 350725, "serialpos": 10, "key_press": -1, "wordID": 141, "type": "PRES_VIS", "trial_index": 65}, "uniqueid": "MTK3750:3VHHR074H4OVVBAIJQ6W9UMGLX77L2", "dateTime": 1521225553245}, {"current_trial": 66, "trialdata": {"rt": -1, "trial_type": "single-stim", "word": "compass", "stimulus": "<p id=\"stim\">COMPASS</p>", "conditions": [18, 1200, "v", 18000], "internal_node_id": "0.0-48.0", "trial": 1, "time_elapsed": 352769, "serialpos": 11, "key_press": -1, "wordID": 357, "type": "PRES_VIS", "trial_index": 66}, "uniqueid": "MTK3750:3VHHR074H4OVVBAIJQ6W9UMGLX77L2", "dateTime": 1521225555288}, {"current_trial": 67, "trialdata": {"rt": -1, "trial_type": "single-stim", "word": "widow", "stimulus": "<p id=\"stim\">WIDOW</p>", "conditions": [18, 1200, "v", 18000], "internal_node_id": "0.0-49.0", "trial": 1, "time_elapsed": 354991, "serialpos": 12, "key_press": -1, "wordID": 1607, "type": "PRES_VIS", "trial_index": 67}, "uniqueid": "MTK3750:3VHHR074H4OVVBAIJQ6W9UMGLX77L2", "dateTime": 1521225557510}, {"current_trial": 68, "trialdata": {"rt": -1, "trial_type": "single-stim", "word": "bunny", "stimulus": "<p id=\"stim\">BUNNY</p>", "conditions": [18, 1200, "v", 18000], "internal_node_id": "0.0-50.0", "trial": 1, "time_elapsed": 357313, "serialpos": 13, "key_press": -1, "wordID": 197, "type": "PRES_VIS", "trial_index": 68}, "uniqueid": "MTK3750:3VHHR074H4OVVBAIJQ6W9UMGLX77L2", "dateTime": 1521225559834}, {"current_trial": 69, "trialdata": {"rt": -1, "trial_type": "single-stim", "word": "tweezers", "stimulus": "<p id=\"stim\">TWEEZERS</p>", "conditions": [18, 1200, "v", 18000], "internal_node_id": "0.0-51.0", "trial": 1, "time_elapsed": 359656, "serialpos": 14, "key_press": -1, "wordID": 1525, "type": "PRES_VIS", "trial_index": 69}, "uniqueid": "MTK3750:3VHHR074H4OVVBAIJQ6W9UMGLX77L2", "dateTime": 1521225562175}, {"current_trial": 70, "trialdata": {"rt": -1, "trial_type": "single-stim", "word": "tunnel", "stimulus": "<p id=\"stim\">TUNNEL</p>", "conditions": [18, 1200, "v", 18000], "internal_node_id": "0.0-52.0", "trial": 1, "time_elapsed": 362047, "serialpos": 15, "key_press": -1, "wordID": 1518, "type": "PRES_VIS", "trial_index": 70}, "uniqueid": "MTK3750:3VHHR074H4OVVBAIJQ6W9UMGLX77L2", "dateTime": 1521225564566}, {"current_trial": 71, "trialdata": {"rt": -1, "trial_type": "single-stim", "word": "cocoon", "stimulus": "<p id=\"stim\">COCOON</p>", "conditions": [18, 1200, "v", 18000], "internal_node_id": "0.0-53.0", "trial": 1, "time_elapsed": 364104, "serialpos": 16, "key_press": -1, "wordID": 338, "type": "PRES_VIS", "trial_index": 71}, "uniqueid": "MTK3750:3VHHR074H4OVVBAIJQ6W9UMGLX77L2", "dateTime": 1521225566624}, {"current_trial": 72, "trialdata": {"rt": -1, "trial_type": "single-stim", "word": "candy", "stimulus": "<p id=\"stim\">CANDY</p>", "conditions": [18, 1200, "v", 18000], "internal_node_id": "0.0-54.0", "trial": 1, "time_elapsed": 366362, "serialpos": 17, "key_press": -1, "wordID": 229, "type": "PRES_VIS", "trial_index": 72}, "uniqueid": "MTK3750:3VHHR074H4OVVBAIJQ6W9UMGLX77L2", "dateTime": 1521225568881}, {"current_trial": 73, "trialdata": {"rt": -1, "trial_type": "single-stim", "stimulus": "", "internal_node_id": "0.0-55.0-0.0", "time_elapsed": 368579, "key_press": -1, "type": "PRE_RECALL_DELAY", "trial_index": 73}, "uniqueid": "MTK3750:3VHHR074H4OVVBAIJQ6W9UMGLX77L2", "dateTime": 1521225571098}, {"current_trial": 74, "trialdata": {"rt": -1000, "trial_type": "single-audio", "stimulus": "/static/audio/400Hz.wav", "internal_node_id": "0.0-56.0", "time_elapsed": 369082, "key_press": -1, "type": "PRE_RECALL_ALERT", "trial_index": 74}, "uniqueid": "MTK3750:3VHHR074H4OVVBAIJQ6W9UMGLX77L2", "dateTime": 1521225571601}, {"current_trial": 75, "trialdata": {"rt": [2068, 3377, 4631, 7234, 19957, 21217], "recwords": ["tunnel", "cocoon", "candy", "neutron", "sunset", "leader"], "key_times": [691, 1092, 1301, 1459, 1593, 1711, 2068, 2376, 2459, 2605, 2716, 2868, 3063, 3377, 3620, 3688, 3756, 3895, 4061, 4631, 5618, 5739, 5882, 6051, 6242, 6329, 6421, 7234, 18823, 19132, 19285, 19426, 19591, 19687, 19957, 20244, 20349, 20434, 20577, 20725, 20829, 21217], "trial_type": "free-recall", "conditions": [18, 1200, "v", 18000], "internal_node_id": "0.0-57.0-0.0", "key_presses": [84, 85, 78, 78, 69, 76, 13, 67, 79, 67, 79, 79, 78, 13, 67, 65, 78, 68, 89, 13, 78, 69, 85, 84, 82, 79, 78, 13, 83, 85, 78, 83, 69, 84, 13, 76, 69, 65, 68, 69, 82, 13], "trial": 1, "time_elapsed": 429087, "type": "FREE_RECALL", "trial_index": 75}, "uniqueid": "MTK3750:3VHHR074H4OVVBAIJQ6W9UMGLX77L2", "dateTime": 1521225631608}, {"current_trial": 76, "trialdata": {"rt": 1491, "trial_type": "text", "internal_node_id": "0.0-58.0", "time_elapsed": 432584, "key_press": 32, "type": "INSTRUCTIONS", "trial_index": 76}, "uniqueid": "MTK3750:3VHHR074H4OVVBAIJQ6W9UMGLX77L2", "dateTime": 1521225635103}, {"current_trial": 77, "trialdata": {"rt": [2211, 3729, 4921, 6526, 8962, 10270, 11687, 13188, 15348, 17051, 19841, 21586, 23194], "trial_type": "math-distractor", "key_times": [1841, 1993, 2211, 3300, 3432, 3729, 4647, 4801, 4921, 6030, 6345, 6526, 8664, 8822, 8962, 10153, 10270, 11391, 11538, 11687, 12860, 13047, 13188, 14968, 15145, 15348, 16731, 16817, 17051, 19448, 19681, 19841, 21022, 21462, 21586, 22867, 23027, 23194], "responses": ["12", "12", "11", "16", "24", "8", "13", "14", "19", "10", "25", "13", "19"], "num2": [3, 7, 1, 1, 8, 6, 6, 4, 4, 3, 7, 1, 7, 4], "num3": [1, 2, 6, 7, 7, 1, 1, 9, 6, 4, 9, 9, 7, 9], "conditions": [12, 800, "v", 24000], "internal_node_id": "0.0-59.0", "key_presses": [49, 50, 13, 49, 50, 13, 49, 49, 13, 49, 54, 13, 50, 52, 13, 56, 13, 49, 51, 13, 49, 52, 13, 49, 57, 13, 49, 48, 13, 50, 53, 13, 49, 51, 13, 49, 57, 13], "trial": 2, "time_elapsed": 457598, "type": "DISTRACTOR", "trial_index": 77, "num1": [8, 3, 4, 8, 9, 1, 6, 1, 9, 3, 9, 2, 5, 8]}, "uniqueid": "MTK3750:3VHHR074H4OVVBAIJQ6W9UMGLX77L2", "dateTime": 1521225660117}, {"current_trial": 78, "trialdata": {"rt": -1, "trial_type": "single-stim", "stimulus": "<p id=\"stim\">10</p>", "internal_node_id": "0.0-60.0-0.0", "time_elapsed": 460605, "key_press": -1, "trial_index": 78}, "uniqueid": "MTK3750:3VHHR074H4OVVBAIJQ6W9UMGLX77L2", "dateTime": 1521225663124}, {"current_trial": 79, "trialdata": {"rt": -1, "trial_type": "single-stim", "stimulus": "<p id=\"stim\">9</p>", "internal_node_id": "0.0-60.0-1.0", "time_elapsed": 461612, "key_press": -1, "trial_index": 79}, "uniqueid": "MTK3750:3VHHR074H4OVVBAIJQ6W9UMGLX77L2", "dateTime": 1521225664131}, {"current_trial": 80, "trialdata": {"rt": -1, "trial_type": "single-stim", "stimulus": "<p id=\"stim\">8</p>", "internal_node_id": "0.0-60.0-2.0", "time_elapsed": 462618, "key_press": -1, "trial_index": 80}, "uniqueid": "MTK3750:3VHHR074H4OVVBAIJQ6W9UMGLX77L2", "dateTime": 1521225665137}, {"current_trial": 81, "trialdata": {"rt": -1, "trial_type": "single-stim", "stimulus": "<p id=\"stim\">7</p>", "internal_node_id": "0.0-60.0-3.0", "time_elapsed": 463623, "key_press": -1, "trial_index": 81}, "uniqueid": "MTK3750:3VHHR074H4OVVBAIJQ6W9UMGLX77L2", "dateTime": 1521225666143}, {"current_trial": 82, "trialdata": {"rt": -1, "trial_type": "single-stim", "stimulus": "<p id=\"stim\">6</p>", "internal_node_id": "0.0-60.0-4.0", "time_elapsed": 464630, "key_press": -1, "trial_index": 82}, "uniqueid": "MTK3750:3VHHR074H4OVVBAIJQ6W9UMGLX77L2", "dateTime": 1521225667149}, {"current_trial": 83, "trialdata": {"rt": -1, "trial_type": "single-stim", "stimulus": "<p id=\"stim\">5</p>", "internal_node_id": "0.0-60.0-5.0", "time_elapsed": 465634, "key_press": -1, "trial_index": 83}, "uniqueid": "MTK3750:3VHHR074H4OVVBAIJQ6W9UMGLX77L2", "dateTime": 1521225668153}, {"current_trial": 84, "trialdata": {"rt": -1, "trial_type": "single-stim", "stimulus": "<p id=\"stim\">4</p>", "internal_node_id": "0.0-60.0-6.0", "time_elapsed": 466638, "key_press": -1, "trial_index": 84}, "uniqueid": "MTK3750:3VHHR074H4OVVBAIJQ6W9UMGLX77L2", "dateTime": 1521225669157}, {"current_trial": 85, "trialdata": {"rt": -1, "trial_type": "single-stim", "stimulus": "<p id=\"stim\">3</p>", "internal_node_id": "0.0-60.0-7.0", "time_elapsed": 467642, "key_press": -1, "trial_index": 85}, "uniqueid": "MTK3750:3VHHR074H4OVVBAIJQ6W9UMGLX77L2", "dateTime": 1521225670161}, {"current_trial": 86, "trialdata": {"rt": -1, "trial_type": "single-stim", "stimulus": "<p id=\"stim\">2</p>", "internal_node_id": "0.0-60.0-8.0", "time_elapsed": 468644, "key_press": -1, "trial_index": 86}, "uniqueid": "MTK3750:3VHHR074H4OVVBAIJQ6W9UMGLX77L2", "dateTime": 1521225671163}, {"current_trial": 87, "trialdata": {"rt": -1, "trial_type": "single-stim", "stimulus": "<p id=\"stim\">1</p>", "internal_node_id": "0.0-60.0-9.0", "time_elapsed": 469645, "key_press": -1, "trial_index": 87}, "uniqueid": "MTK3750:3VHHR074H4OVVBAIJQ6W9UMGLX77L2", "dateTime": 1521225672164}, {"current_trial": 88, "trialdata": {"rt": -1, "trial_type": "single-stim", "stimulus": "<p id=\"stim\">+</p>", "internal_node_id": "0.0-61.0-0.0", "time_elapsed": 471150, "key_press": -1, "type": "FIXATION", "trial_index": 88}, "uniqueid": "MTK3750:3VHHR074H4OVVBAIJQ6W9UMGLX77L2", "dateTime": 1521225673670}, {"current_trial": 89, "trialdata": {"rt": -1, "trial_type": "single-stim", "word": "shoulder", "stimulus": "<p id=\"stim\">SHOULDER</p>", "conditions": [12, 800, "v", 24000], "internal_node_id": "0.0-62.0", "trial": 2, "time_elapsed": 471952, "serialpos": 0, "key_press": -1, "wordID": 1293, "type": "PRES_VIS", "trial_index": 89}, "uniqueid": "MTK3750:3VHHR074H4OVVBAIJQ6W9UMGLX77L2", "dateTime": 1521225674471}, {"current_trial": 90, "trialdata": {"rt": -1, "trial_type": "single-stim", "word": "custard", "stimulus": "<p id=\"stim\">CUSTARD</p>", "conditions": [12, 800, "v", 24000], "internal_node_id": "0.0-63.0", "trial": 2, "time_elapsed": 473616, "serialpos": 1, "key_press": -1, "wordID": 428, "type": "PRES_VIS", "trial_index": 90}, "uniqueid": "MTK3750:3VHHR074H4OVVBAIJQ6W9UMGLX77L2", "dateTime": 1521225676136}, {"current_trial": 91, "trialdata": {"rt": -1, "trial_type": "single-stim", "word": "sausage", "stimulus": "<p id=\"stim\">SAUSAGE</p>", "conditions": [12, 800, "v", 24000], "internal_node_id": "0.0-64.0", "trial": 2, "time_elapsed": 475330, "serialpos": 2, "key_press": -1, "wordID": 1237, "type": "PRES_VIS", "trial_index": 91}, "uniqueid": "MTK3750:3VHHR074H4OVVBAIJQ6W9UMGLX77L2", "dateTime": 1521225677849}, {"current_trial": 92, "trialdata": {"rt": -1, "trial_type": "single-stim", "word": "elbow", "stimulus": "<p id=\"stim\">ELBOW</p>", "conditions": [12, 800, "v", 24000], "internal_node_id": "0.0-65.0", "trial": 2, "time_elapsed": 477252, "serialpos": 3, "key_press": -1, "wordID": 519, "type": "PRES_VIS", "trial_index": 92}, "uniqueid": "MTK3750:3VHHR074H4OVVBAIJQ6W9UMGLX77L2", "dateTime": 1521225679771}, {"current_trial": 93, "trialdata": {"rt": -1, "trial_type": "single-stim", "word": "piano", "stimulus": "<p id=\"stim\">PIANO</p>", "conditions": [12, 800, "v", 24000], "internal_node_id": "0.0-66.0", "trial": 2, "time_elapsed": 478939, "serialpos": 4, "key_press": -1, "wordID": 1056, "type": "PRES_VIS", "trial_index": 93}, "uniqueid": "MTK3750:3VHHR074H4OVVBAIJQ6W9UMGLX77L2", "dateTime": 1521225681458}, {"current_trial": 94, "trialdata": {"rt": -1, "trial_type": "single-stim", "word": "orange", "stimulus": "<p id=\"stim\">ORANGE</p>", "conditions": [12, 800, "v", 24000], "internal_node_id": "0.0-67.0", "trial": 2, "time_elapsed": 480756, "serialpos": 5, "key_press": -1, "wordID": 979, "type": "PRES_VIS", "trial_index": 94}, "uniqueid": "MTK3750:3VHHR074H4OVVBAIJQ6W9UMGLX77L2", "dateTime": 1521225683275}, {"current_trial": 95, "trialdata": {"rt": -1, "trial_type": "single-stim", "word": "mailman", "stimulus": "<p id=\"stim\">MAILMAN</p>", "conditions": [12, 800, "v", 24000], "internal_node_id": "0.0-68.0", "trial": 2, "time_elapsed": 482479, "serialpos": 6, "key_press": -1, "wordID": 857, "type": "PRES_VIS", "trial_index": 95}, "uniqueid": "MTK3750:3VHHR074H4OVVBAIJQ6W9UMGLX77L2", "dateTime": 1521225684998}, {"current_trial": 96, "trialdata": {"rt": -1, "trial_type": "single-stim", "word": "arm", "stimulus": "<p id=\"stim\">ARM</p>", "conditions": [12, 800, "v", 24000], "internal_node_id": "0.0-69.0", "trial": 2, "time_elapsed": 484214, "serialpos": 7, "key_press": -1, "wordID": 37, "type": "PRES_VIS", "trial_index": 96}, "uniqueid": "MTK3750:3VHHR074H4OVVBAIJQ6W9UMGLX77L2", "dateTime": 1521225686733}, {"current_trial": 97, "trialdata": {"rt": -1, "trial_type": "single-stim", "word": "bison", "stimulus": "<p id=\"stim\">BISON</p>", "conditions": [12, 800, "v", 24000], "internal_node_id": "0.0-70.0", "trial": 2, "time_elapsed": 486074, "serialpos": 8, "key_press": -1, "wordID": 130, "type": "PRES_VIS", "trial_index": 97}, "uniqueid": "MTK3750:3VHHR074H4OVVBAIJQ6W9UMGLX77L2", "dateTime": 1521225688594}, {"current_trial": 98, "trialdata": {"rt": -1, "trial_type": "single-stim", "word": "dolphin", "stimulus": "<p id=\"stim\">DOLPHIN</p>", "conditions": [12, 800, "v", 24000], "internal_node_id": "0.0-71.0", "trial": 2, "time_elapsed": 487995, "serialpos": 9, "key_press": -1, "wordID": 482, "type": "PRES_VIS", "trial_index": 98}, "uniqueid": "MTK3750:3VHHR074H4OVVBAIJQ6W9UMGLX77L2", "dateTime": 1521225690515}, {"current_trial": 99, "trialdata": {"rt": -1, "trial_type": "single-stim", "word": "marsh", "stimulus": "<p id=\"stim\">MARSH</p>", "conditions": [12, 800, "v", 24000], "internal_node_id": "0.0-72.0", "trial": 2, "time_elapsed": 489841, "serialpos": 10, "key_press": -1, "wordID": 873, "type": "PRES_VIS", "trial_index": 99}, "uniqueid": "MTK3750:3VHHR074H4OVVBAIJQ6W9UMGLX77L2", "dateTime": 1521225692361}, {"current_trial": 100, "trialdata": {"rt": -1, "trial_type": "single-stim", "word": "cattle", "stimulus": "<p id=\"stim\">CATTLE</p>", "conditions": [12, 800, "v", 24000], "internal_node_id": "0.0-73.0", "trial": 2, "time_elapsed": 491593, "serialpos": 11, "key_press": -1, "wordID": 260, "type": "PRES_VIS", "trial_index": 100}, "uniqueid": "MTK3750:3VHHR074H4OVVBAIJQ6W9UMGLX77L2", "dateTime": 1521225694113}, {"current_trial": 101, "trialdata": {"rt": -1, "trial_type": "single-stim", "stimulus": "", "internal_node_id": "0.0-74.0-0.0", "time_elapsed": 494033, "key_press": -1, "type": "PRE_RECALL_DELAY", "trial_index": 101}, "uniqueid": "MTK3750:3VHHR074H4OVVBAIJQ6W9UMGLX77L2", "dateTime": 1521225696552}, {"current_trial": 102, "trialdata": {"rt": -1000, "trial_type": "single-audio", "stimulus": "/static/audio/400Hz.wav", "internal_node_id": "0.0-75.0", "time_elapsed": 494533, "key_press": -1, "type": "PRE_RECALL_ALERT", "trial_index": 102}, "uniqueid": "MTK3750:3VHHR074H4OVVBAIJQ6W9UMGLX77L2", "dateTime": 1521225697052}, {"current_trial": 103, "trialdata": {"rt": [2546, 3994, 5263, 6954, 51305], "recwords": ["cattle", "dolphin", "marsh", "shoulder", "custard"], "key_times": [1381, 1508, 1740, 1885, 1995, 2125, 2546, 2773, 2841, 3035, 3298, 3431, 3574, 3649, 3994, 4228, 4339, 4471, 4642, 4748, 5263, 5473, 5555, 5659, 5807, 5919, 6051, 6163, 6278, 6954, 50030, 50146, 50242, 50433, 50567, 50685, 50960, 51305], "trial_type": "free-recall", "conditions": [12, 800, "v", 24000], "internal_node_id": "0.0-76.0-0.0", "key_presses": [67, 65, 84, 84, 76, 69, 13, 68, 79, 76, 80, 72, 73, 78, 13, 77, 65, 82, 83, 72, 13, 83, 72, 79, 85, 76, 68, 69, 82, 13, 67, 85, 83, 84, 65, 82, 68, 13], "trial": 2, "time_elapsed": 554543, "type": "FREE_RECALL", "trial_index": 103}, "uniqueid": "MTK3750:3VHHR074H4OVVBAIJQ6W9UMGLX77L2", "dateTime": 1521225757063}, {"current_trial": 104, "trialdata": {"rt": 1602, "trial_type": "text", "internal_node_id": "0.0-77.0", "time_elapsed": 558148, "key_press": 32, "type": "INSTRUCTIONS", "trial_index": 104}, "uniqueid": "MTK3750:3VHHR074H4OVVBAIJQ6W9UMGLX77L2", "dateTime": 1521225760667}, {"current_trial": 105, "trialdata": {"rt": [1779, 3687, 6048, 7671, 9616, 11060, 12808, 16026, 17964, 20718, 22490], "trial_type": "math-distractor", "key_times": [1398, 1574, 1779, 3293, 3461, 3687, 5378, 5947, 6048, 7185, 7497, 7671, 9297, 9434, 9616, 10653, 10964, 11060, 12352, 12662, 12808, 14967, 15800, 16026, 17708, 17862, 17964, 20327, 20493, 20718, 22042, 22307, 22490], "responses": ["22", "11", "17", "17", "21", "14", "13", "24", "22", "25", "19"], "num2": [4, 1, 9, 3, 9, 7, 6, 8, 8, 8, 9, 2], "num3": [9, 8, 4, 9, 4, 2, 6, 7, 8, 9, 1, 9], "conditions": [24, 1600, "v", 24000], "internal_node_id": "0.0-78.0", "key_presses": [50, 50, 13, 49, 49, 13, 49, 55, 13, 49, 55, 13, 50, 49, 13, 49, 52, 13, 49, 51, 13, 50, 52, 13, 50, 50, 13, 50, 53, 13, 49, 57, 13], "trial": 3, "time_elapsed": 584153, "type": "DISTRACTOR", "trial_index": 105, "num1": [9, 2, 4, 5, 8, 5, 1, 9, 6, 8, 9, 6]}, "uniqueid": "MTK3750:3VHHR074H4OVVBAIJQ6W9UMGLX77L2", "dateTime": 1521225786672}, {"current_trial": 106, "trialdata": {"rt": -1, "trial_type": "single-stim", "stimulus": "<p id=\"stim\">10</p>", "internal_node_id": "0.0-79.0-0.0", "time_elapsed": 587163, "key_press": -1, "trial_index": 106}, "uniqueid": "MTK3750:3VHHR074H4OVVBAIJQ6W9UMGLX77L2", "dateTime": 1521225789682}, {"current_trial": 107, "trialdata": {"rt": -1, "trial_type": "single-stim", "stimulus": "<p id=\"stim\">9</p>", "internal_node_id": "0.0-79.0-1.0", "time_elapsed": 588167, "key_press": -1, "trial_index": 107}, "uniqueid": "MTK3750:3VHHR074H4OVVBAIJQ6W9UMGLX77L2", "dateTime": 1521225790686}, {"current_trial": 108, "trialdata": {"rt": -1, "trial_type": "single-stim", "stimulus": "<p id=\"stim\">8</p>", "internal_node_id": "0.0-79.0-2.0", "time_elapsed": 589171, "key_press": -1, "trial_index": 108}, "uniqueid": "MTK3750:3VHHR074H4OVVBAIJQ6W9UMGLX77L2", "dateTime": 1521225791690}, {"current_trial": 109, "trialdata": {"rt": -1, "trial_type": "single-stim", "stimulus": "<p id=\"stim\">7</p>", "internal_node_id": "0.0-79.0-3.0", "time_elapsed": 590176, "key_press": -1, "trial_index": 109}, "uniqueid": "MTK3750:3VHHR074H4OVVBAIJQ6W9UMGLX77L2", "dateTime": 1521225792695}, {"current_trial": 110, "trialdata": {"rt": -1, "trial_type": "single-stim", "stimulus": "<p id=\"stim\">6</p>", "internal_node_id": "0.0-79.0-4.0", "time_elapsed": 591180, "key_press": -1, "trial_index": 110}, "uniqueid": "MTK3750:3VHHR074H4OVVBAIJQ6W9UMGLX77L2", "dateTime": 1521225793700}, {"current_trial": 111, "trialdata": {"rt": -1, "trial_type": "single-stim", "stimulus": "<p id=\"stim\">5</p>", "internal_node_id": "0.0-79.0-5.0", "time_elapsed": 592184, "key_press": -1, "trial_index": 111}, "uniqueid": "MTK3750:3VHHR074H4OVVBAIJQ6W9UMGLX77L2", "dateTime": 1521225794703}, {"current_trial": 112, "trialdata": {"rt": -1, "trial_type": "single-stim", "stimulus": "<p id=\"stim\">4</p>", "internal_node_id": "0.0-79.0-6.0", "time_elapsed": 593189, "key_press": -1, "trial_index": 112}, "uniqueid": "MTK3750:3VHHR074H4OVVBAIJQ6W9UMGLX77L2", "dateTime": 1521225795708}, {"current_trial": 113, "trialdata": {"rt": -1, "trial_type": "single-stim", "stimulus": "<p id=\"stim\">3</p>", "internal_node_id": "0.0-79.0-7.0", "time_elapsed": 594192, "key_press": -1, "trial_index": 113}, "uniqueid": "MTK3750:3VHHR074H4OVVBAIJQ6W9UMGLX77L2", "dateTime": 1521225796711}, {"current_trial": 114, "trialdata": {"rt": -1, "trial_type": "single-stim", "stimulus": "<p id=\"stim\">2</p>", "internal_node_id": "0.0-79.0-8.0", "time_elapsed": 595198, "key_press": -1, "trial_index": 114}, "uniqueid": "MTK3750:3VHHR074H4OVVBAIJQ6W9UMGLX77L2", "dateTime": 1521225797718}, {"current_trial": 115, "trialdata": {"rt": -1, "trial_type": "single-stim", "stimulus": "<p id=\"stim\">1</p>", "internal_node_id": "0.0-79.0-9.0", "time_elapsed": 596204, "key_press": -1, "trial_index": 115}, "uniqueid": "MTK3750:3VHHR074H4OVVBAIJQ6W9UMGLX77L2", "dateTime": 1521225798724}, {"current_trial": 116, "trialdata": {"rt": -1, "trial_type": "single-stim", "stimulus": "<p id=\"stim\">+</p>", "internal_node_id": "0.0-80.0-0.0", "time_elapsed": 597710, "key_press": -1, "type": "FIXATION", "trial_index": 116}, "uniqueid": "MTK3750:3VHHR074H4OVVBAIJQ6W9UMGLX77L2", "dateTime": 1521225800229}, {"current_trial": 117, "trialdata": {"rt": -1, "trial_type": "single-stim", "word": "drawing", "stimulus": "<p id=\"stim\">DRAWING</p>", "conditions": [24, 1600, "v", 24000], "internal_node_id": "0.0-81.0", "trial": 3, "time_elapsed": 599316, "serialpos": 0, "key_press": -1, "wordID": 493, "type": "PRES_VIS", "trial_index": 117}, "uniqueid": "MTK3750:3VHHR074H4OVVBAIJQ6W9UMGLX77L2", "dateTime": 1521225801835}, {"current_trial": 118, "trialdata": {"rt": -1, "trial_type": "single-stim", "word": "shovel", "stimulus": "<p id=\"stim\">SHOVEL</p>", "conditions": [24, 1600, "v", 24000], "internal_node_id": "0.0-82.0", "trial": 3, "time_elapsed": 602086, "serialpos": 1, "key_press": -1, "wordID": 1294, "type": "PRES_VIS", "trial_index": 118}, "uniqueid": "MTK3750:3VHHR074H4OVVBAIJQ6W9UMGLX77L2", "dateTime": 1521225804605}, {"current_trial": 119, "trialdata": {"rt": -1, "trial_type": "single-stim", "word": "actor", "stimulus": "<p id=\"stim\">ACTOR</p>", "conditions": [24, 1600, "v", 24000], "internal_node_id": "0.0-83.0", "trial": 3, "time_elapsed": 604854, "serialpos": 2, "key_press": -1, "wordID": 4, "type": "PRES_VIS", "trial_index": 119}, "uniqueid": "MTK3750:3VHHR074H4OVVBAIJQ6W9UMGLX77L2", "dateTime": 1521225807374}, {"current_trial": 120, "trialdata": {"rt": -1, "trial_type": "single-stim", "word": "toaster", "stimulus": "<p id=\"stim\">TOASTER</p>", "conditions": [24, 1600, "v", 24000], "internal_node_id": "0.0-84.0", "trial": 3, "time_elapsed": 607616, "serialpos": 3, "key_press": -1, "wordID": 1471, "type": "PRES_VIS", "trial_index": 120}, "uniqueid": "MTK3750:3VHHR074H4OVVBAIJQ6W9UMGLX77L2", "dateTime": 1521225810135}, {"current_trial": 121, "trialdata": {"rt": -1, "trial_type": "single-stim", "word": "glass", "stimulus": "<p id=\"stim\">GLASS</p>", "conditions": [24, 1600, "v", 24000], "internal_node_id": "0.0-85.0", "trial": 3, "time_elapsed": 610247, "serialpos": 4, "key_press": -1, "wordID": 638, "type": "PRES_VIS", "trial_index": 121}, "uniqueid": "MTK3750:3VHHR074H4OVVBAIJQ6W9UMGLX77L2", "dateTime": 1521225812766}, {"current_trial": 122, "trialdata": {"rt": -1, "trial_type": "single-stim", "word": "actress", "stimulus": "<p id=\"stim\">ACTRESS</p>", "conditions": [24, 1600, "v", 24000], "internal_node_id": "0.0-86.0", "trial": 3, "time_elapsed": 612882, "serialpos": 5, "key_press": -1, "wordID": 5, "type": "PRES_VIS", "trial_index": 122}, "uniqueid": "MTK3750:3VHHR074H4OVVBAIJQ6W9UMGLX77L2", "dateTime": 1521225815401}, {"current_trial": 123, "trialdata": {"rt": -1, "trial_type": "single-stim", "word": "asia", "stimulus": "<p id=\"stim\">ASIA</p>", "conditions": [24, 1600, "v", 24000], "internal_node_id": "0.0-87.0", "trial": 3, "time_elapsed": 615645, "serialpos": 6, "key_press": -1, "wordID": 45, "type": "PRES_VIS", "trial_index": 123}, "uniqueid": "MTK3750:3VHHR074H4OVVBAIJQ6W9UMGLX77L2", "dateTime": 1521225818164}, {"current_trial": 124, "trialdata": {"rt": -1, "trial_type": "single-stim", "word": "europe", "stimulus": "<p id=\"stim\">EUROPE</p>", "conditions": [24, 1600, "v", 24000], "internal_node_id": "0.0-88.0", "trial": 3, "time_elapsed": 618362, "serialpos": 7, "key_press": -1, "wordID": 540, "type": "PRES_VIS", "trial_index": 124}, "uniqueid": "MTK3750:3VHHR074H4OVVBAIJQ6W9UMGLX77L2", "dateTime": 1521225820881}, {"current_trial": 125, "trialdata": {"rt": -1, "trial_type": "single-stim", "word": "braces", "stimulus": "<p id=\"stim\">BRACES</p>", "conditions": [24, 1600, "v", 24000], "internal_node_id": "0.0-89.0", "trial": 3, "time_elapsed": 621054, "serialpos": 8, "key_press": -1, "wordID": 163, "type": "PRES_VIS", "trial_index": 125}, "uniqueid": "MTK3750:3VHHR074H4OVVBAIJQ6W9UMGLX77L2", "dateTime": 1521225823573}, {"current_trial": 126, "trialdata": {"rt": -1, "trial_type": "single-stim", "word": "flask", "stimulus": "<p id=\"stim\">FLASK</p>", "conditions": [24, 1600, "v", 24000], "internal_node_id": "0.0-90.0", "trial": 3, "time_elapsed": 623786, "serialpos": 9, "key_press": -1, "wordID": 575, "type": "PRES_VIS", "trial_index": 126}, "uniqueid": "MTK3750:3VHHR074H4OVVBAIJQ6W9UMGLX77L2", "dateTime": 1521225826305}, {"current_trial": 127, "trialdata": {"rt": -1, "trial_type": "single-stim", "word": "snack", "stimulus": "<p id=\"stim\">SNACK</p>", "conditions": [24, 1600, "v", 24000], "internal_node_id": "0.0-91.0", "trial": 3, "time_elapsed": 626259, "serialpos": 10, "key_press": -1, "wordID": 1330, "type": "PRES_VIS", "trial_index": 127}, "uniqueid": "MTK3750:3VHHR074H4OVVBAIJQ6W9UMGLX77L2", "dateTime": 1521225828779}, {"current_trial": 128, "trialdata": {"rt": -1, "trial_type": "single-stim", "word": "dust", "stimulus": "<p id=\"stim\">DUST</p>", "conditions": [24, 1600, "v", 24000], "internal_node_id": "0.0-92.0", "trial": 3, "time_elapsed": 629029, "serialpos": 11, "key_press": -1, "wordID": 507, "type": "PRES_VIS", "trial_index": 128}, "uniqueid": "MTK3750:3VHHR074H4OVVBAIJQ6W9UMGLX77L2", "dateTime": 1521225831548}, {"current_trial": 129, "trialdata": {"rt": -1, "trial_type": "single-stim", "word": "glove", "stimulus": "<p id=\"stim\">GLOVE</p>", "conditions": [24, 1600, "v", 24000], "internal_node_id": "0.0-93.0", "trial": 3, "time_elapsed": 631571, "serialpos": 12, "key_press": -1, "wordID": 641, "type": "PRES_VIS", "trial_index": 129}, "uniqueid": "MTK3750:3VHHR074H4OVVBAIJQ6W9UMGLX77L2", "dateTime": 1521225834090}, {"current_trial": 130, "trialdata": {"rt": -1, "trial_type": "single-stim", "word": "xerox", "stimulus": "<p id=\"stim\">XEROX</p>", "conditions": [24, 1600, "v", 24000], "internal_node_id": "0.0-94.0", "trial": 3, "time_elapsed": 634289, "serialpos": 13, "key_press": -1, "wordID": 1627, "type": "PRES_VIS", "trial_index": 130}, "uniqueid": "MTK3750:3VHHR074H4OVVBAIJQ6W9UMGLX77L2", "dateTime": 1521225836808}, {"current_trial": 131, "trialdata": {"rt": -1, "trial_type": "single-stim", "word": "passage", "stimulus": "<p id=\"stim\">PASSAGE</p>", "conditions": [24, 1600, "v", 24000], "internal_node_id": "0.0-95.0", "trial": 3, "time_elapsed": 637031, "serialpos": 14, "key_press": -1, "wordID": 1018, "type": "PRES_VIS", "trial_index": 131}, "uniqueid": "MTK3750:3VHHR074H4OVVBAIJQ6W9UMGLX77L2", "dateTime": 1521225839550}, {"current_trial": 132, "trialdata": {"rt": -1, "trial_type": "single-stim", "word": "dandruff", "stimulus": "<p id=\"stim\">DANDRUFF</p>", "conditions": [24, 1600, "v", 24000], "internal_node_id": "0.0-96.0", "trial": 3, "time_elapsed": 639827, "serialpos": 15, "key_press": -1, "wordID": 438, "type": "PRES_VIS", "trial_index": 132}, "uniqueid": "MTK3750:3VHHR074H4OVVBAIJQ6W9UMGLX77L2", "dateTime": 1521225842346}, {"current_trial": 133, "trialdata": {"rt": -1, "trial_type": "single-stim", "word": "kleenex", "stimulus": "<p id=\"stim\">KLEENEX</p>", "conditions": [24, 1600, "v", 24000], "internal_node_id": "0.0-97.0", "trial": 3, "time_elapsed": 642467, "serialpos": 16, "key_press": -1, "wordID": 781, "type": "PRES_VIS", "trial_index": 133}, "uniqueid": "MTK3750:3VHHR074H4OVVBAIJQ6W9UMGLX77L2", "dateTime": 1521225844986}, {"current_trial": 134, "trialdata": {"rt": -1, "trial_type": "single-stim", "word": "princess", "stimulus": "<p id=\"stim\">PRINCESS</p>", "conditions": [24, 1600, "v", 24000], "internal_node_id": "0.0-98.0", "trial": 3, "time_elapsed": 645223, "serialpos": 17, "key_press": -1, "wordID": 1124, "type": "PRES_VIS", "trial_index": 134}, "uniqueid": "MTK3750:3VHHR074H4OVVBAIJQ6W9UMGLX77L2", "dateTime": 1521225847743}, {"current_trial": 135, "trialdata": {"rt": -1, "trial_type": "single-stim", "word": "wife", "stimulus": "<p id=\"stim\">WIFE</p>", "conditions": [24, 1600, "v", 24000], "internal_node_id": "0.0-99.0", "trial": 3, "time_elapsed": 647916, "serialpos": 18, "key_press": -1, "wordID": 1608, "type": "PRES_VIS", "trial_index": 135}, "uniqueid": "MTK3750:3VHHR074H4OVVBAIJQ6W9UMGLX77L2", "dateTime": 1521225850435}, {"current_trial": 136, "trialdata": {"rt": -1, "trial_type": "single-stim", "word": "country", "stimulus": "<p id=\"stim\">COUNTRY</p>", "conditions": [24, 1600, "v", 24000], "internal_node_id": "0.0-100.0", "trial": 3, "time_elapsed": 650491, "serialpos": 19, "key_press": -1, "wordID": 387, "type": "PRES_VIS", "trial_index": 136}, "uniqueid": "MTK3750:3VHHR074H4OVVBAIJQ6W9UMGLX77L2", "dateTime": 1521225853011}, {"current_trial": 137, "trialdata": {"rt": -1, "trial_type": "single-stim", "word": "world", "stimulus": "<p id=\"stim\">WORLD</p>", "conditions": [24, 1600, "v", 24000], "internal_node_id": "0.0-101.0", "trial": 3, "time_elapsed": 653123, "serialpos": 20, "key_press": -1, "wordID": 1621, "type": "PRES_VIS", "trial_index": 137}, "uniqueid": "MTK3750:3VHHR074H4OVVBAIJQ6W9UMGLX77L2", "dateTime": 1521225855642}, {"current_trial": 138, "trialdata": {"rt": -1, "trial_type": "single-stim", "word": "perch", "stimulus": "<p id=\"stim\">PERCH</p>", "conditions": [24, 1600, "v", 24000], "internal_node_id": "0.0-102.0", "trial": 3, "time_elapsed": 655739, "serialpos": 21, "key_press": -1, "wordID": 1047, "type": "PRES_VIS", "trial_index": 138}, "uniqueid": "MTK3750:3VHHR074H4OVVBAIJQ6W9UMGLX77L2", "dateTime": 1521225858259}, {"current_trial": 139, "trialdata": {"rt": -1, "trial_type": "single-stim", "word": "liver", "stimulus": "<p id=\"stim\">LIVER</p>", "conditions": [24, 1600, "v", 24000], "internal_node_id": "0.0-103.0", "trial": 3, "time_elapsed": 658486, "serialpos": 22, "key_press": -1, "wordID": 832, "type": "PRES_VIS", "trial_index": 139}, "uniqueid": "MTK3750:3VHHR074H4OVVBAIJQ6W9UMGLX77L2", "dateTime": 1521225861005}, {"current_trial": 140, "trialdata": {"rt": -1, "trial_type": "single-stim", "word": "queen", "stimulus": "<p id=\"stim\">QUEEN</p>", "conditions": [24, 1600, "v", 24000], "internal_node_id": "0.0-104.0", "trial": 3, "time_elapsed": 661232, "serialpos": 23, "key_press": -1, "wordID": 1148, "type": "PRES_VIS", "trial_index": 140}, "uniqueid": "MTK3750:3VHHR074H4OVVBAIJQ6W9UMGLX77L2", "dateTime": 1521225863751}, {"current_trial": 141, "trialdata": {"rt": -1, "trial_type": "single-stim", "stimulus": "", "internal_node_id": "0.0-105.0-0.0", "time_elapsed": 663426, "key_press": -1, "type": "PRE_RECALL_DELAY", "trial_index": 141}, "uniqueid": "MTK3750:3VHHR074H4OVVBAIJQ6W9UMGLX77L2", "dateTime": 1521225865945}, {"current_trial": 142, "trialdata": {"rt": -1000, "trial_type": "single-audio", "stimulus": "/static/audio/400Hz.wav", "internal_node_id": "0.0-106.0", "time_elapsed": 663926, "key_press": -1, "type": "PRE_RECALL_ALERT", "trial_index": 142}, "uniqueid": "MTK3750:3VHHR074H4OVVBAIJQ6W9UMGLX77L2", "dateTime": 1521225866445}, {"current_trial": 143, "trialdata": {"rt": [1363, 2576, 3520, 5388, 7054, 8390, 9431, 10658, 12112, 17934, 19669, 21968, 25516, 27677], "recwords": ["perch", "liver", "queen", "princess", "wife", "country", "world", "asia", "europe", "kleenex", "xerox", "dandruff", "actor", "actress"], "key_times": [605, 702, 754, 977, 1056, 1363, 1866, 2075, 2138, 2265, 2373, 2576, 2833, 2939, 3046, 3189, 3261, 3520, 3757, 3894, 4024, 4088, 4191, 4279, 4452, 4605, 5388, 6079, 6530, 6654, 6701, 7054, 7353, 7408, 7570, 7815, 7926, 8013, 8149, 8390, 8534, 8665, 8796, 8938, 9054, 9431, 9959, 10173, 10286, 10390, 10658, 11005, 11138, 11252, 11372, 11552, 11654, 12112, 16585, 16737, 16893, 17030, 17148, 17249, 17462, 17934, 18680, 19026, 19101, 19233, 19370, 19669, 19914, 20022, 20075, 20625, 20817, 20922, 21386, 21577, 21968, 24633, 24866, 25115, 25219, 25307, 25516, 25688, 25869, 26124, 26487, 26633, 26798, 26951, 27677], "trial_type": "free-recall", "conditions": [24, 1600, "v", 24000], "internal_node_id": "0.0-107.0-0.0", "key_presses": [80, 69, 82, 67, 72, 13, 76, 73, 86, 69, 82, 13, 81, 85, 69, 69, 78, 13, 80, 82, 73, 78, 67, 69, 83, 83, 13, 87, 73, 70, 69, 13, 67, 79, 85, 78, 84, 82, 89, 13, 87, 79, 82, 76, 68, 13, 65, 83, 73, 65, 13, 69, 85, 82, 79, 80, 69, 13, 75, 76, 69, 69, 78, 69, 88, 13, 88, 69, 82, 79, 88, 13, 68, 65, 78, 68, 82, 85, 70, 70, 13, 65, 67, 84, 79, 82, 13, 65, 67, 84, 82, 69, 83, 83, 13], "trial": 3, "time_elapsed": 723933, "type": "FREE_RECALL", "trial_index": 143}, "uniqueid": "MTK3750:3VHHR074H4OVVBAIJQ6W9UMGLX77L2", "dateTime": 1521225926454}, {"current_trial": 144, "trialdata": {"rt": 53883, "trial_type": "text", "internal_node_id": "0.0-108.0", "time_elapsed": 779824, "key_press": 32, "type": "INSTRUCTIONS", "trial_index": 144}, "uniqueid": "MTK3750:3VHHR074H4OVVBAIJQ6W9UMGLX77L2", "dateTime": 1521225982343}, {"current_trial": 145, "trialdata": {"rt": [2418, 3930, 5664, 7181, 8925, 10494], "trial_type": "math-distractor", "key_times": [2017, 2166, 2418, 3547, 3776, 3930, 5088, 5512, 5664, 7062, 7181, 8435, 8759, 8925, 10026, 10293, 10494, 11867], "responses": ["15", "16", "17", "7", "18", "12"], "num2": [9, 6, 8, 1, 9, 1, 9], "num3": [4, 6, 5, 2, 5, 5, 1], "conditions": [24, 800, "v", 12000], "internal_node_id": "0.0-109.0", "key_presses": [49, 53, 13, 49, 54, 13, 49, 55, 13, 55, 13, 49, 56, 13, 49, 50, 13, 49], "trial": 4, "time_elapsed": 793834, "type": "DISTRACTOR", "trial_index": 145, "num1": [2, 4, 4, 4, 4, 6, 9]}, "uniqueid": "MTK3750:3VHHR074H4OVVBAIJQ6W9UMGLX77L2", "dateTime": 1521225996353}, {"current_trial": 146, "trialdata": {"rt": -1, "trial_type": "single-stim", "stimulus": "<p id=\"stim\">10</p>", "internal_node_id": "0.0-110.0-0.0", "time_elapsed": 796840, "key_press": -1, "trial_index": 146}, "uniqueid": "MTK3750:3VHHR074H4OVVBAIJQ6W9UMGLX77L2", "dateTime": 1521225999360}, {"current_trial": 147, "trialdata": {"rt": -1, "trial_type": "single-stim", "stimulus": "<p id=\"stim\">9</p>", "internal_node_id": "0.0-110.0-1.0", "time_elapsed": 797844, "key_press": -1, "trial_index": 147}, "uniqueid": "MTK3750:3VHHR074H4OVVBAIJQ6W9UMGLX77L2", "dateTime": 1521226000363}, {"current_trial": 148, "trialdata": {"rt": -1, "trial_type": "single-stim", "stimulus": "<p id=\"stim\">8</p>", "internal_node_id": "0.0-110.0-2.0", "time_elapsed": 798848, "key_press": -1, "trial_index": 148}, "uniqueid": "MTK3750:3VHHR074H4OVVBAIJQ6W9UMGLX77L2", "dateTime": 1521226001367}, {"current_trial": 149, "trialdata": {"rt": -1, "trial_type": "single-stim", "stimulus": "<p id=\"stim\">7</p>", "internal_node_id": "0.0-110.0-3.0", "time_elapsed": 799851, "key_press": -1, "trial_index": 149}, "uniqueid": "MTK3750:3VHHR074H4OVVBAIJQ6W9UMGLX77L2", "dateTime": 1521226002371}, {"current_trial": 150, "trialdata": {"rt": -1, "trial_type": "single-stim", "stimulus": "<p id=\"stim\">6</p>", "internal_node_id": "0.0-110.0-4.0", "time_elapsed": 800856, "key_press": -1, "trial_index": 150}, "uniqueid": "MTK3750:3VHHR074H4OVVBAIJQ6W9UMGLX77L2", "dateTime": 1521226003375}, {"current_trial": 151, "trialdata": {"rt": -1, "trial_type": "single-stim", "stimulus": "<p id=\"stim\">5</p>", "internal_node_id": "0.0-110.0-5.0", "time_elapsed": 801861, "key_press": -1, "trial_index": 151}, "uniqueid": "MTK3750:3VHHR074H4OVVBAIJQ6W9UMGLX77L2", "dateTime": 1521226004380}, {"current_trial": 152, "trialdata": {"rt": -1, "trial_type": "single-stim", "stimulus": "<p id=\"stim\">4</p>", "internal_node_id": "0.0-110.0-6.0", "time_elapsed": 802865, "key_press": -1, "trial_index": 152}, "uniqueid": "MTK3750:3VHHR074H4OVVBAIJQ6W9UMGLX77L2", "dateTime": 1521226005384}, {"current_trial": 153, "trialdata": {"rt": -1, "trial_type": "single-stim", "stimulus": "<p id=\"stim\">3</p>", "internal_node_id": "0.0-110.0-7.0", "time_elapsed": 803869, "key_press": -1, "trial_index": 153}, "uniqueid": "MTK3750:3VHHR074H4OVVBAIJQ6W9UMGLX77L2", "dateTime": 1521226006388}, {"current_trial": 154, "trialdata": {"rt": -1, "trial_type": "single-stim", "stimulus": "<p id=\"stim\">2</p>", "internal_node_id": "0.0-110.0-8.0", "time_elapsed": 804873, "key_press": -1, "trial_index": 154}, "uniqueid": "MTK3750:3VHHR074H4OVVBAIJQ6W9UMGLX77L2", "dateTime": 1521226007392}, {"current_trial": 155, "trialdata": {"rt": -1, "trial_type": "single-stim", "stimulus": "<p id=\"stim\">1</p>", "internal_node_id": "0.0-110.0-9.0", "time_elapsed": 805877, "key_press": -1, "trial_index": 155}, "uniqueid": "MTK3750:3VHHR074H4OVVBAIJQ6W9UMGLX77L2", "dateTime": 1521226008396}, {"current_trial": 156, "trialdata": {"rt": -1, "trial_type": "single-stim", "stimulus": "<p id=\"stim\">+</p>", "internal_node_id": "0.0-111.0-0.0", "time_elapsed": 807380, "key_press": -1, "type": "FIXATION", "trial_index": 156}, "uniqueid": "MTK3750:3VHHR074H4OVVBAIJQ6W9UMGLX77L2", "dateTime": 1521226009900}, {"current_trial": 157, "trialdata": {"rt": -1, "trial_type": "single-stim", "word": "turkey", "stimulus": "<p id=\"stim\">TURKEY</p>", "conditions": [24, 800, "v", 12000], "internal_node_id": "0.0-112.0", "trial": 4, "time_elapsed": 808184, "serialpos": 0, "key_press": -1, "wordID": 1519, "type": "PRES_VIS", "trial_index": 157}, "uniqueid": "MTK3750:3VHHR074H4OVVBAIJQ6W9UMGLX77L2", "dateTime": 1521226010703}, {"current_trial": 158, "trialdata": {"rt": -1, "trial_type": "single-stim", "word": "judge", "stimulus": "<p id=\"stim\">JUDGE</p>", "conditions": [24, 800, "v", 12000], "internal_node_id": "0.0-113.0", "trial": 4, "time_elapsed": 810181, "serialpos": 1, "key_press": -1, "wordID": 760, "type": "PRES_VIS", "trial_index": 158}, "uniqueid": "MTK3750:3VHHR074H4OVVBAIJQ6W9UMGLX77L2", "dateTime": 1521226012701}, {"current_trial": 159, "trialdata": {"rt": -1, "trial_type": "single-stim", "word": "padding", "stimulus": "<p id=\"stim\">PADDING</p>", "conditions": [24, 800, "v", 12000], "internal_node_id": "0.0-114.0", "trial": 4, "time_elapsed": 811792, "serialpos": 2, "key_press": -1, "wordID": 998, "type": "PRES_VIS", "trial_index": 159}, "uniqueid": "MTK3750:3VHHR074H4OVVBAIJQ6W9UMGLX77L2", "dateTime": 1521226014311}, {"current_trial": 160, "trialdata": {"rt": -1, "trial_type": "single-stim", "word": "blade", "stimulus": "<p id=\"stim\">BLADE</p>", "conditions": [24, 800, "v", 12000], "internal_node_id": "0.0-115.0", "trial": 4, "time_elapsed": 813443, "serialpos": 3, "key_press": -1, "wordID": 133, "type": "PRES_VIS", "trial_index": 160}, "uniqueid": "MTK3750:3VHHR074H4OVVBAIJQ6W9UMGLX77L2", "dateTime": 1521226015962}, {"current_trial": 161, "trialdata": {"rt": -1, "trial_type": "single-stim", "word": "cowboy", "stimulus": "<p id=\"stim\">COWBOY</p>", "conditions": [24, 800, "v", 12000], "internal_node_id": "0.0-116.0", "trial": 4, "time_elapsed": 815263, "serialpos": 4, "key_press": -1, "wordID": 394, "type": "PRES_VIS", "trial_index": 161}, "uniqueid": "MTK3750:3VHHR074H4OVVBAIJQ6W9UMGLX77L2", "dateTime": 1521226017782}, {"current_trial": 162, "trialdata": {"rt": -1, "trial_type": "single-stim", "word": "jury", "stimulus": "<p id=\"stim\">JURY</p>", "conditions": [24, 800, "v", 12000], "internal_node_id": "0.0-117.0", "trial": 4, "time_elapsed": 817237, "serialpos": 5, "key_press": -1, "wordID": 765, "type": "PRES_VIS", "trial_index": 162}, "uniqueid": "MTK3750:3VHHR074H4OVVBAIJQ6W9UMGLX77L2", "dateTime": 1521226019756}, {"current_trial": 163, "trialdata": {"rt": -1, "trial_type": "single-stim", "word": "butcher", "stimulus": "<p id=\"stim\">BUTCHER</p>", "conditions": [24, 800, "v", 12000], "internal_node_id": "0.0-118.0", "trial": 4, "time_elapsed": 818972, "serialpos": 6, "key_press": -1, "wordID": 202, "type": "PRES_VIS", "trial_index": 163}, "uniqueid": "MTK3750:3VHHR074H4OVVBAIJQ6W9UMGLX77L2", "dateTime": 1521226021491}, {"current_trial": 164, "trialdata": {"rt": -1, "trial_type": "single-stim", "word": "lumber", "stimulus": "<p id=\"stim\">LUMBER</p>", "conditions": [24, 800, "v", 12000], "internal_node_id": "0.0-119.0", "trial": 4, "time_elapsed": 820950, "serialpos": 7, "key_press": -1, "wordID": 847, "type": "PRES_VIS", "trial_index": 164}, "uniqueid": "MTK3750:3VHHR074H4OVVBAIJQ6W9UMGLX77L2", "dateTime": 1521226023470}, {"current_trial": 165, "trialdata": {"rt": -1, "trial_type": "single-stim", "word": "report", "stimulus": "<p id=\"stim\">REPORT</p>", "conditions": [24, 800, "v", 12000], "internal_node_id": "0.0-120.0", "trial": 4, "time_elapsed": 822733, "serialpos": 8, "key_press": -1, "wordID": 1183, "type": "PRES_VIS", "trial_index": 165}, "uniqueid": "MTK3750:3VHHR074H4OVVBAIJQ6W9UMGLX77L2", "dateTime": 1521226025252}, {"current_trial": 166, "trialdata": {"rt": -1, "trial_type": "single-stim", "word": "soda", "stimulus": "<p id=\"stim\">SODA</p>", "conditions": [24, 800, "v", 12000], "internal_node_id": "0.0-121.0", "trial": 4, "time_elapsed": 824697, "serialpos": 9, "key_press": -1, "wordID": 1340, "type": "PRES_VIS", "trial_index": 166}, "uniqueid": "MTK3750:3VHHR074H4OVVBAIJQ6W9UMGLX77L2", "dateTime": 1521226027216}, {"current_trial": 167, "trialdata": {"rt": -1, "trial_type": "single-stim", "word": "coffee", "stimulus": "<p id=\"stim\">COFFEE</p>", "conditions": [24, 800, "v", 12000], "internal_node_id": "0.0-122.0", "trial": 4, "time_elapsed": 826309, "serialpos": 10, "key_press": -1, "wordID": 340, "type": "PRES_VIS", "trial_index": 167}, "uniqueid": "MTK3750:3VHHR074H4OVVBAIJQ6W9UMGLX77L2", "dateTime": 1521226028828}, {"current_trial": 168, "trialdata": {"rt": -1, "trial_type": "single-stim", "word": "blouse", "stimulus": "<p id=\"stim\">BLOUSE</p>", "conditions": [24, 800, "v", 12000], "internal_node_id": "0.0-123.0", "trial": 4, "time_elapsed": 827947, "serialpos": 11, "key_press": -1, "wordID": 138, "type": "PRES_VIS", "trial_index": 168}, "uniqueid": "MTK3750:3VHHR074H4OVVBAIJQ6W9UMGLX77L2", "dateTime": 1521226030466}, {"current_trial": 169, "trialdata": {"rt": -1, "trial_type": "single-stim", "word": "temple", "stimulus": "<p id=\"stim\">TEMPLE</p>", "conditions": [24, 800, "v", 12000], "internal_node_id": "0.0-124.0", "trial": 4, "time_elapsed": 829595, "serialpos": 12, "key_press": -1, "wordID": 1447, "type": "PRES_VIS", "trial_index": 169}, "uniqueid": "MTK3750:3VHHR074H4OVVBAIJQ6W9UMGLX77L2", "dateTime": 1521226032115}, {"current_trial": 170, "trialdata": {"rt": -1, "trial_type": "single-stim", "word": "patrol", "stimulus": "<p id=\"stim\">PATROL</p>", "conditions": [24, 800, "v", 12000], "internal_node_id": "0.0-125.0", "trial": 4, "time_elapsed": 831244, "serialpos": 13, "key_press": -1, "wordID": 1026, "type": "PRES_VIS", "trial_index": 170}, "uniqueid": "MTK3750:3VHHR074H4OVVBAIJQ6W9UMGLX77L2", "dateTime": 1521226033764}, {"current_trial": 171, "trialdata": {"rt": -1, "trial_type": "single-stim", "word": "police", "stimulus": "<p id=\"stim\">POLICE</p>", "conditions": [24, 800, "v", 12000], "internal_node_id": "0.0-126.0", "trial": 4, "time_elapsed": 833186, "serialpos": 14, "key_press": -1, "wordID": 1097, "type": "PRES_VIS", "trial_index": 171}, "uniqueid": "MTK3750:3VHHR074H4OVVBAIJQ6W9UMGLX77L2", "dateTime": 1521226035705}, {"current_trial": 172, "trialdata": {"rt": -1, "trial_type": "single-stim", "word": "pigeon", "stimulus": "<p id=\"stim\">PIGEON</p>", "conditions": [24, 800, "v", 12000], "internal_node_id": "0.0-127.0", "trial": 4, "time_elapsed": 834928, "serialpos": 15, "key_press": -1, "wordID": 1064, "type": "PRES_VIS", "trial_index": 172}, "uniqueid": "MTK3750:3VHHR074H4OVVBAIJQ6W9UMGLX77L2", "dateTime": 1521226037447}, {"current_trial": 173, "trialdata": {"rt": -1, "trial_type": "single-stim", "word": "parsley", "stimulus": "<p id=\"stim\">PARSLEY</p>", "conditions": [24, 800, "v", 12000], "internal_node_id": "0.0-128.0", "trial": 4, "time_elapsed": 836832, "serialpos": 16, "key_press": -1, "wordID": 1015, "type": "PRES_VIS", "trial_index": 173}, "uniqueid": "MTK3750:3VHHR074H4OVVBAIJQ6W9UMGLX77L2", "dateTime": 1521226039352}, {"current_trial": 174, "trialdata": {"rt": -1, "trial_type": "single-stim", "word": "friend", "stimulus": "<p id=\"stim\">FRIEND</p>", "conditions": [24, 800, "v", 12000], "internal_node_id": "0.0-129.0", "trial": 4, "time_elapsed": 838556, "serialpos": 17, "key_press": -1, "wordID": 605, "type": "PRES_VIS", "trial_index": 174}, "uniqueid": "MTK3750:3VHHR074H4OVVBAIJQ6W9UMGLX77L2", "dateTime": 1521226041075}, {"current_trial": 175, "trialdata": {"rt": -1, "trial_type": "single-stim", "word": "marine", "stimulus": "<p id=\"stim\">MARINE</p>", "conditions": [24, 800, "v", 12000], "internal_node_id": "0.0-130.0", "trial": 4, "time_elapsed": 840186, "serialpos": 18, "key_press": -1, "wordID": 868, "type": "PRES_VIS", "trial_index": 175}, "uniqueid": "MTK3750:3VHHR074H4OVVBAIJQ6W9UMGLX77L2", "dateTime": 1521226042705}, {"current_trial": 176, "trialdata": {"rt": -1, "trial_type": "single-stim", "word": "window", "stimulus": "<p id=\"stim\">WINDOW</p>", "conditions": [24, 800, "v", 12000], "internal_node_id": "0.0-131.0", "trial": 4, "time_elapsed": 841922, "serialpos": 19, "key_press": -1, "wordID": 1610, "type": "PRES_VIS", "trial_index": 176}, "uniqueid": "MTK3750:3VHHR074H4OVVBAIJQ6W9UMGLX77L2", "dateTime": 1521226044441}, {"current_trial": 177, "trialdata": {"rt": -1, "trial_type": "single-stim", "word": "canyon", "stimulus": "<p id=\"stim\">CANYON</p>", "conditions": [24, 800, "v", 12000], "internal_node_id": "0.0-132.0", "trial": 4, "time_elapsed": 843692, "serialpos": 20, "key_press": -1, "wordID": 234, "type": "PRES_VIS", "trial_index": 177}, "uniqueid": "MTK3750:3VHHR074H4OVVBAIJQ6W9UMGLX77L2", "dateTime": 1521226046211}, {"current_trial": 178, "trialdata": {"rt": -1, "trial_type": "single-stim", "word": "relish", "stimulus": "<p id=\"stim\">RELISH</p>", "conditions": [24, 800, "v", 12000], "internal_node_id": "0.0-133.0", "trial": 4, "time_elapsed": 845457, "serialpos": 21, "key_press": -1, "wordID": 1182, "type": "PRES_VIS", "trial_index": 178}, "uniqueid": "MTK3750:3VHHR074H4OVVBAIJQ6W9UMGLX77L2", "dateTime": 1521226047976}, {"current_trial": 179, "trialdata": {"rt": -1, "trial_type": "single-stim", "word": "skillet", "stimulus": "<p id=\"stim\">SKILLET</p>", "conditions": [24, 800, "v", 12000], "internal_node_id": "0.0-134.0", "trial": 4, "time_elapsed": 847179, "serialpos": 22, "key_press": -1, "wordID": 1316, "type": "PRES_VIS", "trial_index": 179}, "uniqueid": "MTK3750:3VHHR074H4OVVBAIJQ6W9UMGLX77L2", "dateTime": 1521226049698}, {"current_trial": 180, "trialdata": {"rt": -1, "trial_type": "single-stim", "word": "cabbage", "stimulus": "<p id=\"stim\">CABBAGE</p>", "conditions": [24, 800, "v", 12000], "internal_node_id": "0.0-135.0", "trial": 4, "time_elapsed": 848901, "serialpos": 23, "key_press": -1, "wordID": 209, "type": "PRES_VIS", "trial_index": 180}, "uniqueid": "MTK3750:3VHHR074H4OVVBAIJQ6W9UMGLX77L2", "dateTime": 1521226051420}, {"current_trial": 181, "trialdata": {"rt": -1, "trial_type": "single-stim", "stimulus": "", "internal_node_id": "0.0-136.0-0.0", "time_elapsed": 851165, "key_press": -1, "type": "PRE_RECALL_DELAY", "trial_index": 181}, "uniqueid": "MTK3750:3VHHR074H4OVVBAIJQ6W9UMGLX77L2", "dateTime": 1521226053685}, {"current_trial": 182, "trialdata": {"rt": -1000, "trial_type": "single-audio", "stimulus": "/static/audio/400Hz.wav", "internal_node_id": "0.0-137.0", "time_elapsed": 851666, "key_press": -1, "type": "PRE_RECALL_ALERT", "trial_index": 182}, "uniqueid": "MTK3750:3VHHR074H4OVVBAIJQ6W9UMGLX77L2", "dateTime": 1521226054185}, {"current_trial": 183, "trialdata": {"rt": [2458, 4668, 10794, 21624, 23045, 24310], "recwords": ["friend", "cabbage", "relish", "padding", "police", "patrol"], "key_times": [1098, 1309, 1548, 1673, 1780, 1909, 2458, 2800, 2888, 3001, 3144, 3243, 3439, 3563, 4668, 9479, 9513, 9833, 10113, 10249, 10368, 10794, 20750, 20849, 21045, 21184, 21282, 21366, 21446, 21624, 22165, 22338, 22512, 22714, 22809, 22881, 23045, 23284, 23369, 23605, 23793, 23888, 24053, 24310], "trial_type": "free-recall", "conditions": [24, 800, "v", 12000], "internal_node_id": "0.0-138.0-0.0", "key_presses": [70, 82, 73, 69, 78, 68, 13, 67, 65, 66, 66, 65, 71, 69, 13, 82, 69, 76, 73, 83, 72, 13, 80, 65, 68, 68, 73, 78, 71, 13, 80, 79, 76, 73, 67, 69, 13, 80, 65, 84, 82, 79, 76, 13], "trial": 4, "time_elapsed": 911670, "type": "FREE_RECALL", "trial_index": 183}, "uniqueid": "MTK3750:3VHHR074H4OVVBAIJQ6W9UMGLX77L2", "dateTime": 1521226114191}, {"current_trial": 184, "trialdata": {"rt": 937, "trial_type": "text", "internal_node_id": "0.0-139.0", "time_elapsed": 914612, "key_press": 32, "type": "INSTRUCTIONS", "trial_index": 184}, "uniqueid": "MTK3750:3VHHR074H4OVVBAIJQ6W9UMGLX77L2", "dateTime": 1521226117131}, {"current_trial": 185, "trialdata": {"rt": [2484, 5314, 7827, 9744, 11403], "trial_type": "math-distractor", "key_times": [1957, 2101, 2484, 4703, 4887, 5314, 7113, 7431, 7827, 9269, 9639, 9744, 11055, 11248, 11403], "responses": ["15", "11", "20", "13", "13"], "num2": [4, 4, 7, 2, 8, 2], "num3": [8, 4, 9, 9, 2, 5], "conditions": [12, 1600, "v", 12000], "internal_node_id": "0.0-140.0", "key_presses": [49, 53, 13, 49, 49, 13, 50, 48, 13, 49, 51, 13, 49, 51, 13], "trial": 5, "time_elapsed": 928620, "type": "DISTRACTOR", "trial_index": 185, "num1": [3, 3, 4, 2, 3, 2]}, "uniqueid": "MTK3750:3VHHR074H4OVVBAIJQ6W9UMGLX77L2", "dateTime": 1521226131139}, {"current_trial": 186, "trialdata": {"rt": -1, "trial_type": "single-stim", "stimulus": "<p id=\"stim\">10</p>", "internal_node_id": "0.0-141.0-0.0", "time_elapsed": 931627, "key_press": -1, "trial_index": 186}, "uniqueid": "MTK3750:3VHHR074H4OVVBAIJQ6W9UMGLX77L2", "dateTime": 1521226134146}, {"current_trial": 187, "trialdata": {"rt": -1, "trial_type": "single-stim", "stimulus": "<p id=\"stim\">9</p>", "internal_node_id": "0.0-141.0-1.0", "time_elapsed": 932631, "key_press": -1, "trial_index": 187}, "uniqueid": "MTK3750:3VHHR074H4OVVBAIJQ6W9UMGLX77L2", "dateTime": 1521226135150}, {"current_trial": 188, "trialdata": {"rt": -1, "trial_type": "single-stim", "stimulus": "<p id=\"stim\">8</p>", "internal_node_id": "0.0-141.0-2.0", "time_elapsed": 933635, "key_press": -1, "trial_index": 188}, "uniqueid": "MTK3750:3VHHR074H4OVVBAIJQ6W9UMGLX77L2", "dateTime": 1521226136154}, {"current_trial": 189, "trialdata": {"rt": -1, "trial_type": "single-stim", "stimulus": "<p id=\"stim\">7</p>", "internal_node_id": "0.0-141.0-3.0", "time_elapsed": 934639, "key_press": -1, "trial_index": 189}, "uniqueid": "MTK3750:3VHHR074H4OVVBAIJQ6W9UMGLX77L2", "dateTime": 1521226137158}, {"current_trial": 190, "trialdata": {"rt": -1, "trial_type": "single-stim", "stimulus": "<p id=\"stim\">6</p>", "internal_node_id": "0.0-141.0-4.0", "time_elapsed": 935643, "key_press": -1, "trial_index": 190}, "uniqueid": "MTK3750:3VHHR074H4OVVBAIJQ6W9UMGLX77L2", "dateTime": 1521226138163}, {"current_trial": 191, "trialdata": {"rt": -1, "trial_type": "single-stim", "stimulus": "<p id=\"stim\">5</p>", "internal_node_id": "0.0-141.0-5.0", "time_elapsed": 936648, "key_press": -1, "trial_index": 191}, "uniqueid": "MTK3750:3VHHR074H4OVVBAIJQ6W9UMGLX77L2", "dateTime": 1521226139167}, {"current_trial": 192, "trialdata": {"rt": -1, "trial_type": "single-stim", "stimulus": "<p id=\"stim\">4</p>", "internal_node_id": "0.0-141.0-6.0", "time_elapsed": 937651, "key_press": -1, "trial_index": 192}, "uniqueid": "MTK3750:3VHHR074H4OVVBAIJQ6W9UMGLX77L2", "dateTime": 1521226140170}, {"current_trial": 193, "trialdata": {"rt": -1, "trial_type": "single-stim", "stimulus": "<p id=\"stim\">3</p>", "internal_node_id": "0.0-141.0-7.0", "time_elapsed": 938656, "key_press": -1, "trial_index": 193}, "uniqueid": "MTK3750:3VHHR074H4OVVBAIJQ6W9UMGLX77L2", "dateTime": 1521226141175}, {"current_trial": 194, "trialdata": {"rt": -1, "trial_type": "single-stim", "stimulus": "<p id=\"stim\">2</p>", "internal_node_id": "0.0-141.0-8.0", "time_elapsed": 939659, "key_press": -1, "trial_index": 194}, "uniqueid": "MTK3750:3VHHR074H4OVVBAIJQ6W9UMGLX77L2", "dateTime": 1521226142179}, {"current_trial": 195, "trialdata": {"rt": -1, "trial_type": "single-stim", "stimulus": "<p id=\"stim\">1</p>", "internal_node_id": "0.0-141.0-9.0", "time_elapsed": 940666, "key_press": -1, "trial_index": 195}, "uniqueid": "MTK3750:3VHHR074H4OVVBAIJQ6W9UMGLX77L2", "dateTime": 1521226143185}, {"current_trial": 196, "trialdata": {"rt": -1, "trial_type": "single-stim", "stimulus": "<p id=\"stim\">+</p>", "internal_node_id": "0.0-142.0-0.0", "time_elapsed": 942171, "key_press": -1, "type": "FIXATION", "trial_index": 196}, "uniqueid": "MTK3750:3VHHR074H4OVVBAIJQ6W9UMGLX77L2", "dateTime": 1521226144690}, {"current_trial": 197, "trialdata": {"rt": -1, "trial_type": "single-stim", "word": "cod", "stimulus": "<p id=\"stim\">COD</p>", "conditions": [12, 1600, "v", 12000], "internal_node_id": "0.0-143.0", "trial": 5, "time_elapsed": 943775, "serialpos": 0, "key_press": -1, "wordID": 339, "type": "PRES_VIS", "trial_index": 197}, "uniqueid": "MTK3750:3VHHR074H4OVVBAIJQ6W9UMGLX77L2", "dateTime": 1521226146294}, {"current_trial": 198, "trialdata": {"rt": -1, "trial_type": "single-stim", "word": "seal", "stimulus": "<p id=\"stim\">SEAL</p>", "conditions": [12, 1600, "v", 12000], "internal_node_id": "0.0-144.0", "trial": 5, "time_elapsed": 946362, "serialpos": 1, "key_press": -1, "wordID": 1261, "type": "PRES_VIS", "trial_index": 198}, "uniqueid": "MTK3750:3VHHR074H4OVVBAIJQ6W9UMGLX77L2", "dateTime": 1521226148881}, {"current_trial": 199, "trialdata": {"rt": -1, "trial_type": "single-stim", "word": "office", "stimulus": "<p id=\"stim\">OFFICE</p>", "conditions": [12, 1600, "v", 12000], "internal_node_id": "0.0-145.0", "trial": 5, "time_elapsed": 948993, "serialpos": 2, "key_press": -1, "wordID": 971, "type": "PRES_VIS", "trial_index": 199}, "uniqueid": "MTK3750:3VHHR074H4OVVBAIJQ6W9UMGLX77L2", "dateTime": 1521226151512}, {"current_trial": 200, "trialdata": {"rt": -1, "trial_type": "single-stim", "word": "velvet", "stimulus": "<p id=\"stim\">VELVET</p>", "conditions": [12, 1600, "v", 12000], "internal_node_id": "0.0-146.0", "trial": 5, "time_elapsed": 951442, "serialpos": 3, "key_press": -1, "wordID": 1554, "type": "PRES_VIS", "trial_index": 200}, "uniqueid": "MTK3750:3VHHR074H4OVVBAIJQ6W9UMGLX77L2", "dateTime": 1521226153961}, {"current_trial": 201, "trialdata": {"rt": -1, "trial_type": "single-stim", "word": "highway", "stimulus": "<p id=\"stim\">HIGHWAY</p>", "conditions": [12, 1600, "v", 12000], "internal_node_id": "0.0-147.0", "trial": 5, "time_elapsed": 954171, "serialpos": 4, "key_press": -1, "wordID": 706, "type": "PRES_VIS", "trial_index": 201}, "uniqueid": "MTK3750:3VHHR074H4OVVBAIJQ6W9UMGLX77L2", "dateTime": 1521226156690}, {"current_trial": 202, "trialdata": {"rt": -1, "trial_type": "single-stim", "word": "sheriff", "stimulus": "<p id=\"stim\">SHERIFF</p>", "conditions": [12, 1600, "v", 12000], "internal_node_id": "0.0-148.0", "trial": 5, "time_elapsed": 956881, "serialpos": 5, "key_press": -1, "wordID": 1283, "type": "PRES_VIS", "trial_index": 202}, "uniqueid": "MTK3750:3VHHR074H4OVVBAIJQ6W9UMGLX77L2", "dateTime": 1521226159400}, {"current_trial": 203, "trialdata": {"rt": -1, "trial_type": "single-stim", "word": "panther", "stimulus": "<p id=\"stim\">PANTHER</p>", "conditions": [12, 1600, "v", 12000], "internal_node_id": "0.0-149.0", "trial": 5, "time_elapsed": 959638, "serialpos": 6, "key_press": -1, "wordID": 1008, "type": "PRES_VIS", "trial_index": 203}, "uniqueid": "MTK3750:3VHHR074H4OVVBAIJQ6W9UMGLX77L2", "dateTime": 1521226162158}, {"current_trial": 204, "trialdata": {"rt": -1, "trial_type": "single-stim", "word": "critic", "stimulus": "<p id=\"stim\">CRITIC</p>", "conditions": [12, 1600, "v", 12000], "internal_node_id": "0.0-150.0", "trial": 5, "time_elapsed": 962174, "serialpos": 7, "key_press": -1, "wordID": 409, "type": "PRES_VIS", "trial_index": 204}, "uniqueid": "MTK3750:3VHHR074H4OVVBAIJQ6W9UMGLX77L2", "dateTime": 1521226164694}, {"current_trial": 205, "trialdata": {"rt": -1, "trial_type": "single-stim", "word": "plaid", "stimulus": "<p id=\"stim\">PLAID</p>", "conditions": [12, 1600, "v", 12000], "internal_node_id": "0.0-151.0", "trial": 5, "time_elapsed": 964600, "serialpos": 8, "key_press": -1, "wordID": 1079, "type": "PRES_VIS", "trial_index": 205}, "uniqueid": "MTK3750:3VHHR074H4OVVBAIJQ6W9UMGLX77L2", "dateTime": 1521226167119}, {"current_trial": 206, "trialdata": {"rt": -1, "trial_type": "single-stim", "word": "pecan", "stimulus": "<p id=\"stim\">PECAN</p>", "conditions": [12, 1600, "v", 12000], "internal_node_id": "0.0-152.0", "trial": 5, "time_elapsed": 967258, "serialpos": 9, "key_press": -1, "wordID": 1035, "type": "PRES_VIS", "trial_index": 206}, "uniqueid": "MTK3750:3VHHR074H4OVVBAIJQ6W9UMGLX77L2", "dateTime": 1521226169777}, {"current_trial": 207, "trialdata": {"rt": -1, "trial_type": "single-stim", "word": "peanut", "stimulus": "<p id=\"stim\">PEANUT</p>", "conditions": [12, 1600, "v", 12000], "internal_node_id": "0.0-153.0", "trial": 5, "time_elapsed": 969761, "serialpos": 10, "key_press": -1, "wordID": 1031, "type": "PRES_VIS", "trial_index": 207}, "uniqueid": "MTK3750:3VHHR074H4OVVBAIJQ6W9UMGLX77L2", "dateTime": 1521226172280}, {"current_trial": 208, "trialdata": {"rt": -1, "trial_type": "single-stim", "word": "forest", "stimulus": "<p id=\"stim\">FOREST</p>", "conditions": [12, 1600, "v", 12000], "internal_node_id": "0.0-154.0", "trial": 5, "time_elapsed": 972505, "serialpos": 11, "key_press": -1, "wordID": 592, "type": "PRES_VIS", "trial_index": 208}, "uniqueid": "MTK3750:3VHHR074H4OVVBAIJQ6W9UMGLX77L2", "dateTime": 1521226175025}, {"current_trial": 209, "trialdata": {"rt": -1, "trial_type": "single-stim", "stimulus": "", "internal_node_id": "0.0-155.0-0.0", "time_elapsed": 974827, "key_press": -1, "type": "PRE_RECALL_DELAY", "trial_index": 209}, "uniqueid": "MTK3750:3VHHR074H4OVVBAIJQ6W9UMGLX77L2", "dateTime": 1521226177346}, {"current_trial": 210, "trialdata": {"rt": -1000, "trial_type": "single-audio", "stimulus": "/static/audio/400Hz.wav", "internal_node_id": "0.0-156.0", "time_elapsed": 975328, "key_press": -1, "type": "PRE_RECALL_ALERT", "trial_index": 210}, "uniqueid": "MTK3750:3VHHR074H4OVVBAIJQ6W9UMGLX77L2", "dateTime": 1521226177847}, {"current_trial": 211, "trialdata": {"rt": [2056, 3298, 42808], "recwords": ["forest", "cod", "cowboy"], "key_times": [594, 927, 1084, 1425, 1607, 1793, 2056, 2352, 2479, 2648, 3298, 41380, 41511, 41666, 41909, 42013, 42160, 42808], "trial_type": "free-recall", "conditions": [12, 1600, "v", 12000], "internal_node_id": "0.0-157.0-0.0", "key_presses": [70, 79, 82, 69, 83, 84, 13, 67, 79, 68, 13, 67, 79, 87, 66, 79, 89, 13], "trial": 5, "time_elapsed": 1035338, "type": "FREE_RECALL", "trial_index": 211}, "uniqueid": "MTK3750:3VHHR074H4OVVBAIJQ6W9UMGLX77L2", "dateTime": 1521226237859}, {"current_trial": 212, "trialdata": {"rt": 1089, "trial_type": "text", "internal_node_id": "0.0-158.0", "time_elapsed": 1038434, "key_press": 32, "type": "INSTRUCTIONS", "trial_index": 212}, "uniqueid": "MTK3750:3VHHR074H4OVVBAIJQ6W9UMGLX77L2", "dateTime": 1521226240953}, {"current_trial": 213, "trialdata": {"rt": [1719, 3420, 5100, 6735, 8216, 10051, 11714, 13171, 15466, 16872, 19441, 21223, 22821], "trial_type": "math-distractor", "key_times": [1243, 1440, 1719, 3150, 3420, 4494, 4952, 5100, 6314, 6634, 6735, 7750, 8034, 8216, 9634, 9896, 10051, 11265, 11514, 11714, 12818, 13053, 13171, 14935, 15301, 15466, 16444, 16771, 16872, 18853, 19213, 19441, 20541, 21115, 21223, 22681, 22821], "responses": ["19", "7", "13", "13", "13", "16", "16", "16", "18", "15", "12", "13", "7"], "num2": [8, 4, 3, 3, 5, 2, 2, 6, 5, 5, 8, 2, 2, 3], "num3": [2, 2, 2, 8, 4, 8, 9, 3, 4, 8, 2, 9, 2, 7], "conditions": [24, 800, "v", 24000], "internal_node_id": "0.0-159.0", "key_presses": [49, 57, 13, 55, 13, 49, 51, 13, 49, 51, 13, 49, 51, 13, 49, 54, 13, 49, 54, 13, 49, 54, 13, 49, 56, 13, 49, 53, 13, 49, 50, 13, 49, 51, 13, 55, 13], "trial": 6, "time_elapsed": 1064446, "type": "DISTRACTOR", "trial_index": 213, "num1": [9, 1, 8, 2, 4, 6, 5, 7, 9, 2, 2, 2, 3, 1]}, "uniqueid": "MTK3750:3VHHR074H4OVVBAIJQ6W9UMGLX77L2", "dateTime": 1521226266965}, {"current_trial": 214, "trialdata": {"rt": -1, "trial_type": "single-stim", "stimulus": "<p id=\"stim\">10</p>", "internal_node_id": "0.0-160.0-0.0", "time_elapsed": 1067454, "key_press": -1, "trial_index": 214}, "uniqueid": "MTK3750:3VHHR074H4OVVBAIJQ6W9UMGLX77L2", "dateTime": 1521226269973}, {"current_trial": 215, "trialdata": {"rt": -1, "trial_type": "single-stim", "stimulus": "<p id=\"stim\">9</p>", "internal_node_id": "0.0-160.0-1.0", "time_elapsed": 1068458, "key_press": -1, "trial_index": 215}, "uniqueid": "MTK3750:3VHHR074H4OVVBAIJQ6W9UMGLX77L2", "dateTime": 1521226270977}, {"current_trial": 216, "trialdata": {"rt": -1, "trial_type": "single-stim", "stimulus": "<p id=\"stim\">8</p>", "internal_node_id": "0.0-160.0-2.0", "time_elapsed": 1069462, "key_press": -1, "trial_index": 216}, "uniqueid": "MTK3750:3VHHR074H4OVVBAIJQ6W9UMGLX77L2", "dateTime": 1521226271981}, {"current_trial": 217, "trialdata": {"rt": -1, "trial_type": "single-stim", "stimulus": "<p id=\"stim\">7</p>", "internal_node_id": "0.0-160.0-3.0", "time_elapsed": 1070465, "key_press": -1, "trial_index": 217}, "uniqueid": "MTK3750:3VHHR074H4OVVBAIJQ6W9UMGLX77L2", "dateTime": 1521226272984}, {"current_trial": 218, "trialdata": {"rt": -1, "trial_type": "single-stim", "stimulus": "<p id=\"stim\">6</p>", "internal_node_id": "0.0-160.0-4.0", "time_elapsed": 1071470, "key_press": -1, "trial_index": 218}, "uniqueid": "MTK3750:3VHHR074H4OVVBAIJQ6W9UMGLX77L2", "dateTime": 1521226273989}, {"current_trial": 219, "trialdata": {"rt": -1, "trial_type": "single-stim", "stimulus": "<p id=\"stim\">5</p>", "internal_node_id": "0.0-160.0-5.0", "time_elapsed": 1072475, "key_press": -1, "trial_index": 219}, "uniqueid": "MTK3750:3VHHR074H4OVVBAIJQ6W9UMGLX77L2", "dateTime": 1521226274994}, {"current_trial": 220, "trialdata": {"rt": -1, "trial_type": "single-stim", "stimulus": "<p id=\"stim\">4</p>", "internal_node_id": "0.0-160.0-6.0", "time_elapsed": 1073478, "key_press": -1, "trial_index": 220}, "uniqueid": "MTK3750:3VHHR074H4OVVBAIJQ6W9UMGLX77L2", "dateTime": 1521226275997}, {"current_trial": 221, "trialdata": {"rt": -1, "trial_type": "single-stim", "stimulus": "<p id=\"stim\">3</p>", "internal_node_id": "0.0-160.0-7.0", "time_elapsed": 1074483, "key_press": -1, "trial_index": 221}, "uniqueid": "MTK3750:3VHHR074H4OVVBAIJQ6W9UMGLX77L2", "dateTime": 1521226277002}, {"current_trial": 222, "trialdata": {"rt": -1, "trial_type": "single-stim", "stimulus": "<p id=\"stim\">2</p>", "internal_node_id": "0.0-160.0-8.0", "time_elapsed": 1075487, "key_press": -1, "trial_index": 222}, "uniqueid": "MTK3750:3VHHR074H4OVVBAIJQ6W9UMGLX77L2", "dateTime": 1521226278006}, {"current_trial": 223, "trialdata": {"rt": -1, "trial_type": "single-stim", "stimulus": "<p id=\"stim\">1</p>", "internal_node_id": "0.0-160.0-9.0", "time_elapsed": 1076491, "key_press": -1, "trial_index": 223}, "uniqueid": "MTK3750:3VHHR074H4OVVBAIJQ6W9UMGLX77L2", "dateTime": 1521226279010}, {"current_trial": 224, "trialdata": {"rt": -1, "trial_type": "single-stim", "stimulus": "<p id=\"stim\">+</p>", "internal_node_id": "0.0-161.0-0.0", "time_elapsed": 1077994, "key_press": -1, "type": "FIXATION", "trial_index": 224}, "uniqueid": "MTK3750:3VHHR074H4OVVBAIJQ6W9UMGLX77L2", "dateTime": 1521226280514}, {"current_trial": 225, "trialdata": {"rt": -1, "trial_type": "single-stim", "word": "branch", "stimulus": "<p id=\"stim\">BRANCH</p>", "conditions": [24, 800, "v", 24000], "internal_node_id": "0.0-162.0", "trial": 6, "time_elapsed": 1078800, "serialpos": 0, "key_press": -1, "wordID": 167, "type": "PRES_VIS", "trial_index": 225}, "uniqueid": "MTK3750:3VHHR074H4OVVBAIJQ6W9UMGLX77L2", "dateTime": 1521226281319}, {"current_trial": 226, "trialdata": {"rt": -1, "trial_type": "single-stim", "word": "server", "stimulus": "<p id=\"stim\">SERVER</p>", "conditions": [24, 800, "v", 24000], "internal_node_id": "0.0-163.0", "trial": 6, "time_elapsed": 1080438, "serialpos": 1, "key_press": -1, "wordID": 1271, "type": "PRES_VIS", "trial_index": 226}, "uniqueid": "MTK3750:3VHHR074H4OVVBAIJQ6W9UMGLX77L2", "dateTime": 1521226282957}, {"current_trial": 227, "trialdata": {"rt": -1, "trial_type": "single-stim", "word": "pork", "stimulus": "<p id=\"stim\">PORK</p>", "conditions": [24, 800, "v", 24000], "internal_node_id": "0.0-164.0", "trial": 6, "time_elapsed": 1082271, "serialpos": 2, "key_press": -1, "wordID": 1107, "type": "PRES_VIS", "trial_index": 227}, "uniqueid": "MTK3750:3VHHR074H4OVVBAIJQ6W9UMGLX77L2", "dateTime": 1521226284790}, {"current_trial": 228, "trialdata": {"rt": -1, "trial_type": "single-stim", "word": "bug", "stimulus": "<p id=\"stim\">BUG</p>", "conditions": [24, 800, "v", 24000], "internal_node_id": "0.0-165.0", "trial": 6, "time_elapsed": 1084168, "serialpos": 3, "key_press": -1, "wordID": 186, "type": "PRES_VIS", "trial_index": 228}, "uniqueid": "MTK3750:3VHHR074H4OVVBAIJQ6W9UMGLX77L2", "dateTime": 1521226286687}, {"current_trial": 229, "trialdata": {"rt": -1, "trial_type": "single-stim", "word": "virus", "stimulus": "<p id=\"stim\">VIRUS</p>", "conditions": [24, 800, "v", 24000], "internal_node_id": "0.0-166.0", "trial": 6, "time_elapsed": 1086071, "serialpos": 4, "key_press": -1, "wordID": 1571, "type": "PRES_VIS", "trial_index": 229}, "uniqueid": "MTK3750:3VHHR074H4OVVBAIJQ6W9UMGLX77L2", "dateTime": 1521226288590}, {"current_trial": 230, "trialdata": {"rt": -1, "trial_type": "single-stim", "word": "buggy", "stimulus": "<p id=\"stim\">BUGGY</p>", "conditions": [24, 800, "v", 24000], "internal_node_id": "0.0-167.0", "trial": 6, "time_elapsed": 1087843, "serialpos": 5, "key_press": -1, "wordID": 187, "type": "PRES_VIS", "trial_index": 230}, "uniqueid": "MTK3750:3VHHR074H4OVVBAIJQ6W9UMGLX77L2", "dateTime": 1521226290362}, {"current_trial": 231, "trialdata": {"rt": -1, "trial_type": "single-stim", "word": "champagne", "stimulus": "<p id=\"stim\">CHAMPAGNE</p>", "conditions": [24, 800, "v", 24000], "internal_node_id": "0.0-168.0", "trial": 6, "time_elapsed": 1089659, "serialpos": 6, "key_press": -1, "wordID": 277, "type": "PRES_VIS", "trial_index": 231}, "uniqueid": "MTK3750:3VHHR074H4OVVBAIJQ6W9UMGLX77L2", "dateTime": 1521226292179}, {"current_trial": 232, "trialdata": {"rt": -1, "trial_type": "single-stim", "word": "beaver", "stimulus": "<p id=\"stim\">BEAVER</p>", "conditions": [24, 800, "v", 24000], "internal_node_id": "0.0-169.0", "trial": 6, "time_elapsed": 1091620, "serialpos": 7, "key_press": -1, "wordID": 108, "type": "PRES_VIS", "trial_index": 232}, "uniqueid": "MTK3750:3VHHR074H4OVVBAIJQ6W9UMGLX77L2", "dateTime": 1521226294139}, {"current_trial": 233, "trialdata": {"rt": -1, "trial_type": "single-stim", "word": "sketch", "stimulus": "<p id=\"stim\">SKETCH</p>", "conditions": [24, 800, "v", 24000], "internal_node_id": "0.0-170.0", "trial": 6, "time_elapsed": 1093349, "serialpos": 8, "key_press": -1, "wordID": 1314, "type": "PRES_VIS", "trial_index": 233}, "uniqueid": "MTK3750:3VHHR074H4OVVBAIJQ6W9UMGLX77L2", "dateTime": 1521226295868}, {"current_trial": 234, "trialdata": {"rt": -1, "trial_type": "single-stim", "word": "bank", "stimulus": "<p id=\"stim\">BANK</p>", "conditions": [24, 800, "v", 24000], "internal_node_id": "0.0-171.0", "trial": 6, "time_elapsed": 1094981, "serialpos": 9, "key_press": -1, "wordID": 82, "type": "PRES_VIS", "trial_index": 234}, "uniqueid": "MTK3750:3VHHR074H4OVVBAIJQ6W9UMGLX77L2", "dateTime": 1521226297500}, {"current_trial": 235, "trialdata": {"rt": -1, "trial_type": "single-stim", "word": "gavel", "stimulus": "<p id=\"stim\">GAVEL</p>", "conditions": [24, 800, "v", 24000], "internal_node_id": "0.0-172.0", "trial": 6, "time_elapsed": 1096744, "serialpos": 10, "key_press": -1, "wordID": 626, "type": "PRES_VIS", "trial_index": 235}, "uniqueid": "MTK3750:3VHHR074H4OVVBAIJQ6W9UMGLX77L2", "dateTime": 1521226299263}, {"current_trial": 236, "trialdata": {"rt": -1, "trial_type": "single-stim", "word": "onion", "stimulus": "<p id=\"stim\">ONION</p>", "conditions": [24, 800, "v", 24000], "internal_node_id": "0.0-173.0", "trial": 6, "time_elapsed": 1098731, "serialpos": 11, "key_press": -1, "wordID": 976, "type": "PRES_VIS", "trial_index": 236}, "uniqueid": "MTK3750:3VHHR074H4OVVBAIJQ6W9UMGLX77L2", "dateTime": 1521226301251}, {"current_trial": 237, "trialdata": {"rt": -1, "trial_type": "single-stim", "word": "barley", "stimulus": "<p id=\"stim\">BARLEY</p>", "conditions": [24, 800, "v", 24000], "internal_node_id": "0.0-174.0", "trial": 6, "time_elapsed": 1100407, "serialpos": 12, "key_press": -1, "wordID": 87, "type": "PRES_VIS", "trial_index": 237}, "uniqueid": "MTK3750:3VHHR074H4OVVBAIJQ6W9UMGLX77L2", "dateTime": 1521226302926}, {"current_trial": 238, "trialdata": {"rt": -1, "trial_type": "single-stim", "word": "tortoise", "stimulus": "<p id=\"stim\">TORTOISE</p>", "conditions": [24, 800, "v", 24000], "internal_node_id": "0.0-175.0", "trial": 6, "time_elapsed": 1102337, "serialpos": 13, "key_press": -1, "wordID": 1485, "type": "PRES_VIS", "trial_index": 238}, "uniqueid": "MTK3750:3VHHR074H4OVVBAIJQ6W9UMGLX77L2", "dateTime": 1521226304856}, {"current_trial": 239, "trialdata": {"rt": -1, "trial_type": "single-stim", "word": "keeper", "stimulus": "<p id=\"stim\">KEEPER</p>", "conditions": [24, 800, "v", 24000], "internal_node_id": "0.0-176.0", "trial": 6, "time_elapsed": 1104078, "serialpos": 14, "key_press": -1, "wordID": 768, "type": "PRES_VIS", "trial_index": 239}, "uniqueid": "MTK3750:3VHHR074H4OVVBAIJQ6W9UMGLX77L2", "dateTime": 1521226306597}, {"current_trial": 240, "trialdata": {"rt": -1, "trial_type": "single-stim", "word": "blackboard", "stimulus": "<p id=\"stim\">BLACKBOARD</p>", "conditions": [24, 800, "v", 24000], "internal_node_id": "0.0-177.0", "trial": 6, "time_elapsed": 1105889, "serialpos": 15, "key_press": -1, "wordID": 132, "type": "PRES_VIS", "trial_index": 240}, "uniqueid": "MTK3750:3VHHR074H4OVVBAIJQ6W9UMGLX77L2", "dateTime": 1521226308408}, {"current_trial": 241, "trialdata": {"rt": -1, "trial_type": "single-stim", "word": "table", "stimulus": "<p id=\"stim\">TABLE</p>", "conditions": [24, 800, "v", 24000], "internal_node_id": "0.0-178.0", "trial": 6, "time_elapsed": 1107619, "serialpos": 16, "key_press": -1, "wordID": 1425, "type": "PRES_VIS", "trial_index": 241}, "uniqueid": "MTK3750:3VHHR074H4OVVBAIJQ6W9UMGLX77L2", "dateTime": 1521226310138}, {"current_trial": 242, "trialdata": {"rt": -1, "trial_type": "single-stim", "word": "freckle", "stimulus": "<p id=\"stim\">FRECKLE</p>", "conditions": [24, 800, "v", 24000], "internal_node_id": "0.0-179.0", "trial": 6, "time_elapsed": 1109301, "serialpos": 17, "key_press": -1, "wordID": 601, "type": "PRES_VIS", "trial_index": 242}, "uniqueid": "MTK3750:3VHHR074H4OVVBAIJQ6W9UMGLX77L2", "dateTime": 1521226311820}, {"current_trial": 243, "trialdata": {"rt": -1, "trial_type": "single-stim", "word": "item", "stimulus": "<p id=\"stim\">ITEM</p>", "conditions": [24, 800, "v", 24000], "internal_node_id": "0.0-180.0", "trial": 6, "time_elapsed": 1111245, "serialpos": 18, "key_press": -1, "wordID": 745, "type": "PRES_VIS", "trial_index": 243}, "uniqueid": "MTK3750:3VHHR074H4OVVBAIJQ6W9UMGLX77L2", "dateTime": 1521226313764}, {"current_trial": 244, "trialdata": {"rt": -1, "trial_type": "single-stim", "word": "knife", "stimulus": "<p id=\"stim\">KNIFE</p>", "conditions": [24, 800, "v", 24000], "internal_node_id": "0.0-181.0", "trial": 6, "time_elapsed": 1113022, "serialpos": 19, "key_press": -1, "wordID": 784, "type": "PRES_VIS", "trial_index": 244}, "uniqueid": "MTK3750:3VHHR074H4OVVBAIJQ6W9UMGLX77L2", "dateTime": 1521226315541}, {"current_trial": 245, "trialdata": {"rt": -1, "trial_type": "single-stim", "word": "pistol", "stimulus": "<p id=\"stim\">PISTOL</p>", "conditions": [24, 800, "v", 24000], "internal_node_id": "0.0-182.0", "trial": 6, "time_elapsed": 1114779, "serialpos": 20, "key_press": -1, "wordID": 1074, "type": "PRES_VIS", "trial_index": 245}, "uniqueid": "MTK3750:3VHHR074H4OVVBAIJQ6W9UMGLX77L2", "dateTime": 1521226317298}, {"current_trial": 246, "trialdata": {"rt": -1, "trial_type": "single-stim", "word": "match", "stimulus": "<p id=\"stim\">MATCH</p>", "conditions": [24, 800, "v", 24000], "internal_node_id": "0.0-183.0", "trial": 6, "time_elapsed": 1116708, "serialpos": 21, "key_press": -1, "wordID": 877, "type": "PRES_VIS", "trial_index": 246}, "uniqueid": "MTK3750:3VHHR074H4OVVBAIJQ6W9UMGLX77L2", "dateTime": 1521226319227}, {"current_trial": 247, "trialdata": {"rt": -1, "trial_type": "single-stim", "word": "turtle", "stimulus": "<p id=\"stim\">TURTLE</p>", "conditions": [24, 800, "v", 24000], "internal_node_id": "0.0-184.0", "trial": 6, "time_elapsed": 1118390, "serialpos": 22, "key_press": -1, "wordID": 1521, "type": "PRES_VIS", "trial_index": 247}, "uniqueid": "MTK3750:3VHHR074H4OVVBAIJQ6W9UMGLX77L2", "dateTime": 1521226320909}, {"current_trial": 248, "trialdata": {"rt": -1, "trial_type": "single-stim", "word": "patient", "stimulus": "<p id=\"stim\">PATIENT</p>", "conditions": [24, 800, "v", 24000], "internal_node_id": "0.0-185.0", "trial": 6, "time_elapsed": 1120155, "serialpos": 23, "key_press": -1, "wordID": 1023, "type": "PRES_VIS", "trial_index": 248}, "uniqueid": "MTK3750:3VHHR074H4OVVBAIJQ6W9UMGLX77L2", "dateTime": 1521226322674}, {"current_trial": 249, "trialdata": {"rt": -1, "trial_type": "single-stim", "stimulus": "", "internal_node_id": "0.0-186.0-0.0", "time_elapsed": 1122362, "key_press": -1, "type": "PRE_RECALL_DELAY", "trial_index": 249}, "uniqueid": "MTK3750:3VHHR074H4OVVBAIJQ6W9UMGLX77L2", "dateTime": 1521226324882}, {"current_trial": 250, "trialdata": {"rt": -1000, "trial_type": "single-audio", "stimulus": "/static/audio/400Hz.wav", "internal_node_id": "0.0-187.0", "time_elapsed": 1122864, "key_press": -1, "type": "PRE_RECALL_ALERT", "trial_index": 250}, "uniqueid": "MTK3750:3VHHR074H4OVVBAIJQ6W9UMGLX77L2", "dateTime": 1521226325383}, {"current_trial": 251, "trialdata": {"rt": [2545, 3666, 5124, 7436, 16867, 18240, 21489, 28196, 41673, 42776, 52641], "recwords": ["turtle", "patient", "match", "knife", "barley", "freckle", "gavel", "tortoise", "virus", "buggy", "bank"], "key_times": [1180, 1258, 1410, 2033, 2174, 2329, 2545, 2808, 2918, 3046, 3138, 3261, 3344, 3470, 3666, 3875, 3997, 4065, 4313, 4389, 5124, 6135, 6324, 6450, 6579, 6640, 7436, 15674, 15810, 15879, 16015, 16125, 16282, 16867, 17229, 17410, 17487, 17659, 17740, 17915, 17975, 18240, 20741, 20871, 20986, 21073, 21191, 21489, 26756, 26910, 27081, 27292, 27448, 27665, 27795, 27883, 28196, 40680, 40956, 41147, 41252, 41353, 41673, 41896, 42022, 42161, 42283, 42430, 42776, 51789, 51871, 52023, 52094, 52641], "trial_type": "free-recall", "conditions": [24, 800, "v", 24000], "internal_node_id": "0.0-188.0-0.0", "key_presses": [84, 85, 82, 84, 76, 69, 13, 80, 65, 84, 73, 69, 78, 84, 13, 77, 65, 84, 67, 72, 13, 75, 78, 73, 70, 69, 13, 66, 65, 82, 76, 69, 89, 13, 70, 82, 69, 67, 75, 76, 69, 13, 71, 65, 86, 69, 76, 13, 84, 79, 82, 84, 79, 73, 83, 69, 13, 86, 73, 82, 85, 83, 13, 66, 85, 71, 71, 89, 13, 66, 65, 78, 75, 13], "trial": 6, "time_elapsed": 1182870, "type": "FREE_RECALL", "trial_index": 251}, "uniqueid": "MTK3750:3VHHR074H4OVVBA