{"assignmentId": "3GA6AFUKOPVB8WQ5QTO84LHTZQWH38", "workerId": "MTK3382", "questiondata": {"origin": "United States", "strat-rehearsal": "19", "marital": "Single", "education": "Some college", "ethnicity": "Not Hispanic", "color_depth": 24, "distracted": "No", "wrote-notes": "No", "strat-other": "", "screen_width": 1093, "avail_screen_width": 1093, "avail_screen_height": 575, "strat-image": "91", "language": "english", "gender": "Female", "age": "36", "gender_other": "", "race": ["White"], "strat-categorize": "91", "pixel_depth": 24, "strat-spatial": "58", "strat-story": "41", "race_other": "", "screen_height": 615}, "bonus": 0, "hitId": "3K3IX1W4S6Y1IEPKSJ6LBI166LPAPL", "counterbalance": 260, "useragent": "Mozilla/5.0 (Windows NT 10.0; Win64; x64) AppleWebKit/537.36 (KHTML, like Gecko) Chrome/64.0.3282.186 Safari/537.36", "eventdata": [{"eventtype": "initialized", "interval": 0, "value": null, "timestamp": 1520484938469}, {"eventtype": "window_resize", "interval": 1, "value": [1096, 567], "timestamp": 1520484938470}, {"eventtype": "focus", "interval": 86593, "value": "off", "timestamp": 1520485025063}, {"eventtype": "focus", "interval": 2576, "value": "on", "timestamp": 1520485027639}, {"eventtype": "window_resize", "interval": 1408, "value": [1094, 524], "timestamp": 1520485029047}, {"eventtype": "window_resize", "interval": 3126, "value": [1096, 567], "timestamp": 1520485032173}, {"eventtype": "window_resize", "interval": 888, "value": [1094, 524], "timestamp": 1520485033061}, {"eventtype": "window_resize", "interval": 1344, "value": [1096, 567], "timestamp": 1520485034405}, {"eventtype": "window_resize", "interval": 2121, "value": [546, 228], "timestamp": 1520485036526}, {"eventtype": "window_resize", "interval": 6817, "value": [1094, 524], "timestamp": 1520485043343}, {"eventtype": "focus", "interval": 1754851, "value": "off", "timestamp": 1520486798194}, {"eventtype": "focus", "interval": 1, "value": "on", "timestamp": 1520486798195}, {"eventtype": "focus", "interval": 972529, "value": "off", "timestamp": 1520487770724}, {"eventtype": "focus", "interval": 2858, "value": "on", "timestamp": 1520487773582}], "data": [{"current_trial": 0, "trialdata": {"rt": 2281, "trial_type": "text", "internal_node_id": "0.0-0.0", "time_elapsed": 2287, "key_press": 68, "type": "INSTRUCTIONS", "trial_index": 0}, "uniqueid": "MTK3382:3GA6AFUKOPVB8WQ5QTO84LHTZQWH38", "dateTime": 1520484942328}, {"current_trial": 1, "trialdata": {"rt": 13946, "trial_type": "text", "internal_node_id": "0.0-1.0", "time_elapsed": 16238, "key_press": 82, "type": "INSTRUCTIONS", "trial_index": 1}, "uniqueid": "MTK3382:3GA6AFUKOPVB8WQ5QTO84LHTZQWH38", "dateTime": 1520484956278}, {"current_trial": 2, "trialdata": {"rt": [21497], "trial_type": "audio-test", "responses": ["ocean"], "internal_node_id": "0.0-2.0", "time_elapsed": 37771, "type": "AUDIO_TEST", "trial_index": 2}, "uniqueid": "MTK3382:3GA6AFUKOPVB8WQ5QTO84LHTZQWH38", "dateTime": 1520484977811}, {"current_trial": 3, "trialdata": {"rt": [10854], "trial_type": "audio-test", "responses": ["crystal"], "internal_node_id": "0.0-3.0", "time_elapsed": 48636, "type": "AUDIO_TEST", "trial_index": 3}, "uniqueid": "MTK3382:3GA6AFUKOPVB8WQ5QTO84LHTZQWH38", "dateTime": 1520484988676}, {"current_trial": 4, "trialdata": {"rt": [11593], "trial_type": "audio-test", "responses": ["spice"], "internal_node_id": "0.0-4.0", "time_elapsed": 60240, "type": "AUDIO_TEST", "trial_index": 4}, "uniqueid": "MTK3382:3GA6AFUKOPVB8WQ5QTO84LHTZQWH38", "dateTime": 1520485000281}, {"current_trial": 5, "trialdata": {"rt": 38951, "trial_type": "survey-text", "responses": "{\"Q0\":\"2 am\",\"Q1\":\"8 am\",\"Q2\":\"2\"}", "internal_node_id": "0.0-5.0", "time_elapsed": 99948, "type": "SLEEP_SURVEY", "trial_index": 5}, "uniqueid": "MTK3382:3GA6AFUKOPVB8WQ5QTO84LHTZQWH38", "dateTime": 1520485039988}, {"current_trial": 6, "trialdata": {"rt": 41878, "trial_type": "text", "internal_node_id": "0.0-6.0", "time_elapsed": 142832, "key_press": 76, "type": "INSTRUCTIONS", "trial_index": 6}, "uniqueid": "MTK3382:3GA6AFUKOPVB8WQ5QTO84LHTZQWH38", "dateTime": 1520485082872}, {"current_trial": 7, "trialdata": {"rt": 15472, "trial_type": "text", "internal_node_id": "0.0-7.0", "time_elapsed": 158808, "key_press": 186, "type": "INSTRUCTIONS", "trial_index": 7}, "uniqueid": "MTK3382:3GA6AFUKOPVB8WQ5QTO84LHTZQWH38", "dateTime": 1520485098849}, {"current_trial": 8, "trialdata": {"rt": 18487, "trial_type": "text", "internal_node_id": "0.0-8.0", "time_elapsed": 177801, "key_press": 13, "type": "INSTRUCTIONS", "trial_index": 8}, "uniqueid": "MTK3382:3GA6AFUKOPVB8WQ5QTO84LHTZQWH38", "dateTime": 1520485117842}, {"current_trial": 9, "trialdata": {"rt": [7880, 13730], "trial_type": "math-distractor", "key_times": [6834, 6931, 7880, 12703, 12954, 13730, 17388, 17603], "responses": ["12", "18"], "num2": [3, 6, 7], "num3": [5, 9, 9], "conditions": [18, 1200, "v", 18000], "internal_node_id": "0.0-9.0", "key_presses": [49, 50, 13, 49, 56, 13, 49, 55], "trial": 0, "time_elapsed": 196814, "type": "DISTRACTOR", "trial_index": 9, "num1": [4, 3, 1]}, "uniqueid": "MTK3382:3GA6AFUKOPVB8WQ5QTO84LHTZQWH38", "dateTime": 1520485136854}, {"current_trial": 10, "trialdata": {"rt": -1, "trial_type": "single-stim", "stimulus": "<p id=\"stim\">10</p>", "internal_node_id": "0.0-10.0-0.0", "time_elapsed": 199820, "key_press": -1, "trial_index": 10}, "uniqueid": "MTK3382:3GA6AFUKOPVB8WQ5QTO84LHTZQWH38", "dateTime": 1520485139861}, {"current_trial": 11, "trialdata": {"rt": -1, "trial_type": "single-stim", "stimulus": "<p id=\"stim\">9</p>", "internal_node_id": "0.0-10.0-1.0", "time_elapsed": 200825, "key_press": -1, "trial_index": 11}, "uniqueid": "MTK3382:3GA6AFUKOPVB8WQ5QTO84LHTZQWH38", "dateTime": 1520485140865}, {"current_trial": 12, "trialdata": {"rt": -1, "trial_type": "single-stim", "stimulus": "<p id=\"stim\">8</p>", "internal_node_id": "0.0-10.0-2.0", "time_elapsed": 201828, "key_press": -1, "trial_index": 12}, "uniqueid": "MTK3382:3GA6AFUKOPVB8WQ5QTO84LHTZQWH38", "dateTime": 1520485141868}, {"current_trial": 13, "trialdata": {"rt": -1, "trial_type": "single-stim", "stimulus": "<p id=\"stim\">7</p>", "internal_node_id": "0.0-10.0-3.0", "time_elapsed": 202832, "key_press": -1, "trial_index": 13}, "uniqueid": "MTK3382:3GA6AFUKOPVB8WQ5QTO84LHTZQWH38", "dateTime": 1520485142873}, {"current_trial": 14, "trialdata": {"rt": -1, "trial_type": "single-stim", "stimulus": "<p id=\"stim\">6</p>", "internal_node_id": "0.0-10.0-4.0", "time_elapsed": 203838, "key_press": -1, "trial_index": 14}, "uniqueid": "MTK3382:3GA6AFUKOPVB8WQ5QTO84LHTZQWH38", "dateTime": 1520485143878}, {"current_trial": 15, "trialdata": {"rt": -1, "trial_type": "single-stim", "stimulus": "<p id=\"stim\">5</p>", "internal_node_id": "0.0-10.0-5.0", "time_elapsed": 204842, "key_press": -1, "trial_index": 15}, "uniqueid": "MTK3382:3GA6AFUKOPVB8WQ5QTO84LHTZQWH38", "dateTime": 1520485144882}, {"current_trial": 16, "trialdata": {"rt": -1, "trial_type": "single-stim", "stimulus": "<p id=\"stim\">4</p>", "internal_node_id": "0.0-10.0-6.0", "time_elapsed": 205847, "key_press": -1, "trial_index": 16}, "uniqueid": "MTK3382:3GA6AFUKOPVB8WQ5QTO84LHTZQWH38", "dateTime": 1520485145888}, {"current_trial": 17, "trialdata": {"rt": -1, "trial_type": "single-stim", "stimulus": "<p id=\"stim\">3</p>", "internal_node_id": "0.0-10.0-7.0", "time_elapsed": 206851, "key_press": -1, "trial_index": 17}, "uniqueid": "MTK3382:3GA6AFUKOPVB8WQ5QTO84LHTZQWH38", "dateTime": 1520485146892}, {"current_trial": 18, "trialdata": {"rt": -1, "trial_type": "single-stim", "stimulus": "<p id=\"stim\">2</p>", "internal_node_id": "0.0-10.0-8.0", "time_elapsed": 207855, "key_press": -1, "trial_index": 18}, "uniqueid": "MTK3382:3GA6AFUKOPVB8WQ5QTO84LHTZQWH38", "dateTime": 1520485147895}, {"current_trial": 19, "trialdata": {"rt": -1, "trial_type": "single-stim", "stimulus": "<p id=\"stim\">1</p>", "internal_node_id": "0.0-10.0-9.0", "time_elapsed": 208860, "key_press": -1, "trial_index": 19}, "uniqueid": "MTK3382:3GA6AFUKOPVB8WQ5QTO84LHTZQWH38", "dateTime": 1520485148900}, {"current_trial": 20, "trialdata": {"rt": -1, "trial_type": "single-stim", "stimulus": "<p id=\"stim\">+</p>", "internal_node_id": "0.0-11.0-0.0", "time_elapsed": 210364, "key_press": -1, "type": "FIXATION", "trial_index": 20}, "uniqueid": "MTK3382:3GA6AFUKOPVB8WQ5QTO84LHTZQWH38", "dateTime": 1520485150405}, {"current_trial": 21, "trialdata": {"rt": -1, "trial_type": "single-stim", "word": "parent", "stimulus": "<p id=\"stim\">PARENT</p>", "conditions": [18, 1200, "v", 18000], "internal_node_id": "0.0-12.0", "trial": 0, "time_elapsed": 211567, "serialpos": 0, "key_press": -1, "wordID": 1012, "type": "PRES_VIS", "trial_index": 21}, "uniqueid": "MTK3382:3GA6AFUKOPVB8WQ5QTO84LHTZQWH38", "dateTime": 1520485151607}, {"current_trial": 22, "trialdata": {"rt": -1, "trial_type": "single-stim", "word": "banker", "stimulus": "<p id=\"stim\">BANKER</p>", "conditions": [18, 1200, "v", 18000], "internal_node_id": "0.0-13.0", "trial": 0, "time_elapsed": 213667, "serialpos": 1, "key_press": -1, "wordID": 83, "type": "PRES_VIS", "trial_index": 22}, "uniqueid": "MTK3382:3GA6AFUKOPVB8WQ5QTO84LHTZQWH38", "dateTime": 1520485153707}, {"current_trial": 23, "trialdata": {"rt": -1, "trial_type": "single-stim", "word": "ointment", "stimulus": "<p id=\"stim\">OINTMENT</p>", "conditions": [18, 1200, "v", 18000], "internal_node_id": "0.0-14.0", "trial": 0, "time_elapsed": 215721, "serialpos": 2, "key_press": -1, "wordID": 973, "type": "PRES_VIS", "trial_index": 23}, "uniqueid": "MTK3382:3GA6AFUKOPVB8WQ5QTO84LHTZQWH38", "dateTime": 1520485155761}, {"current_trial": 24, "trialdata": {"rt": -1, "trial_type": "single-stim", "word": "harp", "stimulus": "<p id=\"stim\">HARP</p>", "conditions": [18, 1200, "v", 18000], "internal_node_id": "0.0-15.0", "trial": 0, "time_elapsed": 218086, "serialpos": 3, "key_press": -1, "wordID": 688, "type": "PRES_VIS", "trial_index": 24}, "uniqueid": "MTK3382:3GA6AFUKOPVB8WQ5QTO84LHTZQWH38", "dateTime": 1520485158126}, {"current_trial": 25, "trialdata": {"rt": -1, "trial_type": "single-stim", "word": "pocket", "stimulus": "<p id=\"stim\">POCKET</p>", "conditions": [18, 1200, "v", 18000], "internal_node_id": "0.0-16.0", "trial": 0, "time_elapsed": 220317, "serialpos": 4, "key_press": -1, "wordID": 1092, "type": "PRES_VIS", "trial_index": 25}, "uniqueid": "MTK3382:3GA6AFUKOPVB8WQ5QTO84LHTZQWH38", "dateTime": 1520485160357}, {"current_trial": 26, "trialdata": {"rt": -1, "trial_type": "single-stim", "word": "shelf", "stimulus": "<p id=\"stim\">SHELF</p>", "conditions": [18, 1200, "v", 18000], "internal_node_id": "0.0-17.0", "trial": 0, "time_elapsed": 222476, "serialpos": 5, "key_press": -1, "wordID": 1279, "type": "PRES_VIS", "trial_index": 26}, "uniqueid": "MTK3382:3GA6AFUKOPVB8WQ5QTO84LHTZQWH38", "dateTime": 1520485162516}, {"current_trial": 27, "trialdata": {"rt": -1, "trial_type": "single-stim", "word": "stallion", "stimulus": "<p id=\"stim\">STALLION</p>", "conditions": [18, 1200, "v", 18000], "internal_node_id": "0.0-18.0", "trial": 0, "time_elapsed": 224660, "serialpos": 6, "key_press": -1, "wordID": 1368, "type": "PRES_VIS", "trial_index": 27}, "uniqueid": "MTK3382:3GA6AFUKOPVB8WQ5QTO84LHTZQWH38", "dateTime": 1520485164701}, {"current_trial": 28, "trialdata": {"rt": -1, "trial_type": "single-stim", "word": "subway", "stimulus": "<p id=\"stim\">SUBWAY</p>", "conditions": [18, 1200, "v", 18000], "internal_node_id": "0.0-19.0", "trial": 0, "time_elapsed": 226822, "serialpos": 7, "key_press": -1, "wordID": 1399, "type": "PRES_VIS", "trial_index": 28}, "uniqueid": "MTK3382:3GA6AFUKOPVB8WQ5QTO84LHTZQWH38", "dateTime": 1520485166862}, {"current_trial": 29, "trialdata": {"rt": -1, "trial_type": "single-stim", "word": "author", "stimulus": "<p id=\"stim\">AUTHOR</p>", "conditions": [18, 1200, "v", 18000], "internal_node_id": "0.0-20.0", "trial": 0, "time_elapsed": 229104, "serialpos": 8, "key_press": -1, "wordID": 60, "type": "PRES_VIS", "trial_index": 29}, "uniqueid": "MTK3382:3GA6AFUKOPVB8WQ5QTO84LHTZQWH38", "dateTime": 1520485169145}, {"current_trial": 30, "trialdata": {"rt": -1, "trial_type": "single-stim", "word": "waitress", "stimulus": "<p id=\"stim\">WAITRESS</p>", "conditions": [18, 1200, "v", 18000], "internal_node_id": "0.0-21.0", "trial": 0, "time_elapsed": 231361, "serialpos": 9, "key_press": -1, "wordID": 1580, "type": "PRES_VIS", "trial_index": 30}, "uniqueid": "MTK3382:3GA6AFUKOPVB8WQ5QTO84LHTZQWH38", "dateTime": 1520485171401}, {"current_trial": 31, "trialdata": {"rt": -1, "trial_type": "single-stim", "word": "oyster", "stimulus": "<p id=\"stim\">OYSTER</p>", "conditions": [18, 1200, "v", 18000], "internal_node_id": "0.0-22.0", "trial": 0, "time_elapsed": 233756, "serialpos": 10, "key_press": -1, "wordID": 994, "type": "PRES_VIS", "trial_index": 31}, "uniqueid": "MTK3382:3GA6AFUKOPVB8WQ5QTO84LHTZQWH38", "dateTime": 1520485173796}, {"current_trial": 32, "trialdata": {"rt": -1, "trial_type": "single-stim", "word": "cabin", "stimulus": "<p id=\"stim\">CABIN</p>", "conditions": [18, 1200, "v", 18000], "internal_node_id": "0.0-23.0", "trial": 0, "time_elapsed": 236127, "serialpos": 11, "key_press": -1, "wordID": 210, "type": "PRES_VIS", "trial_index": 32}, "uniqueid": "MTK3382:3GA6AFUKOPVB8WQ5QTO84LHTZQWH38", "dateTime": 1520485176167}, {"current_trial": 33, "trialdata": {"rt": -1, "trial_type": "single-stim", "word": "rocket", "stimulus": "<p id=\"stim\">ROCKET</p>", "conditions": [18, 1200, "v", 18000], "internal_node_id": "0.0-24.0", "trial": 0, "time_elapsed": 238370, "serialpos": 12, "key_press": -1, "wordID": 1201, "type": "PRES_VIS", "trial_index": 33}, "uniqueid": "MTK3382:3GA6AFUKOPVB8WQ5QTO84LHTZQWH38", "dateTime": 1520485178411}, {"current_trial": 34, "trialdata": {"rt": -1, "trial_type": "single-stim", "word": "doughnut", "stimulus": "<p id=\"stim\">DOUGHNUT</p>", "conditions": [18, 1200, "v", 18000], "internal_node_id": "0.0-25.0", "trial": 0, "time_elapsed": 240713, "serialpos": 13, "key_press": -1, "wordID": 489, "type": "PRES_VIS", "trial_index": 34}, "uniqueid": "MTK3382:3GA6AFUKOPVB8WQ5QTO84LHTZQWH38", "dateTime": 1520485180753}, {"current_trial": 35, "trialdata": {"rt": -1, "trial_type": "single-stim", "word": "pasta", "stimulus": "<p id=\"stim\">PASTA</p>", "conditions": [18, 1200, "v", 18000], "internal_node_id": "0.0-26.0", "trial": 0, "time_elapsed": 243075, "serialpos": 14, "key_press": -1, "wordID": 1020, "type": "PRES_VIS", "trial_index": 35}, "uniqueid": "MTK3382:3GA6AFUKOPVB8WQ5QTO84LHTZQWH38", "dateTime": 1520485183115}, {"current_trial": 36, "trialdata": {"rt": -1, "trial_type": "single-stim", "word": "radish", "stimulus": "<p id=\"stim\">RADISH</p>", "conditions": [18, 1200, "v", 18000], "internal_node_id": "0.0-27.0", "trial": 0, "time_elapsed": 245221, "serialpos": 15, "key_press": -1, "wordID": 1157, "type": "PRES_VIS", "trial_index": 36}, "uniqueid": "MTK3382:3GA6AFUKOPVB8WQ5QTO84LHTZQWH38", "dateTime": 1520485185262}, {"current_trial": 37, "trialdata": {"rt": -1, "trial_type": "single-stim", "word": "flesh", "stimulus": "<p id=\"stim\">FLESH</p>", "conditions": [18, 1200, "v", 18000], "internal_node_id": "0.0-28.0", "trial": 0, "time_elapsed": 247346, "serialpos": 16, "key_press": -1, "wordID": 578, "type": "PRES_VIS", "trial_index": 37}, "uniqueid": "MTK3382:3GA6AFUKOPVB8WQ5QTO84LHTZQWH38", "dateTime": 1520485187389}, {"current_trial": 38, "trialdata": {"rt": -1, "trial_type": "single-stim", "word": "rattle", "stimulus": "<p id=\"stim\">RATTLE</p>", "conditions": [18, 1200, "v", 18000], "internal_node_id": "0.0-29.0", "trial": 0, "time_elapsed": 249574, "serialpos": 17, "key_press": -1, "wordID": 1169, "type": "PRES_VIS", "trial_index": 38}, "uniqueid": "MTK3382:3GA6AFUKOPVB8WQ5QTO84LHTZQWH38", "dateTime": 1520485189614}, {"current_trial": 39, "trialdata": {"rt": -1, "trial_type": "single-stim", "stimulus": "", "internal_node_id": "0.0-30.0-0.0", "time_elapsed": 251871, "key_press": -1, "type": "PRE_RECALL_DELAY", "trial_index": 39}, "uniqueid": "MTK3382:3GA6AFUKOPVB8WQ5QTO84LHTZQWH38", "dateTime": 1520485191912}, {"current_trial": 40, "trialdata": {"rt": -1000, "trial_type": "single-audio", "stimulus": "/static/audio/400Hz.wav", "internal_node_id": "0.0-31.0", "time_elapsed": 252382, "key_press": -1, "type": "PRE_RECALL_ALERT", "trial_index": 40}, "uniqueid": "MTK3382:3GA6AFUKOPVB8WQ5QTO84LHTZQWH38", "dateTime": 1520485192422}, {"current_trial": 41, "trialdata": {"rt": [8156, 10729, 14241, 17078, 20247, 24241, 27088, 45127, 58945], "recwords": ["ointment", "banker", "waitress", "parent", "oyster", "subway", "author", "writer", "picture"], "key_times": [2333, 2453, 2731, 5970, 6107, 6579, 6783, 7011, 7261, 8156, 9015, 9175, 9456, 9813, 10111, 10197, 10729, 11372, 11607, 11828, 12146, 12541, 12659, 13137, 13277, 14241, 14826, 15124, 15531, 15651, 15886, 16084, 17078, 18269, 18570, 19028, 19266, 19415, 19534, 20247, 22046, 22208, 23031, 23244, 23506, 23682, 24241, 24920, 25154, 25398, 25551, 26118, 26293, 27088, 42863, 43150, 43429, 43899, 44008, 44101, 45127, 56960, 57198, 57370, 57706, 58298, 58430, 58534, 58945], "trial_type": "free-recall", "conditions": [18, 1200, "v", 18000], "internal_node_id": "0.0-32.0-0.0", "key_presses": [16, 79, 73, 78, 84, 77, 69, 78, 84, 13, 66, 65, 78, 75, 69, 82, 13, 87, 65, 73, 84, 82, 69, 83, 83, 13, 80, 65, 82, 69, 78, 84, 13, 79, 89, 83, 84, 69, 82, 13, 83, 85, 66, 87, 65, 89, 13, 65, 85, 84, 72, 79, 82, 13, 87, 82, 73, 84, 69, 82, 13, 80, 73, 67, 84, 85, 82, 69, 13], "trial": 0, "time_elapsed": 312391, "type": "FREE_RECALL", "trial_index": 41}, "uniqueid": "MTK3382:3GA6AFUKOPVB8WQ5QTO84LHTZQWH38", "dateTime": 1520485252435}, {"current_trial": 42, "trialdata": {"rt": 1773, "trial_type": "text", "internal_node_id": "0.0-33.0", "time_elapsed": 316170, "key_press": 32, "type": "INSTRUCTIONS", "trial_index": 42}, "uniqueid": "MTK3382:3GA6AFUKOPVB8WQ5QTO84LHTZQWH38", "dateTime": 1520485256210}, {"current_trial": 43, "trialdata": {"rt": [3895, 14354], "trial_type": "math-distractor", "key_times": [2939, 3895, 12777, 13453, 14354, 17228, 17634], "responses": ["8", "17"], "num2": [6, 8, 9], "num3": [1, 6, 3], "conditions": [18, 1200, "v", 18000], "internal_node_id": "0.0-34.0", "key_presses": [56, 13, 49, 55, 13, 49, 53], "trial": 1, "time_elapsed": 336180, "type": "DISTRACTOR", "trial_index": 43, "num1": [1, 3, 3]}, "uniqueid": "MTK3382:3GA6AFUKOPVB8WQ5QTO84LHTZQWH38", "dateTime": 1520485276220}, {"current_trial": 44, "trialdata": {"rt": -1, "trial_type": "single-stim", "stimulus": "<p id=\"stim\">10</p>", "internal_node_id": "0.0-35.0-0.0", "time_elapsed": 339185, "key_press": -1, "trial_index": 44}, "uniqueid": "MTK3382:3GA6AFUKOPVB8WQ5QTO84LHTZQWH38", "dateTime": 1520485279226}, {"current_trial": 45, "trialdata": {"rt": -1, "trial_type": "single-stim", "stimulus": "<p id=\"stim\">9</p>", "internal_node_id": "0.0-35.0-1.0", "time_elapsed": 340187, "key_press": -1, "trial_index": 45}, "uniqueid": "MTK3382:3GA6AFUKOPVB8WQ5QTO84LHTZQWH38", "dateTime": 1520485280228}, {"current_trial": 46, "trialdata": {"rt": -1, "trial_type": "single-stim", "stimulus": "<p id=\"stim\">8</p>", "internal_node_id": "0.0-35.0-2.0", "time_elapsed": 341193, "key_press": -1, "trial_index": 46}, "uniqueid": "MTK3382:3GA6AFUKOPVB8WQ5QTO84LHTZQWH38", "dateTime": 1520485281234}, {"current_trial": 47, "trialdata": {"rt": -1, "trial_type": "single-stim", "stimulus": "<p id=\"stim\">7</p>", "internal_node_id": "0.0-35.0-3.0", "time_elapsed": 342199, "key_press": -1, "trial_index": 47}, "uniqueid": "MTK3382:3GA6AFUKOPVB8WQ5QTO84LHTZQWH38", "dateTime": 1520485282240}, {"current_trial": 48, "trialdata": {"rt": -1, "trial_type": "single-stim", "stimulus": "<p id=\"stim\">6</p>", "internal_node_id": "0.0-35.0-4.0", "time_elapsed": 343204, "key_press": -1, "trial_index": 48}, "uniqueid": "MTK3382:3GA6AFUKOPVB8WQ5QTO84LHTZQWH38", "dateTime": 1520485283251}, {"current_trial": 49, "trialdata": {"rt": -1, "trial_type": "single-stim", "stimulus": "<p id=\"stim\">5</p>", "internal_node_id": "0.0-35.0-5.0", "time_elapsed": 344216, "key_press": -1, "trial_index": 49}, "uniqueid": "MTK3382:3GA6AFUKOPVB8WQ5QTO84LHTZQWH38", "dateTime": 1520485284257}, {"current_trial": 50, "trialdata": {"rt": -1, "trial_type": "single-stim", "stimulus": "<p id=\"stim\">4</p>", "internal_node_id": "0.0-35.0-6.0", "time_elapsed": 345220, "key_press": -1, "trial_index": 50}, "uniqueid": "MTK3382:3GA6AFUKOPVB8WQ5QTO84LHTZQWH38", "dateTime": 1520485285261}, {"current_trial": 51, "trialdata": {"rt": -1, "trial_type": "single-stim", "stimulus": "<p id=\"stim\">3</p>", "internal_node_id": "0.0-35.0-7.0", "time_elapsed": 346227, "key_press": -1, "trial_index": 51}, "uniqueid": "MTK3382:3GA6AFUKOPVB8WQ5QTO84LHTZQWH38", "dateTime": 1520485286267}, {"current_trial": 52, "trialdata": {"rt": -1, "trial_type": "single-stim", "stimulus": "<p id=\"stim\">2</p>", "internal_node_id": "0.0-35.0-8.0", "time_elapsed": 347232, "key_press": -1, "trial_index": 52}, "uniqueid": "MTK3382:3GA6AFUKOPVB8WQ5QTO84LHTZQWH38", "dateTime": 1520485287273}, {"current_trial": 53, "trialdata": {"rt": -1, "trial_type": "single-stim", "stimulus": "<p id=\"stim\">1</p>", "internal_node_id": "0.0-35.0-9.0", "time_elapsed": 348239, "key_press": -1, "trial_index": 53}, "uniqueid": "MTK3382:3GA6AFUKOPVB8WQ5QTO84LHTZQWH38", "dateTime": 1520485288280}, {"current_trial": 54, "trialdata": {"rt": -1, "trial_type": "single-stim", "stimulus": "<p id=\"stim\">+</p>", "internal_node_id": "0.0-36.0-0.0", "time_elapsed": 349745, "key_press": -1, "type": "FIXATION", "trial_index": 54}, "uniqueid": "MTK3382:3GA6AFUKOPVB8WQ5QTO84LHTZQWH38", "dateTime": 1520485289786}, {"current_trial": 55, "trialdata": {"rt": -1, "trial_type": "single-stim", "word": "agent", "stimulus": "<p id=\"stim\">AGENT</p>", "conditions": [18, 1200, "v", 18000], "internal_node_id": "0.0-37.0", "trial": 1, "time_elapsed": 350953, "serialpos": 0, "key_press": -1, "wordID": 9, "type": "PRES_VIS", "trial_index": 55}, "uniqueid": "MTK3382:3GA6AFUKOPVB8WQ5QTO84LHTZQWH38", "dateTime": 1520485290994}, {"current_trial": 56, "trialdata": {"rt": -1, "trial_type": "single-stim", "word": "marker", "stimulus": "<p id=\"stim\">MARKER</p>", "conditions": [18, 1200, "v", 18000], "internal_node_id": "0.0-38.0", "trial": 1, "time_elapsed": 353222, "serialpos": 1, "key_press": -1, "wordID": 869, "type": "PRES_VIS", "trial_index": 56}, "uniqueid": "MTK3382:3GA6AFUKOPVB8WQ5QTO84LHTZQWH38", "dateTime": 1520485293263}, {"current_trial": 57, "trialdata": {"rt": -1, "trial_type": "single-stim", "word": "kitchen", "stimulus": "<p id=\"stim\">KITCHEN</p>", "conditions": [18, 1200, "v", 18000], "internal_node_id": "0.0-39.0", "trial": 1, "time_elapsed": 355318, "serialpos": 2, "key_press": -1, "wordID": 777, "type": "PRES_VIS", "trial_index": 57}, "uniqueid": "MTK3382:3GA6AFUKOPVB8WQ5QTO84LHTZQWH38", "dateTime": 1520485295359}, {"current_trial": 58, "trialdata": {"rt": -1, "trial_type": "single-stim", "word": "glove", "stimulus": "<p id=\"stim\">GLOVE</p>", "conditions": [18, 1200, "v", 18000], "internal_node_id": "0.0-40.0", "trial": 1, "time_elapsed": 357722, "serialpos": 3, "key_press": -1, "wordID": 641, "type": "PRES_VIS", "trial_index": 58}, "uniqueid": "MTK3382:3GA6AFUKOPVB8WQ5QTO84LHTZQWH38", "dateTime": 1520485297762}, {"current_trial": 59, "trialdata": {"rt": -1, "trial_type": "single-stim", "word": "film", "stimulus": "<p id=\"stim\">FILM</p>", "conditions": [18, 1200, "v", 18000], "internal_node_id": "0.0-41.0", "trial": 1, "time_elapsed": 359915, "serialpos": 4, "key_press": -1, "wordID": 564, "type": "PRES_VIS", "trial_index": 59}, "uniqueid": "MTK3382:3GA6AFUKOPVB8WQ5QTO84LHTZQWH38", "dateTime": 1520485299956}, {"current_trial": 60, "trialdata": {"rt": -1, "trial_type": "single-stim", "word": "inmate", "stimulus": "<p id=\"stim\">INMATE</p>", "conditions": [18, 1200, "v", 18000], "internal_node_id": "0.0-42.0", "trial": 1, "time_elapsed": 362291, "serialpos": 5, "key_press": -1, "wordID": 737, "type": "PRES_VIS", "trial_index": 60}, "uniqueid": "MTK3382:3GA6AFUKOPVB8WQ5QTO84LHTZQWH38", "dateTime": 1520485302332}, {"current_trial": 61, "trialdata": {"rt": -1, "trial_type": "single-stim", "word": "slime", "stimulus": "<p id=\"stim\">SLIME</p>", "conditions": [18, 1200, "v", 18000], "internal_node_id": "0.0-43.0", "trial": 1, "time_elapsed": 364354, "serialpos": 6, "key_press": -1, "wordID": 1326, "type": "PRES_VIS", "trial_index": 61}, "uniqueid": "MTK3382:3GA6AFUKOPVB8WQ5QTO84LHTZQWH38", "dateTime": 1520485304395}, {"current_trial": 62, "trialdata": {"rt": -1, "trial_type": "single-stim", "word": "tunnel", "stimulus": "<p id=\"stim\">TUNNEL</p>", "conditions": [18, 1200, "v", 18000], "internal_node_id": "0.0-44.0", "trial": 1, "time_elapsed": 366380, "serialpos": 7, "key_press": -1, "wordID": 1518, "type": "PRES_VIS", "trial_index": 62}, "uniqueid": "MTK3382:3GA6AFUKOPVB8WQ5QTO84LHTZQWH38", "dateTime": 1520485306420}, {"current_trial": 63, "trialdata": {"rt": -1, "trial_type": "single-stim", "word": "hostess", "stimulus": "<p id=\"stim\">HOSTESS</p>", "conditions": [18, 1200, "v", 18000], "internal_node_id": "0.0-45.0", "trial": 1, "time_elapsed": 368495, "serialpos": 8, "key_press": -1, "wordID": 722, "type": "PRES_VIS", "trial_index": 63}, "uniqueid": "MTK3382:3GA6AFUKOPVB8WQ5QTO84LHTZQWH38", "dateTime": 1520485308535}, {"current_trial": 64, "trialdata": {"rt": -1, "trial_type": "single-stim", "word": "robber", "stimulus": "<p id=\"stim\">ROBBER</p>", "conditions": [18, 1200, "v", 18000], "internal_node_id": "0.0-46.0", "trial": 1, "time_elapsed": 370526, "serialpos": 9, "key_press": -1, "wordID": 1196, "type": "PRES_VIS", "trial_index": 64}, "uniqueid": "MTK3382:3GA6AFUKOPVB8WQ5QTO84LHTZQWH38", "dateTime": 1520485310567}, {"current_trial": 65, "trialdata": {"rt": -1, "trial_type": "single-stim", "word": "bunny", "stimulus": "<p id=\"stim\">BUNNY</p>", "conditions": [18, 1200, "v", 18000], "internal_node_id": "0.0-47.0", "trial": 1, "time_elapsed": 372791, "serialpos": 10, "key_press": -1, "wordID": 197, "type": "PRES_VIS", "trial_index": 65}, "uniqueid": "MTK3382:3GA6AFUKOPVB8WQ5QTO84LHTZQWH38", "dateTime": 1520485312832}, {"current_trial": 66, "trialdata": {"rt": -1, "trial_type": "single-stim", "word": "beef", "stimulus": "<p id=\"stim\">BEEF</p>", "conditions": [18, 1200, "v", 18000], "internal_node_id": "0.0-48.0", "trial": 1, "time_elapsed": 374901, "serialpos": 11, "key_press": -1, "wordID": 112, "type": "PRES_VIS", "trial_index": 66}, "uniqueid": "MTK3382:3GA6AFUKOPVB8WQ5QTO84LHTZQWH38", "dateTime": 1520485314942}, {"current_trial": 67, "trialdata": {"rt": -1, "trial_type": "single-stim", "word": "racket", "stimulus": "<p id=\"stim\">RACKET</p>", "conditions": [18, 1200, "v", 18000], "internal_node_id": "0.0-49.0", "trial": 1, "time_elapsed": 377214, "serialpos": 12, "key_press": -1, "wordID": 1154, "type": "PRES_VIS", "trial_index": 67}, "uniqueid": "MTK3382:3GA6AFUKOPVB8WQ5QTO84LHTZQWH38", "dateTime": 1520485317255}, {"current_trial": 68, "trialdata": {"rt": -1, "trial_type": "single-stim", "word": "bureau", "stimulus": "<p id=\"stim\">BUREAU</p>", "conditions": [18, 1200, "v", 18000], "internal_node_id": "0.0-50.0", "trial": 1, "time_elapsed": 379282, "serialpos": 13, "key_press": -1, "wordID": 198, "type": "PRES_VIS", "trial_index": 68}, "uniqueid": "MTK3382:3GA6AFUKOPVB8WQ5QTO84LHTZQWH38", "dateTime": 1520485319340}, {"current_trial": 69, "trialdata": {"rt": -1, "trial_type": "single-stim", "word": "milk", "stimulus": "<p id=\"stim\">MILK</p>", "conditions": [18, 1200, "v", 18000], "internal_node_id": "0.0-51.0", "trial": 1, "time_elapsed": 381482, "serialpos": 14, "key_press": -1, "wordID": 894, "type": "PRES_VIS", "trial_index": 69}, "uniqueid": "MTK3382:3GA6AFUKOPVB8WQ5QTO84LHTZQWH38", "dateTime": 1520485321523}, {"current_trial": 70, "trialdata": {"rt": -1, "trial_type": "single-stim", "word": "paddle", "stimulus": "<p id=\"stim\">PADDLE</p>", "conditions": [18, 1200, "v", 18000], "internal_node_id": "0.0-52.0", "trial": 1, "time_elapsed": 383808, "serialpos": 15, "key_press": -1, "wordID": 999, "type": "PRES_VIS", "trial_index": 70}, "uniqueid": "MTK3382:3GA6AFUKOPVB8WQ5QTO84LHTZQWH38", "dateTime": 1520485323850}, {"current_trial": 71, "trialdata": {"rt": -1, "trial_type": "single-stim", "word": "denim", "stimulus": "<p id=\"stim\">DENIM</p>", "conditions": [18, 1200, "v", 18000], "internal_node_id": "0.0-53.0", "trial": 1, "time_elapsed": 385905, "serialpos": 16, "key_press": -1, "wordID": 445, "type": "PRES_VIS", "trial_index": 71}, "uniqueid": "MTK3382:3GA6AFUKOPVB8WQ5QTO84LHTZQWH38", "dateTime": 1520485325945}, {"current_trial": 72, "trialdata": {"rt": -1, "trial_type": "single-stim", "word": "scallop", "stimulus": "<p id=\"stim\">SCALLOP</p>", "conditions": [18, 1200, "v", 18000], "internal_node_id": "0.0-54.0", "trial": 1, "time_elapsed": 388181, "serialpos": 17, "key_press": -1, "wordID": 1241, "type": "PRES_VIS", "trial_index": 72}, "uniqueid": "MTK3382:3GA6AFUKOPVB8WQ5QTO84LHTZQWH38", "dateTime": 1520485328221}, {"current_trial": 73, "trialdata": {"rt": -1, "trial_type": "single-stim", "stimulus": "", "internal_node_id": "0.0-55.0-0.0", "time_elapsed": 390350, "key_press": -1, "type": "PRE_RECALL_DELAY", "trial_index": 73}, "uniqueid": "MTK3382:3GA6AFUKOPVB8WQ5QTO84LHTZQWH38", "dateTime": 1520485330390}, {"current_trial": 74, "trialdata": {"rt": -1000, "trial_type": "single-audio", "stimulus": "/static/audio/400Hz.wav", "internal_node_id": "0.0-56.0", "time_elapsed": 390859, "key_press": -1, "type": "PRE_RECALL_ALERT", "trial_index": 74}, "uniqueid": "MTK3382:3GA6AFUKOPVB8WQ5QTO84LHTZQWH38", "dateTime": 1520485330899}, {"current_trial": 75, "trialdata": {"rt": [7044, 10955, 16516, 19695, 23154, 25981, 34008, 46476, 49638, 53841, 56667, 59163], "recwords": ["glove", "paddel", "denium", "scallop", "film", "inmate", "agent", "kitchen", "slime", "robber", "hostess", "beef"], "key_times": [3673, 4169, 4332, 4762, 4891, 7044, 7372, 7616, 7931, 8079, 8652, 8806, 10955, 12686, 12827, 13124, 13869, 15117, 15408, 16516, 16784, 17022, 17614, 17863, 17991, 18270, 18422, 19695, 20824, 20983, 21203, 22251, 23154, 23615, 24197, 24462, 24608, 24881, 25022, 25981, 26397, 26810, 26933, 27225, 28292, 29981, 30158, 30430, 30567, 30770, 30903, 31213, 32120, 32294, 32432, 32585, 32744, 32896, 33263, 34008, 34696, 34848, 35116, 35762, 36706, 37373, 39079, 39253, 39414, 39583, 42678, 44111, 44592, 44723, 44873, 45006, 45234, 46476, 47862, 48001, 48182, 48384, 48490, 49638, 51929, 52497, 52803, 52950, 53048, 53149, 53841, 54365, 54637, 54816, 55057, 55231, 55530, 55666, 56667, 58109, 58392, 58538, 58765, 59163, 59598, 59874], "trial_type": "free-recall", "conditions": [18, 1200, "v", 18000], "internal_node_id": "0.0-57.0-0.0", "key_presses": [71, 76, 79, 86, 69, 13, 80, 65, 68, 68, 69, 76, 13, 68, 69, 78, 73, 85, 77, 13, 83, 67, 65, 76, 76, 79, 80, 13, 70, 73, 76, 77, 13, 73, 78, 77, 65, 84, 69, 13, 65, 71, 69, 78, 84, 75, 73, 84, 67, 72, 69, 78, 8, 8, 8, 8, 8, 8, 8, 13, 75, 73, 67, 72, 69, 78, 8, 8, 8, 8, 73, 8, 84, 67, 72, 69, 78, 13, 83, 76, 73, 77, 69, 13, 82, 79, 66, 66, 69, 82, 13, 72, 79, 83, 84, 69, 83, 83, 13, 66, 69, 69, 70, 13, 66, 85], "trial": 1, "time_elapsed": 450872, "type": "FREE_RECALL", "trial_index": 75}, "uniqueid": "MTK3382:3GA6AFUKOPVB8WQ5QTO84LHTZQWH38", "dateTime": 1520485390925}, {"current_trial": 76, "trialdata": {"rt": 15303, "trial_type": "text", "internal_node_id": "0.0-58.0", "time_elapsed": 468193, "key_press": 13, "type": "INSTRUCTIONS", "trial_index": 76}, "uniqueid": "MTK3382:3GA6AFUKOPVB8WQ5QTO84LHTZQWH38", "dateTime": 1520485408233}, {"current_trial": 77, "trialdata": {"rt": [7349, 10490], "trial_type": "math-distractor", "key_times": [6334, 6630, 7349, 9702, 9890, 10490], "responses": ["16", "17"], "num2": [6, 7, 4], "num3": [7, 8, 1], "conditions": [12, 800, "v", 12000], "internal_node_id": "0.0-59.0", "key_presses": [49, 54, 13, 49, 55, 13], "trial": 2, "time_elapsed": 481210, "type": "DISTRACTOR", "trial_index": 77, "num1": [3, 2, 1]}, "uniqueid": "MTK3382:3GA6AFUKOPVB8WQ5QTO84LHTZQWH38", "dateTime": 1520485421250}, {"current_trial": 78, "trialdata": {"rt": -1, "trial_type": "single-stim", "stimulus": "<p id=\"stim\">10</p>", "internal_node_id": "0.0-60.0-0.0", "time_elapsed": 484219, "key_press": -1, "trial_index": 78}, "uniqueid": "MTK3382:3GA6AFUKOPVB8WQ5QTO84LHTZQWH38", "dateTime": 1520485424259}, {"current_trial": 79, "trialdata": {"rt": -1, "trial_type": "single-stim", "stimulus": "<p id=\"stim\">9</p>", "internal_node_id": "0.0-60.0-1.0", "time_elapsed": 485226, "key_press": -1, "trial_index": 79}, "uniqueid": "MTK3382:3GA6AFUKOPVB8WQ5QTO84LHTZQWH38", "dateTime": 1520485425266}, {"current_trial": 80, "trialdata": {"rt": -1, "trial_type": "single-stim", "stimulus": "<p id=\"stim\">8</p>", "internal_node_id": "0.0-60.0-2.0", "time_elapsed": 486231, "key_press": -1, "trial_index": 80}, "uniqueid": "MTK3382:3GA6AFUKOPVB8WQ5QTO84LHTZQWH38", "dateTime": 1520485426272}, {"current_trial": 81, "trialdata": {"rt": -1, "trial_type": "single-stim", "stimulus": "<p id=\"stim\">7</p>", "internal_node_id": "0.0-60.0-3.0", "time_elapsed": 487237, "key_press": -1, "trial_index": 81}, "uniqueid": "MTK3382:3GA6AFUKOPVB8WQ5QTO84LHTZQWH38", "dateTime": 1520485427278}, {"current_trial": 82, "trialdata": {"rt": -1, "trial_type": "single-stim", "stimulus": "<p id=\"stim\">6</p>", "internal_node_id": "0.0-60.0-4.0", "time_elapsed": 488242, "key_press": -1, "trial_index": 82}, "uniqueid": "MTK3382:3GA6AFUKOPVB8WQ5QTO84LHTZQWH38", "dateTime": 1520485428282}, {"current_trial": 83, "trialdata": {"rt": -1, "trial_type": "single-stim", "stimulus": "<p id=\"stim\">5</p>", "internal_node_id": "0.0-60.0-5.0", "time_elapsed": 489249, "key_press": -1, "trial_index": 83}, "uniqueid": "MTK3382:3GA6AFUKOPVB8WQ5QTO84LHTZQWH38", "dateTime": 1520485429289}, {"current_trial": 84, "trialdata": {"rt": -1, "trial_type": "single-stim", "stimulus": "<p id=\"stim\">4</p>", "internal_node_id": "0.0-60.0-6.0", "time_elapsed": 490258, "key_press": -1, "trial_index": 84}, "uniqueid": "MTK3382:3GA6AFUKOPVB8WQ5QTO84LHTZQWH38", "dateTime": 1520485430298}, {"current_trial": 85, "trialdata": {"rt": -1, "trial_type": "single-stim", "stimulus": "<p id=\"stim\">3</p>", "internal_node_id": "0.0-60.0-7.0", "time_elapsed": 491265, "key_press": -1, "trial_index": 85}, "uniqueid": "MTK3382:3GA6AFUKOPVB8WQ5QTO84LHTZQWH38", "dateTime": 1520485431305}, {"current_trial": 86, "trialdata": {"rt": -1, "trial_type": "single-stim", "stimulus": "<p id=\"stim\">2</p>", "internal_node_id": "0.0-60.0-8.0", "time_elapsed": 492274, "key_press": -1, "trial_index": 86}, "uniqueid": "MTK3382:3GA6AFUKOPVB8WQ5QTO84LHTZQWH38", "dateTime": 1520485432314}, {"current_trial": 87, "trialdata": {"rt": -1, "trial_type": "single-stim", "stimulus": "<p id=\"stim\">1</p>", "internal_node_id": "0.0-60.0-9.0", "time_elapsed": 493279, "key_press": -1, "trial_index": 87}, "uniqueid": "MTK3382:3GA6AFUKOPVB8WQ5QTO84LHTZQWH38", "dateTime": 1520485433319}, {"current_trial": 88, "trialdata": {"rt": -1, "trial_type": "single-stim", "stimulus": "<p id=\"stim\">+</p>", "internal_node_id": "0.0-61.0-0.0", "time_elapsed": 494787, "key_press": -1, "type": "FIXATION", "trial_index": 88}, "uniqueid": "MTK3382:3GA6AFUKOPVB8WQ5QTO84LHTZQWH38", "dateTime": 1520485434827}, {"current_trial": 89, "trialdata": {"rt": -1, "trial_type": "single-stim", "word": "label", "stimulus": "<p id=\"stim\">LABEL</p>", "conditions": [12, 800, "v", 12000], "internal_node_id": "0.0-62.0", "trial": 2, "time_elapsed": 495596, "serialpos": 0, "key_press": -1, "wordID": 789, "type": "PRES_VIS", "trial_index": 89}, "uniqueid": "MTK3382:3GA6AFUKOPVB8WQ5QTO84LHTZQWH38", "dateTime": 1520485435637}, {"current_trial": 90, "trialdata": {"rt": -1, "trial_type": "single-stim", "word": "grape", "stimulus": "<p id=\"stim\">GRAPE</p>", "conditions": [12, 800, "v", 12000], "internal_node_id": "0.0-63.0", "trial": 2, "time_elapsed": 497430, "serialpos": 1, "key_press": -1, "wordID": 653, "type": "PRES_VIS", "trial_index": 90}, "uniqueid": "MTK3382:3GA6AFUKOPVB8WQ5QTO84LHTZQWH38", "dateTime": 1520485437470}, {"current_trial": 91, "trialdata": {"rt": -1, "trial_type": "single-stim", "word": "wrench", "stimulus": "<p id=\"stim\">WRENCH</p>", "conditions": [12, 800, "v", 12000], "internal_node_id": "0.0-64.0", "trial": 2, "time_elapsed": 499046, "serialpos": 2, "key_press": -1, "wordID": 1624, "type": "PRES_VIS", "trial_index": 91}, "uniqueid": "MTK3382:3GA6AFUKOPVB8WQ5QTO84LHTZQWH38", "dateTime": 1520485439086}, {"current_trial": 92, "trialdata": {"rt": -1, "trial_type": "single-stim", "word": "creature", "stimulus": "<p id=\"stim\">CREATURE</p>", "conditions": [12, 800, "v", 12000], "internal_node_id": "0.0-65.0", "trial": 2, "time_elapsed": 500726, "serialpos": 3, "key_press": -1, "wordID": 402, "type": "PRES_VIS", "trial_index": 92}, "uniqueid": "MTK3382:3GA6AFUKOPVB8WQ5QTO84LHTZQWH38", "dateTime": 1520485440768}, {"current_trial": 93, "trialdata": {"rt": -1, "trial_type": "single-stim", "word": "girl", "stimulus": "<p id=\"stim\">GIRL</p>", "conditions": [12, 800, "v", 12000], "internal_node_id": "0.0-66.0", "trial": 2, "time_elapsed": 502615, "serialpos": 4, "key_press": -1, "wordID": 636, "type": "PRES_VIS", "trial_index": 93}, "uniqueid": "MTK3382:3GA6AFUKOPVB8WQ5QTO84LHTZQWH38", "dateTime": 1520485442655}, {"current_trial": 94, "trialdata": {"rt": -1, "trial_type": "single-stim", "word": "baby", "stimulus": "<p id=\"stim\">BABY</p>", "conditions": [12, 800, "v", 12000], "internal_node_id": "0.0-67.0", "trial": 2, "time_elapsed": 504378, "serialpos": 5, "key_press": -1, "wordID": 63, "type": "PRES_VIS", "trial_index": 94}, "uniqueid": "MTK3382:3GA6AFUKOPVB8WQ5QTO84LHTZQWH38", "dateTime": 1520485444419}, {"current_trial": 95, "trialdata": {"rt": -1, "trial_type": "single-stim", "word": "yacht", "stimulus": "<p id=\"stim\">YACHT</p>", "conditions": [12, 800, "v", 12000], "internal_node_id": "0.0-68.0", "trial": 2, "time_elapsed": 506291, "serialpos": 6, "key_press": -1, "wordID": 1628, "type": "PRES_VIS", "trial_index": 95}, "uniqueid": "MTK3382:3GA6AFUKOPVB8WQ5QTO84LHTZQWH38", "dateTime": 1520485446332}, {"current_trial": 96, "trialdata": {"rt": -1, "trial_type": "single-stim", "word": "sponge", "stimulus": "<p id=\"stim\">SPONGE</p>", "conditions": [12, 800, "v", 12000], "internal_node_id": "0.0-69.0", "trial": 2, "time_elapsed": 508129, "serialpos": 7, "key_press": -1, "wordID": 1354, "type": "PRES_VIS", "trial_index": 96}, "uniqueid": "MTK3382:3GA6AFUKOPVB8WQ5QTO84LHTZQWH38", "dateTime": 1520485448174}, {"current_trial": 97, "trialdata": {"rt": -1, "trial_type": "single-stim", "word": "chemist", "stimulus": "<p id=\"stim\">CHEMIST</p>", "conditions": [12, 800, "v", 12000], "internal_node_id": "0.0-70.0", "trial": 2, "time_elapsed": 509926, "serialpos": 8, "key_press": -1, "wordID": 291, "type": "PRES_VIS", "trial_index": 97}, "uniqueid": "MTK3382:3GA6AFUKOPVB8WQ5QTO84LHTZQWH38", "dateTime": 1520485449966}, {"current_trial": 98, "trialdata": {"rt": -1, "trial_type": "single-stim", "word": "cashier", "stimulus": "<p id=\"stim\">CASHIER</p>", "conditions": [12, 800, "v", 12000], "internal_node_id": "0.0-71.0", "trial": 2, "time_elapsed": 511546, "serialpos": 9, "key_press": -1, "wordID": 253, "type": "PRES_VIS", "trial_index": 98}, "uniqueid": "MTK3382:3GA6AFUKOPVB8WQ5QTO84LHTZQWH38", "dateTime": 1520485451586}, {"current_trial": 99, "trialdata": {"rt": -1, "trial_type": "single-stim", "word": "citrus", "stimulus": "<p id=\"stim\">CITRUS</p>", "conditions": [12, 800, "v", 12000], "internal_node_id": "0.0-72.0", "trial": 2, "time_elapsed": 513171, "serialpos": 10, "key_press": -1, "wordID": 312, "type": "PRES_VIS", "trial_index": 99}, "uniqueid": "MTK3382:3GA6AFUKOPVB8WQ5QTO84LHTZQWH38", "dateTime": 1520485453211}, {"current_trial": 100, "trialdata": {"rt": -1, "trial_type": "single-stim", "word": "stamp", "stimulus": "<p id=\"stim\">STAMP</p>", "conditions": [12, 800, "v", 12000], "internal_node_id": "0.0-73.0", "trial": 2, "time_elapsed": 515026, "serialpos": 11, "key_press": -1, "wordID": 1369, "type": "PRES_VIS", "trial_index": 100}, "uniqueid": "MTK3382:3GA6AFUKOPVB8WQ5QTO84LHTZQWH38", "dateTime": 1520485455066}, {"current_trial": 101, "trialdata": {"rt": -1, "trial_type": "single-stim", "stimulus": "", "internal_node_id": "0.0-74.0-0.0", "time_elapsed": 517447, "key_press": -1, "type": "PRE_RECALL_DELAY", "trial_index": 101}, "uniqueid": "MTK3382:3GA6AFUKOPVB8WQ5QTO84LHTZQWH38", "dateTime": 1520485457487}, {"current_trial": 102, "trialdata": {"rt": -1000, "trial_type": "single-audio", "stimulus": "/static/audio/400Hz.wav", "internal_node_id": "0.0-75.0", "time_elapsed": 517960, "key_press": -1, "type": "PRE_RECALL_ALERT", "trial_index": 102}, "uniqueid": "MTK3382:3GA6AFUKOPVB8WQ5QTO84LHTZQWH38", "dateTime": 1520485458000}, {"current_trial": 103, "trialdata": {"rt": [9048, 13439, 16851, 19907, 22447, 27696, 31291, 37829, 42796, 52721, 59167], "recwords": ["yacht", "citrus", "label", "grape", "stamp", "glove", "sponge", "baby", "creature", "glue", "chemist"], "key_times": [4215, 4741, 4880, 5126, 5915, 6079, 6249, 6874, 7266, 7460, 7662, 9048, 10616, 10976, 11317, 12035, 12496, 12662, 13439, 14254, 14414, 14774, 15038, 15719, 16851, 18154, 18385, 18747, 19093, 19257, 19907, 20227, 20388, 20479, 20824, 21163, 22447, 25757, 25888, 26054, 26328, 26445, 27696, 29101, 29265, 29511, 29776, 30068, 30171, 31291, 36114, 36333, 36571, 36791, 37829, 40537, 40740, 40947, 41072, 41367, 41763, 41927, 42034, 42796, 47676, 47852, 48188, 50362, 50525, 50679, 51270, 51425, 51887, 52051, 52721, 56488, 56673, 56811, 57255, 57698, 57977, 58175, 59167], "trial_type": "free-recall", "conditions": [12, 800, "v", 12000], "internal_node_id": "0.0-76.0-0.0", "key_presses": [89, 67, 72, 84, 8, 8, 8, 65, 67, 72, 84, 13, 67, 73, 84, 82, 85, 83, 13, 76, 65, 66, 69, 76, 13, 71, 82, 65, 80, 69, 13, 83, 84, 65, 77, 80, 13, 71, 76, 79, 86, 69, 13, 83, 80, 79, 78, 71, 69, 13, 66, 65, 66, 89, 13, 67, 82, 69, 65, 84, 85, 82, 69, 13, 70, 85, 78, 8, 8, 8, 71, 76, 85, 69, 13, 67, 72, 69, 77, 73, 83, 84, 13], "trial": 2, "time_elapsed": 577973, "type": "FREE_RECALL", "trial_index": 103}, "uniqueid": "MTK3382:3GA6AFUKOPVB8WQ5QTO84LHTZQWH38", "dateTime": 1520485518028}, {"current_trial": 104, "trialdata": {"rt": 4246, "trial_type": "text", "internal_node_id": "0.0-77.0", "time_elapsed": 584238, "key_press": 66, "type": "INSTRUCTIONS", "trial_index": 104}, "uniqueid": "MTK3382:3GA6AFUKOPVB8WQ5QTO84LHTZQWH38", "dateTime": 1520485524279}, {"current_trial": 105, "trialdata": {"rt": [11145, 14866, 17947, 23395], "trial_type": "math-distractor", "key_times": [10171, 10374, 11145, 14018, 14165, 14866, 16595, 16672, 17947, 22377, 22670, 23395], "responses": ["14", "13", "12", "13"], "num2": [8, 8, 1, 6, 9], "num3": [2, 1, 9, 4, 3], "conditions": [24, 1600, "v", 24000], "internal_node_id": "0.0-78.0", "key_presses": [49, 52, 13, 49, 51, 13, 49, 50, 13, 49, 51, 13], "trial": 3, "time_elapsed": 610251, "type": "DISTRACTOR", "trial_index": 105, "num1": [4, 4, 2, 3, 7]}, "uniqueid": "MTK3382:3GA6AFUKOPVB8WQ5QTO84LHTZQWH38", "dateTime": 1520485550292}, {"current_trial": 106, "trialdata": {"rt": -1, "trial_type": "single-stim", "stimulus": "<p id=\"stim\">10</p>", "internal_node_id": "0.0-79.0-0.0", "time_elapsed": 613261, "key_press": -1, "trial_index": 106}, "uniqueid": "MTK3382:3GA6AFUKOPVB8WQ5QTO84LHTZQWH38", "dateTime": 1520485553302}, {"current_trial": 107, "trialdata": {"rt": -1, "trial_type": "single-stim", "stimulus": "<p id=\"stim\">9</p>", "internal_node_id": "0.0-79.0-1.0", "time_elapsed": 614269, "key_press": -1, "trial_index": 107}, "uniqueid": "MTK3382:3GA6AFUKOPVB8WQ5QTO84LHTZQWH38", "dateTime": 1520485554309}, {"current_trial": 108, "trialdata": {"rt": -1, "trial_type": "single-stim", "stimulus": "<p id=\"stim\">8</p>", "internal_node_id": "0.0-79.0-2.0", "time_elapsed": 615279, "key_press": -1, "trial_index": 108}, "uniqueid": "MTK3382:3GA6AFUKOPVB8WQ5QTO84LHTZQWH38", "dateTime": 1520485555319}, {"current_trial": 109, "trialdata": {"rt": -1, "trial_type": "single-stim", "stimulus": "<p id=\"stim\">7</p>", "internal_node_id": "0.0-79.0-3.0", "time_elapsed": 616283, "key_press": -1, "trial_index": 109}, "uniqueid": "MTK3382:3GA6AFUKOPVB8WQ5QTO84LHTZQWH38", "dateTime": 1520485556324}, {"current_trial": 110, "trialdata": {"rt": -1, "trial_type": "single-stim", "stimulus": "<p id=\"stim\">6</p>", "internal_node_id": "0.0-79.0-4.0", "time_elapsed": 617290, "key_press": -1, "trial_index": 110}, "uniqueid": "MTK3382:3GA6AFUKOPVB8WQ5QTO84LHTZQWH38", "dateTime": 1520485557330}, {"current_trial": 111, "trialdata": {"rt": -1, "trial_type": "single-stim", "stimulus": "<p id=\"stim\">5</p>", "internal_node_id": "0.0-79.0-5.0", "time_elapsed": 618297, "key_press": -1, "trial_index": 111}, "uniqueid": "MTK3382:3GA6AFUKOPVB8WQ5QTO84LHTZQWH38", "dateTime": 1520485558338}, {"current_trial": 112, "trialdata": {"rt": -1, "trial_type": "single-stim", "stimulus": "<p id=\"stim\">4</p>", "internal_node_id": "0.0-79.0-6.0", "time_elapsed": 619304, "key_press": -1, "trial_index": 112}, "uniqueid": "MTK3382:3GA6AFUKOPVB8WQ5QTO84LHTZQWH38", "dateTime": 1520485559344}, {"current_trial": 113, "trialdata": {"rt": -1, "trial_type": "single-stim", "stimulus": "<p id=\"stim\">3</p>", "internal_node_id": "0.0-79.0-7.0", "time_elapsed": 620310, "key_press": -1, "trial_index": 113}, "uniqueid": "MTK3382:3GA6AFUKOPVB8WQ5QTO84LHTZQWH38", "dateTime": 1520485560350}, {"current_trial": 114, "trialdata": {"rt": -1, "trial_type": "single-stim", "stimulus": "<p id=\"stim\">2</p>", "internal_node_id": "0.0-79.0-8.0", "time_elapsed": 621317, "key_press": -1, "trial_index": 114}, "uniqueid": "MTK3382:3GA6AFUKOPVB8WQ5QTO84LHTZQWH38", "dateTime": 1520485561357}, {"current_trial": 115, "trialdata": {"rt": -1, "trial_type": "single-stim", "stimulus": "<p id=\"stim\">1</p>", "internal_node_id": "0.0-79.0-9.0", "time_elapsed": 622323, "key_press": -1, "trial_index": 115}, "uniqueid": "MTK3382:3GA6AFUKOPVB8WQ5QTO84LHTZQWH38", "dateTime": 1520485562363}, {"current_trial": 116, "trialdata": {"rt": -1, "trial_type": "single-stim", "stimulus": "<p id=\"stim\">+</p>", "internal_node_id": "0.0-80.0-0.0", "time_elapsed": 623830, "key_press": -1, "type": "FIXATION", "trial_index": 116}, "uniqueid": "MTK3382:3GA6AFUKOPVB8WQ5QTO84LHTZQWH38", "dateTime": 1520485563870}, {"current_trial": 117, "trialdata": {"rt": -1, "trial_type": "single-stim", "word": "chipmunk", "stimulus": "<p id=\"stim\">CHIPMUNK</p>", "conditions": [24, 1600, "v", 24000], "internal_node_id": "0.0-81.0", "trial": 3, "time_elapsed": 625436, "serialpos": 0, "key_press": -1, "wordID": 303, "type": "PRES_VIS", "trial_index": 117}, "uniqueid": "MTK3382:3GA6AFUKOPVB8WQ5QTO84LHTZQWH38", "dateTime": 1520485565477}, {"current_trial": 118, "trialdata": {"rt": -1, "trial_type": "single-stim", "word": "river", "stimulus": "<p id=\"stim\">RIVER</p>", "conditions": [24, 1600, "v", 24000], "internal_node_id": "0.0-82.0", "trial": 3, "time_elapsed": 627923, "serialpos": 1, "key_press": -1, "wordID": 1193, "type": "PRES_VIS", "trial_index": 118}, "uniqueid": "MTK3382:3GA6AFUKOPVB8WQ5QTO84LHTZQWH38", "dateTime": 1520485567964}, {"current_trial": 119, "trialdata": {"rt": -1, "trial_type": "single-stim", "word": "brook", "stimulus": "<p id=\"stim\">BROOK</p>", "conditions": [24, 1600, "v", 24000], "internal_node_id": "0.0-83.0", "trial": 3, "time_elapsed": 630489, "serialpos": 2, "key_press": -1, "wordID": 176, "type": "PRES_VIS", "trial_index": 119}, "uniqueid": "MTK3382:3GA6AFUKOPVB8WQ5QTO84LHTZQWH38", "dateTime": 1520485570529}, {"current_trial": 120, "trialdata": {"rt": -1, "trial_type": "single-stim", "word": "market", "stimulus": "<p id=\"stim\">MARKET</p>", "conditions": [24, 1600, "v", 24000], "internal_node_id": "0.0-84.0", "trial": 3, "time_elapsed": 633166, "serialpos": 3, "key_press": -1, "wordID": 870, "type": "PRES_VIS", "trial_index": 120}, "uniqueid": "MTK3382:3GA6AFUKOPVB8WQ5QTO84LHTZQWH38", "dateTime": 1520485573206}, {"current_trial": 121, "trialdata": {"rt": -1, "trial_type": "single-stim", "word": "lizard", "stimulus": "<p id=\"stim\">LIZARD</p>", "conditions": [24, 1600, "v", 24000], "internal_node_id": "0.0-85.0", "trial": 3, "time_elapsed": 635711, "serialpos": 4, "key_press": -1, "wordID": 833, "type": "PRES_VIS", "trial_index": 121}, "uniqueid": "MTK3382:3GA6AFUKOPVB8WQ5QTO84LHTZQWH38", "dateTime": 1520485575752}, {"current_trial": 122, "trialdata": {"rt": -1, "trial_type": "single-stim", "word": "contract", "stimulus": "<p id=\"stim\">CONTRACT</p>", "conditions": [24, 1600, "v", 24000], "internal_node_id": "0.0-86.0", "trial": 3, "time_elapsed": 638503, "serialpos": 5, "key_press": -1, "wordID": 367, "type": "PRES_VIS", "trial_index": 122}, "uniqueid": "MTK3382:3GA6AFUKOPVB8WQ5QTO84LHTZQWH38", "dateTime": 1520485578543}, {"current_trial": 123, "trialdata": {"rt": -1, "trial_type": "single-stim", "word": "garlic", "stimulus": "<p id=\"stim\">GARLIC</p>", "conditions": [24, 1600, "v", 24000], "internal_node_id": "0.0-87.0", "trial": 3, "time_elapsed": 640942, "serialpos": 6, "key_press": -1, "wordID": 623, "type": "PRES_VIS", "trial_index": 123}, "uniqueid": "MTK3382:3GA6AFUKOPVB8WQ5QTO84LHTZQWH38", "dateTime": 1520485580983}, {"current_trial": 124, "trialdata": {"rt": -1, "trial_type": "single-stim", "word": "trombone", "stimulus": "<p id=\"stim\">TROMBONE</p>", "conditions": [24, 1600, "v", 24000], "internal_node_id": "0.0-88.0", "trial": 3, "time_elapsed": 643741, "serialpos": 7, "key_press": -1, "wordID": 1507, "type": "PRES_VIS", "trial_index": 124}, "uniqueid": "MTK3382:3GA6AFUKOPVB8WQ5QTO84LHTZQWH38", "dateTime": 1520485583781}, {"current_trial": 125, "trialdata": {"rt": -1, "trial_type": "single-stim", "word": "permit", "stimulus": "<p id=\"stim\">PERMIT</p>", "conditions": [24, 1600, "v", 24000], "internal_node_id": "0.0-89.0", "trial": 3, "time_elapsed": 646202, "serialpos": 8, "key_press": -1, "wordID": 1050, "type": "PRES_VIS", "trial_index": 125}, "uniqueid": "MTK3382:3GA6AFUKOPVB8WQ5QTO84LHTZQWH38", "dateTime": 1520485586242}, {"current_trial": 126, "trialdata": {"rt": -1, "trial_type": "single-stim", "word": "coin", "stimulus": "<p id=\"stim\">COIN</p>", "conditions": [24, 1600, "v", 24000], "internal_node_id": "0.0-90.0", "trial": 3, "time_elapsed": 648678, "serialpos": 9, "key_press": -1, "wordID": 342, "type": "PRES_VIS", "trial_index": 126}, "uniqueid": "MTK3382:3GA6AFUKOPVB8WQ5QTO84LHTZQWH38", "dateTime": 1520485588719}, {"current_trial": 127, "trialdata": {"rt": -1, "trial_type": "single-stim", "word": "flipper", "stimulus": "<p id=\"stim\">FLIPPER</p>", "conditions": [24, 1600, "v", 24000], "internal_node_id": "0.0-91.0", "trial": 3, "time_elapsed": 651160, "serialpos": 10, "key_press": -1, "wordID": 579, "type": "PRES_VIS", "trial_index": 127}, "uniqueid": "MTK3382:3GA6AFUKOPVB8WQ5QTO84LHTZQWH38", "dateTime": 1520485591201}, {"current_trial": 128, "trialdata": {"rt": -1, "trial_type": "single-stim", "word": "lagoon", "stimulus": "<p id=\"stim\">LAGOON</p>", "conditions": [24, 1600, "v", 24000], "internal_node_id": "0.0-92.0", "trial": 3, "time_elapsed": 653914, "serialpos": 11, "key_press": -1, "wordID": 794, "type": "PRES_VIS", "trial_index": 128}, "uniqueid": "MTK3382:3GA6AFUKOPVB8WQ5QTO84LHTZQWH38", "dateTime": 1520485593955}, {"current_trial": 129, "trialdata": {"rt": -1, "trial_type": "single-stim", "word": "honey", "stimulus": "<p id=\"stim\">HONEY</p>", "conditions": [24, 1600, "v", 24000], "internal_node_id": "0.0-93.0", "trial": 3, "time_elapsed": 656339, "serialpos": 12, "key_press": -1, "wordID": 712, "type": "PRES_VIS", "trial_index": 129}, "uniqueid": "MTK3382:3GA6AFUKOPVB8WQ5QTO84LHTZQWH38", "dateTime": 1520485596379}, {"current_trial": 130, "trialdata": {"rt": -1, "trial_type": "single-stim", "word": "plaza", "stimulus": "<p id=\"stim\">PLAZA</p>", "conditions": [24, 1600, "v", 24000], "internal_node_id": "0.0-94.0", "trial": 3, "time_elapsed": 658941, "serialpos": 13, "key_press": -1, "wordID": 1087, "type": "PRES_VIS", "trial_index": 130}, "uniqueid": "MTK3382:3GA6AFUKOPVB8WQ5QTO84LHTZQWH38", "dateTime": 1520485598983}, {"current_trial": 131, "trialdata": {"rt": -1, "trial_type": "single-stim", "word": "tractor", "stimulus": "<p id=\"stim\">TRACTOR</p>", "conditions": [24, 1600, "v", 24000], "internal_node_id": "0.0-95.0", "trial": 3, "time_elapsed": 661569, "serialpos": 14, "key_press": -1, "wordID": 1492, "type": "PRES_VIS", "trial_index": 131}, "uniqueid": "MTK3382:3GA6AFUKOPVB8WQ5QTO84LHTZQWH38", "dateTime": 1520485601609}, {"current_trial": 132, "trialdata": {"rt": -1, "trial_type": "single-stim", "word": "rebel", "stimulus": "<p id=\"stim\">REBEL</p>", "conditions": [24, 1600, "v", 24000], "internal_node_id": "0.0-96.0", "trial": 3, "time_elapsed": 664358, "serialpos": 15, "key_press": -1, "wordID": 1171, "type": "PRES_VIS", "trial_index": 132}, "uniqueid": "MTK3382:3GA6AFUKOPVB8WQ5QTO84LHTZQWH38", "dateTime": 1520485604398}, {"current_trial": 133, "trialdata": {"rt": -1, "trial_type": "single-stim", "word": "office", "stimulus": "<p id=\"stim\">OFFICE</p>", "conditions": [24, 1600, "v", 24000], "internal_node_id": "0.0-97.0", "trial": 3, "time_elapsed": 666829, "serialpos": 16, "key_press": -1, "wordID": 971, "type": "PRES_VIS", "trial_index": 133}, "uniqueid": "MTK3382:3GA6AFUKOPVB8WQ5QTO84LHTZQWH38", "dateTime": 1520485606870}, {"current_trial": 134, "trialdata": {"rt": -1, "trial_type": "single-stim", "word": "truck", "stimulus": "<p id=\"stim\">TRUCK</p>", "conditions": [24, 1600, "v", 24000], "internal_node_id": "0.0-98.0", "trial": 3, "time_elapsed": 669256, "serialpos": 17, "key_press": -1, "wordID": 1511, "type": "PRES_VIS", "trial_index": 134}, "uniqueid": "MTK3382:3GA6AFUKOPVB8WQ5QTO84LHTZQWH38", "dateTime": 1520485609297}, {"current_trial": 135, "trialdata": {"rt": -1, "trial_type": "single-stim", "word": "jury", "stimulus": "<p id=\"stim\">JURY</p>", "conditions": [24, 1600, "v", 24000], "internal_node_id": "0.0-99.0", "trial": 3, "time_elapsed": 671774, "serialpos": 18, "key_press": -1, "wordID": 765, "type": "PRES_VIS", "trial_index": 135}, "uniqueid": "MTK3382:3GA6AFUKOPVB8WQ5QTO84LHTZQWH38", "dateTime": 1520485611815}, {"current_trial": 136, "trialdata": {"rt": -1, "trial_type": "single-stim", "word": "judge", "stimulus": "<p id=\"stim\">JUDGE</p>", "conditions": [24, 1600, "v", 24000], "internal_node_id": "0.0-100.0", "trial": 3, "time_elapsed": 674244, "serialpos": 19, "key_press": -1, "wordID": 760, "type": "PRES_VIS", "trial_index": 136}, "uniqueid": "MTK3382:3GA6AFUKOPVB8WQ5QTO84LHTZQWH38", "dateTime": 1520485614284}, {"current_trial": 137, "trialdata": {"rt": -1, "trial_type": "single-stim", "word": "toaster", "stimulus": "<p id=\"stim\">TOASTER</p>", "conditions": [24, 1600, "v", 24000], "internal_node_id": "0.0-101.0", "trial": 3, "time_elapsed": 676866, "serialpos": 20, "key_press": -1, "wordID": 1471, "type": "PRES_VIS", "trial_index": 137}, "uniqueid": "MTK3382:3GA6AFUKOPVB8WQ5QTO84LHTZQWH38", "dateTime": 1520485616906}, {"current_trial": 138, "trialdata": {"rt": -1, "trial_type": "single-stim", "word": "pistol", "stimulus": "<p id=\"stim\">PISTOL</p>", "conditions": [24, 1600, "v", 24000], "internal_node_id": "0.0-102.0", "trial": 3, "time_elapsed": 679670, "serialpos": 21, "key_press": -1, "wordID": 1074, "type": "PRES_VIS", "trial_index": 138}, "uniqueid": "MTK3382:3GA6AFUKOPVB8WQ5QTO84LHTZQWH38", "dateTime": 1520485619710}, {"current_trial": 139, "trialdata": {"rt": -1, "trial_type": "single-stim", "word": "captive", "stimulus": "<p id=\"stim\">CAPTIVE</p>", "conditions": [24, 1600, "v", 24000], "internal_node_id": "0.0-103.0", "trial": 3, "time_elapsed": 682422, "serialpos": 22, "key_press": -1, "wordID": 239, "type": "PRES_VIS", "trial_index": 139}, "uniqueid": "MTK3382:3GA6AFUKOPVB8WQ5QTO84LHTZQWH38", "dateTime": 1520485622462}, {"current_trial": 140, "trialdata": {"rt": -1, "trial_type": "single-stim", "word": "mammal", "stimulus": "<p id=\"stim\">MAMMAL</p>", "conditions": [24, 1600, "v", 24000], "internal_node_id": "0.0-104.0", "trial": 3, "time_elapsed": 684938, "serialpos": 23, "key_press": -1, "wordID": 860, "type": "PRES_VIS", "trial_index": 140}, "uniqueid": "MTK3382:3GA6AFUKOPVB8WQ5QTO84LHTZQWH38", "dateTime": 1520485624978}, {"current_trial": 141, "trialdata": {"rt": -1, "trial_type": "single-stim", "stimulus": "", "internal_node_id": "0.0-105.0-0.0", "time_elapsed": 687144, "key_press": -1, "type": "PRE_RECALL_DELAY", "trial_index": 141}, "uniqueid": "MTK3382:3GA6AFUKOPVB8WQ5QTO84LHTZQWH38", "dateTime": 1520485627185}, {"current_trial": 142, "trialdata": {"rt": -1000, "trial_type": "single-audio", "stimulus": "/static/audio/400Hz.wav", "internal_node_id": "0.0-106.0", "time_elapsed": 687658, "key_press": -1, "type": "PRE_RECALL_ALERT", "trial_index": 142}, "uniqueid": "MTK3382:3GA6AFUKOPVB8WQ5QTO84LHTZQWH38", "dateTime": 1520485627698}, {"current_trial": 143, "trialdata": {"rt": [5261, 8106, 13335, 16669, 20648, 23620, 26876, 30428, 35286, 39491, 43030, 47716, 55070], "recwords": ["pistal", "captive", "chipmonk", "brook", "lizard", "garlic", "flipper", "lagoon", "coin", "rebel", "toaster", "office", "river"], "key_times": [2657, 2883, 3731, 4396, 4567, 4930, 5261, 5725, 5871, 6124, 6476, 6745, 7075, 7233, 8106, 9874, 9983, 10360, 11025, 11325, 11517, 11724, 12019, 13335, 14812, 15000, 15293, 15431, 15630, 16669, 17045, 17271, 17735, 17984, 18182, 18316, 20648, 21199, 21341, 21477, 21970, 22206, 22374, 23620, 25216, 25417, 25623, 25913, 26049, 26192, 26277, 26876, 27274, 27429, 27665, 28172, 28310, 28553, 30428, 33441, 33587, 33762, 33977, 35286, 37070, 37160, 37506, 37646, 37997, 39491, 40570, 41095, 41323, 41416, 41711, 41892, 41957, 43030, 44272, 44481, 44628, 44753, 45130, 45243, 47716, 53007, 53118, 53450, 53581, 53667, 55070, 57591, 57802, 58077, 58529, 58779], "trial_type": "free-recall", "conditions": [24, 1600, "v", 24000], "internal_node_id": "0.0-107.0-0.0", "key_presses": [80, 73, 83, 84, 65, 76, 13, 67, 65, 80, 84, 73, 86, 69, 13, 67, 72, 73, 80, 77, 79, 78, 75, 13, 66, 82, 79, 79, 75, 13, 76, 73, 90, 65, 82, 68, 13, 71, 65, 82, 76, 73, 67, 13, 70, 76, 73, 80, 80, 69, 82, 13, 76, 65, 71, 79, 79, 78, 13, 67, 79, 73, 78, 13, 82, 69, 66, 69, 76, 13, 84, 79, 65, 83, 84, 69, 82, 13, 79, 70, 70, 73, 67, 69, 13, 82, 73, 86, 69, 82, 13, 80, 76, 65, 90, 65], "trial": 3, "time_elapsed": 747670, "type": "FREE_RECALL", "trial_index": 143}, "uniqueid": "MTK3382:3GA6AFUKOPVB8WQ5QTO84LHTZQWH38", "dateTime": 1520485687730}, {"current_trial": 144, "trialdata": {"rt": 5875, "trial_type": "text", "internal_node_id": "0.0-108.0", "time_elapsed": 755571, "key_press": 13, "type": "INSTRUCTIONS", "trial_index": 144}, "uniqueid": "MTK3382:3GA6AFUKOPVB8WQ5QTO84LHTZQWH38", "dateTime": 1520485695611}, {"current_trial": 145, "trialdata": {"rt": [3570, 10336, 12672, 16763, 20422], "trial_type": "math-distractor", "key_times": [2717, 2883, 3570, 9685, 10336, 11859, 12010, 12672, 15848, 16763, 19540, 19782, 20422, 22391, 22549], "responses": ["16", "7", "17", "7", "17"], "num2": [4, 1, 5, 2, 1, 1], "num3": [4, 4, 5, 4, 8, 8], "conditions": [24, 1600, "v", 24000], "internal_node_id": "0.0-109.0", "key_presses": [49, 54, 13, 55, 13, 49, 55, 13, 55, 13, 49, 55, 13, 49, 55], "trial": 4, "time_elapsed": 781590, "type": "DISTRACTOR", "trial_index": 145, "num1": [8, 2, 7, 1, 8, 8]}, "uniqueid": "MTK3382:3GA6AFUKOPVB8WQ5QTO84LHTZQWH38", "dateTime": 1520485721630}, {"current_trial": 146, "trialdata": {"rt": -1, "trial_type": "single-stim", "stimulus": "<p id=\"stim\">10</p>", "internal_node_id": "0.0-110.0-0.0", "time_elapsed": 784597, "key_press": -1, "trial_index": 146}, "uniqueid": "MTK3382:3GA6AFUKOPVB8WQ5QTO84LHTZQWH38", "dateTime": 1520485724637}, {"current_trial": 147, "trialdata": {"rt": -1, "trial_type": "single-stim", "stimulus": "<p id=\"stim\">9</p>", "internal_node_id": "0.0-110.0-1.0", "time_elapsed": 785604, "key_press": -1, "trial_index": 147}, "uniqueid": "MTK3382:3GA6AFUKOPVB8WQ5QTO84LHTZQWH38", "dateTime": 1520485725644}, {"current_trial": 148, "trialdata": {"rt": -1, "trial_type": "single-stim", "stimulus": "<p id=\"stim\">8</p>", "internal_node_id": "0.0-110.0-2.0", "time_elapsed": 786611, "key_press": -1, "trial_index": 148}, "uniqueid": "MTK3382:3GA6AFUKOPVB8WQ5QTO84LHTZQWH38", "dateTime": 1520485726652}, {"current_trial": 149, "trialdata": {"rt": -1, "trial_type": "single-stim", "stimulus": "<p id=\"stim\">7</p>", "internal_node_id": "0.0-110.0-3.0", "time_elapsed": 787619, "key_press": -1, "trial_index": 149}, "uniqueid": "MTK3382:3GA6AFUKOPVB8WQ5QTO84LHTZQWH38", "dateTime": 1520485727659}, {"current_trial": 150, "trialdata": {"rt": -1, "trial_type": "single-stim", "stimulus": "<p id=\"stim\">6</p>", "internal_node_id": "0.0-110.0-4.0", "time_elapsed": 788627, "key_press": -1, "trial_index": 150}, "uniqueid": "MTK3382:3GA6AFUKOPVB8WQ5QTO84LHTZQWH38", "dateTime": 1520485728668}, {"current_trial": 151, "trialdata": {"rt": -1, "trial_type": "single-stim", "stimulus": "<p id=\"stim\">5</p>", "internal_node_id": "0.0-110.0-5.0", "time_elapsed": 789636, "key_press": -1, "trial_index": 151}, "uniqueid": "MTK3382:3GA6AFUKOPVB8WQ5QTO84LHTZQWH38", "dateTime": 1520485729677}, {"current_trial": 152, "trialdata": {"rt": -1, "trial_type": "single-stim", "stimulus": "<p id=\"stim\">4</p>", "internal_node_id": "0.0-110.0-6.0", "time_elapsed": 790644, "key_press": -1, "trial_index": 152}, "uniqueid": "MTK3382:3GA6AFUKOPVB8WQ5QTO84LHTZQWH38", "dateTime": 1520485730684}, {"current_trial": 153, "trialdata": {"rt": -1, "trial_type": "single-stim", "stimulus": "<p id=\"stim\">3</p>", "internal_node_id": "0.0-110.0-7.0", "time_elapsed": 791652, "key_press": -1, "trial_index": 153}, "uniqueid": "MTK3382:3GA6AFUKOPVB8WQ5QTO84LHTZQWH38", "dateTime": 1520485731692}, {"current_trial": 154, "trialdata": {"rt": -1, "trial_type": "single-stim", "stimulus": "<p id=\"stim\">2</p>", "internal_node_id": "0.0-110.0-8.0", "time_elapsed": 792658, "key_press": -1, "trial_index": 154}, "uniqueid": "MTK3382:3GA6AFUKOPVB8WQ5QTO84LHTZQWH38", "dateTime": 1520485732699}, {"current_trial": 155, "trialdata": {"rt": -1, "trial_type": "single-stim", "stimulus": "<p id=\"stim\">1</p>", "internal_node_id": "0.0-110.0-9.0", "time_elapsed": 793667, "key_press": -1, "trial_index": 155}, "uniqueid": "MTK3382:3GA6AFUKOPVB8WQ5QTO84LHTZQWH38", "dateTime": 1520485733707}, {"current_trial": 156, "trialdata": {"rt": -1, "trial_type": "single-stim", "stimulus": "<p id=\"stim\">+</p>", "internal_node_id": "0.0-111.0-0.0", "time_elapsed": 795173, "key_press": -1, "type": "FIXATION", "trial_index": 156}, "uniqueid": "MTK3382:3GA6AFUKOPVB8WQ5QTO84LHTZQWH38", "dateTime": 1520485735214}, {"current_trial": 157, "trialdata": {"rt": -1, "trial_type": "single-stim", "word": "popcorn", "stimulus": "<p id=\"stim\">POPCORN</p>", "conditions": [24, 1600, "v", 24000], "internal_node_id": "0.0-112.0", "trial": 4, "time_elapsed": 796780, "serialpos": 0, "key_press": -1, "wordID": 1103, "type": "PRES_VIS", "trial_index": 157}, "uniqueid": "MTK3382:3GA6AFUKOPVB8WQ5QTO84LHTZQWH38", "dateTime": 1520485736821}, {"current_trial": 158, "trialdata": {"rt": -1, "trial_type": "single-stim", "word": "twig", "stimulus": "<p id=\"stim\">TWIG</p>", "conditions": [24, 1600, "v", 24000], "internal_node_id": "0.0-113.0", "trial": 4, "time_elapsed": 799581, "serialpos": 1, "key_press": -1, "wordID": 1526, "type": "PRES_VIS", "trial_index": 158}, "uniqueid": "MTK3382:3GA6AFUKOPVB8WQ5QTO84LHTZQWH38", "dateTime": 1520485739621}, {"current_trial": 159, "trialdata": {"rt": -1, "trial_type": "single-stim", "word": "pepper", "stimulus": "<p id=\"stim\">PEPPER</p>", "conditions": [24, 1600, "v", 24000], "internal_node_id": "0.0-114.0", "trial": 4, "time_elapsed": 802091, "serialpos": 2, "key_press": -1, "wordID": 1046, "type": "PRES_VIS", "trial_index": 159}, "uniqueid": "MTK3382:3GA6AFUKOPVB8WQ5QTO84LHTZQWH38", "dateTime": 1520485742132}, {"current_trial": 160, "trialdata": {"rt": -1, "trial_type": "single-stim", "word": "shortcake", "stimulus": "<p id=\"stim\">SHORTCAKE</p>", "conditions": [24, 1600, "v", 24000], "internal_node_id": "0.0-115.0", "trial": 4, "time_elapsed": 804566, "serialpos": 3, "key_press": -1, "wordID": 1291, "type": "PRES_VIS", "trial_index": 160}, "uniqueid": "MTK3382:3GA6AFUKOPVB8WQ5QTO84LHTZQWH38", "dateTime": 1520485744607}, {"current_trial": 161, "trialdata": {"rt": -1, "trial_type": "single-stim", "word": "cookbook", "stimulus": "<p id=\"stim\">COOKBOOK</p>", "conditions": [24, 1600, "v", 24000], "internal_node_id": "0.0-116.0", "trial": 4, "time_elapsed": 807201, "serialpos": 4, "key_press": -1, "wordID": 372, "type": "PRES_VIS", "trial_index": 161}, "uniqueid": "MTK3382:3GA6AFUKOPVB8WQ5QTO84LHTZQWH38", "dateTime": 1520485747241}, {"current_trial": 162, "trialdata": {"rt": -1, "trial_type": "single-stim", "word": "actor", "stimulus": "<p id=\"stim\">ACTOR</p>", "conditions": [24, 1600, "v", 24000], "internal_node_id": "0.0-117.0", "trial": 4, "time_elapsed": 809861, "serialpos": 5, "key_press": -1, "wordID": 4, "type": "PRES_VIS", "trial_index": 162}, "uniqueid": "MTK3382:3GA6AFUKOPVB8WQ5QTO84LHTZQWH38", "dateTime": 1520485749902}, {"current_trial": 163, "trialdata": {"rt": -1, "trial_type": "single-stim", "word": "dragon", "stimulus": "<p id=\"stim\">DRAGON</p>", "conditions": [24, 1600, "v", 24000], "internal_node_id": "0.0-118.0", "trial": 4, "time_elapsed": 812402, "serialpos": 6, "key_press": -1, "wordID": 491, "type": "PRES_VIS", "trial_index": 163}, "uniqueid": "MTK3382:3GA6AFUKOPVB8WQ5QTO84LHTZQWH38", "dateTime": 1520485752442}, {"current_trial": 164, "trialdata": {"rt": -1, "trial_type": "single-stim", "word": "fiddle", "stimulus": "<p id=\"stim\">FIDDLE</p>", "conditions": [24, 1600, "v", 24000], "internal_node_id": "0.0-119.0", "trial": 4, "time_elapsed": 814975, "serialpos": 7, "key_press": -1, "wordID": 560, "type": "PRES_VIS", "trial_index": 164}, "uniqueid": "MTK3382:3GA6AFUKOPVB8WQ5QTO84LHTZQWH38", "dateTime": 1520485755015}, {"current_trial": 165, "trialdata": {"rt": -1, "trial_type": "single-stim", "word": "banjo", "stimulus": "<p id=\"stim\">BANJO</p>", "conditions": [24, 1600, "v", 24000], "internal_node_id": "0.0-120.0", "trial": 4, "time_elapsed": 817493, "serialpos": 8, "key_press": -1, "wordID": 81, "type": "PRES_VIS", "trial_index": 165}, "uniqueid": "MTK3382:3GA6AFUKOPVB8WQ5QTO84LHTZQWH38", "dateTime": 1520485757534}, {"current_trial": 166, "trialdata": {"rt": -1, "trial_type": "single-stim", "word": "flower", "stimulus": "<p id=\"stim\">FLOWER</p>", "conditions": [24, 1600, "v", 24000], "internal_node_id": "0.0-121.0", "trial": 4, "time_elapsed": 820145, "serialpos": 9, "key_press": -1, "wordID": 583, "type": "PRES_VIS", "trial_index": 166}, "uniqueid": "MTK3382:3GA6AFUKOPVB8WQ5QTO84LHTZQWH38", "dateTime": 1520485760185}, {"current_trial": 167, "trialdata": {"rt": -1, "trial_type": "single-stim", "word": "goblin", "stimulus": "<p id=\"stim\">GOBLIN</p>", "conditions": [24, 1600, "v", 24000], "internal_node_id": "0.0-122.0", "trial": 4, "time_elapsed": 822814, "serialpos": 10, "key_press": -1, "wordID": 644, "type": "PRES_VIS", "trial_index": 167}, "uniqueid": "MTK3382:3GA6AFUKOPVB8WQ5QTO84LHTZQWH38", "dateTime": 1520485762855}, {"current_trial": 168, "trialdata": {"rt": -1, "trial_type": "single-stim", "word": "outfit", "stimulus": "<p id=\"stim\">OUTFIT</p>", "conditions": [24, 1600, "v", 24000], "internal_node_id": "0.0-123.0", "trial": 4, "time_elapsed": 825252, "serialpos": 11, "key_press": -1, "wordID": 987, "type": "PRES_VIS", "trial_index": 168}, "uniqueid": "MTK3382:3GA6AFUKOPVB8WQ5QTO84LHTZQWH38", "dateTime": 1520485765292}, {"current_trial": 169, "trialdata": {"rt": -1, "trial_type": "single-stim", "word": "perch", "stimulus": "<p id=\"stim\">PERCH</p>", "conditions": [24, 1600, "v", 24000], "internal_node_id": "0.0-124.0", "trial": 4, "time_elapsed": 827949, "serialpos": 12, "key_press": -1, "wordID": 1047, "type": "PRES_VIS", "trial_index": 169}, "uniqueid": "MTK3382:3GA6AFUKOPVB8WQ5QTO84LHTZQWH38", "dateTime": 1520485767990}, {"current_trial": 170, "trialdata": {"rt": -1, "trial_type": "single-stim", "word": "crab", "stimulus": "<p id=\"stim\">CRAB</p>", "conditions": [24, 1600, "v", 24000], "internal_node_id": "0.0-125.0", "trial": 4, "time_elapsed": 830571, "serialpos": 13, "key_press": -1, "wordID": 396, "type": "PRES_VIS", "trial_index": 170}, "uniqueid": "MTK3382:3GA6AFUKOPVB8WQ5QTO84LHTZQWH38", "dateTime": 1520485770612}, {"current_trial": 171, "trialdata": {"rt": -1, "trial_type": "single-stim", "word": "star", "stimulus": "<p id=\"stim\">STAR</p>", "conditions": [24, 1600, "v", 24000], "internal_node_id": "0.0-126.0", "trial": 4, "time_elapsed": 833209, "serialpos": 14, "key_press": -1, "wordID": 1372, "type": "PRES_VIS", "trial_index": 171}, "uniqueid": "MTK3382:3GA6AFUKOPVB8WQ5QTO84LHTZQWH38", "dateTime": 1520485773249}, {"current_trial": 172, "trialdata": {"rt": -1, "trial_type": "single-stim", "word": "sphinx", "stimulus": "<p id=\"stim\">SPHINX</p>", "conditions": [24, 1600, "v", 24000], "internal_node_id": "0.0-127.0", "trial": 4, "time_elapsed": 835751, "serialpos": 15, "key_press": -1, "wordID": 1348, "type": "PRES_VIS", "trial_index": 172}, "uniqueid": "MTK3382:3GA6AFUKOPVB8WQ5QTO84LHTZQWH38", "dateTime": 1520485775792}, {"current_trial": 173, "trialdata": {"rt": -1, "trial_type": "single-stim", "word": "jello", "stimulus": "<p id=\"stim\">JELLO</p>", "conditions": [24, 1600, "v", 24000], "internal_node_id": "0.0-128.0", "trial": 4, "time_elapsed": 838407, "serialpos": 16, "key_press": -1, "wordID": 753, "type": "PRES_VIS", "trial_index": 173}, "uniqueid": "MTK3382:3GA6AFUKOPVB8WQ5QTO84LHTZQWH38", "dateTime": 1520485778448}, {"current_trial": 174, "trialdata": {"rt": -1, "trial_type": "single-stim", "word": "scissors", "stimulus": "<p id=\"stim\">SCISSORS</p>", "conditions": [24, 1600, "v", 24000], "internal_node_id": "0.0-129.0", "trial": 4, "time_elapsed": 841066, "serialpos": 17, "key_press": -1, "wordID": 1249, "type": "PRES_VIS", "trial_index": 174}, "uniqueid": "MTK3382:3GA6AFUKOPVB8WQ5QTO84LHTZQWH38", "dateTime": 1520485781107}, {"current_trial": 175, "trialdata": {"rt": -1, "trial_type": "single-stim", "word": "scalpel", "stimulus": "<p id=\"stim\">SCALPEL</p>", "conditions": [24, 1600, "v", 24000], "internal_node_id": "0.0-130.0", "trial": 4, "time_elapsed": 843548, "serialpos": 18, "key_press": -1, "wordID": 1242, "type": "PRES_VIS", "trial_index": 175}, "uniqueid": "MTK3382:3GA6AFUKOPVB8WQ5QTO84LHTZQWH38", "dateTime": 1520485783588}, {"current_trial": 176, "trialdata": {"rt": -1, "trial_type": "single-stim", "word": "beaker", "stimulus": "<p id=\"stim\">BEAKER</p>", "conditions": [24, 1600, "v", 24000], "internal_node_id": "0.0-131.0", "trial": 4, "time_elapsed": 846208, "serialpos": 19, "key_press": -1, "wordID": 103, "type": "PRES_VIS", "trial_index": 176}, "uniqueid": "MTK3382:3GA6AFUKOPVB8WQ5QTO84LHTZQWH38", "dateTime": 1520485786248}, {"current_trial": 177, "trialdata": {"rt": -1, "trial_type": "single-stim", "word": "stream", "stimulus": "<p id=\"stim\">STREAM</p>", "conditions": [24, 1600, "v", 24000], "internal_node_id": "0.0-132.0", "trial": 4, "time_elapsed": 848811, "serialpos": 20, "key_press": -1, "wordID": 1391, "type": "PRES_VIS", "trial_index": 177}, "uniqueid": "MTK3382:3GA6AFUKOPVB8WQ5QTO84LHTZQWH38", "dateTime": 1520485788852}, {"current_trial": 178, "trialdata": {"rt": -1, "trial_type": "single-stim", "word": "clam", "stimulus": "<p id=\"stim\">CLAM</p>", "conditions": [24, 1600, "v", 24000], "internal_node_id": "0.0-133.0", "trial": 4, "time_elapsed": 851285, "serialpos": 21, "key_press": -1, "wordID": 314, "type": "PRES_VIS", "trial_index": 178}, "uniqueid": "MTK3382:3GA6AFUKOPVB8WQ5QTO84LHTZQWH38", "dateTime": 1520485791326}, {"current_trial": 179, "trialdata": {"rt": -1, "trial_type": "single-stim", "word": "gift", "stimulus": "<p id=\"stim\">GIFT</p>", "conditions": [24, 1600, "v", 24000], "internal_node_id": "0.0-134.0", "trial": 4, "time_elapsed": 853702, "serialpos": 22, "key_press": -1, "wordID": 634, "type": "PRES_VIS", "trial_index": 179}, "uniqueid": "MTK3382:3GA6AFUKOPVB8WQ5QTO84LHTZQWH38", "dateTime": 1520485793742}, {"current_trial": 180, "trialdata": {"rt": -1, "trial_type": "single-stim", "word": "egypt", "stimulus": "<p id=\"stim\">EGYPT</p>", "conditions": [24, 1600, "v", 24000], "internal_node_id": "0.0-135.0", "trial": 4, "time_elapsed": 856327, "serialpos": 23, "key_press": -1, "wordID": 518, "type": "PRES_VIS", "trial_index": 180}, "uniqueid": "MTK3382:3GA6AFUKOPVB8WQ5QTO84LHTZQWH38", "dateTime": 1520485796368}, {"current_trial": 181, "trialdata": {"rt": -1, "trial_type": "single-stim", "stimulus": "", "internal_node_id": "0.0-136.0-0.0", "time_elapsed": 858721, "key_press": -1, "type": "PRE_RECALL_DELAY", "trial_index": 181}, "uniqueid": "MTK3382:3GA6AFUKOPVB8WQ5QTO84LHTZQWH38", "dateTime": 1520485798761}, {"current_trial": 182, "trialdata": {"rt": -1000, "trial_type": "single-audio", "stimulus": "/static/audio/400Hz.wav", "internal_node_id": "0.0-137.0", "time_elapsed": 859226, "key_press": -1, "type": "PRE_RECALL_ALERT", "trial_index": 182}, "uniqueid": "MTK3382:3GA6AFUKOPVB8WQ5QTO84LHTZQWH38", "dateTime": 1520485799266}, {"current_trial": 183, "trialdata": {"rt": [4147, 7305, 11094, 15495, 18147, 21103, 25168, 28673, 32743, 37542, 41767, 49539, 53841, 59058], "recwords": ["egypt", "clam", "stream", "spinx", "jello", "crab", "cookbook", "pepper", "shortcake", "popcorn", "flower", "scissors", "goblin", "fiddle"], "key_times": [1466, 1584, 2207, 2521, 3219, 3359, 4147, 4711, 4877, 4973, 5187, 7305, 8809, 8941, 9160, 9388, 10012, 10210, 11094, 12383, 12678, 13110, 13605, 13745, 15495, 16276, 16438, 16704, 16845, 17000, 18147, 19271, 19487, 19590, 19971, 21103, 22269, 22479, 22608, 22807, 23405, 23712, 23841, 24064, 25168, 26704, 26888, 27173, 27312, 27417, 27508, 28673, 29738, 29887, 30156, 30423, 30559, 30858, 31263, 31568, 31702, 32743, 34125, 34313, 34520, 34938, 35123, 35417, 36342, 37542, 38715, 38923, 39138, 40223, 40529, 40656, 41767, 45802, 46052, 46364, 47258, 47436, 47970, 48371, 48467, 49539, 51683, 51857, 52039, 52275, 52477, 52769, 53841, 57039, 57230, 57502, 57646, 57867, 57989, 59058], "trial_type": "free-recall", "conditions": [24, 1600, "v", 24000], "internal_node_id": "0.0-138.0-0.0", "key_presses": [16, 69, 71, 89, 80, 84, 13, 67, 76, 65, 77, 13, 83, 84, 82, 69, 65, 77, 13, 83, 80, 73, 78, 88, 13, 74, 69, 76, 76, 79, 13, 67, 82, 65, 66, 13, 67, 79, 79, 75, 66, 79, 79, 75, 13, 80, 69, 80, 80, 69, 82, 13, 83, 72, 79, 82, 84, 67, 65, 75, 69, 13, 80, 79, 80, 67, 79, 82, 78, 13, 70, 76, 79, 87, 69, 82, 13, 83, 67, 73, 83, 83, 79, 82, 83, 13, 71, 79, 66, 76, 73, 78, 13, 70, 73, 68, 68, 76, 69, 13], "trial": 4, "time_elapsed": 919236, "type": "FREE_RECALL", "trial_index": 183}, "uniqueid": "MTK3382:3GA6AFUKOPVB8WQ5QTO84LHTZQWH38", "dateTime": 1520485859309}, {"current_trial": 184, "trialdata": {"rt": 3029, "trial_type": "text", "internal_node_id": "0.0-139.0", "time_elapsed": 924305, "key_press": 13, "type": "INSTRUCTIONS", "trial_index": 184}, "uniqueid": "MTK3382:3GA6AFUKOPVB8WQ5QTO84LHTZQWH38", "dateTime": 1520485864345}, {"current_trial": 185, "trialdata": {"rt": [7761], "trial_type": "math-distractor", "key_times": [7099, 7237, 7761], "responses": ["20"], "num2": [6, 3], "num3": [8, 4], "conditions": [12, 1600, "v", 12000], "internal_node_id": "0.0-140.0", "key_presses": [50, 48, 13], "trial": 5, "time_elapsed": 938320, "type": "DISTRACTOR", "trial_index": 185, "num1": [6, 9]}, "uniqueid": "MTK3382:3GA6AFUKOPVB8WQ5QTO84LHTZQWH38", "dateTime": 1520485878360}, {"current_trial": 186, "trialdata": {"rt": -1, "trial_type": "single-stim", "stimulus": "<p id=\"stim\">10</p>", "internal_node_id": "0.0-141.0-0.0", "time_elapsed": 941326, "key_press": -1, "trial_index": 186}, "uniqueid": "MTK3382:3GA6AFUKOPVB8WQ5QTO84LHTZQWH38", "dateTime": 1520485881366}, {"current_trial": 187, "trialdata": {"rt": -1, "trial_type": "single-stim", "stimulus": "<p id=\"stim\">9</p>", "internal_node_id": "0.0-141.0-1.0", "time_elapsed": 942334, "key_press": -1, "trial_index": 187}, "uniqueid": "MTK3382:3GA6AFUKOPVB8WQ5QTO84LHTZQWH38", "dateTime": 1520485882374}, {"current_trial": 188, "trialdata": {"rt": -1, "trial_type": "single-stim", "stimulus": "<p id=\"stim\">8</p>", "internal_node_id": "0.0-141.0-2.0", "time_elapsed": 943341, "key_press": -1, "trial_index": 188}, "uniqueid": "MTK3382:3GA6AFUKOPVB8WQ5QTO84LHTZQWH38", "dateTime": 1520485883382}, {"current_trial": 189, "trialdata": {"rt": -1, "trial_type": "single-stim", "stimulus": "<p id=\"stim\">7</p>", "internal_node_id": "0.0-141.0-3.0", "time_elapsed": 944348, "key_press": -1, "trial_index": 189}, "uniqueid": "MTK3382:3GA6AFUKOPVB8WQ5QTO84LHTZQWH38", "dateTime": 1520485884388}, {"current_trial": 190, "trialdata": {"rt": -1, "trial_type": "single-stim", "stimulus": "<p id=\"stim\">6</p>", "internal_node_id": "0.0-141.0-4.0", "time_elapsed": 945353, "key_press": -1, "trial_index": 190}, "uniqueid": "MTK3382:3GA6AFUKOPVB8WQ5QTO84LHTZQWH38", "dateTime": 1520485885394}, {"current_trial": 191, "trialdata": {"rt": -1, "trial_type": "single-stim", "stimulus": "<p id=\"stim\">5</p>", "internal_node_id": "0.0-141.0-5.0", "time_elapsed": 946361, "key_press": -1, "trial_index": 191}, "uniqueid": "MTK3382:3GA6AFUKOPVB8WQ5QTO84LHTZQWH38", "dateTime": 1520485886401}, {"current_trial": 192, "trialdata": {"rt": -1, "trial_type": "single-stim", "stimulus": "<p id=\"stim\">4</p>", "internal_node_id": "0.0-141.0-6.0", "time_elapsed": 947365, "key_press": -1, "trial_index": 192}, "uniqueid": "MTK3382:3GA6AFUKOPVB8WQ5QTO84LHTZQWH38", "dateTime": 1520485887405}, {"current_trial": 193, "trialdata": {"rt": -1, "trial_type": "single-stim", "stimulus": "<p id=\"stim\">3</p>", "internal_node_id": "0.0-141.0-7.0", "time_elapsed": 948372, "key_press": -1, "trial_index": 193}, "uniqueid": "MTK3382:3GA6AFUKOPVB8WQ5QTO84LHTZQWH38", "dateTime": 1520485888412}, {"current_trial": 194, "trialdata": {"rt": -1, "trial_type": "single-stim", "stimulus": "<p id=\"stim\">2</p>", "internal_node_id": "0.0-141.0-8.0", "time_elapsed": 949378, "key_press": -1, "trial_index": 194}, "uniqueid": "MTK3382:3GA6AFUKOPVB8WQ5QTO84LHTZQWH38", "dateTime": 1520485889418}, {"current_trial": 195, "trialdata": {"rt": -1, "trial_type": "single-stim", "stimulus": "<p id=\"stim\">1</p>", "internal_node_id": "0.0-141.0-9.0", "time_elapsed": 950383, "key_press": -1, "trial_index": 195}, "uniqueid": "MTK3382:3GA6AFUKOPVB8WQ5QTO84LHTZQWH38", "dateTime": 1520485890423}, {"current_trial": 196, "trialdata": {"rt": -1, "trial_type": "single-stim", "stimulus": "<p id=\"stim\">+</p>", "internal_node_id": "0.0-142.0-0.0", "time_elapsed": 951888, "key_press": -1, "type": "FIXATION", "trial_index": 196}, "uniqueid": "MTK3382:3GA6AFUKOPVB8WQ5QTO84LHTZQWH38", "dateTime": 1520485891928}, {"current_trial": 197, "trialdata": {"rt": -1, "trial_type": "single-stim", "word": "army", "stimulus": "<p id=\"stim\">ARMY</p>", "conditions": [12, 1600, "v", 12000], "internal_node_id": "0.0-143.0", "trial": 5, "time_elapsed": 953496, "serialpos": 0, "key_press": -1, "wordID": 38, "type": "PRES_VIS", "trial_index": 197}, "uniqueid": "MTK3382:3GA6AFUKOPVB8WQ5QTO84LHTZQWH38", "dateTime": 1520485893536}, {"current_trial": 198, "trialdata": {"rt": -1, "trial_type": "single-stim", "word": "piston", "stimulus": "<p id=\"stim\">PISTON</p>", "conditions": [12, 1600, "v", 12000], "internal_node_id": "0.0-144.0", "trial": 5, "time_elapsed": 955946, "serialpos": 1, "key_press": -1, "wordID": 1075, "type": "PRES_VIS", "trial_index": 198}, "uniqueid": "MTK3382:3GA6AFUKOPVB8WQ5QTO84LHTZQWH38", "dateTime": 1520485895987}, {"current_trial": 199, "trialdata": {"rt": -1, "trial_type": "single-stim", "word": "picnic", "stimulus": "<p id=\"stim\">PICNIC</p>", "conditions": [12, 1600, "v", 12000], "internal_node_id": "0.0-145.0", "trial": 5, "time_elapsed": 958466, "serialpos": 2, "key_press": -1, "wordID": 1059, "type": "PRES_VIS", "trial_index": 199}, "uniqueid": "MTK3382:3GA6AFUKOPVB8WQ5QTO84LHTZQWH38", "dateTime": 1520485898507}, {"current_trial": 200, "trialdata": {"rt": -1, "trial_type": "single-stim", "word": "supper", "stimulus": "<p id=\"stim\">SUPPER</p>", "conditions": [12, 1600, "v", 12000], "internal_node_id": "0.0-146.0", "trial": 5, "time_elapsed": 961150, "serialpos": 3, "key_press": -1, "wordID": 1410, "type": "PRES_VIS", "trial_index": 200}, "uniqueid": "MTK3382:3GA6AFUKOPVB8WQ5QTO84LHTZQWH38", "dateTime": 1520485901191}, {"current_trial": 201, "trialdata": {"rt": -1, "trial_type": "single-stim", "word": "handbag", "stimulus": "<p id=\"stim\">HANDBAG</p>", "conditions": [12, 1600, "v", 12000], "internal_node_id": "0.0-147.0", "trial": 5, "time_elapsed": 963676, "serialpos": 4, "key_press": -1, "wordID": 683, "type": "PRES_VIS", "trial_index": 201}, "uniqueid": "MTK3382:3GA6AFUKOPVB8WQ5QTO84LHTZQWH38", "dateTime": 1520485903716}, {"current_trial": 202, "trialdata": {"rt": -1, "trial_type": "single-stim", "word": "hornet", "stimulus": "<p id=\"stim\">HORNET</p>", "conditions": [12, 1600, "v", 12000], "internal_node_id": "0.0-148.0", "trial": 5, "time_elapsed": 966339, "serialpos": 5, "key_press": -1, "wordID": 717, "type": "PRES_VIS", "trial_index": 202}, "uniqueid": "MTK3382:3GA6AFUKOPVB8WQ5QTO84LHTZQWH38", "dateTime": 1520485906380}, {"current_trial": 203, "trialdata": {"rt": -1, "trial_type": "single-stim", "word": "necklace", "stimulus": "<p id=\"stim\">NECKLACE</p>", "conditions": [12, 1600, "v", 12000], "internal_node_id": "0.0-149.0", "trial": 5, "time_elapsed": 969090, "serialpos": 6, "key_press": -1, "wordID": 939, "type": "PRES_VIS", "trial_index": 203}, "uniqueid": "MTK3382:3GA6AFUKOPVB8WQ5QTO84LHTZQWH38", "dateTime": 1520485909131}, {"current_trial": 204, "trialdata": {"rt": -1, "trial_type": "single-stim", "word": "sheriff", "stimulus": "<p id=\"stim\">SHERIFF</p>", "conditions": [12, 1600, "v", 12000], "internal_node_id": "0.0-150.0", "trial": 5, "time_elapsed": 971604, "serialpos": 7, "key_press": -1, "wordID": 1283, "type": "PRES_VIS", "trial_index": 204}, "uniqueid": "MTK3382:3GA6AFUKOPVB8WQ5QTO84LHTZQWH38", "dateTime": 1520485911645}, {"current_trial": 205, "trialdata": {"rt": -1, "trial_type": "single-stim", "word": "valve", "stimulus": "<p id=\"stim\">VALVE</p>", "conditions": [12, 1600, "v", 12000], "internal_node_id": "0.0-151.0", "trial": 5, "time_elapsed": 974191, "serialpos": 8, "key_press": -1, "wordID": 1545, "type": "PRES_VIS", "trial_index": 205}, "uniqueid": "MTK3382:3GA6AFUKOPVB8WQ5QTO84LHTZQWH38", "dateTime": 1520485914232}, {"current_trial": 206, "trialdata": {"rt": -1, "trial_type": "single-stim", "word": "dresser", "stimulus": "<p id=\"stim\">DRESSER</p>", "conditions": [12, 1600, "v", 12000], "internal_node_id": "0.0-152.0", "trial": 5, "time_elapsed": 976892, "serialpos": 9, "key_press": -1, "wordID": 495, "type": "PRES_VIS", "trial_index": 206}, "uniqueid": "MTK3382:3GA6AFUKOPVB8WQ5QTO84LHTZQWH38", "dateTime": 1520485916933}, {"current_trial": 207, "trialdata": {"rt": -1, "trial_type": "single-stim", "word": "palace", "stimulus": "<p id=\"stim\">PALACE</p>", "conditions": [12, 1600, "v", 12000], "internal_node_id": "0.0-153.0", "trial": 5, "time_elapsed": 979490, "serialpos": 10, "key_press": -1, "wordID": 1005, "type": "PRES_VIS", "trial_index": 207}, "uniqueid": "MTK3382:3GA6AFUKOPVB8WQ5QTO84LHTZQWH38", "dateTime": 1520485919530}, {"current_trial": 208, "trialdata": {"rt": -1, "trial_type": "single-stim", "word": "salmon", "stimulus": "<p id=\"stim\">SALMON</p>", "conditions": [12, 1600, "v", 12000], "internal_node_id": "0.0-154.0", "trial": 5, "time_elapsed": 982139, "serialpos": 11, "key_press": -1, "wordID": 1226, "type": "PRES_VIS", "trial_index": 208}, "uniqueid": "MTK3382:3GA6AFUKOPVB8WQ5QTO84LHTZQWH38", "dateTime": 1520485922180}, {"current_trial": 209, "trialdata": {"rt": -1, "trial_type": "single-stim", "stimulus": "", "internal_node_id": "0.0-155.0-0.0", "time_elapsed": 984430, "key_press": -1, "type": "PRE_RECALL_DELAY", "trial_index": 209}, "uniqueid": "MTK3382:3GA6AFUKOPVB8WQ5QTO84LHTZQWH38", "dateTime": 1520485924471}, {"current_trial": 210, "trialdata": {"rt": -1000, "trial_type": "single-audio", "stimulus": "/static/audio/400Hz.wav", "internal_node_id": "0.0-156.0", "time_elapsed": 984943, "key_press": -1, "type": "PRE_RECALL_ALERT", "trial_index": 210}, "uniqueid": "MTK3382:3GA6AFUKOPVB8WQ5QTO84LHTZQWH38", "dateTime": 1520485924983}, {"current_trial": 211, "trialdata": {"rt": [5229, 9353, 11946, 15092, 17454, 23075, 30224, 34638, 37755, 42361, 53877], "recwords": ["salmon", "hornet", "piston", "valve", "army", "picnic", "dresser", "handbag", "supper", "necklace", "sherif"], "key_times": [2514, 2605, 3045, 3403, 3626, 4208, 5229, 7032, 7740, 7854, 8114, 8240, 8453, 9353, 9732, 9983, 10113, 10404, 10787, 11075, 11946, 13051, 13199, 13616, 13967, 14070, 15092, 15926, 16245, 16593, 16898, 17454, 20281, 20516, 21200, 21400, 21601, 21700, 23075, 27788, 27970, 28152, 28548, 28695, 28986, 29082, 30224, 32163, 32304, 32542, 32704, 33229, 33326, 33922, 34638, 35455, 35636, 36070, 36220, 36325, 36434, 37755, 39884, 40033, 40404, 40670, 40909, 41113, 41515, 41608, 42361, 49125, 49336, 49631, 49892, 49993, 50916, 51304, 52483, 52921, 53016, 53877, 58843, 59270, 59446, 59790, 59904], "trial_type": "free-recall", "conditions": [12, 1600, "v", 12000], "internal_node_id": "0.0-157.0-0.0", "key_presses": [83, 65, 76, 77, 79, 78, 13, 72, 79, 82, 78, 69, 84, 13, 80, 73, 83, 84, 79, 78, 13, 86, 65, 76, 86, 69, 13, 65, 82, 77, 89, 13, 80, 73, 67, 78, 73, 67, 13, 68, 82, 69, 83, 83, 69, 82, 13, 72, 65, 78, 68, 66, 65, 71, 13, 83, 85, 80, 80, 69, 82, 13, 78, 69, 67, 75, 76, 65, 67, 69, 13, 83, 72, 69, 69, 82, 8, 8, 82, 73, 70, 13, 72, 79, 82, 78, 69], "trial": 5, "time_elapsed": 1044957, "type": "FREE_RECALL", "trial_index": 211}, "uniqueid": "MTK3382:3GA6AFUKOPVB8WQ5QTO84LHTZQWH38", "dateTime": 1520485985025}, {"current_trial": 212, "trialdata": {"rt": 3766, "trial_type": "text", "internal_node_id": "0.0-158.0", "time_elapsed": 1050753, "key_press": 13, "type": "INSTRUCTIONS", "trial_index": 212}, "uniqueid": "MTK3382:3GA6AFUKOPVB8WQ5QTO84LHTZQWH38", "dateTime": 1520485990793}, {"current_trial": 213, "trialdata": {"rt": [6330, 12402, 16824, 22725], "trial_type": "math-distractor", "key_times": [5840, 5915, 6330, 11159, 11314, 12402, 16149, 16228, 16824, 22068, 22405, 22725], "responses": ["21", "22", "12", "14"], "num2": [5, 4, 5, 6, 3], "num3": [7, 9, 3, 4, 8], "conditions": [12, 1600, "v", 24000], "internal_node_id": "0.0-159.0", "key_presses": [50, 49, 13, 50, 50, 13, 49, 50, 13, 49, 52, 13], "trial": 6, "time_elapsed": 1076767, "type": "DISTRACTOR", "trial_index": 213, "num1": [9, 9, 4, 4, 1]}, "uniqueid": "MTK3382:3GA6AFUKOPVB8WQ5QTO84LHTZQWH38", "dateTime": 1520486016808}, {"current_trial": 214, "trialdata": {"rt": -1, "trial_type": "single-stim", "stimulus": "<p id=\"stim\">10</p>", "internal_node_id": "0.0-160.0-0.0", "time_elapsed": 1079777, "key_press": -1, "trial_index": 214}, "uniqueid": "MTK3382:3GA6AFUKOPVB8WQ5QTO84LHTZQWH38", "dateTime": 1520486019818}, {"current_trial": 215, "trialdata": {"rt": -1, "trial_type": "single-stim", "stimulus": "<p id=\"stim\">9</p>", "internal_node_id": "0.0-160.0-1.0", "time_elapsed": 1080784, "key_press": -1, "trial_index": 215}, "uniqueid": "MTK3382:3GA6AFUKOPVB8WQ5QTO84LHTZQWH38", "dateTime": 1520486020825}, {"current_trial": 216, "trialdata": {"rt": -1, "trial_type": "single-stim", "stimulus": "<p id=\"stim\">8</p>", "internal_node_id": "0.0-160.0-2.0", "time_elapsed": 1081792, "key_press": -1, "trial_index": 216}, "uniqueid": "MTK3382:3GA6AFUKOPVB8WQ5QTO84LHTZQWH38", "dateTime": 1520486021832}, {"current_trial": 217, "trialdata": {"rt": -1, "trial_type": "single-stim", "stimulus": "<p id=\"stim\">7</p>", "internal_node_id": "0.0-160.0-3.0", "time_elapsed": 1082800, "key_press": -1, "trial_index": 217}, "uniqueid": "MTK3382:3GA6AFUKOPVB8WQ5QTO84LHTZQWH38", "dateTime": 1520486022840}, {"current_trial": 218, "trialdata": {"rt": -1, "trial_type": "single-stim", "stimulus": "<p id=\"stim\">6</p>", "internal_node_id": "0.0-160.0-4.0", "time_elapsed": 1083808, "key_press": -1, "trial_index": 218}, "uniqueid": "MTK3382:3GA6AFUKOPVB8WQ5QTO84LHTZQWH38", "dateTime": 1520486023849}, {"current_trial": 219, "trialdata": {"rt": -1, "trial_type": "single-stim", "stimulus": "<p id=\"stim\">5</p>", "internal_node_id": "0.0-160.0-5.0", "time_elapsed": 1084816, "key_press": -1, "trial_index": 219}, "uniqueid": "MTK3382:3GA6AFUKOPVB8WQ5QTO84LHTZQWH38", "dateTime": 1520486024856}, {"current_trial": 220, "trialdata": {"rt": -1, "trial_type": "single-stim", "stimulus": "<p id=\"stim\">4</p>", "internal_node_id": "0.0-160.0-6.0", "time_elapsed": 1085823, "key_press": -1, "trial_index": 220}, "uniqueid": "MTK3382:3GA6AFUKOPVB8WQ5QTO84LHTZQWH38", "dateTime": 1520486025864}, {"current_trial": 221, "trialdata": {"rt": -1, "trial_type": "single-stim", "stimulus": "<p id=\"stim\">3</p>", "internal_node_id": "0.0-160.0-7.0", "time_elapsed": 1086832, "key_press": -1, "trial_index": 221}, "uniqueid": "MTK3382:3GA6AFUKOPVB8WQ5QTO84LHTZQWH38", "dateTime": 1520486026873}, {"current_trial": 222, "trialdata": {"rt": -1, "trial_type": "single-stim", "stimulus": "<p id=\"stim\">2</p>", "internal_node_id": "0.0-160.0-8.0", "time_elapsed": 1087841, "key_press": -1, "trial_index": 222}, "uniqueid": "MTK3382:3GA6AFUKOPVB8WQ5QTO84LHTZQWH38", "dateTime": 1520486027882}, {"current_trial": 223, "trialdata": {"rt": -1, "trial_type": "single-stim", "stimulus": "<p id=\"stim\">1</p>", "internal_node_id": "0.0-160.0-9.0", "time_elapsed": 1088850, "key_press": -1, "trial_index": 223}, "uniqueid": "MTK3382:3GA6AFUKOPVB8WQ5QTO84LHTZQWH38", "dateTime": 1520486028890}, {"current_trial": 224, "trialdata": {"rt": -1, "trial_type": "single-stim", "stimulus": "<p id=\"stim\">+</p>", "internal_node_id": "0.0-161.0-0.0", "time_elapsed": 1090356, "key_press": -1, "type": "FIXATION", "trial_index": 224}, "uniqueid": "MTK3382:3GA6AFUKOPVB8WQ5QTO84LHTZQWH38", "dateTime": 1520486030396}, {"current_trial": 225, "trialdata": {"rt": -1, "trial_type": "single-stim", "word": "bug", "stimulus": "<p id=\"stim\">BUG</p>", "conditions": [12, 1600, "v", 24000], "internal_node_id": "0.0-162.0", "trial": 6, "time_elapsed": 1091963, "serialpos": 0, "key_press": -1, "wordID": 186, "type": "PRES_VIS", "trial_index": 225}, "uniqueid": "MTK3382:3GA6AFUKOPVB8WQ5QTO84LHTZQWH38", "dateTime": 1520486032003}, {"current_trial": 226, "trialdata": {"rt": -1, "trial_type": "single-stim", "word": "boyfriend", "stimulus": "<p id=\"stim\">BOYFRIEND</p>", "conditions": [12, 1600, "v", 24000], "internal_node_id": "0.0-163.0", "trial": 6, "time_elapsed": 1094465, "serialpos": 1, "key_press": -1, "wordID": 161, "type": "PRES_VIS", "trial_index": 226}, "uniqueid": "MTK3382:3GA6AFUKOPVB8WQ5QTO84LHTZQWH38", "dateTime": 1520486034506}, {"current_trial": 227, "trialdata": {"rt": -1, "trial_type": "single-stim", "word": "tweezers", "stimulus": "<p id=\"stim\">TWEEZERS</p>", "conditions": [12, 1600, "v", 24000], "internal_node_id": "0.0-164.0", "trial": 6, "time_elapsed": 1097101, "serialpos": 2, "key_press": -1, "wordID": 1525, "type": "PRES_VIS", "trial_index": 227}, "uniqueid": "MTK3382:3GA6AFUKOPVB8WQ5QTO84LHTZQWH38", "dateTime": 1520486037142}, {"current_trial": 228, "trialdata": {"rt": -1, "trial_type": "single-stim", "word": "parrot", "stimulus": "<p id=\"stim\">PARROT</p>", "conditions": [12, 1600, "v", 24000], "internal_node_id": "0.0-165.0", "trial": 6, "time_elapsed": 1099759, "serialpos": 3, "key_press": -1, "wordID": 1014, "type": "PRES_VIS", "trial_index": 228}, "uniqueid": "MTK3382:3GA6AFUKOPVB8WQ5QTO84LHTZQWH38", "dateTime": 1520486039800}, {"current_trial": 229, "trialdata": {"rt": -1, "trial_type": "single-stim", "word": "virus", "stimulus": "<p id=\"stim\">VIRUS</p>", "conditions": [12, 1600, "v", 24000], "internal_node_id": "0.0-166.0", "trial": 6, "time_elapsed": 1102246, "serialpos": 4, "key_press": -1, "wordID": 1571, "type": "PRES_VIS", "trial_index": 229}, "uniqueid": "MTK3382:3GA6AFUKOPVB8WQ5QTO84LHTZQWH38", "dateTime": 1520486042287}, {"current_trial": 230, "trialdata": {"rt": -1, "trial_type": "single-stim", "word": "pizza", "stimulus": "<p id=\"stim\">PIZZA</p>", "conditions": [12, 1600, "v", 24000], "internal_node_id": "0.0-167.0", "trial": 6, "time_elapsed": 1104782, "serialpos": 5, "key_press": -1, "wordID": 1078, "type": "PRES_VIS", "trial_index": 230}, "uniqueid": "MTK3382:3GA6AFUKOPVB8WQ5QTO84LHTZQWH38", "dateTime": 1520486044823}, {"current_trial": 231, "trialdata": {"rt": -1, "trial_type": "single-stim", "word": "teacher", "stimulus": "<p id=\"stim\">TEACHER</p>", "conditions": [12, 1600, "v", 24000], "internal_node_id": "0.0-168.0", "trial": 6, "time_elapsed": 1107565, "serialpos": 6, "key_press": -1, "wordID": 1439, "type": "PRES_VIS", "trial_index": 231}, "uniqueid": "MTK3382:3GA6AFUKOPVB8WQ5QTO84LHTZQWH38", "dateTime": 1520486047605}, {"current_trial": 232, "trialdata": {"rt": -1, "trial_type": "single-stim", "word": "student", "stimulus": "<p id=\"stim\">STUDENT</p>", "conditions": [12, 1600, "v", 24000], "internal_node_id": "0.0-169.0", "trial": 6, "time_elapsed": 1109999, "serialpos": 7, "key_press": -1, "wordID": 1394, "type": "PRES_VIS", "trial_index": 232}, "uniqueid": "MTK3382:3GA6AFUKOPVB8WQ5QTO84LHTZQWH38", "dateTime": 1520486050039}, {"current_trial": 233, "trialdata": {"rt": -1, "trial_type": "single-stim", "word": "brother", "stimulus": "<p id=\"stim\">BROTHER</p>", "conditions": [12, 1600, "v", 24000], "internal_node_id": "0.0-170.0", "trial": 6, "time_elapsed": 1112469, "serialpos": 8, "key_press": -1, "wordID": 178, "type": "PRES_VIS", "trial_index": 233}, "uniqueid": "MTK3382:3GA6AFUKOPVB8WQ5QTO84LHTZQWH38", "dateTime": 1520486052510}, {"current_trial": 234, "trialdata": {"rt": -1, "trial_type": "single-stim", "word": "tombstone", "stimulus": "<p id=\"stim\">TOMBSTONE</p>", "conditions": [12, 1600, "v", 24000], "internal_node_id": "0.0-171.0", "trial": 6, "time_elapsed": 1115081, "serialpos": 9, "key_press": -1, "wordID": 1477, "type": "PRES_VIS", "trial_index": 234}, "uniqueid": "MTK3382:3GA6AFUKOPVB8WQ5QTO84LHTZQWH38", "dateTime": 1520486055121}, {"current_trial": 235, "trialdata": {"rt": -1, "trial_type": "single-stim", "word": "preacher", "stimulus": "<p id=\"stim\">PREACHER</p>", "conditions": [12, 1600, "v", 24000], "internal_node_id": "0.0-172.0", "trial": 6, "time_elapsed": 1117726, "serialpos": 10, "key_press": -1, "wordID": 1118, "type": "PRES_VIS", "trial_index": 235}, "uniqueid": "MTK3382:3GA6AFUKOPVB8WQ5QTO84LHTZQWH38", "dateTime": 1520486057766}, {"current_trial": 236, "trialdata": {"rt": -1, "trial_type": "single-stim", "word": "female", "stimulus": "<p id=\"stim\">FEMALE</p>", "conditions": [12, 1600, "v", 24000], "internal_node_id": "0.0-173.0", "trial": 6, "time_elapsed": 1120228, "serialpos": 11, "key_press": -1, "wordID": 558, "type": "PRES_VIS", "trial_index": 236}, "uniqueid": "MTK3382:3GA6AFUKOPVB8WQ5QTO84LHTZQWH38", "dateTime": 1520486060269}, {"current_trial": 237, "trialdata": {"rt": -1, "trial_type": "single-stim", "stimulus": "", "internal_node_id": "0.0-174.0-0.0", "time_elapsed": 1122595, "key_press": -1, "type": "PRE_RECALL_DELAY", "trial_index": 237}, "uniqueid": "MTK3382:3GA6AFUKOPVB8WQ5QTO84LHTZQWH38", "dateTime": 1520486062635}, {"current_trial": 238, "trialdata": {"rt": -1000, "trial_type": "single-audio", "stimulus": "/static/audio/400Hz.wav", "internal_node_id": "0.0-175.0", "time_elapsed": 1123107, "key_press": -1, "type": "PRE_RECALL_ALERT", "trial_index": 238}, "uniqueid": "MTK3382:3GA6AFUKOPVB8WQ5QTO84LHTZQWH38", "dateTime": 1520486063147}, {"current_trial": 239, "trialdata": {"rt": [5167, 9541, 14576, 18033, 22185, 28073, 32109, 35392, 40263, 46441, 49616, 57433], "recwords": ["female", "preacher", "tombstone", "brother", "pizza", "tweezers", "virus", "bug", "boyfriend", "student", "teacher", "female"], "key_times": [4038, 4189, 4523, 4617, 4874, 5009, 5167, 6286, 6434, 6554, 7360, 7653, 7902, 8013, 8123, 9541, 11167, 11315, 11542, 11972, 12215, 12349, 12829, 13474, 13593, 14576, 16198, 16337, 16724, 16923, 17159, 17292, 17392, 18033, 20668, 20898, 21185, 21357, 21579, 22185, 24293, 24479, 24748, 24896, 25535, 26059, 26169, 26356, 28073, 30086, 30264, 31064, 31291, 31594, 32109, 34331, 34524, 34763, 35392, 37184, 37910, 38369, 38681, 38827, 39107, 39245, 39451, 39765, 40263, 44309, 44411, 44861, 45105, 45208, 45424, 45761, 46441, 47163, 47332, 47640, 48677, 48914, 49107, 49245, 49616, 55352, 55479, 56305, 56468, 56735, 56861, 57433, 59018, 59239, 59500, 59648, 59823], "trial_type": "free-recall", "conditions": [12, 1600, "v", 24000], "internal_node_id": "0.0-176.0-0.0", "key_presses": [70, 69, 77, 65, 76, 69, 32, 80, 82, 69, 65, 67, 72, 69, 82, 13, 84, 79, 77, 66, 83, 84, 79, 78, 69, 13, 66, 82, 79, 84, 72, 69, 82, 13, 80, 73, 90, 90, 65, 13, 84, 87, 69, 69, 90, 69, 82, 83, 13, 86, 73, 82, 85, 83, 13, 66, 85, 71, 13, 66, 79, 89, 70, 82, 73, 69, 78, 68, 13, 83, 84, 85, 68, 69, 78, 84, 13, 84, 69, 65, 67, 72, 69, 82, 13, 70, 69, 77, 65, 76, 69, 13, 80, 73, 90, 90, 65], "trial": 6, "time_elapsed": 1183119, "type": "FREE_RECALL", "trial_index": 239}, "uniqueid": "MTK3382:3GA6AFUKOPVB8WQ5QTO84LHTZQWH38", "dateTime": 1520486123186}, {"current_trial": 240, "trialdata": {"rt": 1642, "trial_type": "text", "internal_node_id": "0.0-177.0", "time_elapsed": 1186791, "key_press": 13, "type": "INSTRUCTIONS", "trial_index": 240}, "uniqueid": "MTK3382:3GA6AFUKOPVB8WQ5QTO84LHTZQWH38", "dateTime": 1520486126831}, {"current_trial": 241, "trialdata": {"rt": [5251, 8094], "trial_type": "math-distractor", "key_times": [4682, 4798, 5251, 7413, 7491, 8094], "responses": ["10", "12"], "num2": [3, 9, 3], "num3": [6, 2, 4], "conditions": [12, 800, "v", 12000], "internal_node_id": "0.0-178.0", "key_presses": [49, 48, 13, 49, 50, 13], "trial": 7, "time_elapsed": 1200805, "type": "DISTRACTOR", "trial_index": 241, "num1": [1, 1, 8]}, "uniqueid": "MTK3382:3GA6AFUKOPVB8WQ5QTO84LHTZQWH38", "dateTime": 1520486140845}, {"current_trial": 242, "trialdata": {"rt": -1, "trial_type": "single-stim", "stimulus": "<p id=\"stim\">10</p>", "internal_node_id": "0.0-179.0-0.0", "time_elapsed": 1203815, "key_press": -1, "trial_index": 242}, "uniqueid": "MTK3382:3GA6AFUKOPVB8WQ5QTO84LHTZQWH38", "dateTime": 1520486143856}, {"current_trial": 243, "trialdata": {"rt": -1, "trial_type": "single-stim", "stimulus": "<p id=\"stim\">9</p>", "internal_node_id": "0.0-179.0-1.0", "time_elapsed": 1204826, "key_press": -1, "trial_index": 243}, "uniqueid": "MTK3382:3GA6AFUKOPVB8WQ5QTO84LHTZQWH38", "dateTime": 1520486144866}, {"current_trial": 244, "trialdata": {"rt": -1, "trial_type": "single-stim", "stimulus": "<p id=\"stim\">8</p>", "internal_node_id": "0.0-179.0-2.0", "time_elapsed": 1205835, "key_press": -1, "trial_index": 244}, "uniqueid": "MTK3382:3GA6AFUKOPVB8WQ5QTO84LHTZQWH38", "dateTime": 1520486145875}, {"current_trial": 245, "trialdata": {"rt": -1, "trial_type": "single-stim", "stimulus": "<p id=\"stim\">7</p>", "internal_node_id": "0.0-179.0-3.0", "time_elapsed": 1206840, "key_press": -1, "trial_index": 245}, "uniqueid": "MTK3382:3GA6AFUKOPVB8WQ5QTO84LHTZQWH38", "dateTime": 1520486146881}, {"current_trial": 246, "trialdata": {"rt": -1, "trial_type": "single-stim", "stimulus": "<p id=\"stim\">6</p>", "internal_node_id": "0.0-179.0-4.0", "time_elapsed": 1207848, "key_press": -1, "trial_index": 246}, "uniqueid": "MTK3382:3GA6AFUKOPVB8WQ5QTO84LHTZQWH38", "dateTime": 1520486147889}, {"current_trial": 247, "trialdata": {"rt": -1, "trial_type": "single-stim", "stimulus": "<p id=\"stim\">5</p>", "internal_node_id": "0.0-179.0-5.0", "time_elapsed": 1208854, "key_press": -1, "trial_index": 247}, "uniqueid": "MTK3382:3GA6AFUKOPVB8WQ5QTO84LHTZQWH38", "dateTime": 1520486148894}, {"current_trial": 248, "trialdata": {"rt": -1, "trial_type": "single-stim", "stimulus": "<p id=\"st