{"assignmentId": "32SVAV9L3GGWY9IRKNEGNZUPMOKA3Q", "workerId": "MTK3302", "questiondata": {"origin": "United States", "strat-rehearsal": "63", "marital": "Single", "education": "Bachelor's degree", "ethnicity": "Not Hispanic", "color_depth": 24, "distracted": "No", "wrote-notes": "No", "strat-other": "", "screen_width": 1280, "avail_screen_width": 1280, "avail_screen_height": 680, "strat-image": "86", "language": "English", "gender": "Female", "age": "23", "gender_other": "", "race": ["White"], "strat-categorize": "94", "pixel_depth": 24, "strat-spatial": "81", "strat-story": "85", "race_other": "", "screen_height": 720}, "bonus": 0, "hitId": "3OB6JN3A9QWNWSEO2E0FP4WL1JTRM3", "counterbalance": 643, "useragent": "Mozilla/5.0 (Windows NT 10.0; Win64; x64) AppleWebKit/537.36 (KHTML, like Gecko) Chrome/64.0.3282.186 Safari/537.36", "eventdata": [{"eventtype": "initialized", "interval": 0, "value": null, "timestamp": 1520353532752}, {"eventtype": "window_resize", "interval": 0, "value": [1280, 630], "timestamp": 1520353532752}, {"eventtype": "focus", "interval": 72114, "value": "off", "timestamp": 1520353604866}, {"eventtype": "focus", "interval": 8366, "value": "on", "timestamp": 1520353613232}, {"eventtype": "focus", "interval": 2178, "value": "off", "timestamp": 1520353615410}, {"eventtype": "focus", "interval": 1927, "value": "on", "timestamp": 1520353617337}, {"eventtype": "focus", "interval": 8418, "value": "off", "timestamp": 1520353625755}, {"eventtype": "focus", "interval": 9178, "value": "on", "timestamp": 1520353634933}, {"eventtype": "window_resize", "interval": 916062, "value": [1282, 672], "timestamp": 1520354550995}, {"eventtype": "focus", "interval": 786175, "value": "off", "timestamp": 1520355337170}, {"eventtype": "focus", "interval": 9717, "value": "on", "timestamp": 1520355346887}], "data": [{"current_trial": 0, "trialdata": {"rt": 1466, "trial_type": "text", "internal_node_id": "0.0-0.0", "time_elapsed": 1467, "key_press": 72, "type": "INSTRUCTIONS", "trial_index": 0}, "uniqueid": "MTK3302:32SVAV9L3GGWY9IRKNEGNZUPMOKA3Q", "dateTime": 1520353534657}, {"current_trial": 1, "trialdata": {"rt": 20791, "trial_type": "text", "internal_node_id": "0.0-1.0", "time_elapsed": 22261, "key_press": 74, "type": "INSTRUCTIONS", "trial_index": 1}, "uniqueid": "MTK3302:32SVAV9L3GGWY9IRKNEGNZUPMOKA3Q", "dateTime": 1520353555450}, {"current_trial": 2, "trialdata": {"rt": [5026], "trial_type": "audio-test", "responses": ["ocean"], "internal_node_id": "0.0-2.0", "time_elapsed": 27301, "type": "AUDIO_TEST", "trial_index": 2}, "uniqueid": "MTK3302:32SVAV9L3GGWY9IRKNEGNZUPMOKA3Q", "dateTime": 1520353560490}, {"current_trial": 3, "trialdata": {"rt": [9271], "trial_type": "audio-test", "responses": ["crystal"], "internal_node_id": "0.0-3.0", "time_elapsed": 36576, "type": "AUDIO_TEST", "trial_index": 3}, "uniqueid": "MTK3302:32SVAV9L3GGWY9IRKNEGNZUPMOKA3Q", "dateTime": 1520353569765}, {"current_trial": 4, "trialdata": {"rt": [4862], "trial_type": "audio-test", "responses": ["spice"], "internal_node_id": "0.0-4.0", "time_elapsed": 41442, "type": "AUDIO_TEST", "trial_index": 4}, "uniqueid": "MTK3302:32SVAV9L3GGWY9IRKNEGNZUPMOKA3Q", "dateTime": 1520353574631}, {"current_trial": 5, "trialdata": {"rt": 25297, "trial_type": "survey-text", "responses": "{\"Q0\":\"23:30\",\"Q1\":\"08:00\",\"Q2\":\"5\"}", "internal_node_id": "0.0-5.0", "time_elapsed": 67492, "type": "SLEEP_SURVEY", "trial_index": 5}, "uniqueid": "MTK3302:32SVAV9L3GGWY9IRKNEGNZUPMOKA3Q", "dateTime": 1520353600681}, {"current_trial": 6, "trialdata": {"rt": 47836, "trial_type": "text", "internal_node_id": "0.0-6.0", "time_elapsed": 116329, "key_press": 16, "type": "INSTRUCTIONS", "trial_index": 6}, "uniqueid": "MTK3302:32SVAV9L3GGWY9IRKNEGNZUPMOKA3Q", "dateTime": 1520353649518}, {"current_trial": 7, "trialdata": {"rt": 14505, "trial_type": "text", "internal_node_id": "0.0-7.0", "time_elapsed": 131335, "key_press": 72, "type": "INSTRUCTIONS", "trial_index": 7}, "uniqueid": "MTK3302:32SVAV9L3GGWY9IRKNEGNZUPMOKA3Q", "dateTime": 1520353664524}, {"current_trial": 8, "trialdata": {"rt": 7322, "trial_type": "text", "internal_node_id": "0.0-8.0", "time_elapsed": 139160, "key_press": 72, "type": "INSTRUCTIONS", "trial_index": 8}, "uniqueid": "MTK3302:32SVAV9L3GGWY9IRKNEGNZUPMOKA3Q", "dateTime": 1520353672350}, {"current_trial": 9, "trialdata": {"rt": [2979, 5029, 6637, 8127, 10197, 12008, 14383, 16408], "trial_type": "math-distractor", "key_times": [2587, 2771, 2979, 4809, 4911, 5029, 6338, 6445, 6637, 7982, 8127, 9837, 10040, 10197, 11805, 11912, 12008, 13728, 14033, 14383, 15943, 16156, 16408], "responses": ["22", "15", "10", "7", "16", "15", "12", "13"], "num2": [9, 7, 4, 1, 4, 5, 6, 7, 4], "num3": [9, 1, 2, 4, 5, 2, 3, 3, 7], "conditions": [18, 1200, "v", 18000], "internal_node_id": "0.0-9.0", "key_presses": [50, 50, 13, 49, 53, 13, 49, 48, 13, 55, 13, 49, 54, 13, 49, 53, 13, 49, 50, 13, 49, 51, 13], "trial": 0, "time_elapsed": 158165, "type": "DISTRACTOR", "trial_index": 9, "num1": [4, 7, 4, 2, 7, 8, 3, 3, 8]}, "uniqueid": "MTK3302:32SVAV9L3GGWY9IRKNEGNZUPMOKA3Q", "dateTime": 1520353691354}, {"current_trial": 10, "trialdata": {"rt": -1, "trial_type": "single-stim", "stimulus": "<p id=\"stim\">10</p>", "internal_node_id": "0.0-10.0-0.0", "time_elapsed": 161169, "key_press": -1, "trial_index": 10}, "uniqueid": "MTK3302:32SVAV9L3GGWY9IRKNEGNZUPMOKA3Q", "dateTime": 1520353694358}, {"current_trial": 11, "trialdata": {"rt": -1, "trial_type": "single-stim", "stimulus": "<p id=\"stim\">9</p>", "internal_node_id": "0.0-10.0-1.0", "time_elapsed": 162171, "key_press": -1, "trial_index": 11}, "uniqueid": "MTK3302:32SVAV9L3GGWY9IRKNEGNZUPMOKA3Q", "dateTime": 1520353695360}, {"current_trial": 12, "trialdata": {"rt": -1, "trial_type": "single-stim", "stimulus": "<p id=\"stim\">8</p>", "internal_node_id": "0.0-10.0-2.0", "time_elapsed": 163173, "key_press": -1, "trial_index": 12}, "uniqueid": "MTK3302:32SVAV9L3GGWY9IRKNEGNZUPMOKA3Q", "dateTime": 1520353696362}, {"current_trial": 13, "trialdata": {"rt": -1, "trial_type": "single-stim", "stimulus": "<p id=\"stim\">7</p>", "internal_node_id": "0.0-10.0-3.0", "time_elapsed": 164174, "key_press": -1, "trial_index": 13}, "uniqueid": "MTK3302:32SVAV9L3GGWY9IRKNEGNZUPMOKA3Q", "dateTime": 1520353697363}, {"current_trial": 14, "trialdata": {"rt": -1, "trial_type": "single-stim", "stimulus": "<p id=\"stim\">6</p>", "internal_node_id": "0.0-10.0-4.0", "time_elapsed": 165176, "key_press": -1, "trial_index": 14}, "uniqueid": "MTK3302:32SVAV9L3GGWY9IRKNEGNZUPMOKA3Q", "dateTime": 1520353698365}, {"current_trial": 15, "trialdata": {"rt": -1, "trial_type": "single-stim", "stimulus": "<p id=\"stim\">5</p>", "internal_node_id": "0.0-10.0-5.0", "time_elapsed": 166178, "key_press": -1, "trial_index": 15}, "uniqueid": "MTK3302:32SVAV9L3GGWY9IRKNEGNZUPMOKA3Q", "dateTime": 1520353699367}, {"current_trial": 16, "trialdata": {"rt": -1, "trial_type": "single-stim", "stimulus": "<p id=\"stim\">4</p>", "internal_node_id": "0.0-10.0-6.0", "time_elapsed": 167180, "key_press": -1, "trial_index": 16}, "uniqueid": "MTK3302:32SVAV9L3GGWY9IRKNEGNZUPMOKA3Q", "dateTime": 1520353700369}, {"current_trial": 17, "trialdata": {"rt": -1, "trial_type": "single-stim", "stimulus": "<p id=\"stim\">3</p>", "internal_node_id": "0.0-10.0-7.0", "time_elapsed": 168181, "key_press": -1, "trial_index": 17}, "uniqueid": "MTK3302:32SVAV9L3GGWY9IRKNEGNZUPMOKA3Q", "dateTime": 1520353701370}, {"current_trial": 18, "trialdata": {"rt": -1, "trial_type": "single-stim", "stimulus": "<p id=\"stim\">2</p>", "internal_node_id": "0.0-10.0-8.0", "time_elapsed": 169182, "key_press": -1, "trial_index": 18}, "uniqueid": "MTK3302:32SVAV9L3GGWY9IRKNEGNZUPMOKA3Q", "dateTime": 1520353702372}, {"current_trial": 19, "trialdata": {"rt": -1, "trial_type": "single-stim", "stimulus": "<p id=\"stim\">1</p>", "internal_node_id": "0.0-10.0-9.0", "time_elapsed": 170183, "key_press": -1, "trial_index": 19}, "uniqueid": "MTK3302:32SVAV9L3GGWY9IRKNEGNZUPMOKA3Q", "dateTime": 1520353703372}, {"current_trial": 20, "trialdata": {"rt": -1, "trial_type": "single-stim", "stimulus": "<p id=\"stim\">+</p>", "internal_node_id": "0.0-11.0-0.0", "time_elapsed": 171685, "key_press": -1, "type": "FIXATION", "trial_index": 20}, "uniqueid": "MTK3302:32SVAV9L3GGWY9IRKNEGNZUPMOKA3Q", "dateTime": 1520353704874}, {"current_trial": 21, "trialdata": {"rt": -1, "trial_type": "single-stim", "word": "kleenex", "stimulus": "<p id=\"stim\">KLEENEX</p>", "conditions": [18, 1200, "v", 18000], "internal_node_id": "0.0-12.0", "trial": 0, "time_elapsed": 172886, "serialpos": 0, "key_press": -1, "wordID": 781, "type": "PRES_VIS", "trial_index": 21}, "uniqueid": "MTK3302:32SVAV9L3GGWY9IRKNEGNZUPMOKA3Q", "dateTime": 1520353706075}, {"current_trial": 22, "trialdata": {"rt": -1, "trial_type": "single-stim", "word": "mailman", "stimulus": "<p id=\"stim\">MAILMAN</p>", "conditions": [18, 1200, "v", 18000], "internal_node_id": "0.0-13.0", "trial": 0, "time_elapsed": 175103, "serialpos": 1, "key_press": -1, "wordID": 857, "type": "PRES_VIS", "trial_index": 22}, "uniqueid": "MTK3302:32SVAV9L3GGWY9IRKNEGNZUPMOKA3Q", "dateTime": 1520353708292}, {"current_trial": 23, "trialdata": {"rt": -1, "trial_type": "single-stim", "word": "wife", "stimulus": "<p id=\"stim\">WIFE</p>", "conditions": [18, 1200, "v", 18000], "internal_node_id": "0.0-14.0", "trial": 0, "time_elapsed": 177346, "serialpos": 2, "key_press": -1, "wordID": 1608, "type": "PRES_VIS", "trial_index": 23}, "uniqueid": "MTK3302:32SVAV9L3GGWY9IRKNEGNZUPMOKA3Q", "dateTime": 1520353710535}, {"current_trial": 24, "trialdata": {"rt": -1, "trial_type": "single-stim", "word": "receipt", "stimulus": "<p id=\"stim\">RECEIPT</p>", "conditions": [18, 1200, "v", 18000], "internal_node_id": "0.0-15.0", "trial": 0, "time_elapsed": 179608, "serialpos": 3, "key_press": -1, "wordID": 1172, "type": "PRES_VIS", "trial_index": 24}, "uniqueid": "MTK3302:32SVAV9L3GGWY9IRKNEGNZUPMOKA3Q", "dateTime": 1520353712797}, {"current_trial": 25, "trialdata": {"rt": -1, "trial_type": "single-stim", "word": "money", "stimulus": "<p id=\"stim\">MONEY</p>", "conditions": [18, 1200, "v", 18000], "internal_node_id": "0.0-16.0", "trial": 0, "time_elapsed": 181928, "serialpos": 4, "key_press": -1, "wordID": 907, "type": "PRES_VIS", "trial_index": 25}, "uniqueid": "MTK3302:32SVAV9L3GGWY9IRKNEGNZUPMOKA3Q", "dateTime": 1520353715117}, {"current_trial": 26, "trialdata": {"rt": -1, "trial_type": "single-stim", "word": "bike", "stimulus": "<p id=\"stim\">BIKE</p>", "conditions": [18, 1200, "v", 18000], "internal_node_id": "0.0-17.0", "trial": 0, "time_elapsed": 183966, "serialpos": 5, "key_press": -1, "wordID": 124, "type": "PRES_VIS", "trial_index": 26}, "uniqueid": "MTK3302:32SVAV9L3GGWY9IRKNEGNZUPMOKA3Q", "dateTime": 1520353717155}, {"current_trial": 27, "trialdata": {"rt": -1, "trial_type": "single-stim", "word": "dentist", "stimulus": "<p id=\"stim\">DENTIST</p>", "conditions": [18, 1200, "v", 18000], "internal_node_id": "0.0-18.0", "trial": 0, "time_elapsed": 186098, "serialpos": 6, "key_press": -1, "wordID": 446, "type": "PRES_VIS", "trial_index": 27}, "uniqueid": "MTK3302:32SVAV9L3GGWY9IRKNEGNZUPMOKA3Q", "dateTime": 1520353719288}, {"current_trial": 28, "trialdata": {"rt": -1, "trial_type": "single-stim", "word": "parent", "stimulus": "<p id=\"stim\">PARENT</p>", "conditions": [18, 1200, "v", 18000], "internal_node_id": "0.0-19.0", "trial": 0, "time_elapsed": 188481, "serialpos": 7, "key_press": -1, "wordID": 1012, "type": "PRES_VIS", "trial_index": 28}, "uniqueid": "MTK3302:32SVAV9L3GGWY9IRKNEGNZUPMOKA3Q", "dateTime": 1520353721670}, {"current_trial": 29, "trialdata": {"rt": -1, "trial_type": "single-stim", "word": "princess", "stimulus": "<p id=\"stim\">PRINCESS</p>", "conditions": [18, 1200, "v", 18000], "internal_node_id": "0.0-20.0", "trial": 0, "time_elapsed": 190699, "serialpos": 8, "key_press": -1, "wordID": 1124, "type": "PRES_VIS", "trial_index": 29}, "uniqueid": "MTK3302:32SVAV9L3GGWY9IRKNEGNZUPMOKA3Q", "dateTime": 1520353723888}, {"current_trial": 30, "trialdata": {"rt": -1, "trial_type": "single-stim", "word": "cowboy", "stimulus": "<p id=\"stim\">COWBOY</p>", "conditions": [18, 1200, "v", 18000], "internal_node_id": "0.0-21.0", "trial": 0, "time_elapsed": 192871, "serialpos": 9, "key_press": -1, "wordID": 394, "type": "PRES_VIS", "trial_index": 30}, "uniqueid": "MTK3302:32SVAV9L3GGWY9IRKNEGNZUPMOKA3Q", "dateTime": 1520353726060}, {"current_trial": 31, "trialdata": {"rt": -1, "trial_type": "single-stim", "word": "cobra", "stimulus": "<p id=\"stim\">COBRA</p>", "conditions": [18, 1200, "v", 18000], "internal_node_id": "0.0-22.0", "trial": 0, "time_elapsed": 195043, "serialpos": 10, "key_press": -1, "wordID": 335, "type": "PRES_VIS", "trial_index": 31}, "uniqueid": "MTK3302:32SVAV9L3GGWY9IRKNEGNZUPMOKA3Q", "dateTime": 1520353728232}, {"current_trial": 32, "trialdata": {"rt": -1, "trial_type": "single-stim", "word": "canal", "stimulus": "<p id=\"stim\">CANAL</p>", "conditions": [18, 1200, "v", 18000], "internal_node_id": "0.0-23.0", "trial": 0, "time_elapsed": 197198, "serialpos": 11, "key_press": -1, "wordID": 225, "type": "PRES_VIS", "trial_index": 32}, "uniqueid": "MTK3302:32SVAV9L3GGWY9IRKNEGNZUPMOKA3Q", "dateTime": 1520353730387}, {"current_trial": 33, "trialdata": {"rt": -1, "trial_type": "single-stim", "word": "wardrobe", "stimulus": "<p id=\"stim\">WARDROBE</p>", "conditions": [18, 1200, "v", 18000], "internal_node_id": "0.0-24.0", "trial": 0, "time_elapsed": 199259, "serialpos": 12, "key_press": -1, "wordID": 1586, "type": "PRES_VIS", "trial_index": 33}, "uniqueid": "MTK3302:32SVAV9L3GGWY9IRKNEGNZUPMOKA3Q", "dateTime": 1520353732448}, {"current_trial": 34, "trialdata": {"rt": -1, "trial_type": "single-stim", "word": "mummy", "stimulus": "<p id=\"stim\">MUMMY</p>", "conditions": [18, 1200, "v", 18000], "internal_node_id": "0.0-25.0", "trial": 0, "time_elapsed": 201314, "serialpos": 13, "key_press": -1, "wordID": 931, "type": "PRES_VIS", "trial_index": 34}, "uniqueid": "MTK3302:32SVAV9L3GGWY9IRKNEGNZUPMOKA3Q", "dateTime": 1520353734503}, {"current_trial": 35, "trialdata": {"rt": -1, "trial_type": "single-stim", "word": "bacon", "stimulus": "<p id=\"stim\">BACON</p>", "conditions": [18, 1200, "v", 18000], "internal_node_id": "0.0-26.0", "trial": 0, "time_elapsed": 203690, "serialpos": 14, "key_press": -1, "wordID": 66, "type": "PRES_VIS", "trial_index": 35}, "uniqueid": "MTK3302:32SVAV9L3GGWY9IRKNEGNZUPMOKA3Q", "dateTime": 1520353736879}, {"current_trial": 36, "trialdata": {"rt": -1, "trial_type": "single-stim", "word": "package", "stimulus": "<p id=\"stim\">PACKAGE</p>", "conditions": [18, 1200, "v", 18000], "internal_node_id": "0.0-27.0", "trial": 0, "time_elapsed": 206023, "serialpos": 15, "key_press": -1, "wordID": 996, "type": "PRES_VIS", "trial_index": 36}, "uniqueid": "MTK3302:32SVAV9L3GGWY9IRKNEGNZUPMOKA3Q", "dateTime": 1520353739212}, {"current_trial": 37, "trialdata": {"rt": -1, "trial_type": "single-stim", "word": "eyelash", "stimulus": "<p id=\"stim\">EYELASH</p>", "conditions": [18, 1200, "v", 18000], "internal_node_id": "0.0-28.0", "trial": 0, "time_elapsed": 208078, "serialpos": 16, "key_press": -1, "wordID": 545, "type": "PRES_VIS", "trial_index": 37}, "uniqueid": "MTK3302:32SVAV9L3GGWY9IRKNEGNZUPMOKA3Q", "dateTime": 1520353741268}, {"current_trial": 38, "trialdata": {"rt": -1, "trial_type": "single-stim", "word": "sibling", "stimulus": "<p id=\"stim\">SIBLING</p>", "conditions": [18, 1200, "v", 18000], "internal_node_id": "0.0-29.0", "trial": 0, "time_elapsed": 210188, "serialpos": 17, "key_press": -1, "wordID": 1300, "type": "PRES_VIS", "trial_index": 38}, "uniqueid": "MTK3302:32SVAV9L3GGWY9IRKNEGNZUPMOKA3Q", "dateTime": 1520353743377}, {"current_trial": 39, "trialdata": {"rt": -1, "trial_type": "single-stim", "stimulus": "", "internal_node_id": "0.0-30.0-0.0", "time_elapsed": 212342, "key_press": -1, "type": "PRE_RECALL_DELAY", "trial_index": 39}, "uniqueid": "MTK3302:32SVAV9L3GGWY9IRKNEGNZUPMOKA3Q", "dateTime": 1520353745531}, {"current_trial": 40, "trialdata": {"rt": -1000, "trial_type": "single-audio", "stimulus": "/static/audio/400Hz.wav", "internal_node_id": "0.0-31.0", "time_elapsed": 212844, "key_press": -1, "type": "PRE_RECALL_ALERT", "trial_index": 40}, "uniqueid": "MTK3302:32SVAV9L3GGWY9IRKNEGNZUPMOKA3Q", "dateTime": 1520353746033}, {"current_trial": 41, "trialdata": {"rt": [2240, 5042, 6326, 8470, 9423, 12125, 15479, 18673, 21241, 50827, 59178], "recwords": ["sibling", "kleenex", "cowboy", "mailman", "wife", "receipt", "canal", "princess", "", "", "end"], "key_times": [1436, 1549, 1645, 1796, 1930, 2021, 2123, 2240, 3022, 3119, 3647, 3874, 3998, 4154, 4276, 4392, 4944, 5042, 5288, 5384, 5730, 5942, 6126, 6195, 6326, 7015, 7117, 7400, 7564, 8110, 8202, 8298, 8470, 9001, 9124, 9210, 9312, 9423, 10926, 11049, 11299, 11485, 11641, 11780, 11914, 12125, 14705, 14780, 14902, 15021, 15144, 15479, 17480, 17601, 17738, 17930, 18021, 18197, 18388, 18553, 18673, 21241, 33343, 50827, 58136, 58243, 58328, 58453, 58950, 59178], "trial_type": "free-recall", "conditions": [18, 1200, "v", 18000], "internal_node_id": "0.0-32.0-0.0", "key_presses": [83, 73, 66, 76, 73, 78, 71, 13, 75, 69, 8, 76, 69, 69, 78, 69, 88, 13, 67, 79, 87, 66, 79, 89, 13, 77, 65, 73, 76, 77, 65, 78, 13, 87, 73, 70, 69, 13, 82, 69, 67, 69, 73, 80, 84, 13, 67, 65, 78, 65, 76, 13, 80, 82, 73, 78, 67, 69, 83, 83, 13, 13, 16, 13, 69, 78, 68, 220, 8, 13], "trial": 0, "time_elapsed": 272847, "type": "FREE_RECALL", "trial_index": 41}, "uniqueid": "MTK3302:32SVAV9L3GGWY9IRKNEGNZUPMOKA3Q", "dateTime": 1520353806038}, {"current_trial": 42, "trialdata": {"rt": 996, "trial_type": "text", "internal_node_id": "0.0-33.0", "time_elapsed": 275847, "key_press": 74, "type": "INSTRUCTIONS", "trial_index": 42}, "uniqueid": "MTK3302:32SVAV9L3GGWY9IRKNEGNZUPMOKA3Q", "dateTime": 1520353809036}, {"current_trial": 43, "trialdata": {"rt": [2700, 4069, 6693, 8529, 9767, 11385, 12753, 16884], "trial_type": "math-distractor", "key_times": [2518, 2593, 2700, 3861, 4069, 6356, 6581, 6693, 8257, 8369, 8529, 9491, 9659, 9767, 11046, 11179, 11385, 12579, 12753, 16635, 16804, 16884], "responses": ["14", "9", "13", "19", "11", "12", "9", "22"], "num2": [8, 4, 4, 8, 5, 1, 4, 6, 6], "num3": [1, 4, 1, 4, 1, 9, 1, 9, 3], "conditions": [18, 1200, "v", 18000], "internal_node_id": "0.0-34.0", "key_presses": [49, 52, 13, 57, 13, 49, 51, 13, 49, 57, 13, 49, 49, 13, 49, 50, 13, 57, 13, 50, 50, 13], "trial": 1, "time_elapsed": 295850, "type": "DISTRACTOR", "trial_index": 43, "num1": [5, 1, 8, 7, 5, 2, 5, 7, 5]}, "uniqueid": "MTK3302:32SVAV9L3GGWY9IRKNEGNZUPMOKA3Q", "dateTime": 1520353829039}, {"current_trial": 44, "trialdata": {"rt": -1, "trial_type": "single-stim", "stimulus": "<p id=\"stim\">10</p>", "internal_node_id": "0.0-35.0-0.0", "time_elapsed": 298853, "key_press": -1, "trial_index": 44}, "uniqueid": "MTK3302:32SVAV9L3GGWY9IRKNEGNZUPMOKA3Q", "dateTime": 1520353832042}, {"current_trial": 45, "trialdata": {"rt": -1, "trial_type": "single-stim", "stimulus": "<p id=\"stim\">9</p>", "internal_node_id": "0.0-35.0-1.0", "time_elapsed": 299854, "key_press": -1, "trial_index": 45}, "uniqueid": "MTK3302:32SVAV9L3GGWY9IRKNEGNZUPMOKA3Q", "dateTime": 1520353833043}, {"current_trial": 46, "trialdata": {"rt": -1, "trial_type": "single-stim", "stimulus": "<p id=\"stim\">8</p>", "internal_node_id": "0.0-35.0-2.0", "time_elapsed": 300856, "key_press": -1, "trial_index": 46}, "uniqueid": "MTK3302:32SVAV9L3GGWY9IRKNEGNZUPMOKA3Q", "dateTime": 1520353834045}, {"current_trial": 47, "trialdata": {"rt": -1, "trial_type": "single-stim", "stimulus": "<p id=\"stim\">7</p>", "internal_node_id": "0.0-35.0-3.0", "time_elapsed": 301857, "key_press": -1, "trial_index": 47}, "uniqueid": "MTK3302:32SVAV9L3GGWY9IRKNEGNZUPMOKA3Q", "dateTime": 1520353835046}, {"current_trial": 48, "trialdata": {"rt": -1, "trial_type": "single-stim", "stimulus": "<p id=\"stim\">6</p>", "internal_node_id": "0.0-35.0-4.0", "time_elapsed": 302859, "key_press": -1, "trial_index": 48}, "uniqueid": "MTK3302:32SVAV9L3GGWY9IRKNEGNZUPMOKA3Q", "dateTime": 1520353836048}, {"current_trial": 49, "trialdata": {"rt": -1, "trial_type": "single-stim", "stimulus": "<p id=\"stim\">5</p>", "internal_node_id": "0.0-35.0-5.0", "time_elapsed": 303860, "key_press": -1, "trial_index": 49}, "uniqueid": "MTK3302:32SVAV9L3GGWY9IRKNEGNZUPMOKA3Q", "dateTime": 1520353837049}, {"current_trial": 50, "trialdata": {"rt": -1, "trial_type": "single-stim", "stimulus": "<p id=\"stim\">4</p>", "internal_node_id": "0.0-35.0-6.0", "time_elapsed": 304861, "key_press": -1, "trial_index": 50}, "uniqueid": "MTK3302:32SVAV9L3GGWY9IRKNEGNZUPMOKA3Q", "dateTime": 1520353838050}, {"current_trial": 51, "trialdata": {"rt": -1, "trial_type": "single-stim", "stimulus": "<p id=\"stim\">3</p>", "internal_node_id": "0.0-35.0-7.0", "time_elapsed": 305863, "key_press": -1, "trial_index": 51}, "uniqueid": "MTK3302:32SVAV9L3GGWY9IRKNEGNZUPMOKA3Q", "dateTime": 1520353839052}, {"current_trial": 52, "trialdata": {"rt": -1, "trial_type": "single-stim", "stimulus": "<p id=\"stim\">2</p>", "internal_node_id": "0.0-35.0-8.0", "time_elapsed": 306864, "key_press": -1, "trial_index": 52}, "uniqueid": "MTK3302:32SVAV9L3GGWY9IRKNEGNZUPMOKA3Q", "dateTime": 1520353840053}, {"current_trial": 53, "trialdata": {"rt": -1, "trial_type": "single-stim", "stimulus": "<p id=\"stim\">1</p>", "internal_node_id": "0.0-35.0-9.0", "time_elapsed": 307866, "key_press": -1, "trial_index": 53}, "uniqueid": "MTK3302:32SVAV9L3GGWY9IRKNEGNZUPMOKA3Q", "dateTime": 1520353841055}, {"current_trial": 54, "trialdata": {"rt": -1, "trial_type": "single-stim", "stimulus": "<p id=\"stim\">+</p>", "internal_node_id": "0.0-36.0-0.0", "time_elapsed": 309367, "key_press": -1, "type": "FIXATION", "trial_index": 54}, "uniqueid": "MTK3302:32SVAV9L3GGWY9IRKNEGNZUPMOKA3Q", "dateTime": 1520353842556}, {"current_trial": 55, "trialdata": {"rt": -1, "trial_type": "single-stim", "word": "report", "stimulus": "<p id=\"stim\">REPORT</p>", "conditions": [18, 1200, "v", 18000], "internal_node_id": "0.0-37.0", "trial": 1, "time_elapsed": 310568, "serialpos": 0, "key_press": -1, "wordID": 1183, "type": "PRES_VIS", "trial_index": 55}, "uniqueid": "MTK3302:32SVAV9L3GGWY9IRKNEGNZUPMOKA3Q", "dateTime": 1520353843757}, {"current_trial": 56, "trialdata": {"rt": -1, "trial_type": "single-stim", "word": "award", "stimulus": "<p id=\"stim\">AWARD</p>", "conditions": [18, 1200, "v", 18000], "internal_node_id": "0.0-38.0", "trial": 1, "time_elapsed": 312678, "serialpos": 1, "key_press": -1, "wordID": 62, "type": "PRES_VIS", "trial_index": 56}, "uniqueid": "MTK3302:32SVAV9L3GGWY9IRKNEGNZUPMOKA3Q", "dateTime": 1520353845868}, {"current_trial": 57, "trialdata": {"rt": -1, "trial_type": "single-stim", "word": "machine", "stimulus": "<p id=\"stim\">MACHINE</p>", "conditions": [18, 1200, "v", 18000], "internal_node_id": "0.0-39.0", "trial": 1, "time_elapsed": 315077, "serialpos": 2, "key_press": -1, "wordID": 851, "type": "PRES_VIS", "trial_index": 57}, "uniqueid": "MTK3302:32SVAV9L3GGWY9IRKNEGNZUPMOKA3Q", "dateTime": 1520353848266}, {"current_trial": 58, "trialdata": {"rt": -1, "trial_type": "single-stim", "word": "hawk", "stimulus": "<p id=\"stim\">HAWK</p>", "conditions": [18, 1200, "v", 18000], "internal_node_id": "0.0-40.0", "trial": 1, "time_elapsed": 317425, "serialpos": 3, "key_press": -1, "wordID": 691, "type": "PRES_VIS", "trial_index": 58}, "uniqueid": "MTK3302:32SVAV9L3GGWY9IRKNEGNZUPMOKA3Q", "dateTime": 1520353850614}, {"current_trial": 59, "trialdata": {"rt": -1, "trial_type": "single-stim", "word": "rocket", "stimulus": "<p id=\"stim\">ROCKET</p>", "conditions": [18, 1200, "v", 18000], "internal_node_id": "0.0-41.0", "trial": 1, "time_elapsed": 319456, "serialpos": 4, "key_press": -1, "wordID": 1201, "type": "PRES_VIS", "trial_index": 59}, "uniqueid": "MTK3302:32SVAV9L3GGWY9IRKNEGNZUPMOKA3Q", "dateTime": 1520353852646}, {"current_trial": 60, "trialdata": {"rt": -1, "trial_type": "single-stim", "word": "venus", "stimulus": "<p id=\"stim\">VENUS</p>", "conditions": [18, 1200, "v", 18000], "internal_node_id": "0.0-42.0", "trial": 1, "time_elapsed": 321548, "serialpos": 5, "key_press": -1, "wordID": 1556, "type": "PRES_VIS", "trial_index": 60}, "uniqueid": "MTK3302:32SVAV9L3GGWY9IRKNEGNZUPMOKA3Q", "dateTime": 1520353854737}, {"current_trial": 61, "trialdata": {"rt": -1, "trial_type": "single-stim", "word": "boyfriend", "stimulus": "<p id=\"stim\">BOYFRIEND</p>", "conditions": [18, 1200, "v", 18000], "internal_node_id": "0.0-43.0", "trial": 1, "time_elapsed": 323650, "serialpos": 6, "key_press": -1, "wordID": 161, "type": "PRES_VIS", "trial_index": 61}, "uniqueid": "MTK3302:32SVAV9L3GGWY9IRKNEGNZUPMOKA3Q", "dateTime": 1520353856839}, {"current_trial": 62, "trialdata": {"rt": -1, "trial_type": "single-stim", "word": "driver", "stimulus": "<p id=\"stim\">DRIVER</p>", "conditions": [18, 1200, "v", 18000], "internal_node_id": "0.0-44.0", "trial": 1, "time_elapsed": 325959, "serialpos": 7, "key_press": -1, "wordID": 498, "type": "PRES_VIS", "trial_index": 62}, "uniqueid": "MTK3302:32SVAV9L3GGWY9IRKNEGNZUPMOKA3Q", "dateTime": 1520353859149}, {"current_trial": 63, "trialdata": {"rt": -1, "trial_type": "single-stim", "word": "jungle", "stimulus": "<p id=\"stim\">JUNGLE</p>", "conditions": [18, 1200, "v", 18000], "internal_node_id": "0.0-45.0", "trial": 1, "time_elapsed": 328183, "serialpos": 8, "key_press": -1, "wordID": 763, "type": "PRES_VIS", "trial_index": 63}, "uniqueid": "MTK3302:32SVAV9L3GGWY9IRKNEGNZUPMOKA3Q", "dateTime": 1520353861372}, {"current_trial": 64, "trialdata": {"rt": -1, "trial_type": "single-stim", "word": "tuba", "stimulus": "<p id=\"stim\">TUBA</p>", "conditions": [18, 1200, "v", 18000], "internal_node_id": "0.0-46.0", "trial": 1, "time_elapsed": 330361, "serialpos": 9, "key_press": -1, "wordID": 1514, "type": "PRES_VIS", "trial_index": 64}, "uniqueid": "MTK3302:32SVAV9L3GGWY9IRKNEGNZUPMOKA3Q", "dateTime": 1520353863550}, {"current_trial": 65, "trialdata": {"rt": -1, "trial_type": "single-stim", "word": "star", "stimulus": "<p id=\"stim\">STAR</p>", "conditions": [18, 1200, "v", 18000], "internal_node_id": "0.0-47.0", "trial": 1, "time_elapsed": 332415, "serialpos": 10, "key_press": -1, "wordID": 1372, "type": "PRES_VIS", "trial_index": 65}, "uniqueid": "MTK3302:32SVAV9L3GGWY9IRKNEGNZUPMOKA3Q", "dateTime": 1520353865604}, {"current_trial": 66, "trialdata": {"rt": -1, "trial_type": "single-stim", "word": "flipper", "stimulus": "<p id=\"stim\">FLIPPER</p>", "conditions": [18, 1200, "v", 18000], "internal_node_id": "0.0-48.0", "trial": 1, "time_elapsed": 334550, "serialpos": 11, "key_press": -1, "wordID": 579, "type": "PRES_VIS", "trial_index": 66}, "uniqueid": "MTK3302:32SVAV9L3GGWY9IRKNEGNZUPMOKA3Q", "dateTime": 1520353867739}, {"current_trial": 67, "trialdata": {"rt": -1, "trial_type": "single-stim", "word": "puddle", "stimulus": "<p id=\"stim\">PUDDLE</p>", "conditions": [18, 1200, "v", 18000], "internal_node_id": "0.0-49.0", "trial": 1, "time_elapsed": 336728, "serialpos": 12, "key_press": -1, "wordID": 1139, "type": "PRES_VIS", "trial_index": 67}, "uniqueid": "MTK3302:32SVAV9L3GGWY9IRKNEGNZUPMOKA3Q", "dateTime": 1520353869917}, {"current_trial": 68, "trialdata": {"rt": -1, "trial_type": "single-stim", "word": "muffin", "stimulus": "<p id=\"stim\">MUFFIN</p>", "conditions": [18, 1200, "v", 18000], "internal_node_id": "0.0-50.0", "trial": 1, "time_elapsed": 339094, "serialpos": 13, "key_press": -1, "wordID": 928, "type": "PRES_VIS", "trial_index": 68}, "uniqueid": "MTK3302:32SVAV9L3GGWY9IRKNEGNZUPMOKA3Q", "dateTime": 1520353872284}, {"current_trial": 69, "trialdata": {"rt": -1, "trial_type": "single-stim", "word": "shorts", "stimulus": "<p id=\"stim\">SHORTS</p>", "conditions": [18, 1200, "v", 18000], "internal_node_id": "0.0-51.0", "trial": 1, "time_elapsed": 341200, "serialpos": 14, "key_press": -1, "wordID": 1292, "type": "PRES_VIS", "trial_index": 69}, "uniqueid": "MTK3302:32SVAV9L3GGWY9IRKNEGNZUPMOKA3Q", "dateTime": 1520353874390}, {"current_trial": 70, "trialdata": {"rt": -1, "trial_type": "single-stim", "word": "lodge", "stimulus": "<p id=\"stim\">LODGE</p>", "conditions": [18, 1200, "v", 18000], "internal_node_id": "0.0-52.0", "trial": 1, "time_elapsed": 343228, "serialpos": 15, "key_press": -1, "wordID": 838, "type": "PRES_VIS", "trial_index": 70}, "uniqueid": "MTK3302:32SVAV9L3GGWY9IRKNEGNZUPMOKA3Q", "dateTime": 1520353876417}, {"current_trial": 71, "trialdata": {"rt": -1, "trial_type": "single-stim", "word": "crevice", "stimulus": "<p id=\"stim\">CREVICE</p>", "conditions": [18, 1200, "v", 18000], "internal_node_id": "0.0-53.0", "trial": 1, "time_elapsed": 345381, "serialpos": 16, "key_press": -1, "wordID": 404, "type": "PRES_VIS", "trial_index": 71}, "uniqueid": "MTK3302:32SVAV9L3GGWY9IRKNEGNZUPMOKA3Q", "dateTime": 1520353878570}, {"current_trial": 72, "trialdata": {"rt": -1, "trial_type": "single-stim", "word": "cottage", "stimulus": "<p id=\"stim\">COTTAGE</p>", "conditions": [18, 1200, "v", 18000], "internal_node_id": "0.0-54.0", "trial": 1, "time_elapsed": 347717, "serialpos": 17, "key_press": -1, "wordID": 383, "type": "PRES_VIS", "trial_index": 72}, "uniqueid": "MTK3302:32SVAV9L3GGWY9IRKNEGNZUPMOKA3Q", "dateTime": 1520353880906}, {"current_trial": 73, "trialdata": {"rt": -1, "trial_type": "single-stim", "stimulus": "", "internal_node_id": "0.0-55.0-0.0", "time_elapsed": 349950, "key_press": -1, "type": "PRE_RECALL_DELAY", "trial_index": 73}, "uniqueid": "MTK3302:32SVAV9L3GGWY9IRKNEGNZUPMOKA3Q", "dateTime": 1520353883140}, {"current_trial": 74, "trialdata": {"rt": -1000, "trial_type": "single-audio", "stimulus": "/static/audio/400Hz.wav", "internal_node_id": "0.0-56.0", "time_elapsed": 350452, "key_press": -1, "type": "PRE_RECALL_ALERT", "trial_index": 74}, "uniqueid": "MTK3302:32SVAV9L3GGWY9IRKNEGNZUPMOKA3Q", "dateTime": 1520353883642}, {"current_trial": 75, "trialdata": {"rt": [1476, 5157, 6590, 8190, 9668, 21798, 27773], "recwords": ["cottage", "crevice", "puddle", "star", "driver", "hawk", "award"], "key_times": [369, 550, 664, 853, 1052, 1202, 1325, 1476, 2208, 2754, 3051, 3282, 3400, 3646, 3805, 3908, 4313, 4659, 4784, 4864, 5028, 5157, 5787, 5967, 6077, 6222, 6340, 6504, 6590, 7331, 7466, 7567, 7701, 8190, 8990, 9139, 9262, 9315, 9465, 9577, 9668, 21268, 21413, 21547, 21659, 21798, 26528, 26662, 27280, 27480, 27653, 27773], "trial_type": "free-recall", "conditions": [18, 1200, "v", 18000], "internal_node_id": "0.0-57.0-0.0", "key_presses": [67, 79, 84, 84, 65, 71, 69, 13, 67, 82, 86, 73, 67, 8, 8, 8, 69, 86, 73, 67, 69, 13, 80, 85, 68, 68, 76, 69, 13, 83, 84, 65, 82, 13, 68, 82, 73, 86, 69, 82, 13, 72, 65, 87, 75, 13, 65, 87, 65, 82, 68, 13], "trial": 1, "time_elapsed": 410455, "type": "FREE_RECALL", "trial_index": 75}, "uniqueid": "MTK3302:32SVAV9L3GGWY9IRKNEGNZUPMOKA3Q", "dateTime": 1520353943644}, {"current_trial": 76, "trialdata": {"rt": 3475, "trial_type": "text", "internal_node_id": "0.0-58.0", "time_elapsed": 415932, "key_press": 74, "type": "INSTRUCTIONS", "trial_index": 76}, "uniqueid": "MTK3302:32SVAV9L3GGWY9IRKNEGNZUPMOKA3Q", "dateTime": 1520353949121}, {"current_trial": 77, "trialdata": {"rt": [3078, 5572, 7447, 9001, 10242, 13014, 14307, 16258, 18312, 20453, 22383], "trial_type": "math-distractor", "key_times": [2390, 2908, 3078, 5332, 5428, 5572, 7189, 7275, 7447, 8728, 8920, 9001, 9934, 10025, 10242, 12624, 12828, 13014, 14041, 14212, 14307, 15985, 16166, 16258, 18049, 18146, 18312, 20244, 20351, 20453, 22226, 22383], "responses": ["22", "23", "10", "15", "10", "18", "11", "12", "20", "23", "8"], "num2": [5, 7, 2, 3, 4, 4, 1, 4, 7, 7, 4, 2], "num3": [9, 9, 7, 5, 5, 9, 7, 6, 9, 8, 3, 6], "conditions": [12, 1600, "v", 24000], "internal_node_id": "0.0-59.0", "key_presses": [50, 50, 13, 50, 51, 13, 49, 48, 13, 49, 53, 13, 49, 48, 13, 49, 56, 13, 49, 49, 13, 49, 50, 13, 50, 48, 13, 50, 51, 13, 56, 13], "trial": 2, "time_elapsed": 440935, "type": "DISTRACTOR", "trial_index": 77, "num1": [8, 7, 1, 7, 1, 5, 3, 2, 4, 8, 1, 7]}, "uniqueid": "MTK3302:32SVAV9L3GGWY9IRKNEGNZUPMOKA3Q", "dateTime": 1520353974124}, {"current_trial": 78, "trialdata": {"rt": -1, "trial_type": "single-stim", "stimulus": "<p id=\"stim\">10</p>", "internal_node_id": "0.0-60.0-0.0", "time_elapsed": 443937, "key_press": -1, "trial_index": 78}, "uniqueid": "MTK3302:32SVAV9L3GGWY9IRKNEGNZUPMOKA3Q", "dateTime": 1520353977126}, {"current_trial": 79, "trialdata": {"rt": -1, "trial_type": "single-stim", "stimulus": "<p id=\"stim\">9</p>", "internal_node_id": "0.0-60.0-1.0", "time_elapsed": 444938, "key_press": -1, "trial_index": 79}, "uniqueid": "MTK3302:32SVAV9L3GGWY9IRKNEGNZUPMOKA3Q", "dateTime": 1520353978127}, {"current_trial": 80, "trialdata": {"rt": -1, "trial_type": "single-stim", "stimulus": "<p id=\"stim\">8</p>", "internal_node_id": "0.0-60.0-2.0", "time_elapsed": 445939, "key_press": -1, "trial_index": 80}, "uniqueid": "MTK3302:32SVAV9L3GGWY9IRKNEGNZUPMOKA3Q", "dateTime": 1520353979128}, {"current_trial": 81, "trialdata": {"rt": -1, "trial_type": "single-stim", "stimulus": "<p id=\"stim\">7</p>", "internal_node_id": "0.0-60.0-3.0", "time_elapsed": 446940, "key_press": -1, "trial_index": 81}, "uniqueid": "MTK3302:32SVAV9L3GGWY9IRKNEGNZUPMOKA3Q", "dateTime": 1520353980129}, {"current_trial": 82, "trialdata": {"rt": -1, "trial_type": "single-stim", "stimulus": "<p id=\"stim\">6</p>", "internal_node_id": "0.0-60.0-4.0", "time_elapsed": 447941, "key_press": -1, "trial_index": 82}, "uniqueid": "MTK3302:32SVAV9L3GGWY9IRKNEGNZUPMOKA3Q", "dateTime": 1520353981130}, {"current_trial": 83, "trialdata": {"rt": -1, "trial_type": "single-stim", "stimulus": "<p id=\"stim\">5</p>", "internal_node_id": "0.0-60.0-5.0", "time_elapsed": 448942, "key_press": -1, "trial_index": 83}, "uniqueid": "MTK3302:32SVAV9L3GGWY9IRKNEGNZUPMOKA3Q", "dateTime": 1520353982131}, {"current_trial": 84, "trialdata": {"rt": -1, "trial_type": "single-stim", "stimulus": "<p id=\"stim\">4</p>", "internal_node_id": "0.0-60.0-6.0", "time_elapsed": 449943, "key_press": -1, "trial_index": 84}, "uniqueid": "MTK3302:32SVAV9L3GGWY9IRKNEGNZUPMOKA3Q", "dateTime": 1520353983132}, {"current_trial": 85, "trialdata": {"rt": -1, "trial_type": "single-stim", "stimulus": "<p id=\"stim\">3</p>", "internal_node_id": "0.0-60.0-7.0", "time_elapsed": 450945, "key_press": -1, "trial_index": 85}, "uniqueid": "MTK3302:32SVAV9L3GGWY9IRKNEGNZUPMOKA3Q", "dateTime": 1520353984134}, {"current_trial": 86, "trialdata": {"rt": -1, "trial_type": "single-stim", "stimulus": "<p id=\"stim\">2</p>", "internal_node_id": "0.0-60.0-8.0", "time_elapsed": 451947, "key_press": -1, "trial_index": 86}, "uniqueid": "MTK3302:32SVAV9L3GGWY9IRKNEGNZUPMOKA3Q", "dateTime": 1520353985136}, {"current_trial": 87, "trialdata": {"rt": -1, "trial_type": "single-stim", "stimulus": "<p id=\"stim\">1</p>", "internal_node_id": "0.0-60.0-9.0", "time_elapsed": 452949, "key_press": -1, "trial_index": 87}, "uniqueid": "MTK3302:32SVAV9L3GGWY9IRKNEGNZUPMOKA3Q", "dateTime": 1520353986138}, {"current_trial": 88, "trialdata": {"rt": -1, "trial_type": "single-stim", "stimulus": "<p id=\"stim\">+</p>", "internal_node_id": "0.0-61.0-0.0", "time_elapsed": 454451, "key_press": -1, "type": "FIXATION", "trial_index": 88}, "uniqueid": "MTK3302:32SVAV9L3GGWY9IRKNEGNZUPMOKA3Q", "dateTime": 1520353987640}, {"current_trial": 89, "trialdata": {"rt": -1, "trial_type": "single-stim", "word": "nightgown", "stimulus": "<p id=\"stim\">NIGHTGOWN</p>", "conditions": [12, 1600, "v", 24000], "internal_node_id": "0.0-62.0", "trial": 2, "time_elapsed": 456052, "serialpos": 0, "key_press": -1, "wordID": 952, "type": "PRES_VIS", "trial_index": 89}, "uniqueid": "MTK3302:32SVAV9L3GGWY9IRKNEGNZUPMOKA3Q", "dateTime": 1520353989241}, {"current_trial": 90, "trialdata": {"rt": -1, "trial_type": "single-stim", "word": "match", "stimulus": "<p id=\"stim\">MATCH</p>", "conditions": [12, 1600, "v", 24000], "internal_node_id": "0.0-63.0", "trial": 2, "time_elapsed": 458566, "serialpos": 1, "key_press": -1, "wordID": 877, "type": "PRES_VIS", "trial_index": 90}, "uniqueid": "MTK3302:32SVAV9L3GGWY9IRKNEGNZUPMOKA3Q", "dateTime": 1520353991755}, {"current_trial": 91, "trialdata": {"rt": -1, "trial_type": "single-stim", "word": "couch", "stimulus": "<p id=\"stim\">COUCH</p>", "conditions": [12, 1600, "v", 24000], "internal_node_id": "0.0-64.0", "trial": 2, "time_elapsed": 461079, "serialpos": 2, "key_press": -1, "wordID": 385, "type": "PRES_VIS", "trial_index": 91}, "uniqueid": "MTK3302:32SVAV9L3GGWY9IRKNEGNZUPMOKA3Q", "dateTime": 1520353994268}, {"current_trial": 92, "trialdata": {"rt": -1, "trial_type": "single-stim", "word": "saddle", "stimulus": "<p id=\"stim\">SADDLE</p>", "conditions": [12, 1600, "v", 24000], "internal_node_id": "0.0-65.0", "trial": 2, "time_elapsed": 463622, "serialpos": 3, "key_press": -1, "wordID": 1220, "type": "PRES_VIS", "trial_index": 92}, "uniqueid": "MTK3302:32SVAV9L3GGWY9IRKNEGNZUPMOKA3Q", "dateTime": 1520353996811}, {"current_trial": 93, "trialdata": {"rt": -1, "trial_type": "single-stim", "word": "rabbit", "stimulus": "<p id=\"stim\">RABBIT</p>", "conditions": [12, 1600, "v", 24000], "internal_node_id": "0.0-66.0", "trial": 2, "time_elapsed": 466160, "serialpos": 4, "key_press": -1, "wordID": 1151, "type": "PRES_VIS", "trial_index": 93}, "uniqueid": "MTK3302:32SVAV9L3GGWY9IRKNEGNZUPMOKA3Q", "dateTime": 1520353999349}, {"current_trial": 94, "trialdata": {"rt": -1, "trial_type": "single-stim", "word": "powder", "stimulus": "<p id=\"stim\">POWDER</p>", "conditions": [12, 1600, "v", 24000], "internal_node_id": "0.0-67.0", "trial": 2, "time_elapsed": 468705, "serialpos": 5, "key_press": -1, "wordID": 1116, "type": "PRES_VIS", "trial_index": 94}, "uniqueid": "MTK3302:32SVAV9L3GGWY9IRKNEGNZUPMOKA3Q", "dateTime": 1520354001894}, {"current_trial": 95, "trialdata": {"rt": -1, "trial_type": "single-stim", "word": "scotch", "stimulus": "<p id=\"stim\">SCOTCH</p>", "conditions": [12, 1600, "v", 24000], "internal_node_id": "0.0-68.0", "trial": 2, "time_elapsed": 471455, "serialpos": 6, "key_press": -1, "wordID": 1250, "type": "PRES_VIS", "trial_index": 95}, "uniqueid": "MTK3302:32SVAV9L3GGWY9IRKNEGNZUPMOKA3Q", "dateTime": 1520354004644}, {"current_trial": 96, "trialdata": {"rt": -1, "trial_type": "single-stim", "word": "brandy", "stimulus": "<p id=\"stim\">BRANDY</p>", "conditions": [12, 1600, "v", 24000], "internal_node_id": "0.0-69.0", "trial": 2, "time_elapsed": 473893, "serialpos": 7, "key_press": -1, "wordID": 168, "type": "PRES_VIS", "trial_index": 96}, "uniqueid": "MTK3302:32SVAV9L3GGWY9IRKNEGNZUPMOKA3Q", "dateTime": 1520354007082}, {"current_trial": 97, "trialdata": {"rt": -1, "trial_type": "single-stim", "word": "beaver", "stimulus": "<p id=\"stim\">BEAVER</p>", "conditions": [12, 1600, "v", 24000], "internal_node_id": "0.0-70.0", "trial": 2, "time_elapsed": 476648, "serialpos": 8, "key_press": -1, "wordID": 108, "type": "PRES_VIS", "trial_index": 97}, "uniqueid": "MTK3302:32SVAV9L3GGWY9IRKNEGNZUPMOKA3Q", "dateTime": 1520354009837}, {"current_trial": 98, "trialdata": {"rt": -1, "trial_type": "single-stim", "word": "tile", "stimulus": "<p id=\"stim\">TILE</p>", "conditions": [12, 1600, "v", 24000], "internal_node_id": "0.0-71.0", "trial": 2, "time_elapsed": 479325, "serialpos": 9, "key_press": -1, "wordID": 1467, "type": "PRES_VIS", "trial_index": 98}, "uniqueid": "MTK3302:32SVAV9L3GGWY9IRKNEGNZUPMOKA3Q", "dateTime": 1520354012514}, {"current_trial": 99, "trialdata": {"rt": -1, "trial_type": "single-stim", "word": "possum", "stimulus": "<p id=\"stim\">POSSUM</p>", "conditions": [12, 1600, "v", 24000], "internal_node_id": "0.0-72.0", "trial": 2, "time_elapsed": 481789, "serialpos": 10, "key_press": -1, "wordID": 1111, "type": "PRES_VIS", "trial_index": 99}, "uniqueid": "MTK3302:32SVAV9L3GGWY9IRKNEGNZUPMOKA3Q", "dateTime": 1520354014978}, {"current_trial": 100, "trialdata": {"rt": -1, "trial_type": "single-stim", "word": "sculpture", "stimulus": "<p id=\"stim\">SCULPTURE</p>", "conditions": [12, 1600, "v", 24000], "internal_node_id": "0.0-73.0", "trial": 2, "time_elapsed": 484407, "serialpos": 11, "key_press": -1, "wordID": 1257, "type": "PRES_VIS", "trial_index": 100}, "uniqueid": "MTK3302:32SVAV9L3GGWY9IRKNEGNZUPMOKA3Q", "dateTime": 1520354017596}, {"current_trial": 101, "trialdata": {"rt": -1, "trial_type": "single-stim", "stimulus": "", "internal_node_id": "0.0-74.0-0.0", "time_elapsed": 486752, "key_press": -1, "type": "PRE_RECALL_DELAY", "trial_index": 101}, "uniqueid": "MTK3302:32SVAV9L3GGWY9IRKNEGNZUPMOKA3Q", "dateTime": 1520354019942}, {"current_trial": 102, "trialdata": {"rt": -1000, "trial_type": "single-audio", "stimulus": "/static/audio/400Hz.wav", "internal_node_id": "0.0-75.0", "time_elapsed": 487253, "key_press": -1, "type": "PRE_RECALL_ALERT", "trial_index": 102}, "uniqueid": "MTK3302:32SVAV9L3GGWY9IRKNEGNZUPMOKA3Q", "dateTime": 1520354020442}, {"current_trial": 103, "trialdata": {"rt": [2273, 3325, 4140, 5641, 6812, 10332, 14875, 20518], "recwords": ["nightgown", "match", "tile", "scotch", "brandy", "possum", "saddle", "couch"], "key_times": [830, 920, 1017, 1131, 1194, 1871, 1995, 2076, 2139, 2273, 2731, 2800, 2886, 3095, 3192, 3325, 3540, 3688, 3925, 4039, 4140, 4527, 4879, 5022, 5153, 5386, 5461, 5641, 5906, 6082, 6103, 6279, 6468, 6629, 6812, 7246, 7353, 7534, 7720, 8270, 8615, 10332, 14101, 14229, 14469, 14615, 14700, 14838, 14875, 19883, 20087, 20222, 20357, 20427, 20518], "trial_type": "free-recall", "conditions": [12, 1600, "v", 24000], "internal_node_id": "0.0-76.0-0.0", "key_presses": [78, 73, 71, 72, 84, 71, 79, 87, 78, 13, 77, 65, 84, 67, 72, 13, 84, 73, 76, 69, 13, 83, 67, 79, 84, 67, 72, 13, 66, 82, 65, 78, 68, 89, 13, 80, 79, 83, 83, 85, 77, 13, 83, 65, 68, 68, 76, 69, 13, 67, 79, 85, 67, 72, 13], "trial": 2, "time_elapsed": 547256, "type": "FREE_RECALL", "trial_index": 103}, "uniqueid": "MTK3302:32SVAV9L3GGWY9IRKNEGNZUPMOKA3Q", "dateTime": 1520354080447}, {"current_trial": 104, "trialdata": {"rt": 1688, "trial_type": "text", "internal_node_id": "0.0-77.0", "time_elapsed": 550948, "key_press": 68, "type": "INSTRUCTIONS", "trial_index": 104}, "uniqueid": "MTK3302:32SVAV9L3GGWY9IRKNEGNZUPMOKA3Q", "dateTime": 1520354084137}, {"current_trial": 105, "trialdata": {"rt": [2091, 3944, 5792, 8141, 9835, 11974, 13836, 15537, 17814, 19955, 22267, 23714], "trial_type": "math-distractor", "key_times": [1704, 1968, 2091, 3747, 3859, 3944, 5483, 5663, 5792, 7832, 8002, 8141, 9543, 9722, 9835, 11675, 11824, 11974, 13518, 13739, 13836, 15219, 15388, 15537, 17660, 17814, 19651, 19731, 19955, 21953, 22139, 22267, 23469, 23602, 23714], "responses": ["17", "14", "25", "12", "11", "16", "16", "11", "9", "20", "12", "12"], "num2": [8, 4, 9, 6, 2, 2, 7, 7, 2, 5, 1, 2, 2], "num3": [7, 7, 7, 1, 6, 9, 2, 1, 2, 9, 8, 8, 2], "conditions": [24, 1600, "v", 24000], "internal_node_id": "0.0-78.0", "key_presses": [49, 55, 13, 49, 52, 13, 50, 53, 13, 49, 50, 13, 49, 49, 13, 49, 54, 13, 49, 54, 13, 49, 49, 13, 57, 13, 50, 48, 13, 49, 50, 13, 49, 50, 13], "trial": 3, "time_elapsed": 576951, "type": "DISTRACTOR", "trial_index": 105, "num1": [2, 3, 9, 5, 3, 5, 7, 3, 5, 6, 3, 2, 1]}, "uniqueid": "MTK3302:32SVAV9L3GGWY9IRKNEGNZUPMOKA3Q", "dateTime": 1520354110140}, {"current_trial": 106, "trialdata": {"rt": -1, "trial_type": "single-stim", "stimulus": "<p id=\"stim\">10</p>", "internal_node_id": "0.0-79.0-0.0", "time_elapsed": 579953, "key_press": -1, "trial_index": 106}, "uniqueid": "MTK3302:32SVAV9L3GGWY9IRKNEGNZUPMOKA3Q", "dateTime": 1520354113142}, {"current_trial": 107, "trialdata": {"rt": -1, "trial_type": "single-stim", "stimulus": "<p id=\"stim\">9</p>", "internal_node_id": "0.0-79.0-1.0", "time_elapsed": 580955, "key_press": -1, "trial_index": 107}, "uniqueid": "MTK3302:32SVAV9L3GGWY9IRKNEGNZUPMOKA3Q", "dateTime": 1520354114144}, {"current_trial": 108, "trialdata": {"rt": -1, "trial_type": "single-stim", "stimulus": "<p id=\"stim\">8</p>", "internal_node_id": "0.0-79.0-2.0", "time_elapsed": 581957, "key_press": -1, "trial_index": 108}, "uniqueid": "MTK3302:32SVAV9L3GGWY9IRKNEGNZUPMOKA3Q", "dateTime": 1520354115146}, {"current_trial": 109, "trialdata": {"rt": -1, "trial_type": "single-stim", "stimulus": "<p id=\"stim\">7</p>", "internal_node_id": "0.0-79.0-3.0", "time_elapsed": 582958, "key_press": -1, "trial_index": 109}, "uniqueid": "MTK3302:32SVAV9L3GGWY9IRKNEGNZUPMOKA3Q", "dateTime": 1520354116147}, {"current_trial": 110, "trialdata": {"rt": -1, "trial_type": "single-stim", "stimulus": "<p id=\"stim\">6</p>", "internal_node_id": "0.0-79.0-4.0", "time_elapsed": 583960, "key_press": -1, "trial_index": 110}, "uniqueid": "MTK3302:32SVAV9L3GGWY9IRKNEGNZUPMOKA3Q", "dateTime": 1520354117149}, {"current_trial": 111, "trialdata": {"rt": -1, "trial_type": "single-stim", "stimulus": "<p id=\"stim\">5</p>", "internal_node_id": "0.0-79.0-5.0", "time_elapsed": 584961, "key_press": -1, "trial_index": 111}, "uniqueid": "MTK3302:32SVAV9L3GGWY9IRKNEGNZUPMOKA3Q", "dateTime": 1520354118150}, {"current_trial": 112, "trialdata": {"rt": -1, "trial_type": "single-stim", "stimulus": "<p id=\"stim\">4</p>", "internal_node_id": "0.0-79.0-6.0", "time_elapsed": 585963, "key_press": -1, "trial_index": 112}, "uniqueid": "MTK3302:32SVAV9L3GGWY9IRKNEGNZUPMOKA3Q", "dateTime": 1520354119152}, {"current_trial": 113, "trialdata": {"rt": -1, "trial_type": "single-stim", "stimulus": "<p id=\"stim\">3</p>", "internal_node_id": "0.0-79.0-7.0", "time_elapsed": 586965, "key_press": -1, "trial_index": 113}, "uniqueid": "MTK3302:32SVAV9L3GGWY9IRKNEGNZUPMOKA3Q", "dateTime": 1520354120154}, {"current_trial": 114, "trialdata": {"rt": -1, "trial_type": "single-stim", "stimulus": "<p id=\"stim\">2</p>", "internal_node_id": "0.0-79.0-8.0", "time_elapsed": 587967, "key_press": -1, "trial_index": 114}, "uniqueid": "MTK3302:32SVAV9L3GGWY9IRKNEGNZUPMOKA3Q", "dateTime": 1520354121156}, {"current_trial": 115, "trialdata": {"rt": -1, "trial_type": "single-stim", "stimulus": "<p id=\"stim\">1</p>", "internal_node_id": "0.0-79.0-9.0", "time_elapsed": 588967, "key_press": -1, "trial_index": 115}, "uniqueid": "MTK3302:32SVAV9L3GGWY9IRKNEGNZUPMOKA3Q", "dateTime": 1520354122156}, {"current_trial": 116, "trialdata": {"rt": -1, "trial_type": "single-stim", "stimulus": "<p id=\"stim\">+</p>", "internal_node_id": "0.0-80.0-0.0", "time_elapsed": 590469, "key_press": -1, "type": "FIXATION", "trial_index": 116}, "uniqueid": "MTK3302:32SVAV9L3GGWY9IRKNEGNZUPMOKA3Q", "dateTime": 1520354123658}, {"current_trial": 117, "trialdata": {"rt": -1, "trial_type": "single-stim", "word": "washer", "stimulus": "<p id=\"stim\">WASHER</p>", "conditions": [24, 1600, "v", 24000], "internal_node_id": "0.0-81.0", "trial": 3, "time_elapsed": 592071, "serialpos": 0, "key_press": -1, "wordID": 1591, "type": "PRES_VIS", "trial_index": 117}, "uniqueid": "MTK3302:32SVAV9L3GGWY9IRKNEGNZUPMOKA3Q", "dateTime": 1520354125260}, {"current_trial": 118, "trialdata": {"rt": -1, "trial_type": "single-stim", "word": "arm", "stimulus": "<p id=\"stim\">ARM</p>", "conditions": [24, 1600, "v", 24000], "internal_node_id": "0.0-82.0", "trial": 3, "time_elapsed": 594814, "serialpos": 1, "key_press": -1, "wordID": 37, "type": "PRES_VIS", "trial_index": 118}, "uniqueid": "MTK3302:32SVAV9L3GGWY9IRKNEGNZUPMOKA3Q", "dateTime": 1520354128003}, {"current_trial": 119, "trialdata": {"rt": -1, "trial_type": "single-stim", "word": "dorm", "stimulus": "<p id=\"stim\">DORM</p>", "conditions": [24, 1600, "v", 24000], "internal_node_id": "0.0-83.0", "trial": 3, "time_elapsed": 597303, "serialpos": 2, "key_press": -1, "wordID": 487, "type": "PRES_VIS", "trial_index": 119}, "uniqueid": "MTK3302:32SVAV9L3GGWY9IRKNEGNZUPMOKA3Q", "dateTime": 1520354130493}, {"current_trial": 120, "trialdata": {"rt": -1, "trial_type": "single-stim", "word": "drill", "stimulus": "<p id=\"stim\">DRILL</p>", "conditions": [24, 1600, "v", 24000], "internal_node_id": "0.0-84.0", "trial": 3, "time_elapsed": 599981, "serialpos": 3, "key_press": -1, "wordID": 496, "type": "PRES_VIS", "trial_index": 120}, "uniqueid": "MTK3302:32SVAV9L3GGWY9IRKNEGNZUPMOKA3Q", "dateTime": 1520354133170}, {"current_trial": 121, "trialdata": {"rt": -1, "trial_type": "single-stim", "word": "police", "stimulus": "<p id=\"stim\">POLICE</p>", "conditions": [24, 1600, "v", 24000], "internal_node_id": "0.0-85.0", "trial": 3, "time_elapsed": 602581, "serialpos": 4, "key_press": -1, "wordID": 1097, "type": "PRES_VIS", "trial_index": 121}, "uniqueid": "MTK3302:32SVAV9L3GGWY9IRKNEGNZUPMOKA3Q", "dateTime": 1520354135770}, {"current_trial": 122, "trialdata": {"rt": -1, "trial_type": "single-stim", "word": "breast", "stimulus": "<p id=\"stim\">BREAST</p>", "conditions": [24, 1600, "v", 24000], "internal_node_id": "0.0-86.0", "trial": 3, "time_elapsed": 605176, "serialpos": 5, "key_press": -1, "wordID": 170, "type": "PRES_VIS", "trial_index": 122}, "uniqueid": "MTK3302:32SVAV9L3GGWY9IRKNEGNZUPMOKA3Q", "dateTime": 1520354138365}, {"current_trial": 123, "trialdata": {"rt": -1, "trial_type": "single-stim", "word": "baby", "stimulus": "<p id=\"stim\">BABY</p>", "conditions": [24, 1600, "v", 24000], "internal_node_id": "0.0-87.0", "trial": 3, "time_elapsed": 607709, "serialpos": 6, "key_press": -1, "wordID": 63, "type": "PRES_VIS", "trial_index": 123}, "uniqueid": "MTK3302:32SVAV9L3GGWY9IRKNEGNZUPMOKA3Q", "dateTime": 1520354140898}, {"current_trial": 124, "trialdata": {"rt": -1, "trial_type": "single-stim", "word": "crib", "stimulus": "<p id=\"stim\">CRIB</p>", "conditions": [24, 1600, "v", 24000], "internal_node_id": "0.0-88.0", "trial": 3, "time_elapsed": 610361, "serialpos": 7, "key_press": -1, "wordID": 406, "type": "PRES_VIS", "trial_index": 124}, "uniqueid": "MTK3302:32SVAV9L3GGWY9IRKNEGNZUPMOKA3Q", "dateTime": 1520354143550}, {"current_trial": 125, "trialdata": {"rt": -1, "trial_type": "single-stim", "word": "student", "stimulus": "<p id=\"stim\">STUDENT</p>", "conditions": [24, 1600, "v", 24000], "internal_node_id": "0.0-89.0", "trial": 3, "time_elapsed": 612766, "serialpos": 8, "key_press": -1, "wordID": 1394, "type": "PRES_VIS", "trial_index": 125}, "uniqueid": "MTK3302:32SVAV9L3GGWY9IRKNEGNZUPMOKA3Q", "dateTime": 1520354145955}, {"current_trial": 126, "trialdata": {"rt": -1, "trial_type": "single-stim", "word": "cashew", "stimulus": "<p id=\"stim\">CASHEW</p>", "conditions": [24, 1600, "v", 24000], "internal_node_id": "0.0-90.0", "trial": 3, "time_elapsed": 615186, "serialpos": 9, "key_press": -1, "wordID": 252, "type": "PRES_VIS", "trial_index": 126}, "uniqueid": "MTK3302:32SVAV9L3GGWY9IRKNEGNZUPMOKA3Q", "dateTime": 1520354148375}, {"current_trial": 127, "trialdata": {"rt": -1, "trial_type": "single-stim", "word": "bug", "stimulus": "<p id=\"stim\">BUG</p>", "conditions": [24, 1600, "v", 24000], "internal_node_id": "0.0-91.0", "trial": 3, "time_elapsed": 617601, "serialpos": 10, "key_press": -1, "wordID": 186, "type": "PRES_VIS", "trial_index": 127}, "uniqueid": "MTK3302:32SVAV9L3GGWY9IRKNEGNZUPMOKA3Q", "dateTime": 1520354150790}, {"current_trial": 128, "trialdata": {"rt": -1, "trial_type": "single-stim", "word": "orchid", "stimulus": "<p id=\"stim\">ORCHID</p>", "conditions": [24, 1600, "v", 24000], "internal_node_id": "0.0-92.0", "trial": 3, "time_elapsed": 620317, "serialpos": 11, "key_press": -1, "wordID": 981, "type": "PRES_VIS", "trial_index": 128}, "uniqueid": "MTK3302:32SVAV9L3GGWY9IRKNEGNZUPMOKA3Q", "dateTime": 1520354153506}, {"current_trial": 129, "trialdata": {"rt": -1, "trial_type": "single-stim", "word": "marker", "stimulus": "<p id=\"stim\">MARKER</p>", "conditions": [24, 1600, "v", 24000], "internal_node_id": "0.0-93.0", "trial": 3, "time_elapsed": 622933, "serialpos": 12, "key_press": -1, "wordID": 869, "type": "PRES_VIS", "trial_index": 129}, "uniqueid": "MTK3302:32SVAV9L3GGWY9IRKNEGNZUPMOKA3Q", "dateTime": 1520354156123}, {"current_trial": 130, "trialdata": {"rt": -1, "trial_type": "single-stim", "word": "omelet", "stimulus": "<p id=\"stim\">OMELET</p>", "conditions": [24, 1600, "v", 24000], "internal_node_id": "0.0-94.0", "trial": 3, "time_elapsed": 625680, "serialpos": 13, "key_press": -1, "wordID": 975, "type": "PRES_VIS", "trial_index": 130}, "uniqueid": "MTK3302:32SVAV9L3GGWY9IRKNEGNZUPMOKA3Q", "dateTime": 1520354158869}, {"current_trial": 131, "trialdata": {"rt": -1, "trial_type": "single-stim", "word": "custard", "stimulus": "<p id=\"stim\">CUSTARD</p>", "conditions": [24, 1600, "v", 24000], "internal_node_id": "0.0-95.0", "trial": 3, "time_elapsed": 628094, "serialpos": 14, "key_press": -1, "wordID": 428, "type": "PRES_VIS", "trial_index": 131}, "uniqueid": "MTK3302:32SVAV9L3GGWY9IRKNEGNZUPMOKA3Q", "dateTime": 1520354161283}, {"current_trial": 132, "trialdata": {"rt": -1, "trial_type": "single-stim", "word": "flute", "stimulus": "<p id=\"stim\">FLUTE</p>", "conditions": [24, 1600, "v", 24000], "internal_node_id": "0.0-96.0", "trial": 3, "time_elapsed": 630635, "serialpos": 15, "key_press": -1, "wordID": 584, "type": "PRES_VIS", "trial_index": 132}, "uniqueid": "MTK3302:32SVAV9L3GGWY9IRKNEGNZUPMOKA3Q", "dateTime": 1520354163824}, {"current_trial": 133, "trialdata": {"rt": -1, "trial_type": "single-stim", "word": "jello", "stimulus": "<p id=\"stim\">JELLO</p>", "conditions": [24, 1600, "v", 24000], "internal_node_id": "0.0-97.0", "trial": 3, "time_elapsed": 633415, "serialpos": 16, "key_press": -1, "wordID": 753, "type": "PRES_VIS", "trial_index": 133}, "uniqueid": "MTK3302:32SVAV9L3GGWY9IRKNEGNZUPMOKA3Q", "dateTime": 1520354166604}, {"current_trial": 134, "trialdata": {"rt": -1, "trial_type": "single-stim", "word": "spouse", "stimulus": "<p id=\"stim\">SPOUSE</p>", "conditions": [24, 1600, "v", 24000], "internal_node_id": "0.0-98.0", "trial": 3, "time_elapsed": 635920, "serialpos": 17, "key_press": -1, "wordID": 1357, "type": "PRES_VIS", "trial_index": 134}, "uniqueid": "MTK3302:32SVAV9L3GGWY9IRKNEGNZUPMOKA3Q", "dateTime": 1520354169109}, {"current_trial": 135, "trialdata": {"rt": -1, "trial_type": "single-stim", "word": "scarecrow", "stimulus": "<p id=\"stim\">SCARECROW</p>", "conditions": [24, 1600, "v", 24000], "internal_node_id": "0.0-99.0", "trial": 3, "time_elapsed": 638657, "serialpos": 18, "key_press": -1, "wordID": 1244, "type": "PRES_VIS", "trial_index": 135}, "uniqueid": "MTK3302:32SVAV9L3GGWY9IRKNEGNZUPMOKA3Q", "dateTime": 1520354171846}, {"current_trial": 136, "trialdata": {"rt": -1, "trial_type": "single-stim", "word": "butcher", "stimulus": "<p id=\"stim\">BUTCHER</p>", "conditions": [24, 1600, "v", 24000], "internal_node_id": "0.0-100.0", "trial": 3, "time_elapsed": 641173, "serialpos": 19, "key_press": -1, "wordID": 202, "type": "PRES_VIS", "trial_index": 136}, "uniqueid": "MTK3302:32SVAV9L3GGWY9IRKNEGNZUPMOKA3Q", "dateTime": 1520354174363}, {"current_trial": 137, "trialdata": {"rt": -1, "trial_type": "single-stim", "word": "partner", "stimulus": "<p id=\"stim\">PARTNER</p>", "conditions": [24, 1600, "v", 24000], "internal_node_id": "0.0-101.0", "trial": 3, "time_elapsed": 643801, "serialpos": 20, "key_press": -1, "wordID": 1016, "type": "PRES_VIS", "trial_index": 137}, "uniqueid": "MTK3302:32SVAV9L3GGWY9IRKNEGNZUPMOKA3Q", "dateTime": 1520354176991}, {"current_trial": 138, "trialdata": {"rt": -1, "trial_type": "single-stim", "word": "patrol", "stimulus": "<p id=\"stim\">PATROL</p>", "conditions": [24, 1600, "v", 24000], "internal_node_id": "0.0-102.0", "trial": 3, "time_elapsed": 646388, "serialpos": 21, "key_press": -1, "wordID": 1026, "type": "PRES_VIS", "trial_index": 138}, "uniqueid": "MTK3302:32SVAV9L3GGWY9IRKNEGNZUPMOKA3Q", "dateTime": 1520354179577}, {"current_trial": 139, "trialdata": {"rt": -1, "trial_type": "single-stim", "word": "window", "stimulus": "<p id=\"stim\">WINDOW</p>", "conditions": [24, 1600, "v", 24000], "internal_node_id": "0.0-103.0", "trial": 3, "time_elapsed": 649076, "serialpos": 22, "key_press": -1, "wordID": 1610, "type": "PRES_VIS", "trial_index": 139}, "uniqueid": "MTK3302:32SVAV9L3GGWY9IRKNEGNZUPMOKA3Q", "dateTime": 1520354182265}, {"current_trial": 140, "trialdata": {"rt": -1, "trial_type": "single-stim", "word": "jelly", "stimulus": "<p id=\"stim\">JELLY</p>", "conditions": [24, 1600, "v", 24000], "internal_node_id": "0.0-104.0", "trial": 3, "time_elapsed": 651587, "serialpos": 23, "key_press": -1, "wordID": 754, "type": "PRES_VIS", "trial_index": 140}, "uniqueid": "MTK3302:32SVAV9L3GGWY9IRKNEGNZUPMOKA3Q", "dateTime": 1520354184776}, {"current_trial": 141, "trialdata": {"rt": -1, "trial_type": "single-stim", "stimulus": "", "internal_node_id": "0.0-105.0-0.0", "time_elapsed": 653644, "key_press": -1, "type": "PRE_RECALL_DELAY", "trial_index": 141}, "uniqueid": "MTK3302:32SVAV9L3GGWY9IRKNEGNZUPMOKA3Q", "dateTime": 1520354186834}, {"current_trial": 142, "trialdata": {"rt": -1000, "trial_type": "single-audio", "stimulus": "/static/audio/400Hz.wav", "internal_node_id": "0.0-106.0", "time_elapsed": 654147, "key_press": -1, "type": "PRE_RECALL_ALERT", "trial_index": 142}, "uniqueid": "MTK3302:32SVAV9L3GGWY9IRKNEGNZUPMOKA3Q", "dateTime": 1520354187336}, {"current_trial": 143, "trialdata": {"rt": [1327, 2553, 3918, 5204, 6430, 9425, 11562, 12718, 17537, 19322, 24275, 35550, 37882, 51481], "recwords": ["washer", "student", "breast", "jelly", "jello", "police", "baby", "crib", "washer", "arm", "butcher", "orchid", "custard", "omelet"], "key_times": [534, 661, 768, 948, 1050, 1162, 1327, 1648, 1805, 1969, 2012, 2195, 2302, 2431, 2553, 3135, 3178, 3259, 3350, 3515, 3702, 3918, 4577, 4681, 4824, 4960, 5067, 5204, 5715, 5811, 5949, 6091, 6244, 6430, 8430, 8596, 8808, 9032, 9112, 9296, 9425, 10804, 11109, 11279, 11413, 11562, 12069, 12259, 12398, 12533, 12718, 16531, 16649, 16777, 16981, 17119, 17231, 17537, 18830, 19001, 19098, 19322, 23329, 23503, 23536, 23748, 23861, 23962, 24085, 24275, 34610, 34663, 34866, 34963, 35043, 35241, 35550, 36885, 37052, 37149, 37282, 37422, 37540, 37747, 37882, 50202, 50413, 50519, 50652, 50711, 51354, 51481], "trial_type": "free-recall", "conditions": [24, 1600, "v", 24000], "internal_node_id": "0.0-107.0-0.0", "key_presses": [87, 65, 83, 72, 69, 82, 13, 83, 84, 85, 68, 69, 78, 84, 13, 66, 82, 69, 65, 83, 84, 13, 74, 69, 76, 76, 89, 13, 74, 69, 76, 76, 79, 13, 80, 79, 76, 73, 67, 69, 13, 66, 65, 66, 89, 13, 67, 82, 73, 66, 13, 87, 65, 83, 72, 69, 82, 13, 65, 82, 77, 13, 66, 85, 84, 67, 72, 69, 82, 13, 79, 82, 67, 72, 73, 68, 13, 67, 85, 83, 84, 65, 82, 68, 13, 79, 77, 69, 76, 69, 84, 13], "trial": 3, "time_elapsed": 714149, "type": "FREE_RECALL", "trial_index": 143}, "uniqueid": "MTK3302:32SVAV9L3GGWY9IRKNEGNZUPMOKA3Q", "dateTime": 1520354247340}, {"current_trial": 144, "trialdata": {"rt": 846, "trial_type": "text", "internal_node_id": "0.0-108.0", "time_elapsed": 716998, "key_press": 74, "type": "INSTRUCTIONS", "trial_index": 144}, "uniqueid": "MTK3302:32SVAV9L3GGWY9IRKNEGNZUPMOKA3Q", "dateTime": 1520354250187}, {"current_trial": 145, "trialdata": {"rt": [2245, 4042, 5530, 7262, 9325, 11149], "trial_type": "math-distractor", "key_times": [2053, 2164, 2245, 3731, 3941, 4042, 5434, 5530, 6861, 7059, 7262, 8902, 9057, 9325, 10818, 10994, 11149], "responses": ["14", "11", "6", "12", "13", "16"], "num2": [6, 3, 2, 2, 4, 3, 7], "num3": [6, 6, 1, 3, 5, 7, 5], "conditions": [24, 1600, "v", 12000], "internal_node_id": "0.0-109.0", "key_presses": [49, 52, 13, 49, 49, 13, 54, 13, 49, 50, 13, 49, 51, 13, 49, 54, 13], "trial": 4, "time_elapsed": 731000, "type": "DISTRACTOR", "trial_index": 145, "num1": [2, 2, 3, 7, 4, 6, 9]}, "uniqueid": "MTK3302:32SVAV9L3GGWY9IRKNEGNZUPMOKA3Q", "dateTime": 1520354264189}, {"current_trial": 146, "trialdata": {"rt": -1, "trial_type": "single-stim", "stimulus": "<p id=\"stim\">10</p>", "internal_node_id": "0.0-110.0-0.0", "time_elapsed": 734002, "key_press": -1, "trial_index": 146}, "uniqueid": "MTK3302:32SVAV9L3GGWY9IRKNEGNZUPMOKA3Q", "dateTime": 1520354267192}, {"current_trial": 147, "trialdata": {"rt": -1, "trial_type": "single-stim", "stimulus": "<p id=\"stim\">9</p>", "internal_node_id": "0.0-110.0-1.0", "time_elapsed": 735003, "key_press": -1, "trial_index": 147}, "uniqueid": "MTK3302:32SVAV9L3GGWY9IRKNEGNZUPMOKA3Q", "dateTime": 1520354268192}, {"current_trial": 148, "trialdata": {"rt": -1, "trial_type": "single-stim", "stimulus": "<p id=\"stim\">8</p>", "internal_node_id": "0.0-110.0-2.0", "time_elapsed": 736005, "key_press": -1, "trial_index": 148}, "uniqueid": "MTK3302:32SVAV9L3GGWY9IRKNEGNZUPMOKA3Q", "dateTime": 1520354269194}, {"current_trial": 149, "trialdata": {"rt": -1, "trial_type": "single-stim", "stimulus": "<p id=\"stim\">7</p>", "internal_node_id": "0.0-110.0-3.0", "time_elapsed": 737006, "key_press": -1, "trial_index": 149}, "uniqueid": "MTK3302:32SVAV9L3GGWY9IRKNEGNZUPMOKA3Q", "dateTime": 1520354270195}, {"current_trial": 150, "trialdata": {"rt": -1, "trial_type": "single-stim", "stimulus": "<p id=\"stim\">6</p>", "internal_node_id": "0.0-110.0-4.0", "time_elapsed": 738008, "key_press": -1, "trial_index": 150}, "uniqueid": "MTK3302:32SVAV9L3GGWY9IRKNEGNZUPMOKA3Q", "dateTime": 1520354271197}, {"current_trial": 151, "trialdata": {"rt": -1, "trial_type": "single-stim", "stimulus": "<p id=\"stim\">5</p>", "internal_node_id": "0.0-110.0-5.0", "time_elapsed": 739008, "key_press": -1, "trial_index": 151}, "uniqueid": "MTK3302:32SVAV9L3GGWY9IRKNEGNZUPMOKA3Q", "dateTime": 1520354272197}, {"current_trial": 152, "trialdata": {"rt": -1, "trial_type": "single-stim", "stimulus": "<p id=\"stim\">4</p>", "internal_node_id": "0.0-110.0-6.0", "time_elapsed": 740011, "key_press": -1, "trial_index": 152}, "uniqueid": "MTK3302:32SVAV9L3GGWY9IRKNEGNZUPMOKA3Q", "dateTime": 1520354273200}, {"current_trial": 153, "trialdata": {"rt": -1, "trial_type": "single-stim", "stimulus": "<p id=\"stim\">3</p>", "internal_node_id": "0.0-110.0-7.0", "time_elapsed": 741011, "key_press": -1, "trial_index": 153}, "uniqueid": "MTK3302:32SVAV9L3GGWY9IRKNEGNZUPMOKA3Q", "dateTime": 1520354274200}, {"current_trial": 154, "trialdata": {"rt": -1, "trial_type": "single-stim", "stimulus": "<p id=\"stim\">2</p>", "internal_node_id": "0.0-110.0-8.0", "time_elapsed": 742013, "key_press": -1, "trial_index": 154}, "uniqueid": "MTK3302:32SVAV9L3GGWY9IRKNEGNZUPMOKA3Q", "dateTime": 1520354275202}, {"current_trial": 155, "trialdata": {"rt": -1, "trial_type": "single-stim", "stimulus": "<p id=\"stim\">1</p>", "internal_node_id": "0.0-110.0-9.0", "time_elapsed": 743015, "key_press": -1, "trial_index": 155}, "uniqueid": "MTK3302:32SVAV9L3GGWY9IRKNEGNZUPMOKA3Q", "dateTime": 1520354276204}, {"current_trial": 156, "trialdata": {"rt": -1, "trial_type": "single-stim", "stimulus": "<p id=\"stim\">+</p>", "internal_node_id": "0.0-111.0-0.0", "time_elapsed": 744517, "key_press": -1, "type": "FIXATION", "trial_index": 156}, "uniqueid": "MTK3302:32SVAV9L3GGWY9IRKNEGNZUPMOKA3Q", "dateTime": 1520354277706}, {"current_trial": 157, "trialdata": {"rt": -1, "trial_type": "single-stim", "word": "box", "stimulus": "<p id=\"stim\">BOX</p>", "conditions": [24, 1600, "v", 12000], "internal_node_id": "0.0-112.0", "trial": 4, "time_elapsed": 746119, "serialpos": 0, "key_press": -1, "wordID": 158, "type": "PRES_VIS", "trial_index": 157}, "uniqueid": "MTK3302:32SVAV9L3GGWY9IRKNEGNZUPMOKA3Q", "dateTime": 1520354279308}, {"current_trial": 158, "trialdata": {"rt": -1, "trial_type": "single-stim", "word": "briefcase", "stimulus": "<p id=\"stim\">BRIEFCASE</p>", "conditions": [24, 1600, "v", 12000], "internal_node_id": "0.0-113.0", "trial": 4, "time_elapsed": 748587, "serialpos": 1, "key_press": -1, "wordID": 174, "type": "PRES_VIS", "trial_index": 158}, "uniqueid": "MTK3302:32SVAV9L3GGWY9IRKNEGNZUPMOKA3Q", "dateTime": 1520354281777}, {"current_trial": 159, "trialdata": {"rt": -1, "trial_type": "single-stim", "word": "glove", "stimulus": "<p id=\"stim\">GLOVE</p>", "conditions": [24, 1600, "v", 12000], "internal_node_id": "0.0-114.0", "trial": 4, "time_elapsed": 751008, "serialpos": 2, "key_press": -1, "wordID": 641, "type": "PRES_VIS", "trial_index": 159}, "uniqueid": "MTK3302:32SVAV9L3GGWY9IRKNEGNZUPMOKA3Q", "dateTime": 1520354284197}, {"current_trial": 160, "trialdata": {"rt": -1, "trial_type": "single-stim", "word": "mister", "stimulus": "<p id=\"stim\">MISTER</p>", "conditions": [24, 1600, "v", 12000], "internal_node_id": "0.0-115.0", "trial": 4, "time_elapsed": 753420, "serialpos": 3, "key_press": -1, "wordID": 900, "type": "PRES_VIS", "trial_index": 160}, "uniqueid": "MTK3302:32SVAV9L3GGWY9IRKNEGNZUPMOKA3Q", "dateTime": 1520354286610}, {"current_trial": 161, "trialdata": {"rt": -1, "trial_type": "single-stim", "word": "tourist", "stimulus": "<p id=\"stim\">TOURIST</p>", "conditions": [24, 1600, "v", 12000], "internal_node_id": "0.0-116.0", "trial": 4, "time_elapsed": 755904, "serialpos": 4, "key_press": -1, "wordID": 1487, "type": "PRES_VIS", "trial_index": 161}, "uniqueid": "MTK3302:32SVAV9L3GGWY9IRKNEGNZUPMOKA3Q", "dateTime": 1520354289093}, {"current_trial": 162, "trialdata": {"rt": -1, "trial_type": "single-stim", "word": "pocket", "stimulus": "<p id=\"stim\">POCKET</p>", "conditions": [24, 1600, "v", 12000], "internal_node_id": "0.0-117.0", "trial": 4, "time_elapsed": 758381, "serialpos": 5, "key_press": -1, "wordID": 1092, "type": "PRES_VIS", "trial_index": 162}, "uniqueid": "MTK3302:32SVAV9L3GGWY9IRKNEGNZUPMOKA3Q", "dateTime": 1520354291570}, {"current_trial": 163, "trialdata": {"rt": -1, "trial_type": "single-stim", "word": "marsh", "stimulus": "<p id=\"stim\">MARSH</p>", "conditions": [24, 1600, "v", 12000], "internal_node_id": "0.0-118.0", "trial": 4, "time_elapsed": 760867, "serialpos": 6, "key_press": -1, "wordID": 873, "type": "PRES_VIS", "trial_index": 163}, "uniqueid": "MTK3302:32SVAV9L3GGWY9IRKNEGNZUPMOKA3Q", "dateTime": 1520354294056}, {"current_trial": 164, "trialdata": {"rt": -1, "trial_type": "single-stim", "word": "slime", "stimulus": "<p id=\"stim\">SLIME</p>", "conditions": [24, 1600, "v", 12000], "internal_node_id": "0.0-119.0", "trial": 4, "time_elapsed": 763303, "serialpos": 7, "key_press": -1, "wordID": 1326, "type": "PRES_VIS", "trial_index": 164}, "uniqueid": "MTK3302:32SVAV9L3GGWY9IRKNEGNZUPMOKA3Q", "dateTime": 1520354296492}, {"current_trial": 165, "trialdata": {"rt": -1, "trial_type": "single-stim", "word": "crater", "stimulus": "<p id=\"stim\">CRATER</p>", "conditions": [24, 1600, "v", 12000], "internal_node_id": "0.0-120.0", "trial": 4, "time_elapsed": 765931, "serialpos": 8, "key_press": -1, "wordID": 399, "type": "PRES_VIS", "trial_index": 165}, "uniqueid": "MTK3302:32SVAV9L3GGWY9IRKNEGNZUPMOKA3Q", "dateTime": 1520354299120}, {"current_trial": 166, "trialdata": {"rt": -1, "trial_type": "single-stim", "word": "sunrise", "stimulus": "<p id=\"stim\">SUNRISE</p>", "conditions": [24, 1600, "v", 12000], "internal_node_id": "0.0-121.0", "trial": 4, "time_elapsed": 768405, "serialpos": 9, "key_press": -1, "wordID": 1406, "type": "PRES_VIS", "trial_index": 166}, "uniqueid": "MTK3302:32SVAV9L3GGWY9IRKNEGNZUPMOKA3Q", "dateTime": 1520354301594}, {"current_trial": 167, "trialdata": {"rt": -1, "trial_type": "single-stim", "word": "sunset", "stimulus": "<p id=\"stim\">SUNSET</p>", "conditions": [24, 1600, "v", 12000], "internal_node_id": "0.0-122.0", "trial": 4, "time_elapsed": 770938, "serialpos": 10, "key_press": -1, "wordID": 1407, "type": "PRES_VIS", "trial_index": 167}, "uniqueid": "MTK3302:32SVAV9L3GGWY9IRKNEGNZUPMOKA3Q", "dateTime": 1520354304127}, {"current_trial": 168, "trialdata": {"rt": -1, "trial_type": "single-stim", "word": "outlaw", "stimulus": "<p id=\"stim\">OUTLAW</p>", "conditions": [24, 1600, "v", 12000], "internal_node_id": "0.0-123.0", "trial": 4, "time_elapsed": 773701, "serialpos": 11, "key_press": -1, "wordID": 988, "type": "PRES_VIS", "trial_index": 168}, "uniqueid": "MTK3302:32SVAV9L3GGWY9IRKNEGNZUPMOKA3Q", "dateTime": 1520354306890}, {"current_trial": 169, "trialdata": {"rt": -1, "trial_type": "single-stim", "word": "shoulder", "stimulus": "<p id=\"stim\">SHOULDER</p>", "conditions": [24, 1600, "v", 12000], "internal_node_id": "0.0-124.0", "trial": 4, "time_elapsed": 776189, "serialpos": 12, "key_press": -1, "wordID": 1293, "type": "PRES_VIS", "trial_index": 169}, "uniqueid": "MTK3302:32SVAV9L3GGWY9IRKNEGNZUPMOKA3Q", "dateTime": 1520354309379}, {"current_trial": 170, "trialdata": {"rt": -1, "trial_type": "single-stim", "word": "notebook", "stimulus": "<p id=\"stim\">NOTEBOOK</p>", "conditions": [24, 1600, "v", 12000], "internal_node_id": "0.0-125.0", "trial": 4, "time_elapsed": 778748, "serialpos": 13, "key_press": -1, "wordID": 958, "type": "PRES_VIS", "trial_index": 170}, "uniqueid": "MTK3302:32SVAV9L3GGWY9IRKNEGNZUPMOKA3Q", "dateTime": 1520354311937}, {"current_trial": 171, "trialdata": {"rt": -1, "trial_type": "single-stim", "word": "drink", "stimulus": "<p id=\"stim\">DRINK</p>", "conditions": [24, 1600, "v", 12000], "internal_node_id": "0.0-126.0", "trial": 4, "time_elapsed": 781273, "serialpos": 14, "key_press": -1, "wordID": 497, "type": "PRES_VIS", "trial_index": 171}, "uniqueid": "MTK3302:32SVAV9L3GGWY9IRKNEGNZUPMOKA3Q", "dateTime": 1520354314462}, {"current_trial": 172, "trialdata": {"rt": -1, "trial_type": "single-stim", "word": "cocktail", "stimulus": "<p id=\"stim\">COCKTAIL</p>", "conditions": [24, 1600, "v", 12000], "internal_node_id": "0.0-127.0", "trial": 4, "time_elapsed": 783887, "serialpos": 15, "key_press": -1, "wordID": 337, "type": "PRES_VIS", "trial_index": 172}, "uniqueid": "MTK3302:32SVAV9L3GGWY9IRKNEGNZUPMOKA3Q", "dateTime": 1520354317076}, {"current_trial": 173, "trialdata": {"rt": -1, "trial_type": "single-stim", "word": "suitcase", "stimulus": "<p id=\"stim\">SUITCASE</p>", "conditions": [24, 1600, "v", 12000], "internal_node_id": "0.0-128.0", "trial": 4, "time_elapsed": 786370, "serialpos": 16, "key_press": -1, "wordID": 1402, "type": "PRES_VIS", "trial_index": 173}, "uniqueid": "MTK3302:32SVAV9L3GGWY9IRKNEGNZUPMOKA3Q", "dateTime": 1520354319559}, {"current_trial": 174, "trialdata": {"rt": -1, "trial_type": "single-stim", "word": "rattle", "stimulus": "<p id=\"stim\">RATTLE</p>", "conditions": [24, 1600, "v", 12000], "internal_node_id": "0.0-129.0", "trial": 4, "time_elapsed": 788796, "serialpos": 17, "key_press": -1, "wordID": 1169, "type": "PRES_VIS", "trial_index": 174}, "uniqueid": "MTK3302:32SVAV9L3GGWY9IRKNEGNZUPMOKA3Q", "dateTime": 1520354321985}, {"current_trial": 175, "trialdata": {"rt": -1, "trial_type": "single-stim", "word": "freckle", "stimulus": "<p id=\"stim\">FRECKLE</p>", "conditions": [24, 1600, "v", 12000], "internal_node_id": "0.0-130.0", "trial": 4, "time_elapsed": 791322, "serialpos": 18, "key_press": -1, "wordID": 601, "type": "PRES_VIS", "trial_index": 175}, "uniqueid": "MTK3302:32SVAV9L3GGWY9IRKNEGNZUPMOKA3Q", "dateTime": 1520354324512}, {"current_trial": 176, "trialdata": {"rt": -1, "trial_type": "single-stim", "word": "pimple", "stimulus": "<p id=\"stim\">PIMPLE</p>", "conditions": [24, 1600, "v", 12000], "internal_node_id": "0.0-131.0", "trial": 4, "time_elapsed": 793880, "serialpos": 19, "key_press": -1, "wordID": 1070, "type": "PRES_VIS", "trial_index": 176}, "uniqueid": "MTK3302:32SVAV9L3GGWY9IRKNEGNZUPMOKA3Q", "dateTime": 1520354327069}, {"current_trial": 177, "trialdata": {"rt": -1, "trial_type": "single-stim", "word": "wrist", "stimulus": "<p id=\"stim\">WRIST</p>", "conditions": [24, 1600, "v", 12000], "internal_node_id": "0.0-132.0", "trial": 4, "time_elapsed": 796329, "serialpos": 20, "key_press": -1, "wordID": 1625, "type": "PRES_VIS", "trial_index": 177}, "uniqueid": "MTK3302:32SVAV9L3GGWY9IRKNEGNZUPMOKA3Q", "dateTime": 1520354329518}, {"current_trial": 178, "trialdata": {"rt": -1, "trial_type": "single-stim", "word": "tutu", "stimulus": "<p id=\"stim\">TUTU</p>", "conditions": [24, 1600, "v", 12000], "internal_node_id": "0.0-133.0", "trial": 4, "time_elapsed": 799118, "serialpos": 21, "key_press": -1, "wordID": 1523, "type": "PRES_VIS", "trial_index": 178}, "uniqueid": "MTK3302:32SVAV9L3GGWY9IRKNEGNZUPMOKA3Q", "dateTime": 1520354332307}, {"current_trial": 179, "trialdata": {"rt": -1, "trial_type": "single-stim", "word": "victim", "stimulus": "<p id=\"stim\">VICTIM</p>", "conditions": [24, 1600, "v", 12000], "internal_node_id": "0.0-134.0", "trial": 4, "time_elapsed": 801667, "serialpos": 22, "key_press": -1, "wordID": 1561, "type": "PRES_VIS", "trial_index": 179}, "uniqueid": "MTK3302:32SVAV9L3GGWY9IRKNEGNZUPMOKA3Q", "dateTime": 1520354334856}, {"current_trial": 180, "trialdata": {"rt": -1, "trial_type": "single-stim", "word": "ketchup", "stimulus": "<p id=\"stim\">KETCHUP</p>", "conditions": [24, 1600, "v", 12000], "internal_node_id": "0.0-135.0", "trial": 4, "time_elapsed": 804095, "serialpos": 23, "key_press": -1, "wordID": 770, "type": "PRES_VIS", "trial_index": 180}, "uniqueid": "MTK3302:32SVAV9L3GGWY9IRKNEGNZUPMOKA3Q", "dateTime": 1520354337284}, {"current_trial": 181, "trialdata": {"rt": -1, "trial_type": "single-stim", "stimulus": "", "internal_node_id": "0.0-136.0-0.0", "time_elapsed": 806449, "key_press": -1, "type": "PRE_RECALL_DELAY", "trial_index": 181}, "uniqueid": "MTK3302:32SVAV9L3GGWY9IRKNEGNZUPMOKA3Q", "dateTime": 1520354339638}, {"current_trial": 182, "trialdata": {"rt": -1000, "trial_type": "single-audio", "stimulus": "/static/audio/400Hz.wav", "internal_node_id": "0.0-137.0", "time_elapsed": 806950, "key_press": -1, "type": "PRE_RECALL_ALERT", "trial_index": 182}, "uniqueid": "MTK3302:32SVAV9L3GGWY9IRKNEGNZUPMOKA3Q", "dateTime": 1520354340139}, {"current_trial": 183, "trialdata": {"rt": [1605, 3558, 5814, 6683, 8482, 11109, 12585, 15231, 16385, 22355, 27342], "recwords": ["ketchup", "victim", "pimple", "wrist", "box", "briefcase", "glove", "mister", "tourist", "tutu", "ketchup"], "key_times": [601, 675, 788, 1020, 1127, 1312, 1382, 1605, 1924, 2400, 2535, 2699, 2790, 3006, 3269, 3436, 3558, 3798, 4126, 4408, 4552, 4871, 5282, 5498, 5583, 5814, 6058, 6230, 6373, 6426, 6555, 6683, 7974, 8109, 8408, 8482, 8871, 9030, 9203, 9342, 9537, 10040, 10367, 10458, 10608, 10720, 10917, 11109, 11887, 11994, 12169, 12288, 12400, 12585, 13020, 13155, 13294, 13424, 13774, 13917, 14052, 14234, 14383, 14818, 15011, 15086, 15231, 15469, 15616, 15798, 15900, 16053, 16128, 16256, 16385, 21768, 21900, 21953, 22094, 22355, 23016, 23101, 23296, 23521, 23624, 23797, 23915, 24422, 24951, 26681, 26795, 27342], "trial_type": "free-recall", "conditions": [24, 1600, "v", 12000], "internal_node_id": "0.0-138.0-0.0", "key_presses": [75, 69, 84, 67, 72, 85, 80, 13, 66, 8, 86, 73, 67, 84, 73, 77, 13, 80, 73, 77, 80, 69, 8, 76, 69, 13, 87, 82, 73, 83, 84, 13, 66, 79, 88, 13, 66, 82, 73, 69, 70, 86, 8, 67, 65, 83, 69, 13, 71, 76, 79, 86, 69, 13, 77, 83, 73, 84, 8, 8, 8, 73, 83, 84, 69, 82, 13, 84, 79, 85, 82, 73, 83, 84, 13, 84, 85, 84, 85, 13, 75, 69, 84, 67, 72, 85, 80, 8, 8, 85, 80, 13], "trial": 4, "time_elapsed": 866954, "type": "FREE_RECALL", "trial_index": 183}, "uniqueid": "MTK3302:32SVAV9L3GGWY9IRKNEGNZUPMOKA3Q", "dateTime": 1520354400146}, {"current_trial": 184, "trialdata": {"rt": 1018, "trial_type": "text", "internal_node_id": "0.0-139.0", "time_elapsed": 869977, "key_press": 74, "type": "INSTRUCTIONS", "trial_index": 184}, "uniqueid": "MTK3302:32SVAV9L3GGWY9IRKNEGNZUPMOKA3Q", "dateTime": 1520354403166}, {"current_trial": 185, "trialdata": {"rt": [1824, 4713, 6965, 8954, 10734], "trial_type": "math-distractor", "key_times": [1621, 1760, 1824, 4510, 4633, 4713, 6735, 6885, 6965, 8784, 8883, 8954, 10432, 10632, 10734], "responses": ["12", "12", "16", "14", "11"], "num2": [5, 8, 5, 4, 2, 7], "num3": [6, 1, 4, 9, 2, 7], "conditions": [12, 800, "v", 12000], "internal_node_id": "0.0-140.0", "key_presses": [49, 50, 13, 49, 50, 13, 49, 54, 13, 49, 52, 13, 49, 49, 13], "trial": 5, "time_elapsed": 883981, "type": "DISTRACTOR", "trial_index": 185, "num1": [1, 3, 7, 1, 7, 3]}, "uniqueid": "MTK3302:32SVAV9L3GGWY9IRKNEGNZUPMOKA3Q", "dateTime": 1520354417170}, {"current_trial": 186, "trialdata": {"rt": -1, "trial_type": "single-stim", "stimulus": "<p id=\"stim\">10</p>", "internal_node_id": "0.0-141.0-0.0", "time_elapsed": 886983, "key_press": -1, "trial_index": 186}, "uniqueid": "MTK3302:32SVAV9L3GGWY9IRKNEGNZUPMOKA3Q", "dateTime": 1520354420172}, {"current_trial": 187, "trialdata": {"rt": -1, "trial_type": "single-stim", "stimulus": "<p id=\"stim\">9</p>", "internal_node_id": "0.0-141.0-1.0", "time_elapsed": 887985, "key_press": -1, "trial_index": 187}, "uniqueid": "MTK3302:32SVAV9L3GGWY9IRKNEGNZUPMOKA3Q", "dateTime": 1520354421174}, {"current_trial": 188, "trialdata": {"rt": -1, "trial_type": "single-stim", "stimulus": "<p id=\"stim\">8</p>", "internal_node_id": "0.0-141.0-2.0", "time_elapsed": 888986, "key_press": -1, "trial_index": 188}, "uniqueid": "MTK3302:32SVAV9L3GGWY9IRKNEGNZUPMOKA3Q", "dateTime": 1520354422175}, {"current_trial": 189, "trialdata": {"rt": -1, "trial_type": "single-stim", "stimulus": "<p id=\"stim\">7</p>", "internal_node_id": "0.0-141.0-3.0", "time_elapsed": 889988, "key_press": -1, "trial_index": 189}, "uniqueid": "MTK3302:32SVAV9L3GGWY9IRKNEGNZUPMOKA3Q", "dateTime": 1520354423177}, {"current_trial": 190, "trialdata": {"rt": -1, "trial_type": "single-stim", "stimulus": "<p id=\"stim\">6</p>", "internal_node_id": "0.0-141.0-4.0", "time_elapsed": 890990, "key_press": -1, "trial_index": 190}, "uniqueid": "MTK3302:32SVAV9L3GGWY9IRKNEGNZUPMOKA3Q", "dateTime": 1520354424179}, {"current_trial": 191, "trialdata": {"rt": -1, "trial_type": "single-stim", "stimulus": "<p id=\"stim\">5</p>", "internal_node_id": "0.0-141.0-5.0", "time_elapsed": 891991, "key_press": -1, "trial_index": 191}, "uniqueid": "MTK3302:32SVAV9L3GGWY9IRKNEGNZUPMOKA3Q", "dateTime": 1520354425180}, {"current_trial": 192, "trialdata": {"rt": -1, "trial_type": "single-stim", "stimulus": "<p id=\"stim\">4</p>", "internal_node_id": "0.0-141.0-6.0", "time_elapsed": 892993, "key_press": -1, "trial_index": 192}, "uniqueid": "MTK3302:32SVAV9L3GGWY9IRKNEGNZUPMOKA3Q", "dateTime": 1520354426182}, {"current_trial": 193, "trialdata": {"rt": -1, "trial_type": "single-stim", "stimulus": "<p id=\"stim\">3</p>", "internal_node_id": "0.0-141.0-7.0", "time_elapsed": 893993, "key_press": -1, "trial_index": 193}, "uniqueid": "MTK3302:32SVAV9L3GGWY9IRKNEGNZUPMOKA3Q", "dateTime": 1520354427183}, {"current_trial": 194, "trialdata": {"rt": -1, "trial_type": "single-stim", "stimulus": "<p id=\"stim\">2</p>", "internal_node_id": "0.0-141.0-8.0", "time_elapsed": 894994, "key_press": -1, "trial_index": 194}, "uniqueid": "MTK3302:32SVAV9L3GGWY9IRKNEGNZUPMOKA3Q", "dateTime": 1520354428184}, {"current_trial": 195, "trialdata": {"rt": -1, "trial_type": "single-stim", "stimulus": "<p id=\"stim\">1</p>", "internal_node_id": "0.0-141.0-9.0", "time_elapsed": 895996, "key_press": -1, "trial_index": 195}, "uniqueid": "MTK3302:32SVAV9L3GGWY9IRKNEGNZUPMOKA3Q", "dateTime": 1520354429185}, {"current_trial": 196, "trialdata": {"rt": -1, "trial_type": "single-stim", "stimulus": "<p id=\"stim\">+</p>", "internal_node_id": "0.0-142.0-0.0", "time_elapsed": 897498, "key_press": -1, "type": "FIXATION", "trial_index": 196}, "uniqueid": "MTK3302:32SVAV9L3GGWY9IRKNEGNZUPMOKA3Q", "dateTime": 1520354430687}, {"current_trial": 197, "trialdata": {"rt": -1, "trial_type": "single-stim", "word": "camel", "stimulus": "<p id=\"stim\">CAMEL</p>", "conditions": [12, 800, "v", 12000], "internal_node_id": "0.0-143.0", "trial": 5, "time_elapsed": 898299, "serialpos": 0, "key_press": -1, "wordID": 222, "type": "PRES_VIS", "trial_index": 197}, "uniqueid": "MTK3302:32SVAV9L3GGWY9IRKNEGNZUPMOKA3Q", "dateTime": 1520354431488}, {"current_trial": 198, "trialdata": {"rt": -1, "trial_type": "single-stim", "word": "kidney", "stimulus": "<p id=\"stim\">KIDNEY</p>", "conditions": [12, 800, "v", 12000], "internal_node_id": "0.0-144.0", "trial": 5, "time_elapsed": 899923, "serialpos": 1, "key_press": -1, "wordID": 775, "type": "PRES_VIS", "trial_index": 198}, "uniqueid": "MTK3302:32SVAV9L3GGWY9IRKNEGNZUPMOKA3Q", "dateTime": 1520354433112}, {"current_trial": 199, "trialdata": {"rt": -1, "trial_type": "single-stim", "word": "tractor", "stimulus": "<p id=\"stim\">TRACTOR</p>", "conditions": [12, 800, "v", 12000], "internal_node_id": "0.0-145.0", "trial": 5, "time_elapsed": 901867, "serialpos": 2, "key_press": -1, "wordID": 1492, "type": "PRES_VIS", "trial_index": 199}, "uniqueid": "MTK3302:32SVAV9L3GGWY9IRKNEGNZUPMOKA3Q", "dateTime": 1520354435057}, {"current_trial": 200, "trialdata": {"rt": -1, "trial_type": "single-stim", "word": "pork", "stimulus": "<p id=\"stim\">PORK</p>", "conditions": [12, 800, "v", 12000], "internal_node_id": "0.0-146.0", "trial": 5, "time_elapsed": 903746, "serialpos": 3, "key_press": -1, "wordID": 1107, "type": "PRES_VIS", "trial_index": 200}, "uniqueid": "MTK3302:32SVAV9L3GGWY9IRKNEGNZUPMOKA3Q", "dateTime": 1520354436935}, {"current_trial": 201, "trialdata": {"rt": -1, "trial_type": "single-stim", "word": "taxi", "stimulus": "<p id=\"stim\">TAXI</p>", "conditions": [12, 800, "v", 12000], "internal_node_id": "0.0-147.0", "trial": 5, "time_elapsed": 905707, "serialpos": 4, "key_press": -1, "wordID": 1437, "type": "PRES_VIS", "trial_index": 201}, "uniqueid": "MTK3302:32SVAV9L3GGWY9IRKNEGNZUPMOKA3Q", "dateTime": 1520354438896}, {"current_trial": 202, "trialdata": {"rt": -1, "trial_type": "single-stim", "word": "toaster", "stimulus": "<p id=\"stim\">TOASTER</p>", "conditions": [12, 800, "v", 12000], "internal_node_id": "0.0-148.0", "trial": 5, "time_elapsed": 907545, "serialpos": 5, "key_press": -1, "wordID": 1471, "type": "PRES_VIS", "trial_index": 202}, "uniqueid": "MTK3302:32SVAV9L3GGWY9IRKNEGNZUPMOKA3Q", "dateTime": 1520354440734}, {"current_trial": 203, "trialdata": {"rt": -1, "trial_type": "single-stim", "word": "xerox", "stimulus": "<p id=\"stim\">XEROX</p>", "conditions": [12, 800, "v", 12000], "internal_node_id": "0.0-149.0", "trial": 5, "time_elapsed": 909408, "serialpos": 6, "key_press": -1, "wordID": 1627, "type": "PRES_VIS", "trial_index": 203}, "uniqueid": "MTK3302:32SVAV9L3GGWY9IRKNEGNZUPMOKA3Q", "dateTime": 1520354442597}, {"current_trial": 204, "trialdata": {"rt": -1, "trial_type": "single-stim", "word": "plaid", "stimulus": "<p id=\"stim\">PLAID</p>", "conditions": [12, 800, "v", 12000], "internal_node_id": "0.0-150.0", "trial": 5, "time_elapsed": 911093, "serialpos": 7, "key_press": -1, "wordID": 1079, "type": "PRES_VIS", "trial_index": 204}, "uniqueid": "MTK3302:32SVAV9L3GGWY9IRKNEGNZUPMOKA3Q", "dateTime": 1520354444282}, {"current_trial": 205, "trialdata": {"rt": -1, "trial_type": "single-stim", "word": "velvet", "stimulus": "<p id=\"stim\">VELVET</p>", "conditions": [12, 800, "v", 12000], "internal_node_id": "0.0-151.0", "trial": 5, "time_elapsed": 912726, "serialpos": 8, "key_press": -1, "wordID": 1554, "type": "PRES_VIS", "trial_index": 205}, "uniqueid": "MTK3302:32SVAV9L3GGWY9IRKNEGNZUPMOKA3Q", "dateTime": 1520354445915}, {"current_trial": 206, "trialdata": {"rt": -1, "trial_type": "single-stim", "word": "leader", "stimulus": "<p id=\"stim\">LEADER</p>", "conditions": [12, 800, "v", 12000], "internal_node_id": "0.0-152.0", "trial": 5, "time_elapsed": 914620, "serialpos": 9, "key_press": -1, "wordID": 806, "type": "PRES_VIS", "trial_index": 206}, "uniqueid": "MTK3302:32SVAV9L3GGWY9IRKNEGNZUPMOKA3Q", "dateTime": 1520354447809}, {"current_trial": 207, "trialdata": {"rt": -1, "trial_type": "single-stim", "word": "liver", "stimulus": "<p id=\"stim\">LIVER</p>", "conditions": [12, 800, "v", 12000], "internal_node_id": "0.0-153.0", "trial": 5, "time_elapsed": 916564, "serialpos": 10, "key_press": -1, "wordID": 832, "type": "PRES_VIS", "trial_index": 207}, "uniqueid": "MTK3302:32SVAV9L3GGWY9IRKNEGNZUPMOKA3Q", "dateTime": 1520354449753}, {"current_trial": 208, "trialdata": {"rt": -1, "trial_type": "single-stim", "word": "quail", "stimulus": "<p id=\"stim\">QUAIL</p>", "conditions": [12, 800, "v", 12000], "internal_node_id": "0.0-154.0", "trial": 5, "time_elapsed": 918429, "serialpos": 11, "key_press": -1, "wordID": 1146, "type": "PRES_VIS", "trial_index": 208}, "uniqueid": "MTK3302:32SVAV9L3GGWY9IRKNEGNZUPMOKA3Q", "dateTime": 1520354451618}, {"current_trial": 209, "trialdata": {"rt": -1, "trial_type": "single-stim", "stimulus": "", "internal_node_id": "0.0-155.0-0.0", "time_elapsed": 920558, "key_press": -1, "type": "PRE_RECALL_DELAY", "trial_index": 209}, "uniqueid": "MTK3302:32SVAV9L3GGWY9IRKNEGNZUPMOKA3Q", "dateTime": 1520354453747}, {"current_trial": 210, "trialdata": {"rt": -1000, "trial_type": "single-audio", "stimulus": "/static/audio/400Hz.wav", "internal_node_id": "0.0-156.0", "time_elapsed": 921059, "key_press": -1, "type": "PRE_RECALL_ALERT", "trial_index": 210}, "uniqueid": "MTK3302:32SVAV9L3GGWY9IRKNEGNZUPMOKA3Q", "dateTime": 1520354454248}, {"current_trial": 211, "trialdata": {"rt": [3036, 4330, 5434, 7563, 12759, 19896], "recwords": ["quail", "plaid", "liver", "kidney", "xerox", "camel"], "key_times": [716, 817, 930, 1041, 1389, 1551, 1679, 1802, 1933, 2140, 2275, 2571, 2700, 2823, 3036, 3618, 3758, 3881, 4020, 4197, 4330, 4769, 4946, 5026, 5188, 5300, 5434, 6688, 6920, 7039, 7182, 7298, 7383, 7563, 11648, 11843, 11944, 12133, 12533, 12759, 19324, 19398, 19543, 19662, 19737, 19896], "trial_type": "free-recall", "conditions": [12, 800, "v", 12000], "internal_node_id": "0.0-157.0-0.0", "key_presses": [87, 85, 65, 73, 8, 8, 8, 8, 8, 81, 85, 65, 73, 76, 13, 80, 76, 65, 73, 68, 13, 76, 73, 86, 69, 82, 32, 75, 73, 68, 78, 69, 89, 13, 88, 69, 82, 79, 88, 13, 67, 65, 77, 69, 76, 13], "trial": 5, "time_elapsed": 981061, "type": "FREE_RECALL", "trial_index": 211}, "uniqueid": "MTK3302:32SVAV9L3GGWY9IRKNEGNZUPMOKA3Q", "dateTime": 1520354514252}, {"current_trial": 212, "trialdata": {"rt": 1713, "trial_type": "text", "internal_node_id": "0.0-158.0", "time_elapsed": 984777, "key_press": 74, "type": "INSTRUCTIONS", "trial_index": 212}, "uniqueid": "MTK3302:32SVAV9L3GGWY9IRKNEGNZUPMOKA3Q", "dateTime": 1520354517966}, {"current_trial": 213, "trialdata": {"rt": [1658, 4266, 5678, 7770, 9531, 10860, 12741, 15217, 16868, 18280, 20675, 22045], "trial_type": "math-distractor", "key_times": [1478, 1658, 3961, 4159, 4266, 5550, 5678, 7372, 7559, 7770, 9328, 9408, 9531, 10631, 10764, 10860, 12488, 12666, 12741, 14937, 15132, 15217, 16467, 16643, 16868, 18141, 18280, 20409, 20493, 20675, 21880, 22045, 23833, 23977], "responses": ["8", "16", "6", "12", "15", "15", "22", "11", "13", "8", "20", "6"], "num2": [4, 2, 1, 3, 7, 5, 6, 6, 4, 3, 5, 2, 3], "num3": [1, 5, 4, 1, 6, 1, 9, 2, 3, 1, 8, 1, 8], "conditions": [12, 1600, "v", 24000], "internal_node_id": "0.0-159.0", "key_presses": [56, 13, 49, 54, 13, 54, 13, 49, 50, 13, 49, 53, 13, 49, 53, 13, 50, 50, 13, 49, 49, 13, 49, 51, 13, 56, 13, 50, 48, 13, 54, 13, 49, 52], "trial": 6, "time_elapsed": 1010780, "type": "DISTRACTOR", "trial_index": 213, "num1": [3, 9, 1, 8, 2, 9, 7, 3, 6, 4, 7, 3, 3]}, "uniqueid": "MTK3302:32SVAV9L3GGWY9IRKNEGNZUPMOKA3Q", "dateTime": 1520354543970}, {"current_trial": 214, "trialdata": {"rt": -1, "trial_type": "single-stim", "stimulus": "<p id=\"stim\">10</p>", "internal_node_id": "0.0-160.0-0.0", "time_elapsed": 1013783, "key_press": -1, "trial_index": 214}, "uniqueid": "MTK3302:32SVAV9L3GGWY9IRKNEGNZUPMOKA3Q", "dateTime": 1520354546972}, {"current_trial": 215, "trialdata": {"rt": -1, "trial_type": "single-stim", "stimulus": "<p id=\"stim\">9</p>", "internal_node_id": "0.0-160.0-1.0", "time_elapsed": 1014784, "key_press": -1, "trial_index": 215}, "uniqueid": "MTK3302:32SVAV9L3GGWY9IRKNEGNZUPMOKA3Q", "dateTime": 1520354547973}, {"current_trial": 216, "trialdata": {"rt": -1, "trial_type": "single-stim", "stimulus": "<p id=\"stim\">8</p>", "internal_node_id": "0.0-160.0-2.0", "time_elapsed": 1015785, "key_press": -1, "trial_index": 216}, "uniqueid": "MTK3302:32SVAV9L3GGWY9IRKNEGNZUPMOKA3Q", "dateTime": 1520354548974}, {"current_trial": 217, "trialdata": {"rt": -1, "trial_type": "single-stim", "stimulus": "<p id=\"stim\">7</p>", "internal_node_id": "0.0-160.0-3.0", "time_elapsed": 1016787, "key_press": -1, "trial_index": 217}, "uniqueid": "MTK3302:32SVAV9L3GGWY9IRKNEGNZUPMOKA3Q", "dateTime": 1520354549976}, {"current_trial": 218, "trialdata": {"rt": -1, "trial_type": "single-stim", "stimulus": "<p id=\"stim\">6</p>", "internal_node_id": "0.0-160.0-4.0", "time_elapsed": 1017788, "key_press": -1, "trial_index": 218}, "uniqueid": "MTK3302:32SVAV9L3GGWY9IRKNEGNZUPMOKA3Q", "dateTime": 1520354550977}, {"current_trial": 219, "trialdata": {"rt": -1, "trial_type": "single-stim", "stimulus": "<p id=\"stim\">5</p>", "internal_node_id": "0.0-160.0-5.0", "time_elapsed": 1018791, "key_press": -1, "trial_index": 219}, "uniqueid": "MTK3302:32SVAV9L3GGWY9IRKNEGNZUPMOKA3Q", "dateTime": 1520354551981}, {"current_trial": 220, "trialdata": {"rt": -1, "trial_type": "single-stim", "stimulus": "<p id=\"stim\">4</p>", "internal_node_id": "0.0-160.0-6.0", "time_elapsed": 1019794, "key_press": -1, "trial_index": 220}, "uniqueid": "MTK3302:32SVAV9L3GGWY9IRKNEGNZUPMOKA3Q", "dateTime": 1520354552984}, {"current_trial": 221, "trialdata": {"rt": -1, "trial_type": "single-stim", "stimulus": "<p id=\"stim\">3</p>", "internal_node_id": "0.0-160.0-7.0", "time_elapsed": 1020797, "key_press": -1, "trial_index": 221}, "uniqueid": "MTK3302:32SVAV9L3GGWY9IRKNEGNZUPMOKA3Q", "dateTime": 1520354553986}, {"current_trial": 222, "trialdata": {"rt": -1, "trial_type": "single-stim", "stimulus": "<p id=\"stim\">2</p>", "internal_node_id": "0.0-160.0-8.0", "time_elapsed": 1021798, "key_press": -1, "trial_index": 222}, "uniqueid": "MTK3302:32SVAV9L3GGWY9IRKNEGNZUPMOKA3Q", "dateTime": 1520354554987}, {"current_trial": 223, "trialdata": {"rt": -1, "trial_type": "single-stim", "stimulus": "<p id=\"stim\">1</p>", "internal_node_id": "0.0-160.0-9.0", "time_elapsed": 1022799, "key_press": -1, "trial_index": 223}, "uniqueid": "MTK3302:32SVAV9L3GGWY9IRKNEGNZUPMOKA3Q", "dateTime": 1520354555988}, {"current_trial": 224, "trialdata": {"rt": -1, "trial_type": "single-stim", "stimulus": "<p id=\"stim\">+</p>", "internal_node_id": "0.0-161.0-0.0", "time_elapsed": 1024300, "key_press": -1, "type": "FIXATION", "trial_index": 224}, "uniqueid": "MTK3302:32SVAV9L3GGWY9IRKNEGNZUPMOKA3Q", "dateTime": 1520354557489}, {"current_trial": 225, "trialdata": {"rt": -1, "trial_type": "single-stim", "word": "flask", "stimulus": "<p id=\"stim\">FLASK</p>", "conditions": [12, 1600, "v", 24000], "internal_node_id": "0.0-162.0", "trial": 6, "time_elapsed": 1025901, "serialpos": 0, "key_press": -1, "wordID": 575, "type": "PRES_VIS", "trial_index": 225}, "uniqueid": "MTK3302:32SVAV9L3GGWY9IRKNEGNZUPMOKA3Q", "dateTime": 1520354559090}, {"current_trial": 226, "trialdata": {"rt": -1, "trial_type": "single-stim", "word": "sandwich", "stimulus": "<p id=\"stim\">SANDWICH</p>", "conditions": [12, 1600, "v", 24000], "internal_node_id": "0.0-163.0", "trial": 6, "time_elapsed": 1028462, "serialpos": 1, "key_press": -1, "wordID": 1231, "type": "PRES_VIS", "trial_index": 226}, "uniqueid": "MTK3302:32SVAV9L3GGWY9IRKNEGNZUPMOKA3Q", "dateTime": 1520354561651}, {"current_trial": 227, "trialdata": {"rt": -1, "trial_type": "single-stim", "word": "cashier", "stimulus": "<p id=\"stim\">CASHIER</p>", "conditions": [12, 1600, "v", 24000], "internal_node_id": "0.0-164.0", "trial": 6, "time_elapsed": 1031156, "serialpos": 2, "key_press": -1, "wordID": 253, "type": "PRES_VIS", "trial_index": 227}, "uniqueid": "MTK3302:32SVAV9L3GGWY9IRKNEGNZUPMOKA3Q", "dateTime": 1520354564345}, {"current_trial": 228, "trialdata": {"rt": -1, "trial_type": "single-stim", "word": "country", "stimulus": "<p id=\"stim\">COUNTRY</p>", "conditions": [12, 1600, "v", 24000], "internal_node_id": "0.0-165.0", "trial": 6, "time_elapsed": 1033664, "serialpos": 3, "key_press": -1, "wordID": 387, "type": "PRES_VIS", "trial_index": 228}, "uniqueid": "MTK3302:32SVAV9L3GGWY9IRKNEGNZUPMOKA3Q", "dateTime": 1520354566853}, {"current_trial": 229, "trialdata": {"rt": -1, "trial_type": "single-stim", "word": "dancer", "stimulus": "<p id=\"stim\">DANCER</p>", "conditions": [12, 1600, "v", 24000], "internal_node_id": "0.0-166.0", "trial": 6, "time_elapsed": 1036180, "serialpos": 4, "key_press": -1, "wordID": 436, "type": "PRES_VIS", "trial_index": 229}, "uniqueid": "MTK3302:32SVAV9L3GGWY9IRKNEGNZUPMOKA3Q", "dateTime": 1520354569369}, {"current_trial": 230, "trialdata": {"rt": -1, "trial_type": "single-stim", "word": "blockade", "stimulus": "<p id=\"stim\">BLOCKADE</p>", "conditions": [12, 1600, "v", 24000], "internal_node_id": "0.0-167.0", "trial": 6, "time_elapsed": 1038615, "serialpos": 5, "key_press": -1, "wordID": 136, "type": "PRES_VIS", "trial_index": 230}, "uniqueid": "MTK3302:32SVAV9L3GGWY9IRKNEGNZUPMOKA3Q", "dateTime": 1520354571804}, {"current_trial": 231, "trialdata": {"rt": -1, "trial_type": "single-stim", "word": "pastry", "stimulus": "<p id=\"stim\">PASTRY</p>", "conditions": [12, 1600, "v", 24000], "internal_node_id": "0.0-168.0", "trial": 6, "time_elapsed": 1041369, "serialpos": 6, "key_press": -1, "wordID": 1021, "type": "PRES_VIS", "trial_index": 231}, "uniqueid": "MTK3302:32SVAV9L3GGWY9IRKNEGNZUPMOKA3Q", "dateTime": 1520354574558}, {"current_trial": 232, "trialdata": {"rt": -1, "trial_type": "single-stim", "word": "turnip", "stimulus": "<p id=\"stim\">TURNIP</p>", "conditions": [12, 1600, "v", 24000], "internal_node_id": "0.0-169.0", "trial": 6, "time_elapsed": 1043997, "serialpos": 7, "key_press": -1, "wordID": 1520, "type": "PRES_VIS", "trial_index": 232}, "uniqueid": "MTK3302:32SVAV9L3GGWY9IRKNEGNZUPMOKA3Q", "dateTime": 1520354577186}, {"current_trial": 233, "trialdata": {"rt": -1, "trial_type": "single-stim", "word": "cabbage", "stimulus": "<p id=\"stim\">CABBAGE</p>", "conditions": [12, 1600, "v", 24000], "internal_node_id": "0.0-170.0", "trial": 6, "time_elapsed": 1046511, "serialpos": 8, "key_press": -1, "wordID": 209, "type": "PRES_VIS", "trial_index": 233}, "uniqueid": "MTK3302:32SVAV9L3GGWY9IRKNEGNZUPMOKA3Q", "dateTime": 1520354579700}, {"current_trial": 234, "trialdata": {"rt": -1, "trial_type": "single-stim", "word": "rebel", "stimulus": "<p id=\"stim\">REBEL</p>", "conditions": [12, 1600, "v", 24000], "internal_node_id": "0.0-171.0", "trial": 6, "time_elapsed": 1049062, "serialpos": 9, "key_press": -1, "wordID": 1171, "type": "PRES_VIS", "trial_index": 234}, "uniqueid": "MTK3302:32SVAV9L3GGWY9IRKNEGNZUPMOKA3Q", "dateTime": 1520354582251}, {"current_trial": 235, "trialdata": {"rt": -1, "trial_type": "single-stim", "word": "guitar", "stimulus": "<p id=\"stim\">GUITAR</p>", "conditions": [12, 1600, "v", 24000], "internal_node_id": "0.0-172.0", "trial": 6, "time_elapsed": 1051765, "serialpos": 10, "key_press": -1, "wordID": 669, "type": "PRES_VIS", "trial_index": 235}, "uniqueid": "MTK3302:32SVAV9L3GGWY9IRKNEGNZUPMOKA3Q", "dateTime": 1520354584954}, {"current_trial": 236, "trialdata": {"rt": -1, "trial_type": "single-stim", "word": "zipper", "stimulus": "<p id=\"stim\">ZIPPER</p>", "conditions": [12, 1600, "v", 24000], "internal_node_id": "0.0-173.0", "trial": 6, "time_elapsed": 1054206, "serialpos": 11, "key_press": -1, "wordID": 1635, "type": "PRES_VIS", "trial_index": 236}, "uniqueid": "MTK3302:32SVAV9L3GGWY9IRKNEGNZUPMOKA3Q", "dateTime": 1520354587395}, {"current_trial": 237, "trialdata": {"rt": -1, "trial_type": "single-stim", "stimulus": "", "internal_node_id": "0.0-174.0-0.0", "time_elapsed": 1056526, "key_press": -1, "type": "PRE_RECALL_DELAY", "trial_index": 237}, "uniqueid": "MTK3302:32SVAV9L3GGWY9IRKNEGNZUPMOKA3Q", "dateTime": 1520354589715}, {"current_trial": 238, "trialdata": {"rt": -1000, "trial_type": "single-audio", "stimulus": "/static/audio/400Hz.wav", "internal_node_id": "0.0-175.0", "time_elapsed": 1057027, "key_press": -1, "type": "PRE_RECALL_ALERT", "trial_index": 238}, "uniqueid": "MTK3302:32SVAV9L3GGWY9IRKNEGNZUPMOKA3Q", "dateTime": 1520354590216}, {"current_trial": 239, "trialdata": {"rt": [1058, 2406, 4748, 8332, 11333, 13008, 17767, 19909, 23465, 24798, 26932], "recwords": ["zipper", "flask", "sandwich", "cashier", "guitar", "turnip", "cabbage", "blockade", "rebel", "country", "zipper"], "key_times": [360, 491, 639, 796, 882, 962, 1058, 1853, 1979, 2048, 2124, 2278, 2406, 2841, 2975, 3147, 3278, 3702, 3814, 3940, 4372, 4469, 4591, 4748, 5078, 5863, 6039, 6573, 6648, 6803, 6884, 7201, 7354, 7485, 7632, 8053, 8118, 8209, 8332, 9228, 9365, 9482, 9515, 9589, 10087, 10217, 10491, 10676, 10946, 11333, 11999, 12180, 12282, 12409, 12616, 12765, 13008, 16716, 16833, 17027, 17147, 17212, 17421, 17623, 17767, 18786, 18941, 19123, 19232, 19358, 19427, 19625, 19790, 19909, 22758, 22917, 23114, 23256, 23352, 23465, 23964, 24081, 24183, 24408, 24493, 24574, 24642, 24798, 26300, 26391, 26578, 26698, 26767, 26858, 26932], "trial_type": "free-recall", "conditions": [12, 1600, "v", 24000], "internal_node_id": "0.0-176.0-0.0", "key_presses": [90, 73, 80, 80, 69, 82, 13, 70, 76, 65, 83, 75, 13, 83, 65, 78, 68, 87, 73, 83, 8, 67, 72, 13, 84, 8, 8, 67, 65, 72, 83, 8, 8, 83, 72, 73, 69, 82, 13, 71, 85, 73, 65, 84, 8, 8, 84, 65, 82, 13, 84, 85, 82, 78, 73, 80, 13, 67, 65, 66, 66, 65, 71, 69, 13, 66, 76, 79, 67, 75, 65, 68, 69, 13, 82, 69, 66, 69, 76, 13, 67, 79, 85, 78, 84, 82, 89, 13, 90, 73, 80, 80, 69, 82, 13], "trial": 6, "time_elapsed": 1117030, "type": "FREE_RECALL", "trial_index": 239}, "uniqueid": "MTK3302:32SVAV9L3GGWY9IRKNEGNZUPMOKA3Q", "dateTime": 1520354650221}, {"current_trial": 240, "trialdata": {"rt": 2215, "trial_type": "text", "internal_node_id": "0.0-177.0", "time_elapsed": 1121250, "key_press": 74, "type": "INSTRUCTIONS", "trial_index": 240}, "uniqueid": "MTK3302:32SVAV9L3GGWY9IRKNEGNZUPMOKA3Q", "dateTime": 1520354654439}, {"current_trial": 241, "trialdata": {"rt": [1698, 3422, 5102, 7041, 8749, 10904, 13008, 15116, 17106, 18597, 20251, 22241], "trial_type": "math-distractor", "key_times": [1485, 1698, 3347, 3422, 4812, 4952, 5102, 6767, 6842, 7041, 8546, 8615, 8749, 10525, 10715, 10904, 12741, 12875, 13008, 14891, 15013, 15116, 16780, 16965, 17106, 18346, 18415, 18597, 19983, 20116, 20251, 21979, 22049, 22241, 23855, 23984], "responses": ["8", "5", "15", "20", "18", "20", "17", "15", "22", "19", "16", "20"], "num2": [3, 1, 2, 6, 7, 8, 6, 3, 9, 7, 6, 7, 6], "num3": [2, 2, 7, 7, 6, 3, 4, 4, 7, 8, 2, 4, 4], "conditions": [24, 800, "v", 24000], "internal_node_id": "0.0-178.0", "key_presses": [56, 13, 53, 13, 49, 53, 13, 50, 48, 13, 49, 56, 13, 50, 48, 13, 49, 55, 13, 49, 53, 13, 50, 50, 13, 49, 57, 13, 49, 54, 13, 50, 48, 13, 49, 52], "trial": 7, "time_elapsed": 1147256, "type": "DISTRACTOR", "trial_index": 241, "num1": [3, 2, 6, 7, 5, 9, 7, 8, 6, 4, 8, 9, 4]}, "uniqueid": "MTK3302:32SVAV9L3GGWY9IRKNEGNZUPMOKA3Q", "dateTime": 1520354680445}, {"current_trial": 242, "trialdata": {"rt": -1, "trial_type": "single-stim", "stimulus": "<p id=\"stim\">10</p>", "internal_node_id": "0.0-179.0-0.0", "time_elapsed": 1150258, "key_press": -1, "trial_index": 242}, "uniqueid": "MTK3302:32SVAV9L3GGWY9IRKNEGNZUPMOKA3Q", "dateTime": 1520354683447}, {"current_trial": 243, "trialdata": {"rt": -1, "trial_type": "single-stim", "stimulus": "<p id=\"stim\">9</p>", "internal_node_id": "0.0-179.0-1.0", "time_elapsed": 1151259, "key_press": -1, "trial_index": 243}, "uniqueid": "MTK3302:32SVAV9L3GGWY9IRKNEGNZUPMOKA3Q", "dateTime": 1520354684448}, {"current_trial": 244, "trialdata": {"rt": -1, "trial_type": "single-stim", "stimulus": "<p id=\"stim\">8</p>", "internal_node_id": "0.0-179.0-2.0", "time_elapsed": 1152261, "key_press": -1, "trial_index": 244}, "uniqueid": "MTK3302:32SVAV9L3GGWY9IRKNEGNZUPMOKA3Q", "dateTime": 1520354685450}, {"current_trial": 245, "trialdata": {"rt": -1, "trial_type": "single-stim", "stimulus": "<p id=\"stim\">7</p>", "internal_node_id": "0.0-179.0-3.0", "time_elapsed": 1153262, "key_press": -1, "trial_index": 245}, "uniqueid": "MTK3302:32SVAV9L3GGWY9IRKNEGNZUPMOKA3Q", "dateTime": 1520354686451}, {"current_trial": 246, "trialdata": {"rt": -1, "trial_type": "single-stim", "stimulus": "<p id=\"stim\">6</p>", "internal_node_id": "0.0-179.0-4.0", "time_elapsed": 1154263, "key_press": -1, "trial_index": 246}, "uniqueid": "MTK3302:32SVAV9L3GGWY9IRKNEGNZUPMOKA3Q", "dateTime": 1520354687452}, {"current_trial": 247, "trialdata": {"rt": -1, "trial_type": "single-stim", "