{"assignmentId": "37QW5D2ZRHTMZ2ARD4V3ZGW6OAUS8V", "workerId": "MTK3755", "questiondata": {"origin": "United States", "strat-rehearsal": "56", "marital": "Married/Domestic Partnership", "education": "High school diploma", "ethnicity": "Not Hispanic", "color_depth": 24, "distracted": "No", "wrote-notes": "Yes", "strat-other": "I would write one or two words - like tombstone and flower and use those to remember the connecting words that went with the group, but with each round I was having a harder time remembering the previous rounds as I focused on that list of words.", "screen_width": 1680, "avail_screen_width": 1680, "avail_screen_height": 1010, "strat-image": "16", "language": "English", "gender": "Female", "age": "61", "gender_other": "", "race": ["White"], "strat-categorize": "93", "pixel_depth": 24, "strat-spatial": "95", "strat-story": "7", "race_other": "", "screen_height": 1050}, "bonus": 0, "hitId": "3VCK0Q0PO5L5EGFPK2W0INKYXR10NR", "counterbalance": 255, "useragent": "Mozilla/5.0 (Windows NT 10.0; Win64; x64) AppleWebKit/537.36 (KHTML, like Gecko) Chrome/64.0.3282.186 Safari/537.36", "eventdata": [{"eventtype": "initialized", "interval": 0, "value": null, "timestamp": 1521211710572}, {"eventtype": "window_resize", "interval": 0, "value": [1680, 1003], "timestamp": 1521211710572}, {"eventtype": "focus", "interval": 32597, "value": "off", "timestamp": 1521211743169}, {"eventtype": "focus", "interval": 7060, "value": "on", "timestamp": 1521211750229}, {"eventtype": "focus", "interval": 4166, "value": "off", "timestamp": 1521211754395}, {"eventtype": "focus", "interval": 5393, "value": "on", "timestamp": 1521211759788}, {"eventtype": "window_resize", "interval": 19886, "value": [1680, 959], "timestamp": 1521211779674}, {"eventtype": "focus", "interval": 21463, "value": "off", "timestamp": 1521211801137}, {"eventtype": "focus", "interval": 5042, "value": "on", "timestamp": 1521211806179}, {"eventtype": "focus", "interval": 3178770, "value": "off", "timestamp": 1521214984949}, {"eventtype": "focus", "interval": 1538, "value": "on", "timestamp": 1521214986487}], "data": [{"current_trial": 0, "trialdata": {"rt": 3177, "trial_type": "text", "internal_node_id": "0.0-0.0", "time_elapsed": 3181, "key_press": 32, "type": "INSTRUCTIONS", "trial_index": 0}, "uniqueid": "MTK3755:37QW5D2ZRHTMZ2ARD4V3ZGW6OAUS8V", "dateTime": 1521211714209}, {"current_trial": 1, "trialdata": {"rt": 23506, "trial_type": "text", "internal_node_id": "0.0-1.0", "time_elapsed": 26690, "key_press": 32, "type": "INSTRUCTIONS", "trial_index": 1}, "uniqueid": "MTK3755:37QW5D2ZRHTMZ2ARD4V3ZGW6OAUS8V", "dateTime": 1521211737718}, {"current_trial": 2, "trialdata": {"rt": [47742], "trial_type": "audio-test", "responses": ["ocean"], "internal_node_id": "0.0-2.0", "time_elapsed": 74456, "type": "AUDIO_TEST", "trial_index": 2}, "uniqueid": "MTK3755:37QW5D2ZRHTMZ2ARD4V3ZGW6OAUS8V", "dateTime": 1521211785484}, {"current_trial": 3, "trialdata": {"rt": [27909], "trial_type": "audio-test", "responses": ["crystal"], "internal_node_id": "0.0-3.0", "time_elapsed": 102368, "type": "AUDIO_TEST", "trial_index": 3}, "uniqueid": "MTK3755:37QW5D2ZRHTMZ2ARD4V3ZGW6OAUS8V", "dateTime": 1521211813395}, {"current_trial": 4, "trialdata": {"rt": [10910], "trial_type": "audio-test", "responses": ["spice"], "internal_node_id": "0.0-4.0", "time_elapsed": 113280, "type": "AUDIO_TEST", "trial_index": 4}, "uniqueid": "MTK3755:37QW5D2ZRHTMZ2ARD4V3ZGW6OAUS8V", "dateTime": 1521211824307}, {"current_trial": 5, "trialdata": {"rt": 30838, "trial_type": "survey-text", "responses": "{\"Q0\":\"10:00\",\"Q1\":\"5:30\",\"Q2\":\"5\"}", "internal_node_id": "0.0-5.0", "time_elapsed": 144872, "type": "SLEEP_SURVEY", "trial_index": 5}, "uniqueid": "MTK3755:37QW5D2ZRHTMZ2ARD4V3ZGW6OAUS8V", "dateTime": 1521211855900}, {"current_trial": 6, "trialdata": {"rt": 109382, "trial_type": "text", "internal_node_id": "0.0-6.0", "time_elapsed": 255257, "key_press": 32, "type": "INSTRUCTIONS", "trial_index": 6}, "uniqueid": "MTK3755:37QW5D2ZRHTMZ2ARD4V3ZGW6OAUS8V", "dateTime": 1521211966284}, {"current_trial": 7, "trialdata": {"rt": 801200, "trial_type": "text", "internal_node_id": "0.0-7.0", "time_elapsed": 1056962, "key_press": 32, "type": "INSTRUCTIONS", "trial_index": 7}, "uniqueid": "MTK3755:37QW5D2ZRHTMZ2ARD4V3ZGW6OAUS8V", "dateTime": 1521212767989}, {"current_trial": 8, "trialdata": {"rt": 3622, "trial_type": "text", "internal_node_id": "0.0-8.0", "time_elapsed": 1061085, "key_press": 32, "type": "INSTRUCTIONS", "trial_index": 8}, "uniqueid": "MTK3755:37QW5D2ZRHTMZ2ARD4V3ZGW6OAUS8V", "dateTime": 1521212772112}, {"current_trial": 9, "trialdata": {"rt": [7510, 10653, 13798, 16077], "trial_type": "math-distractor", "key_times": [5230, 5413, 7510, 9758, 9974, 10653, 13045, 13357, 13798, 15510, 15734, 16077, 17838], "responses": ["15", "14", "17", "14"], "num2": [4, 1, 6, 5, 2], "num3": [3, 7, 3, 8, 1], "conditions": [18, 1200, "v", 18000], "internal_node_id": "0.0-9.0", "key_presses": [97, 101, 13, 97, 100, 13, 97, 103, 13, 97, 100, 13, 97], "trial": 0, "time_elapsed": 1080089, "type": "DISTRACTOR", "trial_index": 9, "num1": [8, 6, 7, 1, 9]}, "uniqueid": "MTK3755:37QW5D2ZRHTMZ2ARD4V3ZGW6OAUS8V", "dateTime": 1521212791116}, {"current_trial": 10, "trialdata": {"rt": -1, "trial_type": "single-stim", "stimulus": "<p id=\"stim\">10</p>", "internal_node_id": "0.0-10.0-0.0", "time_elapsed": 1083091, "key_press": -1, "trial_index": 10}, "uniqueid": "MTK3755:37QW5D2ZRHTMZ2ARD4V3ZGW6OAUS8V", "dateTime": 1521212794119}, {"current_trial": 11, "trialdata": {"rt": -1, "trial_type": "single-stim", "stimulus": "<p id=\"stim\">9</p>", "internal_node_id": "0.0-10.0-1.0", "time_elapsed": 1084094, "key_press": -1, "trial_index": 11}, "uniqueid": "MTK3755:37QW5D2ZRHTMZ2ARD4V3ZGW6OAUS8V", "dateTime": 1521212795121}, {"current_trial": 12, "trialdata": {"rt": -1, "trial_type": "single-stim", "stimulus": "<p id=\"stim\">8</p>", "internal_node_id": "0.0-10.0-2.0", "time_elapsed": 1085095, "key_press": -1, "trial_index": 12}, "uniqueid": "MTK3755:37QW5D2ZRHTMZ2ARD4V3ZGW6OAUS8V", "dateTime": 1521212796122}, {"current_trial": 13, "trialdata": {"rt": -1, "trial_type": "single-stim", "stimulus": "<p id=\"stim\">7</p>", "internal_node_id": "0.0-10.0-3.0", "time_elapsed": 1086096, "key_press": -1, "trial_index": 13}, "uniqueid": "MTK3755:37QW5D2ZRHTMZ2ARD4V3ZGW6OAUS8V", "dateTime": 1521212797123}, {"current_trial": 14, "trialdata": {"rt": -1, "trial_type": "single-stim", "stimulus": "<p id=\"stim\">6</p>", "internal_node_id": "0.0-10.0-4.0", "time_elapsed": 1087098, "key_press": -1, "trial_index": 14}, "uniqueid": "MTK3755:37QW5D2ZRHTMZ2ARD4V3ZGW6OAUS8V", "dateTime": 1521212798125}, {"current_trial": 15, "trialdata": {"rt": -1, "trial_type": "single-stim", "stimulus": "<p id=\"stim\">5</p>", "internal_node_id": "0.0-10.0-5.0", "time_elapsed": 1088099, "key_press": -1, "trial_index": 15}, "uniqueid": "MTK3755:37QW5D2ZRHTMZ2ARD4V3ZGW6OAUS8V", "dateTime": 1521212799126}, {"current_trial": 16, "trialdata": {"rt": -1, "trial_type": "single-stim", "stimulus": "<p id=\"stim\">4</p>", "internal_node_id": "0.0-10.0-6.0", "time_elapsed": 1089101, "key_press": -1, "trial_index": 16}, "uniqueid": "MTK3755:37QW5D2ZRHTMZ2ARD4V3ZGW6OAUS8V", "dateTime": 1521212800128}, {"current_trial": 17, "trialdata": {"rt": -1, "trial_type": "single-stim", "stimulus": "<p id=\"stim\">3</p>", "internal_node_id": "0.0-10.0-7.0", "time_elapsed": 1090102, "key_press": -1, "trial_index": 17}, "uniqueid": "MTK3755:37QW5D2ZRHTMZ2ARD4V3ZGW6OAUS8V", "dateTime": 1521212801129}, {"current_trial": 18, "trialdata": {"rt": -1, "trial_type": "single-stim", "stimulus": "<p id=\"stim\">2</p>", "internal_node_id": "0.0-10.0-8.0", "time_elapsed": 1091103, "key_press": -1, "trial_index": 18}, "uniqueid": "MTK3755:37QW5D2ZRHTMZ2ARD4V3ZGW6OAUS8V", "dateTime": 1521212802130}, {"current_trial": 19, "trialdata": {"rt": -1, "trial_type": "single-stim", "stimulus": "<p id=\"stim\">1</p>", "internal_node_id": "0.0-10.0-9.0", "time_elapsed": 1092104, "key_press": -1, "trial_index": 19}, "uniqueid": "MTK3755:37QW5D2ZRHTMZ2ARD4V3ZGW6OAUS8V", "dateTime": 1521212803131}, {"current_trial": 20, "trialdata": {"rt": -1, "trial_type": "single-stim", "stimulus": "<p id=\"stim\">+</p>", "internal_node_id": "0.0-11.0-0.0", "time_elapsed": 1093606, "key_press": -1, "type": "FIXATION", "trial_index": 20}, "uniqueid": "MTK3755:37QW5D2ZRHTMZ2ARD4V3ZGW6OAUS8V", "dateTime": 1521212804633}, {"current_trial": 21, "trialdata": {"rt": -1, "trial_type": "single-stim", "word": "freckle", "stimulus": "<p id=\"stim\">FRECKLE</p>", "conditions": [18, 1200, "v", 18000], "internal_node_id": "0.0-12.0", "trial": 0, "time_elapsed": 1094807, "serialpos": 0, "key_press": -1, "wordID": 601, "type": "PRES_VIS", "trial_index": 21}, "uniqueid": "MTK3755:37QW5D2ZRHTMZ2ARD4V3ZGW6OAUS8V", "dateTime": 1521212805834}, {"current_trial": 22, "trialdata": {"rt": -1, "trial_type": "single-stim", "word": "subway", "stimulus": "<p id=\"stim\">SUBWAY</p>", "conditions": [18, 1200, "v", 18000], "internal_node_id": "0.0-13.0", "trial": 0, "time_elapsed": 1097133, "serialpos": 1, "key_press": -1, "wordID": 1399, "type": "PRES_VIS", "trial_index": 22}, "uniqueid": "MTK3755:37QW5D2ZRHTMZ2ARD4V3ZGW6OAUS8V", "dateTime": 1521212808160}, {"current_trial": 23, "trialdata": {"rt": -1, "trial_type": "single-stim", "word": "fox", "stimulus": "<p id=\"stim\">FOX</p>", "conditions": [18, 1200, "v", 18000], "internal_node_id": "0.0-14.0", "trial": 0, "time_elapsed": 1099453, "serialpos": 2, "key_press": -1, "wordID": 597, "type": "PRES_VIS", "trial_index": 23}, "uniqueid": "MTK3755:37QW5D2ZRHTMZ2ARD4V3ZGW6OAUS8V", "dateTime": 1521212810480}, {"current_trial": 24, "trialdata": {"rt": -1, "trial_type": "single-stim", "word": "lover", "stimulus": "<p id=\"stim\">LOVER</p>", "conditions": [18, 1200, "v", 18000], "internal_node_id": "0.0-15.0", "trial": 0, "time_elapsed": 1101488, "serialpos": 3, "key_press": -1, "wordID": 845, "type": "PRES_VIS", "trial_index": 24}, "uniqueid": "MTK3755:37QW5D2ZRHTMZ2ARD4V3ZGW6OAUS8V", "dateTime": 1521212812516}, {"current_trial": 25, "trialdata": {"rt": -1, "trial_type": "single-stim", "word": "grave", "stimulus": "<p id=\"stim\">GRAVE</p>", "conditions": [18, 1200, "v", 18000], "internal_node_id": "0.0-16.0", "trial": 0, "time_elapsed": 1103555, "serialpos": 4, "key_press": -1, "wordID": 657, "type": "PRES_VIS", "trial_index": 25}, "uniqueid": "MTK3755:37QW5D2ZRHTMZ2ARD4V3ZGW6OAUS8V", "dateTime": 1521212814582}, {"current_trial": 26, "trialdata": {"rt": -1, "trial_type": "single-stim", "word": "orange", "stimulus": "<p id=\"stim\">ORANGE</p>", "conditions": [18, 1200, "v", 18000], "internal_node_id": "0.0-17.0", "trial": 0, "time_elapsed": 1105726, "serialpos": 5, "key_press": -1, "wordID": 979, "type": "PRES_VIS", "trial_index": 26}, "uniqueid": "MTK3755:37QW5D2ZRHTMZ2ARD4V3ZGW6OAUS8V", "dateTime": 1521212816753}, {"current_trial": 27, "trialdata": {"rt": -1, "trial_type": "single-stim", "word": "notebook", "stimulus": "<p id=\"stim\">NOTEBOOK</p>", "conditions": [18, 1200, "v", 18000], "internal_node_id": "0.0-18.0", "trial": 0, "time_elapsed": 1108091, "serialpos": 6, "key_press": -1, "wordID": 958, "type": "PRES_VIS", "trial_index": 27}, "uniqueid": "MTK3755:37QW5D2ZRHTMZ2ARD4V3ZGW6OAUS8V", "dateTime": 1521212819119}, {"current_trial": 28, "trialdata": {"rt": -1, "trial_type": "single-stim", "word": "bucket", "stimulus": "<p id=\"stim\">BUCKET</p>", "conditions": [18, 1200, "v", 18000], "internal_node_id": "0.0-19.0", "trial": 0, "time_elapsed": 1110196, "serialpos": 7, "key_press": -1, "wordID": 183, "type": "PRES_VIS", "trial_index": 28}, "uniqueid": "MTK3755:37QW5D2ZRHTMZ2ARD4V3ZGW6OAUS8V", "dateTime": 1521212821223}, {"current_trial": 29, "trialdata": {"rt": -1, "trial_type": "single-stim", "word": "student", "stimulus": "<p id=\"stim\">STUDENT</p>", "conditions": [18, 1200, "v", 18000], "internal_node_id": "0.0-20.0", "trial": 0, "time_elapsed": 1112311, "serialpos": 8, "key_press": -1, "wordID": 1394, "type": "PRES_VIS", "trial_index": 29}, "uniqueid": "MTK3755:37QW5D2ZRHTMZ2ARD4V3ZGW6OAUS8V", "dateTime": 1521212823339}, {"current_trial": 30, "trialdata": {"rt": -1, "trial_type": "single-stim", "word": "plaid", "stimulus": "<p id=\"stim\">PLAID</p>", "conditions": [18, 1200, "v", 18000], "internal_node_id": "0.0-21.0", "trial": 0, "time_elapsed": 1114565, "serialpos": 9, "key_press": -1, "wordID": 1079, "type": "PRES_VIS", "trial_index": 30}, "uniqueid": "MTK3755:37QW5D2ZRHTMZ2ARD4V3ZGW6OAUS8V", "dateTime": 1521212825593}, {"current_trial": 31, "trialdata": {"rt": -1, "trial_type": "single-stim", "word": "wagon", "stimulus": "<p id=\"stim\">WAGON</p>", "conditions": [18, 1200, "v", 18000], "internal_node_id": "0.0-22.0", "trial": 0, "time_elapsed": 1116787, "serialpos": 10, "key_press": -1, "wordID": 1577, "type": "PRES_VIS", "trial_index": 31}, "uniqueid": "MTK3755:37QW5D2ZRHTMZ2ARD4V3ZGW6OAUS8V", "dateTime": 1521212827814}, {"current_trial": 32, "trialdata": {"rt": -1, "trial_type": "single-stim", "word": "mammal", "stimulus": "<p id=\"stim\">MAMMAL</p>", "conditions": [18, 1200, "v", 18000], "internal_node_id": "0.0-23.0", "trial": 0, "time_elapsed": 1118916, "serialpos": 11, "key_press": -1, "wordID": 860, "type": "PRES_VIS", "trial_index": 32}, "uniqueid": "MTK3755:37QW5D2ZRHTMZ2ARD4V3ZGW6OAUS8V", "dateTime": 1521212829943}, {"current_trial": 33, "trialdata": {"rt": -1, "trial_type": "single-stim", "word": "ozone", "stimulus": "<p id=\"stim\">OZONE</p>", "conditions": [18, 1200, "v", 18000], "internal_node_id": "0.0-24.0", "trial": 0, "time_elapsed": 1121113, "serialpos": 12, "key_press": -1, "wordID": 995, "type": "PRES_VIS", "trial_index": 33}, "uniqueid": "MTK3755:37QW5D2ZRHTMZ2ARD4V3ZGW6OAUS8V", "dateTime": 1521212832140}, {"current_trial": 34, "trialdata": {"rt": -1, "trial_type": "single-stim", "word": "razor", "stimulus": "<p id=\"stim\">RAZOR</p>", "conditions": [18, 1200, "v", 18000], "internal_node_id": "0.0-25.0", "trial": 0, "time_elapsed": 1123194, "serialpos": 13, "key_press": -1, "wordID": 1170, "type": "PRES_VIS", "trial_index": 34}, "uniqueid": "MTK3755:37QW5D2ZRHTMZ2ARD4V3ZGW6OAUS8V", "dateTime": 1521212834221}, {"current_trial": 35, "trialdata": {"rt": -1, "trial_type": "single-stim", "word": "flipper", "stimulus": "<p id=\"stim\">FLIPPER</p>", "conditions": [18, 1200, "v", 18000], "internal_node_id": "0.0-26.0", "trial": 0, "time_elapsed": 1125286, "serialpos": 14, "key_press": -1, "wordID": 579, "type": "PRES_VIS", "trial_index": 35}, "uniqueid": "MTK3755:37QW5D2ZRHTMZ2ARD4V3ZGW6OAUS8V", "dateTime": 1521212836313}, {"current_trial": 36, "trialdata": {"rt": -1, "trial_type": "single-stim", "word": "trout", "stimulus": "<p id=\"stim\">TROUT</p>", "conditions": [18, 1200, "v", 18000], "internal_node_id": "0.0-27.0", "trial": 0, "time_elapsed": 1127624, "serialpos": 15, "key_press": -1, "wordID": 1510, "type": "PRES_VIS", "trial_index": 36}, "uniqueid": "MTK3755:37QW5D2ZRHTMZ2ARD4V3ZGW6OAUS8V", "dateTime": 1521212838651}, {"current_trial": 37, "trialdata": {"rt": -1, "trial_type": "single-stim", "word": "pliers", "stimulus": "<p id=\"stim\">PLIERS</p>", "conditions": [18, 1200, "v", 18000], "internal_node_id": "0.0-28.0", "trial": 0, "time_elapsed": 1130019, "serialpos": 16, "key_press": -1, "wordID": 1088, "type": "PRES_VIS", "trial_index": 37}, "uniqueid": "MTK3755:37QW5D2ZRHTMZ2ARD4V3ZGW6OAUS8V", "dateTime": 1521212841046}, {"current_trial": 38, "trialdata": {"rt": -1, "trial_type": "single-stim", "word": "blockade", "stimulus": "<p id=\"stim\">BLOCKADE</p>", "conditions": [18, 1200, "v", 18000], "internal_node_id": "0.0-29.0", "trial": 0, "time_elapsed": 1132406, "serialpos": 17, "key_press": -1, "wordID": 136, "type": "PRES_VIS", "trial_index": 38}, "uniqueid": "MTK3755:37QW5D2ZRHTMZ2ARD4V3ZGW6OAUS8V", "dateTime": 1521212843433}, {"current_trial": 39, "trialdata": {"rt": -1, "trial_type": "single-stim", "stimulus": "", "internal_node_id": "0.0-30.0-0.0", "time_elapsed": 1134801, "key_press": -1, "type": "PRE_RECALL_DELAY", "trial_index": 39}, "uniqueid": "MTK3755:37QW5D2ZRHTMZ2ARD4V3ZGW6OAUS8V", "dateTime": 1521212845828}, {"current_trial": 40, "trialdata": {"rt": -1000, "trial_type": "single-audio", "stimulus": "/static/audio/400Hz.wav", "internal_node_id": "0.0-31.0", "time_elapsed": 1135305, "key_press": -1, "type": "PRE_RECALL_ALERT", "trial_index": 40}, "uniqueid": "MTK3755:37QW5D2ZRHTMZ2ARD4V3ZGW6OAUS8V", "dateTime": 1521212846332}, {"current_trial": 41, "trialdata": {"rt": [4252, 5467, 8651, 14124, 24235, 34667, 38643], "recwords": ["freckle", "fox", "trout", "wagon", "pliers", "bucket", "space"], "key_times": [2203, 2403, 2676, 3123, 3403, 3635, 3763, 4252, 4819, 4987, 5179, 5467, 7515, 7683, 7827, 7939, 8123, 8651, 12900, 13117, 13325, 13436, 13565, 14124, 22539, 22844, 22972, 23132, 23364, 23900, 24235, 33612, 33740, 33948, 34132, 34276, 34468, 34667, 37636, 37828, 37948, 38180, 38404, 38643], "trial_type": "free-recall", "conditions": [18, 1200, "v", 18000], "internal_node_id": "0.0-32.0-0.0", "key_presses": [70, 82, 69, 67, 75, 76, 69, 13, 70, 79, 88, 13, 84, 82, 79, 85, 84, 13, 87, 65, 71, 79, 78, 13, 80, 76, 73, 69, 82, 83, 13, 66, 85, 67, 75, 69, 84, 13, 83, 80, 65, 67, 69, 13], "trial": 0, "time_elapsed": 1195308, "type": "FREE_RECALL", "trial_index": 41}, "uniqueid": "MTK3755:37QW5D2ZRHTMZ2ARD4V3ZGW6OAUS8V", "dateTime": 1521212906340}, {"current_trial": 42, "trialdata": {"rt": 1884, "trial_type": "text", "internal_node_id": "0.0-33.0", "time_elapsed": 1199197, "key_press": 13, "type": "INSTRUCTIONS", "trial_index": 42}, "uniqueid": "MTK3755:37QW5D2ZRHTMZ2ARD4V3ZGW6OAUS8V", "dateTime": 1521212910224}, {"current_trial": 43, "trialdata": {"rt": [5446, 8757, 11326, 14837, 16837], "trial_type": "math-distractor", "key_times": [2486, 2781, 5446, 7494, 7710, 8757, 10903, 11326, 14094, 14439, 14837, 16320, 16583, 16837], "responses": ["13", "16", "9", "17", "10"], "num2": [4, 8, 1, 9, 1, 4], "num3": [5, 3, 3, 8, 8, 1], "conditions": [18, 1200, "v", 18000], "internal_node_id": "0.0-34.0", "key_presses": [97, 99, 13, 97, 102, 13, 105, 13, 97, 103, 13, 97, 96, 13], "trial": 1, "time_elapsed": 1219201, "type": "DISTRACTOR", "trial_index": 43, "num1": [4, 5, 5, 2, 1, 6]}, "uniqueid": "MTK3755:37QW5D2ZRHTMZ2ARD4V3ZGW6OAUS8V", "dateTime": 1521212930228}, {"current_trial": 44, "trialdata": {"rt": -1, "trial_type": "single-stim", "stimulus": "<p id=\"stim\">10</p>", "internal_node_id": "0.0-35.0-0.0", "time_elapsed": 1222204, "key_press": -1, "trial_index": 44}, "uniqueid": "MTK3755:37QW5D2ZRHTMZ2ARD4V3ZGW6OAUS8V", "dateTime": 1521212933231}, {"current_trial": 45, "trialdata": {"rt": -1, "trial_type": "single-stim", "stimulus": "<p id=\"stim\">9</p>", "internal_node_id": "0.0-35.0-1.0", "time_elapsed": 1223206, "key_press": -1, "trial_index": 45}, "uniqueid": "MTK3755:37QW5D2ZRHTMZ2ARD4V3ZGW6OAUS8V", "dateTime": 1521212934233}, {"current_trial": 46, "trialdata": {"rt": -1, "trial_type": "single-stim", "stimulus": "<p id=\"stim\">8</p>", "internal_node_id": "0.0-35.0-2.0", "time_elapsed": 1224207, "key_press": -1, "trial_index": 46}, "uniqueid": "MTK3755:37QW5D2ZRHTMZ2ARD4V3ZGW6OAUS8V", "dateTime": 1521212935234}, {"current_trial": 47, "trialdata": {"rt": -1, "trial_type": "single-stim", "stimulus": "<p id=\"stim\">7</p>", "internal_node_id": "0.0-35.0-3.0", "time_elapsed": 1225209, "key_press": -1, "trial_index": 47}, "uniqueid": "MTK3755:37QW5D2ZRHTMZ2ARD4V3ZGW6OAUS8V", "dateTime": 1521212936236}, {"current_trial": 48, "trialdata": {"rt": -1, "trial_type": "single-stim", "stimulus": "<p id=\"stim\">6</p>", "internal_node_id": "0.0-35.0-4.0", "time_elapsed": 1226212, "key_press": -1, "trial_index": 48}, "uniqueid": "MTK3755:37QW5D2ZRHTMZ2ARD4V3ZGW6OAUS8V", "dateTime": 1521212937239}, {"current_trial": 49, "trialdata": {"rt": -1, "trial_type": "single-stim", "stimulus": "<p id=\"stim\">5</p>", "internal_node_id": "0.0-35.0-5.0", "time_elapsed": 1227213, "key_press": -1, "trial_index": 49}, "uniqueid": "MTK3755:37QW5D2ZRHTMZ2ARD4V3ZGW6OAUS8V", "dateTime": 1521212938240}, {"current_trial": 50, "trialdata": {"rt": -1, "trial_type": "single-stim", "stimulus": "<p id=\"stim\">4</p>", "internal_node_id": "0.0-35.0-6.0", "time_elapsed": 1228214, "key_press": -1, "trial_index": 50}, "uniqueid": "MTK3755:37QW5D2ZRHTMZ2ARD4V3ZGW6OAUS8V", "dateTime": 1521212939241}, {"current_trial": 51, "trialdata": {"rt": -1, "trial_type": "single-stim", "stimulus": "<p id=\"stim\">3</p>", "internal_node_id": "0.0-35.0-7.0", "time_elapsed": 1229216, "key_press": -1, "trial_index": 51}, "uniqueid": "MTK3755:37QW5D2ZRHTMZ2ARD4V3ZGW6OAUS8V", "dateTime": 1521212940244}, {"current_trial": 52, "trialdata": {"rt": -1, "trial_type": "single-stim", "stimulus": "<p id=\"stim\">2</p>", "internal_node_id": "0.0-35.0-8.0", "time_elapsed": 1230218, "key_press": -1, "trial_index": 52}, "uniqueid": "MTK3755:37QW5D2ZRHTMZ2ARD4V3ZGW6OAUS8V", "dateTime": 1521212941245}, {"current_trial": 53, "trialdata": {"rt": -1, "trial_type": "single-stim", "stimulus": "<p id=\"stim\">1</p>", "internal_node_id": "0.0-35.0-9.0", "time_elapsed": 1231220, "key_press": -1, "trial_index": 53}, "uniqueid": "MTK3755:37QW5D2ZRHTMZ2ARD4V3ZGW6OAUS8V", "dateTime": 1521212942247}, {"current_trial": 54, "trialdata": {"rt": -1, "trial_type": "single-stim", "stimulus": "<p id=\"stim\">+</p>", "internal_node_id": "0.0-36.0-0.0", "time_elapsed": 1232722, "key_press": -1, "type": "FIXATION", "trial_index": 54}, "uniqueid": "MTK3755:37QW5D2ZRHTMZ2ARD4V3ZGW6OAUS8V", "dateTime": 1521212943750}, {"current_trial": 55, "trialdata": {"rt": -1, "trial_type": "single-stim", "word": "widow", "stimulus": "<p id=\"stim\">WIDOW</p>", "conditions": [18, 1200, "v", 18000], "internal_node_id": "0.0-37.0", "trial": 1, "time_elapsed": 1233924, "serialpos": 0, "key_press": -1, "wordID": 1607, "type": "PRES_VIS", "trial_index": 55}, "uniqueid": "MTK3755:37QW5D2ZRHTMZ2ARD4V3ZGW6OAUS8V", "dateTime": 1521212944951}, {"current_trial": 56, "trialdata": {"rt": -1, "trial_type": "single-stim", "word": "flask", "stimulus": "<p id=\"stim\">FLASK</p>", "conditions": [18, 1200, "v", 18000], "internal_node_id": "0.0-38.0", "trial": 1, "time_elapsed": 1236023, "serialpos": 1, "key_press": -1, "wordID": 575, "type": "PRES_VIS", "trial_index": 56}, "uniqueid": "MTK3755:37QW5D2ZRHTMZ2ARD4V3ZGW6OAUS8V", "dateTime": 1521212947050}, {"current_trial": 57, "trialdata": {"rt": -1, "trial_type": "single-stim", "word": "convict", "stimulus": "<p id=\"stim\">CONVICT</p>", "conditions": [18, 1200, "v", 18000], "internal_node_id": "0.0-39.0", "trial": 1, "time_elapsed": 1238372, "serialpos": 2, "key_press": -1, "wordID": 370, "type": "PRES_VIS", "trial_index": 57}, "uniqueid": "MTK3755:37QW5D2ZRHTMZ2ARD4V3ZGW6OAUS8V", "dateTime": 1521212949399}, {"current_trial": 58, "trialdata": {"rt": -1, "trial_type": "single-stim", "word": "scallop", "stimulus": "<p id=\"stim\">SCALLOP</p>", "conditions": [18, 1200, "v", 18000], "internal_node_id": "0.0-40.0", "trial": 1, "time_elapsed": 1240747, "serialpos": 3, "key_press": -1, "wordID": 1241, "type": "PRES_VIS", "trial_index": 58}, "uniqueid": "MTK3755:37QW5D2ZRHTMZ2ARD4V3ZGW6OAUS8V", "dateTime": 1521212951774}, {"current_trial": 59, "trialdata": {"rt": -1, "trial_type": "single-stim", "word": "pigeon", "stimulus": "<p id=\"stim\">PIGEON</p>", "conditions": [18, 1200, "v", 18000], "internal_node_id": "0.0-41.0", "trial": 1, "time_elapsed": 1243140, "serialpos": 4, "key_press": -1, "wordID": 1064, "type": "PRES_VIS", "trial_index": 59}, "uniqueid": "MTK3755:37QW5D2ZRHTMZ2ARD4V3ZGW6OAUS8V", "dateTime": 1521212954167}, {"current_trial": 60, "trialdata": {"rt": -1, "trial_type": "single-stim", "word": "forehead", "stimulus": "<p id=\"stim\">FOREHEAD</p>", "conditions": [18, 1200, "v", 18000], "internal_node_id": "0.0-42.0", "trial": 1, "time_elapsed": 1245289, "serialpos": 5, "key_press": -1, "wordID": 591, "type": "PRES_VIS", "trial_index": 60}, "uniqueid": "MTK3755:37QW5D2ZRHTMZ2ARD4V3ZGW6OAUS8V", "dateTime": 1521212956316}, {"current_trial": 61, "trialdata": {"rt": -1, "trial_type": "single-stim", "word": "antler", "stimulus": "<p id=\"stim\">ANTLER</p>", "conditions": [18, 1200, "v", 18000], "internal_node_id": "0.0-43.0", "trial": 1, "time_elapsed": 1247490, "serialpos": 6, "key_press": -1, "wordID": 28, "type": "PRES_VIS", "trial_index": 61}, "uniqueid": "MTK3755:37QW5D2ZRHTMZ2ARD4V3ZGW6OAUS8V", "dateTime": 1521212958517}, {"current_trial": 62, "trialdata": {"rt": -1, "trial_type": "single-stim", "word": "pork", "stimulus": "<p id=\"stim\">PORK</p>", "conditions": [18, 1200, "v", 18000], "internal_node_id": "0.0-44.0", "trial": 1, "time_elapsed": 1249820, "serialpos": 7, "key_press": -1, "wordID": 1107, "type": "PRES_VIS", "trial_index": 62}, "uniqueid": "MTK3755:37QW5D2ZRHTMZ2ARD4V3ZGW6OAUS8V", "dateTime": 1521212960848}, {"current_trial": 63, "trialdata": {"rt": -1, "trial_type": "single-stim", "word": "sister", "stimulus": "<p id=\"stim\">SISTER</p>", "conditions": [18, 1200, "v", 18000], "internal_node_id": "0.0-45.0", "trial": 1, "time_elapsed": 1252154, "serialpos": 8, "key_press": -1, "wordID": 1311, "type": "PRES_VIS", "trial_index": 63}, "uniqueid": "MTK3755:37QW5D2ZRHTMZ2ARD4V3ZGW6OAUS8V", "dateTime": 1521212963181}, {"current_trial": 64, "trialdata": {"rt": -1, "trial_type": "single-stim", "word": "belly", "stimulus": "<p id=\"stim\">BELLY</p>", "conditions": [18, 1200, "v", 18000], "internal_node_id": "0.0-46.0", "trial": 1, "time_elapsed": 1254331, "serialpos": 9, "key_press": -1, "wordID": 118, "type": "PRES_VIS", "trial_index": 64}, "uniqueid": "MTK3755:37QW5D2ZRHTMZ2ARD4V3ZGW6OAUS8V", "dateTime": 1521212965358}, {"current_trial": 65, "trialdata": {"rt": -1, "trial_type": "single-stim", "word": "saddle", "stimulus": "<p id=\"stim\">SADDLE</p>", "conditions": [18, 1200, "v", 18000], "internal_node_id": "0.0-47.0", "trial": 1, "time_elapsed": 1256573, "serialpos": 10, "key_press": -1, "wordID": 1220, "type": "PRES_VIS", "trial_index": 65}, "uniqueid": "MTK3755:37QW5D2ZRHTMZ2ARD4V3ZGW6OAUS8V", "dateTime": 1521212967600}, {"current_trial": 66, "trialdata": {"rt": -1, "trial_type": "single-stim", "word": "portrait", "stimulus": "<p id=\"stim\">PORTRAIT</p>", "conditions": [18, 1200, "v", 18000], "internal_node_id": "0.0-48.0", "trial": 1, "time_elapsed": 1258630, "serialpos": 11, "key_press": -1, "wordID": 1110, "type": "PRES_VIS", "trial_index": 66}, "uniqueid": "MTK3755:37QW5D2ZRHTMZ2ARD4V3ZGW6OAUS8V", "dateTime": 1521212969657}, {"current_trial": 67, "trialdata": {"rt": -1, "trial_type": "single-stim", "word": "neutron", "stimulus": "<p id=\"stim\">NEUTRON</p>", "conditions": [18, 1200, "v", 18000], "internal_node_id": "0.0-49.0", "trial": 1, "time_elapsed": 1260883, "serialpos": 12, "key_press": -1, "wordID": 946, "type": "PRES_VIS", "trial_index": 67}, "uniqueid": "MTK3755:37QW5D2ZRHTMZ2ARD4V3ZGW6OAUS8V", "dateTime": 1521212971910}, {"current_trial": 68, "trialdata": {"rt": -1, "trial_type": "single-stim", "word": "pilot", "stimulus": "<p id=\"stim\">PILOT</p>", "conditions": [18, 1200, "v", 18000], "internal_node_id": "0.0-50.0", "trial": 1, "time_elapsed": 1263222, "serialpos": 13, "key_press": -1, "wordID": 1069, "type": "PRES_VIS", "trial_index": 68}, "uniqueid": "MTK3755:37QW5D2ZRHTMZ2ARD4V3ZGW6OAUS8V", "dateTime": 1521212974253}, {"current_trial": 69, "trialdata": {"rt": -1, "trial_type": "single-stim", "word": "marrow", "stimulus": "<p id=\"stim\">MARROW</p>", "conditions": [18, 1200, "v", 18000], "internal_node_id": "0.0-51.0", "trial": 1, "time_elapsed": 1265379, "serialpos": 14, "key_press": -1, "wordID": 871, "type": "PRES_VIS", "trial_index": 69}, "uniqueid": "MTK3755:37QW5D2ZRHTMZ2ARD4V3ZGW6OAUS8V", "dateTime": 1521212976407}, {"current_trial": 70, "trialdata": {"rt": -1, "trial_type": "single-stim", "word": "boyfriend", "stimulus": "<p id=\"stim\">BOYFRIEND</p>", "conditions": [18, 1200, "v", 18000], "internal_node_id": "0.0-52.0", "trial": 1, "time_elapsed": 1267709, "serialpos": 15, "key_press": -1, "wordID": 161, "type": "PRES_VIS", "trial_index": 70}, "uniqueid": "MTK3755:37QW5D2ZRHTMZ2ARD4V3ZGW6OAUS8V", "dateTime": 1521212978736}, {"current_trial": 71, "trialdata": {"rt": -1, "trial_type": "single-stim", "word": "wardrobe", "stimulus": "<p id=\"stim\">WARDROBE</p>", "conditions": [18, 1200, "v", 18000], "internal_node_id": "0.0-53.0", "trial": 1, "time_elapsed": 1270015, "serialpos": 16, "key_press": -1, "wordID": 1586, "type": "PRES_VIS", "trial_index": 71}, "uniqueid": "MTK3755:37QW5D2ZRHTMZ2ARD4V3ZGW6OAUS8V", "dateTime": 1521212981042}, {"current_trial": 72, "trialdata": {"rt": -1, "trial_type": "single-stim", "word": "elbow", "stimulus": "<p id=\"stim\">ELBOW</p>", "conditions": [18, 1200, "v", 18000], "internal_node_id": "0.0-54.0", "trial": 1, "time_elapsed": 1272363, "serialpos": 17, "key_press": -1, "wordID": 519, "type": "PRES_VIS", "trial_index": 72}, "uniqueid": "MTK3755:37QW5D2ZRHTMZ2ARD4V3ZGW6OAUS8V", "dateTime": 1521212983391}, {"current_trial": 73, "trialdata": {"rt": -1, "trial_type": "single-stim", "stimulus": "", "internal_node_id": "0.0-55.0-0.0", "time_elapsed": 1274916, "key_press": -1, "type": "PRE_RECALL_DELAY", "trial_index": 73}, "uniqueid": "MTK3755:37QW5D2ZRHTMZ2ARD4V3ZGW6OAUS8V", "dateTime": 1521212985943}, {"current_trial": 74, "trialdata": {"rt": -1000, "trial_type": "single-audio", "stimulus": "/static/audio/400Hz.wav", "internal_node_id": "0.0-56.0", "time_elapsed": 1275420, "key_press": -1, "type": "PRE_RECALL_ALERT", "trial_index": 74}, "uniqueid": "MTK3755:37QW5D2ZRHTMZ2ARD4V3ZGW6OAUS8V", "dateTime": 1521212986447}, {"current_trial": 75, "trialdata": {"rt": [5463, 7935, 11039, 13527, 15270, 17478, 19110, 20998, 24351, 26391, 28222, 31991, 35095, 38214, 52734], "recwords": ["widow", "convict", "scallop", "pigeon", "port", "antler", "elbow", "flask", "belly", "sister", "pork", "pilot", "belly", "marrow", "pigeon"], "key_times": [4297, 4463, 4623, 4799, 4967, 5463, 6279, 6423, 6599, 7128, 7272, 7432, 7687, 7935, 8767, 9080, 9295, 9615, 9800, 10160, 10424, 11039, 11655, 11943, 12314, 12535, 12760, 12952, 13527, 14288, 14537, 14680, 14904, 15270, 15679, 15856, 16224, 16543, 16991, 17120, 17478, 17832, 17983, 18192, 18399, 18680, 19110, 19647, 19839, 20007, 20224, 20511, 20998, 22695, 23007, 23248, 23432, 23719, 24351, 25256, 25383, 25464, 25728, 25879, 25975, 26391, 27055, 27296, 27503, 27743, 28222, 30760, 30952, 31191, 31392, 31471, 31991, 33831, 34079, 34263, 34431, 34583, 35095, 36664, 37023, 37247, 37407, 37519, 37640, 38214, 50352, 50943, 51575, 51895, 52127, 52255, 52734], "trial_type": "free-recall", "conditions": [18, 1200, "v", 18000], "internal_node_id": "0.0-57.0-0.0", "key_presses": [87, 73, 68, 79, 87, 13, 67, 79, 78, 86, 73, 67, 84, 13, 83, 67, 65, 76, 76, 79, 80, 13, 80, 73, 71, 69, 79, 78, 13, 80, 79, 82, 84, 13, 65, 78, 84, 76, 69, 82, 13, 69, 76, 66, 79, 87, 13, 70, 76, 65, 83, 75, 13, 66, 69, 76, 76, 89, 13, 83, 73, 83, 84, 69, 82, 13, 80, 79, 82, 75, 13, 80, 73, 76, 79, 84, 13, 66, 69, 76, 76, 89, 13, 77, 65, 82, 82, 79, 87, 13, 80, 73, 71, 69, 79, 78, 13], "trial": 1, "time_elapsed": 1335424, "type": "FREE_RECALL", "trial_index": 75}, "uniqueid": "MTK3755:37QW5D2ZRHTMZ2ARD4V3ZGW6OAUS8V", "dateTime": 1521213046456}, {"current_trial": 76, "trialdata": {"rt": 3390, "trial_type": "text", "internal_node_id": "0.0-58.0", "time_elapsed": 1340822, "key_press": 32, "type": "INSTRUCTIONS", "trial_index": 76}, "uniqueid": "MTK3755:37QW5D2ZRHTMZ2ARD4V3ZGW6OAUS8V", "dateTime": 1521213051849}, {"current_trial": 77, "trialdata": {"rt": [3396, 5460, 7348, 10844, 13884, 15804, 18107, 20988, 23428], "trial_type": "math-distractor", "key_times": [2581, 2853, 3396, 4861, 5069, 5460, 6701, 6973, 7348, 10174, 10421, 10844, 12949, 13197, 13884, 15293, 15804, 17301, 17485, 18107, 20109, 20389, 20988, 22765, 23045, 23428], "responses": ["10", "12", "14", "19", "18", "9", "15", "10", "18"], "num2": [6, 6, 8, 8, 8, 1, 9, 2, 4, 4], "num3": [2, 2, 2, 8, 1, 1, 1, 3, 9, 3], "conditions": [12, 800, "v", 24000], "internal_node_id": "0.0-59.0", "key_presses": [97, 96, 13, 97, 98, 13, 97, 100, 13, 97, 105, 13, 97, 104, 13, 105, 13, 97, 101, 13, 97, 96, 13, 97, 104, 13], "trial": 2, "time_elapsed": 1365826, "type": "DISTRACTOR", "trial_index": 77, "num1": [2, 4, 6, 3, 9, 7, 5, 5, 5, 2]}, "uniqueid": "MTK3755:37QW5D2ZRHTMZ2ARD4V3ZGW6OAUS8V", "dateTime": 1521213076854}, {"current_trial": 78, "trialdata": {"rt": -1, "trial_type": "single-stim", "stimulus": "<p id=\"stim\">10</p>", "internal_node_id": "0.0-60.0-0.0", "time_elapsed": 1368830, "key_press": -1, "trial_index": 78}, "uniqueid": "MTK3755:37QW5D2ZRHTMZ2ARD4V3ZGW6OAUS8V", "dateTime": 1521213079857}, {"current_trial": 79, "trialdata": {"rt": -1, "trial_type": "single-stim", "stimulus": "<p id=\"stim\">9</p>", "internal_node_id": "0.0-60.0-1.0", "time_elapsed": 1369832, "key_press": -1, "trial_index": 79}, "uniqueid": "MTK3755:37QW5D2ZRHTMZ2ARD4V3ZGW6OAUS8V", "dateTime": 1521213080860}, {"current_trial": 80, "trialdata": {"rt": -1, "trial_type": "single-stim", "stimulus": "<p id=\"stim\">8</p>", "internal_node_id": "0.0-60.0-2.0", "time_elapsed": 1370834, "key_press": -1, "trial_index": 80}, "uniqueid": "MTK3755:37QW5D2ZRHTMZ2ARD4V3ZGW6OAUS8V", "dateTime": 1521213081861}, {"current_trial": 81, "trialdata": {"rt": -1, "trial_type": "single-stim", "stimulus": "<p id=\"stim\">7</p>", "internal_node_id": "0.0-60.0-3.0", "time_elapsed": 1371836, "key_press": -1, "trial_index": 81}, "uniqueid": "MTK3755:37QW5D2ZRHTMZ2ARD4V3ZGW6OAUS8V", "dateTime": 1521213082864}, {"current_trial": 82, "trialdata": {"rt": -1, "trial_type": "single-stim", "stimulus": "<p id=\"stim\">6</p>", "internal_node_id": "0.0-60.0-4.0", "time_elapsed": 1372839, "key_press": -1, "trial_index": 82}, "uniqueid": "MTK3755:37QW5D2ZRHTMZ2ARD4V3ZGW6OAUS8V", "dateTime": 1521213083866}, {"current_trial": 83, "trialdata": {"rt": -1, "trial_type": "single-stim", "stimulus": "<p id=\"stim\">5</p>", "internal_node_id": "0.0-60.0-5.0", "time_elapsed": 1373841, "key_press": -1, "trial_index": 83}, "uniqueid": "MTK3755:37QW5D2ZRHTMZ2ARD4V3ZGW6OAUS8V", "dateTime": 1521213084868}, {"current_trial": 84, "trialdata": {"rt": -1, "trial_type": "single-stim", "stimulus": "<p id=\"stim\">4</p>", "internal_node_id": "0.0-60.0-6.0", "time_elapsed": 1374842, "key_press": -1, "trial_index": 84}, "uniqueid": "MTK3755:37QW5D2ZRHTMZ2ARD4V3ZGW6OAUS8V", "dateTime": 1521213085869}, {"current_trial": 85, "trialdata": {"rt": -1, "trial_type": "single-stim", "stimulus": "<p id=\"stim\">3</p>", "internal_node_id": "0.0-60.0-7.0", "time_elapsed": 1375843, "key_press": -1, "trial_index": 85}, "uniqueid": "MTK3755:37QW5D2ZRHTMZ2ARD4V3ZGW6OAUS8V", "dateTime": 1521213086871}, {"current_trial": 86, "trialdata": {"rt": -1, "trial_type": "single-stim", "stimulus": "<p id=\"stim\">2</p>", "internal_node_id": "0.0-60.0-8.0", "time_elapsed": 1376847, "key_press": -1, "trial_index": 86}, "uniqueid": "MTK3755:37QW5D2ZRHTMZ2ARD4V3ZGW6OAUS8V", "dateTime": 1521213087874}, {"current_trial": 87, "trialdata": {"rt": -1, "trial_type": "single-stim", "stimulus": "<p id=\"stim\">1</p>", "internal_node_id": "0.0-60.0-9.0", "time_elapsed": 1377849, "key_press": -1, "trial_index": 87}, "uniqueid": "MTK3755:37QW5D2ZRHTMZ2ARD4V3ZGW6OAUS8V", "dateTime": 1521213088876}, {"current_trial": 88, "trialdata": {"rt": -1, "trial_type": "single-stim", "stimulus": "<p id=\"stim\">+</p>", "internal_node_id": "0.0-61.0-0.0", "time_elapsed": 1379352, "key_press": -1, "type": "FIXATION", "trial_index": 88}, "uniqueid": "MTK3755:37QW5D2ZRHTMZ2ARD4V3ZGW6OAUS8V", "dateTime": 1521213090379}, {"current_trial": 89, "trialdata": {"rt": -1, "trial_type": "single-stim", "word": "dorm", "stimulus": "<p id=\"stim\">DORM</p>", "conditions": [12, 800, "v", 24000], "internal_node_id": "0.0-62.0", "trial": 2, "time_elapsed": 1380155, "serialpos": 0, "key_press": -1, "wordID": 487, "type": "PRES_VIS", "trial_index": 89}, "uniqueid": "MTK3755:37QW5D2ZRHTMZ2ARD4V3ZGW6OAUS8V", "dateTime": 1521213091182}, {"current_trial": 90, "trialdata": {"rt": -1, "trial_type": "single-stim", "word": "coffee", "stimulus": "<p id=\"stim\">COFFEE</p>", "conditions": [12, 800, "v", 24000], "internal_node_id": "0.0-63.0", "trial": 2, "time_elapsed": 1382078, "serialpos": 1, "key_press": -1, "wordID": 340, "type": "PRES_VIS", "trial_index": 90}, "uniqueid": "MTK3755:37QW5D2ZRHTMZ2ARD4V3ZGW6OAUS8V", "dateTime": 1521213093105}, {"current_trial": 91, "trialdata": {"rt": -1, "trial_type": "single-stim", "word": "lightning", "stimulus": "<p id=\"stim\">LIGHTNING</p>", "conditions": [12, 800, "v", 24000], "internal_node_id": "0.0-64.0", "trial": 2, "time_elapsed": 1383712, "serialpos": 2, "key_press": -1, "wordID": 819, "type": "PRES_VIS", "trial_index": 91}, "uniqueid": "MTK3755:37QW5D2ZRHTMZ2ARD4V3ZGW6OAUS8V", "dateTime": 1521213094739}, {"current_trial": 92, "trialdata": {"rt": -1, "trial_type": "single-stim", "word": "flesh", "stimulus": "<p id=\"stim\">FLESH</p>", "conditions": [12, 800, "v", 24000], "internal_node_id": "0.0-65.0", "trial": 2, "time_elapsed": 1385663, "serialpos": 3, "key_press": -1, "wordID": 578, "type": "PRES_VIS", "trial_index": 92}, "uniqueid": "MTK3755:37QW5D2ZRHTMZ2ARD4V3ZGW6OAUS8V", "dateTime": 1521213096690}, {"current_trial": 93, "trialdata": {"rt": -1, "trial_type": "single-stim", "word": "marker", "stimulus": "<p id=\"stim\">MARKER</p>", "conditions": [12, 800, "v", 24000], "internal_node_id": "0.0-66.0", "trial": 2, "time_elapsed": 1387553, "serialpos": 4, "key_press": -1, "wordID": 869, "type": "PRES_VIS", "trial_index": 93}, "uniqueid": "MTK3755:37QW5D2ZRHTMZ2ARD4V3ZGW6OAUS8V", "dateTime": 1521213098580}, {"current_trial": 94, "trialdata": {"rt": -1, "trial_type": "single-stim", "word": "dress", "stimulus": "<p id=\"stim\">DRESS</p>", "conditions": [12, 800, "v", 24000], "internal_node_id": "0.0-67.0", "trial": 2, "time_elapsed": 1389164, "serialpos": 5, "key_press": -1, "wordID": 494, "type": "PRES_VIS", "trial_index": 94}, "uniqueid": "MTK3755:37QW5D2ZRHTMZ2ARD4V3ZGW6OAUS8V", "dateTime": 1521213100191}, {"current_trial": 95, "trialdata": {"rt": -1, "trial_type": "single-stim", "word": "basement", "stimulus": "<p id=\"stim\">BASEMENT</p>", "conditions": [12, 800, "v", 24000], "internal_node_id": "0.0-68.0", "trial": 2, "time_elapsed": 1391122, "serialpos": 6, "key_press": -1, "wordID": 93, "type": "PRES_VIS", "trial_index": 95}, "uniqueid": "MTK3755:37QW5D2ZRHTMZ2ARD4V3ZGW6OAUS8V", "dateTime": 1521213102149}, {"current_trial": 96, "trialdata": {"rt": -1, "trial_type": "single-stim", "word": "cellar", "stimulus": "<p id=\"stim\">CELLAR</p>", "conditions": [12, 800, "v", 24000], "internal_node_id": "0.0-69.0", "trial": 2, "time_elapsed": 1392913, "serialpos": 7, "key_press": -1, "wordID": 266, "type": "PRES_VIS", "trial_index": 96}, "uniqueid": "MTK3755:37QW5D2ZRHTMZ2ARD4V3ZGW6OAUS8V", "dateTime": 1521213103940}, {"current_trial": 97, "trialdata": {"rt": -1, "trial_type": "single-stim", "word": "ground", "stimulus": "<p id=\"stim\">GROUND</p>", "conditions": [12, 800, "v", 24000], "internal_node_id": "0.0-70.0", "trial": 2, "time_elapsed": 1394624, "serialpos": 8, "key_press": -1, "wordID": 665, "type": "PRES_VIS", "trial_index": 97}, "uniqueid": "MTK3755:37QW5D2ZRHTMZ2ARD4V3ZGW6OAUS8V", "dateTime": 1521213105651}, {"current_trial": 98, "trialdata": {"rt": -1, "trial_type": "single-stim", "word": "denim", "stimulus": "<p id=\"stim\">DENIM</p>", "conditions": [12, 800, "v", 24000], "internal_node_id": "0.0-71.0", "trial": 2, "time_elapsed": 1396299, "serialpos": 9, "key_press": -1, "wordID": 445, "type": "PRES_VIS", "trial_index": 98}, "uniqueid": "MTK3755:37QW5D2ZRHTMZ2ARD4V3ZGW6OAUS8V", "dateTime": 1521213107326}, {"current_trial": 99, "trialdata": {"rt": -1, "trial_type": "single-stim", "word": "stove", "stimulus": "<p id=\"stim\">STOVE</p>", "conditions": [12, 800, "v", 24000], "internal_node_id": "0.0-72.0", "trial": 2, "time_elapsed": 1397946, "serialpos": 10, "key_press": -1, "wordID": 1387, "type": "PRES_VIS", "trial_index": 99}, "uniqueid": "MTK3755:37QW5D2ZRHTMZ2ARD4V3ZGW6OAUS8V", "dateTime": 1521213108973}, {"current_trial": 100, "trialdata": {"rt": -1, "trial_type": "single-stim", "word": "ulcer", "stimulus": "<p id=\"stim\">ULCER</p>", "conditions": [12, 800, "v", 24000], "internal_node_id": "0.0-73.0", "trial": 2, "time_elapsed": 1399943, "serialpos": 11, "key_press": -1, "wordID": 1532, "type": "PRES_VIS", "trial_index": 100}, "uniqueid": "MTK3755:37QW5D2ZRHTMZ2ARD4V3ZGW6OAUS8V", "dateTime": 1521213110970}, {"current_trial": 101, "trialdata": {"rt": -1, "trial_type": "single-stim", "stimulus": "", "internal_node_id": "0.0-74.0-0.0", "time_elapsed": 1402176, "key_press": -1, "type": "PRE_RECALL_DELAY", "trial_index": 101}, "uniqueid": "MTK3755:37QW5D2ZRHTMZ2ARD4V3ZGW6OAUS8V", "dateTime": 1521213113203}, {"current_trial": 102, "trialdata": {"rt": -1000, "trial_type": "single-audio", "stimulus": "/static/audio/400Hz.wav", "internal_node_id": "0.0-75.0", "time_elapsed": 1402681, "key_press": -1, "type": "PRE_RECALL_ALERT", "trial_index": 102}, "uniqueid": "MTK3755:37QW5D2ZRHTMZ2ARD4V3ZGW6OAUS8V", "dateTime": 1521213113709}, {"current_trial": 103, "trialdata": {"rt": [4361, 6152, 8897, 12233, 16320, 19257, 23369, 26048, 31408, 38088], "recwords": ["dorm", "coffee", "dress", "flightening", "ground", "ulcer", "flesh", "cellar", "ulcer", "stove"], "key_times": [3339, 3514, 3601, 3785, 4361, 4809, 4898, 5074, 5249, 5561, 5738, 6152, 7778, 7937, 8065, 8321, 8482, 8897, 9961, 10114, 10354, 10538, 10697, 10842, 11138, 11305, 11522, 11681, 11817, 12233, 14619, 14833, 14994, 15105, 15378, 15690, 16320, 17697, 17978, 18226, 18505, 18609, 19257, 20497, 20689, 21522, 21673, 22057, 22386, 22530, 22778, 22921, 23369, 24826, 25049, 25161, 25338, 25458, 25530, 26048, 30289, 30536, 30736, 31017, 31105, 31408, 37274, 37449, 37537, 37737, 37937, 38088], "trial_type": "free-recall", "conditions": [12, 800, "v", 24000], "internal_node_id": "0.0-76.0-0.0", "key_presses": [68, 79, 82, 77, 13, 67, 79, 70, 70, 69, 69, 13, 68, 82, 69, 83, 83, 13, 70, 76, 73, 71, 72, 84, 69, 78, 73, 78, 71, 13, 71, 82, 79, 85, 78, 68, 13, 85, 76, 67, 69, 82, 13, 76, 73, 8, 8, 70, 76, 69, 83, 72, 13, 67, 69, 76, 76, 65, 82, 13, 85, 76, 67, 69, 82, 13, 83, 84, 79, 86, 69, 13], "trial": 2, "time_elapsed": 1462685, "type": "FREE_RECALL", "trial_index": 103}, "uniqueid": "MTK3755:37QW5D2ZRHTMZ2ARD4V3ZGW6OAUS8V", "dateTime": 1521213173718}, {"current_trial": 104, "trialdata": {"rt": 1481, "trial_type": "text", "internal_node_id": "0.0-77.0", "time_elapsed": 1466174, "key_press": 32, "type": "INSTRUCTIONS", "trial_index": 104}, "uniqueid": "MTK3755:37QW5D2ZRHTMZ2ARD4V3ZGW6OAUS8V", "dateTime": 1521213177201}, {"current_trial": 105, "trialdata": {"rt": [3899, 7539, 9459, 11579, 13379, 16203, 18820, 21260, 23644], "trial_type": "math-distractor", "key_times": [3020, 3188, 3899, 6780, 6964, 7539, 8749, 9029, 9459, 10925, 11172, 11579, 12708, 13028, 13379, 15556, 15820, 16203, 17860, 18820, 20644, 20852, 21260, 22996, 23196, 23644], "responses": ["11", "15", "17", "15", "13", "13", "7", "16", "16"], "num2": [2, 7, 8, 7, 1, 1, 4, 8, 1, 9], "num3": [2, 4, 1, 5, 3, 7, 1, 6, 7, 6], "conditions": [24, 1600, "v", 24000], "internal_node_id": "0.0-78.0", "key_presses": [97, 97, 13, 97, 101, 13, 97, 103, 13, 97, 101, 13, 97, 99, 13, 97, 99, 13, 103, 13, 97, 102, 13, 97, 102, 13], "trial": 3, "time_elapsed": 1492178, "type": "DISTRACTOR", "trial_index": 105, "num1": [7, 4, 8, 3, 9, 5, 2, 2, 8, 2]}, "uniqueid": "MTK3755:37QW5D2ZRHTMZ2ARD4V3ZGW6OAUS8V", "dateTime": 1521213203205}, {"current_trial": 106, "trialdata": {"rt": -1, "trial_type": "single-stim", "stimulus": "<p id=\"stim\">10</p>", "internal_node_id": "0.0-79.0-0.0", "time_elapsed": 1495180, "key_press": -1, "trial_index": 106}, "uniqueid": "MTK3755:37QW5D2ZRHTMZ2ARD4V3ZGW6OAUS8V", "dateTime": 1521213206207}, {"current_trial": 107, "trialdata": {"rt": -1, "trial_type": "single-stim", "stimulus": "<p id=\"stim\">9</p>", "internal_node_id": "0.0-79.0-1.0", "time_elapsed": 1496182, "key_press": -1, "trial_index": 107}, "uniqueid": "MTK3755:37QW5D2ZRHTMZ2ARD4V3ZGW6OAUS8V", "dateTime": 1521213207209}, {"current_trial": 108, "trialdata": {"rt": -1, "trial_type": "single-stim", "stimulus": "<p id=\"stim\">8</p>", "internal_node_id": "0.0-79.0-2.0", "time_elapsed": 1497184, "key_press": -1, "trial_index": 108}, "uniqueid": "MTK3755:37QW5D2ZRHTMZ2ARD4V3ZGW6OAUS8V", "dateTime": 1521213208211}, {"current_trial": 109, "trialdata": {"rt": -1, "trial_type": "single-stim", "stimulus": "<p id=\"stim\">7</p>", "internal_node_id": "0.0-79.0-3.0", "time_elapsed": 1498186, "key_press": -1, "trial_index": 109}, "uniqueid": "MTK3755:37QW5D2ZRHTMZ2ARD4V3ZGW6OAUS8V", "dateTime": 1521213209213}, {"current_trial": 110, "trialdata": {"rt": -1, "trial_type": "single-stim", "stimulus": "<p id=\"stim\">6</p>", "internal_node_id": "0.0-79.0-4.0", "time_elapsed": 1499188, "key_press": -1, "trial_index": 110}, "uniqueid": "MTK3755:37QW5D2ZRHTMZ2ARD4V3ZGW6OAUS8V", "dateTime": 1521213210215}, {"current_trial": 111, "trialdata": {"rt": -1, "trial_type": "single-stim", "stimulus": "<p id=\"stim\">5</p>", "internal_node_id": "0.0-79.0-5.0", "time_elapsed": 1500191, "key_press": -1, "trial_index": 111}, "uniqueid": "MTK3755:37QW5D2ZRHTMZ2ARD4V3ZGW6OAUS8V", "dateTime": 1521213211218}, {"current_trial": 112, "trialdata": {"rt": -1, "trial_type": "single-stim", "stimulus": "<p id=\"stim\">4</p>", "internal_node_id": "0.0-79.0-6.0", "time_elapsed": 1501193, "key_press": -1, "trial_index": 112}, "uniqueid": "MTK3755:37QW5D2ZRHTMZ2ARD4V3ZGW6OAUS8V", "dateTime": 1521213212221}, {"current_trial": 113, "trialdata": {"rt": -1, "trial_type": "single-stim", "stimulus": "<p id=\"stim\">3</p>", "internal_node_id": "0.0-79.0-7.0", "time_elapsed": 1502195, "key_press": -1, "trial_index": 113}, "uniqueid": "MTK3755:37QW5D2ZRHTMZ2ARD4V3ZGW6OAUS8V", "dateTime": 1521213213222}, {"current_trial": 114, "trialdata": {"rt": -1, "trial_type": "single-stim", "stimulus": "<p id=\"stim\">2</p>", "internal_node_id": "0.0-79.0-8.0", "time_elapsed": 1503198, "key_press": -1, "trial_index": 114}, "uniqueid": "MTK3755:37QW5D2ZRHTMZ2ARD4V3ZGW6OAUS8V", "dateTime": 1521213214225}, {"current_trial": 115, "trialdata": {"rt": -1, "trial_type": "single-stim", "stimulus": "<p id=\"stim\">1</p>", "internal_node_id": "0.0-79.0-9.0", "time_elapsed": 1504200, "key_press": -1, "trial_index": 115}, "uniqueid": "MTK3755:37QW5D2ZRHTMZ2ARD4V3ZGW6OAUS8V", "dateTime": 1521213215227}, {"current_trial": 116, "trialdata": {"rt": -1, "trial_type": "single-stim", "stimulus": "<p id=\"stim\">+</p>", "internal_node_id": "0.0-80.0-0.0", "time_elapsed": 1505702, "key_press": -1, "type": "FIXATION", "trial_index": 116}, "uniqueid": "MTK3755:37QW5D2ZRHTMZ2ARD4V3ZGW6OAUS8V", "dateTime": 1521213216729}, {"current_trial": 117, "trialdata": {"rt": -1, "trial_type": "single-stim", "word": "slug", "stimulus": "<p id=\"stim\">SLUG</p>", "conditions": [24, 1600, "v", 24000], "internal_node_id": "0.0-81.0", "trial": 3, "time_elapsed": 1507303, "serialpos": 0, "key_press": -1, "wordID": 1328, "type": "PRES_VIS", "trial_index": 117}, "uniqueid": "MTK3755:37QW5D2ZRHTMZ2ARD4V3ZGW6OAUS8V", "dateTime": 1521213218330}, {"current_trial": 118, "trialdata": {"rt": -1, "trial_type": "single-stim", "word": "grape", "stimulus": "<p id=\"stim\">GRAPE</p>", "conditions": [24, 1600, "v", 24000], "internal_node_id": "0.0-82.0", "trial": 3, "time_elapsed": 1509831, "serialpos": 1, "key_press": -1, "wordID": 653, "type": "PRES_VIS", "trial_index": 118}, "uniqueid": "MTK3755:37QW5D2ZRHTMZ2ARD4V3ZGW6OAUS8V", "dateTime": 1521213220858}, {"current_trial": 119, "trialdata": {"rt": -1, "trial_type": "single-stim", "word": "rooster", "stimulus": "<p id=\"stim\">ROOSTER</p>", "conditions": [24, 1600, "v", 24000], "internal_node_id": "0.0-83.0", "trial": 3, "time_elapsed": 1512631, "serialpos": 2, "key_press": -1, "wordID": 1208, "type": "PRES_VIS", "trial_index": 119}, "uniqueid": "MTK3755:37QW5D2ZRHTMZ2ARD4V3ZGW6OAUS8V", "dateTime": 1521213223658}, {"current_trial": 120, "trialdata": {"rt": -1, "trial_type": "single-stim", "word": "palace", "stimulus": "<p id=\"stim\">PALACE</p>", "conditions": [24, 1600, "v", 24000], "internal_node_id": "0.0-84.0", "trial": 3, "time_elapsed": 1515424, "serialpos": 3, "key_press": -1, "wordID": 1005, "type": "PRES_VIS", "trial_index": 120}, "uniqueid": "MTK3755:37QW5D2ZRHTMZ2ARD4V3ZGW6OAUS8V", "dateTime": 1521213226452}, {"current_trial": 121, "trialdata": {"rt": -1, "trial_type": "single-stim", "word": "hero", "stimulus": "<p id=\"stim\">HERO</p>", "conditions": [24, 1600, "v", 24000], "internal_node_id": "0.0-85.0", "trial": 3, "time_elapsed": 1517915, "serialpos": 4, "key_press": -1, "wordID": 705, "type": "PRES_VIS", "trial_index": 121}, "uniqueid": "MTK3755:37QW5D2ZRHTMZ2ARD4V3ZGW6OAUS8V", "dateTime": 1521213228942}, {"current_trial": 122, "trialdata": {"rt": -1, "trial_type": "single-stim", "word": "farmer", "stimulus": "<p id=\"stim\">FARMER</p>", "conditions": [24, 1600, "v", 24000], "internal_node_id": "0.0-86.0", "trial": 3, "time_elapsed": 1520381, "serialpos": 5, "key_press": -1, "wordID": 552, "type": "PRES_VIS", "trial_index": 122}, "uniqueid": "MTK3755:37QW5D2ZRHTMZ2ARD4V3ZGW6OAUS8V", "dateTime": 1521213231408}, {"current_trial": 123, "trialdata": {"rt": -1, "trial_type": "single-stim", "word": "virus", "stimulus": "<p id=\"stim\">VIRUS</p>", "conditions": [24, 1600, "v", 24000], "internal_node_id": "0.0-87.0", "trial": 3, "time_elapsed": 1522858, "serialpos": 6, "key_press": -1, "wordID": 1571, "type": "PRES_VIS", "trial_index": 123}, "uniqueid": "MTK3755:37QW5D2ZRHTMZ2ARD4V3ZGW6OAUS8V", "dateTime": 1521213233885}, {"current_trial": 124, "trialdata": {"rt": -1, "trial_type": "single-stim", "word": "shoulder", "stimulus": "<p id=\"stim\">SHOULDER</p>", "conditions": [24, 1600, "v", 24000], "internal_node_id": "0.0-88.0", "trial": 3, "time_elapsed": 1525503, "serialpos": 7, "key_press": -1, "wordID": 1293, "type": "PRES_VIS", "trial_index": 124}, "uniqueid": "MTK3755:37QW5D2ZRHTMZ2ARD4V3ZGW6OAUS8V", "dateTime": 1521213236531}, {"current_trial": 125, "trialdata": {"rt": -1, "trial_type": "single-stim", "word": "arm", "stimulus": "<p id=\"stim\">ARM</p>", "conditions": [24, 1600, "v", 24000], "internal_node_id": "0.0-89.0", "trial": 3, "time_elapsed": 1528004, "serialpos": 8, "key_press": -1, "wordID": 37, "type": "PRES_VIS", "trial_index": 125}, "uniqueid": "MTK3755:37QW5D2ZRHTMZ2ARD4V3ZGW6OAUS8V", "dateTime": 1521213239031}, {"current_trial": 126, "trialdata": {"rt": -1, "trial_type": "single-stim", "word": "parrot", "stimulus": "<p id=\"stim\">PARROT</p>", "conditions": [24, 1600, "v", 24000], "internal_node_id": "0.0-90.0", "trial": 3, "time_elapsed": 1530773, "serialpos": 9, "key_press": -1, "wordID": 1014, "type": "PRES_VIS", "trial_index": 126}, "uniqueid": "MTK3755:37QW5D2ZRHTMZ2ARD4V3ZGW6OAUS8V", "dateTime": 1521213241800}, {"current_trial": 127, "trialdata": {"rt": -1, "trial_type": "single-stim", "word": "queen", "stimulus": "<p id=\"stim\">QUEEN</p>", "conditions": [24, 1600, "v", 24000], "internal_node_id": "0.0-91.0", "trial": 3, "time_elapsed": 1533463, "serialpos": 10, "key_press": -1, "wordID": 1148, "type": "PRES_VIS", "trial_index": 127}, "uniqueid": "MTK3755:37QW5D2ZRHTMZ2ARD4V3ZGW6OAUS8V", "dateTime": 1521213244491}, {"current_trial": 128, "trialdata": {"rt": -1, "trial_type": "single-stim", "word": "mummy", "stimulus": "<p id=\"stim\">MUMMY</p>", "conditions": [24, 1600, "v", 24000], "internal_node_id": "0.0-92.0", "trial": 3, "time_elapsed": 1536067, "serialpos": 11, "key_press": -1, "wordID": 931, "type": "PRES_VIS", "trial_index": 128}, "uniqueid": "MTK3755:37QW5D2ZRHTMZ2ARD4V3ZGW6OAUS8V", "dateTime": 1521213247094}, {"current_trial": 129, "trialdata": {"rt": -1, "trial_type": "single-stim", "word": "sponge", "stimulus": "<p id=\"stim\">SPONGE</p>", "conditions": [24, 1600, "v", 24000], "internal_node_id": "0.0-93.0", "trial": 3, "time_elapsed": 1538810, "serialpos": 12, "key_press": -1, "wordID": 1354, "type": "PRES_VIS", "trial_index": 129}, "uniqueid": "MTK3755:37QW5D2ZRHTMZ2ARD4V3ZGW6OAUS8V", "dateTime": 1521213249837}, {"current_trial": 130, "trialdata": {"rt": -1, "trial_type": "single-stim", "word": "badge", "stimulus": "<p id=\"stim\">BADGE</p>", "conditions": [24, 1600, "v", 24000], "internal_node_id": "0.0-94.0", "trial": 3, "time_elapsed": 1541543, "serialpos": 13, "key_press": -1, "wordID": 67, "type": "PRES_VIS", "trial_index": 130}, "uniqueid": "MTK3755:37QW5D2ZRHTMZ2ARD4V3ZGW6OAUS8V", "dateTime": 1521213252570}, {"current_trial": 131, "trialdata": {"rt": -1, "trial_type": "single-stim", "word": "crevice", "stimulus": "<p id=\"stim\">CREVICE</p>", "conditions": [24, 1600, "v", 24000], "internal_node_id": "0.0-95.0", "trial": 3, "time_elapsed": 1544158, "serialpos": 14, "key_press": -1, "wordID": 404, "type": "PRES_VIS", "trial_index": 131}, "uniqueid": "MTK3755:37QW5D2ZRHTMZ2ARD4V3ZGW6OAUS8V", "dateTime": 1521213255185}, {"current_trial": 132, "trialdata": {"rt": -1, "trial_type": "single-stim", "word": "dancer", "stimulus": "<p id=\"stim\">DANCER</p>", "conditions": [24, 1600, "v", 24000], "internal_node_id": "0.0-96.0", "trial": 3, "time_elapsed": 1546794, "serialpos": 15, "key_press": -1, "wordID": 436, "type": "PRES_VIS", "trial_index": 132}, "uniqueid": "MTK3755:37QW5D2ZRHTMZ2ARD4V3ZGW6OAUS8V", "dateTime": 1521213257821}, {"current_trial": 133, "trialdata": {"rt": -1, "trial_type": "single-stim", "word": "lake", "stimulus": "<p id=\"stim\">LAKE</p>", "conditions": [24, 1600, "v", 24000], "internal_node_id": "0.0-97.0", "trial": 3, "time_elapsed": 1549223, "serialpos": 16, "key_press": -1, "wordID": 795, "type": "PRES_VIS", "trial_index": 133}, "uniqueid": "MTK3755:37QW5D2ZRHTMZ2ARD4V3ZGW6OAUS8V", "dateTime": 1521213260250}, {"current_trial": 134, "trialdata": {"rt": -1, "trial_type": "single-stim", "word": "lava", "stimulus": "<p id=\"stim\">LAVA</p>", "conditions": [24, 1600, "v", 24000], "internal_node_id": "0.0-98.0", "trial": 3, "time_elapsed": 1551886, "serialpos": 17, "key_press": -1, "wordID": 803, "type": "PRES_VIS", "trial_index": 134}, "uniqueid": "MTK3755:37QW5D2ZRHTMZ2ARD4V3ZGW6OAUS8V", "dateTime": 1521213262913}, {"current_trial": 135, "trialdata": {"rt": -1, "trial_type": "single-stim", "word": "film", "stimulus": "<p id=\"stim\">FILM</p>", "conditions": [24, 1600, "v", 24000], "internal_node_id": "0.0-99.0", "trial": 3, "time_elapsed": 1554655, "serialpos": 18, "key_press": -1, "wordID": 564, "type": "PRES_VIS", "trial_index": 135}, "uniqueid": "MTK3755:37QW5D2ZRHTMZ2ARD4V3ZGW6OAUS8V", "dateTime": 1521213265683}, {"current_trial": 136, "trialdata": {"rt": -1, "trial_type": "single-stim", "word": "raft", "stimulus": "<p id=\"stim\">RAFT</p>", "conditions": [24, 1600, "v", 24000], "internal_node_id": "0.0-100.0", "trial": 3, "time_elapsed": 1557203, "serialpos": 19, "key_press": -1, "wordID": 1158, "type": "PRES_VIS", "trial_index": 136}, "uniqueid": "MTK3755:37QW5D2ZRHTMZ2ARD4V3ZGW6OAUS8V", "dateTime": 1521213268230}, {"current_trial": 137, "trialdata": {"rt": -1, "trial_type": "single-stim", "word": "sticker", "stimulus": "<p id=\"stim\">STICKER</p>", "conditions": [24, 1600, "v", 24000], "internal_node_id": "0.0-101.0", "trial": 3, "time_elapsed": 1559935, "serialpos": 20, "key_press": -1, "wordID": 1381, "type": "PRES_VIS", "trial_index": 137}, "uniqueid": "MTK3755:37QW5D2ZRHTMZ2ARD4V3ZGW6OAUS8V", "dateTime": 1521213270962}, {"current_trial": 138, "trialdata": {"rt": -1, "trial_type": "single-stim", "word": "mildew", "stimulus": "<p id=\"stim\">MILDEW</p>", "conditions": [24, 1600, "v", 24000], "internal_node_id": "0.0-102.0", "trial": 3, "time_elapsed": 1562653, "serialpos": 21, "key_press": -1, "wordID": 892, "type": "PRES_VIS", "trial_index": 138}, "uniqueid": "MTK3755:37QW5D2ZRHTMZ2ARD4V3ZGW6OAUS8V", "dateTime": 1521213273680}, {"current_trial": 139, "trialdata": {"rt": -1, "trial_type": "single-stim", "word": "fungus", "stimulus": "<p id=\"stim\">FUNGUS</p>", "conditions": [24, 1600, "v", 24000], "internal_node_id": "0.0-103.0", "trial": 3, "time_elapsed": 1565149, "serialpos": 22, "key_press": -1, "wordID": 613, "type": "PRES_VIS", "trial_index": 139}, "uniqueid": "MTK3755:37QW5D2ZRHTMZ2ARD4V3ZGW6OAUS8V", "dateTime": 1521213276177}, {"current_trial": 140, "trialdata": {"rt": -1, "trial_type": "single-stim", "word": "cobra", "stimulus": "<p id=\"stim\">COBRA</p>", "conditions": [24, 1600, "v", 24000], "internal_node_id": "0.0-104.0", "trial": 3, "time_elapsed": 1567613, "serialpos": 23, "key_press": -1, "wordID": 335, "type": "PRES_VIS", "trial_index": 140}, "uniqueid": "MTK3755:37QW5D2ZRHTMZ2ARD4V3ZGW6OAUS8V", "dateTime": 1521213278640}, {"current_trial": 141, "trialdata": {"rt": -1, "trial_type": "single-stim", "stimulus": "", "internal_node_id": "0.0-105.0-0.0", "time_elapsed": 1569853, "key_press": -1, "type": "PRE_RECALL_DELAY", "trial_index": 141}, "uniqueid": "MTK3755:37QW5D2ZRHTMZ2ARD4V3ZGW6OAUS8V", "dateTime": 1521213280880}, {"current_trial": 142, "trialdata": {"rt": -1000, "trial_type": "single-audio", "stimulus": "/static/audio/400Hz.wav", "internal_node_id": "0.0-106.0", "time_elapsed": 1570357, "key_press": -1, "type": "PRE_RECALL_ALERT", "trial_index": 142}, "uniqueid": "MTK3755:37QW5D2ZRHTMZ2ARD4V3ZGW6OAUS8V", "dateTime": 1521213281384}, {"current_trial": 143, "trialdata": {"rt": [5949, 8332, 10141, 12436, 15508, 18244, 22173, 26276, 27716, 30371, 32916, 35092, 39011, 44995, 49963, 56580], "recwords": ["grape", "rooster", "hero", "farmer", "palace", "arm", "parrott", "queen", "lake", "lava", "raft", "cobra", "slug", "sticker", "arm", "queen"], "key_times": [4302, 4637, 4886, 5086, 5301, 5949, 6853, 6997, 7181, 7421, 7740, 7933, 8053, 8332, 9173, 9309, 9430, 9629, 10141, 10846, 11325, 11445, 11725, 11901, 11981, 12436, 13141, 13380, 13549, 13789, 14077, 14317, 15508, 17612, 17693, 17885, 18244, 19277, 19557, 19717, 19893, 20069, 20390, 21565, 22173, 24593, 24757, 24966, 25412, 25764, 26276, 27060, 27261, 27381, 27485, 27716, 28333, 28565, 28844, 29069, 29612, 29812, 30371, 31764, 31957, 32164, 32397, 32916, 33693, 33845, 34068, 34325, 34549, 35092, 38133, 38244, 38364, 38445, 39011, 42356, 42541, 42668, 42908, 43037, 43197, 43300, 44995, 45765, 45844, 45964, 49963, 52852, 53005, 53205, 53364, 53492, 56580], "trial_type": "free-recall", "conditions": [24, 1600, "v", 24000], "internal_node_id": "0.0-107.0-0.0", "key_presses": [71, 82, 65, 80, 69, 13, 82, 79, 79, 83, 84, 69, 82, 13, 72, 69, 82, 79, 13, 70, 65, 82, 77, 69, 82, 13, 80, 65, 76, 65, 67, 69, 13, 65, 82, 77, 13, 80, 65, 82, 82, 79, 84, 84, 13, 81, 85, 69, 69, 78, 13, 76, 65, 75, 69, 13, 76, 65, 86, 69, 8, 65, 13, 82, 65, 70, 84, 13, 67, 79, 66, 82, 65, 13, 83, 76, 85, 71, 13, 83, 84, 73, 67, 75, 69, 82, 13, 65, 82, 77, 13, 81, 85, 69, 69, 78, 13], "trial": 3, "time_elapsed": 1630362, "type": "FREE_RECALL", "trial_index": 143}, "uniqueid": "MTK3755:37QW5D2ZRHTMZ2ARD4V3ZGW6OAUS8V", "dateTime": 1521213341396}, {"current_trial": 144, "trialdata": {"rt": 1865, "trial_type": "text", "internal_node_id": "0.0-108.0", "time_elapsed": 1634236, "key_press": 32, "type": "INSTRUCTIONS", "trial_index": 144}, "uniqueid": "MTK3755:37QW5D2ZRHTMZ2ARD4V3ZGW6OAUS8V", "dateTime": 1521213345263}, {"current_trial": 145, "trialdata": {"rt": [3171, 5436, 7931, 11236], "trial_type": "math-distractor", "key_times": [2373, 2572, 3171, 4749, 5037, 5436, 7381, 7621, 7931, 10388, 10620, 11236], "responses": ["21", "17", "20", "20"], "num2": [7, 7, 4, 9, 3], "num3": [8, 1, 7, 8, 4], "conditions": [12, 1600, "v", 12000], "internal_node_id": "0.0-109.0", "key_presses": [98, 97, 13, 97, 103, 13, 98, 96, 13, 98, 96, 13], "trial": 4, "time_elapsed": 1648240, "type": "DISTRACTOR", "trial_index": 145, "num1": [6, 9, 9, 3, 7]}, "uniqueid": "MTK3755:37QW5D2ZRHTMZ2ARD4V3ZGW6OAUS8V", "dateTime": 1521213359267}, {"current_trial": 146, "trialdata": {"rt": -1, "trial_type": "single-stim", "stimulus": "<p id=\"stim\">10</p>", "internal_node_id": "0.0-110.0-0.0", "time_elapsed": 1651243, "key_press": -1, "trial_index": 146}, "uniqueid": "MTK3755:37QW5D2ZRHTMZ2ARD4V3ZGW6OAUS8V", "dateTime": 1521213362270}, {"current_trial": 147, "trialdata": {"rt": -1, "trial_type": "single-stim", "stimulus": "<p id=\"stim\">9</p>", "internal_node_id": "0.0-110.0-1.0", "time_elapsed": 1652245, "key_press": -1, "trial_index": 147}, "uniqueid": "MTK3755:37QW5D2ZRHTMZ2ARD4V3ZGW6OAUS8V", "dateTime": 1521213363272}, {"current_trial": 148, "trialdata": {"rt": -1, "trial_type": "single-stim", "stimulus": "<p id=\"stim\">8</p>", "internal_node_id": "0.0-110.0-2.0", "time_elapsed": 1653247, "key_press": -1, "trial_index": 148}, "uniqueid": "MTK3755:37QW5D2ZRHTMZ2ARD4V3ZGW6OAUS8V", "dateTime": 1521213364274}, {"current_trial": 149, "trialdata": {"rt": -1, "trial_type": "single-stim", "stimulus": "<p id=\"stim\">7</p>", "internal_node_id": "0.0-110.0-3.0", "time_elapsed": 1654248, "key_press": -1, "trial_index": 149}, "uniqueid": "MTK3755:37QW5D2ZRHTMZ2ARD4V3ZGW6OAUS8V", "dateTime": 1521213365275}, {"current_trial": 150, "trialdata": {"rt": -1, "trial_type": "single-stim", "stimulus": "<p id=\"stim\">6</p>", "internal_node_id": "0.0-110.0-4.0", "time_elapsed": 1655250, "key_press": -1, "trial_index": 150}, "uniqueid": "MTK3755:37QW5D2ZRHTMZ2ARD4V3ZGW6OAUS8V", "dateTime": 1521213366277}, {"current_trial": 151, "trialdata": {"rt": -1, "trial_type": "single-stim", "stimulus": "<p id=\"stim\">5</p>", "internal_node_id": "0.0-110.0-5.0", "time_elapsed": 1656253, "key_press": -1, "trial_index": 151}, "uniqueid": "MTK3755:37QW5D2ZRHTMZ2ARD4V3ZGW6OAUS8V", "dateTime": 1521213367280}, {"current_trial": 152, "trialdata": {"rt": -1, "trial_type": "single-stim", "stimulus": "<p id=\"stim\">4</p>", "internal_node_id": "0.0-110.0-6.0", "time_elapsed": 1657254, "key_press": -1, "trial_index": 152}, "uniqueid": "MTK3755:37QW5D2ZRHTMZ2ARD4V3ZGW6OAUS8V", "dateTime": 1521213368281}, {"current_trial": 153, "trialdata": {"rt": -1, "trial_type": "single-stim", "stimulus": "<p id=\"stim\">3</p>", "internal_node_id": "0.0-110.0-7.0", "time_elapsed": 1658257, "key_press": -1, "trial_index": 153}, "uniqueid": "MTK3755:37QW5D2ZRHTMZ2ARD4V3ZGW6OAUS8V", "dateTime": 1521213369284}, {"current_trial": 154, "trialdata": {"rt": -1, "trial_type": "single-stim", "stimulus": "<p id=\"stim\">2</p>", "internal_node_id": "0.0-110.0-8.0", "time_elapsed": 1659258, "key_press": -1, "trial_index": 154}, "uniqueid": "MTK3755:37QW5D2ZRHTMZ2ARD4V3ZGW6OAUS8V", "dateTime": 1521213370285}, {"current_trial": 155, "trialdata": {"rt": -1, "trial_type": "single-stim", "stimulus": "<p id=\"stim\">1</p>", "internal_node_id": "0.0-110.0-9.0", "time_elapsed": 1660260, "key_press": -1, "trial_index": 155}, "uniqueid": "MTK3755:37QW5D2ZRHTMZ2ARD4V3ZGW6OAUS8V", "dateTime": 1521213371288}, {"current_trial": 156, "trialdata": {"rt": -1, "trial_type": "single-stim", "stimulus": "<p id=\"stim\">+</p>", "internal_node_id": "0.0-111.0-0.0", "time_elapsed": 1661762, "key_press": -1, "type": "FIXATION", "trial_index": 156}, "uniqueid": "MTK3755:37QW5D2ZRHTMZ2ARD4V3ZGW6OAUS8V", "dateTime": 1521213372789}, {"current_trial": 157, "trialdata": {"rt": -1, "trial_type": "single-stim", "word": "cupboard", "stimulus": "<p id=\"stim\">CUPBOARD</p>", "conditions": [12, 1600, "v", 12000], "internal_node_id": "0.0-112.0", "trial": 4, "time_elapsed": 1663364, "serialpos": 0, "key_press": -1, "wordID": 424, "type": "PRES_VIS", "trial_index": 157}, "uniqueid": "MTK3755:37QW5D2ZRHTMZ2ARD4V3ZGW6OAUS8V", "dateTime": 1521213374392}, {"current_trial": 158, "trialdata": {"rt": -1, "trial_type": "single-stim", "word": "eyelash", "stimulus": "<p id=\"stim\">EYELASH</p>", "conditions": [12, 1600, "v", 12000], "internal_node_id": "0.0-113.0", "trial": 4, "time_elapsed": 1666150, "serialpos": 1, "key_press": -1, "wordID": 545, "type": "PRES_VIS", "trial_index": 158}, "uniqueid": "MTK3755:37QW5D2ZRHTMZ2ARD4V3ZGW6OAUS8V", "dateTime": 1521213377177}, {"current_trial": 159, "trialdata": {"rt": -1, "trial_type": "single-stim", "word": "lipstick", "stimulus": "<p id=\"stim\">LIPSTICK</p>", "conditions": [12, 1600, "v", 12000], "internal_node_id": "0.0-114.0", "trial": 4, "time_elapsed": 1668844, "serialpos": 2, "key_press": -1, "wordID": 828, "type": "PRES_VIS", "trial_index": 159}, "uniqueid": "MTK3755:37QW5D2ZRHTMZ2ARD4V3ZGW6OAUS8V", "dateTime": 1521213379871}, {"current_trial": 160, "trialdata": {"rt": -1, "trial_type": "single-stim", "word": "flower", "stimulus": "<p id=\"stim\">FLOWER</p>", "conditions": [12, 1600, "v", 12000], "internal_node_id": "0.0-115.0", "trial": 4, "time_elapsed": 1671444, "serialpos": 3, "key_press": -1, "wordID": 583, "type": "PRES_VIS", "trial_index": 160}, "uniqueid": "MTK3755:37QW5D2ZRHTMZ2ARD4V3ZGW6OAUS8V", "dateTime": 1521213382471}, {"current_trial": 161, "trialdata": {"rt": -1, "trial_type": "single-stim", "word": "harp", "stimulus": "<p id=\"stim\">HARP</p>", "conditions": [12, 1600, "v", 12000], "internal_node_id": "0.0-116.0", "trial": 4, "time_elapsed": 1674238, "serialpos": 4, "key_press": -1, "wordID": 688, "type": "PRES_VIS", "trial_index": 161}, "uniqueid": "MTK3755:37QW5D2ZRHTMZ2ARD4V3ZGW6OAUS8V", "dateTime": 1521213385265}, {"current_trial": 162, "trialdata": {"rt": -1, "trial_type": "single-stim", "word": "smog", "stimulus": "<p id=\"stim\">SMOG</p>", "conditions": [12, 1600, "v", 12000], "internal_node_id": "0.0-117.0", "trial": 4, "time_elapsed": 1676733, "serialpos": 5, "key_press": -1, "wordID": 1329, "type": "PRES_VIS", "trial_index": 162}, "uniqueid": "MTK3755:37QW5D2ZRHTMZ2ARD4V3ZGW6OAUS8V", "dateTime": 1521213387760}, {"current_trial": 163, "trialdata": {"rt": -1, "trial_type": "single-stim", "word": "flashlight", "stimulus": "<p id=\"stim\">FLASHLIGHT</p>", "conditions": [12, 1600, "v", 12000], "internal_node_id": "0.0-118.0", "trial": 4, "time_elapsed": 1679140, "serialpos": 6, "key_press": -1, "wordID": 574, "type": "PRES_VIS", "trial_index": 163}, "uniqueid": "MTK3755:37QW5D2ZRHTMZ2ARD4V3ZGW6OAUS8V", "dateTime": 1521213390167}, {"current_trial": 164, "trialdata": {"rt": -1, "trial_type": "single-stim", "word": "quail", "stimulus": "<p id=\"stim\">QUAIL</p>", "conditions": [12, 1600, "v", 12000], "internal_node_id": "0.0-119.0", "trial": 4, "time_elapsed": 1681609, "serialpos": 7, "key_press": -1, "wordID": 1146, "type": "PRES_VIS", "trial_index": 164}, "uniqueid": "MTK3755:37QW5D2ZRHTMZ2ARD4V3ZGW6OAUS8V", "dateTime": 1521213392636}, {"current_trial": 165, "trialdata": {"rt": -1, "trial_type": "single-stim", "word": "dresser", "stimulus": "<p id=\"stim\">DRESSER</p>", "conditions": [12, 1600, "v", 12000], "internal_node_id": "0.0-120.0", "trial": 4, "time_elapsed": 1684178, "serialpos": 8, "key_press": -1, "wordID": 495, "type": "PRES_VIS", "trial_index": 165}, "uniqueid": "MTK3755:37QW5D2ZRHTMZ2ARD4V3ZGW6OAUS8V", "dateTime": 1521213395205}, {"current_trial": 166, "trialdata": {"rt": -1, "trial_type": "single-stim", "word": "cattle", "stimulus": "<p id=\"stim\">CATTLE</p>", "conditions": [12, 1600, "v", 12000], "internal_node_id": "0.0-121.0", "trial": 4, "time_elapsed": 1686636, "serialpos": 9, "key_press": -1, "wordID": 260, "type": "PRES_VIS", "trial_index": 166}, "uniqueid": "MTK3755:37QW5D2ZRHTMZ2ARD4V3ZGW6OAUS8V", "dateTime": 1521213397664}, {"current_trial": 167, "trialdata": {"rt": -1, "trial_type": "single-stim", "word": "beef", "stimulus": "<p id=\"stim\">BEEF</p>", "conditions": [12, 1600, "v", 12000], "internal_node_id": "0.0-122.0", "trial": 4, "time_elapsed": 1689412, "serialpos": 10, "key_press": -1, "wordID": 112, "type": "PRES_VIS", "trial_index": 167}, "uniqueid": "MTK3755:37QW5D2ZRHTMZ2ARD4V3ZGW6OAUS8V", "dateTime": 1521213400440}, {"current_trial": 168, "trialdata": {"rt": -1, "trial_type": "single-stim", "word": "permit", "stimulus": "<p id=\"stim\">PERMIT</p>", "conditions": [12, 1600, "v", 12000], "internal_node_id": "0.0-123.0", "trial": 4, "time_elapsed": 1691846, "serialpos": 11, "key_press": -1, "wordID": 1050, "type": "PRES_VIS", "trial_index": 168}, "uniqueid": "MTK3755:37QW5D2ZRHTMZ2ARD4V3ZGW6OAUS8V", "dateTime": 1521213402873}, {"current_trial": 169, "trialdata": {"rt": -1, "trial_type": "single-stim", "stimulus": "", "internal_node_id": "0.0-124.0-0.0", "time_elapsed": 1694287, "key_press": -1, "type": "PRE_RECALL_DELAY", "trial_index": 169}, "uniqueid": "MTK3755:37QW5D2ZRHTMZ2ARD4V3ZGW6OAUS8V", "dateTime": 1521213405315}, {"current_trial": 170, "trialdata": {"rt": -1000, "trial_type": "single-audio", "stimulus": "/static/audio/400Hz.wav", "internal_node_id": "0.0-125.0", "time_elapsed": 1694791, "key_press": -1, "type": "PRE_RECALL_ALERT", "trial_index": 170}, "uniqueid": "MTK3755:37QW5D2ZRHTMZ2ARD4V3ZGW6OAUS8V", "dateTime": 1521213405818}, {"current_trial": 171, "trialdata": {"rt": [6274, 9394, 11850, 14554, 17602, 21290, 26130, 32307, 51178], "recwords": ["permit", "cattle", "beef", "cupboard", "smog", "flower", "lipstick", "harp", "dress"], "key_times": [5116, 5243, 5331, 5619, 5827, 5915, 6274, 7859, 8419, 8627, 8771, 8907, 9035, 9394, 10739, 11010, 11186, 11443, 11850, 12995, 13130, 13355, 13755, 13899, 14027, 14107, 14371, 14554, 16443, 16595, 16819, 17091, 17602, 20219, 20355, 20555, 20675, 20787, 20899, 21290, 23899, 24043, 24307, 24531, 24651, 24755, 24979, 25098, 26130, 30812, 30948, 31052, 31507, 32307, 50140, 50323, 50459, 50707, 50843, 51178, 59739, 59843, 59971], "trial_type": "free-recall", "conditions": [12, 1600, "v", 12000], "internal_node_id": "0.0-126.0-0.0", "key_presses": [80, 69, 82, 77, 73, 84, 13, 67, 65, 84, 84, 76, 69, 13, 66, 69, 69, 70, 13, 67, 85, 80, 66, 79, 65, 82, 68, 13, 83, 77, 79, 71, 13, 70, 76, 79, 87, 69, 82, 13, 76, 73, 80, 83, 84, 73, 67, 75, 13, 72, 65, 82, 80, 13, 68, 82, 69, 83, 83, 13, 72, 69, 82], "trial": 4, "time_elapsed": 1754796, "type": "FREE_RECALL", "trial_index": 171}, "uniqueid": "MTK3755:37QW5D2ZRHTMZ2ARD4V3ZGW6OAUS8V", "dateTime": 1521213465828}, {"current_trial": 172, "trialdata": {"rt": 560, "trial_type": "text", "internal_node_id": "0.0-127.0", "time_elapsed": 1757364, "key_press": 32, "type": "INSTRUCTIONS", "trial_index": 172}, "uniqueid": "MTK3755:37QW5D2ZRHTMZ2ARD4V3ZGW6OAUS8V", "dateTime": 1521213468391}, {"current_trial": 173, "trialdata": {"rt": [4669, 6677, 8956, 11669, 13740, 15893, 20371, 22348], "trial_type": "math-distractor", "key_times": [3093, 3309, 4669, 6333, 6677, 8254, 8540, 8956, 10981, 11293, 11669, 13133, 13317, 13740, 15277, 15573, 15893, 19774, 19965, 20371, 21628, 21964, 22348, 23509, 23797], "responses": ["19", "8", "18", "23", "11", "13", "15", "13"], "num2": [5, 5, 3, 9, 4, 6, 6, 4, 6], "num3": [6, 2, 9, 5, 3, 2, 3, 3, 5], "conditions": [24, 800, "v", 24000], "internal_node_id": "0.0-128.0", "key_presses": [97, 105, 13, 104, 13, 97, 104, 13, 98, 99, 13, 97, 97, 13, 97, 99, 13, 97, 101, 13, 97, 99, 13, 97, 102], "trial": 5, "time_elapsed": 1783368, "type": "DISTRACTOR", "trial_index": 173, "num1": [9, 1, 6, 8, 4, 5, 5, 6, 5]}, "uniqueid": "MTK3755:37QW5D2ZRHTMZ2ARD4V3ZGW6OAUS8V", "dateTime": 1521213494395}, {"current_trial": 174, "trialdata": {"rt": -1, "trial_type": "single-stim", "stimulus": "<p id=\"stim\">10</p>", "internal_node_id": "0.0-129.0-0.0", "time_elapsed": 1786371, "key_press": -1, "trial_index": 174}, "uniqueid": "MTK3755:37QW5D2ZRHTMZ2ARD4V3ZGW6OAUS8V", "dateTime": 1521213497398}, {"current_trial": 175, "trialdata": {"rt": -1, "trial_type": "single-stim", "stimulus": "<p id=\"stim\">9</p>", "internal_node_id": "0.0-129.0-1.0", "time_elapsed": 1787372, "key_press": -1, "trial_index": 175}, "uniqueid": "MTK3755:37QW5D2ZRHTMZ2ARD4V3ZGW6OAUS8V", "dateTime": 1521213498400}, {"current_trial": 176, "trialdata": {"rt": -1, "trial_type": "single-stim", "stimulus": "<p id=\"stim\">8</p>", "internal_node_id": "0.0-129.0-2.0", "time_elapsed": 1788374, "key_press": -1, "trial_index": 176}, "uniqueid": "MTK3755:37QW5D2ZRHTMZ2ARD4V3ZGW6OAUS8V", "dateTime": 1521213499402}, {"current_trial": 177, "trialdata": {"rt": -1, "trial_type": "single-stim", "stimulus": "<p id=\"stim\">7</p>", "internal_node_id": "0.0-129.0-3.0", "time_elapsed": 1789376, "key_press": -1, "trial_index": 177}, "uniqueid": "MTK3755:37QW5D2ZRHTMZ2ARD4V3ZGW6OAUS8V", "dateTime": 1521213500403}, {"current_trial": 178, "trialdata": {"rt": -1, "trial_type": "single-stim", "stimulus": "<p id=\"stim\">6</p>", "internal_node_id": "0.0-129.0-4.0", "time_elapsed": 1790379, "key_press": -1, "trial_index": 178}, "uniqueid": "MTK3755:37QW5D2ZRHTMZ2ARD4V3ZGW6OAUS8V", "dateTime": 1521213501406}, {"current_trial": 179, "trialdata": {"rt": -1, "trial_type": "single-stim", "stimulus": "<p id=\"stim\">5</p>", "internal_node_id": "0.0-129.0-5.0", "time_elapsed": 1791380, "key_press": -1, "trial_index": 179}, "uniqueid": "MTK3755:37QW5D2ZRHTMZ2ARD4V3ZGW6OAUS8V", "dateTime": 1521213502407}, {"current_trial": 180, "trialdata": {"rt": -1, "trial_type": "single-stim", "stimulus": "<p id=\"stim\">4</p>", "internal_node_id": "0.0-129.0-6.0", "time_elapsed": 1792382, "key_press": -1, "trial_index": 180}, "uniqueid": "MTK3755:37QW5D2ZRHTMZ2ARD4V3ZGW6OAUS8V", "dateTime": 1521213503409}, {"current_trial": 181, "trialdata": {"rt": -1, "trial_type": "single-stim", "stimulus": "<p id=\"stim\">3</p>", "internal_node_id": "0.0-129.0-7.0", "time_elapsed": 1793384, "key_press": -1, "trial_index": 181}, "uniqueid": "MTK3755:37QW5D2ZRHTMZ2ARD4V3ZGW6OAUS8V", "dateTime": 1521213504411}, {"current_trial": 182, "trialdata": {"rt": -1, "trial_type": "single-stim", "stimulus": "<p id=\"stim\">2</p>", "internal_node_id": "0.0-129.0-8.0", "time_elapsed": 1794385, "key_press": -1, "trial_index": 182}, "uniqueid": "MTK3755:37QW5D2ZRHTMZ2ARD4V3ZGW6OAUS8V", "dateTime": 1521213505413}, {"current_trial": 183, "trialdata": {"rt": -1, "trial_type": "single-stim", "stimulus": "<p id=\"stim\">1</p>", "internal_node_id": "0.0-129.0-9.0", "time_elapsed": 1795387, "key_press": -1, "trial_index": 183}, "uniqueid": "MTK3755:37QW5D2ZRHTMZ2ARD4V3ZGW6OAUS8V", "dateTime": 1521213506414}, {"current_trial": 184, "trialdata": {"rt": -1, "trial_type": "single-stim", "stimulus": "<p id=\"stim\">+</p>", "internal_node_id": "0.0-130.0-0.0", "time_elapsed": 1796888, "key_press": -1, "type": "FIXATION", "trial_index": 184}, "uniqueid": "MTK3755:37QW5D2ZRHTMZ2ARD4V3ZGW6OAUS8V", "dateTime": 1521213507916}, {"current_trial": 185, "trialdata": {"rt": -1, "trial_type": "single-stim", "word": "college", "stimulus": "<p id=\"stim\">COLLEGE</p>", "conditions": [24, 800, "v", 24000], "internal_node_id": "0.0-131.0", "trial": 5, "time_elapsed": 1797690, "serialpos": 0, "key_press": -1, "wordID": 345, "type": "PRES_VIS", "trial_index": 185}, "uniqueid": "MTK3755:37QW5D2ZRHTMZ2ARD4V3ZGW6OAUS8V", "dateTime": 1521213508718}, {"current_trial": 186, "trialdata": {"rt": -1, "trial_type": "single-stim", "word": "snake", "stimulus": "<p id=\"stim\">SNAKE</p>", "conditions": [24, 800, "v", 24000], "internal_node_id": "0.0-132.0", "trial": 5, "time_elapsed": 1799612, "serialpos": 1, "key_press": -1, "wordID": 1332, "type": "PRES_VIS", "trial_index": 186}, "uniqueid": "MTK3755:37QW5D2ZRHTMZ2ARD4V3ZGW6OAUS8V", "dateTime": 1521213510639}, {"current_trial": 187, "trialdata": {"rt": -1, "trial_type": "single-stim", "word": "fragrance", "stimulus": "<p id=\"stim\">FRAGRANCE</p>", "conditions": [24, 800, "v", 24000], "internal_node_id": "0.0-133.0", "trial": 5, "time_elapsed": 1801232, "serialpos": 2, "key_press": -1, "wordID": 598, "type": "PRES_VIS", "trial_index": 187}, "uniqueid": "MTK3755:37QW5D2ZRHTMZ2ARD4V3ZGW6OAUS8V", "dateTime": 1521213512259}, {"current_trial": 188, "trialdata": {"rt": -1, "trial_type": "single-stim", "word": "valley", "stimulus": "<p id=\"stim\">VALLEY</p>", "conditions": [24, 800, "v", 24000], "internal_node_id": "0.0-134.0", "trial": 5, "time_elapsed": 1802981, "serialpos": 3, "key_press": -1, "wordID": 1544, "type": "PRES_VIS", "trial_index": 188}, "uniqueid": "MTK3755:37QW5D2ZRHTMZ2ARD4V3ZGW6OAUS8V", "dateTime": 1521213514008}, {"current_trial": 189, "trialdata": {"rt": -1, "trial_type": "single-stim", "word": "world", "stimulus": "<p id=\"stim\">WORLD</p>", "conditions": [24, 800, "v", 24000], "internal_node_id": "0.0-135.0", "trial": 5, "time_elapsed": 1804952, "serialpos": 4, "key_press": -1, "wordID": 1621, "type": "PRES_VIS", "trial_index": 189}, "uniqueid": "MTK3755:37QW5D2ZRHTMZ2ARD4V3ZGW6OAUS8V", "dateTime": 1521213515980}, {"current_trial": 190, "trialdata": {"rt": -1, "trial_type": "single-stim", "word": "treat", "stimulus": "<p id=\"stim\">TREAT</p>", "conditions": [24, 800, "v", 24000], "internal_node_id": "0.0-136.0", "trial": 5, "time_elapsed": 1806713, "serialpos": 5, "key_press": -1, "wordID": 1500, "type": "PRES_VIS", "trial_index": 190}, "uniqueid": "MTK3755:37QW5D2ZRHTMZ2ARD4V3ZGW6OAUS8V", "dateTime": 1521213517741}, {"current_trial": 191, "trialdata": {"rt": -1, "trial_type": "single-stim", "word": "cabbage", "stimulus": "<p id=\"stim\">CABBAGE</p>", "conditions": [24, 800, "v", 24000], "internal_node_id": "0.0-137.0", "trial": 5, "time_elapsed": 1808348, "serialpos": 6, "key_press": -1, "wordID": 209, "type": "PRES_VIS", "trial_index": 191}, "uniqueid": "MTK3755:37QW5D2ZRHTMZ2ARD4V3ZGW6OAUS8V", "dateTime": 1521213519375}, {"current_trial": 192, "trialdata": {"rt": -1, "trial_type": "single-stim", "word": "perfume", "stimulus": "<p id=\"stim\">PERFUME</p>", "conditions": [24, 800, "v", 24000], "internal_node_id": "0.0-138.0", "trial": 5, "time_elapsed": 1810063, "serialpos": 7, "key_press": -1, "wordID": 1048, "type": "PRES_VIS", "trial_index": 192}, "uniqueid": "MTK3755:37QW5D2ZRHTMZ2ARD4V3ZGW6OAUS8V", "dateTime": 1521213521090}, {"current_trial": 193, "trialdata": {"rt": -1, "trial_type": "single-stim", "word": "bathtub", "stimulus": "<p id=\"stim\">BATHTUB</p>", "conditions": [24, 800, "v", 24000], "internal_node_id": "0.0-139.0", "trial": 5, "time_elapsed": 1811840, "serialpos": 8, "key_press": -1, "wordID": 99, "type": "PRES_VIS", "trial_index": 193}, "uniqueid": "MTK3755:37QW5D2ZRHTMZ2ARD4V3ZGW6OAUS8V", "dateTime": 1521213522867}, {"current_trial": 194, "trialdata": {"rt": -1, "trial_type": "single-stim", "word": "crib", "stimulus": "<p id=\"stim\">CRIB</p>", "conditions": [24, 800, "v", 24000], "internal_node_id": "0.0-140.0", "trial": 5, "time_elapsed": 1813635, "serialpos": 9, "key_press": -1, "wordID": 406, "type": "PRES_VIS", "trial_index": 194}, "uniqueid": "MTK3755:37QW5D2ZRHTMZ2ARD4V3ZGW6OAUS8V", "dateTime": 1521213524662}, {"current_trial": 195, "trialdata": {"rt": -1, "trial_type": "single-stim", "word": "mattress", "stimulus": "<p id=\"stim\">MATTRESS</p>", "conditions": [24, 800, "v", 24000], "internal_node_id": "0.0-141.0", "trial": 5, "time_elapsed": 1815252, "serialpos": 10, "key_press": -1, "wordID": 878, "type": "PRES_VIS", "trial_index": 195}, "uniqueid": "MTK3755:37QW5D2ZRHTMZ2ARD4V3ZGW6OAUS8V", "dateTime": 1521213526279}, {"current_trial": 196, "trialdata": {"rt": -1, "trial_type": "single-stim", "word": "keeper", "stimulus": "<p id=\"stim\">KEEPER</p>", "conditions": [24, 800, "v", 24000], "internal_node_id": "0.0-142.0", "trial": 5, "time_elapsed": 1816864, "serialpos": 11, "key_press": -1, "wordID": 768, "type": "PRES_VIS", "trial_index": 196}, "uniqueid": "MTK3755:37QW5D2ZRHTMZ2ARD4V3ZGW6OAUS8V", "dateTime": 1521213527891}, {"current_trial": 197, "trialdata": {"rt": -1, "trial_type": "single-stim", "word": "yarn", "stimulus": "<p id=\"stim\">YARN</p>", "conditions": [24, 800, "v", 24000], "internal_node_id": "0.0-143.0", "trial": 5, "time_elapsed": 1818855, "serialpos": 12, "key_press": -1, "wordID": 1630, "type": "PRES_VIS", "trial_index": 197}, "uniqueid": "MTK3755:37QW5D2ZRHTMZ2ARD4V3ZGW6OAUS8V", "dateTime": 1521213529883}, {"current_trial": 198, "trialdata": {"rt": -1, "trial_type": "single-stim", "word": "flag", "stimulus": "<p id=\"stim\">FLAG</p>", "conditions": [24, 800, "v", 24000], "internal_node_id": "0.0-144.0", "trial": 5, "time_elapsed": 1820542, "serialpos": 13, "key_press": -1, "wordID": 572, "type": "PRES_VIS", "trial_index": 198}, "uniqueid": "MTK3755:37QW5D2ZRHTMZ2ARD4V3ZGW6OAUS8V", "dateTime": 1521213531570}, {"current_trial": 199, "trialdata": {"rt": -1, "trial_type": "single-stim", "word": "luggage", "stimulus": "<p id=\"stim\">LUGGAGE</p>", "conditions": [24, 800, "v", 24000], "internal_node_id": "0.0-145.0", "trial": 5, "time_elapsed": 1822325, "serialpos": 14, "key_press": -1, "wordID": 846, "type": "PRES_VIS", "trial_index": 199}, "uniqueid": "MTK3755:37QW5D2ZRHTMZ2ARD4V3ZGW6OAUS8V", "dateTime": 1521213533353}, {"current_trial": 200, "trialdata": {"rt": -1, "trial_type": "single-stim", "word": "pocket", "stimulus": "<p id=\"stim\">POCKET</p>", "conditions": [24, 800, "v", 24000], "internal_node_id": "0.0-146.0", "trial": 5, "time_elapsed": 1824284, "serialpos": 15, "key_press": -1, "wordID": 1092, "type": "PRES_VIS", "trial_index": 200}, "uniqueid": "MTK3755:37QW5D2ZRHTMZ2ARD4V3ZGW6OAUS8V", "dateTime": 1521213535311}, {"current_trial": 201, "trialdata": {"rt": -1, "trial_type": "single-stim", "word": "police", "stimulus": "<p id=\"stim\">POLICE</p>", "conditions": [24, 800, "v", 24000], "internal_node_id": "0.0-147.0", "trial": 5, "time_elapsed": 1826039, "serialpos": 16, "key_press": -1, "wordID": 1097, "type": "PRES_VIS", "trial_index": 201}, "uniqueid": "MTK3755:37QW5D2ZRHTMZ2ARD4V3ZGW6OAUS8V", "dateTime": 1521213537066}, {"current_trial": 202, "trialdata": {"rt": -1, "trial_type": "single-stim", "word": "cigar", "stimulus": "<p id=\"stim\">CIGAR</p>", "conditions": [24, 800, "v", 24000], "internal_node_id": "0.0-148.0", "trial": 5, "time_elapsed": 1827831, "serialpos": 17, "key_press": -1, "wordID": 307, "type": "PRES_VIS", "trial_index": 202}, "uniqueid": "MTK3755:37QW5D2ZRHTMZ2ARD4V3ZGW6OAUS8V", "dateTime": 1521213538858}, {"current_trial": 203, "trialdata": {"rt": -1, "trial_type": "single-stim", "word": "yacht", "stimulus": "<p id=\"stim\">YACHT</p>", "conditions": [24, 800, "v", 24000], "internal_node_id": "0.0-149.0", "trial": 5, "time_elapsed": 1829665, "serialpos": 18, "key_press": -1, "wordID": 1628, "type": "PRES_VIS", "trial_index": 203}, "uniqueid": "MTK3755:37QW5D2ZRHTMZ2ARD4V3ZGW6OAUS8V", "dateTime": 1521213540692}, {"current_trial": 204, "trialdata": {"rt": -1, "trial_type": "single-stim", "word": "briefcase", "stimulus": "<p id=\"stim\">BRIEFCASE</p>", "conditions": [24, 800, "v", 24000], "internal_node_id": "0.0-150.0", "trial": 5, "time_elapsed": 1831289, "serialpos": 19, "key_press": -1, "wordID": 174, "type": "PRES_VIS", "trial_index": 204}, "uniqueid": "MTK3755:37QW5D2ZRHTMZ2ARD4V3ZGW6OAUS8V", "dateTime": 1521213542316}, {"current_trial": 205, "trialdata": {"rt": -1, "trial_type": "single-stim", "word": "shark", "stimulus": "<p id=\"stim\">SHARK</p>", "conditions": [24, 800, "v", 24000], "internal_node_id": "0.0-151.0", "trial": 5, "time_elapsed": 1833231, "serialpos": 20, "key_press": -1, "wordID": 1274, "type": "PRES_VIS", "trial_index": 205}, "uniqueid": "MTK3755:37QW5D2ZRHTMZ2ARD4V3ZGW6OAUS8V", "dateTime": 1521213544258}, {"current_trial": 206, "trialdata": {"rt": -1, "trial_type": "single-stim", "word": "turtle", "stimulus": "<p id=\"stim\">TURTLE</p>", "conditions": [24, 800, "v", 24000], "internal_node_id": "0.0-152.0", "trial": 5, "time_elapsed": 1835178, "serialpos": 21, "key_press": -1, "wordID": 1521, "type": "PRES_VIS", "trial_index": 206}, "uniqueid": "MTK3755:37QW5D2ZRHTMZ2ARD4V3ZGW6OAUS8V", "dateTime": 1521213546205}, {"current_trial": 207, "trialdata": {"rt": -1, "trial_type": "single-stim", "word": "venus", "stimulus": "<p id=\"stim\">VENUS</p>", "conditions": [24, 800, "v", 24000], "internal_node_id": "0.0-153.0", "trial": 5, "time_elapsed": 1837102, "serialpos": 22, "key_press": -1, "wordID": 1556, "type": "PRES_VIS", "trial_index": 207}, "uniqueid": "MTK3755:37QW5D2ZRHTMZ2ARD4V3ZGW6OAUS8V", "dateTime": 1521213548130}, {"current_trial": 208, "trialdata": {"rt": -1, "trial_type": "single-stim", "word": "rug", "stimulus": "<p id=\"stim\">RUG</p>", "conditions": [24, 800, "v", 24000], "internal_node_id": "0.0-154.0", "trial": 5, "time_elapsed": 1838851, "serialpos": 23, "key_press": -1, "wordID": 1214, "type": "PRES_VIS", "trial_index": 208}, "uniqueid": "MTK3755:37QW5D2ZRHTMZ2ARD4V3ZGW6OAUS8V", "dateTime": 1521213549878}, {"current_trial": 209, "trialdata": {"rt": -1, "trial_type": "single-stim", "stimulus": "", "internal_node_id": "0.0-155.0-0.0", "time_elapsed": 1841252, "key_press": -1, "type": "PRE_RECALL_DELAY", "trial_index": 209}, "uniqueid": "MTK3755:37QW5D2ZRHTMZ2ARD4V3ZGW6OAUS8V", "dateTime": 1521213552279}, {"current_trial": 210, "trialdata": {"rt": -1000, "trial_type": "single-audio", "stimulus": "/static/audio/400Hz.wav", "internal_node_id": "0.0-156.0", "time_elapsed": 1841753, "key_press": -1, "type": "PRE_RECALL_ALERT", "trial_index": 210}, "uniqueid": "MTK3755:37QW5D2ZRHTMZ2ARD4V3ZGW6OAUS8V", "dateTime": 1521213552781}, {"current_trial": 211, "trialdata": {"rt": [3965, 5638, 9197, 11501, 15093, 17293, 19901, 22773, 26789, 28797, 32557, 35421, 43157, 48333, 52589], "recwords": ["rug", "venus", "turtle", "shark", "snake", "crib", "mattress", "yarn", "world", "fragrance", "pocket", "snake", "cobra", "flag", "pocket"], "key_times": [3119, 3254, 3422, 3965, 4510, 4734, 4878, 5127, 5270, 5638, 7846, 7974, 8062, 8470, 8654, 8774, 9197, 10638, 10742, 10854, 10934, 11206, 11501, 12862, 13703, 14190, 14342, 14462, 14622, 14734, 15093, 16454, 16670, 16806, 17030, 17293, 18206, 18454, 18638, 18774, 18966, 19117, 19478, 19638, 19901, 21870, 22046, 22157, 22390, 22773, 23654, 23807, 24070, 24318, 25606, 25798, 26086, 26430, 26629, 26789, 27110, 27294, 27461, 27678, 27870, 27990, 28125, 28302, 28518, 28797, 31153, 31454, 31782, 31990, 32110, 32278, 32557, 34687, 34821, 34934, 35062, 35174, 35421, 38486, 38622, 38829, 39086, 39310, 43157, 45942, 46102, 46213, 46557, 48333, 51509, 51782, 51966, 52102, 52238, 52414, 52589], "trial_type": "free-recall", "conditions": [24, 800, "v", 24000], "internal_node_id": "0.0-157.0-0.0", "key_presses": [82, 85, 71, 13, 86, 69, 78, 85, 83, 13, 84, 85, 82, 84, 76, 69, 13, 83, 72, 65, 82, 75, 13, 67, 8, 83, 78, 65, 75, 69, 13, 67, 82, 73, 66, 13, 77, 65, 84, 84, 82, 69, 83, 83, 13, 89, 65, 82, 78, 13, 87, 79, 76, 68, 8, 8, 82, 76, 68, 13, 70, 82, 65, 71, 82, 65, 78, 67, 69, 13, 80, 79, 67, 75, 69, 84, 13, 83, 78, 65, 75, 69, 13, 67, 79, 66, 82, 65, 13, 70, 76, 65, 71, 13, 80, 79, 67, 75, 69, 84, 13], "trial": 5, "time_elapsed": 1901758, "type": "FREE_RECALL", "trial_index": 211}, "uniqueid": "MTK3755:37QW5D2ZRHTMZ2ARD4V3ZGW6OAUS8V", "dateTime": 1521213612792}, {"current_trial": 212, "trialdata": {"rt": 1020, "trial_type": "text", "internal_node_id": "0.0-158.0", "time_elapsed": 1904787, "key_press": 32, "type": "INSTRUCTIONS", "trial_index": 212}, "uniqueid": "MTK3755:37QW5D2ZRHTMZ2ARD4V3ZGW6OAUS8V", "dateTime": 1521213615814}, {"current_trial": 213, "trialdata": {"rt": [4843, 8235, 10627, 13123, 15171, 17995, 20779, 22858], "trial_type": "math-distractor", "key_times": [3908, 4132, 4843, 7510, 7812, 8235, 9923, 10141, 10627, 12556, 12724, 13123, 14604, 14828, 15171, 17340, 17588, 17995, 20196, 20412, 20779, 22316, 22500, 22858], "responses": ["19", "17", "13", "16", "16", "17", "15", "16"], "num2": [7, 8, 4, 5, 7, 5, 8, 8, 6], "num3": [3, 5, 5, 9, 8, 3, 4, 2, 9], "conditions": [24, 1600, "v", 24000], "internal_node_id": "0.0-159.0", "key_presses": [97, 105, 13, 97, 103, 13, 97, 99, 13, 97, 102, 13, 97, 102, 13, 97, 103, 13, 97, 101, 13, 97, 102, 13], "trial": 6, "time_elapsed": 1930792, "type": "DISTRACTOR", "trial_index": 213, "num1": [9, 4, 3, 2, 1, 9, 3, 6, 5]}, "uniqueid": "MTK3755:37QW5D2ZRHTMZ2ARD4V3ZGW6OAUS8V", "dateTime": 1521213641819}, {"current_trial": 214, "trialdata": {"rt": -1, "trial_type": "single-stim", "stimulus": "<p id=\"stim\">10</p>", "internal_node_id": "0.0-160.0-0.0", "time_elapsed": 1933795, "key_press": -1, "trial_index": 214}, "uniqueid": "MTK3755:37QW5D2ZRHTMZ2ARD4V3ZGW6OAUS8V", "dateTime": 1521213644822}, {"current_trial": 215, "trialdata": {"rt": -1, "trial_type": "single-stim", "stimulus": "<p id=\"stim\">9</p>", "internal_node_id": "0.0-160.0-1.0", "time_elapsed": 1934796, "key_press": -1, "trial_index": 215}, "uniqueid": "MTK3755:37QW5D2ZRHTMZ2ARD4V3ZGW6OAUS8V", "dateTime": 1521213645823}, {"current_trial": 216, "trialdata": {"rt": -1, "trial_type": "single-stim", "stimulus": "<p id=\"stim\">8</p>", "internal_node_id": "0.0-160.0-2.0", "time_elapsed": 1935798, "key_press": -1, "trial_index": 216}, "uniqueid": "MTK3755:37QW5D2ZRHTMZ2ARD4V3ZGW6OAUS8V", "dateTime": 1521213646825}, {"current_trial": 217, "trialdata": {"rt": -1, "trial_type": "single-stim", "stimulus": "<p id=\"stim\">7</p>", "internal_node_id": "0.0-160.0-3.0", "time_elapsed": 1936800, "key_press": -1, "trial_index": 217}, "uniqueid": "MTK3755:37QW5D2ZRHTMZ2ARD4V3ZGW6OAUS8V", "dateTime": 1521213647827}, {"current_trial": 218, "trialdata": {"rt": -1, "trial_type": "single-stim", "stimulus": "<p id=\"stim\">6</p>", "internal_node_id": "0.0-160.0-4.0", "time_elapsed": 1937802, "key_press": -1, "trial_index": 218}, "uniqueid": "MTK3755:37QW5D2ZRHTMZ2ARD4V3ZGW6OAUS8V", "dateTime": 1521213648829}, {"current_trial": 219, "trialdata": {"rt": -1, "trial_type": "single-stim", "stimulus": "<p id=\"stim\">5</p>", "internal_node_id": "0.0-160.0-5.0", "time_elapsed": 1938806, "key_press": -1, "trial_index": 219}, "uniqueid": "MTK3755:37QW5D2ZRHTMZ2ARD4V3ZGW6OAUS8V", "dateTime": 1521213649833}, {"current_trial": 220, "trialdata": {"rt": -1, "trial_type": "single-stim", "stimulus": "<p id=\"stim\">4</p>", "internal_node_id": "0.0-160.0-6.0", "time_elapsed": 1939807, "key_press": -1, "trial_index": 220}, "uniqueid": "MTK3755:37QW5D2ZRHTMZ2ARD4V3ZGW6OAUS8V", "dateTime": 1521213650834}, {"current_trial": 221, "trialdata": {"rt": -1, "trial_type": "single-stim", "stimulus": "<p id=\"stim\">3</p>", "internal_node_id": "0.0-160.0-7.0", "time_elapsed": 1940809, "key_press": -1, "trial_index": 221}, "uniqueid": "MTK3755:37QW5D2ZRHTMZ2ARD4V3ZGW6OAUS8V", "dateTime": 1521213651836}, {"current_trial": 222, "trialdata": {"rt": -1, "trial_type": "single-stim", "stimulus": "<p id=\"stim\">2</p>", "internal_node_id": "0.0-160.0-8.0", "time_elapsed": 1941810, "key_press": -1, "trial_index": 222}, "uniqueid": "MTK3755:37QW5D2ZRHTMZ2ARD4V3ZGW6OAUS8V", "dateTime": 1521213652838}, {"current_trial": 223, "trialdata": {"rt": -1, "trial_type": "single-stim", "stimulus": "<p id=\"stim\">1</p>", "internal_node_id": "0.0-160.0-9.0", "time_elapsed": 1942812, "key_press": -1, "trial_index": 223}, "uniqueid": "MTK3755:37QW5D2ZRHTMZ2ARD4V3ZGW6OAUS8V", "dateTime": 1521213653839}, {"current_trial": 224, "trialdata": {"rt": -1, "trial_type": "single-stim", "stimulus": "<p id=\"stim\">+</p>", "internal_node_id": "0.0-161.0-0.0", "time_elapsed": 1944314, "key_press": -1, "type": "FIXATION", "trial_index": 224}, "uniqueid": "MTK3755:37QW5D2ZRHTMZ2ARD4V3ZGW6OAUS8V", "dateTime": 1521213655342}, {"current_trial": 225, "trialdata": {"rt": -1, "trial_type": "single-stim", "word": "gavel", "stimulus": "<p id=\"stim\">GAVEL</p>", "conditions": [24, 1600, "v", 24000], "internal_node_id": "0.0-162.0", "trial": 6, "time_elapsed": 1945916, "serialpos": 0, "key_press": -1, "wordID": 626, "type": "PRES_VIS", "trial_index": 225}, "uniqueid": "MTK3755:37QW5D2ZRHTMZ2ARD4V3ZGW6OAUS8V", "dateTime": 1521213656944}, {"current_trial": 226, "trialdata": {"rt": -1, "trial_type": "single-stim", "word": "pepper", "stimulus": "<p id=\"stim\">PEPPER</p>", "conditions": [24, 1600, "v", 24000], "internal_node_id": "0.0-163.0", "trial": 6, "time_elapsed": 1948350, "serialpos": 1, "key_press": -1, "wordID": 1046, "type": "PRES_VIS", "trial_index": 226}, "uniqueid": "MTK3755:37QW5D2ZRHTMZ2ARD4V3ZGW6OAUS8V", "dateTime": 1521213659377}, {"current_trial": 227, "trialdata": {"rt": -1, "trial_type": "single-stim", "word": "truck", "stimulus": "<p id=\"stim\">TRUCK</p>", "conditions": [24, 1600, "v", 24000], "internal_node_id": "0.0-164.0", "trial": 6, "time_elapsed": 1951038, "serialpos": 2, "key_press": -1, "wordID": 1511, "type": "PRES_VIS", "trial_index": 227}, "uniqueid": "MTK3755:37QW5D2ZRHTMZ2ARD4V3ZGW6OAUS8V", "dateTime": 1521213662065}, {"current_trial": 228, "trialdata": {"rt": -1, "trial_type": "single-stim", "word": "liver", "stimulus": "<p id=\"stim\">LIVER</p>", "conditions": [24, 1600, "v", 24000], "internal_node_id": "0.0-165.0", "trial": 6, "time_elapsed": 1953488, "serialpos": 3, "key_press": -1, "wordID": 832, "type": "PRES_VIS", "trial_index": 228}, "uniqueid": "MTK3755:37QW5D2ZRHTMZ2ARD4V3ZGW6OAUS8V", "dateTime": 1521213664515}, {"current_trial": 229, "trialdata": {"rt": -1, "trial_type": "single-stim", "word": "brandy", "stimulus": "<p id=\"stim\">BRANDY</p>", "conditions": [24, 1600, "v", 24000], "internal_node_id": "0.0-166.0", "trial": 6, "time_elapsed": 1956024, "serialpos": 4, "key_press": -1, "wordID": 168, "type": "PRES_VIS", "trial_index": 229}, "uniqueid": "MTK3755:37QW5D2ZRHTMZ2ARD4V3ZGW6OAUS8V", "dateTime": 1521213667051}, {"current_trial": 230, "trialdata": {"rt": -1, "trial_type": "single-stim", "word": "donkey", "stimulus": "<p id=\"stim\">DONKEY</p>", "conditions": [24, 1600, "v", 24000], "internal_node_id": "0.0-167.0", "trial": 6, "time_elapsed": 1958627, "serialpos": 5, "key_press": -1, "wordID": 483, "type": "PRES_VIS", "trial_index": 230}, "uniqueid": "MTK3755:37QW5D2ZRHTMZ2ARD4V3ZGW6OAUS8V", "dateTime": 1521213669655}, {"current_trial": 231, "trialdata": {"rt": -1, "trial_type": "single-stim", "word": "onion", "stimulus": "<p id=\"stim\">ONION</p>", "conditions": [24, 1600, "v", 24000], "internal_node_id": "0.0-168.0", "trial": 6, "time_elapsed": 1961422, "serialpos": 6, "key_press": -1, "wordID": 976, "type": "PRES_VIS", "trial_index": 231}, "uniqueid": "MTK3755:37QW5D2ZRHTMZ2ARD4V3ZGW6OAUS8V", "dateTime": 1521213672449}, {"current_trial": 232, "trialdata": {"rt": -1, "trial_type": "single-stim", "word": "driver", "stimulus": "<p id=\"stim\">DRIVER</p>", "conditions": [24, 1600, "v", 24000], "internal_node_id": "0.0-169.0", "trial": 6, "time_elapsed": 1963850, "serialpos": 7, "key_press": -1, "wordID": 498, "type": "PRES_VIS", "trial_index": 232}, "uniqueid": "MTK3755:37QW5D2ZRHTMZ2ARD4V3ZGW6OAUS8V", "dateTime": 1521213674877}, {"current_trial": 233, "trialdata": {"rt": -1, "trial_type": "single-stim", "word": "barrel", "stimulus": "<p id=\"stim\">BARREL</p>", "conditions": [24, 1600, "v", 24000], "internal_node_id": "0.0-170.0", "trial": 6, "time_elapsed": 1966523, "serialpos": 8, "key_press": -1, "wordID": 90, "type": "PRES_VIS", "trial_index": 233}, "uniqueid": "MTK3755:37QW5D2ZRHTMZ2ARD4V3ZGW6OAUS8V", "dateTime": 1521213677550}, {"current_trial": 234, "trialdata": {"rt": -1, "trial_type": "single-stim", "word": "lizard", "stimulus": "<p id=\"stim\">LIZARD</p>", "conditions": [24, 1600, "v", 24000], "internal_node_id": "0.0-171.0", "trial": 6, "time_elapsed": 1969281, "serialpos": 9, "key_press": -1, "wordID": 833, "type": "PRES_VIS", "trial_index": 234}, "uniqueid": "MTK3755:37QW5D2ZRHTMZ2ARD4V3ZGW6OAUS8V", "dateTime": 1521213680309}, {"current_trial": 235, "trialdata": {"rt": -1, "trial_type": "single-stim", "word": "county", "stimulus": "<p id=\"stim\">COUNTY</p>", "conditions": [24, 1600, "v", 24000], "internal_node_id": "0.0-172.0", "trial": 6, "time_elapsed": 1971879, "serialpos": 10, "key_press": -1, "wordID": 388, "type": "PRES_VIS", "trial_index": 235}, "uniqueid": "MTK3755:37QW5D2ZRHTMZ2ARD4V3ZGW6OAUS8V", "dateTime": 1521213682907}, {"current_trial": 236, "trialdata": {"rt": -1, "trial_type": "single-stim", "word": "sheriff", "stimulus": "<p id=\"stim\">SHERIFF</p>", "conditions": [24, 1600, "v", 24000], "internal_node_id": "0.0-173.0", "trial": 6, "time_elapsed": 1974492, "serialpos": 11, "key_press": -1, "wordID": 1283, "type": "PRES_VIS", "trial_index": 236}, "uniqueid": "MTK3755:37QW5D2ZRHTMZ2ARD4V3ZGW6OAUS8V", "dateTime": 1521213685519}, {"current_trial": 237, "trialdata": {"rt": -1, "trial_type": "single-stim", "word": "motel", "stimulus": "<p id=\"stim\">MOTEL</p>", "conditions": [24, 1600, "v", 24000], "internal_node_id": "0.0-174.0", "trial": 6, "time_elapsed": 1976967, "serialpos": 12, "key_press": -1, "wordID": 918, "type": "PRES_VIS", "trial_index": 237}, "uniqueid": "MTK3755:37QW5D2ZRHTMZ2ARD4V3ZGW6OAUS8V", "dateTime": 1521213687994}, {"current_trial": 238, "trialdata": {"rt": -1, "trial_type": "single-stim", "word": "drawing", "stimulus": "<p id=\"stim\">DRAWING</p>", "conditions": [24, 1600, "v", 24000], "internal_node_id": "0.0-175.0", "trial": 6, "time_elapsed": 1979609, "serialpos": 13, "key_press": -1, "wordID": 493, "type": "PRES_VIS", "trial_index": 238}, "uniqueid": "MTK3755:37QW5D2ZRHTMZ2ARD4V3ZGW6OAUS8V", "dateTime": 1521213690636}, {"current_trial": 239, "trialdata": {"rt": -1, "trial_type": "single-stim", "word": "rod", "stimulus": "<p id=\"stim\">ROD</p>", "conditions": [24, 1600, "v", 24000], "internal_node_id": "0.0-176.0", "trial": 6, "time_elapsed": 1982300, "serialpos": 14, "key_press": -1, "wordID": 1202, "type": "PRES_VIS", "trial_index": 239}, "uniqueid": "MTK3755:37QW5D2ZRHTMZ2ARD4V3ZGW6OAUS8V", "dateTime": 1521213693327}, {"current_trial": 240, "trialdata": {"rt": -1, "trial_type": "single-stim", "word": "turnip", "stimulus": "<p id=\"stim\">TURNIP</p>", "conditions": [24, 1600, "v", 24000], "internal_node_id": "0.0-177.0", "trial": 6, "time_elapsed": 1984721, "serialpos": 15, "key_press": -1, "wordID": 1520, "type": "PRES_VIS", "trial_index": 240}, "uniqueid": "MTK3755:37QW5D2ZRHTMZ2ARD4V3ZGW6OAUS8V", "dateTime": 1521213695748}, {"current_trial": 241, "trialdata": {"rt": -1, "trial_type": "single-stim", "word": "radish", "stimulus": "<p id=\"stim\">RADISH</p>", "conditions": [24, 1600, "v", 24000], "internal_node_id": "0.0-178.0", "trial": 6, "time_elapsed": 1987323, "serialpos": 16, "key_press": -1, "wordID": 1157, "type": "PRES_VIS", "trial_index": 241}, "uniqueid": "MTK3755:37QW5D2ZRHTMZ2ARD4V3ZGW6OAUS8V", "dateTime": 1521213698350}, {"current_trial": 242, "trialdata": {"rt": -1, "trial_type": "single-stim", "word": "piano", "stimulus": "<p id=\"stim\">PIANO</p>", "conditions": [24, 1600, "v", 24000], "internal_node_id": "0.0-179.0", "trial": 6, "time_elapsed": 1989762, "serialpos": 17, "key_press": -1, "wordID": 1056, "type": "PRES_VIS", "trial_index": 242}, "uniqueid": "MTK3755:37QW5D2ZRHTMZ2ARD4V3ZGW6OAUS8V", "dateTime": 1521213700789}, {"current_trial": 243, "trialdata": {"rt": -1, "trial_type": "single-stim", "word": "friend", "stimulus": "<p id=\"stim\">FRIEND</p>", "conditions": [24, 1600, "v", 24000], "internal_node_id": "0.0-180.0", "trial": 6, "time_elapsed": 1992553, "serialpos": 18, "key_press": -1, "wordID": 605, "type": "PRES_VIS", "trial_index": 243}, "uniqueid": "MTK3755:37QW5D2ZRHTMZ2ARD4V3ZGW6OAUS8V", "dateTime": 1521213703580}, {"current_trial": 244, "trialdata": {"rt": -1, "trial_type": "single-stim", "word": "motor", "stimulus": "<p id=\"stim\">MOTOR</p>", "conditions": [24, 1600, "v", 24000], "internal_node_id": "0.0-181.0", "trial": 6, "time_elapsed": 1995156, "serialpos": 19, "key_press": -1, "wordID": 921, "type": "PRES_VIS", "trial_index": 244}, "uniqueid": "MTK3755:37QW5D2ZRHTMZ2ARD4V3ZGW6OAUS8V", "dateTime": 1521213706183}, {"current_trial": 245, "trialdata": {"rt": -1, "trial_type": "single-stim", "word": "highway", "stimulus": "<p id=\"stim\">HIGHWAY</p>", "conditions": [24, 1600, "v", 24000], "internal_node_id": "0.0-182.0", "trial": 6, "time_elapsed": 1997910, "serialpos": 20, "key_press": -1, "wordID": 706, "type": "PRES_VIS", "trial_index": 245}, "uniqueid": "MTK3755:37QW5D2ZRHTMZ2ARD4V3ZGW6OAUS8V", "dateTime": 1521213708937}, {"current_trial": 246, "trialdata": {"rt": -1, "trial_type": "single-stim", "word": "airport", "stimulus": "<p id=\"stim\">AIRPORT</p>", "conditions": [24, 1600, "v", 24000], "internal_node_id": "0.0-183.0", "trial": 6, "time_elapsed": 2000338, "serialpos": 21, "key_press": -1, "wordID": 12, "type": "PRES_VIS", "trial_index": 246}, "uniqueid": "MTK3755:37QW5D2ZRHTMZ2A