{"assignmentId": "3F6KKYWMNC810KEDMGPXME01CCIND3", "workerId": "MTK3362", "questiondata": {"origin": "United States", "strat-rehearsal": "81", "marital": "Married/Domestic Partnership", "education": "Some college", "ethnicity": "Not Hispanic", "color_depth": 24, "distracted": "No", "wrote-notes": "Yes", "strat-other": "", "screen_width": 1920, "avail_screen_width": 1920, "avail_screen_height": 977, "strat-image": "100", "language": "English", "gender": "Female", "age": "52", "gender_other": "", "race": ["White"], "strat-categorize": "100", "pixel_depth": 24, "strat-spatial": "100", "strat-story": "0", "race_other": "", "screen_height": 1080}, "bonus": 0, "hitId": "32ZCLEW0BZRCJ7SOMPJY4H4PW8HJP8", "counterbalance": 2663, "useragent": "Mozilla/5.0 (Macintosh; Intel Mac OS X 10_12_6) AppleWebKit/537.36 (KHTML, like Gecko) Chrome/64.0.3282.186 Safari/537.36", "eventdata": [{"eventtype": "initialized", "interval": 0, "value": null, "timestamp": 1520451352515}, {"eventtype": "window_resize", "interval": 0, "value": [1920, 1006], "timestamp": 1520451352515}, {"eventtype": "focus", "interval": 2584903, "value": "off", "timestamp": 1520453937418}, {"eventtype": "focus", "interval": 4485, "value": "on", "timestamp": 1520453941903}], "data": [{"current_trial": 0, "trialdata": {"rt": 2991, "trial_type": "text", "internal_node_id": "0.0-0.0", "time_elapsed": 2991, "key_press": 32, "type": "INSTRUCTIONS", "trial_index": 0}, "uniqueid": "MTK3362:3F6KKYWMNC810KEDMGPXME01CCIND3", "dateTime": 1520451356198}, {"current_trial": 1, "trialdata": {"rt": 32260, "trial_type": "text", "internal_node_id": "0.0-1.0", "time_elapsed": 35253, "key_press": 32, "type": "INSTRUCTIONS", "trial_index": 1}, "uniqueid": "MTK3362:3F6KKYWMNC810KEDMGPXME01CCIND3", "dateTime": 1520451388459}, {"current_trial": 2, "trialdata": {"rt": [9064], "trial_type": "audio-test", "responses": ["ocean"], "internal_node_id": "0.0-2.0", "time_elapsed": 44418, "type": "AUDIO_TEST", "trial_index": 2}, "uniqueid": "MTK3362:3F6KKYWMNC810KEDMGPXME01CCIND3", "dateTime": 1520451397624}, {"current_trial": 3, "trialdata": {"rt": [7543], "trial_type": "audio-test", "responses": ["crystal"], "internal_node_id": "0.0-3.0", "time_elapsed": 51966, "type": "AUDIO_TEST", "trial_index": 3}, "uniqueid": "MTK3362:3F6KKYWMNC810KEDMGPXME01CCIND3", "dateTime": 1520451405172}, {"current_trial": 4, "trialdata": {"rt": [7931], "trial_type": "audio-test", "responses": ["spice"], "internal_node_id": "0.0-4.0", "time_elapsed": 59902, "type": "AUDIO_TEST", "trial_index": 4}, "uniqueid": "MTK3362:3F6KKYWMNC810KEDMGPXME01CCIND3", "dateTime": 1520451413108}, {"current_trial": 5, "trialdata": {"rt": 29561, "trial_type": "survey-text", "responses": "{\"Q0\":\"11:15\",\"Q1\":\"7:30\",\"Q2\":\"5\"}", "internal_node_id": "0.0-5.0", "time_elapsed": 90218, "type": "SLEEP_SURVEY", "trial_index": 5}, "uniqueid": "MTK3362:3F6KKYWMNC810KEDMGPXME01CCIND3", "dateTime": 1520451443424}, {"current_trial": 6, "trialdata": {"rt": 68917, "trial_type": "text", "internal_node_id": "0.0-6.0", "time_elapsed": 160138, "key_press": 13, "type": "INSTRUCTIONS", "trial_index": 6}, "uniqueid": "MTK3362:3F6KKYWMNC810KEDMGPXME01CCIND3", "dateTime": 1520451513344}, {"current_trial": 7, "trialdata": {"rt": 22561, "trial_type": "text", "internal_node_id": "0.0-7.0", "time_elapsed": 183202, "key_press": 32, "type": "INSTRUCTIONS", "trial_index": 7}, "uniqueid": "MTK3362:3F6KKYWMNC810KEDMGPXME01CCIND3", "dateTime": 1520451536408}, {"current_trial": 8, "trialdata": {"rt": 11530, "trial_type": "text", "internal_node_id": "0.0-8.0", "time_elapsed": 195234, "key_press": 32, "type": "INSTRUCTIONS", "trial_index": 8}, "uniqueid": "MTK3362:3F6KKYWMNC810KEDMGPXME01CCIND3", "dateTime": 1520451548440}, {"current_trial": 9, "trialdata": {"rt": [4643, 7571, 10523, 13571, 15675], "trial_type": "math-distractor", "key_times": [3571, 3803, 4643, 7075, 7307, 7571, 9955, 10243, 10523, 13251, 13571, 15123, 15355, 15675, 17642, 17898], "responses": ["14", "15", "18", "9", "16"], "num2": [4, 5, 4, 6, 4, 9], "num3": [1, 4, 9, 1, 8, 7], "conditions": [18, 1200, "v", 18000], "internal_node_id": "0.0-9.0", "key_presses": [49, 52, 13, 49, 53, 13, 49, 56, 13, 57, 13, 49, 54, 13, 49, 56], "trial": 0, "time_elapsed": 214240, "type": "DISTRACTOR", "trial_index": 9, "num1": [9, 6, 5, 2, 4, 2]}, "uniqueid": "MTK3362:3F6KKYWMNC810KEDMGPXME01CCIND3", "dateTime": 1520451567446}, {"current_trial": 10, "trialdata": {"rt": -1, "trial_type": "single-stim", "stimulus": "<p id=\"stim\">10</p>", "internal_node_id": "0.0-10.0-0.0", "time_elapsed": 217251, "key_press": -1, "trial_index": 10}, "uniqueid": "MTK3362:3F6KKYWMNC810KEDMGPXME01CCIND3", "dateTime": 1520451570457}, {"current_trial": 11, "trialdata": {"rt": -1, "trial_type": "single-stim", "stimulus": "<p id=\"stim\">9</p>", "internal_node_id": "0.0-10.0-1.0", "time_elapsed": 218255, "key_press": -1, "trial_index": 11}, "uniqueid": "MTK3362:3F6KKYWMNC810KEDMGPXME01CCIND3", "dateTime": 1520451571461}, {"current_trial": 12, "trialdata": {"rt": -1, "trial_type": "single-stim", "stimulus": "<p id=\"stim\">8</p>", "internal_node_id": "0.0-10.0-2.0", "time_elapsed": 219259, "key_press": -1, "trial_index": 12}, "uniqueid": "MTK3362:3F6KKYWMNC810KEDMGPXME01CCIND3", "dateTime": 1520451572465}, {"current_trial": 13, "trialdata": {"rt": -1, "trial_type": "single-stim", "stimulus": "<p id=\"stim\">7</p>", "internal_node_id": "0.0-10.0-3.0", "time_elapsed": 220263, "key_press": -1, "trial_index": 13}, "uniqueid": "MTK3362:3F6KKYWMNC810KEDMGPXME01CCIND3", "dateTime": 1520451573469}, {"current_trial": 14, "trialdata": {"rt": -1, "trial_type": "single-stim", "stimulus": "<p id=\"stim\">6</p>", "internal_node_id": "0.0-10.0-4.0", "time_elapsed": 221267, "key_press": -1, "trial_index": 14}, "uniqueid": "MTK3362:3F6KKYWMNC810KEDMGPXME01CCIND3", "dateTime": 1520451574473}, {"current_trial": 15, "trialdata": {"rt": -1, "trial_type": "single-stim", "stimulus": "<p id=\"stim\">5</p>", "internal_node_id": "0.0-10.0-5.0", "time_elapsed": 222270, "key_press": -1, "trial_index": 15}, "uniqueid": "MTK3362:3F6KKYWMNC810KEDMGPXME01CCIND3", "dateTime": 1520451575476}, {"current_trial": 16, "trialdata": {"rt": -1, "trial_type": "single-stim", "stimulus": "<p id=\"stim\">4</p>", "internal_node_id": "0.0-10.0-6.0", "time_elapsed": 223272, "key_press": -1, "trial_index": 16}, "uniqueid": "MTK3362:3F6KKYWMNC810KEDMGPXME01CCIND3", "dateTime": 1520451576478}, {"current_trial": 17, "trialdata": {"rt": -1, "trial_type": "single-stim", "stimulus": "<p id=\"stim\">3</p>", "internal_node_id": "0.0-10.0-7.0", "time_elapsed": 224274, "key_press": -1, "trial_index": 17}, "uniqueid": "MTK3362:3F6KKYWMNC810KEDMGPXME01CCIND3", "dateTime": 1520451577480}, {"current_trial": 18, "trialdata": {"rt": -1, "trial_type": "single-stim", "stimulus": "<p id=\"stim\">2</p>", "internal_node_id": "0.0-10.0-8.0", "time_elapsed": 225275, "key_press": -1, "trial_index": 18}, "uniqueid": "MTK3362:3F6KKYWMNC810KEDMGPXME01CCIND3", "dateTime": 1520451578481}, {"current_trial": 19, "trialdata": {"rt": -1, "trial_type": "single-stim", "stimulus": "<p id=\"stim\">1</p>", "internal_node_id": "0.0-10.0-9.0", "time_elapsed": 226276, "key_press": -1, "trial_index": 19}, "uniqueid": "MTK3362:3F6KKYWMNC810KEDMGPXME01CCIND3", "dateTime": 1520451579482}, {"current_trial": 20, "trialdata": {"rt": -1, "trial_type": "single-stim", "stimulus": "<p id=\"stim\">+</p>", "internal_node_id": "0.0-11.0-0.0", "time_elapsed": 227778, "key_press": -1, "type": "FIXATION", "trial_index": 20}, "uniqueid": "MTK3362:3F6KKYWMNC810KEDMGPXME01CCIND3", "dateTime": 1520451580985}, {"current_trial": 21, "trialdata": {"rt": -1, "trial_type": "single-stim", "word": "pizza", "stimulus": "<p id=\"stim\">PIZZA</p>", "conditions": [18, 1200, "v", 18000], "internal_node_id": "0.0-12.0", "trial": 0, "time_elapsed": 228980, "serialpos": 0, "key_press": -1, "wordID": 1078, "type": "PRES_VIS", "trial_index": 21}, "uniqueid": "MTK3362:3F6KKYWMNC810KEDMGPXME01CCIND3", "dateTime": 1520451582187}, {"current_trial": 22, "trialdata": {"rt": -1, "trial_type": "single-stim", "word": "cod", "stimulus": "<p id=\"stim\">COD</p>", "conditions": [18, 1200, "v", 18000], "internal_node_id": "0.0-13.0", "trial": 0, "time_elapsed": 231098, "serialpos": 1, "key_press": -1, "wordID": 339, "type": "PRES_VIS", "trial_index": 22}, "uniqueid": "MTK3362:3F6KKYWMNC810KEDMGPXME01CCIND3", "dateTime": 1520451584304}, {"current_trial": 23, "trialdata": {"rt": -1, "trial_type": "single-stim", "word": "kidney", "stimulus": "<p id=\"stim\">KIDNEY</p>", "conditions": [18, 1200, "v", 18000], "internal_node_id": "0.0-14.0", "trial": 0, "time_elapsed": 233396, "serialpos": 2, "key_press": -1, "wordID": 775, "type": "PRES_VIS", "trial_index": 23}, "uniqueid": "MTK3362:3F6KKYWMNC810KEDMGPXME01CCIND3", "dateTime": 1520451586602}, {"current_trial": 24, "trialdata": {"rt": -1, "trial_type": "single-stim", "word": "chauffeur", "stimulus": "<p id=\"stim\">CHAUFFEUR</p>", "conditions": [18, 1200, "v", 18000], "internal_node_id": "0.0-15.0", "trial": 0, "time_elapsed": 235567, "serialpos": 3, "key_press": -1, "wordID": 282, "type": "PRES_VIS", "trial_index": 24}, "uniqueid": "MTK3362:3F6KKYWMNC810KEDMGPXME01CCIND3", "dateTime": 1520451588773}, {"current_trial": 25, "trialdata": {"rt": -1, "trial_type": "single-stim", "word": "rug", "stimulus": "<p id=\"stim\">RUG</p>", "conditions": [18, 1200, "v", 18000], "internal_node_id": "0.0-16.0", "trial": 0, "time_elapsed": 237662, "serialpos": 4, "key_press": -1, "wordID": 1214, "type": "PRES_VIS", "trial_index": 25}, "uniqueid": "MTK3362:3F6KKYWMNC810KEDMGPXME01CCIND3", "dateTime": 1520451590869}, {"current_trial": 26, "trialdata": {"rt": -1, "trial_type": "single-stim", "word": "waitress", "stimulus": "<p id=\"stim\">WAITRESS</p>", "conditions": [18, 1200, "v", 18000], "internal_node_id": "0.0-17.0", "trial": 0, "time_elapsed": 239735, "serialpos": 5, "key_press": -1, "wordID": 1580, "type": "PRES_VIS", "trial_index": 26}, "uniqueid": "MTK3362:3F6KKYWMNC810KEDMGPXME01CCIND3", "dateTime": 1520451592941}, {"current_trial": 27, "trialdata": {"rt": -1, "trial_type": "single-stim", "word": "pluto", "stimulus": "<p id=\"stim\">PLUTO</p>", "conditions": [18, 1200, "v", 18000], "internal_node_id": "0.0-18.0", "trial": 0, "time_elapsed": 241904, "serialpos": 6, "key_press": -1, "wordID": 1091, "type": "PRES_VIS", "trial_index": 27}, "uniqueid": "MTK3362:3F6KKYWMNC810KEDMGPXME01CCIND3", "dateTime": 1520451595110}, {"current_trial": 28, "trialdata": {"rt": -1, "trial_type": "single-stim", "word": "lake", "stimulus": "<p id=\"stim\">LAKE</p>", "conditions": [18, 1200, "v", 18000], "internal_node_id": "0.0-19.0", "trial": 0, "time_elapsed": 244140, "serialpos": 7, "key_press": -1, "wordID": 795, "type": "PRES_VIS", "trial_index": 28}, "uniqueid": "MTK3362:3F6KKYWMNC810KEDMGPXME01CCIND3", "dateTime": 1520451597346}, {"current_trial": 29, "trialdata": {"rt": -1, "trial_type": "single-stim", "word": "beaker", "stimulus": "<p id=\"stim\">BEAKER</p>", "conditions": [18, 1200, "v", 18000], "internal_node_id": "0.0-20.0", "trial": 0, "time_elapsed": 246368, "serialpos": 8, "key_press": -1, "wordID": 103, "type": "PRES_VIS", "trial_index": 29}, "uniqueid": "MTK3362:3F6KKYWMNC810KEDMGPXME01CCIND3", "dateTime": 1520451599574}, {"current_trial": 30, "trialdata": {"rt": -1, "trial_type": "single-stim", "word": "termite", "stimulus": "<p id=\"stim\">TERMITE</p>", "conditions": [18, 1200, "v", 18000], "internal_node_id": "0.0-21.0", "trial": 0, "time_elapsed": 248551, "serialpos": 9, "key_press": -1, "wordID": 1450, "type": "PRES_VIS", "trial_index": 30}, "uniqueid": "MTK3362:3F6KKYWMNC810KEDMGPXME01CCIND3", "dateTime": 1520451601757}, {"current_trial": 31, "trialdata": {"rt": -1, "trial_type": "single-stim", "word": "brook", "stimulus": "<p id=\"stim\">BROOK</p>", "conditions": [18, 1200, "v", 18000], "internal_node_id": "0.0-22.0", "trial": 0, "time_elapsed": 250698, "serialpos": 10, "key_press": -1, "wordID": 176, "type": "PRES_VIS", "trial_index": 31}, "uniqueid": "MTK3362:3F6KKYWMNC810KEDMGPXME01CCIND3", "dateTime": 1520451603905}, {"current_trial": 32, "trialdata": {"rt": -1, "trial_type": "single-stim", "word": "bike", "stimulus": "<p id=\"stim\">BIKE</p>", "conditions": [18, 1200, "v", 18000], "internal_node_id": "0.0-23.0", "trial": 0, "time_elapsed": 252851, "serialpos": 11, "key_press": -1, "wordID": 124, "type": "PRES_VIS", "trial_index": 32}, "uniqueid": "MTK3362:3F6KKYWMNC810KEDMGPXME01CCIND3", "dateTime": 1520451606057}, {"current_trial": 33, "trialdata": {"rt": -1, "trial_type": "single-stim", "word": "mildew", "stimulus": "<p id=\"stim\">MILDEW</p>", "conditions": [18, 1200, "v", 18000], "internal_node_id": "0.0-24.0", "trial": 0, "time_elapsed": 255230, "serialpos": 12, "key_press": -1, "wordID": 892, "type": "PRES_VIS", "trial_index": 33}, "uniqueid": "MTK3362:3F6KKYWMNC810KEDMGPXME01CCIND3", "dateTime": 1520451608436}, {"current_trial": 34, "trialdata": {"rt": -1, "trial_type": "single-stim", "word": "permit", "stimulus": "<p id=\"stim\">PERMIT</p>", "conditions": [18, 1200, "v", 18000], "internal_node_id": "0.0-25.0", "trial": 0, "time_elapsed": 257541, "serialpos": 13, "key_press": -1, "wordID": 1050, "type": "PRES_VIS", "trial_index": 34}, "uniqueid": "MTK3362:3F6KKYWMNC810KEDMGPXME01CCIND3", "dateTime": 1520451610747}, {"current_trial": 35, "trialdata": {"rt": -1, "trial_type": "single-stim", "word": "police", "stimulus": "<p id=\"stim\">POLICE</p>", "conditions": [18, 1200, "v", 18000], "internal_node_id": "0.0-26.0", "trial": 0, "time_elapsed": 259666, "serialpos": 14, "key_press": -1, "wordID": 1097, "type": "PRES_VIS", "trial_index": 35}, "uniqueid": "MTK3362:3F6KKYWMNC810KEDMGPXME01CCIND3", "dateTime": 1520451612872}, {"current_trial": 36, "trialdata": {"rt": -1, "trial_type": "single-stim", "word": "empire", "stimulus": "<p id=\"stim\">EMPIRE</p>", "conditions": [18, 1200, "v", 18000], "internal_node_id": "0.0-27.0", "trial": 0, "time_elapsed": 261708, "serialpos": 15, "key_press": -1, "wordID": 529, "type": "PRES_VIS", "trial_index": 36}, "uniqueid": "MTK3362:3F6KKYWMNC810KEDMGPXME01CCIND3", "dateTime": 1520451614914}, {"current_trial": 37, "trialdata": {"rt": -1, "trial_type": "single-stim", "word": "sunrise", "stimulus": "<p id=\"stim\">SUNRISE</p>", "conditions": [18, 1200, "v", 18000], "internal_node_id": "0.0-28.0", "trial": 0, "time_elapsed": 263954, "serialpos": 16, "key_press": -1, "wordID": 1406, "type": "PRES_VIS", "trial_index": 37}, "uniqueid": "MTK3362:3F6KKYWMNC810KEDMGPXME01CCIND3", "dateTime": 1520451617160}, {"current_trial": 38, "trialdata": {"rt": -1, "trial_type": "single-stim", "word": "parrot", "stimulus": "<p id=\"stim\">PARROT</p>", "conditions": [18, 1200, "v", 18000], "internal_node_id": "0.0-29.0", "trial": 0, "time_elapsed": 266246, "serialpos": 17, "key_press": -1, "wordID": 1014, "type": "PRES_VIS", "trial_index": 38}, "uniqueid": "MTK3362:3F6KKYWMNC810KEDMGPXME01CCIND3", "dateTime": 1520451619453}, {"current_trial": 39, "trialdata": {"rt": -1, "trial_type": "single-stim", "stimulus": "", "internal_node_id": "0.0-30.0-0.0", "time_elapsed": 268835, "key_press": -1, "type": "PRE_RECALL_DELAY", "trial_index": 39}, "uniqueid": "MTK3362:3F6KKYWMNC810KEDMGPXME01CCIND3", "dateTime": 1520451622042}, {"current_trial": 40, "trialdata": {"rt": -1000, "trial_type": "single-audio", "stimulus": "/static/audio/400Hz.wav", "internal_node_id": "0.0-31.0", "time_elapsed": 269382, "key_press": -1, "type": "PRE_RECALL_ALERT", "trial_index": 40}, "uniqueid": "MTK3362:3F6KKYWMNC810KEDMGPXME01CCIND3", "dateTime": 1520451622588}, {"current_trial": 41, "trialdata": {"rt": [6591, 8240, 11232, 13551, 16167, 17168, 21472, 24191, 25856, 28151, 31623, 38831, 50191], "recwords": ["parrott", "sunrise", "beaker", "police", "pizza", "cod", "kidney", "rug", "pluto", "lake", "termite", "empire", "waitress"], "key_times": [3600, 3735, 3880, 4023, 4184, 4352, 6287, 6591, 6992, 7167, 7367, 7648, 7768, 7912, 8088, 8240, 8863, 9031, 9184, 9312, 9416, 9447, 11232, 12591, 12767, 12967, 13120, 13215, 13400, 13551, 14984, 15111, 15335, 15512, 15728, 16167, 16431, 16544, 16775, 17168, 19903, 20055, 20599, 20855, 21031, 21198, 21472, 23647, 23815, 23983, 24191, 24575, 24807, 25088, 25479, 25599, 25856, 27591, 27727, 27831, 27951, 28151, 30431, 30551, 30639, 30831, 31014, 31111, 31271, 31623, 37655, 37782, 37998, 38159, 38271, 38391, 38831, 48775, 48999, 49167, 49302, 49519, 49671, 49878, 50023, 50191], "trial_type": "free-recall", "conditions": [18, 1200, "v", 18000], "internal_node_id": "0.0-32.0-0.0", "key_presses": [80, 65, 82, 82, 79, 84, 84, 13, 83, 85, 78, 82, 73, 83, 69, 13, 66, 69, 65, 75, 69, 82, 13, 80, 79, 76, 73, 67, 69, 13, 80, 73, 90, 90, 65, 13, 67, 79, 68, 13, 75, 73, 68, 78, 69, 89, 13, 82, 85, 71, 13, 80, 76, 85, 84, 79, 13, 76, 65, 75, 69, 13, 84, 69, 82, 77, 73, 84, 69, 13, 69, 77, 80, 73, 82, 69, 13, 87, 65, 73, 84, 82, 69, 83, 83, 13], "trial": 0, "time_elapsed": 329386, "type": "FREE_RECALL", "trial_index": 41}, "uniqueid": "MTK3362:3F6KKYWMNC810KEDMGPXME01CCIND3", "dateTime": 1520451682632}, {"current_trial": 42, "trialdata": {"rt": 2377, "trial_type": "text", "internal_node_id": "0.0-33.0", "time_elapsed": 333806, "key_press": 13, "type": "INSTRUCTIONS", "trial_index": 42}, "uniqueid": "MTK3362:3F6KKYWMNC810KEDMGPXME01CCIND3", "dateTime": 1520451687012}, {"current_trial": 43, "trialdata": {"rt": [2475, 6163, 8563, 10372, 11739, 17507], "trial_type": "math-distractor", "key_times": [1843, 1971, 2475, 5403, 5635, 6163, 8084, 8315, 8563, 9883, 10099, 10372, 11531, 11739, 17227, 17347, 17507], "responses": ["11", "17", "19", "19", "5", "21"], "num2": [1, 9, 4, 5, 1, 8, 2], "num3": [1, 4, 6, 9, 1, 7, 5], "conditions": [18, 1200, "v", 18000], "internal_node_id": "0.0-34.0", "key_presses": [49, 49, 13, 49, 55, 13, 49, 57, 13, 49, 57, 13, 53, 13, 50, 49, 13], "trial": 1, "time_elapsed": 353814, "type": "DISTRACTOR", "trial_index": 43, "num1": [9, 4, 9, 5, 3, 6, 7]}, "uniqueid": "MTK3362:3F6KKYWMNC810KEDMGPXME01CCIND3", "dateTime": 1520451707020}, {"current_trial": 44, "trialdata": {"rt": -1, "trial_type": "single-stim", "stimulus": "<p id=\"stim\">10</p>", "internal_node_id": "0.0-35.0-0.0", "time_elapsed": 356823, "key_press": -1, "trial_index": 44}, "uniqueid": "MTK3362:3F6KKYWMNC810KEDMGPXME01CCIND3", "dateTime": 1520451710029}, {"current_trial": 45, "trialdata": {"rt": -1, "trial_type": "single-stim", "stimulus": "<p id=\"stim\">9</p>", "internal_node_id": "0.0-35.0-1.0", "time_elapsed": 357825, "key_press": -1, "trial_index": 45}, "uniqueid": "MTK3362:3F6KKYWMNC810KEDMGPXME01CCIND3", "dateTime": 1520451711031}, {"current_trial": 46, "trialdata": {"rt": -1, "trial_type": "single-stim", "stimulus": "<p id=\"stim\">8</p>", "internal_node_id": "0.0-35.0-2.0", "time_elapsed": 358829, "key_press": -1, "trial_index": 46}, "uniqueid": "MTK3362:3F6KKYWMNC810KEDMGPXME01CCIND3", "dateTime": 1520451712035}, {"current_trial": 47, "trialdata": {"rt": -1, "trial_type": "single-stim", "stimulus": "<p id=\"stim\">7</p>", "internal_node_id": "0.0-35.0-3.0", "time_elapsed": 359832, "key_press": -1, "trial_index": 47}, "uniqueid": "MTK3362:3F6KKYWMNC810KEDMGPXME01CCIND3", "dateTime": 1520451713038}, {"current_trial": 48, "trialdata": {"rt": -1, "trial_type": "single-stim", "stimulus": "<p id=\"stim\">6</p>", "internal_node_id": "0.0-35.0-4.0", "time_elapsed": 360836, "key_press": -1, "trial_index": 48}, "uniqueid": "MTK3362:3F6KKYWMNC810KEDMGPXME01CCIND3", "dateTime": 1520451714042}, {"current_trial": 49, "trialdata": {"rt": -1, "trial_type": "single-stim", "stimulus": "<p id=\"stim\">5</p>", "internal_node_id": "0.0-35.0-5.0", "time_elapsed": 361840, "key_press": -1, "trial_index": 49}, "uniqueid": "MTK3362:3F6KKYWMNC810KEDMGPXME01CCIND3", "dateTime": 1520451715046}, {"current_trial": 50, "trialdata": {"rt": -1, "trial_type": "single-stim", "stimulus": "<p id=\"stim\">4</p>", "internal_node_id": "0.0-35.0-6.0", "time_elapsed": 362844, "key_press": -1, "trial_index": 50}, "uniqueid": "MTK3362:3F6KKYWMNC810KEDMGPXME01CCIND3", "dateTime": 1520451716050}, {"current_trial": 51, "trialdata": {"rt": -1, "trial_type": "single-stim", "stimulus": "<p id=\"stim\">3</p>", "internal_node_id": "0.0-35.0-7.0", "time_elapsed": 363849, "key_press": -1, "trial_index": 51}, "uniqueid": "MTK3362:3F6KKYWMNC810KEDMGPXME01CCIND3", "dateTime": 1520451717055}, {"current_trial": 52, "trialdata": {"rt": -1, "trial_type": "single-stim", "stimulus": "<p id=\"stim\">2</p>", "internal_node_id": "0.0-35.0-8.0", "time_elapsed": 364853, "key_press": -1, "trial_index": 52}, "uniqueid": "MTK3362:3F6KKYWMNC810KEDMGPXME01CCIND3", "dateTime": 1520451718060}, {"current_trial": 53, "trialdata": {"rt": -1, "trial_type": "single-stim", "stimulus": "<p id=\"stim\">1</p>", "internal_node_id": "0.0-35.0-9.0", "time_elapsed": 365857, "key_press": -1, "trial_index": 53}, "uniqueid": "MTK3362:3F6KKYWMNC810KEDMGPXME01CCIND3", "dateTime": 1520451719063}, {"current_trial": 54, "trialdata": {"rt": -1, "trial_type": "single-stim", "stimulus": "<p id=\"stim\">+</p>", "internal_node_id": "0.0-36.0-0.0", "time_elapsed": 367360, "key_press": -1, "type": "FIXATION", "trial_index": 54}, "uniqueid": "MTK3362:3F6KKYWMNC810KEDMGPXME01CCIND3", "dateTime": 1520451720566}, {"current_trial": 55, "trialdata": {"rt": -1, "trial_type": "single-stim", "word": "table", "stimulus": "<p id=\"stim\">TABLE</p>", "conditions": [18, 1200, "v", 18000], "internal_node_id": "0.0-37.0", "trial": 1, "time_elapsed": 368562, "serialpos": 0, "key_press": -1, "wordID": 1425, "type": "PRES_VIS", "trial_index": 55}, "uniqueid": "MTK3362:3F6KKYWMNC810KEDMGPXME01CCIND3", "dateTime": 1520451721768}, {"current_trial": 56, "trialdata": {"rt": -1, "trial_type": "single-stim", "word": "elbow", "stimulus": "<p id=\"stim\">ELBOW</p>", "conditions": [18, 1200, "v", 18000], "internal_node_id": "0.0-38.0", "trial": 1, "time_elapsed": 370674, "serialpos": 1, "key_press": -1, "wordID": 519, "type": "PRES_VIS", "trial_index": 56}, "uniqueid": "MTK3362:3F6KKYWMNC810KEDMGPXME01CCIND3", "dateTime": 1520451723880}, {"current_trial": 57, "trialdata": {"rt": -1, "trial_type": "single-stim", "word": "queen", "stimulus": "<p id=\"stim\">QUEEN</p>", "conditions": [18, 1200, "v", 18000], "internal_node_id": "0.0-39.0", "trial": 1, "time_elapsed": 372682, "serialpos": 2, "key_press": -1, "wordID": 1148, "type": "PRES_VIS", "trial_index": 57}, "uniqueid": "MTK3362:3F6KKYWMNC810KEDMGPXME01CCIND3", "dateTime": 1520451725889}, {"current_trial": 58, "trialdata": {"rt": -1, "trial_type": "single-stim", "word": "fungus", "stimulus": "<p id=\"stim\">FUNGUS</p>", "conditions": [18, 1200, "v", 18000], "internal_node_id": "0.0-40.0", "trial": 1, "time_elapsed": 374929, "serialpos": 3, "key_press": -1, "wordID": 613, "type": "PRES_VIS", "trial_index": 58}, "uniqueid": "MTK3362:3F6KKYWMNC810KEDMGPXME01CCIND3", "dateTime": 1520451728135}, {"current_trial": 59, "trialdata": {"rt": -1, "trial_type": "single-stim", "word": "citrus", "stimulus": "<p id=\"stim\">CITRUS</p>", "conditions": [18, 1200, "v", 18000], "internal_node_id": "0.0-41.0", "trial": 1, "time_elapsed": 377210, "serialpos": 4, "key_press": -1, "wordID": 312, "type": "PRES_VIS", "trial_index": 59}, "uniqueid": "MTK3362:3F6KKYWMNC810KEDMGPXME01CCIND3", "dateTime": 1520451730416}, {"current_trial": 60, "trialdata": {"rt": -1, "trial_type": "single-stim", "word": "tart", "stimulus": "<p id=\"stim\">TART</p>", "conditions": [18, 1200, "v", 18000], "internal_node_id": "0.0-42.0", "trial": 1, "time_elapsed": 379316, "serialpos": 5, "key_press": -1, "wordID": 1435, "type": "PRES_VIS", "trial_index": 60}, "uniqueid": "MTK3362:3F6KKYWMNC810KEDMGPXME01CCIND3", "dateTime": 1520451732522}, {"current_trial": 61, "trialdata": {"rt": -1, "trial_type": "single-stim", "word": "handbag", "stimulus": "<p id=\"stim\">HANDBAG</p>", "conditions": [18, 1200, "v", 18000], "internal_node_id": "0.0-43.0", "trial": 1, "time_elapsed": 381603, "serialpos": 6, "key_press": -1, "wordID": 683, "type": "PRES_VIS", "trial_index": 61}, "uniqueid": "MTK3362:3F6KKYWMNC810KEDMGPXME01CCIND3", "dateTime": 1520451734809}, {"current_trial": 62, "trialdata": {"rt": -1, "trial_type": "single-stim", "word": "fireman", "stimulus": "<p id=\"stim\">FIREMAN</p>", "conditions": [18, 1200, "v", 18000], "internal_node_id": "0.0-44.0", "trial": 1, "time_elapsed": 383718, "serialpos": 7, "key_press": -1, "wordID": 568, "type": "PRES_VIS", "trial_index": 62}, "uniqueid": "MTK3362:3F6KKYWMNC810KEDMGPXME01CCIND3", "dateTime": 1520451736924}, {"current_trial": 63, "trialdata": {"rt": -1, "trial_type": "single-stim", "word": "tourist", "stimulus": "<p id=\"stim\">TOURIST</p>", "conditions": [18, 1200, "v", 18000], "internal_node_id": "0.0-45.0", "trial": 1, "time_elapsed": 385788, "serialpos": 8, "key_press": -1, "wordID": 1487, "type": "PRES_VIS", "trial_index": 63}, "uniqueid": "MTK3362:3F6KKYWMNC810KEDMGPXME01CCIND3", "dateTime": 1520451738994}, {"current_trial": 64, "trialdata": {"rt": -1, "trial_type": "single-stim", "word": "skillet", "stimulus": "<p id=\"stim\">SKILLET</p>", "conditions": [18, 1200, "v", 18000], "internal_node_id": "0.0-46.0", "trial": 1, "time_elapsed": 388111, "serialpos": 9, "key_press": -1, "wordID": 1316, "type": "PRES_VIS", "trial_index": 64}, "uniqueid": "MTK3362:3F6KKYWMNC810KEDMGPXME01CCIND3", "dateTime": 1520451741317}, {"current_trial": 65, "trialdata": {"rt": -1, "trial_type": "single-stim", "word": "foot", "stimulus": "<p id=\"stim\">FOOT</p>", "conditions": [18, 1200, "v", 18000], "internal_node_id": "0.0-47.0", "trial": 1, "time_elapsed": 390512, "serialpos": 10, "key_press": -1, "wordID": 589, "type": "PRES_VIS", "trial_index": 65}, "uniqueid": "MTK3362:3F6KKYWMNC810KEDMGPXME01CCIND3", "dateTime": 1520451743718}, {"current_trial": 66, "trialdata": {"rt": -1, "trial_type": "single-stim", "word": "jungle", "stimulus": "<p id=\"stim\">JUNGLE</p>", "conditions": [18, 1200, "v", 18000], "internal_node_id": "0.0-48.0", "trial": 1, "time_elapsed": 392532, "serialpos": 11, "key_press": -1, "wordID": 763, "type": "PRES_VIS", "trial_index": 66}, "uniqueid": "MTK3362:3F6KKYWMNC810KEDMGPXME01CCIND3", "dateTime": 1520451745738}, {"current_trial": 67, "trialdata": {"rt": -1, "trial_type": "single-stim", "word": "radish", "stimulus": "<p id=\"stim\">RADISH</p>", "conditions": [18, 1200, "v", 18000], "internal_node_id": "0.0-49.0", "trial": 1, "time_elapsed": 394801, "serialpos": 12, "key_press": -1, "wordID": 1157, "type": "PRES_VIS", "trial_index": 67}, "uniqueid": "MTK3362:3F6KKYWMNC810KEDMGPXME01CCIND3", "dateTime": 1520451748007}, {"current_trial": 68, "trialdata": {"rt": -1, "trial_type": "single-stim", "word": "gazelle", "stimulus": "<p id=\"stim\">GAZELLE</p>", "conditions": [18, 1200, "v", 18000], "internal_node_id": "0.0-50.0", "trial": 1, "time_elapsed": 396989, "serialpos": 13, "key_press": -1, "wordID": 627, "type": "PRES_VIS", "trial_index": 68}, "uniqueid": "MTK3362:3F6KKYWMNC810KEDMGPXME01CCIND3", "dateTime": 1520451750203}, {"current_trial": 69, "trialdata": {"rt": -1, "trial_type": "single-stim", "word": "hero", "stimulus": "<p id=\"stim\">HERO</p>", "conditions": [18, 1200, "v", 18000], "internal_node_id": "0.0-51.0", "trial": 1, "time_elapsed": 399401, "serialpos": 14, "key_press": -1, "wordID": 705, "type": "PRES_VIS", "trial_index": 69}, "uniqueid": "MTK3362:3F6KKYWMNC810KEDMGPXME01CCIND3", "dateTime": 1520451752607}, {"current_trial": 70, "trialdata": {"rt": -1, "trial_type": "single-stim", "word": "flipper", "stimulus": "<p id=\"stim\">FLIPPER</p>", "conditions": [18, 1200, "v", 18000], "internal_node_id": "0.0-52.0", "trial": 1, "time_elapsed": 401505, "serialpos": 15, "key_press": -1, "wordID": 579, "type": "PRES_VIS", "trial_index": 70}, "uniqueid": "MTK3362:3F6KKYWMNC810KEDMGPXME01CCIND3", "dateTime": 1520451754711}, {"current_trial": 71, "trialdata": {"rt": -1, "trial_type": "single-stim", "word": "cafe", "stimulus": "<p id=\"stim\">CAFE</p>", "conditions": [18, 1200, "v", 18000], "internal_node_id": "0.0-53.0", "trial": 1, "time_elapsed": 403819, "serialpos": 16, "key_press": -1, "wordID": 215, "type": "PRES_VIS", "trial_index": 71}, "uniqueid": "MTK3362:3F6KKYWMNC810KEDMGPXME01CCIND3", "dateTime": 1520451757025}, {"current_trial": 72, "trialdata": {"rt": -1, "trial_type": "single-stim", "word": "flask", "stimulus": "<p id=\"stim\">FLASK</p>", "conditions": [18, 1200, "v", 18000], "internal_node_id": "0.0-54.0", "trial": 1, "time_elapsed": 405968, "serialpos": 17, "key_press": -1, "wordID": 575, "type": "PRES_VIS", "trial_index": 72}, "uniqueid": "MTK3362:3F6KKYWMNC810KEDMGPXME01CCIND3", "dateTime": 1520451759174}, {"current_trial": 73, "trialdata": {"rt": -1, "trial_type": "single-stim", "stimulus": "", "internal_node_id": "0.0-55.0-0.0", "time_elapsed": 408074, "key_press": -1, "type": "PRE_RECALL_DELAY", "trial_index": 73}, "uniqueid": "MTK3362:3F6KKYWMNC810KEDMGPXME01CCIND3", "dateTime": 1520451761280}, {"current_trial": 74, "trialdata": {"rt": -1000, "trial_type": "single-audio", "stimulus": "/static/audio/400Hz.wav", "internal_node_id": "0.0-56.0", "time_elapsed": 408576, "key_press": -1, "type": "PRE_RECALL_ALERT", "trial_index": 74}, "uniqueid": "MTK3362:3F6KKYWMNC810KEDMGPXME01CCIND3", "dateTime": 1520451761782}, {"current_trial": 75, "trialdata": {"rt": [2627, 4060, 5748, 11931, 15835, 17669, 21491, 25851, 29027, 35427, 44107, 50635], "recwords": ["cafe", "flask", "hero", "fungus", "tart", "citrus", "queen", "table", "elbow", "gazelle", "flipper", "handbag"], "key_times": [1812, 2028, 2244, 2412, 2627, 2963, 3203, 3411, 3612, 3764, 4060, 4388, 4596, 4755, 4988, 5748, 10531, 10756, 11020, 11268, 11412, 11635, 11931, 15027, 15291, 15435, 15636, 15835, 16459, 16628, 16763, 16947, 17132, 17267, 17669, 20627, 20804, 20979, 21147, 21244, 21491, 23140, 23323, 23947, 24236, 24612, 25851, 28003, 28147, 28435, 28635, 28771, 29027, 33251, 33459, 33779, 34044, 34803, 34939, 35043, 35427, 42283, 42746, 43051, 43276, 43507, 43722, 43843, 44107, 49147, 49314, 49435, 49531, 49891, 50138, 50347, 50635, 59011, 59227, 59434, 59562, 59659, 59787], "trial_type": "free-recall", "conditions": [18, 1200, "v", 18000], "internal_node_id": "0.0-57.0-0.0", "key_presses": [67, 65, 70, 69, 13, 70, 76, 65, 83, 75, 13, 72, 69, 82, 79, 13, 70, 85, 78, 71, 85, 83, 13, 84, 65, 82, 84, 13, 67, 73, 84, 82, 85, 83, 13, 81, 85, 69, 69, 78, 13, 84, 65, 66, 76, 69, 13, 69, 76, 66, 79, 87, 13, 71, 65, 90, 69, 76, 76, 69, 13, 70, 76, 73, 80, 80, 69, 82, 13, 72, 65, 78, 68, 66, 65, 71, 13, 82, 65, 68, 73, 83, 72], "trial": 1, "time_elapsed": 468578, "type": "FREE_RECALL", "trial_index": 75}, "uniqueid": "MTK3362:3F6KKYWMNC810KEDMGPXME01CCIND3", "dateTime": 1520451821786}, {"current_trial": 76, "trialdata": {"rt": 2933, "trial_type": "text", "internal_node_id": "0.0-58.0", "time_elapsed": 473515, "key_press": 32, "type": "INSTRUCTIONS", "trial_index": 76}, "uniqueid": "MTK3362:3F6KKYWMNC810KEDMGPXME01CCIND3", "dateTime": 1520451826721}, {"current_trial": 77, "trialdata": {"rt": [2221, 4325, 7789, 9749, 12005, 17525, 19069, 20621, 22524], "trial_type": "math-distractor", "key_times": [1741, 1973, 2221, 3941, 4149, 4325, 7485, 7621, 7789, 9421, 9589, 9749, 11709, 11885, 12005, 17277, 17404, 17525, 18813, 18917, 19069, 20357, 20477, 20621, 22261, 22364, 22524], "responses": ["17", "10", "15", "14", "20", "22", "15", "11", "12"], "num2": [4, 2, 7, 3, 6, 7, 5, 4, 4, 8], "num3": [6, 4, 6, 7, 9, 8, 1, 6, 6, 5], "conditions": [24, 1600, "v", 24000], "internal_node_id": "0.0-59.0", "key_presses": [49, 55, 13, 49, 48, 13, 49, 53, 13, 49, 52, 13, 50, 48, 13, 50, 50, 13, 49, 53, 13, 49, 49, 13, 49, 50, 13], "trial": 2, "time_elapsed": 498521, "type": "DISTRACTOR", "trial_index": 77, "num1": [7, 4, 2, 4, 5, 7, 9, 1, 2, 5]}, "uniqueid": "MTK3362:3F6KKYWMNC810KEDMGPXME01CCIND3", "dateTime": 1520451851727}, {"current_trial": 78, "trialdata": {"rt": -1, "trial_type": "single-stim", "stimulus": "<p id=\"stim\">10</p>", "internal_node_id": "0.0-60.0-0.0", "time_elapsed": 501526, "key_press": -1, "trial_index": 78}, "uniqueid": "MTK3362:3F6KKYWMNC810KEDMGPXME01CCIND3", "dateTime": 1520451854732}, {"current_trial": 79, "trialdata": {"rt": -1, "trial_type": "single-stim", "stimulus": "<p id=\"stim\">9</p>", "internal_node_id": "0.0-60.0-1.0", "time_elapsed": 502531, "key_press": -1, "trial_index": 79}, "uniqueid": "MTK3362:3F6KKYWMNC810KEDMGPXME01CCIND3", "dateTime": 1520451855737}, {"current_trial": 80, "trialdata": {"rt": -1, "trial_type": "single-stim", "stimulus": "<p id=\"stim\">8</p>", "internal_node_id": "0.0-60.0-2.0", "time_elapsed": 503535, "key_press": -1, "trial_index": 80}, "uniqueid": "MTK3362:3F6KKYWMNC810KEDMGPXME01CCIND3", "dateTime": 1520451856741}, {"current_trial": 81, "trialdata": {"rt": -1, "trial_type": "single-stim", "stimulus": "<p id=\"stim\">7</p>", "internal_node_id": "0.0-60.0-3.0", "time_elapsed": 504539, "key_press": -1, "trial_index": 81}, "uniqueid": "MTK3362:3F6KKYWMNC810KEDMGPXME01CCIND3", "dateTime": 1520451857745}, {"current_trial": 82, "trialdata": {"rt": -1, "trial_type": "single-stim", "stimulus": "<p id=\"stim\">6</p>", "internal_node_id": "0.0-60.0-4.0", "time_elapsed": 505543, "key_press": -1, "trial_index": 82}, "uniqueid": "MTK3362:3F6KKYWMNC810KEDMGPXME01CCIND3", "dateTime": 1520451858749}, {"current_trial": 83, "trialdata": {"rt": -1, "trial_type": "single-stim", "stimulus": "<p id=\"stim\">5</p>", "internal_node_id": "0.0-60.0-5.0", "time_elapsed": 506547, "key_press": -1, "trial_index": 83}, "uniqueid": "MTK3362:3F6KKYWMNC810KEDMGPXME01CCIND3", "dateTime": 1520451859753}, {"current_trial": 84, "trialdata": {"rt": -1, "trial_type": "single-stim", "stimulus": "<p id=\"stim\">4</p>", "internal_node_id": "0.0-60.0-6.0", "time_elapsed": 507550, "key_press": -1, "trial_index": 84}, "uniqueid": "MTK3362:3F6KKYWMNC810KEDMGPXME01CCIND3", "dateTime": 1520451860757}, {"current_trial": 85, "trialdata": {"rt": -1, "trial_type": "single-stim", "stimulus": "<p id=\"stim\">3</p>", "internal_node_id": "0.0-60.0-7.0", "time_elapsed": 508555, "key_press": -1, "trial_index": 85}, "uniqueid": "MTK3362:3F6KKYWMNC810KEDMGPXME01CCIND3", "dateTime": 1520451861761}, {"current_trial": 86, "trialdata": {"rt": -1, "trial_type": "single-stim", "stimulus": "<p id=\"stim\">2</p>", "internal_node_id": "0.0-60.0-8.0", "time_elapsed": 509559, "key_press": -1, "trial_index": 86}, "uniqueid": "MTK3362:3F6KKYWMNC810KEDMGPXME01CCIND3", "dateTime": 1520451862765}, {"current_trial": 87, "trialdata": {"rt": -1, "trial_type": "single-stim", "stimulus": "<p id=\"stim\">1</p>", "internal_node_id": "0.0-60.0-9.0", "time_elapsed": 510563, "key_press": -1, "trial_index": 87}, "uniqueid": "MTK3362:3F6KKYWMNC810KEDMGPXME01CCIND3", "dateTime": 1520451863770}, {"current_trial": 88, "trialdata": {"rt": -1, "trial_type": "single-stim", "stimulus": "<p id=\"stim\">+</p>", "internal_node_id": "0.0-61.0-0.0", "time_elapsed": 512066, "key_press": -1, "type": "FIXATION", "trial_index": 88}, "uniqueid": "MTK3362:3F6KKYWMNC810KEDMGPXME01CCIND3", "dateTime": 1520451865273}, {"current_trial": 89, "trialdata": {"rt": -1, "trial_type": "single-stim", "word": "orchid", "stimulus": "<p id=\"stim\">ORCHID</p>", "conditions": [24, 1600, "v", 24000], "internal_node_id": "0.0-62.0", "trial": 2, "time_elapsed": 513669, "serialpos": 0, "key_press": -1, "wordID": 981, "type": "PRES_VIS", "trial_index": 89}, "uniqueid": "MTK3362:3F6KKYWMNC810KEDMGPXME01CCIND3", "dateTime": 1520451866875}, {"current_trial": 90, "trialdata": {"rt": -1, "trial_type": "single-stim", "word": "truck", "stimulus": "<p id=\"stim\">TRUCK</p>", "conditions": [24, 1600, "v", 24000], "internal_node_id": "0.0-63.0", "trial": 2, "time_elapsed": 516253, "serialpos": 1, "key_press": -1, "wordID": 1511, "type": "PRES_VIS", "trial_index": 90}, "uniqueid": "MTK3362:3F6KKYWMNC810KEDMGPXME01CCIND3", "dateTime": 1520451869459}, {"current_trial": 91, "trialdata": {"rt": -1, "trial_type": "single-stim", "word": "tractor", "stimulus": "<p id=\"stim\">TRACTOR</p>", "conditions": [24, 1600, "v", 24000], "internal_node_id": "0.0-64.0", "trial": 2, "time_elapsed": 518784, "serialpos": 2, "key_press": -1, "wordID": 1492, "type": "PRES_VIS", "trial_index": 91}, "uniqueid": "MTK3362:3F6KKYWMNC810KEDMGPXME01CCIND3", "dateTime": 1520451871991}, {"current_trial": 92, "trialdata": {"rt": -1, "trial_type": "single-stim", "word": "clam", "stimulus": "<p id=\"stim\">CLAM</p>", "conditions": [24, 1600, "v", 24000], "internal_node_id": "0.0-65.0", "trial": 2, "time_elapsed": 521263, "serialpos": 3, "key_press": -1, "wordID": 314, "type": "PRES_VIS", "trial_index": 92}, "uniqueid": "MTK3362:3F6KKYWMNC810KEDMGPXME01CCIND3", "dateTime": 1520451874469}, {"current_trial": 93, "trialdata": {"rt": -1, "trial_type": "single-stim", "word": "scalpel", "stimulus": "<p id=\"stim\">SCALPEL</p>", "conditions": [24, 1600, "v", 24000], "internal_node_id": "0.0-66.0", "trial": 2, "time_elapsed": 523676, "serialpos": 4, "key_press": -1, "wordID": 1242, "type": "PRES_VIS", "trial_index": 93}, "uniqueid": "MTK3362:3F6KKYWMNC810KEDMGPXME01CCIND3", "dateTime": 1520451876882}, {"current_trial": 94, "trialdata": {"rt": -1, "trial_type": "single-stim", "word": "flashlight", "stimulus": "<p id=\"stim\">FLASHLIGHT</p>", "conditions": [24, 1600, "v", 24000], "internal_node_id": "0.0-67.0", "trial": 2, "time_elapsed": 526118, "serialpos": 5, "key_press": -1, "wordID": 574, "type": "PRES_VIS", "trial_index": 94}, "uniqueid": "MTK3362:3F6KKYWMNC810KEDMGPXME01CCIND3", "dateTime": 1520451879324}, {"current_trial": 95, "trialdata": {"rt": -1, "trial_type": "single-stim", "word": "survey", "stimulus": "<p id=\"stim\">SURVEY</p>", "conditions": [24, 1600, "v", 24000], "internal_node_id": "0.0-68.0", "trial": 2, "time_elapsed": 528584, "serialpos": 6, "key_press": -1, "wordID": 1413, "type": "PRES_VIS", "trial_index": 95}, "uniqueid": "MTK3362:3F6KKYWMNC810KEDMGPXME01CCIND3", "dateTime": 1520451881790}, {"current_trial": 96, "trialdata": {"rt": -1, "trial_type": "single-stim", "word": "atlas", "stimulus": "<p id=\"stim\">ATLAS</p>", "conditions": [24, 1600, "v", 24000], "internal_node_id": "0.0-69.0", "trial": 2, "time_elapsed": 531054, "serialpos": 7, "key_press": -1, "wordID": 52, "type": "PRES_VIS", "trial_index": 96}, "uniqueid": "MTK3362:3F6KKYWMNC810KEDMGPXME01CCIND3", "dateTime": 1520451884260}, {"current_trial": 97, "trialdata": {"rt": -1, "trial_type": "single-stim", "word": "jello", "stimulus": "<p id=\"stim\">JELLO</p>", "conditions": [24, 1600, "v", 24000], "internal_node_id": "0.0-70.0", "trial": 2, "time_elapsed": 533575, "serialpos": 8, "key_press": -1, "wordID": 753, "type": "PRES_VIS", "trial_index": 97}, "uniqueid": "MTK3362:3F6KKYWMNC810KEDMGPXME01CCIND3", "dateTime": 1520451886781}, {"current_trial": 98, "trialdata": {"rt": -1, "trial_type": "single-stim", "word": "razor", "stimulus": "<p id=\"stim\">RAZOR</p>", "conditions": [24, 1600, "v", 24000], "internal_node_id": "0.0-71.0", "trial": 2, "time_elapsed": 536262, "serialpos": 9, "key_press": -1, "wordID": 1170, "type": "PRES_VIS", "trial_index": 98}, "uniqueid": "MTK3362:3F6KKYWMNC810KEDMGPXME01CCIND3", "dateTime": 1520451889469}, {"current_trial": 99, "trialdata": {"rt": -1, "trial_type": "single-stim", "word": "cashew", "stimulus": "<p id=\"stim\">CASHEW</p>", "conditions": [24, 1600, "v", 24000], "internal_node_id": "0.0-72.0", "trial": 2, "time_elapsed": 539056, "serialpos": 10, "key_press": -1, "wordID": 252, "type": "PRES_VIS", "trial_index": 99}, "uniqueid": "MTK3362:3F6KKYWMNC810KEDMGPXME01CCIND3", "dateTime": 1520451892262}, {"current_trial": 100, "trialdata": {"rt": -1, "trial_type": "single-stim", "word": "quarter", "stimulus": "<p id=\"stim\">QUARTER</p>", "conditions": [24, 1600, "v", 24000], "internal_node_id": "0.0-73.0", "trial": 2, "time_elapsed": 541735, "serialpos": 11, "key_press": -1, "wordID": 1147, "type": "PRES_VIS", "trial_index": 100}, "uniqueid": "MTK3362:3F6KKYWMNC810KEDMGPXME01CCIND3", "dateTime": 1520451894941}, {"current_trial": 101, "trialdata": {"rt": -1, "trial_type": "single-stim", "word": "diner", "stimulus": "<p id=\"stim\">DINER</p>", "conditions": [24, 1600, "v", 24000], "internal_node_id": "0.0-74.0", "trial": 2, "time_elapsed": 544440, "serialpos": 12, "key_press": -1, "wordID": 466, "type": "PRES_VIS", "trial_index": 101}, "uniqueid": "MTK3362:3F6KKYWMNC810KEDMGPXME01CCIND3", "dateTime": 1520451897646}, {"current_trial": 102, "trialdata": {"rt": -1, "trial_type": "single-stim", "word": "robin", "stimulus": "<p id=\"stim\">ROBIN</p>", "conditions": [24, 1600, "v", 24000], "internal_node_id": "0.0-75.0", "trial": 2, "time_elapsed": 547226, "serialpos": 13, "key_press": -1, "wordID": 1198, "type": "PRES_VIS", "trial_index": 102}, "uniqueid": "MTK3362:3F6KKYWMNC810KEDMGPXME01CCIND3", "dateTime": 1520451900432}, {"current_trial": 103, "trialdata": {"rt": -1, "trial_type": "single-stim", "word": "sparrow", "stimulus": "<p id=\"stim\">SPARROW</p>", "conditions": [24, 1600, "v", 24000], "internal_node_id": "0.0-76.0", "trial": 2, "time_elapsed": 549867, "serialpos": 14, "key_press": -1, "wordID": 1346, "type": "PRES_VIS", "trial_index": 103}, "uniqueid": "MTK3362:3F6KKYWMNC810KEDMGPXME01CCIND3", "dateTime": 1520451903073}, {"current_trial": 104, "trialdata": {"rt": -1, "trial_type": "single-stim", "word": "soda", "stimulus": "<p id=\"stim\">SODA</p>", "conditions": [24, 1600, "v", 24000], "internal_node_id": "0.0-77.0", "trial": 2, "time_elapsed": 552562, "serialpos": 15, "key_press": -1, "wordID": 1340, "type": "PRES_VIS", "trial_index": 104}, "uniqueid": "MTK3362:3F6KKYWMNC810KEDMGPXME01CCIND3", "dateTime": 1520451905768}, {"current_trial": 105, "trialdata": {"rt": -1, "trial_type": "single-stim", "word": "marrow", "stimulus": "<p id=\"stim\">MARROW</p>", "conditions": [24, 1600, "v", 24000], "internal_node_id": "0.0-78.0", "trial": 2, "time_elapsed": 555282, "serialpos": 16, "key_press": -1, "wordID": 871, "type": "PRES_VIS", "trial_index": 105}, "uniqueid": "MTK3362:3F6KKYWMNC810KEDMGPXME01CCIND3", "dateTime": 1520451908488}, {"current_trial": 106, "trialdata": {"rt": -1, "trial_type": "single-stim", "word": "cupboard", "stimulus": "<p id=\"stim\">CUPBOARD</p>", "conditions": [24, 1600, "v", 24000], "internal_node_id": "0.0-79.0", "trial": 2, "time_elapsed": 557853, "serialpos": 17, "key_press": -1, "wordID": 424, "type": "PRES_VIS", "trial_index": 106}, "uniqueid": "MTK3362:3F6KKYWMNC810KEDMGPXME01CCIND3", "dateTime": 1520451911059}, {"current_trial": 107, "trialdata": {"rt": -1, "trial_type": "single-stim", "word": "seafood", "stimulus": "<p id=\"stim\">SEAFOOD</p>", "conditions": [24, 1600, "v", 24000], "internal_node_id": "0.0-80.0", "trial": 2, "time_elapsed": 560424, "serialpos": 18, "key_press": -1, "wordID": 1259, "type": "PRES_VIS", "trial_index": 107}, "uniqueid": "MTK3362:3F6KKYWMNC810KEDMGPXME01CCIND3", "dateTime": 1520451913630}, {"current_trial": 108, "trialdata": {"rt": -1, "trial_type": "single-stim", "word": "grape", "stimulus": "<p id=\"stim\">GRAPE</p>", "conditions": [24, 1600, "v", 24000], "internal_node_id": "0.0-81.0", "trial": 2, "time_elapsed": 562956, "serialpos": 19, "key_press": -1, "wordID": 653, "type": "PRES_VIS", "trial_index": 108}, "uniqueid": "MTK3362:3F6KKYWMNC810KEDMGPXME01CCIND3", "dateTime": 1520451916163}, {"current_trial": 109, "trialdata": {"rt": -1, "trial_type": "single-stim", "word": "spider", "stimulus": "<p id=\"stim\">SPIDER</p>", "conditions": [24, 1600, "v", 24000], "internal_node_id": "0.0-82.0", "trial": 2, "time_elapsed": 565677, "serialpos": 20, "key_press": -1, "wordID": 1350, "type": "PRES_VIS", "trial_index": 109}, "uniqueid": "MTK3362:3F6KKYWMNC810KEDMGPXME01CCIND3", "dateTime": 1520451918883}, {"current_trial": 110, "trialdata": {"rt": -1, "trial_type": "single-stim", "word": "zebra", "stimulus": "<p id=\"stim\">ZEBRA</p>", "conditions": [24, 1600, "v", 24000], "internal_node_id": "0.0-83.0", "trial": 2, "time_elapsed": 568178, "serialpos": 21, "key_press": -1, "wordID": 1634, "type": "PRES_VIS", "trial_index": 110}, "uniqueid": "MTK3362:3F6KKYWMNC810KEDMGPXME01CCIND3", "dateTime": 1520451921384}, {"current_trial": 111, "trialdata": {"rt": -1, "trial_type": "single-stim", "word": "basement", "stimulus": "<p id=\"stim\">BASEMENT</p>", "conditions": [24, 1600, "v", 24000], "internal_node_id": "0.0-84.0", "trial": 2, "time_elapsed": 570825, "serialpos": 22, "key_press": -1, "wordID": 93, "type": "PRES_VIS", "trial_index": 111}, "uniqueid": "MTK3362:3F6KKYWMNC810KEDMGPXME01CCIND3", "dateTime": 1520451924031}, {"current_trial": 112, "trialdata": {"rt": -1, "trial_type": "single-stim", "word": "snake", "stimulus": "<p id=\"stim\">SNAKE</p>", "conditions": [24, 1600, "v", 24000], "internal_node_id": "0.0-85.0", "trial": 2, "time_elapsed": 573397, "serialpos": 23, "key_press": -1, "wordID": 1332, "type": "PRES_VIS", "trial_index": 112}, "uniqueid": "MTK3362:3F6KKYWMNC810KEDMGPXME01CCIND3", "dateTime": 1520451926603}, {"current_trial": 113, "trialdata": {"rt": -1, "trial_type": "single-stim", "stimulus": "", "internal_node_id": "0.0-86.0-0.0", "time_elapsed": 575462, "key_press": -1, "type": "PRE_RECALL_DELAY", "trial_index": 113}, "uniqueid": "MTK3362:3F6KKYWMNC810KEDMGPXME01CCIND3", "dateTime": 1520451928668}, {"current_trial": 114, "trialdata": {"rt": -1000, "trial_type": "single-audio", "stimulus": "/static/audio/400Hz.wav", "internal_node_id": "0.0-87.0", "time_elapsed": 575962, "key_press": -1, "type": "PRE_RECALL_ALERT", "trial_index": 114}, "uniqueid": "MTK3362:3F6KKYWMNC810KEDMGPXME01CCIND3", "dateTime": 1520451929169}, {"current_trial": 115, "trialdata": {"rt": [2974, 6037, 9013, 12341, 17676, 20389, 22500, 24029, 28845, 30741, 32469, 36373, 37460, 54276], "recwords": ["snake", "basement", "cupboard", "seafood", "scalpel", "orchid", "truck", "tractor", "cashew", "quarter", "razor", "sparrow", "marrow", "clam"], "key_times": [1653, 2085, 2349, 2469, 2605, 2974, 3317, 3469, 3821, 4470, 4621, 4789, 5013, 5165, 5309, 5453, 6037, 6429, 6549, 6661, 6893, 7197, 7445, 7637, 8517, 9013, 10189, 10373, 10541, 10782, 11325, 11477, 11662, 12341, 16061, 16285, 16733, 16981, 17212, 17332, 17429, 17676, 18861, 19037, 19669, 19788, 19869, 19973, 20389, 21677, 21845, 21981, 22157, 22292, 22500, 22812, 23013, 23180, 23389, 23636, 23757, 23869, 24029, 27781, 27949, 28109, 28237, 28372, 28500, 28845, 29596, 29756, 29909, 30053, 30244, 30421, 30501, 30741, 31189, 31380, 31788, 32037, 32205, 32469, 35204, 35420, 35653, 35813, 35956, 36069, 36164, 36373, 36637, 36796, 36933, 37076, 37204, 37285, 37460, 53685, 53788, 53892, 53972, 54276], "trial_type": "free-recall", "conditions": [24, 1600, "v", 24000], "internal_node_id": "0.0-88.0-0.0", "key_presses": [83, 78, 65, 75, 69, 13, 66, 65, 69, 8, 83, 69, 77, 69, 78, 84, 13, 67, 85, 80, 66, 79, 65, 82, 68, 13, 83, 69, 65, 70, 79, 79, 68, 13, 83, 67, 65, 76, 80, 69, 76, 13, 79, 82, 67, 72, 73, 68, 13, 84, 82, 85, 67, 75, 13, 84, 82, 65, 67, 84, 79, 82, 13, 67, 65, 83, 72, 69, 87, 13, 81, 85, 65, 82, 84, 69, 82, 13, 82, 65, 90, 79, 82, 13, 83, 80, 65, 82, 82, 79, 87, 13, 77, 65, 82, 82, 79, 87, 13, 67, 76, 65, 77, 13], "trial": 2, "time_elapsed": 635966, "type": "FREE_RECALL", "trial_index": 115}, "uniqueid": "MTK3362:3F6KKYWMNC810KEDMGPXME01CCIND3", "dateTime": 1520451989174}, {"current_trial": 116, "trialdata": {"rt": 1990, "trial_type": "text", "internal_node_id": "0.0-89.0", "time_elapsed": 639960, "key_press": 13, "type": "INSTRUCTIONS", "trial_index": 116}, "uniqueid": "MTK3362:3F6KKYWMNC810KEDMGPXME01CCIND3", "dateTime": 1520451993166}, {"current_trial": 117, "trialdata": {"rt": [2366, 4222, 6253, 8190, 10021], "trial_type": "math-distractor", "key_times": [1846, 2102, 2366, 3942, 4070, 4222, 5982, 6253, 7789, 7973, 8190, 9726, 9870, 10021], "responses": ["18", "21", "7", "18", "21"], "num2": [6, 9, 3, 8, 9, 8], "num3": [6, 9, 1, 6, 9, 3], "conditions": [24, 800, "v", 12000], "internal_node_id": "0.0-90.0", "key_presses": [49, 56, 13, 50, 49, 13, 55, 13, 49, 56, 13, 50, 49, 13], "trial": 3, "time_elapsed": 653964, "type": "DISTRACTOR", "trial_index": 117, "num1": [6, 3, 3, 4, 3, 6]}, "uniqueid": "MTK3362:3F6KKYWMNC810KEDMGPXME01CCIND3", "dateTime": 1520452007170}, {"current_trial": 118, "trialdata": {"rt": -1, "trial_type": "single-stim", "stimulus": "<p id=\"stim\">10</p>", "internal_node_id": "0.0-91.0-0.0", "time_elapsed": 656972, "key_press": -1, "trial_index": 118}, "uniqueid": "MTK3362:3F6KKYWMNC810KEDMGPXME01CCIND3", "dateTime": 1520452010178}, {"current_trial": 119, "trialdata": {"rt": -1, "trial_type": "single-stim", "stimulus": "<p id=\"stim\">9</p>", "internal_node_id": "0.0-91.0-1.0", "time_elapsed": 657976, "key_press": -1, "trial_index": 119}, "uniqueid": "MTK3362:3F6KKYWMNC810KEDMGPXME01CCIND3", "dateTime": 1520452011182}, {"current_trial": 120, "trialdata": {"rt": -1, "trial_type": "single-stim", "stimulus": "<p id=\"stim\">8</p>", "internal_node_id": "0.0-91.0-2.0", "time_elapsed": 658979, "key_press": -1, "trial_index": 120}, "uniqueid": "MTK3362:3F6KKYWMNC810KEDMGPXME01CCIND3", "dateTime": 1520452012185}, {"current_trial": 121, "trialdata": {"rt": -1, "trial_type": "single-stim", "stimulus": "<p id=\"stim\">7</p>", "internal_node_id": "0.0-91.0-3.0", "time_elapsed": 659982, "key_press": -1, "trial_index": 121}, "uniqueid": "MTK3362:3F6KKYWMNC810KEDMGPXME01CCIND3", "dateTime": 1520452013189}, {"current_trial": 122, "trialdata": {"rt": -1, "trial_type": "single-stim", "stimulus": "<p id=\"stim\">6</p>", "internal_node_id": "0.0-91.0-4.0", "time_elapsed": 660987, "key_press": -1, "trial_index": 122}, "uniqueid": "MTK3362:3F6KKYWMNC810KEDMGPXME01CCIND3", "dateTime": 1520452014193}, {"current_trial": 123, "trialdata": {"rt": -1, "trial_type": "single-stim", "stimulus": "<p id=\"stim\">5</p>", "internal_node_id": "0.0-91.0-5.0", "time_elapsed": 661990, "key_press": -1, "trial_index": 123}, "uniqueid": "MTK3362:3F6KKYWMNC810KEDMGPXME01CCIND3", "dateTime": 1520452015196}, {"current_trial": 124, "trialdata": {"rt": -1, "trial_type": "single-stim", "stimulus": "<p id=\"stim\">4</p>", "internal_node_id": "0.0-91.0-6.0", "time_elapsed": 662994, "key_press": -1, "trial_index": 124}, "uniqueid": "MTK3362:3F6KKYWMNC810KEDMGPXME01CCIND3", "dateTime": 1520452016200}, {"current_trial": 125, "trialdata": {"rt": -1, "trial_type": "single-stim", "stimulus": "<p id=\"stim\">3</p>", "internal_node_id": "0.0-91.0-7.0", "time_elapsed": 663999, "key_press": -1, "trial_index": 125}, "uniqueid": "MTK3362:3F6KKYWMNC810KEDMGPXME01CCIND3", "dateTime": 1520452017205}, {"current_trial": 126, "trialdata": {"rt": -1, "trial_type": "single-stim", "stimulus": "<p id=\"stim\">2</p>", "internal_node_id": "0.0-91.0-8.0", "time_elapsed": 665002, "key_press": -1, "trial_index": 126}, "uniqueid": "MTK3362:3F6KKYWMNC810KEDMGPXME01CCIND3", "dateTime": 1520452018208}, {"current_trial": 127, "trialdata": {"rt": -1, "trial_type": "single-stim", "stimulus": "<p id=\"stim\">1</p>", "internal_node_id": "0.0-91.0-9.0", "time_elapsed": 666006, "key_press": -1, "trial_index": 127}, "uniqueid": "MTK3362:3F6KKYWMNC810KEDMGPXME01CCIND3", "dateTime": 1520452019213}, {"current_trial": 128, "trialdata": {"rt": -1, "trial_type": "single-stim", "stimulus": "<p id=\"stim\">+</p>", "internal_node_id": "0.0-92.0-0.0", "time_elapsed": 667510, "key_press": -1, "type": "FIXATION", "trial_index": 128}, "uniqueid": "MTK3362:3F6KKYWMNC810KEDMGPXME01CCIND3", "dateTime": 1520452020716}, {"current_trial": 129, "trialdata": {"rt": -1, "trial_type": "single-stim", "word": "glove", "stimulus": "<p id=\"stim\">GLOVE</p>", "conditions": [24, 800, "v", 12000], "internal_node_id": "0.0-93.0", "trial": 3, "time_elapsed": 668311, "serialpos": 0, "key_press": -1, "wordID": 641, "type": "PRES_VIS", "trial_index": 129}, "uniqueid": "MTK3362:3F6KKYWMNC810KEDMGPXME01CCIND3", "dateTime": 1520452021517}, {"current_trial": 130, "trialdata": {"rt": -1, "trial_type": "single-stim", "word": "fleet", "stimulus": "<p id=\"stim\">FLEET</p>", "conditions": [24, 800, "v", 12000], "internal_node_id": "0.0-94.0", "trial": 3, "time_elapsed": 669936, "serialpos": 1, "key_press": -1, "wordID": 577, "type": "PRES_VIS", "trial_index": 130}, "uniqueid": "MTK3362:3F6KKYWMNC810KEDMGPXME01CCIND3", "dateTime": 1520452023142}, {"current_trial": 131, "trialdata": {"rt": -1, "trial_type": "single-stim", "word": "freckle", "stimulus": "<p id=\"stim\">FRECKLE</p>", "conditions": [24, 800, "v", 12000], "internal_node_id": "0.0-95.0", "trial": 3, "time_elapsed": 671900, "serialpos": 2, "key_press": -1, "wordID": 601, "type": "PRES_VIS", "trial_index": 131}, "uniqueid": "MTK3362:3F6KKYWMNC810KEDMGPXME01CCIND3", "dateTime": 1520452025106}, {"current_trial": 132, "trialdata": {"rt": -1, "trial_type": "single-stim", "word": "leg", "stimulus": "<p id=\"stim\">LEG</p>", "conditions": [24, 800, "v", 12000], "internal_node_id": "0.0-96.0", "trial": 3, "time_elapsed": 673680, "serialpos": 3, "key_press": -1, "wordID": 808, "type": "PRES_VIS", "trial_index": 132}, "uniqueid": "MTK3362:3F6KKYWMNC810KEDMGPXME01CCIND3", "dateTime": 1520452026886}, {"current_trial": 133, "trialdata": {"rt": -1, "trial_type": "single-stim", "word": "ankle", "stimulus": "<p id=\"stim\">ANKLE</p>", "conditions": [24, 800, "v", 12000], "internal_node_id": "0.0-97.0", "trial": 3, "time_elapsed": 675385, "serialpos": 4, "key_press": -1, "wordID": 23, "type": "PRES_VIS", "trial_index": 133}, "uniqueid": "MTK3362:3F6KKYWMNC810KEDMGPXME01CCIND3", "dateTime": 1520452028591}, {"current_trial": 134, "trialdata": {"rt": -1, "trial_type": "single-stim", "word": "pimple", "stimulus": "<p id=\"stim\">PIMPLE</p>", "conditions": [24, 800, "v", 12000], "internal_node_id": "0.0-98.0", "trial": 3, "time_elapsed": 677003, "serialpos": 5, "key_press": -1, "wordID": 1070, "type": "PRES_VIS", "trial_index": 134}, "uniqueid": "MTK3362:3F6KKYWMNC810KEDMGPXME01CCIND3", "dateTime": 1520452030209}, {"current_trial": 135, "trialdata": {"rt": -1, "trial_type": "single-stim", "word": "fruit", "stimulus": "<p id=\"stim\">FRUIT</p>", "conditions": [24, 800, "v", 12000], "internal_node_id": "0.0-99.0", "trial": 3, "time_elapsed": 678910, "serialpos": 6, "key_press": -1, "wordID": 609, "type": "PRES_VIS", "trial_index": 135}, "uniqueid": "MTK3362:3F6KKYWMNC810KEDMGPXME01CCIND3", "dateTime": 1520452032116}, {"current_trial": 136, "trialdata": {"rt": -1, "trial_type": "single-stim", "word": "parent", "stimulus": "<p id=\"stim\">PARENT</p>", "conditions": [24, 800, "v", 12000], "internal_node_id": "0.0-100.0", "trial": 3, "time_elapsed": 680877, "serialpos": 7, "key_press": -1, "wordID": 1012, "type": "PRES_VIS", "trial_index": 136}, "uniqueid": "MTK3362:3F6KKYWMNC810KEDMGPXME01CCIND3", "dateTime": 1520452034083}, {"current_trial": 137, "trialdata": {"rt": -1, "trial_type": "single-stim", "word": "paper", "stimulus": "<p id=\"stim\">PAPER</p>", "conditions": [24, 800, "v", 12000], "internal_node_id": "0.0-101.0", "trial": 3, "time_elapsed": 682722, "serialpos": 8, "key_press": -1, "wordID": 1010, "type": "PRES_VIS", "trial_index": 137}, "uniqueid": "MTK3362:3F6KKYWMNC810KEDMGPXME01CCIND3", "dateTime": 1520452035928}, {"current_trial": 138, "trialdata": {"rt": -1, "trial_type": "single-stim", "word": "blackboard", "stimulus": "<p id=\"stim\">BLACKBOARD</p>", "conditions": [24, 800, "v", 12000], "internal_node_id": "0.0-102.0", "trial": 3, "time_elapsed": 684440, "serialpos": 9, "key_press": -1, "wordID": 132, "type": "PRES_VIS", "trial_index": 138}, "uniqueid": "MTK3362:3F6KKYWMNC810KEDMGPXME01CCIND3", "dateTime": 1520452037646}, {"current_trial": 139, "trialdata": {"rt": -1, "trial_type": "single-stim", "word": "husband", "stimulus": "<p id=\"stim\">HUSBAND</p>", "conditions": [24, 800, "v", 12000], "internal_node_id": "0.0-103.0", "trial": 3, "time_elapsed": 686233, "serialpos": 10, "key_press": -1, "wordID": 727, "type": "PRES_VIS", "trial_index": 139}, "uniqueid": "MTK3362:3F6KKYWMNC810KEDMGPXME01CCIND3", "dateTime": 1520452039439}, {"current_trial": 140, "trialdata": {"rt": -1, "trial_type": "single-stim", "word": "critic", "stimulus": "<p id=\"stim\">CRITIC</p>", "conditions": [24, 800, "v", 12000], "internal_node_id": "0.0-104.0", "trial": 3, "time_elapsed": 687963, "serialpos": 11, "key_press": -1, "wordID": 409, "type": "PRES_VIS", "trial_index": 140}, "uniqueid": "MTK3362:3F6KKYWMNC810KEDMGPXME01CCIND3", "dateTime": 1520452041169}, {"current_trial": 141, "trialdata": {"rt": -1, "trial_type": "single-stim", "word": "playground", "stimulus": "<p id=\"stim\">PLAYGROUND</p>", "conditions": [24, 800, "v", 12000], "internal_node_id": "0.0-105.0", "trial": 3, "time_elapsed": 689785, "serialpos": 12, "key_press": -1, "wordID": 1086, "type": "PRES_VIS", "trial_index": 141}, "uniqueid": "MTK3362:3F6KKYWMNC810KEDMGPXME01CCIND3", "dateTime": 1520452042991}, {"current_trial": 142, "trialdata": {"rt": -1, "trial_type": "single-stim", "word": "shovel", "stimulus": "<p id=\"stim\">SHOVEL</p>", "conditions": [24, 800, "v", 12000], "internal_node_id": "0.0-106.0", "trial": 3, "time_elapsed": 691486, "serialpos": 13, "key_press": -1, "wordID": 1294, "type": "PRES_VIS", "trial_index": 142}, "uniqueid": "MTK3362:3F6KKYWMNC810KEDMGPXME01CCIND3", "dateTime": 1520452044692}, {"current_trial": 143, "trialdata": {"rt": -1, "trial_type": "single-stim", "word": "maple", "stimulus": "<p id=\"stim\">MAPLE</p>", "conditions": [24, 800, "v", 12000], "internal_node_id": "0.0-107.0", "trial": 3, "time_elapsed": 693343, "serialpos": 14, "key_press": -1, "wordID": 865, "type": "PRES_VIS", "trial_index": 143}, "uniqueid": "MTK3362:3F6KKYWMNC810KEDMGPXME01CCIND3", "dateTime": 1520452046549}, {"current_trial": 144, "trialdata": {"rt": -1, "trial_type": "single-stim", "word": "robber", "stimulus": "<p id=\"stim\">ROBBER</p>", "conditions": [24, 800, "v", 12000], "internal_node_id": "0.0-108.0", "trial": 3, "time_elapsed": 695139, "serialpos": 15, "key_press": -1, "wordID": 1196, "type": "PRES_VIS", "trial_index": 144}, "uniqueid": "MTK3362:3F6KKYWMNC810KEDMGPXME01CCIND3", "dateTime": 1520452048345}, {"current_trial": 145, "trialdata": {"rt": -1, "trial_type": "single-stim", "word": "sandwich", "stimulus": "<p id=\"stim\">SANDWICH</p>", "conditions": [24, 800, "v", 12000], "internal_node_id": "0.0-109.0", "trial": 3, "time_elapsed": 696750, "serialpos": 16, "key_press": -1, "wordID": 1231, "type": "PRES_VIS", "trial_index": 145}, "uniqueid": "MTK3362:3F6KKYWMNC810KEDMGPXME01CCIND3", "dateTime": 1520452049956}, {"current_trial": 146, "trialdata": {"rt": -1, "trial_type": "single-stim", "word": "doughnut", "stimulus": "<p id=\"stim\">DOUGHNUT</p>", "conditions": [24, 800, "v", 12000], "internal_node_id": "0.0-110.0", "trial": 3, "time_elapsed": 698723, "serialpos": 17, "key_press": -1, "wordID": 489, "type": "PRES_VIS", "trial_index": 146}, "uniqueid": "MTK3362:3F6KKYWMNC810KEDMGPXME01CCIND3", "dateTime": 1520452051929}, {"current_trial": 147, "trialdata": {"rt": -1, "trial_type": "single-stim", "word": "lily", "stimulus": "<p id=\"stim\">LILY</p>", "conditions": [24, 800, "v", 12000], "internal_node_id": "0.0-111.0", "trial": 3, "time_elapsed": 700477, "serialpos": 18, "key_press": -1, "wordID": 820, "type": "PRES_VIS", "trial_index": 147}, "uniqueid": "MTK3362:3F6KKYWMNC810KEDMGPXME01CCIND3", "dateTime": 1520452053684}, {"current_trial": 148, "trialdata": {"rt": -1, "trial_type": "single-stim", "word": "shirt", "stimulus": "<p id=\"stim\">SHIRT</p>", "conditions": [24, 800, "v", 12000], "internal_node_id": "0.0-112.0", "trial": 3, "time_elapsed": 702386, "serialpos": 19, "key_press": -1, "wordID": 1286, "type": "PRES_VIS", "trial_index": 148}, "uniqueid": "MTK3362:3F6KKYWMNC810KEDMGPXME01CCIND3", "dateTime": 1520452055592}, {"current_trial": 149, "trialdata": {"rt": -1, "trial_type": "single-stim", "word": "lava", "stimulus": "<p id=\"stim\">LAVA</p>", "conditions": [24, 800, "v", 12000], "internal_node_id": "0.0-113.0", "trial": 3, "time_elapsed": 704307, "serialpos": 20, "key_press": -1, "wordID": 803, "type": "PRES_VIS", "trial_index": 149}, "uniqueid": "MTK3362:3F6KKYWMNC810KEDMGPXME01CCIND3", "dateTime": 1520452057513}, {"current_trial": 150, "trialdata": {"rt": -1, "trial_type": "single-stim", "word": "child", "stimulus": "<p id=\"stim\">CHILD</p>", "conditions": [24, 800, "v", 12000], "internal_node_id": "0.0-114.0", "trial": 3, "time_elapsed": 706158, "serialpos": 21, "key_press": -1, "wordID": 298, "type": "PRES_VIS", "trial_index": 150}, "uniqueid": "MTK3362:3F6KKYWMNC810KEDMGPXME01CCIND3", "dateTime": 1520452059364}, {"current_trial": 151, "trialdata": {"rt": -1, "trial_type": "single-stim", "word": "gavel", "stimulus": "<p id=\"stim\">GAVEL</p>", "conditions": [24, 800, "v", 12000], "internal_node_id": "0.0-115.0", "trial": 3, "time_elapsed": 707852, "serialpos": 22, "key_press": -1, "wordID": 626, "type": "PRES_VIS", "trial_index": 151}, "uniqueid": "MTK3362:3F6KKYWMNC810KEDMGPXME01CCIND3", "dateTime": 1520452061059}, {"current_trial": 152, "trialdata": {"rt": -1, "trial_type": "single-stim", "word": "blouse", "stimulus": "<p id=\"stim\">BLOUSE</p>", "conditions": [24, 800, "v", 12000], "internal_node_id": "0.0-116.0", "trial": 3, "time_elapsed": 709663, "serialpos": 23, "key_press": -1, "wordID": 138, "type": "PRES_VIS", "trial_index": 152}, "uniqueid": "MTK3362:3F6KKYWMNC810KEDMGPXME01CCIND3", "dateTime": 1520452062869}, {"current_trial": 153, "trialdata": {"rt": -1, "trial_type": "single-stim", "stimulus": "", "internal_node_id": "0.0-117.0-0.0", "time_elapsed": 712061, "key_press": -1, "type": "PRE_RECALL_DELAY", "trial_index": 153}, "uniqueid": "MTK3362:3F6KKYWMNC810KEDMGPXME01CCIND3", "dateTime": 1520452065267}, {"current_trial": 154, "trialdata": {"rt": -1000, "trial_type": "single-audio", "stimulus": "/static/audio/400Hz.wav", "internal_node_id": "0.0-118.0", "time_elapsed": 712562, "key_press": -1, "type": "PRE_RECALL_ALERT", "trial_index": 154}, "uniqueid": "MTK3362:3F6KKYWMNC810KEDMGPXME01CCIND3", "dateTime": 1520452065769}, {"current_trial": 155, "trialdata": {"rt": [3498, 5026, 7234, 9522, 13674, 14417, 17250, 19442, 22938, 28738, 30594, 39065], "recwords": ["gavel", "blouse", "child", "glove", "freckle", "leg", "ankle", "pimple", "paren", "paper", "blackboard", "robber"], "key_times": [2619, 2747, 2954, 3170, 3250, 3498, 3810, 4002, 4218, 4394, 4522, 4698, 5026, 6434, 6578, 6683, 6859, 6947, 7234, 8202, 8338, 8466, 8634, 8906, 9522, 11546, 11794, 11986, 12274, 12386, 13082, 13170, 13674, 13954, 14074, 14242, 14417, 15074, 15290, 15595, 16850, 16970, 17250, 18322, 18474, 18714, 18921, 19122, 19218, 19442, 21914, 22290, 22433, 22514, 22642, 22938, 27018, 27146, 27250, 27394, 27490, 28738, 29154, 29282, 29362, 29553, 29634, 29937, 30066, 30186, 30282, 30449, 30594, 37754, 38154, 38409, 38545, 38746, 38873, 39065], "trial_type": "free-recall", "conditions": [24, 800, "v", 12000], "internal_node_id": "0.0-119.0-0.0", "key_presses": [71, 65, 86, 69, 76, 13, 66, 76, 79, 85, 83, 69, 13, 67, 72, 73, 76, 68, 13, 71, 76, 79, 86, 69, 13, 70, 82, 69, 67, 75, 76, 69, 13, 76, 69, 71, 13, 65, 78, 75, 76, 69, 13, 80, 73, 77, 80, 76, 69, 13, 80, 65, 82, 69, 78, 13, 80, 65, 80, 69, 82, 13, 66, 76, 65, 67, 75, 66, 79, 65, 82, 68, 13, 82, 79, 66, 66, 69, 82, 13], "trial": 3, "time_elapsed": 772564, "type": "FREE_RECALL", "trial_index": 155}, "uniqueid": "MTK3362:3F6KKYWMNC810KEDMGPXME01CCIND3", "dateTime": 1520452125772}, {"current_trial": 156, "trialdata": {"rt": 1713, "trial_type": "text", "internal_node_id": "0.0-120.0", "time_elapsed": 776285, "key_press": 13, "type": "INSTRUCTIONS", "trial_index": 156}, "uniqueid": "MTK3362:3F6KKYWMNC810KEDMGPXME01CCIND3", "dateTime": 1520452129491}, {"current_trial": 157, "trialdata": {"rt": [3302, 5021, 6477, 7893, 9613, 11278], "trial_type": "math-distractor", "key_times": [2822, 3046, 3302, 4661, 4830, 5021, 6174, 6317, 6477, 7581, 7734, 7893, 9318, 9453, 9613, 10893, 11077, 11278], "responses": ["17", "14", "21", "12", "12", "18"], "num2": [5, 2, 7, 9, 4, 4, 2], "num3": [9, 6, 7, 2, 5, 6, 3], "conditions": [12, 800, "v", 12000], "internal_node_id": "0.0-121.0", "key_presses": [49, 55, 13, 49, 52, 13, 50, 49, 13, 49, 50, 13, 49, 50, 13, 49, 56, 13], "trial": 4, "time_elapsed": 790289, "type": "DISTRACTOR", "trial_index": 157, "num1": [3, 6, 7, 1, 3, 8, 8]}, "uniqueid": "MTK3362:3F6KKYWMNC810KEDMGPXME01CCIND3", "dateTime": 1520452143495}, {"current_trial": 158, "trialdata": {"rt": -1, "trial_type": "single-stim", "stimulus": "<p id=\"stim\">10</p>", "internal_node_id": "0.0-122.0-0.0", "time_elapsed": 793295, "key_press": -1, "trial_index": 158}, "uniqueid": "MTK3362:3F6KKYWMNC810KEDMGPXME01CCIND3", "dateTime": 1520452146501}, {"current_trial": 159, "trialdata": {"rt": -1, "trial_type": "single-stim", "stimulus": "<p id=\"stim\">9</p>", "internal_node_id": "0.0-122.0-1.0", "time_elapsed": 794299, "key_press": -1, "trial_index": 159}, "uniqueid": "MTK3362:3F6KKYWMNC810KEDMGPXME01CCIND3", "dateTime": 1520452147505}, {"current_trial": 160, "trialdata": {"rt": -1, "trial_type": "single-stim", "stimulus": "<p id=\"stim\">8</p>", "internal_node_id": "0.0-122.0-2.0", "time_elapsed": 795303, "key_press": -1, "trial_index": 160}, "uniqueid": "MTK3362:3F6KKYWMNC810KEDMGPXME01CCIND3", "dateTime": 1520452148510}, {"current_trial": 161, "trialdata": {"rt": -1, "trial_type": "single-stim", "stimulus": "<p id=\"stim\">7</p>", "internal_node_id": "0.0-122.0-3.0", "time_elapsed": 796307, "key_press": -1, "trial_index": 161}, "uniqueid": "MTK3362:3F6KKYWMNC810KEDMGPXME01CCIND3", "dateTime": 1520452149513}, {"current_trial": 162, "trialdata": {"rt": -1, "trial_type": "single-stim", "stimulus": "<p id=\"stim\">6</p>", "internal_node_id": "0.0-122.0-4.0", "time_elapsed": 797312, "key_press": -1, "trial_index": 162}, "uniqueid": "MTK3362:3F6KKYWMNC810KEDMGPXME01CCIND3", "dateTime": 1520452150518}, {"current_trial": 163, "trialdata": {"rt": -1, "trial_type": "single-stim", "stimulus": "<p id=\"stim\">5</p>", "internal_node_id": "0.0-122.0-5.0", "time_elapsed": 798316, "key_press": -1, "trial_index": 163}, "uniqueid": "MTK3362:3F6KKYWMNC810KEDMGPXME01CCIND3", "dateTime": 1520452151522}, {"current_trial": 164, "trialdata": {"rt": -1, "trial_type": "single-stim", "stimulus": "<p id=\"stim\">4</p>", "internal_node_id": "0.0-122.0-6.0", "time_elapsed": 799319, "key_press": -1, "trial_index": 164}, "uniqueid": "MTK3362:3F6KKYWMNC810KEDMGPXME01CCIND3", "dateTime": 1520452152525}, {"current_trial": 165, "trialdata": {"rt": -1, "trial_type": "single-stim", "stimulus": "<p id=\"stim\">3</p>", "internal_node_id": "0.0-122.0-7.0", "time_elapsed": 800324, "key_press": -1, "trial_index": 165}, "uniqueid": "MTK3362:3F6KKYWMNC810KEDMGPXME01CCIND3", "dateTime": 1520452153530}, {"current_trial": 166, "trialdata": {"rt": -1, "trial_type": "single-stim", "stimulus": "<p id=\"stim\">2</p>", "internal_node_id": "0.0-122.0-8.0", "time_elapsed": 801328, "key_press": -1, "trial_index": 166}, "uniqueid": "MTK3362:3F6KKYWMNC810KEDMGPXME01CCIND3", "dateTime": 1520452154534}, {"current_trial": 167, "trialdata": {"rt": -1, "trial_type": "single-stim", "stimulus": "<p id=\"stim\">1</p>", "internal_node_id": "0.0-122.0-9.0", "time_elapsed": 802332, "key_press": -1, "trial_index": 167}, "uniqueid": "MTK3362:3F6KKYWMNC810KEDMGPXME01CCIND3", "dateTime": 1520452155539}, {"current_trial": 168, "trialdata": {"rt": -1, "trial_type": "single-stim", "stimulus": "<p id=\"stim\">+</p>", "internal_node_id": "0.0-123.0-0.0", "time_elapsed": 803835, "key_press": -1, "type": "FIXATION", "trial_index": 168}, "uniqueid": "MTK3362:3F6KKYWMNC810KEDMGPXME01CCIND3", "dateTime": 1520452157041}, {"current_trial": 169, "trialdata": {"rt": -1, "trial_type": "single-stim", "word": "turtle", "stimulus": "<p id=\"stim\">TURTLE</p>", "conditions": [12, 800, "v", 12000], "internal_node_id": "0.0-124.0", "trial": 4, "time_elapsed": 804636, "serialpos": 0, "key_press": -1, "wordID": 1521, "type": "PRES_VIS", "trial_index": 169}, "uniqueid": "MTK3362:3F6KKYWMNC810KEDMGPXME01CCIND3", "dateTime": 1520452157842}, {"current_trial": 170, "trialdata": {"rt": -1, "trial_type": "single-stim", "word": "custard", "stimulus": "<p id=\"stim\">CUSTARD</p>", "conditions": [12, 800, "v", 12000], "internal_node_id": "0.0-125.0", "trial": 4, "time_elapsed": 806511, "serialpos": 1, "key_press": -1, "wordID": 428, "type": "PRES_VIS", "trial_index": 170}, "uniqueid": "MTK3362:3F6KKYWMNC810KEDMGPXME01CCIND3", "dateTime": 1520452159717}, {"current_trial": 171, "trialdata": {"rt": -1, "trial_type": "single-stim", "word": "muffin", "stimulus": "<p id=\"stim\">MUFFIN</p>", "conditions": [12, 800, "v", 12000], "internal_node_id": "0.0-126.0", "trial": 4, "time_elapsed": 808344, "serialpos": 2, "key_press": -1, "wordID": 928, "type": "PRES_VIS", "trial_index": 171}, "uniqueid": "MTK3362:3F6KKYWMNC810KEDMGPXME01CCIND3", "dateTime": 1520452161551}, {"current_trial": 172, "trialdata": {"rt": -1, "trial_type": "single-stim", "word": "panther", "stimulus": "<p id=\"stim\">PANTHER</p>", "conditions": [12, 800, "v", 12000], "internal_node_id": "0.0-127.0", "trial": 4, "time_elapsed": 810139, "serialpos": 3, "key_press": -1, "wordID": 1008, "type": "PRES_VIS", "trial_index": 172}, "uniqueid": "MTK3362:3F6KKYWMNC810KEDMGPXME01CCIND3", "dateTime": 1520452163345}, {"current_trial": 173, "trialdata": {"rt": -1, "trial_type": "single-stim", "word": "wife", "stimulus": "<p id=\"stim\">WIFE</p>", "conditions": [12, 800, "v", 12000], "internal_node_id": "0.0-128.0", "trial": 4, "time_elapsed": 811915, "serialpos": 4, "key_press": -1, "wordID": 1608, "type": "PRES_VIS", "trial_index": 173}, "uniqueid": "MTK3362:3F6KKYWMNC810KEDMGPXME01CCIND3", "dateTime": 1520452165121}, {"current_trial": 174, "trialdata": {"rt": -1, "trial_type": "single-stim", "word": "rooster", "stimulus": "<p id=\"stim\">ROOSTER</p>", "conditions": [12, 800, "v", 12000], "internal_node_id": "0.0-129.0", "trial": 4, "time_elapsed": 813835, "serialpos": 5, "key_press": -1, "wordID": 1208, "type": "PRES_VIS", "trial_index": 174}, "uniqueid": "MTK3362:3F6KKYWMNC810KEDMGPXME01CCIND3", "dateTime": 1520452167041}, {"current_trial": 175, "trialdata": {"rt": -1, "trial_type": "single-stim", "word": "onion", "stimulus": "<p id=\"stim\">ONION</p>", "conditions": [12, 800, "v", 12000], "internal_node_id": "0.0-130.0", "trial": 4, "time_elapsed": 815768, "serialpos": 6, "key_press": -1, "wordID": 976, "type": "PRES_VIS", "trial_index": 175}, "uniqueid": "MTK3362:3F6KKYWMNC810KEDMGPXME01CCIND3", "dateTime": 1520452168974}, {"current_trial": 176, "trialdata": {"rt": -1, "trial_type": "single-stim", "word": "icing", "stimulus": "<p id=\"stim\">ICING</p>", "conditions": [12, 800, "v", 12000], "internal_node_id": "0.0-131.0", "trial": 4, "time_elapsed": 817457, "serialpos": 7, "key_press": -1, "wordID": 731, "type": "PRES_VIS", "trial_index": 176}, "uniqueid": "MTK3362:3F6KKYWMNC810KEDMGPXME01CCIND3", "dateTime": 1520452170663}, {"current_trial": 177, "trialdata": {"rt": -1, "trial_type": "single-stim", "word": "orange", "stimulus": "<p id=\"stim\">ORANGE</p>", "conditions": [12, 800, "v", 12000], "internal_node_id": "0.0-132.0", "trial": 4, "time_elapsed": 819175, "serialpos": 8, "key_press": -1, "wordID": 979, "type": "PRES_VIS", "trial_index": 177}, "uniqueid": "MTK3362:3F6KKYWMNC810KEDMGPXME01CCIND3", "dateTime": 1520452172381}, {"current_trial": 178, "trialdata": {"rt": -1, "trial_type": "single-stim", "word": "waiter", "stimulus": "<p id=\"stim\">WAITER</p>", "conditions": [12, 800, "v", 12000], "internal_node_id": "0.0-133.0", "trial": 4, "time_elapsed": 821173, "serialpos": 9, "key_press": -1, "wordID": 1579, "type": "PRES_VIS", "trial_index": 178}, "uniqueid": "MTK3362:3F6KKYWMNC810KEDMGPXME01CCIND3", "dateTime": 1520452174379}, {"current_trial": 179, "trialdata": {"rt": -1, "trial_type": "single-stim", "word": "dolphin", "stimulus": "<p id=\"stim\">DOLPHIN</p>", "conditions": [12, 800, "v", 12000], "internal_node_id": "0.0-134.0", "trial": 4, "time_elapsed": 822895, "serialpos": 10, "key_press": -1, "wordID": 482, "type": "PRES_VIS", "trial_index": 179}, "uniqueid": "MTK3362:3F6KKYWMNC810KEDMGPXME01CCIND3", "dateTime": 1520452176101}, {"current_trial": 180, "trialdata": {"rt": -1, "trial_type": "single-stim", "word": "canyon", "stimulus": "<p id=\"stim\">CANYON</p>", "conditions": [12, 800, "v", 12000], "internal_node_id": "0.0-135.0", "trial": 4, "time_elapsed": 824567, "serialpos": 11, "key_press": -1, "wordID": 234, "type": "PRES_VIS", "trial_index": 180}, "uniqueid": "MTK3362:3F6KKYWMNC810KEDMGPXME01CCIND3", "dateTime": 1520452177773}, {"current_trial": 181, "trialdata": {"rt": -1, "trial_type": "single-stim", "stimulus": "", "internal_node_id": "0.0-136.0-0.0", "time_elapsed": 827004, "key_press": -1, "type": "PRE_RECALL_DELAY", "trial_index": 181}, "uniqueid": "MTK3362:3F6KKYWMNC810KEDMGPXME01CCIND3", "dateTime": 1520452180210}, {"current_trial": 182, "trialdata": {"rt": -1000, "trial_type": "single-audio", "stimulus": "/static/audio/400Hz.wav", "internal_node_id": "0.0-137.0", "time_elapsed": 827506, "key_press": -1, "type": "PRE_RECALL_ALERT", "trial_index": 182}, "uniqueid": "MTK3362:3F6KKYWMNC810KEDMGPXME01CCIND3", "dateTime": 1520452180712}, {"current_trial": 183, "trialdata": {"rt": [5337, 6880, 8960, 10897, 11824, 14689, 18880, 20608, 24408, 34584], "recwords": ["dolphin", "canyon", "waiter", "orange", "icing", "turtle", "muffin", "panther", "wife", "orange"], "key_times": [3969, 4161, 4369, 4577, 4768, 4921, 5121, 5337, 5585, 5761, 5953, 6201, 6409, 6641, 6880, 7672, 7889, 8033, 8185, 8368, 8496, 8960, 10033, 10217, 10385, 10488, 10625, 10736, 10897, 11129, 11288, 11384, 11569, 11664, 11824, 13408, 13760, 13985, 14225, 14345, 14441, 14689, 17841, 18072, 18304, 18457, 18561, 18728, 18880, 19160, 19426, 19552, 19728, 19888, 20288, 20369, 20608, 22825, 23656, 23985, 24137, 24408, 31568, 31736, 31920, 33441, 33552, 33705, 34584], "trial_type": "free-recall", "conditions": [12, 800, "v", 12000], "internal_node_id": "0.0-138.0-0.0", "key_presses": [68, 79, 76, 80, 72, 73, 78, 13, 67, 65, 78, 89, 79, 78, 13, 87, 65, 73, 84, 69, 82, 13, 79, 82, 65, 78, 71, 69, 13, 73, 67, 73, 78, 71, 13, 84, 85, 82, 84, 76, 69, 13, 77, 85, 70, 70, 73, 78, 13, 80, 65, 78, 84, 72, 69, 82, 13, 87, 73, 70, 69, 13, 79, 82, 65, 78, 71, 69, 13], "trial": 4, "time_elapsed": 887508, "type": "FREE_RECALL", "trial_index": 183}, "uniqueid": "MTK3362:3F6KKYWMNC810KEDMGPXME01CCIND3", "dateTime": 1520452240716}, {"current_trial": 184, "trialdata": {"rt": 1151, "trial_type": "text", "internal_node_id": "0.0-139.0", "time_elapsed": 890666, "key_press": 32, "type": "INSTRUCTIONS", "trial_index": 184}, "uniqueid": "MTK3362:3F6KKYWMNC810KEDMGPXME01CCIND3", "dateTime": 1520452243873}, {"current_trial": 185, "trialdata": {"rt": [2305, 5041, 6729, 8321, 10761, 11969], "trial_type": "math-distractor", "key_times": [1465, 2049, 2305, 4722, 4873, 5041, 6449, 6569, 6729, 7977, 8161, 8321, 10465, 10761, 11817, 11969], "responses": ["13", "16", "12", "14", "7", "5"], "num2": [6, 9, 4, 4, 4, 1, 3], "num3": [6, 4, 4, 1, 2, 1, 9], "conditions": [24, 1600, "v", 12000], "internal_node_id": "0.0-140.0", "key_presses": [49, 51, 13, 49, 54, 13, 49, 50, 13, 49, 52, 13, 55, 13, 53, 13], "trial": 5, "time_elapsed": 904674, "type": "DISTRACTOR", "trial_index": 185, "num1": [1, 3, 4, 9, 1, 3, 4]}, "uniqueid": "MTK3362:3F6KKYWMNC810KEDMGPXME01CCIND3", "dateTime": 1520452257881}, {"current_trial": 186, "trialdata": {"rt": -1, "trial_type": "single-stim", "stimulus": "<p id=\"stim\">10</p>", "internal_node_id": "0.0-141.0-0.0", "time_elapsed": 907682, "key_press": -1, "trial_index": 186}, "uniqueid": "MTK3362:3F6KKYWMNC810KEDMGPXME01CCIND3", "dateTime": 1520452260888}, {"current_trial": 187, "trialdata": {"rt": -1, "trial_type": "single-stim", "stimulus": "<p id=\"stim\">9</p>", "internal_node_id": "0.0-141.0-1.0", "time_elapsed": 908686, "key_press": -1, "trial_index": 187}, "uniqueid": "MTK3362:3F6KKYWMNC810KEDMGPXME01CCIND3", "dateTime": 1520452261892}, {"current_trial": 188, "trialdata": {"rt": -1, "trial_type": "single-stim", "stimulus": "<p id=\"stim\">8</p>", "internal_node_id": "0.0-141.0-2.0", "time_elapsed": 909690, "key_press": -1, "trial_index": 188}, "uniqueid": "MTK3362:3F6KKYWMNC810KEDMGPXME01CCIND3", "dateTime": 1520452262896}, {"current_trial": 189, "trialdata": {"rt": -1, "trial_type": "single-stim", "stimulus": "<p id=\"stim\">7</p>", "internal_node_id": "0.0-141.0-3.0", "time_elapsed": 910693, "key_press": -1, "trial_index": 189}, "uniqueid": "MTK3362:3F6KKYWMNC810KEDMGPXME01CCIND3", "dateTime": 1520452263900}, {"current_trial": 190, "trialdata": {"rt": -1, "trial_type": "single-stim", "stimulus": "<p id=\"stim\">6</p>", "internal_node_id": "0.0-141.0-4.0", "time_elapsed": 911697, "key_press": -1, "trial_index": 190}, "uniqueid": "MTK3362:3F6KKYWMNC810KEDMGPXME01CCIND3", "dateTime": 1520452264903}, {"current_trial": 191, "trialdata": {"rt": -1, "trial_type": "single-stim", "stimulus": "<p id=\"stim\">5</p>", "internal_node_id": "0.0-141.0-5.0", "time_elapsed": 912702, "key_press": -1, "trial_index": 191}, "uniqueid": "MTK3362:3F6KKYWMNC810KEDMGPXME01CCIND3", "dateTime": 1520452265908}, {"current_trial": 192, "trialdata": {"rt": -1, "trial_type": "single-stim", "stimulus": "<p id=\"stim\">4</p>", "internal_node_id": "0.0-141.0-6.0", "time_elapsed": 913706, "key_press": -1, "trial_index": 192}, "uniqueid": "MTK3362:3F6KKYWMNC810KEDMGPXME01CCIND3", "dateTime": 1520452266912}, {"current_trial": 193, "trialdata": {"rt": -1, "trial_type": "single-stim", "stimulus": "<p id=\"stim\">3</p>", "internal_node_id": "0.0-141.0-7.0", "time_elapsed": 914710, "key_press": -1, "trial_index": 193}, "uniqueid": "MTK3362:3F6KKYWMNC810KEDMGPXME01CCIND3", "dateTime": 1520452267916}, {"current_trial": 194, "trialdata": {"rt": -1, "trial_type": "single-stim", "stimulus": "<p id=\"stim\">2</p>", "internal_node_id": "0.0-141.0-8.0", "time_elapsed": 915713, "key_press": -1, "trial_index": 194}, "uniqueid": "MTK3362:3F6KKYWMNC810KEDMGPXME01CCIND3", "dateTime": 1520452268920}, {"current_trial": 195, "trialdata": {"rt": -1, "trial_type": "single-stim", "stimulus": "<p id=\"stim\">1</p>", "internal_node_id": "0.0-141.0-9.0", "time_elapsed": 916718, "key_press": -1, "trial_index": 195}, "uniqueid": "MTK3362:3F6KKYWMNC810KEDMGPXME01CCIND3", "dateTime": 1520452269924}, {"current_trial": 196, "trialdata": {"rt": -1, "trial_type": "single-stim", "stimulus": "<p id=\"stim\">+</p>", "internal_node_id": "0.0-142.0-0.0", "time_elapsed": 918222, "key_press": -1, "type": "FIXATION", "trial_index": 196}, "uniqueid": "MTK3362:3F6KKYWMNC810KEDMGPXME01CCIND3", "dateTime": 1520452271428}, {"current_trial": 197, "trialdata": {"rt": -1, "trial_type": "single-stim", "word": "patrol", "stimulus": "<p id=\"stim\">PATROL</p>", "conditions": [24, 1600, "v", 12000], "internal_node_id": "0.0-143.0", "trial": 5, "time_elapsed": 919824, "serialpos": 0, "key_press": -1, "wordID": 1026, "type": "PRES_VIS", "trial_index": 197}, "uniqueid": "MTK3362:3F6KKYWMNC810KEDMGPXME01CCIND3", "dateTime": 1520452273030}, {"current_trial": 198, "trialdata": {"rt": -1, "trial_type": "single-stim", "word": "sword", "stimulus": "<p id=\"stim\">SWORD</p>", "conditions": [24, 1600, "v", 12000], "internal_node_id": "0.0-144.0", "trial": 5, "time_elapsed": 922457, "serialpos": 1, "key_press": -1, "wordID": 1422, "type": "PRES_VIS", "trial_index": 198}, "uniqueid": "MTK3362:3F6KKYWMNC810KEDMGPXME01CCIND3", "dateTime": 1520452275663}, {"current_trial": 199, "trialdata": {"rt": -1, "trial_type": "single-stim", "word": "actress", "stimulus": "<p id=\"stim\">ACTRESS</p>", "conditions": [24, 1600, "v", 12000], "internal_node_id": "0.0-145.0", "trial": 5, "time_elapsed": 924866, "serialpos": 2, "key_press": -1, "wordID": 5, "type": "PRES_VIS", "trial_index": 199}, "uniqueid": "MTK3362:3F6KKYWMNC810KEDMGPXME01CCIND3", "dateTime": 1520452278073}, {"current_trial": 200, "trialdata": {"rt": -1, "trial_type": "single-stim", "word": "actor", "stimulus": "<p id=\"stim\">ACTOR</p>", "conditions": [24, 1600, "v", 12000], "internal_node_id": "0.0-146.0", "trial": 5, "time_elapsed": 927624, "serialpos": 3, "key_press": -1, "wordID": 4, "type": "PRES_VIS", "trial_index": 200}, "uniqueid": "MTK3362:3F6KKYWMNC810KEDMGPXME01CCIND3", "dateTime": 1520452280830}, {"current_trial": 201, "trialdata": {"rt": -1, "trial_type": "single-stim", "word": "stove", "stimulus": "<p id=\"stim\">STOVE</p>", "conditions": [24, 1600, "v", 12000], "internal_node_id": "0.0-147.0", "trial": 5, "time_elapsed": 930380, "serialpos": 4, "key_press": -1, "wordID": 1387, "type": "PRES_VIS", "trial_index": 201}, "uniqueid": "MTK3362:3F6KKYWMNC810KEDMGPXME01CCIND3", "dateTime": 1520452283586}, {"current_trial": 202, "trialdata": {"rt": -1, "trial_type": "single-stim", "word": "asia", "stimulus": "<p id=\"stim\">ASIA</p>", "conditions": [24, 1600, "v", 12000], "internal_node_id": "0.0-148.0", "trial": 5, "time_elapsed": 933062, "serialpos": 5, "key_press": -1, "wordID": 45, "type": "PRES_VIS", "trial_index": 202}, "uniqueid": "MTK3362:3F6KKYWMNC810KEDMGPXME01CCIND3", "dateTime": 1520452286268}, {"current_trial": 203, "trialdata": {"rt": -1, "trial_type": "single-stim", "word": "bubble", "stimulus": "<p id=\"stim\">BUBBLE</p>", "conditions": [24, 1600, "v", 12000], "internal_node_id": "0.0-149.0", "trial": 5, "time_elapsed": 935853, "serialpos": 6, "key_press": -1, "wordID": 182, "type": "PRES_VIS", "trial_index": 203}, "uniqueid": "MTK3362:3F6KKYWMNC810KEDMGPXME01CCIND3", "dateTime": 1520452289060}, {"current_trial": 204, "trialdata": {"rt": -1, "trial_type": "single-stim", "word": "dime", "stimulus": "<p id=\"stim\">DIME</p>", "conditions": [24, 1600, "v", 12000], "internal_node_id": "0.0-150.0", "trial": 5, "time_elapsed": 938636, "serialpos": 7, "key_press": -1, "wordID": 465, "type": "PRES_VIS", "trial_index": 204}, "uniqueid": "MTK3362:3F6KKYWMNC810KEDMGPXME01CCIND3", "dateTime": 1520452291842}, {"current_trial": 205, "trialdata": {"rt": -1, "trial_type": "single-stim", "word": "coin", "stimulus": "<p id=\"stim\">COIN</p>", "conditions": [24, 1600, "v", 12000], "internal_node_id": "0.0-151.0", "trial": 5, "time_elapsed": 941124, "serialpos": 8, "key_press": -1, "wordID": 342, "type": "PRES_VIS", "trial_index": 205}, "uniqueid": "MTK3362:3F6KKYWMNC810KEDMGPXME01CCIND3", "dateTime": 1520452294330}, {"current_trial": 206, "trialdata": {"rt": -1, "trial_type": "single-stim", "word": "market", "stimulus": "<p id=\"stim\">MARKET</p>", "conditions": [24, 1600, "v", 12000], "internal_node_id": "0.0-152.0", "trial": 5, "time_elapsed": 943910, "serialpos": 9, "key_press": -1, "wordID": 870, "type": "PRES_VIS", "trial_index": 206}, "uniqueid": "MTK3362:3F6KKYWMNC810KEDMGPXME01CCIND3", "dateTime": 1520452297116}, {"current_trial": 207, "trialdata": {"rt": -1, "trial_type": "single-stim", "word": "toaster", "stimulus": "<p id=\"stim\">TOASTER</p>", "conditions": [24, 1600, "v", 12000], "internal_node_id": "0.0-153.0", "trial": 5, "time_elapsed": 946521, "serialpos": 10, "key_press": -1, "wordID": 1471, "type": "PRES_VIS", "trial_index": 207}, "uniqueid": "MTK3362:3F6KKYWMNC810KEDMGPXME01CCIND3", "dateTime": 1520452299727}, {"current_trial": 208, "trialdata": {"rt": -1, "trial_type": "single-stim", "word": "leopard", "stimulus": "<p id=\"stim\">LEOPARD</p>", "conditions": [24, 1600, "v", 12000], "internal_node_id": "0.0-154.0", "trial": 5, "time_elapsed": 949225, "serialpos": 11, "key_press": -1, "wordID": 811, "type": "PRES_VIS", "trial_index": 208}, "uniqueid": "MTK3362:3F6KKYWMNC810KEDMGPXME01CCIND3", "dateTime": 1520452302431}, {"current_trial": 209, "trialdata": {"rt": -1, "trial_type": "single-stim", "word": "student", "stimulus": "<p id=\"stim\">STUDENT</p>", "conditions": [24, 1600, "v", 12000], "internal_node_id": "0.0-155.0", "trial": 5, "time_elapsed": 951733, "serialpos": 12, "key_press": -1, "wordID": 1394, "type": "PRES_VIS", "trial_index": 209}, "uniqueid": "MTK3362:3F6KKYWMNC810KEDMGPXME01CCIND3", "dateTime": 1520452304939}, {"current_trial": 210, "trialdata": {"rt": -1, "trial_type": "single-stim", "word": "patient", "stimulus": "<p id=\"stim\">PATIENT</p>", "conditions": [24, 1600, "v", 12000], "internal_node_id": "0.0-156.0", "trial": 5, "time_elapsed": 954246, "serialpos": 13, "key_press": -1, "wordID": 1023, "type": "PRES_VIS", "trial_index": 210}, "uniqueid": "MTK3362:3F6KKYWMNC810KEDMGPXME01CCIND3", "dateTime": 1520452307452}, {"current_trial": 211, "trialdata": {"rt": -1, "trial_type": "single-stim", "word": "creature", "stimulus": "<p id=\"stim\">CREATURE</p>", "conditions": [24, 1600, "v", 12000], "internal_node_id": "0.0-157.0", "trial": 5, "time_elapsed": 956695, "serialpos": 14, "key_press": -1, "wordID": 402, "type": "PRES_VIS", "trial_index": 211}, "uniqueid": "MTK3362:3F6KKYWMNC810KEDMGPXME01CCIND3", "dateTime": 1520452309901}, {"current_trial": 212, "trialdata": {"rt": -1, "trial_type": "single-stim", "word": "lipstick", "stimulus": "<p id=\"stim\">LIPSTICK</p>", "conditions": [24, 1600, "v", 12000], "internal_node_id": "0.0-158.0", "trial": 5, "time_elapsed": 959257, "serialpos": 15, "key_press": -1, "wordID": 828, "type": "PRES_VIS", "trial_index": 212}, "uniqueid": "MTK3362:3F6KKYWMNC810KEDMGPXME01CCIND3", "dateTime": 1520452312463}, {"current_trial": 213, "trialdata": {"rt": -1, "trial_type": "single-stim", "word": "virus", "stimulus": "<p id=\"stim\">VIRUS</p>", "conditions": [24, 1600, "v", 12000], "internal_node_id": "0.0-159.0", "trial": 5, "time_elapsed": 961803, "serialpos": 16, "key_press": -1, "wordID": 1571, "type": "PRES_VIS", "trial_index": 213}, "uniqueid": "MTK3362:3F6KKYWMNC810KEDMGPXME01CCIND3", "dateTime": 1520452315009}, {"current_trial": 214, "trialdata": {"rt": -1, "trial_type": "single-stim", "word": "bacon", "stimulus": "<p id=\"stim\">BACON</p>", "conditions": [24, 1600, "v", 12000], "internal_node_id": "0.0-160.0", "trial": 5, "time_elapsed": 964560, "serialpos": 17, "key_press": -1, "wordID": 66, "type": "PRES_VIS", "trial_index": 214}, "uniqueid": "MTK3362:3F6KKYWMNC810KEDMGPXME01CCIND3", "dateTime": 1520452317766}, {"current_trial": 215, "trialdata": {"rt": -1, "trial_type": "single-stim", "word": "window", "stimulus": "<p id=\"stim\">WINDOW</p>", "conditions": [24, 1600, "v", 12000], "internal_node_id": "0.0-161.0", "trial": 5, "time_elapsed": 967044, "serialpos": 18, "key_press": -1, "wordID": 1610, "type": "PRES_VIS", "trial_index": 215}, "uniqueid": "MTK3362:3F6KKYWMNC810KEDMGPXME01CCIND3", "dateTime": 1520452320250}, {"current_trial": 216, "trialdata": {"rt": -1, "trial_type": "single-stim", "word": "guitar", "stimulus": "<p id=\"stim\">GUITAR</p>", "conditions": [24, 1600, "v", 12000], "internal_node_id": "0.0-162.0", "trial": 5, "time_elapsed": 969714, "serialpos": 19, "key_press": -1, "wordID": 669, "type": "PRES_VIS", "trial_index": 216}, "uniqueid": "MTK3362:3F6KKYWMNC810KEDMGPXME01CCIND3", "dateTime": 1520452322920}, {"current_trial": 217, "trialdata": {"rt": -1, "trial_type": "single-stim", "word": "banjo", "stimulus": "<p id=\"stim\">BANJO</p>", "conditions": [24, 1600, "v", 12000], "internal_node_id": "0.0-163.0", "trial": 5, "time_elapsed": 972488, "serialpos": 20, "key_press": -1, "wordID": 81, "type": "PRES_VIS", "trial_index": 217}, "uniqueid": "MTK3362:3F6KKYWMNC810KEDMGPXME01CCIND3", "dateTime": 1520452325694}, {"current_trial": 218, "trialdata": {"rt": -1, "trial_type": "single-stim", "word": "dorm", "stimulus": "<p id=\"stim\">DORM</p>", "conditions": [24, 1600, "v", 12000], "internal_node_id": "0.0-164.0", "trial": 5, "time_elapsed": 975169, "serialpos": 21, "key_press": -1, "wordID": 487, "type": "PRES_VIS", "trial_index": 218}, "uniqueid": "MTK3362:3F6KKYWMNC810KEDMGPXME01CCIND3", "dateTime": 1520452328375}, {"current_trial": 219, "trialdata": {"rt": -1, "trial_type": "single-stim", "word": "omelet", "stimulus": "<p id=\"stim\">OMELET</p>", "conditions": [24, 1600, "v", 12000], "internal_node_id": "0.0-165.0", "trial": 5, "time_elapsed": 977897, "serialpos": 22, "key_press": -1, "wordID": 975, "type": "PRES_VIS", "trial_index": 219}, "uniqueid": "MTK3362:3F6KKYWMNC810KEDMGPXME01CCIND3", "dateTime": 1520452331103}, {"current_trial": 220, "trialdata": {"rt": -1, "trial_type": "single-stim", "word": "cocoon", "stimulus": "<p id=\"stim\">COCOON</p>", "conditions": [24, 1600, "v", 12000], "internal_node_id": "0.0-166.0", "trial": 5, "time_elapsed": 980642, "serialpos": 23, "key_press": -1, "wordID": 338, "type": "PRES_VIS", "trial_index": 220}, "uniqueid": "MTK3362:3F6KKYWMNC810KEDMGPXME01CCIND3", "dateTime": 1520452333848}, {"current_trial": 221, "trialdata": {"rt": -1, "trial_type": "single-stim", "stimulus": "", "internal_node_id": "0.0-167.0-0.0", "time_elapsed": 982784, "key_press": -1, "type": "PRE_RECALL_DELAY", "trial_index": 221}, "uniqueid": "MTK3362:3F6KKYWMNC810KEDMGPXME01CCIND3", "dateTime": 1520452335990}, {"current_trial": 222, "trialdata": {"rt": -1000, "trial_type": "single-audio", "stimulus": "/static/audio/400Hz.wav", "internal_node_id": "0.0-168.0", "time_elapsed": 983285, "key_press": -1, "type": "PRE_RECALL_ALERT", "trial_index": 222}, "uniqueid": "MTK3362:3F6KKYWMNC810KEDMGPXME01CCIND3", "dateTime": 1520452336491}, {"current_trial": 223, "trialdata": {"rt": [4936, 12952, 14968, 17329, 18512, 22353, 23256, 30480, 31616, 36040, 40048, 41568, 43792, 45904, 53264, 55919, 57855], "recwords": ["cacoon", "omelet", "actor", "actress", "window", "dime", "coin", "asia", "market", "virus", "creature", "guitar", "banjo", "dorm", "toaster", "student", "patient"], "key_times": [2347, 2556, 2928, 3152, 3288, 3553, 4936, 5561, 5800, 6257, 6488, 8393, 8513, 10737, 11009, 12353, 12472, 12952, 14080, 14248, 14472, 14576, 14721, 14968, 15248, 15808, 15937, 16104, 16360, 16576, 16745, 17000, 17152, 17329, 17520, 17633, 17864, 17968, 18080, 18257, 18512, 21745, 21888, 22072, 22184, 22353, 22512, 22641, 22760, 22984, 23256, 29352, 29552, 29680, 29840, 30480, 30776, 30920, 31024, 31168, 31272, 31400, 31616, 34848, 35152, 35360, 35680, 35792, 36040, 37424, 37688, 37800, 38016, 38176, 38800, 39032, 39144, 40048, 40712, 40816, 40928, 41048, 41240, 41320, 41568, 42656, 42832, 42944, 43312, 43471, 43792, 45328, 45456, 45560, 45664, 45904, 52215, 52344, 52487, 52687, 52872, 52999, 53071, 53264, 54928, 55097, 55272, 55384, 55543, 55631, 55720, 55919, 57015, 57119, 57256, 57384, 57495, 57600, 57679, 57855], "trial_type": "free-recall", "conditions": [24, 1600, "v", 12000], "internal_node_id": "0.0-169.0-0.0", "key_presses": [67, 65, 67, 79, 79, 78, 13, 79, 77, 69, 76, 69, 84, 8, 8, 69, 84, 13, 65, 67, 84, 79, 82, 13, 67, 8, 65, 67, 84, 82, 69, 83, 83, 13, 87, 73, 78, 68, 79, 87, 13, 68, 73, 77, 69, 32, 67, 79, 73, 78, 13, 65, 83, 73, 65, 13, 77, 65, 82, 75, 69, 84, 13, 86, 73, 82, 85, 83, 13, 67, 82, 69, 65, 84, 85, 82, 69, 13, 71, 85, 73, 84, 65, 82, 13, 66, 65, 78, 74, 79, 13, 68, 79, 82, 77, 13, 84, 79, 65, 83, 84, 69, 82, 13, 83, 84, 85, 68, 69, 78, 84, 13, 80, 65, 84, 73, 69, 78, 84, 13], "trial": 5, "time_elapsed": 1043287, "type": "FREE_RECALL", "trial_index": 223}, "uniqueid": "MTK3362:3F6KKYWMNC810KEDMGPXME01CCIND3", "dateTime": 1520452396497}, {"current_trial": 224, "trialdata": {"rt": 1088, "trial_type": "text", "internal_node_id": "0.0-170.0", "time_elapsed": 1046383, "key_press": 32, "type": "INSTRUCTIONS", "trial_index": 224}, "uniqueid": "MTK3362:3F6KKYWMNC810KEDMGPXME01CCIND3", "dateTime": 1520452399589}, {"current_trial": 225, "trialdata": {"rt": [4052, 6380, 8372, 10068, 11668, 14347, 16388, 18220, 20428, 22035], "trial_type": "math-distractor", "key_times": [3789, 3916, 4052, 5924, 6116, 6380, 8044, 8228, 8372, 9764, 9908, 10068, 11372, 11492, 11668, 14084, 14212, 14347, 16132, 16260, 16388, 17932, 18220, 20011, 20212, 20428, 21723, 21900, 22035, 23900], "responses": ["22", "17", "14", "16", "16", "13", "20", "7", "19", "14"], "num2": [9, 6, 8, 1, 1, 7, 6, 1, 6, 9, 8], "num3": [6, 3, 1, 6, 8, 4, 8, 4, 5, 4, 7], "conditions": [12, 800, "v", 24000], "internal_node_id": "0.0-171.0", "key_presses": [50, 50, 13, 49, 55, 13, 49, 52, 13, 49, 54, 13, 49, 54, 13, 49, 51, 13, 50, 48, 13, 55, 13, 49, 57, 13, 49, 52, 13, 49], "trial": 6, "time_elapsed": 1072390, "type": "DISTRACTOR", "trial_index": 225, "num1": [7, 8, 5, 9, 7, 2, 6, 2, 8, 1, 1]}, "uniqueid": "MTK3362:3F6KKYWMNC810KEDMGPXME01CCIND3", "dateTime": 1520452425596}, {"current_trial": 226, "trialdata": {"rt": -1, "trial_type": "single-stim", "stimulus": "<p id=\"stim\">10</p>", "internal_node_id": "0.0-172.0-0.0", "time_elapsed": 1075397, "key_press": -1, "trial_index": 226}, "uniqueid": "MTK3362:3F6KKYWMNC810KEDMGPXME01CCIND3", "dateTime": 1520452428603}, {"current_trial": 227, "trialdata": {"rt": -1, "trial_type": "single-stim", "stimulus": "<p id=\"stim\">9</p>", "internal_node_id": "0.0-172.0-1.0", "time_elapsed": 1076400, "key_press": -1, "trial_index": 227}, "uniqueid": "MTK3362:3F6KKYWMNC810KEDMGPXME01CCIND3", "dateTime": 1520452429606}, {"current_trial": 228, "trialdata": {"rt": -1, "trial_type": "single-stim", "stimulus": "<p id=\"stim\">8</p>", "internal_node_id": "0.0-172.0-2.0", "time_elapsed": 1077404, "key_press": -1, "trial_index": 228}, "uniqueid": "MTK3362:3F6KKYWMNC810KEDMGPXME01CCIND3", "dateTime": 1520452430610}, {"current_trial": 229, "trialdata": {"rt": -1, "trial_type": "single-stim", "stimulus": "<p id=\"stim\">7</p>", "internal_node_id": "0.0-172.0-3.0", "time_elapsed": 1078407, "key_press": -1, "trial_index": 229}, "uniqueid": "MTK3362:3F6KKYWMNC810KEDMGPXME01CCIND3", "dateTime": 1520452431614}, {"current_trial": 230, "trialdata": {"rt": -1, "trial_type": "single-stim", "stimulus": "<p id=\"stim\">6</p>", "internal_node_id": "0.0-172.0-4.0", "time_elapsed": 1079412, "key_press": -1, "trial_index": 230}, "uniqueid": "MTK3362:3F6KKYWMNC810KEDMGPXME01CCIND3", "dateTime": 1520452432618}, {"current_trial": 231, "trialdata": {"rt": -1, "trial_type": "single-stim", "stimulus": "<p id=\"stim\">5</p>", "internal_node_id": "0.0-172.0-5.0", "time_elapsed": 1080414, "key_press": -1, "trial_index": 231}, "uniqueid": "MTK3362:3F6KKYWMNC810KEDMGPXME01CCIND3", "dateTime": 1520452433620}, {"current_trial": 232, "trialdata": {"rt": -1, "trial_type": "single-stim", "stimulus": "<p id=\"stim\">4</p>", "internal_node_id": "0.0-172.0-6.0", "time_elapsed": 1081418, "key_press": -1, "trial_index": 232}, "uniqueid": "MTK3362:3F6KKYWMNC810KEDMGPXME01CCIND3", "dateTime": 1520452434624}, {"current_trial": 233, "trialdata": {"rt": -1, "trial_type": "single-stim", "stimulus": "<p id=\"stim\">3</p>", "internal_node_id": "0.0-172.0-7.0", "time_elapsed": 1082423, "key_press": -1, "trial_index": 233}, "uniqueid": "MTK3362:3F6KKYWMNC810KEDMGPXME01CCIND3", "dateTime": 1520452435629}, {"current_trial": 234, "trialdata": {"rt": -1, "trial_type": "single-stim", "stimulus": "<p id=\"stim\">2</p>", "internal_node_id": "0.0-172.0-8.0", "time_elapsed": 1083426, "key_press": -1, "trial_index": 234}, "uniqueid": "MTK3362:3F6KKYWMNC810KEDMGPXME01CCIND3", "dateTime": 1520452436632}, {"current_trial": 235, "trialdata": {"rt": -1, "trial_type": "single-stim", "stimulus": "<p id=\"stim\">1</p>", "internal_node_id": "0.0-172.0-9.0", "time_elapsed": 1084430, "key_press": -1, "trial_index": 235}, "uniqueid": "MTK3362:3F6KKYWMNC810KEDMGPXME01CCIND3", "dateTime": 1520452437636}, {"current_trial": 236, "trialdata": {"rt": -1, "trial_type": "single-stim", "stimulus": "<p id=\"stim\">+</p>", "internal_node_id": "0.0-173.0-0.0", "time_elapsed": 1085934, "key_press": -1, "type": "FIXATION", "trial_index": 236}, "uniqueid": "MTK3362:3F6KKYWMNC810KEDMGPXME01CCIND3", "dateTime": 1520452439140}, {"current_trial": 237, "trialdata": {"rt": -1, "trial_type": "single-stim", "word": "jury", "stimulus": "<p id=\"stim\">JURY</p>", "conditions": [12, 800, "v", 24000], "internal_node_id": "0.0-174.0", "trial": 6, "time_elapsed": 1086735, "serialpos": 0, "key_press": -1, "wordID": 765, "type": "PRES_VIS", "trial_index": 237}, "uniqueid": "MTK3362:3F6KKYWMNC810KEDMGPXME01CCIND3", "dateTime": 1520452439941}, {"current_trial": 238, "trialdata": {"rt": -1, "trial_type": "single-stim", "word": "crater", "stimulus": "<p id=\"stim\">CRATER</p>", "conditions": [12, 800, "v", 24000], "internal_node_id": "0.0-175.0", "trial": 6, "time_elapsed": 1088528, "serialpos": 1, "key_press": -1, "wordID": 399, "type": "PRES_VIS", "trial_index": 238}, "uniqueid": "MTK3362:3F6KKYWMNC810KEDMGPXME01CCIND3", "dateTime": 1520452441735}, {"current_trial": 239, "trialdata": {"rt": -1, "trial_type": "single-stim", "word": "river", "stimulus": "<p id=\"stim\">RIVER</p>", "conditions": [12, 800, "v", 24000], "internal_node_id": "0.0-176.0", "trial": 6, "time_elapsed": 1090263, "serialpos": 2, "key_press": -1, "wordID": 1193, "type": "PRES_VIS", "trial_index": 239}, "uniqueid": "MTK3362:3F6KKYWMNC810KEDMGPXME01CCIND3", "dateTime": 1520452443470}, {"current_trial": 240, "trialdata": {"rt": -1, "trial_type": "single-stim", "word": "stallion", "stimulus": "<p id=\"stim\">STALLION</p>", "conditions": [12, 800, "v", 24000], "internal_node_id": "0.0-177.0", "trial": 6, "time_elapsed": 1092142, "serialpos": 3, "key_press": -1, "wordID": 1368, "type": "PRES_VIS", "trial_index": 240}, "uniqueid": "MTK3362:3F6KKYWMNC810KEDMGPXME01CCIND3", "dateTime": 1520452445348}, {"current_trial": 241, "trialdata": {"rt": -1, "trial_type": "single-stim", "word": "shrub", "stimulus": "<p id=\"stim\">SHRUB</p>", "conditions": [12, 800, "v", 24000], "internal_node_id": "0.0-178.0", "trial": 6, "time_elapsed": 1094042, "serialpos": 4, "key_press": -1, "wordID": 1298, "type": "PRES_VIS", "trial_index": 241}, "uniqueid": "MTK3362:3F6KKYWMNC810KEDMGPXME01CCIND3", "dateTime": 1520452447248}, {"current_trial": 242, "trialdata": {"rt": -1, "trial_type": "single-stim", "word": "brandy", "stimulus": "<p id=\"stim\">BRANDY</p>", "conditions": [12, 800, "v", 24000], "internal_node_id": "0.0-179.0", "trial": 6, "time_elapsed": 1095810, "serialpos": 5, "key_press": -1, "wordID": 168, "type": "PRES_VIS", "trial_index": 242}, "uniqueid": "MTK3362:3F6KKYWMNC810KEDMGPXME01CCIND3", "dateTime": 1520452449016}, {"current_trial": 243, "trialdata": {"rt": -1, "trial_type": "single-stim", "word": "scotch", "stimulus": "<p id=\"stim\">SCOTCH</p>", "conditions": [12, 800, "v", 24000], "internal_node_id": "0.0-180.0", "trial": 6, "time_elapsed": 1097460, "serialpos": 6, "key_press": -1, "wordID": 1250, "type": "PRES_VIS", "trial_index": 243}, "uniqueid": "MTK3362:3F6KKYWMNC810KEDMGPXME01CCIND3", "dateTime": 1520452450666}, {"current_trial": 244, "trialdata": {"rt": -1, "trial_type": "single-stim", "word": "judge", "stimulus": "<p id=\"stim\">JUDGE</p>", "conditions": [12, 800, "v", 24000], "internal_node_id": "0.0-181.0", "trial": 6, "time_elapsed": 1099294, "serialpos": 7, "key_press": -1, "wordID": 760, "type": "PRES_VIS", "trial_index": 244}, "uniqueid": "MTK3362:3F6KKYWMNC810KEDMGPXME01CCIND3", "dateTime": 1520452452500}, {"current_trial": 245, "trialdata": {"rt": -1, "trial_type": "single-stim", "word": "country", "stimulus": "<p id=\"stim\">COUNTRY</p>", "conditions": [12, 800, "v", 24000], "internal_node_id": "0.0-182.0", "trial": 6, "time_elapsed": 1100948, "serialpos": 8, "key_press": -1, "wordID": 387, "type": "PRES_VIS", "trial_index": 245}, "uniqueid": "MTK3362:3F6KKYWMNC810KEDMGPXME01CCIND3", "dateTime": 1520452454154}, {"current_trial": 246, "trialdata": {"rt": -1, "trial_type": "single-stim", "word": "mailman", "stimulus": "<p id=\"stim\">MAILMAN</p>", "conditions": [12, 800, "v", 24000], "internal_node_id": "0.0-183.0", "trial": 6, "time_elapsed": 1102562, "serialpos": 9, "key_press": -1, "wordID": 857, "type": "PRES_VIS", "trial_index": 246}, "uniqueid": "MTK3362:3F6KKYWMNC810KEDMGPXME01CCIND3", "dateTime": 1520452455768}, {"current_trial": 247, "trialdata": {"rt": -1, "trial_type": "single-stim", "word": "tweezers", "stimulus": "<p id=\"stim\">TWEEZERS</p>", "conditions": [12, 800, "v", 24000], "internal_node_id": "0.0-184.0", "trial": 6, "time_elapsed": 1104414, "serialpos": 10, "key_press": 