{"assignmentId": "3MB8LZR5BG0JQQH22KV5DZR2RMXLKM", "workerId": "MTK3306", "questiondata": {"avail_screen_height": 728, "color_depth": 24, "screen_width": 1366, "pixel_depth": 24, "avail_screen_width": 1366, "screen_height": 768}, "bonus": 0, "hitId": "3OB6JN3A9QWNWSEO2E0FP4WL1JTRM3", "counterbalance": 2357, "useragent": "Mozilla/5.0 (Windows NT 10.0; Win64; x64) AppleWebKit/537.36 (KHTML, like Gecko) Chrome/64.0.3282.186 Safari/537.36", "eventdata": [{"eventtype": "initialized", "interval": 0, "value": null, "timestamp": 1520352318106}, {"eventtype": "window_resize", "interval": 0, "value": [1366, 677], "timestamp": 1520352318106}, {"eventtype": "focus", "interval": 175245, "value": "off", "timestamp": 1520352493351}, {"eventtype": "focus", "interval": 1711, "value": "on", "timestamp": 1520352495062}, {"eventtype": "focus", "interval": 1901088, "value": "off", "timestamp": 1520354396150}, {"eventtype": "focus", "interval": 4986, "value": "on", "timestamp": 1520354401136}, {"eventtype": "focus", "interval": 260014, "value": "off", "timestamp": 1520354661150}, {"eventtype": "focus", "interval": 30289, "value": "on", "timestamp": 1520354691439}, {"eventtype": "focus", "interval": 288185, "value": "off", "timestamp": 1520354979624}, {"eventtype": "focus", "interval": 1839, "value": "on", "timestamp": 1520354981463}, {"eventtype": "focus", "interval": 237774, "value": "off", "timestamp": 1520355219237}, {"eventtype": "focus", "interval": 187, "value": "on", "timestamp": 1520355219424}], "data": [{"current_trial": 0, "trialdata": {"rt": 28038, "trial_type": "text", "internal_node_id": "0.0-0.0", "time_elapsed": 28044, "key_press": 32, "type": "INSTRUCTIONS", "trial_index": 0}, "uniqueid": "MTK3306:3MB8LZR5BG0JQQH22KV5DZR2RMXLKM", "dateTime": 1520352346868}, {"current_trial": 1, "trialdata": {"rt": 70639, "trial_type": "text", "internal_node_id": "0.0-1.0", "time_elapsed": 98689, "key_press": 173, "type": "INSTRUCTIONS", "trial_index": 1}, "uniqueid": "MTK3306:3MB8LZR5BG0JQQH22KV5DZR2RMXLKM", "dateTime": 1520352417511}, {"current_trial": 2, "trialdata": {"rt": [14182], "trial_type": "audio-test", "responses": ["ocean"], "internal_node_id": "0.0-2.0", "time_elapsed": 112971, "type": "AUDIO_TEST", "trial_index": 2}, "uniqueid": "MTK3306:3MB8LZR5BG0JQQH22KV5DZR2RMXLKM", "dateTime": 1520352431792}, {"current_trial": 3, "trialdata": {"rt": [27811], "trial_type": "audio-test", "responses": ["crystal"], "internal_node_id": "0.0-3.0", "time_elapsed": 140793, "type": "AUDIO_TEST", "trial_index": 3}, "uniqueid": "MTK3306:3MB8LZR5BG0JQQH22KV5DZR2RMXLKM", "dateTime": 1520352459614}, {"current_trial": 4, "trialdata": {"rt": [8955], "trial_type": "audio-test", "responses": ["spice"], "internal_node_id": "0.0-4.0", "time_elapsed": 149758, "type": "AUDIO_TEST", "trial_index": 4}, "uniqueid": "MTK3306:3MB8LZR5BG0JQQH22KV5DZR2RMXLKM", "dateTime": 1520352468580}, {"current_trial": 5, "trialdata": {"rt": 11334, "trial_type": "survey-text", "responses": "{\"Q0\":\"11\",\"Q1\":\"8\",\"Q2\":\"4\"}", "internal_node_id": "0.0-5.0", "time_elapsed": 161850, "type": "SLEEP_SURVEY", "trial_index": 5}, "uniqueid": "MTK3306:3MB8LZR5BG0JQQH22KV5DZR2RMXLKM", "dateTime": 1520352480671}, {"current_trial": 6, "trialdata": {"rt": 44357, "trial_type": "text", "internal_node_id": "0.0-6.0", "time_elapsed": 207213, "key_press": 34, "type": "INSTRUCTIONS", "trial_index": 6}, "uniqueid": "MTK3306:3MB8LZR5BG0JQQH22KV5DZR2RMXLKM", "dateTime": 1520352526035}, {"current_trial": 7, "trialdata": {"rt": 14430, "trial_type": "text", "internal_node_id": "0.0-7.0", "time_elapsed": 222147, "key_press": 32, "type": "INSTRUCTIONS", "trial_index": 7}, "uniqueid": "MTK3306:3MB8LZR5BG0JQQH22KV5DZR2RMXLKM", "dateTime": 1520352540968}, {"current_trial": 8, "trialdata": {"rt": 4225, "trial_type": "text", "internal_node_id": "0.0-8.0", "time_elapsed": 226874, "key_press": 32, "type": "INSTRUCTIONS", "trial_index": 8}, "uniqueid": "MTK3306:3MB8LZR5BG0JQQH22KV5DZR2RMXLKM", "dateTime": 1520352545696}, {"current_trial": 9, "trialdata": {"rt": [3869, 8370, 10772, 12783, 15593], "trial_type": "math-distractor", "key_times": [2770, 2858, 3869, 7988, 8255, 8370, 10475, 10654, 10772, 12513, 12689, 12783, 15161, 15422, 15593, 17700, 17945], "responses": ["18", "21", "14", "11", "15"], "num2": [5, 5, 8, 5, 5, 6], "num3": [9, 8, 4, 2, 3, 3], "conditions": [18, 1200, "v", 18000], "internal_node_id": "0.0-9.0", "key_presses": [49, 56, 13, 50, 49, 13, 49, 52, 13, 49, 49, 13, 49, 53, 13, 49, 53], "trial": 0, "time_elapsed": 245927, "type": "DISTRACTOR", "trial_index": 9, "num1": [4, 8, 2, 4, 7, 6]}, "uniqueid": "MTK3306:3MB8LZR5BG0JQQH22KV5DZR2RMXLKM", "dateTime": 1520352564749}, {"current_trial": 10, "trialdata": {"rt": -1, "trial_type": "single-stim", "stimulus": "<p id=\"stim\">10</p>", "internal_node_id": "0.0-10.0-0.0", "time_elapsed": 248935, "key_press": -1, "trial_index": 10}, "uniqueid": "MTK3306:3MB8LZR5BG0JQQH22KV5DZR2RMXLKM", "dateTime": 1520352567757}, {"current_trial": 11, "trialdata": {"rt": -1, "trial_type": "single-stim", "stimulus": "<p id=\"stim\">9</p>", "internal_node_id": "0.0-10.0-1.0", "time_elapsed": 249939, "key_press": -1, "trial_index": 11}, "uniqueid": "MTK3306:3MB8LZR5BG0JQQH22KV5DZR2RMXLKM", "dateTime": 1520352568760}, {"current_trial": 12, "trialdata": {"rt": -1, "trial_type": "single-stim", "stimulus": "<p id=\"stim\">8</p>", "internal_node_id": "0.0-10.0-2.0", "time_elapsed": 250944, "key_press": -1, "trial_index": 12}, "uniqueid": "MTK3306:3MB8LZR5BG0JQQH22KV5DZR2RMXLKM", "dateTime": 1520352569765}, {"current_trial": 13, "trialdata": {"rt": -1, "trial_type": "single-stim", "stimulus": "<p id=\"stim\">7</p>", "internal_node_id": "0.0-10.0-3.0", "time_elapsed": 251947, "key_press": -1, "trial_index": 13}, "uniqueid": "MTK3306:3MB8LZR5BG0JQQH22KV5DZR2RMXLKM", "dateTime": 1520352570768}, {"current_trial": 14, "trialdata": {"rt": -1, "trial_type": "single-stim", "stimulus": "<p id=\"stim\">6</p>", "internal_node_id": "0.0-10.0-4.0", "time_elapsed": 252953, "key_press": -1, "trial_index": 14}, "uniqueid": "MTK3306:3MB8LZR5BG0JQQH22KV5DZR2RMXLKM", "dateTime": 1520352571774}, {"current_trial": 15, "trialdata": {"rt": -1, "trial_type": "single-stim", "stimulus": "<p id=\"stim\">5</p>", "internal_node_id": "0.0-10.0-5.0", "time_elapsed": 253960, "key_press": -1, "trial_index": 15}, "uniqueid": "MTK3306:3MB8LZR5BG0JQQH22KV5DZR2RMXLKM", "dateTime": 1520352572782}, {"current_trial": 16, "trialdata": {"rt": -1, "trial_type": "single-stim", "stimulus": "<p id=\"stim\">4</p>", "internal_node_id": "0.0-10.0-6.0", "time_elapsed": 254964, "key_press": -1, "trial_index": 16}, "uniqueid": "MTK3306:3MB8LZR5BG0JQQH22KV5DZR2RMXLKM", "dateTime": 1520352573786}, {"current_trial": 17, "trialdata": {"rt": -1, "trial_type": "single-stim", "stimulus": "<p id=\"stim\">3</p>", "internal_node_id": "0.0-10.0-7.0", "time_elapsed": 255969, "key_press": -1, "trial_index": 17}, "uniqueid": "MTK3306:3MB8LZR5BG0JQQH22KV5DZR2RMXLKM", "dateTime": 1520352574790}, {"current_trial": 18, "trialdata": {"rt": -1, "trial_type": "single-stim", "stimulus": "<p id=\"stim\">2</p>", "internal_node_id": "0.0-10.0-8.0", "time_elapsed": 256973, "key_press": -1, "trial_index": 18}, "uniqueid": "MTK3306:3MB8LZR5BG0JQQH22KV5DZR2RMXLKM", "dateTime": 1520352575794}, {"current_trial": 19, "trialdata": {"rt": -1, "trial_type": "single-stim", "stimulus": "<p id=\"stim\">1</p>", "internal_node_id": "0.0-10.0-9.0", "time_elapsed": 257978, "key_press": -1, "trial_index": 19}, "uniqueid": "MTK3306:3MB8LZR5BG0JQQH22KV5DZR2RMXLKM", "dateTime": 1520352576799}, {"current_trial": 20, "trialdata": {"rt": -1, "trial_type": "single-stim", "stimulus": "<p id=\"stim\">+</p>", "internal_node_id": "0.0-11.0-0.0", "time_elapsed": 259481, "key_press": -1, "type": "FIXATION", "trial_index": 20}, "uniqueid": "MTK3306:3MB8LZR5BG0JQQH22KV5DZR2RMXLKM", "dateTime": 1520352578303}, {"current_trial": 21, "trialdata": {"rt": -1, "trial_type": "single-stim", "word": "child", "stimulus": "<p id=\"stim\">CHILD</p>", "conditions": [18, 1200, "v", 18000], "internal_node_id": "0.0-12.0", "trial": 0, "time_elapsed": 260686, "serialpos": 0, "key_press": -1, "wordID": 298, "type": "PRES_VIS", "trial_index": 21}, "uniqueid": "MTK3306:3MB8LZR5BG0JQQH22KV5DZR2RMXLKM", "dateTime": 1520352579508}, {"current_trial": 22, "trialdata": {"rt": -1, "trial_type": "single-stim", "word": "rod", "stimulus": "<p id=\"stim\">ROD</p>", "conditions": [18, 1200, "v", 18000], "internal_node_id": "0.0-13.0", "trial": 0, "time_elapsed": 262800, "serialpos": 1, "key_press": -1, "wordID": 1202, "type": "PRES_VIS", "trial_index": 22}, "uniqueid": "MTK3306:3MB8LZR5BG0JQQH22KV5DZR2RMXLKM", "dateTime": 1520352581621}, {"current_trial": 23, "trialdata": {"rt": -1, "trial_type": "single-stim", "word": "coffee", "stimulus": "<p id=\"stim\">COFFEE</p>", "conditions": [18, 1200, "v", 18000], "internal_node_id": "0.0-14.0", "trial": 0, "time_elapsed": 265178, "serialpos": 2, "key_press": -1, "wordID": 340, "type": "PRES_VIS", "trial_index": 23}, "uniqueid": "MTK3306:3MB8LZR5BG0JQQH22KV5DZR2RMXLKM", "dateTime": 1520352583999}, {"current_trial": 24, "trialdata": {"rt": -1, "trial_type": "single-stim", "word": "rocket", "stimulus": "<p id=\"stim\">ROCKET</p>", "conditions": [18, 1200, "v", 18000], "internal_node_id": "0.0-15.0", "trial": 0, "time_elapsed": 267489, "serialpos": 3, "key_press": -1, "wordID": 1201, "type": "PRES_VIS", "trial_index": 24}, "uniqueid": "MTK3306:3MB8LZR5BG0JQQH22KV5DZR2RMXLKM", "dateTime": 1520352586311}, {"current_trial": 25, "trialdata": {"rt": -1, "trial_type": "single-stim", "word": "maple", "stimulus": "<p id=\"stim\">MAPLE</p>", "conditions": [18, 1200, "v", 18000], "internal_node_id": "0.0-16.0", "trial": 0, "time_elapsed": 269615, "serialpos": 4, "key_press": -1, "wordID": 865, "type": "PRES_VIS", "trial_index": 25}, "uniqueid": "MTK3306:3MB8LZR5BG0JQQH22KV5DZR2RMXLKM", "dateTime": 1520352588436}, {"current_trial": 26, "trialdata": {"rt": -1, "trial_type": "single-stim", "word": "iceberg", "stimulus": "<p id=\"stim\">ICEBERG</p>", "conditions": [18, 1200, "v", 18000], "internal_node_id": "0.0-17.0", "trial": 0, "time_elapsed": 271916, "serialpos": 5, "key_press": -1, "wordID": 730, "type": "PRES_VIS", "trial_index": 26}, "uniqueid": "MTK3306:3MB8LZR5BG0JQQH22KV5DZR2RMXLKM", "dateTime": 1520352590737}, {"current_trial": 27, "trialdata": {"rt": -1, "trial_type": "single-stim", "word": "rifle", "stimulus": "<p id=\"stim\">RIFLE</p>", "conditions": [18, 1200, "v", 18000], "internal_node_id": "0.0-18.0", "trial": 0, "time_elapsed": 274101, "serialpos": 6, "key_press": -1, "wordID": 1191, "type": "PRES_VIS", "trial_index": 27}, "uniqueid": "MTK3306:3MB8LZR5BG0JQQH22KV5DZR2RMXLKM", "dateTime": 1520352592922}, {"current_trial": 28, "trialdata": {"rt": -1, "trial_type": "single-stim", "word": "woman", "stimulus": "<p id=\"stim\">WOMAN</p>", "conditions": [18, 1200, "v", 18000], "internal_node_id": "0.0-19.0", "trial": 0, "time_elapsed": 276134, "serialpos": 7, "key_press": -1, "wordID": 1619, "type": "PRES_VIS", "trial_index": 28}, "uniqueid": "MTK3306:3MB8LZR5BG0JQQH22KV5DZR2RMXLKM", "dateTime": 1520352594955}, {"current_trial": 29, "trialdata": {"rt": -1, "trial_type": "single-stim", "word": "backbone", "stimulus": "<p id=\"stim\">BACKBONE</p>", "conditions": [18, 1200, "v", 18000], "internal_node_id": "0.0-20.0", "trial": 0, "time_elapsed": 278303, "serialpos": 8, "key_press": -1, "wordID": 65, "type": "PRES_VIS", "trial_index": 29}, "uniqueid": "MTK3306:3MB8LZR5BG0JQQH22KV5DZR2RMXLKM", "dateTime": 1520352597124}, {"current_trial": 30, "trialdata": {"rt": -1, "trial_type": "single-stim", "word": "banjo", "stimulus": "<p id=\"stim\">BANJO</p>", "conditions": [18, 1200, "v", 18000], "internal_node_id": "0.0-21.0", "trial": 0, "time_elapsed": 280318, "serialpos": 9, "key_press": -1, "wordID": 81, "type": "PRES_VIS", "trial_index": 30}, "uniqueid": "MTK3306:3MB8LZR5BG0JQQH22KV5DZR2RMXLKM", "dateTime": 1520352599140}, {"current_trial": 31, "trialdata": {"rt": -1, "trial_type": "single-stim", "word": "bunny", "stimulus": "<p id=\"stim\">BUNNY</p>", "conditions": [18, 1200, "v", 18000], "internal_node_id": "0.0-22.0", "trial": 0, "time_elapsed": 282552, "serialpos": 10, "key_press": -1, "wordID": 197, "type": "PRES_VIS", "trial_index": 31}, "uniqueid": "MTK3306:3MB8LZR5BG0JQQH22KV5DZR2RMXLKM", "dateTime": 1520352601373}, {"current_trial": 32, "trialdata": {"rt": -1, "trial_type": "single-stim", "word": "college", "stimulus": "<p id=\"stim\">COLLEGE</p>", "conditions": [18, 1200, "v", 18000], "internal_node_id": "0.0-23.0", "trial": 0, "time_elapsed": 284762, "serialpos": 11, "key_press": -1, "wordID": 345, "type": "PRES_VIS", "trial_index": 32}, "uniqueid": "MTK3306:3MB8LZR5BG0JQQH22KV5DZR2RMXLKM", "dateTime": 1520352603583}, {"current_trial": 33, "trialdata": {"rt": -1, "trial_type": "single-stim", "word": "fleet", "stimulus": "<p id=\"stim\">FLEET</p>", "conditions": [18, 1200, "v", 18000], "internal_node_id": "0.0-24.0", "trial": 0, "time_elapsed": 286814, "serialpos": 12, "key_press": -1, "wordID": 577, "type": "PRES_VIS", "trial_index": 33}, "uniqueid": "MTK3306:3MB8LZR5BG0JQQH22KV5DZR2RMXLKM", "dateTime": 1520352605636}, {"current_trial": 34, "trialdata": {"rt": -1, "trial_type": "single-stim", "word": "scissors", "stimulus": "<p id=\"stim\">SCISSORS</p>", "conditions": [18, 1200, "v", 18000], "internal_node_id": "0.0-25.0", "trial": 0, "time_elapsed": 288869, "serialpos": 13, "key_press": -1, "wordID": 1249, "type": "PRES_VIS", "trial_index": 34}, "uniqueid": "MTK3306:3MB8LZR5BG0JQQH22KV5DZR2RMXLKM", "dateTime": 1520352607690}, {"current_trial": 35, "trialdata": {"rt": -1, "trial_type": "single-stim", "word": "county", "stimulus": "<p id=\"stim\">COUNTY</p>", "conditions": [18, 1200, "v", 18000], "internal_node_id": "0.0-26.0", "trial": 0, "time_elapsed": 291155, "serialpos": 14, "key_press": -1, "wordID": 388, "type": "PRES_VIS", "trial_index": 35}, "uniqueid": "MTK3306:3MB8LZR5BG0JQQH22KV5DZR2RMXLKM", "dateTime": 1520352609976}, {"current_trial": 36, "trialdata": {"rt": -1, "trial_type": "single-stim", "word": "daisy", "stimulus": "<p id=\"stim\">DAISY</p>", "conditions": [18, 1200, "v", 18000], "internal_node_id": "0.0-27.0", "trial": 0, "time_elapsed": 293384, "serialpos": 15, "key_press": -1, "wordID": 434, "type": "PRES_VIS", "trial_index": 36}, "uniqueid": "MTK3306:3MB8LZR5BG0JQQH22KV5DZR2RMXLKM", "dateTime": 1520352612205}, {"current_trial": 37, "trialdata": {"rt": -1, "trial_type": "single-stim", "word": "garlic", "stimulus": "<p id=\"stim\">GARLIC</p>", "conditions": [18, 1200, "v", 18000], "internal_node_id": "0.0-28.0", "trial": 0, "time_elapsed": 295681, "serialpos": 16, "key_press": -1, "wordID": 623, "type": "PRES_VIS", "trial_index": 37}, "uniqueid": "MTK3306:3MB8LZR5BG0JQQH22KV5DZR2RMXLKM", "dateTime": 1520352614502}, {"current_trial": 38, "trialdata": {"rt": -1, "trial_type": "single-stim", "word": "cashier", "stimulus": "<p id=\"stim\">CASHIER</p>", "conditions": [18, 1200, "v", 18000], "internal_node_id": "0.0-29.0", "trial": 0, "time_elapsed": 298063, "serialpos": 17, "key_press": -1, "wordID": 253, "type": "PRES_VIS", "trial_index": 38}, "uniqueid": "MTK3306:3MB8LZR5BG0JQQH22KV5DZR2RMXLKM", "dateTime": 1520352616885}, {"current_trial": 39, "trialdata": {"rt": -1, "trial_type": "single-stim", "stimulus": "", "internal_node_id": "0.0-30.0-0.0", "time_elapsed": 300150, "key_press": -1, "type": "PRE_RECALL_DELAY", "trial_index": 39}, "uniqueid": "MTK3306:3MB8LZR5BG0JQQH22KV5DZR2RMXLKM", "dateTime": 1520352618972}, {"current_trial": 40, "trialdata": {"rt": -1000, "trial_type": "single-audio", "stimulus": "/static/audio/400Hz.wav", "internal_node_id": "0.0-31.0", "time_elapsed": 300658, "key_press": -1, "type": "PRE_RECALL_ALERT", "trial_index": 40}, "uniqueid": "MTK3306:3MB8LZR5BG0JQQH22KV5DZR2RMXLKM", "dateTime": 1520352619479}, {"current_trial": 41, "trialdata": {"rt": [9941, 12036, 14118, 17192, 19267, 20557, 25380, 27467, 30034, 33125, 35673, 38340, 40278, 49496, 52968], "recwords": ["coffee", "rocket", "maple", "iceberg", "rifle", "woman", "banjo", "bunny", "college", "fleet", "county", "daisy", "garlic", "rod", "rocket"], "key_times": [8730, 8875, 9040, 9200, 9639, 9789, 9941, 11224, 11318, 11484, 11587, 11688, 11833, 12036, 13314, 13407, 13659, 13771, 13889, 14118, 15683, 16090, 16231, 16571, 16669, 16758, 17040, 17192, 18198, 18299, 18487, 18802, 18857, 19000, 19081, 19267, 19836, 19890, 20013, 20101, 20311, 20557, 23938, 24032, 24241, 24895, 25020, 25380, 26341, 26718, 26920, 27062, 27203, 27467, 28646, 28707, 28909, 29039, 29157, 29564, 29653, 30034, 30699, 30805, 30932, 31071, 31172, 31503, 31669, 31853, 32239, 32436, 32578, 32739, 32856, 33125, 34821, 34880, 34966, 35174, 35226, 35435, 35673, 36105, 36747, 37464, 37633, 37724, 37875, 38042, 38340, 39423, 39579, 39655, 39762, 39909, 40080, 40278, 47848, 47965, 48977, 49496, 52023, 52097, 52263, 52317, 52467, 52620, 52968], "trial_type": "free-recall", "conditions": [18, 1200, "v", 18000], "internal_node_id": "0.0-32.0-0.0", "key_presses": [67, 79, 70, 70, 69, 69, 13, 82, 79, 67, 75, 69, 84, 13, 77, 65, 80, 76, 69, 13, 73, 67, 69, 66, 69, 82, 71, 13, 82, 73, 76, 8, 70, 76, 69, 13, 87, 79, 77, 65, 78, 13, 66, 65, 78, 74, 79, 13, 66, 85, 78, 78, 89, 13, 67, 79, 76, 76, 69, 71, 69, 13, 70, 69, 76, 76, 69, 8, 8, 8, 8, 76, 69, 69, 84, 13, 67, 79, 85, 78, 84, 89, 13, 79, 8, 68, 65, 73, 83, 89, 13, 71, 65, 82, 76, 73, 67, 13, 82, 79, 68, 13, 82, 79, 67, 75, 69, 84, 13], "trial": 0, "time_elapsed": 360664, "type": "FREE_RECALL", "trial_index": 41}, "uniqueid": "MTK3306:3MB8LZR5BG0JQQH22KV5DZR2RMXLKM", "dateTime": 1520352679489}, {"current_trial": 42, "trialdata": {"rt": 11749, "trial_type": "text", "internal_node_id": "0.0-33.0", "time_elapsed": 374422, "key_press": 32, "type": "INSTRUCTIONS", "trial_index": 42}, "uniqueid": "MTK3306:3MB8LZR5BG0JQQH22KV5DZR2RMXLKM", "dateTime": 1520352693243}, {"current_trial": 43, "trialdata": {"rt": [4034, 6807, 12352, 14803], "trial_type": "math-distractor", "key_times": [3493, 3550, 4034, 6513, 6668, 6807, 12054, 12105, 12352, 14389, 14499, 14803], "responses": ["20", "11", "23", "13"], "num2": [9, 5, 9, 2, 2], "num3": [9, 4, 5, 9, 9], "conditions": [18, 1200, "v", 18000], "internal_node_id": "0.0-34.0", "key_presses": [50, 48, 13, 49, 49, 13, 50, 51, 13, 49, 51, 13], "trial": 1, "time_elapsed": 394433, "type": "DISTRACTOR", "trial_index": 43, "num1": [2, 2, 9, 2, 4]}, "uniqueid": "MTK3306:3MB8LZR5BG0JQQH22KV5DZR2RMXLKM", "dateTime": 1520352713255}, {"current_trial": 44, "trialdata": {"rt": -1, "trial_type": "single-stim", "stimulus": "<p id=\"stim\">10</p>", "internal_node_id": "0.0-35.0-0.0", "time_elapsed": 397438, "key_press": -1, "trial_index": 44}, "uniqueid": "MTK3306:3MB8LZR5BG0JQQH22KV5DZR2RMXLKM", "dateTime": 1520352716259}, {"current_trial": 45, "trialdata": {"rt": -1, "trial_type": "single-stim", "stimulus": "<p id=\"stim\">9</p>", "internal_node_id": "0.0-35.0-1.0", "time_elapsed": 398442, "key_press": -1, "trial_index": 45}, "uniqueid": "MTK3306:3MB8LZR5BG0JQQH22KV5DZR2RMXLKM", "dateTime": 1520352717263}, {"current_trial": 46, "trialdata": {"rt": -1, "trial_type": "single-stim", "stimulus": "<p id=\"stim\">8</p>", "internal_node_id": "0.0-35.0-2.0", "time_elapsed": 399446, "key_press": -1, "trial_index": 46}, "uniqueid": "MTK3306:3MB8LZR5BG0JQQH22KV5DZR2RMXLKM", "dateTime": 1520352718267}, {"current_trial": 47, "trialdata": {"rt": -1, "trial_type": "single-stim", "stimulus": "<p id=\"stim\">7</p>", "internal_node_id": "0.0-35.0-3.0", "time_elapsed": 400451, "key_press": -1, "trial_index": 47}, "uniqueid": "MTK3306:3MB8LZR5BG0JQQH22KV5DZR2RMXLKM", "dateTime": 1520352719272}, {"current_trial": 48, "trialdata": {"rt": -1, "trial_type": "single-stim", "stimulus": "<p id=\"stim\">6</p>", "internal_node_id": "0.0-35.0-4.0", "time_elapsed": 401455, "key_press": -1, "trial_index": 48}, "uniqueid": "MTK3306:3MB8LZR5BG0JQQH22KV5DZR2RMXLKM", "dateTime": 1520352720277}, {"current_trial": 49, "trialdata": {"rt": -1, "trial_type": "single-stim", "stimulus": "<p id=\"stim\">5</p>", "internal_node_id": "0.0-35.0-5.0", "time_elapsed": 402458, "key_press": -1, "trial_index": 49}, "uniqueid": "MTK3306:3MB8LZR5BG0JQQH22KV5DZR2RMXLKM", "dateTime": 1520352721279}, {"current_trial": 50, "trialdata": {"rt": -1, "trial_type": "single-stim", "stimulus": "<p id=\"stim\">4</p>", "internal_node_id": "0.0-35.0-6.0", "time_elapsed": 403463, "key_press": -1, "trial_index": 50}, "uniqueid": "MTK3306:3MB8LZR5BG0JQQH22KV5DZR2RMXLKM", "dateTime": 1520352722285}, {"current_trial": 51, "trialdata": {"rt": -1, "trial_type": "single-stim", "stimulus": "<p id=\"stim\">3</p>", "internal_node_id": "0.0-35.0-7.0", "time_elapsed": 404470, "key_press": -1, "trial_index": 51}, "uniqueid": "MTK3306:3MB8LZR5BG0JQQH22KV5DZR2RMXLKM", "dateTime": 1520352723291}, {"current_trial": 52, "trialdata": {"rt": -1, "trial_type": "single-stim", "stimulus": "<p id=\"stim\">2</p>", "internal_node_id": "0.0-35.0-8.0", "time_elapsed": 405476, "key_press": -1, "trial_index": 52}, "uniqueid": "MTK3306:3MB8LZR5BG0JQQH22KV5DZR2RMXLKM", "dateTime": 1520352724297}, {"current_trial": 53, "trialdata": {"rt": -1, "trial_type": "single-stim", "stimulus": "<p id=\"stim\">1</p>", "internal_node_id": "0.0-35.0-9.0", "time_elapsed": 406485, "key_press": -1, "trial_index": 53}, "uniqueid": "MTK3306:3MB8LZR5BG0JQQH22KV5DZR2RMXLKM", "dateTime": 1520352725306}, {"current_trial": 54, "trialdata": {"rt": -1, "trial_type": "single-stim", "stimulus": "<p id=\"stim\">+</p>", "internal_node_id": "0.0-36.0-0.0", "time_elapsed": 407991, "key_press": -1, "type": "FIXATION", "trial_index": 54}, "uniqueid": "MTK3306:3MB8LZR5BG0JQQH22KV5DZR2RMXLKM", "dateTime": 1520352726812}, {"current_trial": 55, "trialdata": {"rt": -1, "trial_type": "single-stim", "word": "typist", "stimulus": "<p id=\"stim\">TYPIST</p>", "conditions": [18, 1200, "v", 18000], "internal_node_id": "0.0-37.0", "trial": 1, "time_elapsed": 409195, "serialpos": 0, "key_press": -1, "wordID": 1531, "type": "PRES_VIS", "trial_index": 55}, "uniqueid": "MTK3306:3MB8LZR5BG0JQQH22KV5DZR2RMXLKM", "dateTime": 1520352728016}, {"current_trial": 56, "trialdata": {"rt": -1, "trial_type": "single-stim", "word": "burglar", "stimulus": "<p id=\"stim\">BURGLAR</p>", "conditions": [18, 1200, "v", 18000], "internal_node_id": "0.0-38.0", "trial": 1, "time_elapsed": 411461, "serialpos": 1, "key_press": -1, "wordID": 199, "type": "PRES_VIS", "trial_index": 56}, "uniqueid": "MTK3306:3MB8LZR5BG0JQQH22KV5DZR2RMXLKM", "dateTime": 1520352730282}, {"current_trial": 57, "trialdata": {"rt": -1, "trial_type": "single-stim", "word": "garbage", "stimulus": "<p id=\"stim\">GARBAGE</p>", "conditions": [18, 1200, "v", 18000], "internal_node_id": "0.0-39.0", "trial": 1, "time_elapsed": 413571, "serialpos": 2, "key_press": -1, "wordID": 621, "type": "PRES_VIS", "trial_index": 57}, "uniqueid": "MTK3306:3MB8LZR5BG0JQQH22KV5DZR2RMXLKM", "dateTime": 1520352732392}, {"current_trial": 58, "trialdata": {"rt": -1, "trial_type": "single-stim", "word": "stream", "stimulus": "<p id=\"stim\">STREAM</p>", "conditions": [18, 1200, "v", 18000], "internal_node_id": "0.0-40.0", "trial": 1, "time_elapsed": 415796, "serialpos": 3, "key_press": -1, "wordID": 1391, "type": "PRES_VIS", "trial_index": 58}, "uniqueid": "MTK3306:3MB8LZR5BG0JQQH22KV5DZR2RMXLKM", "dateTime": 1520352734618}, {"current_trial": 59, "trialdata": {"rt": -1, "trial_type": "single-stim", "word": "spool", "stimulus": "<p id=\"stim\">SPOOL</p>", "conditions": [18, 1200, "v", 18000], "internal_node_id": "0.0-41.0", "trial": 1, "time_elapsed": 417951, "serialpos": 4, "key_press": -1, "wordID": 1355, "type": "PRES_VIS", "trial_index": 59}, "uniqueid": "MTK3306:3MB8LZR5BG0JQQH22KV5DZR2RMXLKM", "dateTime": 1520352736773}, {"current_trial": 60, "trialdata": {"rt": -1, "trial_type": "single-stim", "word": "brick", "stimulus": "<p id=\"stim\">BRICK</p>", "conditions": [18, 1200, "v", 18000], "internal_node_id": "0.0-42.0", "trial": 1, "time_elapsed": 420113, "serialpos": 5, "key_press": -1, "wordID": 171, "type": "PRES_VIS", "trial_index": 60}, "uniqueid": "MTK3306:3MB8LZR5BG0JQQH22KV5DZR2RMXLKM", "dateTime": 1520352738934}, {"current_trial": 61, "trialdata": {"rt": -1, "trial_type": "single-stim", "word": "jelly", "stimulus": "<p id=\"stim\">JELLY</p>", "conditions": [18, 1200, "v", 18000], "internal_node_id": "0.0-43.0", "trial": 1, "time_elapsed": 422223, "serialpos": 6, "key_press": -1, "wordID": 754, "type": "PRES_VIS", "trial_index": 61}, "uniqueid": "MTK3306:3MB8LZR5BG0JQQH22KV5DZR2RMXLKM", "dateTime": 1520352741044}, {"current_trial": 62, "trialdata": {"rt": -1, "trial_type": "single-stim", "word": "body", "stimulus": "<p id=\"stim\">BODY</p>", "conditions": [18, 1200, "v", 18000], "internal_node_id": "0.0-44.0", "trial": 1, "time_elapsed": 424594, "serialpos": 7, "key_press": -1, "wordID": 144, "type": "PRES_VIS", "trial_index": 62}, "uniqueid": "MTK3306:3MB8LZR5BG0JQQH22KV5DZR2RMXLKM", "dateTime": 1520352743415}, {"current_trial": 63, "trialdata": {"rt": -1, "trial_type": "single-stim", "word": "husband", "stimulus": "<p id=\"stim\">HUSBAND</p>", "conditions": [18, 1200, "v", 18000], "internal_node_id": "0.0-45.0", "trial": 1, "time_elapsed": 426613, "serialpos": 8, "key_press": -1, "wordID": 727, "type": "PRES_VIS", "trial_index": 63}, "uniqueid": "MTK3306:3MB8LZR5BG0JQQH22KV5DZR2RMXLKM", "dateTime": 1520352745435}, {"current_trial": 64, "trialdata": {"rt": -1, "trial_type": "single-stim", "word": "nightgown", "stimulus": "<p id=\"stim\">NIGHTGOWN</p>", "conditions": [18, 1200, "v", 18000], "internal_node_id": "0.0-46.0", "trial": 1, "time_elapsed": 428879, "serialpos": 9, "key_press": -1, "wordID": 952, "type": "PRES_VIS", "trial_index": 64}, "uniqueid": "MTK3306:3MB8LZR5BG0JQQH22KV5DZR2RMXLKM", "dateTime": 1520352747701}, {"current_trial": 65, "trialdata": {"rt": -1, "trial_type": "single-stim", "word": "brook", "stimulus": "<p id=\"stim\">BROOK</p>", "conditions": [18, 1200, "v", 18000], "internal_node_id": "0.0-47.0", "trial": 1, "time_elapsed": 430927, "serialpos": 10, "key_press": -1, "wordID": 176, "type": "PRES_VIS", "trial_index": 65}, "uniqueid": "MTK3306:3MB8LZR5BG0JQQH22KV5DZR2RMXLKM", "dateTime": 1520352749748}, {"current_trial": 66, "trialdata": {"rt": -1, "trial_type": "single-stim", "word": "beast", "stimulus": "<p id=\"stim\">BEAST</p>", "conditions": [18, 1200, "v", 18000], "internal_node_id": "0.0-48.0", "trial": 1, "time_elapsed": 433181, "serialpos": 11, "key_press": -1, "wordID": 107, "type": "PRES_VIS", "trial_index": 66}, "uniqueid": "MTK3306:3MB8LZR5BG0JQQH22KV5DZR2RMXLKM", "dateTime": 1520352752003}, {"current_trial": 67, "trialdata": {"rt": -1, "trial_type": "single-stim", "word": "tribe", "stimulus": "<p id=\"stim\">TRIBE</p>", "conditions": [18, 1200, "v", 18000], "internal_node_id": "0.0-49.0", "trial": 1, "time_elapsed": 435515, "serialpos": 12, "key_press": -1, "wordID": 1504, "type": "PRES_VIS", "trial_index": 67}, "uniqueid": "MTK3306:3MB8LZR5BG0JQQH22KV5DZR2RMXLKM", "dateTime": 1520352754337}, {"current_trial": 68, "trialdata": {"rt": -1, "trial_type": "single-stim", "word": "dashboard", "stimulus": "<p id=\"stim\">DASHBOARD</p>", "conditions": [18, 1200, "v", 18000], "internal_node_id": "0.0-50.0", "trial": 1, "time_elapsed": 437589, "serialpos": 13, "key_press": -1, "wordID": 440, "type": "PRES_VIS", "trial_index": 68}, "uniqueid": "MTK3306:3MB8LZR5BG0JQQH22KV5DZR2RMXLKM", "dateTime": 1520352756432}, {"current_trial": 69, "trialdata": {"rt": -1, "trial_type": "single-stim", "word": "poet", "stimulus": "<p id=\"stim\">POET</p>", "conditions": [18, 1200, "v", 18000], "internal_node_id": "0.0-51.0", "trial": 1, "time_elapsed": 439751, "serialpos": 14, "key_press": -1, "wordID": 1094, "type": "PRES_VIS", "trial_index": 69}, "uniqueid": "MTK3306:3MB8LZR5BG0JQQH22KV5DZR2RMXLKM", "dateTime": 1520352758574}, {"current_trial": 70, "trialdata": {"rt": -1, "trial_type": "single-stim", "word": "velvet", "stimulus": "<p id=\"stim\">VELVET</p>", "conditions": [18, 1200, "v", 18000], "internal_node_id": "0.0-52.0", "trial": 1, "time_elapsed": 441778, "serialpos": 15, "key_press": -1, "wordID": 1554, "type": "PRES_VIS", "trial_index": 70}, "uniqueid": "MTK3306:3MB8LZR5BG0JQQH22KV5DZR2RMXLKM", "dateTime": 1520352760599}, {"current_trial": 71, "trialdata": {"rt": -1, "trial_type": "single-stim", "word": "balloon", "stimulus": "<p id=\"stim\">BALLOON</p>", "conditions": [18, 1200, "v", 18000], "internal_node_id": "0.0-53.0", "trial": 1, "time_elapsed": 444140, "serialpos": 16, "key_press": -1, "wordID": 74, "type": "PRES_VIS", "trial_index": 71}, "uniqueid": "MTK3306:3MB8LZR5BG0JQQH22KV5DZR2RMXLKM", "dateTime": 1520352762961}, {"current_trial": 72, "trialdata": {"rt": -1, "trial_type": "single-stim", "word": "soda", "stimulus": "<p id=\"stim\">SODA</p>", "conditions": [18, 1200, "v", 18000], "internal_node_id": "0.0-54.0", "trial": 1, "time_elapsed": 446256, "serialpos": 17, "key_press": -1, "wordID": 1340, "type": "PRES_VIS", "trial_index": 72}, "uniqueid": "MTK3306:3MB8LZR5BG0JQQH22KV5DZR2RMXLKM", "dateTime": 1520352765078}, {"current_trial": 73, "trialdata": {"rt": -1, "trial_type": "single-stim", "stimulus": "", "internal_node_id": "0.0-55.0-0.0", "time_elapsed": 448600, "key_press": -1, "type": "PRE_RECALL_DELAY", "trial_index": 73}, "uniqueid": "MTK3306:3MB8LZR5BG0JQQH22KV5DZR2RMXLKM", "dateTime": 1520352767421}, {"current_trial": 74, "trialdata": {"rt": -1000, "trial_type": "single-audio", "stimulus": "/static/audio/400Hz.wav", "internal_node_id": "0.0-56.0", "time_elapsed": 449103, "key_press": -1, "type": "PRE_RECALL_ALERT", "trial_index": 74}, "uniqueid": "MTK3306:3MB8LZR5BG0JQQH22KV5DZR2RMXLKM", "dateTime": 1520352767924}, {"current_trial": 75, "trialdata": {"rt": [12085, 14308, 27206, 28569, 30164, 31161, 33018, 34221, 35339, 36916, 40125, 44359, 47474, 49437, 51262, 53528, 55521, 56707, 58479], "recwords": ["typist", "burglar", "garbage", "stream", "brick", "jelly", "husband", "brook", "beast", "dashboard", "velvet", "balloon", "stream", "brick", "spool", "nightgown", "tribe", "poet", "soda"], "key_times": [7116, 7227, 7377, 7613, 7765, 8302, 8817, 8851, 8883, 8916, 8950, 8984, 9016, 9049, 9082, 9115, 9148, 9182, 9215, 9322, 9633, 10188, 10333, 10659, 10835, 10971, 11138, 11379, 11486, 11641, 11766, 12085, 12676, 12805, 12905, 13116, 13245, 13732, 13797, 14308, 26017, 26179, 26248, 26550, 26637, 26849, 26969, 27206, 27523, 27715, 27766, 27970, 28254, 28399, 28569, 28825, 28919, 29064, 29184, 29670, 29758, 29923, 30164, 30497, 30610, 30718, 30862, 30989, 31161, 31538, 31673, 31827, 32244, 32378, 32518, 32630, 33018, 33343, 33542, 33704, 33875, 33960, 34221, 34510, 34589, 34775, 34930, 35092, 35339, 35606, 35781, 35928, 36027, 36250, 36412, 36472, 36565, 36791, 36916, 37639, 38130, 38352, 38403, 38539, 38962, 39294, 39354, 39411, 39784, 40125, 40671, 40788, 40915, 41220, 41386, 42113, 42285, 42434, 42682, 42840, 43071, 44359, 46194, 46464, 46493, 46912, 47166, 47299, 47474, 47934, 48006, 48430, 48817, 48928, 49071, 49162, 49437, 50005, 50086, 50164, 50398, 50766, 51262, 51675, 51775, 51878, 51985, 52076, 52336, 52841, 53012, 53158, 53528, 53916, 53997, 54068, 54441, 55099, 55521, 55824, 55923, 56180, 56329, 56707, 57937, 58004, 58147, 58320, 58479], "trial_type": "free-recall", "conditions": [18, 1200, "v", 18000], "internal_node_id": "0.0-57.0-0.0", "key_presses": [66, 65, 76, 79, 79, 8, 8, 8, 8, 8, 8, 8, 8, 8, 8, 8, 8, 8, 8, 84, 89, 79, 85, 83, 8, 8, 8, 80, 73, 83, 84, 13, 66, 85, 82, 71, 76, 65, 82, 13, 71, 65, 82, 66, 65, 71, 69, 13, 83, 84, 82, 69, 65, 77, 13, 66, 82, 73, 78, 8, 67, 75, 13, 74, 69, 76, 76, 89, 13, 72, 85, 83, 66, 65, 78, 68, 13, 66, 82, 79, 79, 75, 13, 66, 69, 65, 83, 84, 13, 68, 65, 83, 72, 66, 79, 65, 82, 68, 13, 69, 8, 86, 69, 76, 76, 8, 86, 69, 84, 13, 66, 65, 76, 79, 79, 8, 8, 76, 79, 79, 78, 13, 83, 84, 82, 69, 65, 77, 13, 66, 82, 67, 8, 73, 67, 75, 13, 83, 80, 79, 79, 76, 13, 78, 73, 71, 72, 84, 71, 79, 87, 78, 13, 84, 82, 73, 66, 69, 13, 80, 79, 69, 84, 13, 83, 79, 68, 65, 13], "trial": 1, "time_elapsed": 509114, "type": "FREE_RECALL", "trial_index": 75}, "uniqueid": "MTK3306:3MB8LZR5BG0JQQH22KV5DZR2RMXLKM", "dateTime": 1520352827954}, {"current_trial": 76, "trialdata": {"rt": 7053, "trial_type": "text", "internal_node_id": "0.0-58.0", "time_elapsed": 518191, "key_press": 32, "type": "INSTRUCTIONS", "trial_index": 76}, "uniqueid": "MTK3306:3MB8LZR5BG0JQQH22KV5DZR2RMXLKM", "dateTime": 1520352837013}, {"current_trial": 77, "trialdata": {"rt": [2862, 4388, 8706], "trial_type": "math-distractor", "key_times": [2655, 2862, 4083, 4243, 4388, 8435, 8547, 8706], "responses": ["9", "11", "19"], "num2": [3, 4, 4, 6], "num3": [2, 1, 7, 9], "conditions": [24, 1600, "v", 12000], "internal_node_id": "0.0-59.0", "key_presses": [57, 13, 49, 49, 13, 49, 57, 13], "trial": 2, "time_elapsed": 531199, "type": "DISTRACTOR", "trial_index": 77, "num1": [4, 6, 8, 7]}, "uniqueid": "MTK3306:3MB8LZR5BG0JQQH22KV5DZR2RMXLKM", "dateTime": 1520352850021}, {"current_trial": 78, "trialdata": {"rt": -1, "trial_type": "single-stim", "stimulus": "<p id=\"stim\">10</p>", "internal_node_id": "0.0-60.0-0.0", "time_elapsed": 534208, "key_press": -1, "trial_index": 78}, "uniqueid": "MTK3306:3MB8LZR5BG0JQQH22KV5DZR2RMXLKM", "dateTime": 1520352853029}, {"current_trial": 79, "trialdata": {"rt": -1, "trial_type": "single-stim", "stimulus": "<p id=\"stim\">9</p>", "internal_node_id": "0.0-60.0-1.0", "time_elapsed": 535213, "key_press": -1, "trial_index": 79}, "uniqueid": "MTK3306:3MB8LZR5BG0JQQH22KV5DZR2RMXLKM", "dateTime": 1520352854034}, {"current_trial": 80, "trialdata": {"rt": -1, "trial_type": "single-stim", "stimulus": "<p id=\"stim\">8</p>", "internal_node_id": "0.0-60.0-2.0", "time_elapsed": 536220, "key_press": -1, "trial_index": 80}, "uniqueid": "MTK3306:3MB8LZR5BG0JQQH22KV5DZR2RMXLKM", "dateTime": 1520352855042}, {"current_trial": 81, "trialdata": {"rt": -1, "trial_type": "single-stim", "stimulus": "<p id=\"stim\">7</p>", "internal_node_id": "0.0-60.0-3.0", "time_elapsed": 537225, "key_press": -1, "trial_index": 81}, "uniqueid": "MTK3306:3MB8LZR5BG0JQQH22KV5DZR2RMXLKM", "dateTime": 1520352856046}, {"current_trial": 82, "trialdata": {"rt": -1, "trial_type": "single-stim", "stimulus": "<p id=\"stim\">6</p>", "internal_node_id": "0.0-60.0-4.0", "time_elapsed": 538228, "key_press": -1, "trial_index": 82}, "uniqueid": "MTK3306:3MB8LZR5BG0JQQH22KV5DZR2RMXLKM", "dateTime": 1520352857049}, {"current_trial": 83, "trialdata": {"rt": -1, "trial_type": "single-stim", "stimulus": "<p id=\"stim\">5</p>", "internal_node_id": "0.0-60.0-5.0", "time_elapsed": 539230, "key_press": -1, "trial_index": 83}, "uniqueid": "MTK3306:3MB8LZR5BG0JQQH22KV5DZR2RMXLKM", "dateTime": 1520352858051}, {"current_trial": 84, "trialdata": {"rt": -1, "trial_type": "single-stim", "stimulus": "<p id=\"stim\">4</p>", "internal_node_id": "0.0-60.0-6.0", "time_elapsed": 540235, "key_press": -1, "trial_index": 84}, "uniqueid": "MTK3306:3MB8LZR5BG0JQQH22KV5DZR2RMXLKM", "dateTime": 1520352859056}, {"current_trial": 85, "trialdata": {"rt": -1, "trial_type": "single-stim", "stimulus": "<p id=\"stim\">3</p>", "internal_node_id": "0.0-60.0-7.0", "time_elapsed": 541238, "key_press": -1, "trial_index": 85}, "uniqueid": "MTK3306:3MB8LZR5BG0JQQH22KV5DZR2RMXLKM", "dateTime": 1520352860059}, {"current_trial": 86, "trialdata": {"rt": -1, "trial_type": "single-stim", "stimulus": "<p id=\"stim\">2</p>", "internal_node_id": "0.0-60.0-8.0", "time_elapsed": 542242, "key_press": -1, "trial_index": 86}, "uniqueid": "MTK3306:3MB8LZR5BG0JQQH22KV5DZR2RMXLKM", "dateTime": 1520352861064}, {"current_trial": 87, "trialdata": {"rt": -1, "trial_type": "single-stim", "stimulus": "<p id=\"stim\">1</p>", "internal_node_id": "0.0-60.0-9.0", "time_elapsed": 543248, "key_press": -1, "trial_index": 87}, "uniqueid": "MTK3306:3MB8LZR5BG0JQQH22KV5DZR2RMXLKM", "dateTime": 1520352862069}, {"current_trial": 88, "trialdata": {"rt": -1, "trial_type": "single-stim", "stimulus": "<p id=\"stim\">+</p>", "internal_node_id": "0.0-61.0-0.0", "time_elapsed": 544751, "key_press": -1, "type": "FIXATION", "trial_index": 88}, "uniqueid": "MTK3306:3MB8LZR5BG0JQQH22KV5DZR2RMXLKM", "dateTime": 1520352863572}, {"current_trial": 89, "trialdata": {"rt": -1, "trial_type": "single-stim", "word": "bank", "stimulus": "<p id=\"stim\">BANK</p>", "conditions": [24, 1600, "v", 12000], "internal_node_id": "0.0-62.0", "trial": 2, "time_elapsed": 546356, "serialpos": 0, "key_press": -1, "wordID": 82, "type": "PRES_VIS", "trial_index": 89}, "uniqueid": "MTK3306:3MB8LZR5BG0JQQH22KV5DZR2RMXLKM", "dateTime": 1520352865178}, {"current_trial": 90, "trialdata": {"rt": -1, "trial_type": "single-stim", "word": "wrist", "stimulus": "<p id=\"stim\">WRIST</p>", "conditions": [24, 1600, "v", 12000], "internal_node_id": "0.0-63.0", "trial": 2, "time_elapsed": 549041, "serialpos": 1, "key_press": -1, "wordID": 1625, "type": "PRES_VIS", "trial_index": 90}, "uniqueid": "MTK3306:3MB8LZR5BG0JQQH22KV5DZR2RMXLKM", "dateTime": 1520352867863}, {"current_trial": 91, "trialdata": {"rt": -1, "trial_type": "single-stim", "word": "elbow", "stimulus": "<p id=\"stim\">ELBOW</p>", "conditions": [24, 1600, "v", 12000], "internal_node_id": "0.0-64.0", "trial": 2, "time_elapsed": 551802, "serialpos": 2, "key_press": -1, "wordID": 519, "type": "PRES_VIS", "trial_index": 91}, "uniqueid": "MTK3306:3MB8LZR5BG0JQQH22KV5DZR2RMXLKM", "dateTime": 1520352870624}, {"current_trial": 92, "trialdata": {"rt": -1, "trial_type": "single-stim", "word": "ox", "stimulus": "<p id=\"stim\">OX</p>", "conditions": [24, 1600, "v", 12000], "internal_node_id": "0.0-65.0", "trial": 2, "time_elapsed": 554253, "serialpos": 3, "key_press": -1, "wordID": 993, "type": "PRES_VIS", "trial_index": 92}, "uniqueid": "MTK3306:3MB8LZR5BG0JQQH22KV5DZR2RMXLKM", "dateTime": 1520352873074}, {"current_trial": 93, "trialdata": {"rt": -1, "trial_type": "single-stim", "word": "champagne", "stimulus": "<p id=\"stim\">CHAMPAGNE</p>", "conditions": [24, 1600, "v", 12000], "internal_node_id": "0.0-66.0", "trial": 2, "time_elapsed": 556780, "serialpos": 4, "key_press": -1, "wordID": 277, "type": "PRES_VIS", "trial_index": 93}, "uniqueid": "MTK3306:3MB8LZR5BG0JQQH22KV5DZR2RMXLKM", "dateTime": 1520352875601}, {"current_trial": 94, "trialdata": {"rt": -1, "trial_type": "single-stim", "word": "banker", "stimulus": "<p id=\"stim\">BANKER</p>", "conditions": [24, 1600, "v", 12000], "internal_node_id": "0.0-67.0", "trial": 2, "time_elapsed": 559266, "serialpos": 5, "key_press": -1, "wordID": 83, "type": "PRES_VIS", "trial_index": 94}, "uniqueid": "MTK3306:3MB8LZR5BG0JQQH22KV5DZR2RMXLKM", "dateTime": 1520352878087}, {"current_trial": 95, "trialdata": {"rt": -1, "trial_type": "single-stim", "word": "mop", "stimulus": "<p id=\"stim\">MOP</p>", "conditions": [24, 1600, "v", 12000], "internal_node_id": "0.0-68.0", "trial": 2, "time_elapsed": 561759, "serialpos": 6, "key_press": -1, "wordID": 915, "type": "PRES_VIS", "trial_index": 95}, "uniqueid": "MTK3306:3MB8LZR5BG0JQQH22KV5DZR2RMXLKM", "dateTime": 1520352880581}, {"current_trial": 96, "trialdata": {"rt": -1, "trial_type": "single-stim", "word": "plaster", "stimulus": "<p id=\"stim\">PLASTER</p>", "conditions": [24, 1600, "v", 12000], "internal_node_id": "0.0-69.0", "trial": 2, "time_elapsed": 564455, "serialpos": 7, "key_press": -1, "wordID": 1084, "type": "PRES_VIS", "trial_index": 96}, "uniqueid": "MTK3306:3MB8LZR5BG0JQQH22KV5DZR2RMXLKM", "dateTime": 1520352883276}, {"current_trial": 97, "trialdata": {"rt": -1, "trial_type": "single-stim", "word": "fungus", "stimulus": "<p id=\"stim\">FUNGUS</p>", "conditions": [24, 1600, "v", 12000], "internal_node_id": "0.0-70.0", "trial": 2, "time_elapsed": 567035, "serialpos": 8, "key_press": -1, "wordID": 613, "type": "PRES_VIS", "trial_index": 97}, "uniqueid": "MTK3306:3MB8LZR5BG0JQQH22KV5DZR2RMXLKM", "dateTime": 1520352885856}, {"current_trial": 98, "trialdata": {"rt": -1, "trial_type": "single-stim", "word": "flask", "stimulus": "<p id=\"stim\">FLASK</p>", "conditions": [24, 1600, "v", 12000], "internal_node_id": "0.0-71.0", "trial": 2, "time_elapsed": 569520, "serialpos": 9, "key_press": -1, "wordID": 575, "type": "PRES_VIS", "trial_index": 98}, "uniqueid": "MTK3306:3MB8LZR5BG0JQQH22KV5DZR2RMXLKM", "dateTime": 1520352888341}, {"current_trial": 99, "trialdata": {"rt": -1, "trial_type": "single-stim", "word": "shelf", "stimulus": "<p id=\"stim\">SHELF</p>", "conditions": [24, 1600, "v", 12000], "internal_node_id": "0.0-72.0", "trial": 2, "time_elapsed": 572274, "serialpos": 10, "key_press": -1, "wordID": 1279, "type": "PRES_VIS", "trial_index": 99}, "uniqueid": "MTK3306:3MB8LZR5BG0JQQH22KV5DZR2RMXLKM", "dateTime": 1520352891095}, {"current_trial": 100, "trialdata": {"rt": -1, "trial_type": "single-stim", "word": "preacher", "stimulus": "<p id=\"stim\">PREACHER</p>", "conditions": [24, 1600, "v", 12000], "internal_node_id": "0.0-73.0", "trial": 2, "time_elapsed": 574756, "serialpos": 11, "key_press": -1, "wordID": 1118, "type": "PRES_VIS", "trial_index": 100}, "uniqueid": "MTK3306:3MB8LZR5BG0JQQH22KV5DZR2RMXLKM", "dateTime": 1520352893577}, {"current_trial": 101, "trialdata": {"rt": -1, "trial_type": "single-stim", "word": "stove", "stimulus": "<p id=\"stim\">STOVE</p>", "conditions": [24, 1600, "v", 12000], "internal_node_id": "0.0-74.0", "trial": 2, "time_elapsed": 577256, "serialpos": 12, "key_press": -1, "wordID": 1387, "type": "PRES_VIS", "trial_index": 101}, "uniqueid": "MTK3306:3MB8LZR5BG0JQQH22KV5DZR2RMXLKM", "dateTime": 1520352896077}, {"current_trial": 102, "trialdata": {"rt": -1, "trial_type": "single-stim", "word": "dress", "stimulus": "<p id=\"stim\">DRESS</p>", "conditions": [24, 1600, "v", 12000], "internal_node_id": "0.0-75.0", "trial": 2, "time_elapsed": 579853, "serialpos": 13, "key_press": -1, "wordID": 494, "type": "PRES_VIS", "trial_index": 102}, "uniqueid": "MTK3306:3MB8LZR5BG0JQQH22KV5DZR2RMXLKM", "dateTime": 1520352898674}, {"current_trial": 103, "trialdata": {"rt": -1, "trial_type": "single-stim", "word": "jury", "stimulus": "<p id=\"stim\">JURY</p>", "conditions": [24, 1600, "v", 12000], "internal_node_id": "0.0-76.0", "trial": 2, "time_elapsed": 582307, "serialpos": 14, "key_press": -1, "wordID": 765, "type": "PRES_VIS", "trial_index": 103}, "uniqueid": "MTK3306:3MB8LZR5BG0JQQH22KV5DZR2RMXLKM", "dateTime": 1520352901128}, {"current_trial": 104, "trialdata": {"rt": -1, "trial_type": "single-stim", "word": "rooster", "stimulus": "<p id=\"stim\">ROOSTER</p>", "conditions": [24, 1600, "v", 12000], "internal_node_id": "0.0-77.0", "trial": 2, "time_elapsed": 584746, "serialpos": 15, "key_press": -1, "wordID": 1208, "type": "PRES_VIS", "trial_index": 104}, "uniqueid": "MTK3306:3MB8LZR5BG0JQQH22KV5DZR2RMXLKM", "dateTime": 1520352903567}, {"current_trial": 105, "trialdata": {"rt": -1, "trial_type": "single-stim", "word": "onion", "stimulus": "<p id=\"stim\">ONION</p>", "conditions": [24, 1600, "v", 12000], "internal_node_id": "0.0-78.0", "trial": 2, "time_elapsed": 587176, "serialpos": 16, "key_press": -1, "wordID": 976, "type": "PRES_VIS", "trial_index": 105}, "uniqueid": "MTK3306:3MB8LZR5BG0JQQH22KV5DZR2RMXLKM", "dateTime": 1520352905997}, {"current_trial": 106, "trialdata": {"rt": -1, "trial_type": "single-stim", "word": "pepper", "stimulus": "<p id=\"stim\">PEPPER</p>", "conditions": [24, 1600, "v", 12000], "internal_node_id": "0.0-79.0", "trial": 2, "time_elapsed": 589876, "serialpos": 17, "key_press": -1, "wordID": 1046, "type": "PRES_VIS", "trial_index": 106}, "uniqueid": "MTK3306:3MB8LZR5BG0JQQH22KV5DZR2RMXLKM", "dateTime": 1520352908697}, {"current_trial": 107, "trialdata": {"rt": -1, "trial_type": "single-stim", "word": "hood", "stimulus": "<p id=\"stim\">HOOD</p>", "conditions": [24, 1600, "v", 12000], "internal_node_id": "0.0-80.0", "trial": 2, "time_elapsed": 592538, "serialpos": 18, "key_press": -1, "wordID": 713, "type": "PRES_VIS", "trial_index": 107}, "uniqueid": "MTK3306:3MB8LZR5BG0JQQH22KV5DZR2RMXLKM", "dateTime": 1520352911359}, {"current_trial": 108, "trialdata": {"rt": -1, "trial_type": "single-stim", "word": "widow", "stimulus": "<p id=\"stim\">WIDOW</p>", "conditions": [24, 1600, "v", 12000], "internal_node_id": "0.0-81.0", "trial": 2, "time_elapsed": 595239, "serialpos": 19, "key_press": -1, "wordID": 1607, "type": "PRES_VIS", "trial_index": 108}, "uniqueid": "MTK3306:3MB8LZR5BG0JQQH22KV5DZR2RMXLKM", "dateTime": 1520352914060}, {"current_trial": 109, "trialdata": {"rt": -1, "trial_type": "single-stim", "word": "switch", "stimulus": "<p id=\"stim\">SWITCH</p>", "conditions": [24, 1600, "v", 12000], "internal_node_id": "0.0-82.0", "trial": 2, "time_elapsed": 597789, "serialpos": 20, "key_press": -1, "wordID": 1421, "type": "PRES_VIS", "trial_index": 109}, "uniqueid": "MTK3306:3MB8LZR5BG0JQQH22KV5DZR2RMXLKM", "dateTime": 1520352916610}, {"current_trial": 110, "trialdata": {"rt": -1, "trial_type": "single-stim", "word": "clamp", "stimulus": "<p id=\"stim\">CLAMP</p>", "conditions": [24, 1600, "v", 12000], "internal_node_id": "0.0-83.0", "trial": 2, "time_elapsed": 600418, "serialpos": 21, "key_press": -1, "wordID": 315, "type": "PRES_VIS", "trial_index": 110}, "uniqueid": "MTK3306:3MB8LZR5BG0JQQH22KV5DZR2RMXLKM", "dateTime": 1520352919239}, {"current_trial": 111, "trialdata": {"rt": -1, "trial_type": "single-stim", "word": "judge", "stimulus": "<p id=\"stim\">JUDGE</p>", "conditions": [24, 1600, "v", 12000], "internal_node_id": "0.0-84.0", "trial": 2, "time_elapsed": 603155, "serialpos": 22, "key_press": -1, "wordID": 760, "type": "PRES_VIS", "trial_index": 111}, "uniqueid": "MTK3306:3MB8LZR5BG0JQQH22KV5DZR2RMXLKM", "dateTime": 1520352921976}, {"current_trial": 112, "trialdata": {"rt": -1, "trial_type": "single-stim", "word": "dresser", "stimulus": "<p id=\"stim\">DRESSER</p>", "conditions": [24, 1600, "v", 12000], "internal_node_id": "0.0-85.0", "trial": 2, "time_elapsed": 605655, "serialpos": 23, "key_press": -1, "wordID": 495, "type": "PRES_VIS", "trial_index": 112}, "uniqueid": "MTK3306:3MB8LZR5BG0JQQH22KV5DZR2RMXLKM", "dateTime": 1520352924476}, {"current_trial": 113, "trialdata": {"rt": -1, "trial_type": "single-stim", "stimulus": "", "internal_node_id": "0.0-86.0-0.0", "time_elapsed": 608160, "key_press": -1, "type": "PRE_RECALL_DELAY", "trial_index": 113}, "uniqueid": "MTK3306:3MB8LZR5BG0JQQH22KV5DZR2RMXLKM", "dateTime": 1520352926981}, {"current_trial": 114, "trialdata": {"rt": -1000, "trial_type": "single-audio", "stimulus": "/static/audio/400Hz.wav", "internal_node_id": "0.0-87.0", "time_elapsed": 608663, "key_press": -1, "type": "PRE_RECALL_ALERT", "trial_index": 114}, "uniqueid": "MTK3306:3MB8LZR5BG0JQQH22KV5DZR2RMXLKM", "dateTime": 1520352927484}, {"current_trial": 115, "trialdata": {"rt": [14953, 16521, 18477, 23939, 26096, 29214, 31848, 34527, 36298, 38680, 40498, 42850, 44293, 46789, 49947, 51805, 54322, 57016], "recwords": ["wrist", "elbow", "ox", "banker", "mop", "plaster", "fungus", "flask", "she", "shelf", "preacher", "stove", "dress", "jury", "rooster", "onion", "pepper", "hood"], "key_times": [12739, 12894, 13112, 13247, 13392, 14039, 14231, 14426, 14601, 14661, 14760, 14953, 15553, 15701, 15978, 16155, 16354, 16521, 18048, 18175, 18477, 23091, 23189, 23333, 23444, 23676, 23748, 23939, 25472, 25573, 25772, 26096, 28119, 28241, 28377, 28479, 28669, 28777, 28903, 29214, 30688, 30775, 31013, 31182, 31528, 31634, 31848, 33231, 33330, 33467, 33649, 33857, 34527, 35876, 35990, 36095, 36298, 37121, 37415, 37542, 37815, 38339, 38680, 39188, 39345, 39380, 39611, 39832, 39923, 40043, 40098, 40498, 41065, 41155, 41614, 41747, 41799, 41941, 42020, 42188, 42309, 42850, 43539, 43604, 43753, 43970, 44134, 44293, 46133, 46310, 46404, 46534, 46789, 48408, 48477, 48652, 49004, 49210, 49318, 49448, 49947, 50749, 50874, 51071, 51275, 51402, 51805, 53510, 53614, 53739, 53890, 53959, 54033, 54322, 56344, 56372, 56557, 56717, 57016, 58870, 58986, 59106, 59746, 59882], "trial_type": "free-recall", "conditions": [24, 1600, "v", 12000], "internal_node_id": "0.0-88.0-0.0", "key_presses": [87, 82, 79, 83, 84, 8, 8, 8, 73, 83, 84, 13, 69, 76, 66, 79, 87, 13, 79, 88, 13, 66, 65, 78, 75, 69, 82, 13, 77, 79, 80, 13, 80, 76, 65, 83, 84, 69, 82, 13, 70, 85, 78, 71, 85, 83, 13, 70, 76, 65, 83, 75, 13, 83, 72, 69, 186, 83, 72, 69, 76, 70, 13, 80, 82, 69, 65, 67, 72, 69, 82, 13, 84, 79, 8, 8, 83, 84, 79, 86, 69, 13, 68, 82, 69, 83, 83, 13, 74, 85, 82, 89, 13, 82, 79, 79, 83, 84, 69, 82, 13, 79, 78, 73, 79, 78, 13, 80, 69, 80, 80, 69, 82, 13, 72, 79, 79, 68, 13, 87, 73, 78, 8, 68], "trial": 2, "time_elapsed": 668677, "type": "FREE_RECALL", "trial_index": 115}, "uniqueid": "MTK3306:3MB8LZR5BG0JQQH22KV5DZR2RMXLKM", "dateTime": 1520352987524}, {"current_trial": 116, "trialdata": {"rt": 8323, "trial_type": "text", "internal_node_id": "0.0-89.0", "time_elapsed": 679030, "key_press": 32, "type": "INSTRUCTIONS", "trial_index": 116}, "uniqueid": "MTK3306:3MB8LZR5BG0JQQH22KV5DZR2RMXLKM", "dateTime": 1520352997851}, {"current_trial": 117, "trialdata": {"rt": [2613, 4491, 6822, 8550, 10711], "trial_type": "math-distractor", "key_times": [1863, 2172, 2613, 4135, 4355, 4491, 6589, 6740, 6822, 8319, 8454, 8550, 10587, 10711], "responses": ["16", "24", "11", "11", "8"], "num2": [7, 8, 8, 1, 1, 6], "num3": [7, 8, 2, 1, 2, 9], "conditions": [12, 1600, "v", 12000], "internal_node_id": "0.0-90.0", "key_presses": [49, 54, 13, 50, 52, 13, 49, 49, 13, 49, 49, 13, 56, 13], "trial": 3, "time_elapsed": 693036, "type": "DISTRACTOR", "trial_index": 117, "num1": [2, 8, 1, 9, 5, 7]}, "uniqueid": "MTK3306:3MB8LZR5BG0JQQH22KV5DZR2RMXLKM", "dateTime": 1520353011858}, {"current_trial": 118, "trialdata": {"rt": -1, "trial_type": "single-stim", "stimulus": "<p id=\"stim\">10</p>", "internal_node_id": "0.0-91.0-0.0", "time_elapsed": 696042, "key_press": -1, "trial_index": 118}, "uniqueid": "MTK3306:3MB8LZR5BG0JQQH22KV5DZR2RMXLKM", "dateTime": 1520353014863}, {"current_trial": 119, "trialdata": {"rt": -1, "trial_type": "single-stim", "stimulus": "<p id=\"stim\">9</p>", "internal_node_id": "0.0-91.0-1.0", "time_elapsed": 697047, "key_press": -1, "trial_index": 119}, "uniqueid": "MTK3306:3MB8LZR5BG0JQQH22KV5DZR2RMXLKM", "dateTime": 1520353015868}, {"current_trial": 120, "trialdata": {"rt": -1, "trial_type": "single-stim", "stimulus": "<p id=\"stim\">8</p>", "internal_node_id": "0.0-91.0-2.0", "time_elapsed": 698051, "key_press": -1, "trial_index": 120}, "uniqueid": "MTK3306:3MB8LZR5BG0JQQH22KV5DZR2RMXLKM", "dateTime": 1520353016872}, {"current_trial": 121, "trialdata": {"rt": -1, "trial_type": "single-stim", "stimulus": "<p id=\"stim\">7</p>", "internal_node_id": "0.0-91.0-3.0", "time_elapsed": 699056, "key_press": -1, "trial_index": 121}, "uniqueid": "MTK3306:3MB8LZR5BG0JQQH22KV5DZR2RMXLKM", "dateTime": 1520353017877}, {"current_trial": 122, "trialdata": {"rt": -1, "trial_type": "single-stim", "stimulus": "<p id=\"stim\">6</p>", "internal_node_id": "0.0-91.0-4.0", "time_elapsed": 700059, "key_press": -1, "trial_index": 122}, "uniqueid": "MTK3306:3MB8LZR5BG0JQQH22KV5DZR2RMXLKM", "dateTime": 1520353018881}, {"current_trial": 123, "trialdata": {"rt": -1, "trial_type": "single-stim", "stimulus": "<p id=\"stim\">5</p>", "internal_node_id": "0.0-91.0-5.0", "time_elapsed": 701064, "key_press": -1, "trial_index": 123}, "uniqueid": "MTK3306:3MB8LZR5BG0JQQH22KV5DZR2RMXLKM", "dateTime": 1520353019885}, {"current_trial": 124, "trialdata": {"rt": -1, "trial_type": "single-stim", "stimulus": "<p id=\"stim\">4</p>", "internal_node_id": "0.0-91.0-6.0", "time_elapsed": 702068, "key_press": -1, "trial_index": 124}, "uniqueid": "MTK3306:3MB8LZR5BG0JQQH22KV5DZR2RMXLKM", "dateTime": 1520353020889}, {"current_trial": 125, "trialdata": {"rt": -1, "trial_type": "single-stim", "stimulus": "<p id=\"stim\">3</p>", "internal_node_id": "0.0-91.0-7.0", "time_elapsed": 703074, "key_press": -1, "trial_index": 125}, "uniqueid": "MTK3306:3MB8LZR5BG0JQQH22KV5DZR2RMXLKM", "dateTime": 1520353021895}, {"current_trial": 126, "trialdata": {"rt": -1, "trial_type": "single-stim", "stimulus": "<p id=\"stim\">2</p>", "internal_node_id": "0.0-91.0-8.0", "time_elapsed": 704076, "key_press": -1, "trial_index": 126}, "uniqueid": "MTK3306:3MB8LZR5BG0JQQH22KV5DZR2RMXLKM", "dateTime": 1520353022898}, {"current_trial": 127, "trialdata": {"rt": -1, "trial_type": "single-stim", "stimulus": "<p id=\"stim\">1</p>", "internal_node_id": "0.0-91.0-9.0", "time_elapsed": 705083, "key_press": -1, "trial_index": 127}, "uniqueid": "MTK3306:3MB8LZR5BG0JQQH22KV5DZR2RMXLKM", "dateTime": 1520353023904}, {"current_trial": 128, "trialdata": {"rt": -1, "trial_type": "single-stim", "stimulus": "<p id=\"stim\">+</p>", "internal_node_id": "0.0-92.0-0.0", "time_elapsed": 706586, "key_press": -1, "type": "FIXATION", "trial_index": 128}, "uniqueid": "MTK3306:3MB8LZR5BG0JQQH22KV5DZR2RMXLKM", "dateTime": 1520353025407}, {"current_trial": 129, "trialdata": {"rt": -1, "trial_type": "single-stim", "word": "hero", "stimulus": "<p id=\"stim\">HERO</p>", "conditions": [12, 1600, "v", 12000], "internal_node_id": "0.0-93.0", "trial": 3, "time_elapsed": 708191, "serialpos": 0, "key_press": -1, "wordID": 705, "type": "PRES_VIS", "trial_index": 129}, "uniqueid": "MTK3306:3MB8LZR5BG0JQQH22KV5DZR2RMXLKM", "dateTime": 1520353027013}, {"current_trial": 130, "trialdata": {"rt": -1, "trial_type": "single-stim", "word": "softball", "stimulus": "<p id=\"stim\">SOFTBALL</p>", "conditions": [12, 1600, "v", 12000], "internal_node_id": "0.0-94.0", "trial": 3, "time_elapsed": 710644, "serialpos": 1, "key_press": -1, "wordID": 1342, "type": "PRES_VIS", "trial_index": 130}, "uniqueid": "MTK3306:3MB8LZR5BG0JQQH22KV5DZR2RMXLKM", "dateTime": 1520353029465}, {"current_trial": 131, "trialdata": {"rt": -1, "trial_type": "single-stim", "word": "banquet", "stimulus": "<p id=\"stim\">BANQUET</p>", "conditions": [12, 1600, "v", 12000], "internal_node_id": "0.0-95.0", "trial": 3, "time_elapsed": 713240, "serialpos": 2, "key_press": -1, "wordID": 85, "type": "PRES_VIS", "trial_index": 131}, "uniqueid": "MTK3306:3MB8LZR5BG0JQQH22KV5DZR2RMXLKM", "dateTime": 1520353032061}, {"current_trial": 132, "trialdata": {"rt": -1, "trial_type": "single-stim", "word": "milk", "stimulus": "<p id=\"stim\">MILK</p>", "conditions": [12, 1600, "v", 12000], "internal_node_id": "0.0-96.0", "trial": 3, "time_elapsed": 715938, "serialpos": 3, "key_press": -1, "wordID": 894, "type": "PRES_VIS", "trial_index": 132}, "uniqueid": "MTK3306:3MB8LZR5BG0JQQH22KV5DZR2RMXLKM", "dateTime": 1520353034760}, {"current_trial": 133, "trialdata": {"rt": -1, "trial_type": "single-stim", "word": "student", "stimulus": "<p id=\"stim\">STUDENT</p>", "conditions": [12, 1600, "v", 12000], "internal_node_id": "0.0-97.0", "trial": 3, "time_elapsed": 718557, "serialpos": 4, "key_press": -1, "wordID": 1394, "type": "PRES_VIS", "trial_index": 133}, "uniqueid": "MTK3306:3MB8LZR5BG0JQQH22KV5DZR2RMXLKM", "dateTime": 1520353037378}, {"current_trial": 134, "trialdata": {"rt": -1, "trial_type": "single-stim", "word": "teacher", "stimulus": "<p id=\"stim\">TEACHER</p>", "conditions": [12, 1600, "v", 12000], "internal_node_id": "0.0-98.0", "trial": 3, "time_elapsed": 721198, "serialpos": 5, "key_press": -1, "wordID": 1439, "type": "PRES_VIS", "trial_index": 134}, "uniqueid": "MTK3306:3MB8LZR5BG0JQQH22KV5DZR2RMXLKM", "dateTime": 1520353040019}, {"current_trial": 135, "trialdata": {"rt": -1, "trial_type": "single-stim", "word": "world", "stimulus": "<p id=\"stim\">WORLD</p>", "conditions": [12, 1600, "v", 12000], "internal_node_id": "0.0-99.0", "trial": 3, "time_elapsed": 723902, "serialpos": 6, "key_press": -1, "wordID": 1621, "type": "PRES_VIS", "trial_index": 135}, "uniqueid": "MTK3306:3MB8LZR5BG0JQQH22KV5DZR2RMXLKM", "dateTime": 1520353042724}, {"current_trial": 136, "trialdata": {"rt": -1, "trial_type": "single-stim", "word": "shark", "stimulus": "<p id=\"stim\">SHARK</p>", "conditions": [12, 1600, "v", 12000], "internal_node_id": "0.0-100.0", "trial": 3, "time_elapsed": 726324, "serialpos": 7, "key_press": -1, "wordID": 1274, "type": "PRES_VIS", "trial_index": 136}, "uniqueid": "MTK3306:3MB8LZR5BG0JQQH22KV5DZR2RMXLKM", "dateTime": 1520353045146}, {"current_trial": 137, "trialdata": {"rt": -1, "trial_type": "single-stim", "word": "poison", "stimulus": "<p id=\"stim\">POISON</p>", "conditions": [12, 1600, "v", 12000], "internal_node_id": "0.0-101.0", "trial": 3, "time_elapsed": 729119, "serialpos": 8, "key_press": -1, "wordID": 1095, "type": "PRES_VIS", "trial_index": 137}, "uniqueid": "MTK3306:3MB8LZR5BG0JQQH22KV5DZR2RMXLKM", "dateTime": 1520353047940}, {"current_trial": 138, "trialdata": {"rt": -1, "trial_type": "single-stim", "word": "crayon", "stimulus": "<p id=\"stim\">CRAYON</p>", "conditions": [12, 1600, "v", 12000], "internal_node_id": "0.0-102.0", "trial": 3, "time_elapsed": 731742, "serialpos": 9, "key_press": -1, "wordID": 400, "type": "PRES_VIS", "trial_index": 138}, "uniqueid": "MTK3306:3MB8LZR5BG0JQQH22KV5DZR2RMXLKM", "dateTime": 1520353050563}, {"current_trial": 139, "trialdata": {"rt": -1, "trial_type": "single-stim", "word": "london", "stimulus": "<p id=\"stim\">LONDON</p>", "conditions": [12, 1600, "v", 12000], "internal_node_id": "0.0-103.0", "trial": 3, "time_elapsed": 734356, "serialpos": 10, "key_press": -1, "wordID": 842, "type": "PRES_VIS", "trial_index": 139}, "uniqueid": "MTK3306:3MB8LZR5BG0JQQH22KV5DZR2RMXLKM", "dateTime": 1520353053177}, {"current_trial": 140, "trialdata": {"rt": -1, "trial_type": "single-stim", "word": "globe", "stimulus": "<p id=\"stim\">GLOBE</p>", "conditions": [12, 1600, "v", 12000], "internal_node_id": "0.0-104.0", "trial": 3, "time_elapsed": 737149, "serialpos": 11, "key_press": -1, "wordID": 640, "type": "PRES_VIS", "trial_index": 140}, "uniqueid": "MTK3306:3MB8LZR5BG0JQQH22KV5DZR2RMXLKM", "dateTime": 1520353055970}, {"current_trial": 141, "trialdata": {"rt": -1, "trial_type": "single-stim", "stimulus": "", "internal_node_id": "0.0-105.0-0.0", "time_elapsed": 739606, "key_press": -1, "type": "PRE_RECALL_DELAY", "trial_index": 141}, "uniqueid": "MTK3306:3MB8LZR5BG0JQQH22KV5DZR2RMXLKM", "dateTime": 1520353058428}, {"current_trial": 142, "trialdata": {"rt": -1000, "trial_type": "single-audio", "stimulus": "/static/audio/400Hz.wav", "internal_node_id": "0.0-106.0", "time_elapsed": 740110, "key_press": -1, "type": "PRE_RECALL_ALERT", "trial_index": 142}, "uniqueid": "MTK3306:3MB8LZR5BG0JQQH22KV5DZR2RMXLKM", "dateTime": 1520353058931}, {"current_trial": 143, "trialdata": {"rt": [11045, 13874, 16778, 18911, 20854, 24678, 26083, 31652, 34337, 36813, 43803, 52804], "recwords": ["softball", "banquet", "milk", "student", "teacher", "world", "shark", "crayon", "london", "globe", "hero", "milk"], "key_times": [9540, 9616, 9780, 9990, 10231, 10347, 10488, 10664, 11045, 12236, 12329, 12469, 12716, 13033, 13121, 13308, 13513, 13648, 13874, 14910, 15018, 15248, 15478, 16778, 17485, 17596, 17731, 18165, 18369, 18439, 18592, 18911, 19946, 20045, 20248, 20418, 20516, 20624, 20685, 20854, 23728, 23860, 23978, 24142, 24259, 24678, 25328, 25384, 25538, 25617, 25804, 26083, 30607, 30805, 30936, 31033, 31221, 31412, 31652, 33103, 33260, 33337, 33484, 33606, 33977, 34337, 35978, 36076, 36290, 36500, 36651, 36813, 42943, 43022, 43073, 43171, 43803, 51672, 51792, 52089, 52221, 52804], "trial_type": "free-recall", "conditions": [12, 1600, "v", 12000], "internal_node_id": "0.0-107.0-0.0", "key_presses": [83, 79, 70, 84, 66, 65, 76, 76, 13, 66, 65, 78, 71, 8, 81, 85, 69, 84, 13, 77, 73, 76, 75, 13, 83, 84, 85, 68, 69, 78, 84, 13, 84, 69, 65, 67, 72, 69, 82, 13, 87, 79, 82, 76, 68, 13, 83, 72, 65, 82, 75, 13, 67, 82, 65, 89, 79, 78, 13, 76, 79, 78, 68, 79, 78, 13, 71, 76, 79, 66, 69, 13, 72, 69, 82, 79, 13, 77, 73, 76, 75, 13], "trial": 3, "time_elapsed": 800120, "type": "FREE_RECALL", "trial_index": 143}, "uniqueid": "MTK3306:3MB8LZR5BG0JQQH22KV5DZR2RMXLKM", "dateTime": 1520353118951}, {"current_trial": 144, "trialdata": {"rt": 43482, "trial_type": "text", "internal_node_id": "0.0-108.0", "time_elapsed": 845615, "key_press": 32, "type": "INSTRUCTIONS", "trial_index": 144}, "uniqueid": "MTK3306:3MB8LZR5BG0JQQH22KV5DZR2RMXLKM", "dateTime": 1520353164437}, {"current_trial": 145, "trialdata": {"rt": [2360, 5359, 7329, 11102, 14574, 19309, 21894], "trial_type": "math-distractor", "key_times": [1728, 2062, 2360, 4790, 5196, 5359, 6978, 7183, 7329, 10307, 10535, 11102, 13849, 14146, 14574, 17057, 17976, 18115, 18293, 18731, 18955, 19309, 21511, 21749, 21894], "responses": ["16", "16", "13", "17", "18", "20", "15"], "num2": [3, 9, 1, 8, 2, 8, 9, 9], "num3": [5, 2, 6, 5, 7, 6, 3, 8], "conditions": [24, 800, "v", 24000], "internal_node_id": "0.0-109.0", "key_presses": [49, 54, 13, 49, 54, 13, 49, 51, 13, 49, 55, 13, 49, 56, 13, 49, 8, 50, 57, 8, 48, 13, 49, 53, 13], "trial": 4, "time_elapsed": 871622, "type": "DISTRACTOR", "trial_index": 145, "num1": [8, 5, 6, 4, 9, 6, 3, 8]}, "uniqueid": "MTK3306:3MB8LZR5BG0JQQH22KV5DZR2RMXLKM", "dateTime": 1520353190443}, {"current_trial": 146, "trialdata": {"rt": -1, "trial_type": "single-stim", "stimulus": "<p id=\"stim\">10</p>", "internal_node_id": "0.0-110.0-0.0", "time_elapsed": 874628, "key_press": -1, "trial_index": 146}, "uniqueid": "MTK3306:3MB8LZR5BG0JQQH22KV5DZR2RMXLKM", "dateTime": 1520353193450}, {"current_trial": 147, "trialdata": {"rt": -1, "trial_type": "single-stim", "stimulus": "<p id=\"stim\">9</p>", "internal_node_id": "0.0-110.0-1.0", "time_elapsed": 875633, "key_press": -1, "trial_index": 147}, "uniqueid": "MTK3306:3MB8LZR5BG0JQQH22KV5DZR2RMXLKM", "dateTime": 1520353194454}, {"current_trial": 148, "trialdata": {"rt": -1, "trial_type": "single-stim", "stimulus": "<p id=\"stim\">8</p>", "internal_node_id": "0.0-110.0-2.0", "time_elapsed": 876637, "key_press": -1, "trial_index": 148}, "uniqueid": "MTK3306:3MB8LZR5BG0JQQH22KV5DZR2RMXLKM", "dateTime": 1520353195459}, {"current_trial": 149, "trialdata": {"rt": -1, "trial_type": "single-stim", "stimulus": "<p id=\"stim\">7</p>", "internal_node_id": "0.0-110.0-3.0", "time_elapsed": 877641, "key_press": -1, "trial_index": 149}, "uniqueid": "MTK3306:3MB8LZR5BG0JQQH22KV5DZR2RMXLKM", "dateTime": 1520353196462}, {"current_trial": 150, "trialdata": {"rt": -1, "trial_type": "single-stim", "stimulus": "<p id=\"stim\">6</p>", "internal_node_id": "0.0-110.0-4.0", "time_elapsed": 878646, "key_press": -1, "trial_index": 150}, "uniqueid": "MTK3306:3MB8LZR5BG0JQQH22KV5DZR2RMXLKM", "dateTime": 1520353197467}, {"current_trial": 151, "trialdata": {"rt": -1, "trial_type": "single-stim", "stimulus": "<p id=\"stim\">5</p>", "internal_node_id": "0.0-110.0-5.0", "time_elapsed": 879649, "key_press": -1, "trial_index": 151}, "uniqueid": "MTK3306:3MB8LZR5BG0JQQH22KV5DZR2RMXLKM", "dateTime": 1520353198471}, {"current_trial": 152, "trialdata": {"rt": -1, "trial_type": "single-stim", "stimulus": "<p id=\"stim\">4</p>", "internal_node_id": "0.0-110.0-6.0", "time_elapsed": 880653, "key_press": -1, "trial_index": 152}, "uniqueid": "MTK3306:3MB8LZR5BG0JQQH22KV5DZR2RMXLKM", "dateTime": 1520353199474}, {"current_trial": 153, "trialdata": {"rt": -1, "trial_type": "single-stim", "stimulus": "<p id=\"stim\">3</p>", "internal_node_id": "0.0-110.0-7.0", "time_elapsed": 881656, "key_press": -1, "trial_index": 153}, "uniqueid": "MTK3306:3MB8LZR5BG0JQQH22KV5DZR2RMXLKM", "dateTime": 1520353200477}, {"current_trial": 154, "trialdata": {"rt": -1, "trial_type": "single-stim", "stimulus": "<p id=\"stim\">2</p>", "internal_node_id": "0.0-110.0-8.0", "time_elapsed": 882662, "key_press": -1, "trial_index": 154}, "uniqueid": "MTK3306:3MB8LZR5BG0JQQH22KV5DZR2RMXLKM", "dateTime": 1520353201485}, {"current_trial": 155, "trialdata": {"rt": -1, "trial_type": "single-stim", "stimulus": "<p id=\"stim\">1</p>", "internal_node_id": "0.0-110.0-9.0", "time_elapsed": 883671, "key_press": -1, "trial_index": 155}, "uniqueid": "MTK3306:3MB8LZR5BG0JQQH22KV5DZR2RMXLKM", "dateTime": 1520353202492}, {"current_trial": 156, "trialdata": {"rt": -1, "trial_type": "single-stim", "stimulus": "<p id=\"stim\">+</p>", "internal_node_id": "0.0-111.0-0.0", "time_elapsed": 885175, "key_press": -1, "type": "FIXATION", "trial_index": 156}, "uniqueid": "MTK3306:3MB8LZR5BG0JQQH22KV5DZR2RMXLKM", "dateTime": 1520353203996}, {"current_trial": 157, "trialdata": {"rt": -1, "trial_type": "single-stim", "word": "peach", "stimulus": "<p id=\"stim\">PEACH</p>", "conditions": [24, 800, "v", 24000], "internal_node_id": "0.0-112.0", "trial": 4, "time_elapsed": 885977, "serialpos": 0, "key_press": -1, "wordID": 1030, "type": "PRES_VIS", "trial_index": 157}, "uniqueid": "MTK3306:3MB8LZR5BG0JQQH22KV5DZR2RMXLKM", "dateTime": 1520353204798}, {"current_trial": 158, "trialdata": {"rt": -1, "trial_type": "single-stim", "word": "grape", "stimulus": "<p id=\"stim\">GRAPE</p>", "conditions": [24, 800, "v", 24000], "internal_node_id": "0.0-113.0", "trial": 4, "time_elapsed": 887788, "serialpos": 1, "key_press": -1, "wordID": 653, "type": "PRES_VIS", "trial_index": 158}, "uniqueid": "MTK3306:3MB8LZR5BG0JQQH22KV5DZR2RMXLKM", "dateTime": 1520353206611}, {"current_trial": 159, "trialdata": {"rt": -1, "trial_type": "single-stim", "word": "shrub", "stimulus": "<p id=\"stim\">SHRUB</p>", "conditions": [24, 800, "v", 24000], "internal_node_id": "0.0-114.0", "trial": 4, "time_elapsed": 889678, "serialpos": 2, "key_press": -1, "wordID": 1298, "type": "PRES_VIS", "trial_index": 159}, "uniqueid": "MTK3306:3MB8LZR5BG0JQQH22KV5DZR2RMXLKM", "dateTime": 1520353208500}, {"current_trial": 160, "trialdata": {"rt": -1, "trial_type": "single-stim", "word": "grill", "stimulus": "<p id=\"stim\">GRILL</p>", "conditions": [24, 800, "v", 24000], "internal_node_id": "0.0-115.0", "trial": 4, "time_elapsed": 891518, "serialpos": 3, "key_press": -1, "wordID": 660, "type": "PRES_VIS", "trial_index": 160}, "uniqueid": "MTK3306:3MB8LZR5BG0JQQH22KV5DZR2RMXLKM", "dateTime": 1520353210340}, {"current_trial": 161, "trialdata": {"rt": -1, "trial_type": "single-stim", "word": "crown", "stimulus": "<p id=\"stim\">CROWN</p>", "conditions": [24, 800, "v", 24000], "internal_node_id": "0.0-116.0", "trial": 4, "time_elapsed": 893157, "serialpos": 4, "key_press": -1, "wordID": 414, "type": "PRES_VIS", "trial_index": 161}, "uniqueid": "MTK3306:3MB8LZR5BG0JQQH22KV5DZR2RMXLKM", "dateTime": 1520353211978}, {"current_trial": 162, "trialdata": {"rt": -1, "trial_type": "single-stim", "word": "parrot", "stimulus": "<p id=\"stim\">PARROT</p>", "conditions": [24, 800, "v", 24000], "internal_node_id": "0.0-117.0", "trial": 4, "time_elapsed": 895022, "serialpos": 5, "key_press": -1, "wordID": 1014, "type": "PRES_VIS", "trial_index": 162}, "uniqueid": "MTK3306:3MB8LZR5BG0JQQH22KV5DZR2RMXLKM", "dateTime": 1520353213843}, {"current_trial": 163, "trialdata": {"rt": -1, "trial_type": "single-stim", "word": "clothes", "stimulus": "<p id=\"stim\">CLOTHES</p>", "conditions": [24, 800, "v", 24000], "internal_node_id": "0.0-118.0", "trial": 4, "time_elapsed": 896713, "serialpos": 6, "key_press": -1, "wordID": 326, "type": "PRES_VIS", "trial_index": 163}, "uniqueid": "MTK3306:3MB8LZR5BG0JQQH22KV5DZR2RMXLKM", "dateTime": 1520353215534}, {"current_trial": 164, "trialdata": {"rt": -1, "trial_type": "single-stim", "word": "outlaw", "stimulus": "<p id=\"stim\">OUTLAW</p>", "conditions": [24, 800, "v", 24000], "internal_node_id": "0.0-119.0", "trial": 4, "time_elapsed": 898411, "serialpos": 7, "key_press": -1, "wordID": 988, "type": "PRES_VIS", "trial_index": 164}, "uniqueid": "MTK3306:3MB8LZR5BG0JQQH22KV5DZR2RMXLKM", "dateTime": 1520353217233}, {"current_trial": 165, "trialdata": {"rt": -1, "trial_type": "single-stim", "word": "cook", "stimulus": "<p id=\"stim\">COOK</p>", "conditions": [24, 800, "v", 24000], "internal_node_id": "0.0-120.0", "trial": 4, "time_elapsed": 900163, "serialpos": 8, "key_press": -1, "wordID": 371, "type": "PRES_VIS", "trial_index": 165}, "uniqueid": "MTK3306:3MB8LZR5BG0JQQH22KV5DZR2RMXLKM", "dateTime": 1520353218985}, {"current_trial": 166, "trialdata": {"rt": -1, "trial_type": "single-stim", "word": "lace", "stimulus": "<p id=\"stim\">LACE</p>", "conditions": [24, 800, "v", 24000], "internal_node_id": "0.0-121.0", "trial": 4, "time_elapsed": 901796, "serialpos": 9, "key_press": -1, "wordID": 791, "type": "PRES_VIS", "trial_index": 166}, "uniqueid": "MTK3306:3MB8LZR5BG0JQQH22KV5DZR2RMXLKM", "dateTime": 1520353220617}, {"current_trial": 167, "trialdata": {"rt": -1, "trial_type": "single-stim", "word": "bacon", "stimulus": "<p id=\"stim\">BACON</p>", "conditions": [24, 800, "v", 24000], "internal_node_id": "0.0-122.0", "trial": 4, "time_elapsed": 903674, "serialpos": 10, "key_press": -1, "wordID": 66, "type": "PRES_VIS", "trial_index": 167}, "uniqueid": "MTK3306:3MB8LZR5BG0JQQH22KV5DZR2RMXLKM", "dateTime": 1520353222495}, {"current_trial": 168, "trialdata": {"rt": -1, "trial_type": "single-stim", "word": "snack", "stimulus": "<p id=\"stim\">SNACK</p>", "conditions": [24, 800, "v", 24000], "internal_node_id": "0.0-123.0", "trial": 4, "time_elapsed": 905573, "serialpos": 11, "key_press": -1, "wordID": 1330, "type": "PRES_VIS", "trial_index": 168}, "uniqueid": "MTK3306:3MB8LZR5BG0JQQH22KV5DZR2RMXLKM", "dateTime": 1520353224394}, {"current_trial": 169, "trialdata": {"rt": -1, "trial_type": "single-stim", "word": "beaver", "stimulus": "<p id=\"stim\">BEAVER</p>", "conditions": [24, 800, "v", 24000], "internal_node_id": "0.0-124.0", "trial": 4, "time_elapsed": 907502, "serialpos": 12, "key_press": -1, "wordID": 108, "type": "PRES_VIS", "trial_index": 169}, "uniqueid": "MTK3306:3MB8LZR5BG0JQQH22KV5DZR2RMXLKM", "dateTime": 1520353226323}, {"current_trial": 170, "trialdata": {"rt": -1, "trial_type": "single-stim", "word": "pasta", "stimulus": "<p id=\"stim\">PASTA</p>", "conditions": [24, 800, "v", 24000], "internal_node_id": "0.0-125.0", "trial": 4, "time_elapsed": 909184, "serialpos": 13, "key_press": -1, "wordID": 1020, "type": "PRES_VIS", "trial_index": 170}, "uniqueid": "MTK3306:3MB8LZR5BG0JQQH22KV5DZR2RMXLKM", "dateTime": 1520353228005}, {"current_trial": 171, "trialdata": {"rt": -1, "trial_type": "single-stim", "word": "wardrobe", "stimulus": "<p id=\"stim\">WARDROBE</p>", "conditions": [24, 800, "v", 24000], "internal_node_id": "0.0-126.0", "trial": 4, "time_elapsed": 910892, "serialpos": 14, "key_press": -1, "wordID": 1586, "type": "PRES_VIS", "trial_index": 171}, "uniqueid": "MTK3306:3MB8LZR5BG0JQQH22KV5DZR2RMXLKM", "dateTime": 1520353229713}, {"current_trial": 172, "trialdata": {"rt": -1, "trial_type": "single-stim", "word": "leader", "stimulus": "<p id=\"stim\">LEADER</p>", "conditions": [24, 800, "v", 24000], "internal_node_id": "0.0-127.0", "trial": 4, "time_elapsed": 912616, "serialpos": 15, "key_press": -1, "wordID": 806, "type": "PRES_VIS", "trial_index": 172}, "uniqueid": "MTK3306:3MB8LZR5BG0JQQH22KV5DZR2RMXLKM", "dateTime": 1520353231437}, {"current_trial": 173, "trialdata": {"rt": -1, "trial_type": "single-stim", "word": "basement", "stimulus": "<p id=\"stim\">BASEMENT</p>", "conditions": [24, 800, "v", 24000], "internal_node_id": "0.0-128.0", "trial": 4, "time_elapsed": 914438, "serialpos": 16, "key_press": -1, "wordID": 93, "type": "PRES_VIS", "trial_index": 173}, "uniqueid": "MTK3306:3MB8LZR5BG0JQQH22KV5DZR2RMXLKM", "dateTime": 1520353233259}, {"current_trial": 174, "trialdata": {"rt": -1, "trial_type": "single-stim", "word": "kitchen", "stimulus": "<p id=\"stim\">KITCHEN</p>", "conditions": [24, 800, "v", 24000], "internal_node_id": "0.0-129.0", "trial": 4, "time_elapsed": 916217, "serialpos": 17, "key_press": -1, "wordID": 777, "type": "PRES_VIS", "trial_index": 174}, "uniqueid": "MTK3306:3MB8LZR5BG0JQQH22KV5DZR2RMXLKM", "dateTime": 1520353235038}, {"current_trial": 175, "trialdata": {"rt": -1, "trial_type": "single-stim", "word": "rabbit", "stimulus": "<p id=\"stim\">RABBIT</p>", "conditions": [24, 800, "v", 24000], "internal_node_id": "0.0-130.0", "trial": 4, "time_elapsed": 918159, "serialpos": 18, "key_press": -1, "wordID": 1151, "type": "PRES_VIS", "trial_index": 175}, "uniqueid": "MTK3306:3MB8LZR5BG0JQQH22KV5DZR2RMXLKM", "dateTime": 1520353236981}, {"current_trial": 176, "trialdata": {"rt": -1, "trial_type": "single-stim", "word": "neutron", "stimulus": "<p id=\"stim\">NEUTRON</p>", "conditions": [24, 800, "v", 24000], "internal_node_id": "0.0-131.0", "trial": 4, "time_elapsed": 920039, "serialpos": 19, "key_press": -1, "wordID": 946, "type": "PRES_VIS", "trial_index": 176}, "uniqueid": "MTK3306:3MB8LZR5BG0JQQH22KV5DZR2RMXLKM", "dateTime": 1520353238860}, {"current_trial": 177, "trialdata": {"rt": -1, "trial_type": "single-stim", "word": "tweezers", "stimulus": "<p id=\"stim\">TWEEZERS</p>", "conditions": [24, 800, "v", 24000], "internal_node_id": "0.0-132.0", "trial": 4, "time_elapsed": 921801, "serialpos": 20, "key_press": -1, "wordID": 1525, "type": "PRES_VIS", "trial_index": 177}, "uniqueid": "MTK3306:3MB8LZR5BG0JQQH22KV5DZR2RMXLKM", "dateTime": 1520353240622}, {"current_trial": 178, "trialdata": {"rt": -1, "trial_type": "single-stim", "word": "muffin", "stimulus": "<p id=\"stim\">MUFFIN</p>", "conditions": [24, 800, "v", 24000], "internal_node_id": "0.0-133.0", "trial": 4, "time_elapsed": 923449, "serialpos": 21, "key_press": -1, "wordID": 928, "type": "PRES_VIS", "trial_index": 178}, "uniqueid": "MTK3306:3MB8LZR5BG0JQQH22KV5DZR2RMXLKM", "dateTime": 1520353242270}, {"current_trial": 179, "trialdata": {"rt": -1, "trial_type": "single-stim", "word": "lava", "stimulus": "<p id=\"stim\">LAVA</p>", "conditions": [24, 800, "v", 24000], "internal_node_id": "0.0-134.0", "trial": 4, "time_elapsed": 925221, "serialpos": 22, "key_press": -1, "wordID": 803, "type": "PRES_VIS", "trial_index": 179}, "uniqueid": "MTK3306:3MB8LZR5BG0JQQH22KV5DZR2RMXLKM", "dateTime": 1520353244042}, {"current_trial": 180, "trialdata": {"rt": -1, "trial_type": "single-stim", "word": "hatchet", "stimulus": "<p id=\"stim\">HATCHET</p>", "conditions": [24, 800, "v", 24000], "internal_node_id": "0.0-135.0", "trial": 4, "time_elapsed": 926886, "serialpos": 23, "key_press": -1, "wordID": 690, "type": "PRES_VIS", "trial_index": 180}, "uniqueid": "MTK3306:3MB8LZR5BG0JQQH22KV5DZR2RMXLKM", "dateTime": 1520353245707}, {"current_trial": 181, "trialdata": {"rt": -1, "trial_type": "single-stim", "stimulus": "", "internal_node_id": "0.0-136.0-0.0", "time_elapsed": 929290, "key_press": -1, "type": "PRE_RECALL_DELAY", "trial_index": 181}, "uniqueid": "MTK3306:3MB8LZR5BG0JQQH22KV5DZR2RMXLKM", "dateTime": 1520353248111}, {"current_trial": 182, "trialdata": {"rt": -1000, "trial_type": "single-audio", "stimulus": "/static/audio/400Hz.wav", "internal_node_id": "0.0-137.0", "time_elapsed": 929795, "key_press": -1, "type": "PRE_RECALL_ALERT", "trial_index": 182}, "uniqueid": "MTK3306:3MB8LZR5BG0JQQH22KV5DZR2RMXLKM", "dateTime": 1520353248616}, {"current_trial": 183, "trialdata": {"rt": [8366, 10884, 12806, 17135, 19112, 21142, 21985, 23475, 25112, 27840, 29461, 31367, 33020, 34987, 36848, 38751, 41832, 43413, 46904, 54202, 55704, 59052], "recwords": ["grape", "grill", "crown", "clothes", "outlw", "outlaw", "cook", "bacon", "snack", "lava", "pasta", "wardrobe", "leader", "basement", "kitchen", "rabbit", "neutron", "muffin", "hatchet", "grape", "shrub", "grill"], "key_times": [7351, 7354, 7463, 7649, 7821, 8366, 10147, 10226, 10357, 10511, 10686, 10884, 11920, 12086, 12166, 12305, 12457, 12806, 15414, 15468, 15633, 15726, 15916, 16326, 16612, 16696, 16918, 17135, 17639, 17708, 17807, 18049, 18246, 18741, 18825, 19112, 20006, 20152, 20320, 20522, 20657, 21011, 21142, 21374, 21424, 21599, 21730, 21985, 22404, 22478, 22650, 22829, 23043, 23475, 24198, 24292, 24427, 24607, 24705, 25112, 26414, 26491, 26781, 27017, 27840, 28315, 28425, 28530, 28736, 28908, 29461, 29805, 29985, 30137, 30350, 30554, 30677, 30902, 31076, 31367, 31740, 31819, 32021, 32189, 32403, 32445, 33020, 33629, 33765, 33897, 34167, 34311, 34420, 34541, 34647, 34987, 35406, 35612, 35666, 36014, 36079, 36420, 36514, 36848, 37555, 37724, 38065, 38223, 38347, 38461, 38751, 39136, 39201, 40454, 40547, 40771, 40877, 41096, 41832, 42216, 42431, 42582, 42723, 42780, 42915, 43413, 45583, 45677, 45797, 46038, 46129, 46243, 46378, 46904, 52545, 52670, 53231, 53402, 53509, 54202, 54652, 54748, 54928, 55062, 55302, 55704, 58251, 58326, 58495, 58574, 58740, 59052, 59859, 59953], "trial_type": "free-recall", "conditions": [24, 800, "v", 24000], "internal_node_id": "0.0-138.0-0.0", "key_presses": [71, 82, 65, 80, 69, 13, 71, 82, 73, 76, 76, 13, 67, 82, 79, 87, 78, 13, 67, 76, 79, 84, 69, 8, 72, 69, 83, 13, 79, 85, 84, 76, 65, 8, 87, 13, 79, 85, 84, 76, 65, 87, 13, 67, 79, 79, 75, 13, 66, 65, 67, 79, 78, 13, 83, 78, 65, 67, 75, 13, 76, 65, 86, 65, 13, 80, 65, 83, 84, 65, 13, 87, 65, 82, 68, 82, 79, 66, 69, 13, 76, 69, 65, 68, 69, 82, 13, 66, 65, 83, 69, 77, 69, 78, 84, 13, 75, 73, 84, 67, 72, 69, 78, 13, 82, 65, 66, 66, 73, 84, 13, 78, 69, 85, 84, 82, 79, 78, 13, 77, 85, 70, 70, 73, 78, 13, 72, 65, 84, 67, 72, 69, 84, 13, 71, 82, 65, 80, 69, 13, 83, 72, 82, 85, 66, 13, 71, 82, 73, 76, 76, 13, 80, 65], "trial": 4, "time_elapsed": 989802, "type": "FREE_RECALL", "trial_index": 183}, "uniqueid": "MTK3306:3MB8LZR5BG0JQQH22KV5DZR2RMXLKM", "dateTime": 1520353308628}, {"current_trial": 184, "trialdata": {"rt": 18902, "trial_type": "text", "internal_node_id": "0.0-139.0", "time_elapsed": 1010713, "key_press": 32, "type": "INSTRUCTIONS", "trial_index": 184}, "uniqueid": "MTK3306:3MB8LZR5BG0JQQH22KV5DZR2RMXLKM", "dateTime": 1520353329534}, {"current_trial": 185, "trialdata": {"rt": [3393, 4881, 7572, 11667], "trial_type": "math-distractor", "key_times": [3142, 3393, 4730, 4881, 7046, 7170, 7572, 11311, 11410, 11667], "responses": ["9", "8", "19", "19"], "num2": [2, 1, 9, 5, 4], "num3": [4, 1, 9, 8, 6], "conditions": [12, 1600, "v", 12000], "internal_node_id": "0.0-140.0", "key_presses": [57, 13, 56, 13, 49, 57, 13, 49, 57, 13], "trial": 5, "time_elapsed": 1024722, "type": "DISTRACTOR", "trial_index": 185, "num1": [3, 6, 1, 6, 7]}, "uniqueid": "MTK3306:3MB8LZR5BG0JQQH22KV5DZR2RMXLKM", "dateTime": 1520353343543}, {"current_trial": 186, "trialdata": {"rt": -1, "trial_type": "single-stim", "stimulus": "<p id=\"stim\">10</p>", "internal_node_id": "0.0-141.0-0.0", "time_elapsed": 1027725, "key_press": -1, "trial_index": 186}, "uniqueid": "MTK3306:3MB8LZR5BG0JQQH22KV5DZR2RMXLKM", "dateTime": 1520353346546}, {"current_trial": 187, "trialdata": {"rt": -1, "trial_type": "single-stim", "stimulus": "<p id=\"stim\">9</p>", "internal_node_id": "0.0-141.0-1.0", "time_elapsed": 1028732, "key_press": -1, "trial_index": 187}, "uniqueid": "MTK3306:3MB8LZR5BG0JQQH22KV5DZR2RMXLKM", "dateTime": 1520353347554}, {"current_trial": 188, "trialdata": {"rt": -1, "trial_type": "single-stim", "stimulus": "<p id=\"stim\">8</p>", "internal_node_id": "0.0-141.0-2.0", "time_elapsed": 1029741, "key_press": -1, "trial_index": 188}, "uniqueid": "MTK3306:3MB8LZR5BG0JQQH22KV5DZR2RMXLKM", "dateTime": 1520353348563}, {"current_trial": 189, "trialdata": {"rt": -1, "trial_type": "single-stim", "stimulus": "<p id=\"stim\">7</p>", "internal_node_id": "0.0-141.0-3.0", "time_elapsed": 1030750, "key_press": -1, "trial_index": 189}, "uniqueid": "MTK3306:3MB8LZR5BG0JQQH22KV5DZR2RMXLKM", "dateTime": 1520353349572}, {"current_trial": 190, "trialdata": {"rt": -1, "trial_type": "single-stim", "stimulus": "<p id=\"stim\">6</p>", "internal_node_id": "0.0-141.0-4.0", "time_elapsed": 1031755, "key_press": -1, "trial_index": 190}, "uniqueid": "MTK3306:3MB8LZR5BG0JQQH22KV5DZR2RMXLKM", "dateTime": 1520353350577}, {"current_trial": 191, "trialdata": {"rt": -1, "trial_type": "single-stim", "stimulus": "<p id=\"stim\">5</p>", "internal_node_id": "0.0-141.0-5.0", "time_elapsed": 1032765, "key_press": -1, "trial_index": 191}, "uniqueid": "MTK3306:3MB8LZR5BG0JQQH22KV5DZR2RMXLKM", "dateTime": 1520353351586}, {"current_trial": 192, "trialdata": {"rt": -1, "trial_type": "single-stim", "stimulus": "<p id=\"stim\">4</p>", "internal_node_id": "0.0-141.0-6.0", "time_elapsed": 1033773, "key_press": -1, "trial_index": 192}, "uniqueid": "MTK3306:3MB8LZR5BG0JQQH22KV5DZR2RMXLKM", "dateTime": 1520353352594}, {"current_trial": 193, "trialdata": {"rt": -1, "trial_type": "single-stim", "stimulus": "<p id=\"stim\">3</p>", "internal_node_id": "0.0-141.0-7.0", "time_elapsed": 1034777, "key_press": -1, "trial_index": 193}, "uniqueid": "MTK3306:3MB8LZR5BG0JQQH22KV5DZR2RMXLKM", "dateTime": 1520353353598}, {"current_trial": 194, "trialdata": {"rt": -1, "trial_type": "single-stim", "stimulus": "<p id=\"stim\">2</p>", "internal_node_id": "0.0-141.0-8.0", "time_elapsed": 1035781, "key_press": -1, "trial_index": 194}, "uniqueid": "MTK3306:3MB8LZR5BG0JQQH22KV5DZR2RMXLKM", "dateTime": 1520353354603}, {"current_trial": 195, "trialdata": {"rt": -1, "trial_type": "single-stim", "stimulus": "<p id=\"stim\">1</p>", "internal_node_id": "0.0-141.0-9.0", "time_elapsed": 1036788, "key_press": -1, "trial_index": 195}, "uniqueid": "MTK3306:3MB8LZR5BG0JQQH22KV5DZR2RMXLKM", "dateTime": 1520353355609}, {"current_trial": 196, "trialdata": {"rt": -1, "trial_type": "single-stim", "stimulus": "<p id=\"stim\">+</p>", "internal_node_id": "0.0-142.0-0.0", "time_elapsed": 1038292, "key_press": -1, "type": "FIXATION", "trial_index": 196}, "uniqueid": "MTK3306:3MB8LZR5BG0JQQH22KV5DZR2RMXLKM", "dateTime": 1520353357113}, {"current_trial": 197, "trialdata": {"rt": -1, "trial_type": "single-stim", "word": "plaza", "stimulus": "<p id=\"stim\">PLAZA</p>", "conditions": [12, 1600, "v", 12000], "internal_node_id": "0.0-143.0", "trial": 5, "time_elapsed": 1039899, "serialpos": 0, "key_press": -1, "wordID": 1087, "type": "PRES_VIS", "trial_index": 197}, "uniqueid": "MTK3306:3MB8LZR5BG0JQQH22KV5DZR2RMXLKM", "dateTime": 1520353358720}, {"current_trial": 198, "trialdata": {"rt": -1, "trial_type": "single-stim", "word": "mammal", "stimulus": "<p id=\"stim\">MAMMAL</p>", "conditions": [12, 1600, "v", 12000], "internal_node_id": "0.0-144.0", "trial": 5, "time_elapsed": 1042679, "serialpos": 1, "key_press": -1, "wordID": 860, "type": "PRES_VIS", "trial_index": 198}, "uniqueid": "MTK3306:3MB8LZR5BG0JQQH22KV5DZR2RMXLKM", "dateTime": 1520353361501}, {"current_trial": 199, "trialdata": {"rt": -1, "trial_type": "single-stim", "word": "highway", "stimulus": "<p id=\"stim\">HIGHWAY</p>", "conditions": [12, 1600, "v", 12000], "internal_node_id": "0.0-145.0", "trial": 5, "time_elapsed": 1045242, "serialpos": 2, "key_press": -1, "wordID": 706, "type": "PRES_VIS", "trial_index": 199}, "uniqueid": "MTK3306:3MB8LZR5BG0JQQH22KV5DZR2RMXLKM", "dateTime": 1520353364064}, {"current_trial": 200, "trialdata": {"rt": -1, "trial_type": "single-stim", "word": "forehead", "stimulus": "<p id=\"stim\">FOREHEAD</p>", "conditions": [12, 1600, "v", 12000], "internal_node_id": "0.0-146.0", "trial": 5, "time_elapsed": 1047768, "serialpos": 3, "key_press": -1, "wordID": 591, "type": "PRES_VIS", "trial_index": 200}, "uniqueid": "MTK3306:3MB8LZR5BG0JQQH22KV5DZR2RMXLKM", "dateTime": 1520353366589}, {"current_trial": 201, "trialdata": {"rt": -1, "trial_type": "single-stim", "word": "friend", "stimulus": "<p id=\"stim\">FRIEND</p>", "conditions": [12, 1600, "v", 12000], "internal_node_id": "0.0-147.0", "trial": 5, "time_elapsed": 1050481, "serialpos": 4, "key_press": -1, "wordID": 605, "type": "PRES_VIS", "trial_index": 201}, "uniqueid": "MTK3306:3MB8LZR5BG0JQQH22KV5DZR2RMXLKM", "dateTime": 1520353369303}, {"current_trial": 202, "trialdata": {"rt": -1, "trial_type": "single-stim", "word": "orchid", "stimulus": "<p id=\"stim\">ORCHID</p>", "conditions": [12, 1600, "v", 12000], "internal_node_id": "0.0-148.0", "trial": 5, "time_elapsed": 1053082, "serialpos": 5, "key_press": -1, "wordID": 981, "type": "PRES_VIS", "trial_index": 202}, "uniqueid": "MTK3306:3MB8LZR5BG0JQQH22KV5DZR2RMXLKM", "dateTime": 1520353371903}, {"current_trial": 203, "trialdata": {"rt": -1, "trial_type": "single-stim", "word": "ozone", "stimulus": "<p id=\"stim\">OZONE</p>", "conditions": [12, 1600, "v", 12000], "internal_node_id": "0.0-149.0", "trial": 5, "time_elapsed": 1055695, "serialpos": 6, "key_press": -1, "wordID": 995, "type": "PRES_VIS", "trial_index": 203}, "uniqueid": "MTK3306:3MB8LZR5BG0JQQH22KV5DZR2RMXLKM", "dateTime": 1520353374516}, {"current_trial": 204, "trialdata": {"rt": -1, "trial_type": "single-stim", "word": "smog", "stimulus": "<p id=\"stim\">SMOG</p>", "conditions": [12, 1600, "v", 12000], "internal_node_id": "0.0-150.0", "trial": 5, "time_elapsed": 1058464, "serialpos": 7, "key_press": -1, "wordID": 1329, "type": "PRES_VIS", "trial_index": 204}, "uniqueid": "MTK3306:3MB8LZR5BG0JQQH22KV5DZR2RMXLKM", "dateTime": 1520353377285}, {"current_trial": 205, "trialdata": {"rt": -1, "trial_type": "single-stim", "word": "primate", "stimulus": "<p id=\"stim\">PRIMATE</p>", "conditions": [12, 1600, "v", 12000], "internal_node_id": "0.0-151.0", "trial": 5, "time_elapsed": 1060915, "serialpos": 8, "key_press": -1, "wordID": 1122, "type": "PRES_VIS", "trial_index": 205}, "uniqueid": "MTK3306:3MB8LZR5BG0JQQH22KV5DZR2RMXLKM", "dateTime": 1520353379737}, {"current_trial": 206, "trialdata": {"rt": -1, "trial_type": "single-stim", "word": "bucket", "stimulus": "<p id=\"stim\">BUCKET</p>", "conditions": [12, 1600, "v", 12000], "internal_node_id": "0.0-152.0", "trial": 5, "time_elapsed": 1063367, "serialpos": 9, "key_press": -1, "wordID": 183, "type": "PRES_VIS", "trial_index": 206}, "uniqueid": "MTK3306:3MB8LZR5BG0JQQH22KV5DZR2RMXLKM", "dateTime": 1520353382189}, {"current_trial": 207, "trialdata": {"rt": -1, "trial_type": "single-stim", "word": "creature", "stimulus": "<p id=\"stim\">CREATURE</p>", "conditions": [12, 1600, "v", 12000], "internal_node_id": "0.0-153.0", "trial": 5, "time_elapsed": 1065941, "serialpos": 10, "key_press": -1, "wordID": 402, "type": "PRES_VIS", "trial_index": 207}, "uniqueid": "MTK3306:3MB8LZR5BG0JQQH22KV5DZR2RMXLKM", "dateTime": 1520353384762}, {"current_trial": 208, "trialdata": {"rt": -1, "trial_type": "single-stim", "word": "picnic", "stimulus": "<p id=\"stim\">PICNIC</p>", "conditions": [12, 1600, "v", 12000], "internal_node_id": "0.0-154.0", "trial": 5, "time_elapsed": 1068455, "serialpos": 11, "key_press": -1, "wordID": 1059, "type": "PRES_VIS", "trial_index": 208}, "uniqueid": "MTK3306:3MB8LZR5BG0JQQH22KV5DZR2RMXLKM", "dateTime": 1520353387276}, {"current_trial": 209, "trialdata": {"rt": -1, "trial_type": "single-stim", "stimulus": "", "internal_node_id": "0.0-155.0-0.0", "time_elapsed": 1070982, "key_press": -1, "type": "PRE_RECALL_DELAY", "trial_index": 209}, "uniqueid": "MTK3306:3MB8LZR5BG0JQQH22KV5DZR2RMXLKM", "dateTime": 1520353389804}, {"current_trial": 210, "trialdata": {"rt": -1000, "trial_type": "single-audio", "stimulus": "/static/audio/400Hz.wav", "internal_node_id": "0.0-156.0", "time_elapsed": 1071486, "key_press": -1, "type": "PRE_RECALL_ALERT", "trial_index": 210}, "uniqueid": "MTK3306:3MB8LZR5BG0JQQH22KV5DZR2RMXLKM", "dateTime": 1520353390307}, {"current_trial": 211, "trialdata": {"rt": [17606, 21389, 24084, 26110, 29373, 31628, 33921, 36804, 42243, 44228, 45832, 55765], "recwords": ["plaza", "highway", "forehead", "friend", "orchid", "ozone", "smog", "primate", "creature", "bucket", "picinic", "mammal"], "key_times": [15439, 15522, 15704, 16275, 16913, 17105, 17426, 17606, 18170, 18379, 18879, 19311, 20292, 20408, 20454, 20601, 20747, 20923, 21060, 21389, 22905, 23004, 23101, 23181, 23422, 23506, 23707, 23854, 24084, 25326, 25498, 25581, 25662, 25809, 25875, 26110, 27982, 28079, 28285, 28383, 28477, 29016, 29373, 30516, 30651, 30966, 31191, 31442, 31628, 33371, 33450, 33540, 33719, 33921, 35772, 35848, 36027, 36259, 36333, 36455, 36553, 36804, 40751, 40975, 41054, 41223, 41338, 41538, 41621, 41946, 42243, 43217, 43292, 43434, 43850, 43943, 44054, 44228, 44531, 44690, 44936, 45070, 45348, 45476, 45582, 45832, 54793, 54896, 55035, 55211, 55404, 55496, 55765], "trial_type": "free-recall", "conditions": [12, 1600, "v", 12000], "internal_node_id": "0.0-157.0-0.0", "key_presses": [80, 76, 65, 88, 8, 90, 65, 13, 77, 65, 8, 8, 72, 73, 71, 72, 87, 65, 89, 13, 70, 79, 82, 69, 72, 69, 65, 68, 13, 70, 82, 73, 69, 78, 68, 13, 79, 82, 67, 72, 73, 68, 13, 79, 90, 79, 78, 69, 13, 83, 77, 79, 71, 13, 80, 82, 73, 77, 65, 84, 69, 13, 67, 82, 69, 65, 84, 85, 82, 69, 13, 66, 85, 67, 75, 69, 84, 13, 80, 73, 67, 73, 78, 73, 67, 13, 77, 65, 77, 77, 65, 76, 13], "trial": 5, "time_elapsed": 1131506, "type": "FREE_RECALL", "trial_index": 211}, "uniqueid": "MTK3306:3MB8LZR5BG0JQQH22KV5DZR2RMXLKM", "dateTime": 1520353450349}, {"current_trial": 212, "trialdata": {"rt": 9276, "trial_type": "text", "internal_node_id": "0.0-158.0", "time_elapsed": 1142808, "key_press": 32, "type": "INSTRUCTIONS", "trial_index": 212}, "uniqueid": "MTK3306:3MB8LZR5BG0JQQH22KV5DZR2RMXLKM", "dateTime": 1520353461630}, {"current_trial": 213, "trialdata": {"rt": [5265, 7867, 12127, 19114, 22692], "trial_type": "math-distractor", "key_times": [4870, 5049, 5265, 7306, 7576, 7867, 11211, 11540, 12127, 18688, 18916, 19114, 21938, 22308, 22428, 22491, 22692], "responses": ["21", "18", "15", "23", "12"], "num2": [9, 7, 7, 9, 7, 7], "num3": [4, 3, 2, 5, 4, 8], "conditions": [24, 800, "v", 24000], "internal_node_id": "0.0-159.0", "key_presses": [50, 49, 13, 49, 56, 13, 49, 53, 13, 50, 51, 13, 50, 8, 49, 50, 13], "trial": 6, "time_elapsed": 1168820, "type": "DISTRACTOR", "trial_index": 213, "num1": [8, 8, 6, 8, 1, 1]}, "uniqueid": "MTK3306:3MB8LZR5BG0JQQH22KV5DZR2RMXLKM", "dateTime": 1520353487641}, {"current_trial": 214, "trialdata": {"rt": -1, "trial_type": "single-stim", "stimulus": "<p id=\"stim\">10</p>", "internal_node_id": "0.0-160.0-0.0", "time_elapsed": 1171827, "key_press": -1, "trial_index": 214}, "uniqueid": "MTK3306:3MB8LZR5BG0JQQH22KV5DZR2RMXLKM", "dateTime": 1520353490649}, {"current_trial": 215, "trialdata": {"rt": -1, "trial_type": "single-stim", "stimulus": "<p id=\"stim\">9</p>", "internal_node_id": "0.0-160.0-1.0", "time_elapsed": 1172833, "key_press": -1, "trial_index": 215}, "uniqueid": "MTK3306:3MB8LZR5BG0JQQH22KV5DZR2RMXLKM", "dateTime": 1520353491654}, {"current_trial": 216, "trialdata": {"rt": -1, "trial_type": "single-stim", "stimulus": "<p id=\"stim\">8</p>", "internal_node_id": "0.0-160.0-2.0", "time_elapsed": 1173837, "key_press": -1, "trial_index": 216}, "uniqueid": "MTK3306:3MB8LZR5BG0JQQH22KV5DZR2RMXLKM", "dateTime": 1520353492658}, {"current_trial": 217, "trialdata": {"rt": -1, "trial_type": "single-stim", "stimulus": "<p id=\"stim\">7</p>", "internal_node_id": "0.0-160.0-3.0", "time_elapsed": 1174842, "key_press": -1, "trial_index": 217}, "uniqueid": "MTK3306:3MB8LZR5BG0JQQH22KV5DZR2RMXLKM", "dateTime": 1520353493663}, {"current_trial": 218, "trialdata": {"rt": -1, "trial_type": "single-stim", "stimulus": "<p id=\"stim\">6</p>", "internal_node_id": "0.0-160.0-4.0", "time_elapsed": 1175847, "key_press": -1, "trial_index": 218}, "uniqueid": "MTK3306:3MB8LZR5BG0JQQH22KV5DZR2RMXLKM", "dateTime": 1520353494668}, {"current_trial": 219, "trialdata": {"rt": -1, "trial_type": "single-stim", "stimulus": "<p id=\"stim\">5</p>", "internal_node_id": "0.0-160.0-5.0", "time_elapsed": 1176850, "key_press": -1, "trial_index": 219}, "uniqueid": "MTK3306:3MB8LZR5BG0JQQH22KV5DZR2RMXLKM", "dateTime": 1520353495672}, {"current_trial": 220, "trialdata": {"rt": -1, "trial_type": "single-stim", "stimulus": "<p id=\"stim\">4</p>", "internal_node_id": "0.0-160.0-6.0", "time_elapsed": 1177854, "key_press": -1, "trial_index": 220}, "uniqueid": "MTK3306:3MB8LZR5BG0JQQH22KV5DZR2RMXLKM", "dateTime": 1520353496675}, {"current_trial": 221, "trialdata": {"rt": -1, "trial_type": "single-stim", "stimulus": "<p id=\"stim\">3</p>", "internal_node_id": "0.0-160.0-7.0", "time_elapsed": 1178861, "key_press": -1, "trial_index": 221}, "uniqueid": "MTK3306:3MB8LZR5BG0JQQH22KV5DZR2RMXLKM", "dateTime": 1520353497682}, {"current_trial": 222, "trialdata": {"rt": -1, "trial_type": "single-stim", "stimulus": "<p id=\"stim\">2</p>", "internal_node_id": "0.0-160.0-8.0", "time_elapsed": 1179867, "key_press": -1, "trial_index": 222}, "uniqueid": "MTK3306:3MB8LZR5BG0JQQH22KV5DZR2RMXLKM", "dateTime": 1520353498688}, {"current_trial": 223, "trialdata": {"rt": -1, "trial_type": "single-stim", "stimulus": "<p id=\"stim\">1</p>", "internal_node_id": "0.0-160.0-9.0", "time_elapsed": 1180873, "key_press": -1, "trial_index": 223}, "uniqueid": "MTK3306:3MB8LZR5BG0JQQH22KV5DZR2RMXLKM", "dateTime": 1520353499694}, {"current_trial": 224, "trialdata": {"rt": -1, "trial_type": "single-stim", "stimulus": "<p id=\"stim\">+</p>", "internal_node_id": "0.0-161.0-0.0", "time_elapsed": 1182384, "key_press": -1, "type": "FIXATION", "trial_index": 224}, "uniqueid": "MTK3306:3MB8LZR5BG0JQQH22KV5DZR2RMXLKM", "dateTime": 1520353501205}, {"current_trial": 225, "trialdata": {"rt": -1, "trial_type": "single-stim", "word": "asia", "stimulus": "<p id=\"stim\">ASIA</p>", "conditions": [24, 800, "v", 24000], "internal_node_id": "0.0-162.0", "trial": 6, "time_elapsed": 1183189, "serialpos": 0, "key_press": -1, "wordID": 45, "type": "PRES_VIS", "trial_index": 225}, "uniqueid": "MTK3306:3MB8LZR5BG0JQQH22KV5DZR2RMXLKM", "dateTime": 1520353502011}, {"current_trial": 226, "trialdata": {"rt": -1, "trial_type": "single-stim", "word": "lizard", "stimulus": "<p id=\"stim\">LIZARD</p>", "conditions": [24, 800, "v", 24000], "internal_node_id": "0.0-163.0", "trial": 6, "time_elapsed": 1185044, "serialpos": 1, "key_press": -1, "wordID": 833, "type": "PRES_VIS", "trial_index": 226}, "uniqueid": "MTK3306:3MB8LZR5BG0JQQH22KV5DZR2RMXLKM", "dateTime": 1520353503866}, {"current_trial": 227, "trialdata": {"rt": -1, "trial_type": "single-stim", "word": "penguin", "stimulus": "<p id=\"stim\">PENGUIN</p>", "conditions": [24, 800, "v", 24000], "internal_node_id": "0.0-164.0", "trial": 6, "time_elapsed": 1187020, "serialpos": 2, "key_press": -1, "wordID": 1043, "type": "PRES_VIS", "trial_index": 227}, "uniqueid": "MTK3306:3MB8LZR5BG0JQQH22KV5DZR2RMXLKM", "dateTime": 1520353505841}, {"current_trial": 228, "trialdata": {"rt": -1, "trial_type": "single-stim", "word": "church", "stimulus": "<p id=\"stim\">CHURCH</p>", "conditions": [24, 800, "v", 24000], "internal_node_id": "0.0-165.0", "trial": 6, "time_elapsed": 1188930, "serialpos": 3, "key_press": -1, "wordID": 306, "type": "PRES_VIS", "trial_index": 228}, "uniqueid": "MTK3306:3MB8LZR5BG0JQQH22KV5DZR2RMXLKM", "dateTime": 1520353507751}, {"current_trial": 229, "trialdata": {"rt": -1, "trial_type": "single-stim", "word": "sausage", "stimulus": "<p id=\"stim\">SAUSAGE</p>", "conditions": [24, 800, "v", 24000], "internal_node_id": "0.0-166.0", "trial": 6, "time_elapsed": 1190712, "serialpos": 4, "key_press": -1, "wordID": 1237, "type": "PRES_VIS", "trial_index": 229}, "uniqueid": "MTK3306:3MB8LZR5BG0JQQH22KV5DZR2RMXLKM", "dateTime": 1520353509534}, {"current_trial": 230, "trialdata": {"rt": -1, "trial_type": "single-stim", "word": "scarecrow", "stimulus": "<p id=\"stim\">SCARECROW</p>", "conditions": [24, 800, "v", 24000], "internal_node_id": "0.0-167.0", "trial": 6, "time_elapsed": 1192330, "serialpos": 5, "key_press": -1, "wordID": 1244, "type": "PRES_VIS", "trial_index": 230}, "uniqueid": "MTK3306:3MB8LZR5BG0JQQH22KV5DZR2RMXLKM", "dateTime": 1520353511151}, {"current_trial": 231, "trialdata": {"rt": -1, "trial_type": "single-stim", "word": "blender", "stimulus": "<p id=\"stim\">BLENDER</p>", "conditions": [24, 800, "v", 24000], "internal_node_id": "0.0-168.0", "trial": 6, "time_elapsed": 1194330, "serialpos": 6, "key_press": -1, "wordID": 135, "type": "PRES_VIS", "trial_index": 231}, "uniqueid": "MTK3306:3MB8LZR5BG0JQQH22KV5DZR2RMXLKM", "dateTime": 1520353513152}, {"current_trial": 232, "trialdata": {"rt": -1, "trial_type": "single-stim", "word": "convict", "stimulus": "<p id=\"stim\">CONVICT</p>", "conditions": [24, 800, "v", 24000], "internal_node_id": "0.0-169.0", "trial": 6, "time_elapsed": 1196005, "serialpos": 7, "key_press": -1, "wordID": 370, "type": "PRES_VIS", "trial_index": 232}, "uniqueid": "MTK3306:3MB8LZR5BG0JQQH22KV5DZR2RMXLKM", "dateTime": 1520353514827}, {"current_trial": 233, "trialdata": {"rt": -1, "trial_type": "single-stim", "word": "gymnast", "stimulus": "<p id=\"stim\">GYMNAST</p>", "conditions": [24, 800, "v", 24000], "internal_node_id": "0.0-170.0", "trial": 6, "time_elapsed": 1197925, "serialpos": 8, "key_press": -1, "wordID": 674, "type": "PRES_VIS", "trial_index": 233}, "uniqueid": "MTK3306:3MB8LZR5BG0JQQH22KV5DZR2RMXLKM", "dateTime": 1520353516746}, {"current_trial": 234, "trialdata": {"rt": -1, "trial_type": "single-stim", "word": "mailman", "stimulus": "<p id=\"stim\">MAILMAN</p>", "conditions": [24, 800, "v", 24000], "internal_node_id": "0.0-171.0", "trial": 6, "time_elapsed": 1199856, "serialpos": 9, "key_press": -1, "wordID": 857, "type": "PRES_VIS", "trial_index": 234}, "uniqueid": "MTK3306:3MB8LZR5BG0JQQH22KV5DZR2RMXLKM", "dateTime": 1520353518677}, {"current_trial": 235, "trialdata": {"rt": -1, "trial_type": "single-stim", "word": "japan", "stimulus": "<p id=\"stim\">JAPAN</p>", "conditions": [24, 800, "v", 24000], "internal_node_id": "0.0-172.0", "trial": 6, "time_elapsed": 1201548, "serialpos": 10, "key_press": -1, "wordID": 748, "type": "PRES_VIS", "trial_index": 235}, "uniqueid": "MTK3306:3MB8LZR5BG0JQQH22KV5DZR2RMXLKM", "dateTime": 1520353520369}, {"current_trial": 236, "trialdata": {"rt": -1, "trial_type": "single-stim", "word": "scotch", "stimulus": "<p id=\"stim\">SCOTCH</p>", "conditions": [24, 800, "v", 24000], "internal_node_id": "0.0-173.0", "trial": 6, "time_elapsed": 1203318, "serialpos": 11, "key_press": -1, "wordID": 1250, "type": "PRES_VIS", "trial_index": 236}, "uniqueid": "MTK3306:3MB8LZR5BG0JQQH22KV5DZR2RMXLKM", "dateTime": 1520353522139}, {"current_trial": 237, "trialdata": {"rt": -1, "trial_type": "single-stim", "word": "girl", "stimulus": "<p id=\"stim\">GIRL</p>", "conditions": [24, 800, "v", 24000], "internal_node_id": "0.0-174.0", "trial": 6, "time_elapsed": 1205014, "serialpos": 12, "key_press": -1, "wordID": 636, "type": "PRES_VIS", "trial_index": 237}, "uniqueid": "MTK3306:3MB8LZR5BG0JQQH22KV5DZR2RMXLKM", "dateTime": 1520353523835}, {"current_trial": 238, "trialdata": {"rt": -1, "trial_type": "single-stim", "word": "seagull", "stimulus": "<p id=\"stim\">SEAGULL</p>", "conditions": [24, 800, "v", 24000], "internal_node_id": "0.0-175.0", "trial": 6, "time_elapsed": 1206728, "serialpos": 13, "key_press": -1, "wordID": 1260, "type": "PRES_VIS", "trial_index": 238}, "uniqueid": "MTK3306:3MB8LZR5BG0JQQH22KV5DZR2RMXLKM", "dateTime": 1520353525550}, {"current_trial": 239, "trialdata": {"rt": -1, "trial_type": "single-stim", "word": "swimmer", "stimulus": "<p id=\"stim\">SWIMMER</p>", "conditions": [24, 800, "v", 24000], "internal_node_id": "0.0-176.0", "trial": 6, "time_elapsed": 1208473, "serialpos": 14, "key_press": -1, "wordID": 1419, "type": "PRES_VIS", "trial_index": 239}, "uniqueid": "MTK3306:3MB8LZR5BG0JQQH22KV5DZR2RMXLKM", "dateTime": 1520353527294}, {"current_trial": 240, "trialdata": {"rt": -1, "trial_type": "single-stim", "word": "pork", "stimulus": "<p id=\"stim\">PORK</p>", "conditions": [24, 800, "v", 24000], "internal_node_id": "0.0-177.0", "trial": 6, "time_elapsed": 1210155, "serialpos": 15, "key_press": -1, "wordID": 1107, "type": "PRES_VIS", "trial_index": 240}, "uniqueid": "MTK3306:3MB8LZR5BG0JQQH22KV5DZR2RMXLKM", "dateTime": 1520353528976}, {"current_trial": 241, "trialdata": {"rt": -1, "trial_type": "single-stim", "word": "sister", "stimulus": "<p id=\"stim\">SISTER</p>", "conditions": [24, 800, "v", 24000], "internal_node_id": "0.0-178.0", "trial": 6, "time_elapsed": 1211999, "serialpos": 16, "key_press": -1, "wordID": 1311, "type": "PRES_VIS", "trial_index": 241}, "uniqueid": "MTK3306:3MB8LZR5BG0JQQH22KV5DZR2RMXLKM", "dateTime": 1520353530820}, {"current_trial": 242, "trialdata": {"rt": -1, "trial_type": "single-stim", "word": "stone", "stimulus": "<p id=\"stim\">STONE</p>", "conditions": [24, 800, "v", 24000], "internal_node_id": "0.0-179.0", "trial": 6, "time_elapsed": 121367