{"assignmentId": "3LOTDFNYA86OLY1N5NBA6XGDHACWF6", "workerId": "MTK3523", "questiondata": {"origin": "United States", "strat-rehearsal": "34", "marital": "Single", "education": "High school diploma", "ethnicity": "Not Hispanic", "color_depth": 24, "distracted": "No", "wrote-notes": "No", "strat-other": "", "screen_width": 1366, "avail_screen_width": 1366, "avail_screen_height": 738, "strat-image": "20", "language": "English", "gender": "Male", "age": "28", "gender_other": "", "race": ["White"], "strat-categorize": "48", "pixel_depth": 24, "strat-spatial": "0", "strat-story": "10", "race_other": "", "screen_height": 768}, "bonus": 0, "hitId": "3M67TQBQQHVGQR9DBUAOPS1R1KC9A0", "counterbalance": 551, "useragent": "Mozilla/5.0 (Windows NT 10.0; Win64; x64) AppleWebKit/537.36 (KHTML, like Gecko) Chrome/65.0.3325.106 Safari/537.36", "eventdata": [{"eventtype": "initialized", "interval": 0, "value": null, "timestamp": 1520631659705}, {"eventtype": "window_resize", "interval": 0, "value": [1366, 687], "timestamp": 1520631659705}, {"eventtype": "focus", "interval": 6123, "value": "off", "timestamp": 1520631665828}, {"eventtype": "focus", "interval": 9814, "value": "on", "timestamp": 1520631675642}, {"eventtype": "focus", "interval": 74320, "value": "off", "timestamp": 1520631749962}, {"eventtype": "focus", "interval": 4828, "value": "on", "timestamp": 1520631754790}, {"eventtype": "focus", "interval": 728595, "value": "off", "timestamp": 1520632483385}, {"eventtype": "focus", "interval": 8835, "value": "on", "timestamp": 1520632492220}, {"eventtype": "focus", "interval": 2873393, "value": "off", "timestamp": 1520635365613}, {"eventtype": "focus", "interval": 2713, "value": "on", "timestamp": 1520635368326}, {"eventtype": "focus", "interval": 8739, "value": "off", "timestamp": 1520635377065}, {"eventtype": "focus", "interval": 926, "value": "on", "timestamp": 1520635377991}], "data": [{"current_trial": 0, "trialdata": {"rt": 67451, "trial_type": "text", "internal_node_id": "0.0-0.0", "time_elapsed": 67457, "key_press": 32, "type": "INSTRUCTIONS", "trial_index": 0}, "uniqueid": "MTK3523:3LOTDFNYA86OLY1N5NBA6XGDHACWF6", "dateTime": 1520631728539}, {"current_trial": 1, "trialdata": {"rt": 839472, "trial_type": "text", "internal_node_id": "0.0-1.0", "time_elapsed": 906937, "key_press": 32, "type": "INSTRUCTIONS", "trial_index": 1}, "uniqueid": "MTK3523:3LOTDFNYA86OLY1N5NBA6XGDHACWF6", "dateTime": 1520632568018}, {"current_trial": 2, "trialdata": {"rt": [18054], "trial_type": "audio-test", "responses": ["ocean"], "internal_node_id": "0.0-2.0", "time_elapsed": 925064, "type": "AUDIO_TEST", "trial_index": 2}, "uniqueid": "MTK3523:3LOTDFNYA86OLY1N5NBA6XGDHACWF6", "dateTime": 1520632586146}, {"current_trial": 3, "trialdata": {"rt": [4340], "trial_type": "audio-test", "responses": ["crystal"], "internal_node_id": "0.0-3.0", "time_elapsed": 929416, "type": "AUDIO_TEST", "trial_index": 3}, "uniqueid": "MTK3523:3LOTDFNYA86OLY1N5NBA6XGDHACWF6", "dateTime": 1520632590497}, {"current_trial": 4, "trialdata": {"rt": [3781], "trial_type": "audio-test", "responses": ["spice"], "internal_node_id": "0.0-4.0", "time_elapsed": 933207, "type": "AUDIO_TEST", "trial_index": 4}, "uniqueid": "MTK3523:3LOTDFNYA86OLY1N5NBA6XGDHACWF6", "dateTime": 1520632594289}, {"current_trial": 5, "trialdata": {"rt": 25505, "trial_type": "survey-text", "responses": "{\"Q0\":\"2 AM\",\"Q1\":\"2 PM\",\"Q2\":\"4\"}", "internal_node_id": "0.0-5.0", "time_elapsed": 959475, "type": "SLEEP_SURVEY", "trial_index": 5}, "uniqueid": "MTK3523:3LOTDFNYA86OLY1N5NBA6XGDHACWF6", "dateTime": 1520632620556}, {"current_trial": 6, "trialdata": {"rt": 35103, "trial_type": "text", "internal_node_id": "0.0-6.0", "time_elapsed": 995583, "key_press": 32, "type": "INSTRUCTIONS", "trial_index": 6}, "uniqueid": "MTK3523:3LOTDFNYA86OLY1N5NBA6XGDHACWF6", "dateTime": 1520632656665}, {"current_trial": 7, "trialdata": {"rt": 20255, "trial_type": "text", "internal_node_id": "0.0-7.0", "time_elapsed": 1016342, "key_press": 32, "type": "INSTRUCTIONS", "trial_index": 7}, "uniqueid": "MTK3523:3LOTDFNYA86OLY1N5NBA6XGDHACWF6", "dateTime": 1520632677423}, {"current_trial": 8, "trialdata": {"rt": 51415, "trial_type": "text", "internal_node_id": "0.0-8.0", "time_elapsed": 1068264, "key_press": 32, "type": "INSTRUCTIONS", "trial_index": 8}, "uniqueid": "MTK3523:3LOTDFNYA86OLY1N5NBA6XGDHACWF6", "dateTime": 1520632729345}, {"current_trial": 9, "trialdata": {"rt": [2946, 8235, 10130, 13106, 15170, 17170], "trial_type": "math-distractor", "key_times": [1739, 2740, 2946, 7645, 7781, 8235, 9738, 9874, 10130, 12746, 12875, 13106, 14812, 14986, 15170, 16853, 16996, 17170], "responses": ["13", "20", "11", "22", "17", "14"], "num2": [3, 7, 2, 6, 9, 2, 2], "num3": [5, 5, 1, 9, 1, 8, 9], "conditions": [18, 1200, "v", 18000], "internal_node_id": "0.0-9.0", "key_presses": [97, 99, 13, 98, 96, 13, 97, 97, 13, 98, 98, 13, 97, 103, 13, 97, 100, 13], "trial": 0, "time_elapsed": 1087279, "type": "DISTRACTOR", "trial_index": 9, "num1": [5, 8, 8, 7, 7, 4, 7]}, "uniqueid": "MTK3523:3LOTDFNYA86OLY1N5NBA6XGDHACWF6", "dateTime": 1520632748360}, {"current_trial": 10, "trialdata": {"rt": -1, "trial_type": "single-stim", "stimulus": "<p id=\"stim\">10</p>", "internal_node_id": "0.0-10.0-0.0", "time_elapsed": 1090293, "key_press": -1, "trial_index": 10}, "uniqueid": "MTK3523:3LOTDFNYA86OLY1N5NBA6XGDHACWF6", "dateTime": 1520632751374}, {"current_trial": 11, "trialdata": {"rt": -1, "trial_type": "single-stim", "stimulus": "<p id=\"stim\">9</p>", "internal_node_id": "0.0-10.0-1.0", "time_elapsed": 1091299, "key_press": -1, "trial_index": 11}, "uniqueid": "MTK3523:3LOTDFNYA86OLY1N5NBA6XGDHACWF6", "dateTime": 1520632752380}, {"current_trial": 12, "trialdata": {"rt": -1, "trial_type": "single-stim", "stimulus": "<p id=\"stim\">8</p>", "internal_node_id": "0.0-10.0-2.0", "time_elapsed": 1092302, "key_press": -1, "trial_index": 12}, "uniqueid": "MTK3523:3LOTDFNYA86OLY1N5NBA6XGDHACWF6", "dateTime": 1520632753383}, {"current_trial": 13, "trialdata": {"rt": -1, "trial_type": "single-stim", "stimulus": "<p id=\"stim\">7</p>", "internal_node_id": "0.0-10.0-3.0", "time_elapsed": 1093305, "key_press": -1, "trial_index": 13}, "uniqueid": "MTK3523:3LOTDFNYA86OLY1N5NBA6XGDHACWF6", "dateTime": 1520632754386}, {"current_trial": 14, "trialdata": {"rt": -1, "trial_type": "single-stim", "stimulus": "<p id=\"stim\">6</p>", "internal_node_id": "0.0-10.0-4.0", "time_elapsed": 1094310, "key_press": -1, "trial_index": 14}, "uniqueid": "MTK3523:3LOTDFNYA86OLY1N5NBA6XGDHACWF6", "dateTime": 1520632755391}, {"current_trial": 15, "trialdata": {"rt": -1, "trial_type": "single-stim", "stimulus": "<p id=\"stim\">5</p>", "internal_node_id": "0.0-10.0-5.0", "time_elapsed": 1095312, "key_press": -1, "trial_index": 15}, "uniqueid": "MTK3523:3LOTDFNYA86OLY1N5NBA6XGDHACWF6", "dateTime": 1520632756394}, {"current_trial": 16, "trialdata": {"rt": -1, "trial_type": "single-stim", "stimulus": "<p id=\"stim\">4</p>", "internal_node_id": "0.0-10.0-6.0", "time_elapsed": 1096317, "key_press": -1, "trial_index": 16}, "uniqueid": "MTK3523:3LOTDFNYA86OLY1N5NBA6XGDHACWF6", "dateTime": 1520632757398}, {"current_trial": 17, "trialdata": {"rt": -1, "trial_type": "single-stim", "stimulus": "<p id=\"stim\">3</p>", "internal_node_id": "0.0-10.0-7.0", "time_elapsed": 1097321, "key_press": -1, "trial_index": 17}, "uniqueid": "MTK3523:3LOTDFNYA86OLY1N5NBA6XGDHACWF6", "dateTime": 1520632758404}, {"current_trial": 18, "trialdata": {"rt": -1, "trial_type": "single-stim", "stimulus": "<p id=\"stim\">2</p>", "internal_node_id": "0.0-10.0-8.0", "time_elapsed": 1098325, "key_press": -1, "trial_index": 18}, "uniqueid": "MTK3523:3LOTDFNYA86OLY1N5NBA6XGDHACWF6", "dateTime": 1520632759406}, {"current_trial": 19, "trialdata": {"rt": -1, "trial_type": "single-stim", "stimulus": "<p id=\"stim\">1</p>", "internal_node_id": "0.0-10.0-9.0", "time_elapsed": 1099326, "key_press": -1, "trial_index": 19}, "uniqueid": "MTK3523:3LOTDFNYA86OLY1N5NBA6XGDHACWF6", "dateTime": 1520632760408}, {"current_trial": 20, "trialdata": {"rt": -1, "trial_type": "single-stim", "stimulus": "<p id=\"stim\">+</p>", "internal_node_id": "0.0-11.0-0.0", "time_elapsed": 1100829, "key_press": -1, "type": "FIXATION", "trial_index": 20}, "uniqueid": "MTK3523:3LOTDFNYA86OLY1N5NBA6XGDHACWF6", "dateTime": 1520632761911}, {"current_trial": 21, "trialdata": {"rt": -1, "trial_type": "single-stim", "word": "lace", "stimulus": "<p id=\"stim\">LACE</p>", "conditions": [18, 1200, "v", 18000], "internal_node_id": "0.0-12.0", "trial": 0, "time_elapsed": 1102034, "serialpos": 0, "key_press": -1, "wordID": 791, "type": "PRES_VIS", "trial_index": 21}, "uniqueid": "MTK3523:3LOTDFNYA86OLY1N5NBA6XGDHACWF6", "dateTime": 1520632763115}, {"current_trial": 22, "trialdata": {"rt": -1, "trial_type": "single-stim", "word": "kidney", "stimulus": "<p id=\"stim\">KIDNEY</p>", "conditions": [18, 1200, "v", 18000], "internal_node_id": "0.0-13.0", "trial": 0, "time_elapsed": 1104093, "serialpos": 1, "key_press": -1, "wordID": 775, "type": "PRES_VIS", "trial_index": 22}, "uniqueid": "MTK3523:3LOTDFNYA86OLY1N5NBA6XGDHACWF6", "dateTime": 1520632765174}, {"current_trial": 23, "trialdata": {"rt": -1, "trial_type": "single-stim", "word": "marker", "stimulus": "<p id=\"stim\">MARKER</p>", "conditions": [18, 1200, "v", 18000], "internal_node_id": "0.0-14.0", "trial": 0, "time_elapsed": 1106207, "serialpos": 2, "key_press": -1, "wordID": 869, "type": "PRES_VIS", "trial_index": 23}, "uniqueid": "MTK3523:3LOTDFNYA86OLY1N5NBA6XGDHACWF6", "dateTime": 1520632767288}, {"current_trial": 24, "trialdata": {"rt": -1, "trial_type": "single-stim", "word": "gavel", "stimulus": "<p id=\"stim\">GAVEL</p>", "conditions": [18, 1200, "v", 18000], "internal_node_id": "0.0-15.0", "trial": 0, "time_elapsed": 1108467, "serialpos": 3, "key_press": -1, "wordID": 626, "type": "PRES_VIS", "trial_index": 24}, "uniqueid": "MTK3523:3LOTDFNYA86OLY1N5NBA6XGDHACWF6", "dateTime": 1520632769548}, {"current_trial": 25, "trialdata": {"rt": -1, "trial_type": "single-stim", "word": "peanut", "stimulus": "<p id=\"stim\">PEANUT</p>", "conditions": [18, 1200, "v", 18000], "internal_node_id": "0.0-16.0", "trial": 0, "time_elapsed": 1110546, "serialpos": 4, "key_press": -1, "wordID": 1031, "type": "PRES_VIS", "trial_index": 25}, "uniqueid": "MTK3523:3LOTDFNYA86OLY1N5NBA6XGDHACWF6", "dateTime": 1520632771627}, {"current_trial": 26, "trialdata": {"rt": -1, "trial_type": "single-stim", "word": "shelf", "stimulus": "<p id=\"stim\">SHELF</p>", "conditions": [18, 1200, "v", 18000], "internal_node_id": "0.0-17.0", "trial": 0, "time_elapsed": 1112732, "serialpos": 5, "key_press": -1, "wordID": 1279, "type": "PRES_VIS", "trial_index": 26}, "uniqueid": "MTK3523:3LOTDFNYA86OLY1N5NBA6XGDHACWF6", "dateTime": 1520632773814}, {"current_trial": 27, "trialdata": {"rt": -1, "trial_type": "single-stim", "word": "kleenex", "stimulus": "<p id=\"stim\">KLEENEX</p>", "conditions": [18, 1200, "v", 18000], "internal_node_id": "0.0-18.0", "trial": 0, "time_elapsed": 1115093, "serialpos": 6, "key_press": -1, "wordID": 781, "type": "PRES_VIS", "trial_index": 27}, "uniqueid": "MTK3523:3LOTDFNYA86OLY1N5NBA6XGDHACWF6", "dateTime": 1520632776174}, {"current_trial": 28, "trialdata": {"rt": -1, "trial_type": "single-stim", "word": "canal", "stimulus": "<p id=\"stim\">CANAL</p>", "conditions": [18, 1200, "v", 18000], "internal_node_id": "0.0-19.0", "trial": 0, "time_elapsed": 1117453, "serialpos": 7, "key_press": -1, "wordID": 225, "type": "PRES_VIS", "trial_index": 28}, "uniqueid": "MTK3523:3LOTDFNYA86OLY1N5NBA6XGDHACWF6", "dateTime": 1520632778535}, {"current_trial": 29, "trialdata": {"rt": -1, "trial_type": "single-stim", "word": "glove", "stimulus": "<p id=\"stim\">GLOVE</p>", "conditions": [18, 1200, "v", 18000], "internal_node_id": "0.0-20.0", "trial": 0, "time_elapsed": 1119818, "serialpos": 8, "key_press": -1, "wordID": 641, "type": "PRES_VIS", "trial_index": 29}, "uniqueid": "MTK3523:3LOTDFNYA86OLY1N5NBA6XGDHACWF6", "dateTime": 1520632780900}, {"current_trial": 30, "trialdata": {"rt": -1, "trial_type": "single-stim", "word": "dashboard", "stimulus": "<p id=\"stim\">DASHBOARD</p>", "conditions": [18, 1200, "v", 18000], "internal_node_id": "0.0-21.0", "trial": 0, "time_elapsed": 1122058, "serialpos": 9, "key_press": -1, "wordID": 440, "type": "PRES_VIS", "trial_index": 30}, "uniqueid": "MTK3523:3LOTDFNYA86OLY1N5NBA6XGDHACWF6", "dateTime": 1520632783143}, {"current_trial": 31, "trialdata": {"rt": -1, "trial_type": "single-stim", "word": "mop", "stimulus": "<p id=\"stim\">MOP</p>", "conditions": [18, 1200, "v", 18000], "internal_node_id": "0.0-22.0", "trial": 0, "time_elapsed": 1124321, "serialpos": 10, "key_press": -1, "wordID": 915, "type": "PRES_VIS", "trial_index": 31}, "uniqueid": "MTK3523:3LOTDFNYA86OLY1N5NBA6XGDHACWF6", "dateTime": 1520632785402}, {"current_trial": 32, "trialdata": {"rt": -1, "trial_type": "single-stim", "word": "asia", "stimulus": "<p id=\"stim\">ASIA</p>", "conditions": [18, 1200, "v", 18000], "internal_node_id": "0.0-23.0", "trial": 0, "time_elapsed": 1126418, "serialpos": 11, "key_press": -1, "wordID": 45, "type": "PRES_VIS", "trial_index": 32}, "uniqueid": "MTK3523:3LOTDFNYA86OLY1N5NBA6XGDHACWF6", "dateTime": 1520632787499}, {"current_trial": 33, "trialdata": {"rt": -1, "trial_type": "single-stim", "word": "coin", "stimulus": "<p id=\"stim\">COIN</p>", "conditions": [18, 1200, "v", 18000], "internal_node_id": "0.0-24.0", "trial": 0, "time_elapsed": 1128587, "serialpos": 12, "key_press": -1, "wordID": 342, "type": "PRES_VIS", "trial_index": 33}, "uniqueid": "MTK3523:3LOTDFNYA86OLY1N5NBA6XGDHACWF6", "dateTime": 1520632789669}, {"current_trial": 34, "trialdata": {"rt": -1, "trial_type": "single-stim", "word": "bacon", "stimulus": "<p id=\"stim\">BACON</p>", "conditions": [18, 1200, "v", 18000], "internal_node_id": "0.0-25.0", "trial": 0, "time_elapsed": 1130885, "serialpos": 13, "key_press": -1, "wordID": 66, "type": "PRES_VIS", "trial_index": 34}, "uniqueid": "MTK3523:3LOTDFNYA86OLY1N5NBA6XGDHACWF6", "dateTime": 1520632791966}, {"current_trial": 35, "trialdata": {"rt": -1, "trial_type": "single-stim", "word": "motor", "stimulus": "<p id=\"stim\">MOTOR</p>", "conditions": [18, 1200, "v", 18000], "internal_node_id": "0.0-26.0", "trial": 0, "time_elapsed": 1133068, "serialpos": 14, "key_press": -1, "wordID": 921, "type": "PRES_VIS", "trial_index": 35}, "uniqueid": "MTK3523:3LOTDFNYA86OLY1N5NBA6XGDHACWF6", "dateTime": 1520632794149}, {"current_trial": 36, "trialdata": {"rt": -1, "trial_type": "single-stim", "word": "umpire", "stimulus": "<p id=\"stim\">UMPIRE</p>", "conditions": [18, 1200, "v", 18000], "internal_node_id": "0.0-27.0", "trial": 0, "time_elapsed": 1135449, "serialpos": 15, "key_press": -1, "wordID": 1534, "type": "PRES_VIS", "trial_index": 36}, "uniqueid": "MTK3523:3LOTDFNYA86OLY1N5NBA6XGDHACWF6", "dateTime": 1520632796530}, {"current_trial": 37, "trialdata": {"rt": -1, "trial_type": "single-stim", "word": "statue", "stimulus": "<p id=\"stim\">STATUE</p>", "conditions": [18, 1200, "v", 18000], "internal_node_id": "0.0-28.0", "trial": 0, "time_elapsed": 1137607, "serialpos": 16, "key_press": -1, "wordID": 1373, "type": "PRES_VIS", "trial_index": 37}, "uniqueid": "MTK3523:3LOTDFNYA86OLY1N5NBA6XGDHACWF6", "dateTime": 1520632798688}, {"current_trial": 38, "trialdata": {"rt": -1, "trial_type": "single-stim", "word": "sticker", "stimulus": "<p id=\"stim\">STICKER</p>", "conditions": [18, 1200, "v", 18000], "internal_node_id": "0.0-29.0", "trial": 0, "time_elapsed": 1139932, "serialpos": 17, "key_press": -1, "wordID": 1381, "type": "PRES_VIS", "trial_index": 38}, "uniqueid": "MTK3523:3LOTDFNYA86OLY1N5NBA6XGDHACWF6", "dateTime": 1520632801013}, {"current_trial": 39, "trialdata": {"rt": -1, "trial_type": "single-stim", "stimulus": "", "internal_node_id": "0.0-30.0-0.0", "time_elapsed": 1141970, "key_press": -1, "type": "PRE_RECALL_DELAY", "trial_index": 39}, "uniqueid": "MTK3523:3LOTDFNYA86OLY1N5NBA6XGDHACWF6", "dateTime": 1520632803052}, {"current_trial": 40, "trialdata": {"rt": -1000, "trial_type": "single-audio", "stimulus": "/static/audio/400Hz.wav", "internal_node_id": "0.0-31.0", "time_elapsed": 1142496, "key_press": -1, "type": "PRE_RECALL_ALERT", "trial_index": 40}, "uniqueid": "MTK3523:3LOTDFNYA86OLY1N5NBA6XGDHACWF6", "dateTime": 1520632803577}, {"current_trial": 41, "trialdata": {"rt": [3401, 5674, 7570, 9266, 10969, 14482, 31810], "recwords": ["lace", "sticker", "mop", "gavel", "kidney", "kleenex", ""], "key_times": [2404, 2521, 2667, 2909, 3121, 3401, 3841, 4341, 4374, 4407, 4440, 4451, 4590, 5185, 5305, 5386, 5491, 5530, 5674, 6362, 6861, 6894, 6922, 7122, 7283, 7570, 8275, 8458, 8593, 8786, 8913, 9033, 9266, 9570, 10163, 10324, 10381, 10538, 10578, 10754, 10969, 13531, 13699, 13753, 13889, 14041, 14138, 14324, 14482, 31810], "trial_type": "free-recall", "conditions": [18, 1200, "v", 18000], "internal_node_id": "0.0-32.0-0.0", "key_presses": [16, 76, 65, 67, 69, 13, 16, 16, 16, 16, 16, 83, 84, 73, 67, 75, 69, 82, 13, 16, 16, 16, 77, 79, 80, 13, 16, 71, 65, 86, 69, 76, 13, 16, 75, 73, 68, 78, 69, 89, 13, 75, 76, 69, 69, 78, 69, 88, 13, 13], "trial": 0, "time_elapsed": 1202504, "type": "FREE_RECALL", "trial_index": 41}, "uniqueid": "MTK3523:3LOTDFNYA86OLY1N5NBA6XGDHACWF6", "dateTime": 1520632863589}, {"current_trial": 42, "trialdata": {"rt": 63317, "trial_type": "text", "internal_node_id": "0.0-33.0", "time_elapsed": 1267829, "key_press": 32, "type": "INSTRUCTIONS", "trial_index": 42}, "uniqueid": "MTK3523:3LOTDFNYA86OLY1N5NBA6XGDHACWF6", "dateTime": 1520632928910}, {"current_trial": 43, "trialdata": {"rt": [3055, 5238, 7871, 9559, 11607, 13895, 16392], "trial_type": "math-distractor", "key_times": [2716, 2791, 3055, 4823, 4985, 5238, 7505, 7672, 7871, 9331, 9559, 11279, 11418, 11607, 13391, 13657, 13895, 16007, 16175, 16392, 17762, 17928], "responses": ["16", "19", "17", "5", "17", "13", "10"], "num2": [7, 8, 4, 1, 9, 6, 6, 2], "num3": [1, 3, 6, 3, 2, 2, 3, 7], "conditions": [18, 1200, "v", 18000], "internal_node_id": "0.0-34.0", "key_presses": [97, 102, 13, 97, 105, 13, 97, 103, 13, 101, 13, 97, 103, 13, 97, 99, 13, 97, 96, 13, 97, 103], "trial": 1, "time_elapsed": 1287844, "type": "DISTRACTOR", "trial_index": 43, "num1": [8, 8, 7, 1, 6, 5, 1, 8]}, "uniqueid": "MTK3523:3LOTDFNYA86OLY1N5NBA6XGDHACWF6", "dateTime": 1520632948925}, {"current_trial": 44, "trialdata": {"rt": -1, "trial_type": "single-stim", "stimulus": "<p id=\"stim\">10</p>", "internal_node_id": "0.0-35.0-0.0", "time_elapsed": 1290851, "key_press": -1, "trial_index": 44}, "uniqueid": "MTK3523:3LOTDFNYA86OLY1N5NBA6XGDHACWF6", "dateTime": 1520632951933}, {"current_trial": 45, "trialdata": {"rt": -1, "trial_type": "single-stim", "stimulus": "<p id=\"stim\">9</p>", "internal_node_id": "0.0-35.0-1.0", "time_elapsed": 1291855, "key_press": -1, "trial_index": 45}, "uniqueid": "MTK3523:3LOTDFNYA86OLY1N5NBA6XGDHACWF6", "dateTime": 1520632952936}, {"current_trial": 46, "trialdata": {"rt": -1, "trial_type": "single-stim", "stimulus": "<p id=\"stim\">8</p>", "internal_node_id": "0.0-35.0-2.0", "time_elapsed": 1292858, "key_press": -1, "trial_index": 46}, "uniqueid": "MTK3523:3LOTDFNYA86OLY1N5NBA6XGDHACWF6", "dateTime": 1520632953939}, {"current_trial": 47, "trialdata": {"rt": -1, "trial_type": "single-stim", "stimulus": "<p id=\"stim\">7</p>", "internal_node_id": "0.0-35.0-3.0", "time_elapsed": 1293862, "key_press": -1, "trial_index": 47}, "uniqueid": "MTK3523:3LOTDFNYA86OLY1N5NBA6XGDHACWF6", "dateTime": 1520632954943}, {"current_trial": 48, "trialdata": {"rt": -1, "trial_type": "single-stim", "stimulus": "<p id=\"stim\">6</p>", "internal_node_id": "0.0-35.0-4.0", "time_elapsed": 1294865, "key_press": -1, "trial_index": 48}, "uniqueid": "MTK3523:3LOTDFNYA86OLY1N5NBA6XGDHACWF6", "dateTime": 1520632955947}, {"current_trial": 49, "trialdata": {"rt": -1, "trial_type": "single-stim", "stimulus": "<p id=\"stim\">5</p>", "internal_node_id": "0.0-35.0-5.0", "time_elapsed": 1295871, "key_press": -1, "trial_index": 49}, "uniqueid": "MTK3523:3LOTDFNYA86OLY1N5NBA6XGDHACWF6", "dateTime": 1520632956952}, {"current_trial": 50, "trialdata": {"rt": -1, "trial_type": "single-stim", "stimulus": "<p id=\"stim\">4</p>", "internal_node_id": "0.0-35.0-6.0", "time_elapsed": 1296876, "key_press": -1, "trial_index": 50}, "uniqueid": "MTK3523:3LOTDFNYA86OLY1N5NBA6XGDHACWF6", "dateTime": 1520632957957}, {"current_trial": 51, "trialdata": {"rt": -1, "trial_type": "single-stim", "stimulus": "<p id=\"stim\">3</p>", "internal_node_id": "0.0-35.0-7.0", "time_elapsed": 1297881, "key_press": -1, "trial_index": 51}, "uniqueid": "MTK3523:3LOTDFNYA86OLY1N5NBA6XGDHACWF6", "dateTime": 1520632958962}, {"current_trial": 52, "trialdata": {"rt": -1, "trial_type": "single-stim", "stimulus": "<p id=\"stim\">2</p>", "internal_node_id": "0.0-35.0-8.0", "time_elapsed": 1298887, "key_press": -1, "trial_index": 52}, "uniqueid": "MTK3523:3LOTDFNYA86OLY1N5NBA6XGDHACWF6", "dateTime": 1520632959968}, {"current_trial": 53, "trialdata": {"rt": -1, "trial_type": "single-stim", "stimulus": "<p id=\"stim\">1</p>", "internal_node_id": "0.0-35.0-9.0", "time_elapsed": 1299891, "key_press": -1, "trial_index": 53}, "uniqueid": "MTK3523:3LOTDFNYA86OLY1N5NBA6XGDHACWF6", "dateTime": 1520632960973}, {"current_trial": 54, "trialdata": {"rt": -1, "trial_type": "single-stim", "stimulus": "<p id=\"stim\">+</p>", "internal_node_id": "0.0-36.0-0.0", "time_elapsed": 1301398, "key_press": -1, "type": "FIXATION", "trial_index": 54}, "uniqueid": "MTK3523:3LOTDFNYA86OLY1N5NBA6XGDHACWF6", "dateTime": 1520632962479}, {"current_trial": 55, "trialdata": {"rt": -1, "trial_type": "single-stim", "word": "lagoon", "stimulus": "<p id=\"stim\">LAGOON</p>", "conditions": [18, 1200, "v", 18000], "internal_node_id": "0.0-37.0", "trial": 1, "time_elapsed": 1302603, "serialpos": 0, "key_press": -1, "wordID": 794, "type": "PRES_VIS", "trial_index": 55}, "uniqueid": "MTK3523:3LOTDFNYA86OLY1N5NBA6XGDHACWF6", "dateTime": 1520632963684}, {"current_trial": 56, "trialdata": {"rt": -1, "trial_type": "single-stim", "word": "beef", "stimulus": "<p id=\"stim\">BEEF</p>", "conditions": [18, 1200, "v", 18000], "internal_node_id": "0.0-38.0", "trial": 1, "time_elapsed": 1304866, "serialpos": 1, "key_press": -1, "wordID": 112, "type": "PRES_VIS", "trial_index": 56}, "uniqueid": "MTK3523:3LOTDFNYA86OLY1N5NBA6XGDHACWF6", "dateTime": 1520632965948}, {"current_trial": 57, "trialdata": {"rt": -1, "trial_type": "single-stim", "word": "pocket", "stimulus": "<p id=\"stim\">POCKET</p>", "conditions": [18, 1200, "v", 18000], "internal_node_id": "0.0-39.0", "trial": 1, "time_elapsed": 1307226, "serialpos": 2, "key_press": -1, "wordID": 1092, "type": "PRES_VIS", "trial_index": 57}, "uniqueid": "MTK3523:3LOTDFNYA86OLY1N5NBA6XGDHACWF6", "dateTime": 1520632968308}, {"current_trial": 58, "trialdata": {"rt": -1, "trial_type": "single-stim", "word": "fox", "stimulus": "<p id=\"stim\">FOX</p>", "conditions": [18, 1200, "v", 18000], "internal_node_id": "0.0-40.0", "trial": 1, "time_elapsed": 1309378, "serialpos": 3, "key_press": -1, "wordID": 597, "type": "PRES_VIS", "trial_index": 58}, "uniqueid": "MTK3523:3LOTDFNYA86OLY1N5NBA6XGDHACWF6", "dateTime": 1520632970459}, {"current_trial": 59, "trialdata": {"rt": -1, "trial_type": "single-stim", "word": "poet", "stimulus": "<p id=\"stim\">POET</p>", "conditions": [18, 1200, "v", 18000], "internal_node_id": "0.0-41.0", "trial": 1, "time_elapsed": 1311416, "serialpos": 4, "key_press": -1, "wordID": 1094, "type": "PRES_VIS", "trial_index": 59}, "uniqueid": "MTK3523:3LOTDFNYA86OLY1N5NBA6XGDHACWF6", "dateTime": 1520632972498}, {"current_trial": 60, "trialdata": {"rt": -1, "trial_type": "single-stim", "word": "canyon", "stimulus": "<p id=\"stim\">CANYON</p>", "conditions": [18, 1200, "v", 18000], "internal_node_id": "0.0-42.0", "trial": 1, "time_elapsed": 1313615, "serialpos": 5, "key_press": -1, "wordID": 234, "type": "PRES_VIS", "trial_index": 60}, "uniqueid": "MTK3523:3LOTDFNYA86OLY1N5NBA6XGDHACWF6", "dateTime": 1520632974697}, {"current_trial": 61, "trialdata": {"rt": -1, "trial_type": "single-stim", "word": "robber", "stimulus": "<p id=\"stim\">ROBBER</p>", "conditions": [18, 1200, "v", 18000], "internal_node_id": "0.0-43.0", "trial": 1, "time_elapsed": 1315872, "serialpos": 6, "key_press": -1, "wordID": 1196, "type": "PRES_VIS", "trial_index": 61}, "uniqueid": "MTK3523:3LOTDFNYA86OLY1N5NBA6XGDHACWF6", "dateTime": 1520632976953}, {"current_trial": 62, "trialdata": {"rt": -1, "trial_type": "single-stim", "word": "dustpan", "stimulus": "<p id=\"stim\">DUSTPAN</p>", "conditions": [18, 1200, "v", 18000], "internal_node_id": "0.0-44.0", "trial": 1, "time_elapsed": 1318089, "serialpos": 7, "key_press": -1, "wordID": 508, "type": "PRES_VIS", "trial_index": 62}, "uniqueid": "MTK3523:3LOTDFNYA86OLY1N5NBA6XGDHACWF6", "dateTime": 1520632979170}, {"current_trial": 63, "trialdata": {"rt": -1, "trial_type": "single-stim", "word": "headband", "stimulus": "<p id=\"stim\">HEADBAND</p>", "conditions": [18, 1200, "v", 18000], "internal_node_id": "0.0-45.0", "trial": 1, "time_elapsed": 1320294, "serialpos": 8, "key_press": -1, "wordID": 695, "type": "PRES_VIS", "trial_index": 63}, "uniqueid": "MTK3523:3LOTDFNYA86OLY1N5NBA6XGDHACWF6", "dateTime": 1520632981376}, {"current_trial": 64, "trialdata": {"rt": -1, "trial_type": "single-stim", "word": "popcorn", "stimulus": "<p id=\"stim\">POPCORN</p>", "conditions": [18, 1200, "v", 18000], "internal_node_id": "0.0-46.0", "trial": 1, "time_elapsed": 1322384, "serialpos": 9, "key_press": -1, "wordID": 1103, "type": "PRES_VIS", "trial_index": 64}, "uniqueid": "MTK3523:3LOTDFNYA86OLY1N5NBA6XGDHACWF6", "dateTime": 1520632983466}, {"current_trial": 65, "trialdata": {"rt": -1, "trial_type": "single-stim", "word": "mummy", "stimulus": "<p id=\"stim\">MUMMY</p>", "conditions": [18, 1200, "v", 18000], "internal_node_id": "0.0-47.0", "trial": 1, "time_elapsed": 1324454, "serialpos": 10, "key_press": -1, "wordID": 931, "type": "PRES_VIS", "trial_index": 65}, "uniqueid": "MTK3523:3LOTDFNYA86OLY1N5NBA6XGDHACWF6", "dateTime": 1520632985536}, {"current_trial": 66, "trialdata": {"rt": -1, "trial_type": "single-stim", "word": "europe", "stimulus": "<p id=\"stim\">EUROPE</p>", "conditions": [18, 1200, "v", 18000], "internal_node_id": "0.0-48.0", "trial": 1, "time_elapsed": 1326834, "serialpos": 11, "key_press": -1, "wordID": 540, "type": "PRES_VIS", "trial_index": 66}, "uniqueid": "MTK3523:3LOTDFNYA86OLY1N5NBA6XGDHACWF6", "dateTime": 1520632987916}, {"current_trial": 67, "trialdata": {"rt": -1, "trial_type": "single-stim", "word": "woman", "stimulus": "<p id=\"stim\">WOMAN</p>", "conditions": [18, 1200, "v", 18000], "internal_node_id": "0.0-49.0", "trial": 1, "time_elapsed": 1329194, "serialpos": 12, "key_press": -1, "wordID": 1619, "type": "PRES_VIS", "trial_index": 67}, "uniqueid": "MTK3523:3LOTDFNYA86OLY1N5NBA6XGDHACWF6", "dateTime": 1520632990275}, {"current_trial": 68, "trialdata": {"rt": -1, "trial_type": "single-stim", "word": "temple", "stimulus": "<p id=\"stim\">TEMPLE</p>", "conditions": [18, 1200, "v", 18000], "internal_node_id": "0.0-50.0", "trial": 1, "time_elapsed": 1331591, "serialpos": 13, "key_press": -1, "wordID": 1447, "type": "PRES_VIS", "trial_index": 68}, "uniqueid": "MTK3523:3LOTDFNYA86OLY1N5NBA6XGDHACWF6", "dateTime": 1520632992678}, {"current_trial": 69, "trialdata": {"rt": -1, "trial_type": "single-stim", "word": "crater", "stimulus": "<p id=\"stim\">CRATER</p>", "conditions": [18, 1200, "v", 18000], "internal_node_id": "0.0-51.0", "trial": 1, "time_elapsed": 1333956, "serialpos": 14, "key_press": -1, "wordID": 399, "type": "PRES_VIS", "trial_index": 69}, "uniqueid": "MTK3523:3LOTDFNYA86OLY1N5NBA6XGDHACWF6", "dateTime": 1520632995038}, {"current_trial": 70, "trialdata": {"rt": -1, "trial_type": "single-stim", "word": "hornet", "stimulus": "<p id=\"stim\">HORNET</p>", "conditions": [18, 1200, "v", 18000], "internal_node_id": "0.0-52.0", "trial": 1, "time_elapsed": 1336269, "serialpos": 15, "key_press": -1, "wordID": 717, "type": "PRES_VIS", "trial_index": 70}, "uniqueid": "MTK3523:3LOTDFNYA86OLY1N5NBA6XGDHACWF6", "dateTime": 1520632997351}, {"current_trial": 71, "trialdata": {"rt": -1, "trial_type": "single-stim", "word": "piano", "stimulus": "<p id=\"stim\">PIANO</p>", "conditions": [18, 1200, "v", 18000], "internal_node_id": "0.0-53.0", "trial": 1, "time_elapsed": 1338553, "serialpos": 16, "key_press": -1, "wordID": 1056, "type": "PRES_VIS", "trial_index": 71}, "uniqueid": "MTK3523:3LOTDFNYA86OLY1N5NBA6XGDHACWF6", "dateTime": 1520632999634}, {"current_trial": 72, "trialdata": {"rt": -1, "trial_type": "single-stim", "word": "puddle", "stimulus": "<p id=\"stim\">PUDDLE</p>", "conditions": [18, 1200, "v", 18000], "internal_node_id": "0.0-54.0", "trial": 1, "time_elapsed": 1340828, "serialpos": 17, "key_press": -1, "wordID": 1139, "type": "PRES_VIS", "trial_index": 72}, "uniqueid": "MTK3523:3LOTDFNYA86OLY1N5NBA6XGDHACWF6", "dateTime": 1520633001909}, {"current_trial": 73, "trialdata": {"rt": -1, "trial_type": "single-stim", "stimulus": "", "internal_node_id": "0.0-55.0-0.0", "time_elapsed": 1343093, "key_press": -1, "type": "PRE_RECALL_DELAY", "trial_index": 73}, "uniqueid": "MTK3523:3LOTDFNYA86OLY1N5NBA6XGDHACWF6", "dateTime": 1520633004175}, {"current_trial": 74, "trialdata": {"rt": -1000, "trial_type": "single-audio", "stimulus": "/static/audio/400Hz.wav", "internal_node_id": "0.0-56.0", "time_elapsed": 1343599, "key_press": -1, "type": "PRE_RECALL_ALERT", "trial_index": 74}, "uniqueid": "MTK3523:3LOTDFNYA86OLY1N5NBA6XGDHACWF6", "dateTime": 1520633004680}, {"current_trial": 75, "trialdata": {"rt": [2055, 3296, 4320, 5328, 7591, 9351, 13743, 17808], "recwords": ["puddle", "mummy", "piano", "crater", "lagoon", "headband", "dustpan", "europe"], "key_times": [857, 1160, 1255, 1368, 1472, 1703, 2055, 2631, 2784, 2928, 3064, 3120, 3296, 3561, 3751, 3871, 3976, 4080, 4320, 4400, 4570, 4706, 4904, 5055, 5096, 5328, 6672, 6729, 6906, 6984, 7120, 7306, 7591, 8393, 8448, 8569, 8713, 8833, 8940, 9032, 9120, 9351, 11690, 12688, 12832, 13065, 13241, 13344, 13465, 13743, 16833, 17001, 17081, 17216, 17513, 17646, 17808], "trial_type": "free-recall", "conditions": [18, 1200, "v", 18000], "internal_node_id": "0.0-57.0-0.0", "key_presses": [80, 85, 68, 68, 76, 69, 13, 77, 85, 77, 77, 89, 13, 80, 73, 65, 78, 79, 13, 67, 82, 65, 84, 69, 82, 13, 76, 65, 71, 79, 79, 78, 13, 72, 69, 65, 68, 66, 65, 78, 68, 13, 68, 85, 83, 84, 80, 65, 78, 13, 69, 85, 82, 79, 80, 69, 13], "trial": 1, "time_elapsed": 1403614, "type": "FREE_RECALL", "trial_index": 75}, "uniqueid": "MTK3523:3LOTDFNYA86OLY1N5NBA6XGDHACWF6", "dateTime": 1520633064705}, {"current_trial": 76, "trialdata": {"rt": 46644, "trial_type": "text", "internal_node_id": "0.0-58.0", "time_elapsed": 1452271, "key_press": 32, "type": "INSTRUCTIONS", "trial_index": 76}, "uniqueid": "MTK3523:3LOTDFNYA86OLY1N5NBA6XGDHACWF6", "dateTime": 1520633113352}, {"current_trial": 77, "trialdata": {"rt": [3446, 6790, 8342, 13725, 16622, 18597, 20581], "trial_type": "math-distractor", "key_times": [3094, 3135, 3446, 6366, 6526, 6790, 8048, 8127, 8342, 13303, 13456, 13725, 16311, 16413, 16622, 18312, 18456, 18597, 20318, 20400, 20581, 23703], "responses": ["21", "25", "18", "20", "19", "14", "15"], "num2": [8, 9, 4, 5, 9, 3, 1, 5], "num3": [5, 9, 8, 6, 5, 4, 9, 7], "conditions": [12, 800, "v", 24000], "internal_node_id": "0.0-59.0", "key_presses": [98, 97, 13, 98, 101, 13, 97, 104, 13, 98, 96, 13, 97, 105, 13, 97, 100, 13, 97, 101, 13, 97], "trial": 2, "time_elapsed": 1477284, "type": "DISTRACTOR", "trial_index": 77, "num1": [8, 7, 6, 8, 5, 7, 5, 1]}, "uniqueid": "MTK3523:3LOTDFNYA86OLY1N5NBA6XGDHACWF6", "dateTime": 1520633138366}, {"current_trial": 78, "trialdata": {"rt": -1, "trial_type": "single-stim", "stimulus": "<p id=\"stim\">10</p>", "internal_node_id": "0.0-60.0-0.0", "time_elapsed": 1480295, "key_press": -1, "trial_index": 78}, "uniqueid": "MTK3523:3LOTDFNYA86OLY1N5NBA6XGDHACWF6", "dateTime": 1520633141377}, {"current_trial": 79, "trialdata": {"rt": -1, "trial_type": "single-stim", "stimulus": "<p id=\"stim\">9</p>", "internal_node_id": "0.0-60.0-1.0", "time_elapsed": 1481298, "key_press": -1, "trial_index": 79}, "uniqueid": "MTK3523:3LOTDFNYA86OLY1N5NBA6XGDHACWF6", "dateTime": 1520633142379}, {"current_trial": 80, "trialdata": {"rt": -1, "trial_type": "single-stim", "stimulus": "<p id=\"stim\">8</p>", "internal_node_id": "0.0-60.0-2.0", "time_elapsed": 1482302, "key_press": -1, "trial_index": 80}, "uniqueid": "MTK3523:3LOTDFNYA86OLY1N5NBA6XGDHACWF6", "dateTime": 1520633143384}, {"current_trial": 81, "trialdata": {"rt": -1, "trial_type": "single-stim", "stimulus": "<p id=\"stim\">7</p>", "internal_node_id": "0.0-60.0-3.0", "time_elapsed": 1483306, "key_press": -1, "trial_index": 81}, "uniqueid": "MTK3523:3LOTDFNYA86OLY1N5NBA6XGDHACWF6", "dateTime": 1520633144387}, {"current_trial": 82, "trialdata": {"rt": -1, "trial_type": "single-stim", "stimulus": "<p id=\"stim\">6</p>", "internal_node_id": "0.0-60.0-4.0", "time_elapsed": 1484309, "key_press": -1, "trial_index": 82}, "uniqueid": "MTK3523:3LOTDFNYA86OLY1N5NBA6XGDHACWF6", "dateTime": 1520633145390}, {"current_trial": 83, "trialdata": {"rt": -1, "trial_type": "single-stim", "stimulus": "<p id=\"stim\">5</p>", "internal_node_id": "0.0-60.0-5.0", "time_elapsed": 1485312, "key_press": -1, "trial_index": 83}, "uniqueid": "MTK3523:3LOTDFNYA86OLY1N5NBA6XGDHACWF6", "dateTime": 1520633146394}, {"current_trial": 84, "trialdata": {"rt": -1, "trial_type": "single-stim", "stimulus": "<p id=\"stim\">4</p>", "internal_node_id": "0.0-60.0-6.0", "time_elapsed": 1486316, "key_press": -1, "trial_index": 84}, "uniqueid": "MTK3523:3LOTDFNYA86OLY1N5NBA6XGDHACWF6", "dateTime": 1520633147397}, {"current_trial": 85, "trialdata": {"rt": -1, "trial_type": "single-stim", "stimulus": "<p id=\"stim\">3</p>", "internal_node_id": "0.0-60.0-7.0", "time_elapsed": 1487320, "key_press": -1, "trial_index": 85}, "uniqueid": "MTK3523:3LOTDFNYA86OLY1N5NBA6XGDHACWF6", "dateTime": 1520633148403}, {"current_trial": 86, "trialdata": {"rt": -1, "trial_type": "single-stim", "stimulus": "<p id=\"stim\">2</p>", "internal_node_id": "0.0-60.0-8.0", "time_elapsed": 1488326, "key_press": -1, "trial_index": 86}, "uniqueid": "MTK3523:3LOTDFNYA86OLY1N5NBA6XGDHACWF6", "dateTime": 1520633149408}, {"current_trial": 87, "trialdata": {"rt": -1, "trial_type": "single-stim", "stimulus": "<p id=\"stim\">1</p>", "internal_node_id": "0.0-60.0-9.0", "time_elapsed": 1489330, "key_press": -1, "trial_index": 87}, "uniqueid": "MTK3523:3LOTDFNYA86OLY1N5NBA6XGDHACWF6", "dateTime": 1520633150411}, {"current_trial": 88, "trialdata": {"rt": -1, "trial_type": "single-stim", "stimulus": "<p id=\"stim\">+</p>", "internal_node_id": "0.0-61.0-0.0", "time_elapsed": 1490835, "key_press": -1, "type": "FIXATION", "trial_index": 88}, "uniqueid": "MTK3523:3LOTDFNYA86OLY1N5NBA6XGDHACWF6", "dateTime": 1520633151916}, {"current_trial": 89, "trialdata": {"rt": -1, "trial_type": "single-stim", "word": "dolphin", "stimulus": "<p id=\"stim\">DOLPHIN</p>", "conditions": [12, 800, "v", 24000], "internal_node_id": "0.0-62.0", "trial": 2, "time_elapsed": 1491639, "serialpos": 0, "key_press": -1, "wordID": 482, "type": "PRES_VIS", "trial_index": 89}, "uniqueid": "MTK3523:3LOTDFNYA86OLY1N5NBA6XGDHACWF6", "dateTime": 1520633152720}, {"current_trial": 90, "trialdata": {"rt": -1, "trial_type": "single-stim", "word": "cowboy", "stimulus": "<p id=\"stim\">COWBOY</p>", "conditions": [12, 800, "v", 24000], "internal_node_id": "0.0-63.0", "trial": 2, "time_elapsed": 1493417, "serialpos": 1, "key_press": -1, "wordID": 394, "type": "PRES_VIS", "trial_index": 90}, "uniqueid": "MTK3523:3LOTDFNYA86OLY1N5NBA6XGDHACWF6", "dateTime": 1520633154499}, {"current_trial": 91, "trialdata": {"rt": -1, "trial_type": "single-stim", "word": "quarter", "stimulus": "<p id=\"stim\">QUARTER</p>", "conditions": [12, 800, "v", 24000], "internal_node_id": "0.0-64.0", "trial": 2, "time_elapsed": 1495166, "serialpos": 2, "key_press": -1, "wordID": 1147, "type": "PRES_VIS", "trial_index": 91}, "uniqueid": "MTK3523:3LOTDFNYA86OLY1N5NBA6XGDHACWF6", "dateTime": 1520633156248}, {"current_trial": 92, "trialdata": {"rt": -1, "trial_type": "single-stim", "word": "flask", "stimulus": "<p id=\"stim\">FLASK</p>", "conditions": [12, 800, "v", 24000], "internal_node_id": "0.0-65.0", "trial": 2, "time_elapsed": 1496880, "serialpos": 3, "key_press": -1, "wordID": 575, "type": "PRES_VIS", "trial_index": 92}, "uniqueid": "MTK3523:3LOTDFNYA86OLY1N5NBA6XGDHACWF6", "dateTime": 1520633157961}, {"current_trial": 93, "trialdata": {"rt": -1, "trial_type": "single-stim", "word": "crab", "stimulus": "<p id=\"stim\">CRAB</p>", "conditions": [12, 800, "v", 24000], "internal_node_id": "0.0-66.0", "trial": 2, "time_elapsed": 1498547, "serialpos": 4, "key_press": -1, "wordID": 396, "type": "PRES_VIS", "trial_index": 93}, "uniqueid": "MTK3523:3LOTDFNYA86OLY1N5NBA6XGDHACWF6", "dateTime": 1520633159628}, {"current_trial": 94, "trialdata": {"rt": -1, "trial_type": "single-stim", "word": "fiddle", "stimulus": "<p id=\"stim\">FIDDLE</p>", "conditions": [12, 800, "v", 24000], "internal_node_id": "0.0-67.0", "trial": 2, "time_elapsed": 1500380, "serialpos": 5, "key_press": -1, "wordID": 560, "type": "PRES_VIS", "trial_index": 94}, "uniqueid": "MTK3523:3LOTDFNYA86OLY1N5NBA6XGDHACWF6", "dateTime": 1520633161461}, {"current_trial": 95, "trialdata": {"rt": -1, "trial_type": "single-stim", "word": "tortoise", "stimulus": "<p id=\"stim\">TORTOISE</p>", "conditions": [12, 800, "v", 24000], "internal_node_id": "0.0-68.0", "trial": 2, "time_elapsed": 1502100, "serialpos": 6, "key_press": -1, "wordID": 1485, "type": "PRES_VIS", "trial_index": 95}, "uniqueid": "MTK3523:3LOTDFNYA86OLY1N5NBA6XGDHACWF6", "dateTime": 1520633163182}, {"current_trial": 96, "trialdata": {"rt": -1, "trial_type": "single-stim", "word": "panther", "stimulus": "<p id=\"stim\">PANTHER</p>", "conditions": [12, 800, "v", 24000], "internal_node_id": "0.0-69.0", "trial": 2, "time_elapsed": 1503908, "serialpos": 7, "key_press": -1, "wordID": 1008, "type": "PRES_VIS", "trial_index": 96}, "uniqueid": "MTK3523:3LOTDFNYA86OLY1N5NBA6XGDHACWF6", "dateTime": 1520633164989}, {"current_trial": 97, "trialdata": {"rt": -1, "trial_type": "single-stim", "word": "cashier", "stimulus": "<p id=\"stim\">CASHIER</p>", "conditions": [12, 800, "v", 24000], "internal_node_id": "0.0-70.0", "trial": 2, "time_elapsed": 1505801, "serialpos": 8, "key_press": -1, "wordID": 253, "type": "PRES_VIS", "trial_index": 97}, "uniqueid": "MTK3523:3LOTDFNYA86OLY1N5NBA6XGDHACWF6", "dateTime": 1520633166882}, {"current_trial": 98, "trialdata": {"rt": -1, "trial_type": "single-stim", "word": "spoon", "stimulus": "<p id=\"stim\">SPOON</p>", "conditions": [12, 800, "v", 24000], "internal_node_id": "0.0-71.0", "trial": 2, "time_elapsed": 1507753, "serialpos": 9, "key_press": -1, "wordID": 1356, "type": "PRES_VIS", "trial_index": 98}, "uniqueid": "MTK3523:3LOTDFNYA86OLY1N5NBA6XGDHACWF6", "dateTime": 1520633168835}, {"current_trial": 99, "trialdata": {"rt": -1, "trial_type": "single-stim", "word": "picture", "stimulus": "<p id=\"stim\">PICTURE</p>", "conditions": [12, 800, "v", 24000], "internal_node_id": "0.0-72.0", "trial": 2, "time_elapsed": 1509440, "serialpos": 10, "key_press": -1, "wordID": 1060, "type": "PRES_VIS", "trial_index": 99}, "uniqueid": "MTK3523:3LOTDFNYA86OLY1N5NBA6XGDHACWF6", "dateTime": 1520633170522}, {"current_trial": 100, "trialdata": {"rt": -1, "trial_type": "single-stim", "word": "cod", "stimulus": "<p id=\"stim\">COD</p>", "conditions": [12, 800, "v", 24000], "internal_node_id": "0.0-73.0", "trial": 2, "time_elapsed": 1511099, "serialpos": 11, "key_press": -1, "wordID": 339, "type": "PRES_VIS", "trial_index": 100}, "uniqueid": "MTK3523:3LOTDFNYA86OLY1N5NBA6XGDHACWF6", "dateTime": 1520633172180}, {"current_trial": 101, "trialdata": {"rt": -1, "trial_type": "single-stim", "stimulus": "", "internal_node_id": "0.0-74.0-0.0", "time_elapsed": 1513258, "key_press": -1, "type": "PRE_RECALL_DELAY", "trial_index": 101}, "uniqueid": "MTK3523:3LOTDFNYA86OLY1N5NBA6XGDHACWF6", "dateTime": 1520633174339}, {"current_trial": 102, "trialdata": {"rt": -1000, "trial_type": "single-audio", "stimulus": "/static/audio/400Hz.wav", "internal_node_id": "0.0-75.0", "time_elapsed": 1513760, "key_press": -1, "type": "PRE_RECALL_ALERT", "trial_index": 102}, "uniqueid": "MTK3523:3LOTDFNYA86OLY1N5NBA6XGDHACWF6", "dateTime": 1520633174841}, {"current_trial": 103, "trialdata": {"rt": [1939, 4811, 7596, 11124, 16100, 20276, 30844], "recwords": ["panther", "dolphin", "quarter", "cashier", "cod", "fiddle", "cowboy"], "key_times": [1253, 1371, 1467, 1572, 1636, 1790, 1820, 1939, 2132, 2276, 2430, 2571, 2868, 3011, 3107, 3211, 3371, 3723, 3845, 3963, 4107, 4203, 4399, 4517, 4597, 4811, 5027, 5189, 5269, 5444, 5628, 5771, 5877, 5995, 6123, 6243, 6420, 6541, 6596, 6773, 6892, 6981, 7019, 7596, 10020, 10301, 10421, 10568, 10628, 10708, 10788, 10868, 10924, 11124, 15671, 15796, 15932, 16100, 19404, 19580, 19641, 19781, 19820, 19924, 20276, 30019, 30188, 30251, 30388, 30548, 30627, 30844], "trial_type": "free-recall", "conditions": [12, 800, "v", 24000], "internal_node_id": "0.0-76.0-0.0", "key_presses": [80, 65, 78, 84, 72, 69, 82, 13, 68, 73, 76, 80, 8, 8, 8, 73, 76, 8, 8, 79, 76, 80, 72, 73, 78, 13, 87, 85, 65, 82, 8, 8, 8, 8, 8, 8, 81, 85, 65, 82, 84, 69, 82, 13, 68, 8, 67, 65, 83, 72, 73, 69, 82, 13, 67, 79, 68, 13, 70, 73, 68, 68, 76, 69, 13, 67, 79, 87, 66, 79, 89, 13], "trial": 2, "time_elapsed": 1573768, "type": "FREE_RECALL", "trial_index": 103}, "uniqueid": "MTK3523:3LOTDFNYA86OLY1N5NBA6XGDHACWF6", "dateTime": 1520633234859}, {"current_trial": 104, "trialdata": {"rt": 1467, "trial_type": "text", "internal_node_id": "0.0-77.0", "time_elapsed": 1577249, "key_press": 32, "type": "INSTRUCTIONS", "trial_index": 104}, "uniqueid": "MTK3523:3LOTDFNYA86OLY1N5NBA6XGDHACWF6", "dateTime": 1520633238330}, {"current_trial": 105, "trialdata": {"rt": [2474, 4506, 10441, 12969, 15177, 17762, 19746, 21818, 23778], "trial_type": "math-distractor", "key_times": [1778, 2133, 2474, 4155, 4506, 9892, 10073, 10441, 12658, 12779, 12969, 14844, 15021, 15177, 16673, 17186, 17404, 17762, 19460, 19594, 19746, 21547, 21643, 21818, 23492, 23591, 23778], "responses": ["17", "1", "17", "19", "17", "7", "11", "15", "19"], "num2": [1, 2, 8, 8, 7, 1, 5, 6, 8, 8], "num3": [9, 9, 5, 2, 6, 5, 4, 7, 2, 1], "conditions": [24, 1600, "v", 24000], "internal_node_id": "0.0-78.0", "key_presses": [97, 103, 13, 97, 13, 97, 103, 13, 97, 105, 13, 97, 103, 13, 97, 8, 103, 13, 97, 97, 13, 97, 101, 13, 97, 105, 13], "trial": 3, "time_elapsed": 1603256, "type": "DISTRACTOR", "trial_index": 105, "num1": [7, 2, 6, 9, 4, 1, 2, 2, 9, 2]}, "uniqueid": "MTK3523:3LOTDFNYA86OLY1N5NBA6XGDHACWF6", "dateTime": 1520633264338}, {"current_trial": 106, "trialdata": {"rt": -1, "trial_type": "single-stim", "stimulus": "<p id=\"stim\">10</p>", "internal_node_id": "0.0-79.0-0.0", "time_elapsed": 1606262, "key_press": -1, "trial_index": 106}, "uniqueid": "MTK3523:3LOTDFNYA86OLY1N5NBA6XGDHACWF6", "dateTime": 1520633267343}, {"current_trial": 107, "trialdata": {"rt": -1, "trial_type": "single-stim", "stimulus": "<p id=\"stim\">9</p>", "internal_node_id": "0.0-79.0-1.0", "time_elapsed": 1607264, "key_press": -1, "trial_index": 107}, "uniqueid": "MTK3523:3LOTDFNYA86OLY1N5NBA6XGDHACWF6", "dateTime": 1520633268346}, {"current_trial": 108, "trialdata": {"rt": -1, "trial_type": "single-stim", "stimulus": "<p id=\"stim\">8</p>", "internal_node_id": "0.0-79.0-2.0", "time_elapsed": 1608267, "key_press": -1, "trial_index": 108}, "uniqueid": "MTK3523:3LOTDFNYA86OLY1N5NBA6XGDHACWF6", "dateTime": 1520633269348}, {"current_trial": 109, "trialdata": {"rt": -1, "trial_type": "single-stim", "stimulus": "<p id=\"stim\">7</p>", "internal_node_id": "0.0-79.0-3.0", "time_elapsed": 1609272, "key_press": -1, "trial_index": 109}, "uniqueid": "MTK3523:3LOTDFNYA86OLY1N5NBA6XGDHACWF6", "dateTime": 1520633270353}, {"current_trial": 110, "trialdata": {"rt": -1, "trial_type": "single-stim", "stimulus": "<p id=\"stim\">6</p>", "internal_node_id": "0.0-79.0-4.0", "time_elapsed": 1610276, "key_press": -1, "trial_index": 110}, "uniqueid": "MTK3523:3LOTDFNYA86OLY1N5NBA6XGDHACWF6", "dateTime": 1520633271357}, {"current_trial": 111, "trialdata": {"rt": -1, "trial_type": "single-stim", "stimulus": "<p id=\"stim\">5</p>", "internal_node_id": "0.0-79.0-5.0", "time_elapsed": 1611278, "key_press": -1, "trial_index": 111}, "uniqueid": "MTK3523:3LOTDFNYA86OLY1N5NBA6XGDHACWF6", "dateTime": 1520633272359}, {"current_trial": 112, "trialdata": {"rt": -1, "trial_type": "single-stim", "stimulus": "<p id=\"stim\">4</p>", "internal_node_id": "0.0-79.0-6.0", "time_elapsed": 1612280, "key_press": -1, "trial_index": 112}, "uniqueid": "MTK3523:3LOTDFNYA86OLY1N5NBA6XGDHACWF6", "dateTime": 1520633273361}, {"current_trial": 113, "trialdata": {"rt": -1, "trial_type": "single-stim", "stimulus": "<p id=\"stim\">3</p>", "internal_node_id": "0.0-79.0-7.0", "time_elapsed": 1613284, "key_press": -1, "trial_index": 113}, "uniqueid": "MTK3523:3LOTDFNYA86OLY1N5NBA6XGDHACWF6", "dateTime": 1520633274365}, {"current_trial": 114, "trialdata": {"rt": -1, "trial_type": "single-stim", "stimulus": "<p id=\"stim\">2</p>", "internal_node_id": "0.0-79.0-8.0", "time_elapsed": 1614289, "key_press": -1, "trial_index": 114}, "uniqueid": "MTK3523:3LOTDFNYA86OLY1N5NBA6XGDHACWF6", "dateTime": 1520633275370}, {"current_trial": 115, "trialdata": {"rt": -1, "trial_type": "single-stim", "stimulus": "<p id=\"stim\">1</p>", "internal_node_id": "0.0-79.0-9.0", "time_elapsed": 1615293, "key_press": -1, "trial_index": 115}, "uniqueid": "MTK3523:3LOTDFNYA86OLY1N5NBA6XGDHACWF6", "dateTime": 1520633276375}, {"current_trial": 116, "trialdata": {"rt": -1, "trial_type": "single-stim", "stimulus": "<p id=\"stim\">+</p>", "internal_node_id": "0.0-80.0-0.0", "time_elapsed": 1616801, "key_press": -1, "type": "FIXATION", "trial_index": 116}, "uniqueid": "MTK3523:3LOTDFNYA86OLY1N5NBA6XGDHACWF6", "dateTime": 1520633277882}, {"current_trial": 117, "trialdata": {"rt": -1, "trial_type": "single-stim", "word": "lizard", "stimulus": "<p id=\"stim\">LIZARD</p>", "conditions": [24, 1600, "v", 24000], "internal_node_id": "0.0-81.0", "trial": 3, "time_elapsed": 1618406, "serialpos": 0, "key_press": -1, "wordID": 833, "type": "PRES_VIS", "trial_index": 117}, "uniqueid": "MTK3523:3LOTDFNYA86OLY1N5NBA6XGDHACWF6", "dateTime": 1520633279487}, {"current_trial": 118, "trialdata": {"rt": -1, "trial_type": "single-stim", "word": "clock", "stimulus": "<p id=\"stim\">CLOCK</p>", "conditions": [24, 1600, "v", 24000], "internal_node_id": "0.0-82.0", "trial": 3, "time_elapsed": 1621008, "serialpos": 1, "key_press": -1, "wordID": 324, "type": "PRES_VIS", "trial_index": 118}, "uniqueid": "MTK3523:3LOTDFNYA86OLY1N5NBA6XGDHACWF6", "dateTime": 1520633282089}, {"current_trial": 119, "trialdata": {"rt": -1, "trial_type": "single-stim", "word": "shoulder", "stimulus": "<p id=\"stim\">SHOULDER</p>", "conditions": [24, 1600, "v", 24000], "internal_node_id": "0.0-83.0", "trial": 3, "time_elapsed": 1623530, "serialpos": 2, "key_press": -1, "wordID": 1293, "type": "PRES_VIS", "trial_index": 119}, "uniqueid": "MTK3523:3LOTDFNYA86OLY1N5NBA6XGDHACWF6", "dateTime": 1520633284612}, {"current_trial": 120, "trialdata": {"rt": -1, "trial_type": "single-stim", "word": "arm", "stimulus": "<p id=\"stim\">ARM</p>", "conditions": [24, 1600, "v", 24000], "internal_node_id": "0.0-84.0", "trial": 3, "time_elapsed": 1626255, "serialpos": 3, "key_press": -1, "wordID": 37, "type": "PRES_VIS", "trial_index": 120}, "uniqueid": "MTK3523:3LOTDFNYA86OLY1N5NBA6XGDHACWF6", "dateTime": 1520633287336}, {"current_trial": 121, "trialdata": {"rt": -1, "trial_type": "single-stim", "word": "camel", "stimulus": "<p id=\"stim\">CAMEL</p>", "conditions": [24, 1600, "v", 24000], "internal_node_id": "0.0-85.0", "trial": 3, "time_elapsed": 1628705, "serialpos": 4, "key_press": -1, "wordID": 222, "type": "PRES_VIS", "trial_index": 121}, "uniqueid": "MTK3523:3LOTDFNYA86OLY1N5NBA6XGDHACWF6", "dateTime": 1520633289787}, {"current_trial": 122, "trialdata": {"rt": -1, "trial_type": "single-stim", "word": "cattle", "stimulus": "<p id=\"stim\">CATTLE</p>", "conditions": [24, 1600, "v", 24000], "internal_node_id": "0.0-86.0", "trial": 3, "time_elapsed": 1631299, "serialpos": 5, "key_press": -1, "wordID": 260, "type": "PRES_VIS", "trial_index": 122}, "uniqueid": "MTK3523:3LOTDFNYA86OLY1N5NBA6XGDHACWF6", "dateTime": 1520633292380}, {"current_trial": 123, "trialdata": {"rt": -1, "trial_type": "single-stim", "word": "cottage", "stimulus": "<p id=\"stim\">COTTAGE</p>", "conditions": [24, 1600, "v", 24000], "internal_node_id": "0.0-87.0", "trial": 3, "time_elapsed": 1633838, "serialpos": 6, "key_press": -1, "wordID": 383, "type": "PRES_VIS", "trial_index": 123}, "uniqueid": "MTK3523:3LOTDFNYA86OLY1N5NBA6XGDHACWF6", "dateTime": 1520633294919}, {"current_trial": 124, "trialdata": {"rt": -1, "trial_type": "single-stim", "word": "turnip", "stimulus": "<p id=\"stim\">TURNIP</p>", "conditions": [24, 1600, "v", 24000], "internal_node_id": "0.0-88.0", "trial": 3, "time_elapsed": 1636268, "serialpos": 7, "key_press": -1, "wordID": 1520, "type": "PRES_VIS", "trial_index": 124}, "uniqueid": "MTK3523:3LOTDFNYA86OLY1N5NBA6XGDHACWF6", "dateTime": 1520633297349}, {"current_trial": 125, "trialdata": {"rt": -1, "trial_type": "single-stim", "word": "donkey", "stimulus": "<p id=\"stim\">DONKEY</p>", "conditions": [24, 1600, "v", 24000], "internal_node_id": "0.0-89.0", "trial": 3, "time_elapsed": 1638792, "serialpos": 8, "key_press": -1, "wordID": 483, "type": "PRES_VIS", "trial_index": 125}, "uniqueid": "MTK3523:3LOTDFNYA86OLY1N5NBA6XGDHACWF6", "dateTime": 1520633299874}, {"current_trial": 126, "trialdata": {"rt": -1, "trial_type": "single-stim", "word": "rattle", "stimulus": "<p id=\"stim\">RATTLE</p>", "conditions": [24, 1600, "v", 24000], "internal_node_id": "0.0-90.0", "trial": 3, "time_elapsed": 1641234, "serialpos": 9, "key_press": -1, "wordID": 1169, "type": "PRES_VIS", "trial_index": 126}, "uniqueid": "MTK3523:3LOTDFNYA86OLY1N5NBA6XGDHACWF6", "dateTime": 1520633302324}, {"current_trial": 127, "trialdata": {"rt": -1, "trial_type": "single-stim", "word": "diver", "stimulus": "<p id=\"stim\">DIVER</p>", "conditions": [24, 1600, "v", 24000], "internal_node_id": "0.0-91.0", "trial": 3, "time_elapsed": 1643890, "serialpos": 10, "key_press": -1, "wordID": 475, "type": "PRES_VIS", "trial_index": 127}, "uniqueid": "MTK3523:3LOTDFNYA86OLY1N5NBA6XGDHACWF6", "dateTime": 1520633304971}, {"current_trial": 128, "trialdata": {"rt": -1, "trial_type": "single-stim", "word": "flashlight", "stimulus": "<p id=\"stim\">FLASHLIGHT</p>", "conditions": [24, 1600, "v", 24000], "internal_node_id": "0.0-92.0", "trial": 3, "time_elapsed": 1646487, "serialpos": 11, "key_press": -1, "wordID": 574, "type": "PRES_VIS", "trial_index": 128}, "uniqueid": "MTK3523:3LOTDFNYA86OLY1N5NBA6XGDHACWF6", "dateTime": 1520633307568}, {"current_trial": 129, "trialdata": {"rt": -1, "trial_type": "single-stim", "word": "tuba", "stimulus": "<p id=\"stim\">TUBA</p>", "conditions": [24, 1600, "v", 24000], "internal_node_id": "0.0-93.0", "trial": 3, "time_elapsed": 1648950, "serialpos": 12, "key_press": -1, "wordID": 1514, "type": "PRES_VIS", "trial_index": 129}, "uniqueid": "MTK3523:3LOTDFNYA86OLY1N5NBA6XGDHACWF6", "dateTime": 1520633310031}, {"current_trial": 130, "trialdata": {"rt": -1, "trial_type": "single-stim", "word": "guitar", "stimulus": "<p id=\"stim\">GUITAR</p>", "conditions": [24, 1600, "v", 24000], "internal_node_id": "0.0-94.0", "trial": 3, "time_elapsed": 1651425, "serialpos": 13, "key_press": -1, "wordID": 669, "type": "PRES_VIS", "trial_index": 130}, "uniqueid": "MTK3523:3LOTDFNYA86OLY1N5NBA6XGDHACWF6", "dateTime": 1520633312507}, {"current_trial": 131, "trialdata": {"rt": -1, "trial_type": "single-stim", "word": "tile", "stimulus": "<p id=\"stim\">TILE</p>", "conditions": [24, 1600, "v", 24000], "internal_node_id": "0.0-95.0", "trial": 3, "time_elapsed": 1654024, "serialpos": 14, "key_press": -1, "wordID": 1467, "type": "PRES_VIS", "trial_index": 131}, "uniqueid": "MTK3523:3LOTDFNYA86OLY1N5NBA6XGDHACWF6", "dateTime": 1520633315105}, {"current_trial": 132, "trialdata": {"rt": -1, "trial_type": "single-stim", "word": "jello", "stimulus": "<p id=\"stim\">JELLO</p>", "conditions": [24, 1600, "v", 24000], "internal_node_id": "0.0-96.0", "trial": 3, "time_elapsed": 1656634, "serialpos": 15, "key_press": -1, "wordID": 753, "type": "PRES_VIS", "trial_index": 132}, "uniqueid": "MTK3523:3LOTDFNYA86OLY1N5NBA6XGDHACWF6", "dateTime": 1520633317716}, {"current_trial": 133, "trialdata": {"rt": -1, "trial_type": "single-stim", "word": "blackboard", "stimulus": "<p id=\"stim\">BLACKBOARD</p>", "conditions": [24, 1600, "v", 24000], "internal_node_id": "0.0-97.0", "trial": 3, "time_elapsed": 1659397, "serialpos": 16, "key_press": -1, "wordID": 132, "type": "PRES_VIS", "trial_index": 133}, "uniqueid": "MTK3523:3LOTDFNYA86OLY1N5NBA6XGDHACWF6", "dateTime": 1520633320478}, {"current_trial": 134, "trialdata": {"rt": -1, "trial_type": "single-stim", "word": "ankle", "stimulus": "<p id=\"stim\">ANKLE</p>", "conditions": [24, 1600, "v", 24000], "internal_node_id": "0.0-98.0", "trial": 3, "time_elapsed": 1661839, "serialpos": 17, "key_press": -1, "wordID": 23, "type": "PRES_VIS", "trial_index": 134}, "uniqueid": "MTK3523:3LOTDFNYA86OLY1N5NBA6XGDHACWF6", "dateTime": 1520633322920}, {"current_trial": 135, "trialdata": {"rt": -1, "trial_type": "single-stim", "word": "forehead", "stimulus": "<p id=\"stim\">FOREHEAD</p>", "conditions": [24, 1600, "v", 24000], "internal_node_id": "0.0-99.0", "trial": 3, "time_elapsed": 1664349, "serialpos": 18, "key_press": -1, "wordID": 591, "type": "PRES_VIS", "trial_index": 135}, "uniqueid": "MTK3523:3LOTDFNYA86OLY1N5NBA6XGDHACWF6", "dateTime": 1520633325430}, {"current_trial": 136, "trialdata": {"rt": -1, "trial_type": "single-stim", "word": "cafe", "stimulus": "<p id=\"stim\">CAFE</p>", "conditions": [24, 1600, "v", 24000], "internal_node_id": "0.0-100.0", "trial": 3, "time_elapsed": 1667100, "serialpos": 19, "key_press": -1, "wordID": 215, "type": "PRES_VIS", "trial_index": 136}, "uniqueid": "MTK3523:3LOTDFNYA86OLY1N5NBA6XGDHACWF6", "dateTime": 1520633328181}, {"current_trial": 137, "trialdata": {"rt": -1, "trial_type": "single-stim", "word": "wrist", "stimulus": "<p id=\"stim\">WRIST</p>", "conditions": [24, 1600, "v", 24000], "internal_node_id": "0.0-101.0", "trial": 3, "time_elapsed": 1669896, "serialpos": 20, "key_press": -1, "wordID": 1625, "type": "PRES_VIS", "trial_index": 137}, "uniqueid": "MTK3523:3LOTDFNYA86OLY1N5NBA6XGDHACWF6", "dateTime": 1520633330977}, {"current_trial": 138, "trialdata": {"rt": -1, "trial_type": "single-stim", "word": "hook", "stimulus": "<p id=\"stim\">HOOK</p>", "conditions": [24, 1600, "v", 24000], "internal_node_id": "0.0-102.0", "trial": 3, "time_elapsed": 1672501, "serialpos": 21, "key_press": -1, "wordID": 714, "type": "PRES_VIS", "trial_index": 138}, "uniqueid": "MTK3523:3LOTDFNYA86OLY1N5NBA6XGDHACWF6", "dateTime": 1520633333583}, {"current_trial": 139, "trialdata": {"rt": -1, "trial_type": "single-stim", "word": "gymnast", "stimulus": "<p id=\"stim\">GYMNAST</p>", "conditions": [24, 1600, "v", 24000], "internal_node_id": "0.0-103.0", "trial": 3, "time_elapsed": 1674929, "serialpos": 22, "key_press": -1, "wordID": 674, "type": "PRES_VIS", "trial_index": 139}, "uniqueid": "MTK3523:3LOTDFNYA86OLY1N5NBA6XGDHACWF6", "dateTime": 1520633336010}, {"current_trial": 140, "trialdata": {"rt": -1, "trial_type": "single-stim", "word": "lady", "stimulus": "<p id=\"stim\">LADY</p>", "conditions": [24, 1600, "v", 24000], "internal_node_id": "0.0-104.0", "trial": 3, "time_elapsed": 1677370, "serialpos": 23, "key_press": -1, "wordID": 793, "type": "PRES_VIS", "trial_index": 140}, "uniqueid": "MTK3523:3LOTDFNYA86OLY1N5NBA6XGDHACWF6", "dateTime": 1520633338451}, {"current_trial": 141, "trialdata": {"rt": -1, "trial_type": "single-stim", "stimulus": "", "internal_node_id": "0.0-105.0-0.0", "time_elapsed": 1679456, "key_press": -1, "type": "PRE_RECALL_DELAY", "trial_index": 141}, "uniqueid": "MTK3523:3LOTDFNYA86OLY1N5NBA6XGDHACWF6", "dateTime": 1520633340537}, {"current_trial": 142, "trialdata": {"rt": -1000, "trial_type": "single-audio", "stimulus": "/static/audio/400Hz.wav", "internal_node_id": "0.0-106.0", "time_elapsed": 1679958, "key_press": -1, "type": "PRE_RECALL_ALERT", "trial_index": 142}, "uniqueid": "MTK3523:3LOTDFNYA86OLY1N5NBA6XGDHACWF6", "dateTime": 1520633341039}, {"current_trial": 143, "trialdata": {"rt": [2252, 3909, 5277, 6109, 8148, 9567, 15205, 22341, 28068, 30228, 37893], "recwords": ["lady", "gymnast", "cafe", "hook", "lizard", "tortoise", "hook", "blackboard", "guitar", "tuba", "lady"], "key_times": [1098, 1142, 1517, 1667, 2252, 2606, 2767, 2965, 3133, 3333, 3453, 3693, 3909, 4796, 4950, 5103, 5181, 5277, 5464, 5613, 5774, 5829, 6109, 7255, 7406, 7502, 7605, 7796, 7957, 8148, 8349, 8493, 8721, 9045, 9139, 9269, 9309, 9461, 9567, 13917, 14621, 14748, 14813, 15205, 18797, 19044, 19125, 19286, 19349, 19565, 19822, 20005, 20197, 20485, 20606, 20712, 20958, 21621, 21745, 21901, 22117, 22246, 22341, 26422, 26581, 26868, 27093, 27133, 27301, 28068, 29636, 29799, 29876, 30022, 30228, 37190, 37277, 37429, 37535, 37893], "trial_type": "free-recall", "conditions": [24, 1600, "v", 24000], "internal_node_id": "0.0-107.0-0.0", "key_presses": [76, 65, 68, 89, 13, 71, 89, 77, 78, 65, 83, 84, 13, 67, 65, 70, 69, 13, 72, 79, 79, 75, 13, 76, 73, 90, 65, 82, 68, 13, 84, 79, 82, 84, 79, 73, 83, 69, 13, 72, 79, 79, 75, 13, 66, 76, 65, 67, 75, 66, 65, 82, 68, 8, 8, 8, 8, 66, 79, 65, 82, 68, 13, 71, 85, 73, 84, 65, 82, 13, 84, 85, 66, 65, 13, 76, 65, 68, 89, 13], "trial": 3, "time_elapsed": 1739967, "type": "FREE_RECALL", "trial_index": 143}, "uniqueid": "MTK3523:3LOTDFNYA86OLY1N5NBA6XGDHACWF6", "dateTime": 1520633401064}, {"current_trial": 144, "trialdata": {"rt": 14414, "trial_type": "text", "internal_node_id": "0.0-108.0", "time_elapsed": 1756399, "key_press": 32, "type": "INSTRUCTIONS", "trial_index": 144}, "uniqueid": "MTK3523:3LOTDFNYA86OLY1N5NBA6XGDHACWF6", "dateTime": 1520633417481}, {"current_trial": 145, "trialdata": {"rt": [3835, 5898, 7547, 10179, 11987, 15067, 17835, 21186, 23243], "trial_type": "math-distractor", "key_times": [3493, 3645, 3835, 5668, 5898, 7323, 7547, 9891, 9971, 10179, 11653, 11835, 11987, 14762, 14922, 15067, 17509, 17653, 17835, 19677, 20943, 21186, 22995, 23243], "responses": ["14", "6", "9", "15", "17", "14", "11", "16", "8"], "num2": [7, 3, 5, 4, 2, 8, 4, 3, 1, 5], "num3": [2, 1, 1, 8, 8, 5, 4, 7, 2, 7], "conditions": [24, 800, "v", 24000], "internal_node_id": "0.0-109.0", "key_presses": [97, 100, 13, 102, 13, 105, 13, 97, 101, 13, 97, 103, 13, 97, 100, 13, 97, 97, 13, 97, 102, 13, 104, 13], "trial": 4, "time_elapsed": 1782407, "type": "DISTRACTOR", "trial_index": 145, "num1": [5, 2, 3, 3, 7, 1, 3, 6, 5, 6]}, "uniqueid": "MTK3523:3LOTDFNYA86OLY1N5NBA6XGDHACWF6", "dateTime": 1520633443488}, {"current_trial": 146, "trialdata": {"rt": -1, "trial_type": "single-stim", "stimulus": "<p id=\"stim\">10</p>", "internal_node_id": "0.0-110.0-0.0", "time_elapsed": 1785416, "key_press": -1, "trial_index": 146}, "uniqueid": "MTK3523:3LOTDFNYA86OLY1N5NBA6XGDHACWF6", "dateTime": 1520633446497}, {"current_trial": 147, "trialdata": {"rt": -1, "trial_type": "single-stim", "stimulus": "<p id=\"stim\">9</p>", "internal_node_id": "0.0-110.0-1.0", "time_elapsed": 1786420, "key_press": -1, "trial_index": 147}, "uniqueid": "MTK3523:3LOTDFNYA86OLY1N5NBA6XGDHACWF6", "dateTime": 1520633447501}, {"current_trial": 148, "trialdata": {"rt": -1, "trial_type": "single-stim", "stimulus": "<p id=\"stim\">8</p>", "internal_node_id": "0.0-110.0-2.0", "time_elapsed": 1787423, "key_press": -1, "trial_index": 148}, "uniqueid": "MTK3523:3LOTDFNYA86OLY1N5NBA6XGDHACWF6", "dateTime": 1520633448505}, {"current_trial": 149, "trialdata": {"rt": -1, "trial_type": "single-stim", "stimulus": "<p id=\"stim\">7</p>", "internal_node_id": "0.0-110.0-3.0", "time_elapsed": 1788426, "key_press": -1, "trial_index": 149}, "uniqueid": "MTK3523:3LOTDFNYA86OLY1N5NBA6XGDHACWF6", "dateTime": 1520633449507}, {"current_trial": 150, "trialdata": {"rt": -1, "trial_type": "single-stim", "stimulus": "<p id=\"stim\">6</p>", "internal_node_id": "0.0-110.0-4.0", "time_elapsed": 1789429, "key_press": -1, "trial_index": 150}, "uniqueid": "MTK3523:3LOTDFNYA86OLY1N5NBA6XGDHACWF6", "dateTime": 1520633450510}, {"current_trial": 151, "trialdata": {"rt": -1, "trial_type": "single-stim", "stimulus": "<p id=\"stim\">5</p>", "internal_node_id": "0.0-110.0-5.0", "time_elapsed": 1790433, "key_press": -1, "trial_index": 151}, "uniqueid": "MTK3523:3LOTDFNYA86OLY1N5NBA6XGDHACWF6", "dateTime": 1520633451514}, {"current_trial": 152, "trialdata": {"rt": -1, "trial_type": "single-stim", "stimulus": "<p id=\"stim\">4</p>", "internal_node_id": "0.0-110.0-6.0", "time_elapsed": 1791435, "key_press": -1, "trial_index": 152}, "uniqueid": "MTK3523:3LOTDFNYA86OLY1N5NBA6XGDHACWF6", "dateTime": 1520633452517}, {"current_trial": 153, "trialdata": {"rt": -1, "trial_type": "single-stim", "stimulus": "<p id=\"stim\">3</p>", "internal_node_id": "0.0-110.0-7.0", "time_elapsed": 1792438, "key_press": -1, "trial_index": 153}, "uniqueid": "MTK3523:3LOTDFNYA86OLY1N5NBA6XGDHACWF6", "dateTime": 1520633453519}, {"current_trial": 154, "trialdata": {"rt": -1, "trial_type": "single-stim", "stimulus": "<p id=\"stim\">2</p>", "internal_node_id": "0.0-110.0-8.0", "time_elapsed": 1793443, "key_press": -1, "trial_index": 154}, "uniqueid": "MTK3523:3LOTDFNYA86OLY1N5NBA6XGDHACWF6", "dateTime": 1520633454524}, {"current_trial": 155, "trialdata": {"rt": -1, "trial_type": "single-stim", "stimulus": "<p id=\"stim\">1</p>", "internal_node_id": "0.0-110.0-9.0", "time_elapsed": 1794447, "key_press": -1, "trial_index": 155}, "uniqueid": "MTK3523:3LOTDFNYA86OLY1N5NBA6XGDHACWF6", "dateTime": 1520633455528}, {"current_trial": 156, "trialdata": {"rt": -1, "trial_type": "single-stim", "stimulus": "<p id=\"stim\">+</p>", "internal_node_id": "0.0-111.0-0.0", "time_elapsed": 1795953, "key_press": -1, "type": "FIXATION", "trial_index": 156}, "uniqueid": "MTK3523:3LOTDFNYA86OLY1N5NBA6XGDHACWF6", "dateTime": 1520633457035}, {"current_trial": 157, "trialdata": {"rt": -1, "trial_type": "single-stim", "word": "sibling", "stimulus": "<p id=\"stim\">SIBLING</p>", "conditions": [24, 800, "v", 24000], "internal_node_id": "0.0-112.0", "trial": 4, "time_elapsed": 1796756, "serialpos": 0, "key_press": -1, "wordID": 1300, "type": "PRES_VIS", "trial_index": 157}, "uniqueid": "MTK3523:3LOTDFNYA86OLY1N5NBA6XGDHACWF6", "dateTime": 1520633457838}, {"current_trial": 158, "trialdata": {"rt": -1, "trial_type": "single-stim", "word": "lettuce", "stimulus": "<p id=\"stim\">LETTUCE</p>", "conditions": [24, 800, "v", 24000], "internal_node_id": "0.0-113.0", "trial": 4, "time_elapsed": 1798729, "serialpos": 1, "key_press": -1, "wordID": 813, "type": "PRES_VIS", "trial_index": 158}, "uniqueid": "MTK3523:3LOTDFNYA86OLY1N5NBA6XGDHACWF6", "dateTime": 1520633459810}, {"current_trial": 159, "trialdata": {"rt": -1, "trial_type": "single-stim", "word": "student", "stimulus": "<p id=\"stim\">STUDENT</p>", "conditions": [24, 800, "v", 24000], "internal_node_id": "0.0-114.0", "trial": 4, "time_elapsed": 1800491, "serialpos": 2, "key_press": -1, "wordID": 1394, "type": "PRES_VIS", "trial_index": 159}, "uniqueid": "MTK3523:3LOTDFNYA86OLY1N5NBA6XGDHACWF6", "dateTime": 1520633461572}, {"current_trial": 160, "trialdata": {"rt": -1, "trial_type": "single-stim", "word": "teacher", "stimulus": "<p id=\"stim\">TEACHER</p>", "conditions": [24, 800, "v", 24000], "internal_node_id": "0.0-115.0", "trial": 4, "time_elapsed": 1802351, "serialpos": 3, "key_press": -1, "wordID": 1439, "type": "PRES_VIS", "trial_index": 160}, "uniqueid": "MTK3523:3LOTDFNYA86OLY1N5NBA6XGDHACWF6", "dateTime": 1520633463432}, {"current_trial": 161, "trialdata": {"rt": -1, "trial_type": "single-stim", "word": "river", "stimulus": "<p id=\"stim\">RIVER</p>", "conditions": [24, 800, "v", 24000], "internal_node_id": "0.0-116.0", "trial": 4, "time_elapsed": 1804196, "serialpos": 4, "key_press": -1, "wordID": 1193, "type": "PRES_VIS", "trial_index": 161}, "uniqueid": "MTK3523:3LOTDFNYA86OLY1N5NBA6XGDHACWF6", "dateTime": 1520633465277}, {"current_trial": 162, "trialdata": {"rt": -1, "trial_type": "single-stim", "word": "perch", "stimulus": "<p id=\"stim\">PERCH</p>", "conditions": [24, 800, "v", 24000], "internal_node_id": "0.0-117.0", "trial": 4, "time_elapsed": 1806030, "serialpos": 5, "key_press": -1, "wordID": 1047, "type": "PRES_VIS", "trial_index": 162}, "uniqueid": "MTK3523:3LOTDFNYA86OLY1N5NBA6XGDHACWF6", "dateTime": 1520633467111}, {"current_trial": 163, "trialdata": {"rt": -1, "trial_type": "single-stim", "word": "banjo", "stimulus": "<p id=\"stim\">BANJO</p>", "conditions": [24, 800, "v", 24000], "internal_node_id": "0.0-118.0", "trial": 4, "time_elapsed": 1807711, "serialpos": 6, "key_press": -1, "wordID": 81, "type": "PRES_VIS", "trial_index": 163}, "uniqueid": "MTK3523:3LOTDFNYA86OLY1N5NBA6XGDHACWF6", "dateTime": 1520633468794}, {"current_trial": 164, "trialdata": {"rt": -1, "trial_type": "single-stim", "word": "mister", "stimulus": "<p id=\"stim\">MISTER</p>", "conditions": [24, 800, "v", 24000], "internal_node_id": "0.0-119.0", "trial": 4, "time_elapsed": 1809358, "serialpos": 7, "key_press": -1, "wordID": 900, "type": "PRES_VIS", "trial_index": 164}, "uniqueid": "MTK3523:3LOTDFNYA86OLY1N5NBA6XGDHACWF6", "dateTime": 1520633470440}, {"current_trial": 165, "trialdata": {"rt": -1, "trial_type": "single-stim", "word": "drill", "stimulus": "<p id=\"stim\">DRILL</p>", "conditions": [24, 800, "v", 24000], "internal_node_id": "0.0-120.0", "trial": 4, "time_elapsed": 1811067, "serialpos": 8, "key_press": -1, "wordID": 496, "type": "PRES_VIS", "trial_index": 165}, "uniqueid": "MTK3523:3LOTDFNYA86OLY1N5NBA6XGDHACWF6", "dateTime": 1520633472149}, {"current_trial": 166, "trialdata": {"rt": -1, "trial_type": "single-stim", "word": "cousin", "stimulus": "<p id=\"stim\">COUSIN</p>", "conditions": [24, 800, "v", 24000], "internal_node_id": "0.0-121.0", "trial": 4, "time_elapsed": 1812970, "serialpos": 9, "key_press": -1, "wordID": 391, "type": "PRES_VIS", "trial_index": 166}, "uniqueid": "MTK3523:3LOTDFNYA86OLY1N5NBA6XGDHACWF6", "dateTime": 1520633474052}, {"current_trial": 167, "trialdata": {"rt": -1, "trial_type": "single-stim", "word": "outfit", "stimulus": "<p id=\"stim\">OUTFIT</p>", "conditions": [24, 800, "v", 24000], "internal_node_id": "0.0-122.0", "trial": 4, "time_elapsed": 1814722, "serialpos": 10, "key_press": -1, "wordID": 987, "type": "PRES_VIS", "trial_index": 167}, "uniqueid": "MTK3523:3LOTDFNYA86OLY1N5NBA6XGDHACWF6", "dateTime": 1520633475804}, {"current_trial": 168, "trialdata": {"rt": -1, "trial_type": "single-stim", "word": "pilot", "stimulus": "<p id=\"stim\">PILOT</p>", "conditions": [24, 800, "v", 24000], "internal_node_id": "0.0-123.0", "trial": 4, "time_elapsed": 1816359, "serialpos": 11, "key_press": -1, "wordID": 1069, "type": "PRES_VIS", "trial_index": 168}, "uniqueid": "MTK3523:3LOTDFNYA86OLY1N5NBA6XGDHACWF6", "dateTime": 1520633477440}, {"current_trial": 169, "trialdata": {"rt": -1, "trial_type": "single-stim", "word": "puppy", "stimulus": "<p id=\"stim\">PUPPY</p>", "conditions": [24, 800, "v", 24000], "internal_node_id": "0.0-124.0", "trial": 4, "time_elapsed": 1818243, "serialpos": 12, "key_press": -1, "wordID": 1143, "type": "PRES_VIS", "trial_index": 169}, "uniqueid": "MTK3523:3LOTDFNYA86OLY1N5NBA6XGDHACWF6", "dateTime": 1520633479326}, {"current_trial": 170, "trialdata": {"rt": -1, "trial_type": "single-stim", "word": "convict", "stimulus": "<p id=\"stim\">CONVICT</p>", "conditions": [24, 800, "v", 24000], "internal_node_id": "0.0-125.0", "trial": 4, "time_elapsed": 1820160, "serialpos": 13, "key_press": -1, "wordID": 370, "type": "PRES_VIS", "trial_index": 170}, "uniqueid": "MTK3523:3LOTDFNYA86OLY1N5NBA6XGDHACWF6", "dateTime": 1520633481242}, {"current_trial": 171, "trialdata": {"rt": -1, "trial_type": "single-stim", "word": "judge", "stimulus": "<p id=\"stim\">JUDGE</p>", "conditions": [24, 800, "v", 24000], "internal_node_id": "0.0-126.0", "trial": 4, "time_elapsed": 1821934, "serialpos": 14, "key_press": -1, "wordID": 760, "type": "PRES_VIS", "trial_index": 171}, "uniqueid": "MTK3523:3LOTDFNYA86OLY1N5NBA6XGDHACWF6", "dateTime": 1520633483015}, {"current_trial": 172, "trialdata": {"rt": -1, "trial_type": "single-stim", "word": "glass", "stimulus": "<p id=\"stim\">GLASS</p>", "conditions": [24, 800, "v", 24000], "internal_node_id": "0.0-127.0", "trial": 4, "time_elapsed": 1823770, "serialpos": 15, "key_press": -1, "wordID": 638, "type": "PRES_VIS", "trial_index": 172}, "uniqueid": "MTK3523:3LOTDFNYA86OLY1N5NBA6XGDHACWF6", "dateTime": 1520633484852}, {"current_trial": 173, "trialdata": {"rt": -1, "trial_type": "single-stim", "word": "slide", "stimulus": "<p id=\"stim\">SLIDE</p>", "conditions": [24, 800, "v", 24000], "internal_node_id": "0.0-128.0", "trial": 4, "time_elapsed": 1825469, "serialpos": 16, "key_press": -1, "wordID": 1325, "type": "PRES_VIS", "trial_index": 173}, "uniqueid": "MTK3523:3LOTDFNYA86OLY1N5NBA6XGDHACWF6", "dateTime": 1520633486551}, {"current_trial": 174, "trialdata": {"rt": -1, "trial_type": "single-stim", "word": "rabbit", "stimulus": "<p id=\"stim\">RABBIT</p>", "conditions": [24, 800, "v", 24000], "internal_node_id": "0.0-129.0", "trial": 4, "time_elapsed": 1827473, "serialpos": 17, "key_press": -1, "wordID": 1151, "type": "PRES_VIS", "trial_index": 174}, "uniqueid": "MTK3523:3LOTDFNYA86OLY1N5NBA6XGDHACWF6", "dateTime": 1520633488555}, {"current_trial": 175, "trialdata": {"rt": -1, "trial_type": "single-stim", "word": "knife", "stimulus": "<p id=\"stim\">KNIFE</p>", "conditions": [24, 800, "v", 24000], "internal_node_id": "0.0-130.0", "trial": 4, "time_elapsed": 1829236, "serialpos": 18, "key_press": -1, "wordID": 784, "type": "PRES_VIS", "trial_index": 175}, "uniqueid": "MTK3523:3LOTDFNYA86OLY1N5NBA6XGDHACWF6", "dateTime": 1520633490318}, {"current_trial": 176, "trialdata": {"rt": -1, "trial_type": "single-stim", "word": "pistol", "stimulus": "<p id=\"stim\">PISTOL</p>", "conditions": [24, 800, "v", 24000], "internal_node_id": "0.0-131.0", "trial": 4, "time_elapsed": 1831113, "serialpos": 19, "key_press": -1, "wordID": 1074, "type": "PRES_VIS", "trial_index": 176}, "uniqueid": "MTK3523:3LOTDFNYA86OLY1N5NBA6XGDHACWF6", "dateTime": 1520633492194}, {"current_trial": 177, "trialdata": {"rt": -1, "trial_type": "single-stim", "word": "frame", "stimulus": "<p id=\"stim\">FRAME</p>", "conditions": [24, 800, "v", 24000], "internal_node_id": "0.0-132.0", "trial": 4, "time_elapsed": 1832745, "serialpos": 20, "key_press": -1, "wordID": 599, "type": "PRES_VIS", "trial_index": 177}, "uniqueid": "MTK3523:3LOTDFNYA86OLY1N5NBA6XGDHACWF6", "dateTime": 1520633493826}, {"current_trial": 178, "trialdata": {"rt": -1, "trial_type": "single-stim", "word": "snail", "stimulus": "<p id=\"stim\">SNAIL</p>", "conditions": [24, 800, "v", 24000], "internal_node_id": "0.0-133.0", "trial": 4, "time_elapsed": 1834491, "serialpos": 21, "key_press": -1, "wordID": 1331, "type": "PRES_VIS", "trial_index": 178}, "uniqueid": "MTK3523:3LOTDFNYA86OLY1N5NBA6XGDHACWF6", "dateTime": 1520633495572}, {"current_trial": 179, "trialdata": {"rt": -1, "trial_type": "single-stim", "word": "hiker", "stimulus": "<p id=\"stim\">HIKER</p>", "conditions": [24, 800, "v", 24000], "internal_node_id": "0.0-134.0", "trial": 4, "time_elapsed": 1836120, "serialpos": 22, "key_press": -1, "wordID": 707, "type": "PRES_VIS", "trial_index": 179}, "uniqueid": "MTK3523:3LOTDFNYA86OLY1N5NBA6XGDHACWF6", "dateTime": 1520633497201}, {"current_trial": 180, "trialdata": {"rt": -1, "trial_type": "single-stim", "word": "world", "stimulus": "<p id=\"stim\">WORLD</p>", "conditions": [24, 800, "v", 24000], "internal_node_id": "0.0-135.0", "trial": 4, "time_elapsed": 1838100, "serialpos": 23, "key_press": -1, "wordID": 1621, "type": "PRES_VIS", "trial_index": 180}, "uniqueid": "MTK3523:3LOTDFNYA86OLY1N5NBA6XGDHACWF6", "dateTime": 1520633499182}, {"current_trial": 181, "trialdata": {"rt": -1, "trial_type": "single-stim", "stimulus": "", "internal_node_id": "0.0-136.0-0.0", "time_elapsed": 1840518, "key_press": -1, "type": "PRE_RECALL_DELAY", "trial_index": 181}, "uniqueid": "MTK3523:3LOTDFNYA86OLY1N5NBA6XGDHACWF6", "dateTime": 1520633501599}, {"current_trial": 182, "trialdata": {"rt": -1000, "trial_type": "single-audio", "stimulus": "/static/audio/400Hz.wav", "internal_node_id": "0.0-137.0", "time_elapsed": 1841027, "key_press": -1, "type": "PRE_RECALL_ALERT", "trial_index": 182}, "uniqueid": "MTK3523:3LOTDFNYA86OLY1N5NBA6XGDHACWF6", "dateTime": 1520633502109}, {"current_trial": 183, "trialdata": {"rt": [1594, 3096, 4728, 6872, 7888, 9240, 11353, 17799, 19760, 20528, 29615, 33983], "recwords": ["world", "pistol", "hiker", "banjo", "mister", "student", "teacher", "slide", "perch", "river", "sibling", "parent"], "key_times": [1019, 1121, 1239, 1374, 1456, 1594, 2184, 2282, 2399, 2583, 2623, 2800, 3096, 4160, 4327, 4488, 4528, 4583, 4728, 5487, 5567, 5896, 6199, 6392, 6535, 6639, 6872, 7136, 7217, 7295, 7512, 7688, 7752, 7888, 8448, 8647, 8727, 8847, 8904, 8967, 9087, 9240, 9320, 9935, 10247, 10312, 10415, 10568, 10711, 10768, 10832, 11353, 15968, 16064, 16168, 16440, 16568, 16688, 16816, 17303, 17344, 17512, 17552, 17615, 17799, 19080, 19160, 19216, 19392, 19472, 19760, 19896, 20064, 20104, 20287, 20327, 20528, 28720, 28928, 29119, 29184, 29343, 29400, 29464, 29615, 33016, 33138, 33288, 33354, 33418, 33515, 33983], "trial_type": "free-recall", "conditions": [24, 800, "v", 24000], "internal_node_id": "0.0-138.0-0.0", "key_presses": [87, 79, 82, 76, 68, 32, 80, 73, 83, 84, 79, 76, 13, 72, 73, 75, 69, 82, 13, 66, 65, 74, 8, 78, 74, 79, 13, 77, 73, 83, 84, 69, 82, 13, 83, 84, 85, 68, 69, 78, 84, 13, 71, 8, 84, 69, 65, 67, 72, 69, 82, 13, 87, 79, 84, 8, 8, 8, 8, 83, 76, 73, 68, 69, 13, 80, 69, 82, 67, 72, 13, 82, 73, 86, 69, 82, 13, 83, 73, 66, 76, 73, 78, 71, 13, 80, 65, 82, 69, 78, 84, 13], "trial": 4, "time_elapsed": 1901034, "type": "FREE_RECALL", "trial_index": 183}, "uniqueid": "MTK3523:3LOTDFNYA86OLY1N5NBA6XGDHACWF6", "dateTime": 1520633562152}, {"current_trial": 184, "trialdata": {"rt": 8096, "trial_type": "text", "internal_node_id": "0.0-139.0", "time_elapsed": 1911170, "key_press": 32, "type": "INSTRUCTIONS", "trial_index": 184}, "uniqueid": "MTK3523:3LOTDFNYA86OLY1N5NBA6XGDHACWF6", "dateTime": 1520633572251}, {"current_trial": 185, "trialdata": {"rt": [6002, 8411, 10011], "trial_type": "math-distractor", "key_times": [5308, 5739, 6002, 7631, 7787, 8411, 9731, 9813, 10011], "responses": ["18", "16", "15"], "num2": [8, 1, 2, 4], "num3": [6, 8, 8, 5], "conditions": [12, 1600, "v", 12000], "internal_node_id": "0.0-140.0", "key_presses": [97, 104, 13, 97, 102, 13, 97, 101, 13], "trial": 5, "time_elapsed": 1925185, "type": "DISTRACTOR", "trial_index": 185, "num1": [5, 7, 5, 9]}, "uniqueid": "MTK3523:3LOTDFNYA86OLY1N5NBA6XGDHACWF6", "dateTime": 1520633586266}, {"current_trial": 186, "trialdata": {"rt": -1, "trial_type": "single-stim", "stimulus": "<p id=\"stim\">10</p>", "internal_node_id": "0.0-141.0-0.0", "time_elapsed": 1928188, "key_press": -1, "trial_index": 186}, "uniqueid": "MTK3523:3LOTDFNYA86OLY1N5NBA6XGDHACWF6", "dateTime": 1520633589270}, {"current_trial": 187, "trialdata": {"rt": -1, "trial_type": "single-stim", "stimulus": "<p id=\"stim\">9</p>", "internal_node_id": "0.0-141.0-1.0", "time_elapsed": 1929193, "key_press": -1, "trial_index": 187}, "uniqueid": "MTK3523:3LOTDFNYA86OLY1N5NBA6XGDHACWF6", "dateTime": 1520633590274}, {"current_trial": 188, "trialdata": {"rt": -1, "trial_type": "single-stim", "stimulus": "<p id=\"stim\">8</p>", "internal_node_id": "0.0-141.0-2.0", "time_elapsed": 1930196, "key_press": -1, "trial_index": 188}, "uniqueid": "MTK3523:3LOTDFNYA86OLY1N5NBA6XGDHACWF6", "dateTime": 1520633591277}, {"current_trial": 189, "trialdata": {"rt": -1, "trial_type": "single-stim", "stimulus": "<p id=\"stim\">7</p>", "internal_node_id": "0.0-141.0-3.0", "time_elapsed": 1931200, "key_press": -1, "trial_index": 189}, "uniqueid": "MTK3523:3LOTDFNYA86OLY1N5NBA6XGDHACWF6", "dateTime": 1520633592282}, {"current_trial": 190, "trialdata": {"rt": -1, "trial_type": "single-stim", "stimulus": "<p id=\"stim\">6</p>", "internal_node_id": "0.0-141.0-4.0", "time_elapsed": 1932204, "key_press": -1, "trial_index": 190}, "uniqueid": "MTK3523:3LOTDFNYA86OLY1N5NBA6XGDHACWF6", "dateTime": 1520633593286}, {"current_trial": 191, "trialdata": {"rt": -1, "trial_type": "single-stim", "stimulus": "<p id=\"stim\">5</p>", "internal_node_id": "0.0-141.0-5.0", "time_elapsed": 1933209, "key_press": -1, "trial_index": 191}, "uniqueid": "MTK3523:3LOTDFNYA86OLY1N5NBA6XGDHACWF6", "dateTime": 1520633594291}, {"current_trial": 192, "trialdata": {"rt": -1, "trial_type": "single-stim", "stimulus": "<p id=\"stim\">4</p>", "internal_node_id": "0.0-141.0-6.0", "time_elapsed": 1934216, "key_press": -1, "trial_index": 192}, "uniqueid": "MTK3523:3LOTDFNYA86OLY1N5NBA6XGDHACWF6", "dateTime": 1520633595298}, {"current_trial": 193, "trialdata": {"rt": -1, "trial_type": "single-stim", "stimulus": "<p id=\"stim\">3</p>", "internal_node_id": "0.0-141.0-7.0", "time_elapsed": 1935220, "key_press": -1, "trial_index": 193}, "uniqueid": "MTK3523:3LOTDFNYA86OLY1N5NBA6XGDHACWF6", "dateTime": 1520633596301}, {"current_trial": 194, "trialdata": {"rt": -1, "trial_type": "single-stim", "stimulus": "<p id=\"stim\">2</p>", "internal_node_id": "0.0-141.0-8.0", "time_elapsed": 1936225, "key_press": -1, "trial_index": 194}, "uniqueid": "MTK3523:3LOTDFNYA86OLY1N5NBA6XGDHACWF6", "dateTime": 1520633597307}, {"current_trial": 195, "trialdata": {"rt": -1, "trial_type": "single-stim", "stimulus": "<p id=\"stim\">1</p>", "internal_node_id": "0.0-141.0-9.0", "time_elapsed": 1937232, "key_press": -1, "trial_index": 195}, "uniqueid": "MTK3523:3LOTDFNYA86OLY1N5NBA6XGDHACWF6", "dateTime": 1520633598313}, {"current_trial": 196, "trialdata": {"rt": -1, "trial_type": "single-stim", "stimulus": "<p id=\"stim\">+</p>", "internal_node_id": "0.0-142.0-0.0", "time_elapsed": 1938735, "key_press": -1, "type": "FIXATION", "trial_index": 196}, "uniqueid": "MTK3523:3LOTDFNYA86OLY1N5NBA6XGDHACWF6", "dateTime": 1520633599816}, {"current_trial": 197, "trialdata": {"rt": -1, "trial_type": "single-stim", "word": "pizza", "stimulus": "<p id=\"stim\">PIZZA</p>", "conditions": [12, 1600, "v", 12000], "internal_node_id": "0.0-143.0", "trial": 5, "time_elapsed": 1940341, "serialpos": 0, "key_press": -1, "wordID": 1078, "type": "PRES_VIS", "trial_index": 197}, "uniqueid": "MTK3523:3LOTDFNYA86OLY1N5NBA6XGDHACWF6", "dateTime": 1520633601422}, {"current_trial": 198, "trialdata": {"rt": -1, "trial_type": "single-stim", "word": "scarf", "stimulus": "<p id=\"stim\">SCARF</p>", "conditions": [12, 1600, "v", 12000], "internal_node_id": "0.0-144.0", "trial": 5, "time_elapsed": 1942886, "serialpos": 1, "key_press": -1, "wordID": 1245, "type": "PRES_VIS", "trial_index": 198}, "uniqueid": "MTK3523:3LOTDFNYA86OLY1N5NBA6XGDHACWF6", "dateTime": 1520633603967}, {"current_trial": 199, "trialdata": {"rt": -1, "trial_type": "single-stim", "word": "kitchen", "stimulus": "<p id=\"stim\">KITCHEN</p>", "conditions": [12, 1600, "v", 12000], "internal_node_id": "0.0-145.0", "trial": 5, "time_elapsed": 1945503, "serialpos": 2, "key_press": -1, "wordID": 777, "type": "PRES_VIS", "trial_index": 199}, "uniqueid": "MTK3523:3LOTDFNYA86OLY1N5NBA6XGDHACWF6", "dateTime": 1520633606584}, {"current_trial": 200, "trialdata": {"rt": -1, "trial_type": "single-stim", "word": "parrot", "stimulus": "<p id=\"stim\">PARROT</p>", "conditions": [12, 1600, "v", 12000], "internal_node_id": "0.0-146.0", "trial": 5, "time_elapsed": 1948088, "serialpos": 3, "key_press": -1, "wordID": 1014, "type": "PRES_VIS", "trial_index": 200}, "uniqueid": "MTK3523:3LOTDFNYA86OLY1N5NBA6XGDHACWF6", "dateTime": 1520633609169}, {"current_trial": 201, "trialdata": {"rt": -1, "trial_type": "single-stim", "word": "quail", "stimulus": "<p id=\"stim\">QUAIL</p>", "conditions": [12, 1600, "v", 12000], "internal_node_id": "0.0-147.0", "trial": 5, "time_elapsed": 1950873, "serialpos": 4, "key_press": -1, "wordID": 1146, "type": "PRES_VIS", "trial_index": 201}, "uniqueid": "MTK3523:3LOTDFNYA86OLY1N5NBA6XGDHACWF6", "dateTime": 1520633611959}, {"current_trial": 202, "trialdata": {"rt": -1, "trial_type": "single-stim", "word": "turkey", "stimulus": "<p id=\"stim\">TURKEY</p>", "conditions": [12, 1600, "v", 12000], "internal_node_id": "0.0-148.0", "trial": 5, "time_elapsed": 1953355, "serialpos": 5, "key_press": -1, "wordID": 1519, "type": "PRES_VIS", "trial_index": 202}, "uniqueid": "MTK3523:3LOTDFNYA86OLY1N5NBA6XGDHACWF6", "dateTime": 1520633614436}, {"current_trial": 203, "trialdata": {"rt": -1, "trial_type": "single-stim", "word": "staple", "stimulus": "<p id=\"stim\">STAPLE</p>", "conditions": [12, 1600, "v", 12000], "internal_node_id": "0.0-149.0", "trial": 5, "time_elapsed": 1956112, "serialpos": 6, "key_press": -1, "wordID": 1370, "type": "PRES_VIS", "trial_index": 203}, "uniqueid": "MTK3523:3LOTDFNYA86OLY1N5NBA6XGDHACWF6", "dateTime": 1520633617193}, {"current_trial": 204, "trialdata": {"rt": -1, "trial_type": "single-stim", "word": "record", "stimulus": "<p id=\"stim\">RECORD</p>", "conditions": [12, 1600, "v", 12000], "internal_node_id": "0.0-150.0", "trial": 5, "time_elapsed": 1958757, "serialpos": 7, "key_press": -1, "wordID": 1175, "type": "PRES_VIS", "trial_index": 204}, "uniqueid": "MTK3523:3LOTDFNYA86OLY1N5NBA6XGDHACWF6", "dateTime": 1520633619838}, {"current_trial": 205, "trialdata": {"rt": -1, "trial_type": "single-stim", "word": "dress", "stimulus": "<p id=\"stim\">DRESS</p>", "conditions": [12, 1600, "v", 12000], "internal_node_id": "0.0-151.0", "trial": 5, "time_elapsed": 1961204, "serialpos": 8, "key_press": -1, "wordID": 494, "type": "PRES_VIS", "trial_index": 205}, "uniqueid": "MTK3523:3LOTDFNYA86OLY1N5NBA6XGDHACWF6", "dateTime": 1520633622285}, {"current_trial": 206, "trialdata": {"rt": -1, "trial_type": "single-stim", "word": "binder", "stimulus": "<p id=\"stim\">BINDER</p>", "conditions": [12, 1600, "v", 12000], "internal_node_id": "0.0-152.0", "trial": 5, "time_elapsed": 1963703, "serialpos": 9, "key_press": -1, "wordID": 126, "type": "PRES_VIS", "trial_index": 206}, "uniqueid": "MTK3523:3LOTDFNYA86OLY1N5NBA6XGDHACWF6", "dateTime": 1520633624785}, {"current_trial": 207, "trialdata": {"rt": -1, "trial_type": "single-stim", "word": "notebook", "stimulus": "<p id=\"stim\">NOTEBOOK</p>", "conditions": [12, 1600, "v", 12000], "internal_node_id": "0.0-153.0", "trial": 5, "time_elapsed": 1966379, "serialpos": 10, "key_press": -1, "wordID": 958, "type": "PRES_VIS", "trial_index": 207}, "uniqueid": "MTK3523:3LOTDFNYA86OLY1N5NBA6XGDHACWF6", "dateTime": 1520633627460}, {"current_trial": 208, "trialdata": {"rt": -1, "trial_type": "single-stim", "word": "missile", "stimulus": "<p id=\"stim\">MISSILE</p>", "conditions": [12, 1600, "v", 12000], "internal_node_id": "0.0-154.0", "trial": 5, "time_elapsed": 1969171, "serialpos": 11, "key_press": -1, "wordID": 899, "type": "PRES_VIS", "trial_index": 208}, "uniqueid": "MTK3523:3LOTDFNYA86OLY1N5NBA6XGDHACWF6", "dateTime": 1520633630252}, {"current_trial": 209, "trialdata": {"rt": -1, "trial_type": "single-stim", "stimulus": "", "internal_node_id": "0.0-155.0-0.0", "time_elapsed": 1971497, "key_press": -1, "type": "PRE_RECALL_DELAY", "trial_index": 209}, "uniqueid": "MTK3523:3LOTDFNYA86OLY1N5NBA6XGDHACWF6", "dateTime": 1520633632579}, {"current_trial": 210, "trialdata": {"rt": -1000, "trial_type": "single-audio", "stimulus": "/static/audio/400Hz.wav", "internal_node_id": "0.0-156.0", "time_elapsed": 1972000, "key_press": -1, "type": "PRE_RECALL_ALERT", "trial_index": 210}, "uniqueid": "MTK3523:3LOTDFNYA86OLY1N5NBA6XGDHACWF6", "dateTime": 1520633633081}, {"current_trial": 211, "trialdata": {"rt": [2316, 4020, 5108, 6116, 11267, 29133], "recwords": ["missile", "notebook", "pizza", "binder", "feather", "lover"], "key_times": [949, 1181, 1332, 1436, 1516, 1652, 1736, 1884, 1988, 2316, 3068, 3187, 3268, 3388, 3468, 3612, 3764, 3820, 4020, 4436, 4557, 4636, 4780, 4910, 5108, 5460, 5613, 5678, 5757, 5837, 5901, 6116, 10510, 10661, 10789, 10854, 11028, 11092, 11132, 11267, 28616, 28788, 28812, 28973, 28996, 29133], "trial_type": "free-recall", "conditions": [12, 1600, "v", 12000], "internal_node_id": "0.0-157.0-0.0", "key_presses": [78, 8, 77, 73, 83, 83, 73, 76, 69, 32, 78, 79, 84, 69, 66, 79, 79, 75, 32, 80, 73, 90, 90, 65, 13, 66, 73, 78, 68, 69, 82, 13, 70, 69, 65, 84, 72, 69, 82, 13, 76, 79, 86, 69, 82, 13], "trial": 5, "time_elapsed": 2032006, "type": "FREE_RECALL", "trial_index": 211}, "uniqueid": "MTK3523:3LOTDFNYA86OLY1N5NBA6XGDHACWF6", "dateTime": 1520633693103}, {"current_trial": 212, "trialdata": {"rt": 970, "trial_type": "text", "internal_node_id": "0.0-158.0", "time_elapsed": 2034993, "key_press": 32, "type": "INSTRUCTIONS", "trial_index": 212}, "uniqueid": "MTK3523:3LOTDFNYA86OLY1N5NBA6XGDHACWF6", "dateTime": 1520633696074}, {"current_trial": 213, "trialdata": {"rt": [4141, 6046, 7630, 9373, 11262, 12757, 14462, 16945, 19544, 22254], "trial_type": "math-distractor", "key_times": [3183, 3590, 4141, 5750, 5845, 6046, 7296, 7415, 7630, 9102, 9256, 9373, 10918, 11070, 11262, 12481, 12535, 12757, 14277, 14462, 16597, 16709, 16945, 19223, 19334, 19544, 21990, 22056, 22254, 23902], "responses": ["22", "18", "13", "14", "10", "15", "8", "19", "15", "18"], "num2": [8, 5, 1, 4, 6, 7, 2, 8, 5, 8, 5], "num3": [8, 9, 9, 2, 1, 1, 5, 2, 3, 6, 9], "conditions": [24, 1600, "v", 24000], "internal_node_id": "0.0-159.0", "key_presses": [98, 98, 13, 97, 104, 13, 97, 99, 13, 97, 100, 13, 97, 96, 13, 97, 101, 13, 104, 13, 97, 105, 13, 97, 101, 13, 97, 104, 13, 97], "trial": 6, "time_elapsed": 2061002, "type": "DISTRACTOR", "trial_index": 213, "num1": [6, 4, 3, 8, 3, 7, 1, 9, 7, 4, 5]}, "uniqueid": "MTK3523:3LOTDFNYA86OLY1N5NBA6XGDHACWF6", "dateTime": 1520633722084}, {"current_trial": 214, "trialdata": {"rt": -1, "trial_type": "single-stim", "stimulus": "<p id=\"stim\">10</p>", "internal_node_id": "0.0-160.0-0.0", "time_elapsed": 2064048, "key_press": -1, "trial_index": 214}, "uniqueid": "MTK3523:3LOTDFNYA86OLY1N5NBA6XGDHACWF6", "dateTime": 1520633725129}, {"current_trial": 215, "trialdata": {"rt": -1, "trial_type": "single-stim", "stimulus": "<p id=\"stim\">9</p>", "internal_node_id": "0.0-160.0-1.0", "time_elapsed": 2065050, "key_press": -1, "trial_index": 215}, "uniqueid": "MTK3523:3LOTDFNYA86OLY1N5NBA6XGDHACWF6", "dateTime": 1520633726131}, {"current_trial": 216, "trialdata": {"rt": -1, "trial_type": "single-stim", "stimulus": "<p id=\"stim\">8</p>", "internal_node_id": "0.0-160.0-2.0", "time_elapsed": 2066078, "key_press": -1, "trial_index": 216}, "uniqueid": "MTK3523:3LOTDFNYA86OLY1N5NBA6XGDHACWF6", "dateTime": 1520633727159}, {"current_trial": 217, "trialdata": {"rt": -1, "trial_type": "single-stim", "stimulus": "<p id=\"stim\">7</p>", "internal_node_id": "0.0-160.0-3.0", "time_elapsed": 2067081, "key_press": -1, "trial_index": 217}, "uniqueid": "MTK3523:3LOTDFNYA86OLY1N5NBA6XGDHACWF6", "dateTime": 1520633728162}, {"current_trial": 218, "trialdata": {"rt": -1, "trial_type": "single-stim", "stimulus": "<p id=\"stim\">6</p>", "internal_node_id": "0.0-160.0-4.0", "time_elapsed": 2068083, "key_press": -1, "trial_index": 218}, "uniqueid": "MTK3523:3LOTDFNYA86OLY1N5NBA6XGDHACWF6", "dateTime": 1520633729164}, {"current_trial": 219, "trialdata": {"rt": -1, "trial_type": "single-stim", "stimulus": "<p id=\"stim\">5</p>", "internal_node_id": "0.0-160.0-5.0", "time_elapsed": 2069087, "key_press": -1, "trial_index": 219}, "uniqueid": "MTK3523:3LOTDFNYA86OLY1N5NBA6XGDHACWF6", "dateTime": 1520633730168}, {"current_trial": 220, "trialdata": {"rt": -1, "trial_type": "single-stim", "stimulus": "<p id=\"stim\">4</p>", "internal_node_id": "0.0-160.0-6.0", "time_elapsed": 2070091, "key_press": -1, "trial_index": 220}, "uniqueid": "MTK3523:3LOTDFNYA86OLY1N5NBA6XGDHACWF6", "dateTime": 1520633731172}, {"current_trial": 221, "trialdata": {"rt": -1, "trial_type": "single-stim", "stimulus": "<p id=\"stim\">3</p>", "internal_node_id": "0.0-160.0-7.0", "time_elapsed": 2071097, "key_press": -1, "trial_index": 221}, "uniqueid": "MTK3523:3LOTDFNYA86OLY1N5NBA6XGDHACWF6", "dateTime": 1520633732178}, {"current_trial": 222, "trialdata": {"rt": -1, "trial_type": "single-stim", "stimulus": "<p id=\"stim\">2</p>", "internal_node_id": "0.0-160.0-8.0", "time_elapsed": 2072102, "key_press": -1, "trial_index": 222}, "uniqueid": "MTK3523:3LOTDFNYA86OLY1N5NBA6XGDHACWF6", "dateTime": 1520633733184}, {"current_trial": 223, "trialdata": {"rt": -1, "trial_type": "single-stim", "stimulus": "<p id=\"stim\">1</p>", "internal_node_id": "0.0-160.0-9.0", "time_elapsed": 2073107, "key_press": -1, "trial_index": 223}, "uniqueid": "MTK3523:3LOTDFNYA86OLY1N5NBA6XGDHACWF6", "dateTime": 1520633734189}, {"current_trial": 224, "trialdata": {"rt": -1, "trial_type": "single-stim", "stimulus": "<p id=\"stim\">+</p>", "internal_node_id": "0.0-161.0-0.0", "time_elapsed": 2074611, "key_press": -1, "type": "FIXATION", "trial_index": 224}, "uniqueid": "MTK3523:3LOTDFNYA86OLY1N5NBA6XGDHACWF6", "dateTime": 1520633735692}, {"current_trial": 225, "trialdata": {"rt": -1, "trial_type": "single-stim", "word": "eagle", "stimulus": "<p id=\"stim\">EAGLE</p>", "conditions": [24, 1600, "v", 24000], "internal_node_id": "0.0-162.0", "trial": 6, "time_elapsed": 2076218, "serialpos": 0, "key_press": -1, "wordID": 511, "type": "PRES_VIS", "trial_index": 225}, "uniqueid": "MTK3523:3LOTDFNYA86OLY1N5NBA6XGDHACWF6", "dateTime": 1520633737302}, {"current_trial": 226, "trialdata": {"rt": -1, "trial_type": "single-stim", "word": "orchid", "stimulus": "<p id=\"stim\">ORCHID</p>", "conditions": [24, 1600, "v", 24000], "internal_node_id": "0.0-163.0", "trial": 6, "time_elapsed": 2079007, "serialpos": 1, "key_press": -1, "wordID": 981, "type": "PRES_VIS", "trial_index": 226}, "uniqueid": "MTK3523:3LOTDFNYA86OLY1N5NBA6XGDHACWF6", "dateTime": 1520633740088}, {"current_trial": 227, "trialdata": {"rt": -1, "trial_type": "single-stim", "word": "bubble", "stimulus": "<p id=\"stim\">BUBBLE</p>", "conditions": [24, 1600, "v", 24000], "internal_node_id": "0.0-164.0", "trial": 6, "time_elapsed": 2081787, "serialpos": 2, "key_press": -1, "wordID": 182, "type": "PRES_VIS", "trial_index": 227}, "uniqueid": "MTK3523:3LOTDFNYA86OLY1N5NBA6XGDHACWF6", "dateTime": 1520633742868}, {"current_trial": 228, "trialdata": {"rt": -1, "trial_type": "single-stim", "word": "basement", "stimulus": "<p id=\"stim\">BASEMENT</p>", "conditions": [24, 1600, "v", 24000], "internal_node_id": "0.0-165.0", "trial": 6, "time_elapsed": 2084348, "serialpos": 3, "key_press": -1, "wordID": 93, "type": "PRES_VIS", "trial_index": 228}, "uniqueid": "MTK3523:3LOTDFNYA86OLY1N5NBA6XGDHACWF6", "dateTime": 1520633745430}, {"current_trial": 229, "trialdata": {"rt": -1, "trial_type": "single-stim", "word": "chipmunk", "stimulus": "<p id=\"stim\">CHIPMUNK</p>", "conditions": [24, 1600, "v", 24000], "internal_node_id": "0.0-166.0", "trial": 6, "time_elapsed": 2086815, "serialpos": 4, "key_press": -1, "wordID": 303, "type": "PRES_VIS", "trial_index": 229}, "uniqueid": "MTK3523:3LOTDFNYA86OLY1N5NBA6XGDHACWF6", "dateTime": 1520633747896}, {"current_trial": 230, "trialdata": {"rt": -1, "trial_type": "single-stim", "word": "cocktail", "stimulus": "<p id=\"stim\">COCKTAIL</p>", "conditions": [24, 1600, "v", 24000], "internal_node_id": "0.0-167.0", "trial": 6, "time_elapsed": 2089608, "serialpos": 5, "key_press": -1, "wordID": 337, "type": "PRES_VIS", "trial_index": 230}, "uniqueid": "MTK3523:3LOTDFNYA86OLY1N5NBA6XGDHACWF6", "dateTime": 1520633750690}, {"current_trial": 231, "trialdata": {"rt": -1, "trial_type": "single-stim", "word": "valve", "stimulus": "<p id=\"stim\">VALVE</p>", "conditions": [24, 1600, "v", 24000], "internal_node_id": "0.0-168.0", "trial": 6, "time_elapsed": 2092384, "serialpos": 6, "key_press": -1, "wordID": 1545, "type": "PRES_VIS", "trial_index": 231}, "uniqueid": "MTK3523:3LOTDFNYA86OLY1N5NBA6XGDHACWF6", "dateTime": 1520633753465}, {"current_trial": 232, "trialdata": {"rt": -1, "trial_type": "single-stim", "word": "jelly", "stimulus": "<p id=\"stim\">JELLY</p>", "conditions": [24, 1600, "v", 24000], "internal_node_id": "0.0-169.0", "trial": 6, "time_elapsed": 2095168, "serialpos": 7, "key_press": -1, "wordID": 754, "type": "PRES_VIS", "trial_index": 232}, "uniqueid": "MTK3523:3LOTDFNYA86OLY1N5NBA6XGDHACWF6", "dateTime": 1520633756250}, {"current_trial": 233, "trialdata": {"rt": -1, "trial_type": "single-stim", "word": "cellar", "stimulus": "<p id=\"stim\">CELLAR</p>", "conditions": [24, 1600, "v", 24000], "internal_node_id": "0.0-170.0", "trial": 6, "time_elapsed": 2097679, "serialpos": 8, "key_press": -1, "wordID": 266, "type": "PRES_VIS", "trial_index": 233}, "uniqueid": "MTK3523:3LOTDFNYA86OLY1N5NBA6XGDHACWF6", "dateTime": 1520633758760}, {"current_trial": 234, "trialdata": {"rt": -1, "trial_type": "single-stim", "word": "supper", "stimulus": "<p id=\"stim\">SUPPER</p>", "conditions": [24, 1600, "v", 24000], "internal_node_id": "0.0-171.0", "trial": 6, "time_elapsed": 2100225, "serialpos": 9, "key_press": -1, "wordID": 1410, "type": "PRES_VIS", "trial_index": 234}, "uniqueid": "MTK3523:3LOTDFNYA86OLY1N5NBA6XGDHACWF6", "dateTime": 1520633761306}, {"current_trial": 235, "trialdata": {"rt": -1, "trial_type": "single-stim", "word": "picnic", "stimulus": "<p id=\"stim\">PICNIC</p>", "conditions": [24, 1600, "v", 24000], "internal_node_id": "0.0-172.0", "trial": 6, "time_elapsed": 2102747, "serialpos": 10, "key_press": -1, "wordID": 1059, "type": "PRES_VIS", "trial_index": 235}, "uniqueid": "MTK3523:3LOTDFNYA86OLY1N5NBA6XGDHACWF6", "dateTime": 1520633763829}, {"current_trial": 236, "trialdata": {"rt": -1, "trial_type": "single-stim", "word": "sunset", "stimulus": "<p id=\"stim\">SUNSET</p>", "conditions": [24, 1600, "v", 24000], "internal_node_id": "0.0-173.0", "trial": 6, "time_elapsed": 2105375, "serialpos": 11, "key_press": -1, "wordID": 1407, "type": "PRES_VIS", "trial_index": 236}, "uniqueid": "MTK3523:3LOTDFNYA86OLY1N5NBA6XGDHACWF6", "dateTime": 1520633766456}, {"current_trial": 237, "trialdata": {"rt": -1, "trial_type": "single-stim", "word": "barrel", "stimulus": "<p id=\"stim\">BARREL</p>", "conditions": [24, 1600, "v", 24000], "internal_node_id": "0.0-174.0", "trial": 6, "time_elapsed": 2107902, "serialpos": 12, "key_press": -1, "wordID": 90, "type": "PRES_VIS", "trial_index": 237}, "uniqueid": "MTK3523:3LOTDFNYA86OLY1N5NBA6XGDHACWF6", "dateTime": 1520633768984}, {"current_trial": 238, "trialdata": {"rt": -1, "trial_type": "single-stim", "word": "snake", "stimulus": "<p id=\"stim\">SNAKE</p>", "conditions": [24, 1600, "v", 24000], "internal_node_id": "0.0-175.0", "trial": 6, "time_elapsed": 2110682, "serialpos": 13, "key_press": -1, "wordID": 1332, "type": "PRES_VIS", "trial_index": 238}, "uniqueid": "MTK3523:3LOTDFNYA86OLY1N5NBA6XGDHACWF6", "dateTime": 1520633771764}, {"current_trial": 239, "trialdata": {"rt": -1, "trial_type": "single-stim", "word": "fragrance", "stimulus": "<p id=\"stim\">FRAGRANCE</p>", "conditions": [24, 1600, "v", 24000], "internal_node_id": "0.0-176.0", "trial": 6, "time_elapsed": 2113308, "serialpos": 14, "key_press": -1, "wordID": 598, "type": "PRES_VIS", "trial_index": 239}, "uniqueid": "MTK3523:3LOTDFNYA86OLY1N5NBA6XGDHACWF6", "dateTime": 1520633774389}, {"current_trial": 240, "trialdata": {"rt": -1, "trial_type": "single-stim", "word": "gallon", "stimulus": "<p id=\"stim\">GALLON</p>", "conditions": [24, 1600, "v", 24000], "internal_node_id": "0.0-177.0", "trial": 6, "time_elapsed": 2116111, "serialpos": 15, "key_press": -1, "wordID": 617, "type": "PRES_VIS", "trial_index": 240}, "uniqueid": "MTK3523:3LOTDFNYA86OLY1N5NBA6XGDHACWF6", "dateTime": 1520633777192}, {"current_trial": 241, "trialdata": {"rt": -1, "trial_type": "single-stim", "word": "pebble", "stimulus": "<p id=\"stim\">PEBBLE</p>", "conditions": [24, 1600, "v", 24000], "internal_node_id": "0.0-178.0", "trial": 6, "time_elapsed": 2118721, "serialpos": 16, "key_press": -1, "wordID": 1034, "type": "PRES_VIS", "trial_index": 241}, "uniqueid": "MTK3523:3LOTDFNYA86OLY1N5NBA6XGDHACWF6", "dateTime": 1520633779802}, {"current_trial": 242, "trialdata": {"rt": -1, "trial_type": "single-stim", "word": "briefcase", "stimulus": "<p id=\"stim\">BRIEFCASE</p>", "conditions": [24, 1600, "v", 24000], "internal_node_id": "0.0-179.0", "trial": 6, "time_elapsed": 2121130, "serialpos": 17, "key_press": -1, "wordID": 174, "type": "PRES_VIS", "trial_index": 242}, "uniqueid": "MTK3523:3LOTDFNYA86OLY1N5NBA6XGDHACWF6", "dateTime": 1520633782211}, {"current_trial": 243, "trialdata": {"rt": -1, "trial_type": "single-stim", "word": "grill", "stimulus": "<p id=\"stim\">GRILL</p>", "conditions": [24, 1600, "v", 24000], "internal_node_id": "0.0-180.0", "trial": 6, "time_elapsed": 2123602, "serialpos": 18, "key_press": -1, "wordID": 660, "type": "PRES_VIS", "trial_index": 243}, "uniqueid": "MTK3523:3LOTDFNYA86OLY1N5NBA6XGDHACWF6", "dateTime": 1520633784684}, {"current_trial": 244, "trialdata": {"rt": -1, "trial_type": "single-stim", "word": "actor", "stimulus": "<p id=\"stim\">ACTOR</p>", "conditions": [24, 1600, "v", 24000], "internal_node_id": "0.0-181.0", "trial": 6, "time_elapsed": 2126316, "serialpos": 19, "key_press": -1, "wordID": 4, "type": "PRES_VIS", "trial_index": 244}, "uniqueid": "MTK3523:3LOTDFNYA86OLY1N5NBA6XGDHACWF6", "dateTime": 1520633787397}, {"current_trial": 245, "trialdata": {"rt": -1, "trial_type": "single-stim", "word": "film", "stimulus": "<p id=\"stim\">FILM</p>", "conditions": [24, 1600, "v", 24000], "internal_node_id": "0.0-182.0", "trial": 6, "time_elapsed": 2128902, "serialpos": 20, "key_press": -1, "wordID": 564, "type": "PRES_VIS", "trial_index": 245}, "uniqueid": "MTK3523:3LOTDFNYA86OLY1N5NBA6XGDHACWF6", "dateTime": 1520633789983}, {"current_trial": 246, "trialdata": {"rt": -1, "trial_type": "single-stim", "word": "pepper", "stimulus": "<p id=\"stim\">PEPPER</p>", "conditions": [24, 1600, "v", 24000], "internal_node_id": "0.0-183.0", "trial": 6, "time_elapsed": 2131378, "serialpos": 21, "key_press": -1, "wordID": 1046, "type": "PRES_VIS", "trial_index": 246}, "uniqueid": "MTK3523:3LOTDFNYA86OLY1N5NBA6XGDHACWF6", "dateTime": 1520633792460}, {"current_trial": 247, "trialdata": {"rt": -1, "trial_type": "single-stim", "word": "mars", "stimulus": "<p id=\"stim\">MARS</p>", "conditions": [24, 1600, "v", 24000], "internal_node_id": "0.0-184.0", "trial": 6, "time_elapsed": 2133955, "serialpos": 22, "key_press": -1, "wordID": 872, "type": "PRES_VIS", "trial_index": 247}, "uniqueid": "MTK3523:3LOTDFNYA86OLY1N5NBA6XGDHACWF6", "dateTime": 1520633795036}, {"current_trial": 248, "trialdata": {"rt": -1, "trial_type": "single-stim", "word": "clothes", "stimulus": "<p id=\"stim\">CLOTHES</p>", "conditions": [24, 1600, "v", 24000], "internal_node_id": "0.0-185.0", "trial": 6, "time_elapsed": 2136544, "serialpos": 23, "key_press": -1, "wordID": 326, "type": "PRES_VIS", "trial_index": 248}, "uniqueid": "MTK3523:3LOTDFNYA86OLY1N5NBA6XGDHACWF6", "dateTime": 1520633797627}, {"current_trial": 249, "trialdata": {"rt": -1, "trial_type": "single-stim", "stimulus": "", "internal_node_id": "0.0-186.0-0.0", "time_elapsed": 2138921, "key_press": -1, "type": "PRE_RECALL_DELAY", "trial_index": 249}, "uniqueid": "MTK3523:3LOTDFNYA86OLY1N5NBA6XGDHACWF6", "dateTime": 1520633800002}, {"current_trial": 250, "trialdata": {"rt": -1000, "trial_type": "single-audio", "stimulus": "/static/audio/400Hz.wav", "internal_node_id": "0.0-187.0", "time_elap