{"assignmentId": "3NPI0JQDAPC8KUMNOL24V7NIEECPTQ", "workerId": "MTK3039", "questiondata": {"origin": "United States", "strat-rehearsal": "99", "marital": "Married/Domestic Partnership", "education": "Some graduate education", "ethnicity": "Not Hispanic", "color_depth": 24, "distracted": "No", "wrote-notes": "No", "strat-other": "", "screen_width": 1366, "avail_screen_width": 1366, "avail_screen_height": 768, "strat-image": "23", "language": "english", "gender": "Female", "age": "50", "gender_other": "", "race": ["White"], "strat-categorize": "50", "pixel_depth": 24, "strat-spatial": "0", "strat-story": "2", "race_other": "", "screen_height": 768}, "bonus": 0, "hitId": "3J06WJ78HNRYFMPEPQ6GDX41CB7VVR", "counterbalance": 2544, "useragent": "Mozilla/5.0 (Windows NT 10.0; Win64; x64) AppleWebKit/537.36 (KHTML, like Gecko) Chrome/58.0.3029.110 Safari/537.36 Edge/16.16299", "eventdata": [{"eventtype": "initialized", "interval": 0, "value": null, "timestamp": 1519671894876}, {"eventtype": "window_resize", "interval": 0, "value": [1366, 691], "timestamp": 1519671894876}, {"eventtype": "focus", "interval": 197, "value": "on", "timestamp": 1519671895073}, {"eventtype": "focus", "interval": 2767, "value": "off", "timestamp": 1519671897840}, {"eventtype": "focus", "interval": 1345, "value": "on", "timestamp": 1519671899185}, {"eventtype": "focus", "interval": 4074, "value": "off", "timestamp": 1519671903259}, {"eventtype": "focus", "interval": 1226, "value": "on", "timestamp": 1519671904485}, {"eventtype": "focus", "interval": 13907, "value": "off", "timestamp": 1519671918392}, {"eventtype": "focus", "interval": 5308, "value": "on", "timestamp": 1519671923700}, {"eventtype": "focus", "interval": 910244, "value": "off", "timestamp": 1519672833944}, {"eventtype": "window_resize", "interval": 460, "value": [800, 555], "timestamp": 1519672834404}, {"eventtype": "focus", "interval": 3635, "value": "on", "timestamp": 1519672838039}, {"eventtype": "focus", "interval": 1417, "value": "off", "timestamp": 1519672839456}, {"eventtype": "window_resize", "interval": 374, "value": [1366, 691], "timestamp": 1519672839830}, {"eventtype": "focus", "interval": 356, "value": "on", "timestamp": 1519672840186}], "data": [{"current_trial": 0, "trialdata": {"rt": 4297, "trial_type": "text", "internal_node_id": "0.0-0.0", "time_elapsed": 4297, "key_press": 13, "type": "INSTRUCTIONS", "trial_index": 0}, "uniqueid": "MTK3039:3NPI0JQDAPC8KUMNOL24V7NIEECPTQ", "dateTime": 1519671899981}, {"current_trial": 1, "trialdata": {"rt": 15939, "trial_type": "text", "internal_node_id": "0.0-1.0", "time_elapsed": 20237, "key_press": 13, "type": "INSTRUCTIONS", "trial_index": 1}, "uniqueid": "MTK3039:3NPI0JQDAPC8KUMNOL24V7NIEECPTQ", "dateTime": 1519671915920}, {"current_trial": 2, "trialdata": {"rt": [15295], "trial_type": "audio-test", "responses": ["ocean"], "internal_node_id": "0.0-2.0", "time_elapsed": 35624, "type": "AUDIO_TEST", "trial_index": 2}, "uniqueid": "MTK3039:3NPI0JQDAPC8KUMNOL24V7NIEECPTQ", "dateTime": 1519671931307}, {"current_trial": 3, "trialdata": {"rt": [7377], "trial_type": "audio-test", "responses": ["crystal"], "internal_node_id": "0.0-3.0", "time_elapsed": 43015, "type": "AUDIO_TEST", "trial_index": 3}, "uniqueid": "MTK3039:3NPI0JQDAPC8KUMNOL24V7NIEECPTQ", "dateTime": 1519671938698}, {"current_trial": 4, "trialdata": {"rt": [5749], "trial_type": "audio-test", "responses": ["spice"], "internal_node_id": "0.0-4.0", "time_elapsed": 48778, "type": "AUDIO_TEST", "trial_index": 4}, "uniqueid": "MTK3039:3NPI0JQDAPC8KUMNOL24V7NIEECPTQ", "dateTime": 1519671944461}, {"current_trial": 5, "trialdata": {"rt": 19731, "trial_type": "survey-text", "responses": "{\"Q0\":\"9:00 p.m.\",\"Q1\":\"5:00 a.m.\",\"Q2\":\"5\"}", "internal_node_id": "0.0-5.0", "time_elapsed": 69274, "type": "SLEEP_SURVEY", "trial_index": 5}, "uniqueid": "MTK3039:3NPI0JQDAPC8KUMNOL24V7NIEECPTQ", "dateTime": 1519671964957}, {"current_trial": 6, "trialdata": {"rt": 78901, "trial_type": "text", "internal_node_id": "0.0-6.0", "time_elapsed": 149185, "key_press": 13, "type": "INSTRUCTIONS", "trial_index": 6}, "uniqueid": "MTK3039:3NPI0JQDAPC8KUMNOL24V7NIEECPTQ", "dateTime": 1519672044868}, {"current_trial": 7, "trialdata": {"rt": 11890, "trial_type": "text", "internal_node_id": "0.0-7.0", "time_elapsed": 161578, "key_press": 13, "type": "INSTRUCTIONS", "trial_index": 7}, "uniqueid": "MTK3039:3NPI0JQDAPC8KUMNOL24V7NIEECPTQ", "dateTime": 1519672057262}, {"current_trial": 8, "trialdata": {"rt": 4120, "trial_type": "text", "internal_node_id": "0.0-8.0", "time_elapsed": 166197, "key_press": 13, "type": "INSTRUCTIONS", "trial_index": 8}, "uniqueid": "MTK3039:3NPI0JQDAPC8KUMNOL24V7NIEECPTQ", "dateTime": 1519672061880}, {"current_trial": 9, "trialdata": {"rt": [3519, 6747, 10851, 14726, 17679], "trial_type": "math-distractor", "key_times": [2046, 2532, 3519, 5570, 6035, 6747, 9500, 10428, 10851, 13905, 14244, 14726, 16956, 17410, 17679], "responses": ["19", "19", "26", "13", "26"], "num2": [5, 5, 9, 8, 8, 6], "num3": [5, 5, 9, 2, 9, 4], "conditions": [18, 1200, "v", 18000], "internal_node_id": "0.0-9.0", "key_presses": [49, 57, 13, 49, 57, 13, 50, 54, 13, 49, 51, 13, 50, 54, 13], "trial": 0, "time_elapsed": 185220, "type": "DISTRACTOR", "trial_index": 9, "num1": [9, 9, 8, 3, 9, 3]}, "uniqueid": "MTK3039:3NPI0JQDAPC8KUMNOL24V7NIEECPTQ", "dateTime": 1519672080903}, {"current_trial": 10, "trialdata": {"rt": -1, "trial_type": "single-stim", "stimulus": "<p id=\"stim\">10</p>", "internal_node_id": "0.0-10.0-0.0", "time_elapsed": 188248, "key_press": -1, "trial_index": 10}, "uniqueid": "MTK3039:3NPI0JQDAPC8KUMNOL24V7NIEECPTQ", "dateTime": 1519672083931}, {"current_trial": 11, "trialdata": {"rt": -1, "trial_type": "single-stim", "stimulus": "<p id=\"stim\">9</p>", "internal_node_id": "0.0-10.0-1.0", "time_elapsed": 189250, "key_press": -1, "trial_index": 11}, "uniqueid": "MTK3039:3NPI0JQDAPC8KUMNOL24V7NIEECPTQ", "dateTime": 1519672084933}, {"current_trial": 12, "trialdata": {"rt": -1, "trial_type": "single-stim", "stimulus": "<p id=\"stim\">8</p>", "internal_node_id": "0.0-10.0-2.0", "time_elapsed": 190246, "key_press": -1, "trial_index": 12}, "uniqueid": "MTK3039:3NPI0JQDAPC8KUMNOL24V7NIEECPTQ", "dateTime": 1519672085929}, {"current_trial": 13, "trialdata": {"rt": -1, "trial_type": "single-stim", "stimulus": "<p id=\"stim\">7</p>", "internal_node_id": "0.0-10.0-3.0", "time_elapsed": 191243, "key_press": -1, "trial_index": 13}, "uniqueid": "MTK3039:3NPI0JQDAPC8KUMNOL24V7NIEECPTQ", "dateTime": 1519672086926}, {"current_trial": 14, "trialdata": {"rt": -1, "trial_type": "single-stim", "stimulus": "<p id=\"stim\">6</p>", "internal_node_id": "0.0-10.0-4.0", "time_elapsed": 192242, "key_press": -1, "trial_index": 14}, "uniqueid": "MTK3039:3NPI0JQDAPC8KUMNOL24V7NIEECPTQ", "dateTime": 1519672087925}, {"current_trial": 15, "trialdata": {"rt": -1, "trial_type": "single-stim", "stimulus": "<p id=\"stim\">5</p>", "internal_node_id": "0.0-10.0-5.0", "time_elapsed": 193240, "key_press": -1, "trial_index": 15}, "uniqueid": "MTK3039:3NPI0JQDAPC8KUMNOL24V7NIEECPTQ", "dateTime": 1519672088923}, {"current_trial": 16, "trialdata": {"rt": -1, "trial_type": "single-stim", "stimulus": "<p id=\"stim\">4</p>", "internal_node_id": "0.0-10.0-6.0", "time_elapsed": 194237, "key_press": -1, "trial_index": 16}, "uniqueid": "MTK3039:3NPI0JQDAPC8KUMNOL24V7NIEECPTQ", "dateTime": 1519672089920}, {"current_trial": 17, "trialdata": {"rt": -1, "trial_type": "single-stim", "stimulus": "<p id=\"stim\">3</p>", "internal_node_id": "0.0-10.0-7.0", "time_elapsed": 195251, "key_press": -1, "trial_index": 17}, "uniqueid": "MTK3039:3NPI0JQDAPC8KUMNOL24V7NIEECPTQ", "dateTime": 1519672090934}, {"current_trial": 18, "trialdata": {"rt": -1, "trial_type": "single-stim", "stimulus": "<p id=\"stim\">2</p>", "internal_node_id": "0.0-10.0-8.0", "time_elapsed": 196236, "key_press": -1, "trial_index": 18}, "uniqueid": "MTK3039:3NPI0JQDAPC8KUMNOL24V7NIEECPTQ", "dateTime": 1519672091919}, {"current_trial": 19, "trialdata": {"rt": -1, "trial_type": "single-stim", "stimulus": "<p id=\"stim\">1</p>", "internal_node_id": "0.0-10.0-9.0", "time_elapsed": 197248, "key_press": -1, "trial_index": 19}, "uniqueid": "MTK3039:3NPI0JQDAPC8KUMNOL24V7NIEECPTQ", "dateTime": 1519672092932}, {"current_trial": 20, "trialdata": {"rt": -1, "trial_type": "single-stim", "stimulus": "<p id=\"stim\">+</p>", "internal_node_id": "0.0-11.0-0.0", "time_elapsed": 198762, "key_press": -1, "type": "FIXATION", "trial_index": 20}, "uniqueid": "MTK3039:3NPI0JQDAPC8KUMNOL24V7NIEECPTQ", "dateTime": 1519672094446}, {"current_trial": 21, "trialdata": {"rt": -1, "trial_type": "single-stim", "word": "jello", "stimulus": "<p id=\"stim\">JELLO</p>", "conditions": [18, 1200, "v", 18000], "internal_node_id": "0.0-12.0", "trial": 0, "time_elapsed": 199963, "serialpos": 0, "key_press": -1, "wordID": 753, "type": "PRES_VIS", "trial_index": 21}, "uniqueid": "MTK3039:3NPI0JQDAPC8KUMNOL24V7NIEECPTQ", "dateTime": 1519672095646}, {"current_trial": 22, "trialdata": {"rt": -1, "trial_type": "single-stim", "word": "stamp", "stimulus": "<p id=\"stim\">STAMP</p>", "conditions": [18, 1200, "v", 18000], "internal_node_id": "0.0-13.0", "trial": 0, "time_elapsed": 202232, "serialpos": 1, "key_press": -1, "wordID": 1369, "type": "PRES_VIS", "trial_index": 22}, "uniqueid": "MTK3039:3NPI0JQDAPC8KUMNOL24V7NIEECPTQ", "dateTime": 1519672097915}, {"current_trial": 23, "trialdata": {"rt": -1, "trial_type": "single-stim", "word": "lady", "stimulus": "<p id=\"stim\">LADY</p>", "conditions": [18, 1200, "v", 18000], "internal_node_id": "0.0-14.0", "trial": 0, "time_elapsed": 204498, "serialpos": 2, "key_press": -1, "wordID": 793, "type": "PRES_VIS", "trial_index": 23}, "uniqueid": "MTK3039:3NPI0JQDAPC8KUMNOL24V7NIEECPTQ", "dateTime": 1519672100181}, {"current_trial": 24, "trialdata": {"rt": -1, "trial_type": "single-stim", "word": "nomad", "stimulus": "<p id=\"stim\">NOMAD</p>", "conditions": [18, 1200, "v", 18000], "internal_node_id": "0.0-15.0", "trial": 0, "time_elapsed": 206667, "serialpos": 3, "key_press": -1, "wordID": 954, "type": "PRES_VIS", "trial_index": 24}, "uniqueid": "MTK3039:3NPI0JQDAPC8KUMNOL24V7NIEECPTQ", "dateTime": 1519672102350}, {"current_trial": 25, "trialdata": {"rt": -1, "trial_type": "single-stim", "word": "human", "stimulus": "<p id=\"stim\">HUMAN</p>", "conditions": [18, 1200, "v", 18000], "internal_node_id": "0.0-16.0", "trial": 0, "time_elapsed": 208729, "serialpos": 4, "key_press": -1, "wordID": 725, "type": "PRES_VIS", "trial_index": 25}, "uniqueid": "MTK3039:3NPI0JQDAPC8KUMNOL24V7NIEECPTQ", "dateTime": 1519672104412}, {"current_trial": 26, "trialdata": {"rt": -1, "trial_type": "single-stim", "word": "sculpture", "stimulus": "<p id=\"stim\">SCULPTURE</p>", "conditions": [18, 1200, "v", 18000], "internal_node_id": "0.0-17.0", "trial": 0, "time_elapsed": 210839, "serialpos": 5, "key_press": -1, "wordID": 1257, "type": "PRES_VIS", "trial_index": 26}, "uniqueid": "MTK3039:3NPI0JQDAPC8KUMNOL24V7NIEECPTQ", "dateTime": 1519672106522}, {"current_trial": 27, "trialdata": {"rt": -1, "trial_type": "single-stim", "word": "grave", "stimulus": "<p id=\"stim\">GRAVE</p>", "conditions": [18, 1200, "v", 18000], "internal_node_id": "0.0-18.0", "trial": 0, "time_elapsed": 213166, "serialpos": 6, "key_press": -1, "wordID": 657, "type": "PRES_VIS", "trial_index": 27}, "uniqueid": "MTK3039:3NPI0JQDAPC8KUMNOL24V7NIEECPTQ", "dateTime": 1519672108849}, {"current_trial": 28, "trialdata": {"rt": -1, "trial_type": "single-stim", "word": "quarter", "stimulus": "<p id=\"stim\">QUARTER</p>", "conditions": [18, 1200, "v", 18000], "internal_node_id": "0.0-19.0", "trial": 0, "time_elapsed": 215537, "serialpos": 7, "key_press": -1, "wordID": 1147, "type": "PRES_VIS", "trial_index": 28}, "uniqueid": "MTK3039:3NPI0JQDAPC8KUMNOL24V7NIEECPTQ", "dateTime": 1519672111220}, {"current_trial": 29, "trialdata": {"rt": -1, "trial_type": "single-stim", "word": "diver", "stimulus": "<p id=\"stim\">DIVER</p>", "conditions": [18, 1200, "v", 18000], "internal_node_id": "0.0-20.0", "trial": 0, "time_elapsed": 217690, "serialpos": 8, "key_press": -1, "wordID": 475, "type": "PRES_VIS", "trial_index": 29}, "uniqueid": "MTK3039:3NPI0JQDAPC8KUMNOL24V7NIEECPTQ", "dateTime": 1519672113373}, {"current_trial": 30, "trialdata": {"rt": -1, "trial_type": "single-stim", "word": "grape", "stimulus": "<p id=\"stim\">GRAPE</p>", "conditions": [18, 1200, "v", 18000], "internal_node_id": "0.0-21.0", "trial": 0, "time_elapsed": 220096, "serialpos": 9, "key_press": -1, "wordID": 653, "type": "PRES_VIS", "trial_index": 30}, "uniqueid": "MTK3039:3NPI0JQDAPC8KUMNOL24V7NIEECPTQ", "dateTime": 1519672115779}, {"current_trial": 31, "trialdata": {"rt": -1, "trial_type": "single-stim", "word": "partner", "stimulus": "<p id=\"stim\">PARTNER</p>", "conditions": [18, 1200, "v", 18000], "internal_node_id": "0.0-22.0", "trial": 0, "time_elapsed": 222311, "serialpos": 10, "key_press": -1, "wordID": 1016, "type": "PRES_VIS", "trial_index": 31}, "uniqueid": "MTK3039:3NPI0JQDAPC8KUMNOL24V7NIEECPTQ", "dateTime": 1519672117994}, {"current_trial": 32, "trialdata": {"rt": -1, "trial_type": "single-stim", "word": "salt", "stimulus": "<p id=\"stim\">SALT</p>", "conditions": [18, 1200, "v", 18000], "internal_node_id": "0.0-23.0", "trial": 0, "time_elapsed": 224356, "serialpos": 11, "key_press": -1, "wordID": 1228, "type": "PRES_VIS", "trial_index": 32}, "uniqueid": "MTK3039:3NPI0JQDAPC8KUMNOL24V7NIEECPTQ", "dateTime": 1519672120039}, {"current_trial": 33, "trialdata": {"rt": -1, "trial_type": "single-stim", "word": "army", "stimulus": "<p id=\"stim\">ARMY</p>", "conditions": [18, 1200, "v", 18000], "internal_node_id": "0.0-24.0", "trial": 0, "time_elapsed": 226431, "serialpos": 12, "key_press": -1, "wordID": 38, "type": "PRES_VIS", "trial_index": 33}, "uniqueid": "MTK3039:3NPI0JQDAPC8KUMNOL24V7NIEECPTQ", "dateTime": 1519672122115}, {"current_trial": 34, "trialdata": {"rt": -1, "trial_type": "single-stim", "word": "braces", "stimulus": "<p id=\"stim\">BRACES</p>", "conditions": [18, 1200, "v", 18000], "internal_node_id": "0.0-25.0", "trial": 0, "time_elapsed": 228709, "serialpos": 13, "key_press": -1, "wordID": 163, "type": "PRES_VIS", "trial_index": 34}, "uniqueid": "MTK3039:3NPI0JQDAPC8KUMNOL24V7NIEECPTQ", "dateTime": 1519672124392}, {"current_trial": 35, "trialdata": {"rt": -1, "trial_type": "single-stim", "word": "bullet", "stimulus": "<p id=\"stim\">BULLET</p>", "conditions": [18, 1200, "v", 18000], "internal_node_id": "0.0-26.0", "trial": 0, "time_elapsed": 231116, "serialpos": 14, "key_press": -1, "wordID": 193, "type": "PRES_VIS", "trial_index": 35}, "uniqueid": "MTK3039:3NPI0JQDAPC8KUMNOL24V7NIEECPTQ", "dateTime": 1519672126799}, {"current_trial": 36, "trialdata": {"rt": -1, "trial_type": "single-stim", "word": "baby", "stimulus": "<p id=\"stim\">BABY</p>", "conditions": [18, 1200, "v", 18000], "internal_node_id": "0.0-27.0", "trial": 0, "time_elapsed": 233162, "serialpos": 15, "key_press": -1, "wordID": 63, "type": "PRES_VIS", "trial_index": 36}, "uniqueid": "MTK3039:3NPI0JQDAPC8KUMNOL24V7NIEECPTQ", "dateTime": 1519672128845}, {"current_trial": 37, "trialdata": {"rt": -1, "trial_type": "single-stim", "word": "viking", "stimulus": "<p id=\"stim\">VIKING</p>", "conditions": [18, 1200, "v", 18000], "internal_node_id": "0.0-28.0", "trial": 0, "time_elapsed": 235236, "serialpos": 16, "key_press": -1, "wordID": 1564, "type": "PRES_VIS", "trial_index": 37}, "uniqueid": "MTK3039:3NPI0JQDAPC8KUMNOL24V7NIEECPTQ", "dateTime": 1519672130919}, {"current_trial": 38, "trialdata": {"rt": -1, "trial_type": "single-stim", "word": "machine", "stimulus": "<p id=\"stim\">MACHINE</p>", "conditions": [18, 1200, "v", 18000], "internal_node_id": "0.0-29.0", "trial": 0, "time_elapsed": 237469, "serialpos": 17, "key_press": -1, "wordID": 851, "type": "PRES_VIS", "trial_index": 38}, "uniqueid": "MTK3039:3NPI0JQDAPC8KUMNOL24V7NIEECPTQ", "dateTime": 1519672133152}, {"current_trial": 39, "trialdata": {"rt": -1, "trial_type": "single-stim", "stimulus": "", "internal_node_id": "0.0-30.0-0.0", "time_elapsed": 240062, "key_press": -1, "type": "PRE_RECALL_DELAY", "trial_index": 39}, "uniqueid": "MTK3039:3NPI0JQDAPC8KUMNOL24V7NIEECPTQ", "dateTime": 1519672135745}, {"current_trial": 40, "trialdata": {"rt": -1000, "trial_type": "single-audio", "stimulus": "/static/audio/400Hz.wav", "internal_node_id": "0.0-31.0", "time_elapsed": 240641, "key_press": -1, "type": "PRE_RECALL_ALERT", "trial_index": 40}, "uniqueid": "MTK3039:3NPI0JQDAPC8KUMNOL24V7NIEECPTQ", "dateTime": 1519672136324}, {"current_trial": 41, "trialdata": {"rt": [4316, 6275, 9290, 12276, 14171, 17082, 19045, 22986, 27060, 30763, 33707, 35255, 42903, 52989], "recwords": ["baby", "bullet", "machine", "braces", "viking", "jello", "stamp", "human", "salt", "scalp", "lady", "baby", "army", "madam"], "key_times": [3016, 3255, 3335, 3613, 4316, 4847, 5110, 5376, 5546, 5821, 6068, 6275, 6624, 6781, 7012, 7352, 7571, 7802, 8274, 9290, 10546, 10804, 11013, 11262, 11500, 11741, 12276, 12790, 13024, 13258, 13468, 13679, 13906, 14171, 15745, 15973, 16205, 16421, 16649, 17082, 17607, 17827, 18014, 18292, 18672, 19045, 21192, 21401, 21719, 22047, 22593, 22986, 24855, 25052, 25853, 26773, 27060, 29502, 29721, 29920, 30180, 30430, 30763, 32506, 32666, 33102, 33312, 33707, 34186, 34362, 34463, 34802, 35255, 39868, 40228, 41146, 42502, 42903, 51856, 52050, 52202, 52409, 52596, 52989], "trial_type": "free-recall", "conditions": [18, 1200, "v", 18000], "internal_node_id": "0.0-32.0-0.0", "key_presses": [66, 65, 66, 89, 13, 66, 85, 76, 76, 69, 84, 13, 77, 65, 67, 72, 73, 78, 69, 13, 66, 82, 65, 67, 69, 83, 13, 86, 73, 75, 73, 78, 71, 13, 74, 69, 76, 76, 79, 13, 83, 84, 65, 77, 80, 13, 72, 85, 77, 65, 78, 13, 83, 65, 76, 84, 13, 83, 67, 65, 76, 80, 13, 76, 65, 68, 89, 13, 66, 65, 66, 89, 13, 65, 82, 77, 89, 13, 77, 65, 68, 65, 77, 13], "trial": 0, "time_elapsed": 300654, "type": "FREE_RECALL", "trial_index": 41}, "uniqueid": "MTK3039:3NPI0JQDAPC8KUMNOL24V7NIEECPTQ", "dateTime": 1519672196341}, {"current_trial": 42, "trialdata": {"rt": 1501, "trial_type": "text", "internal_node_id": "0.0-33.0", "time_elapsed": 304159, "key_press": 13, "type": "INSTRUCTIONS", "trial_index": 42}, "uniqueid": "MTK3039:3NPI0JQDAPC8KUMNOL24V7NIEECPTQ", "dateTime": 1519672199842}, {"current_trial": 43, "trialdata": {"rt": [2459, 4197, 6799, 9030, 12204, 15382, 17694], "trial_type": "math-distractor", "key_times": [1850, 2140, 2459, 3514, 3823, 4197, 6464, 6799, 8243, 8710, 9030, 11189, 11848, 12204, 14895, 15090, 15382, 16915, 17370, 17694], "responses": ["18", "14", "8", "10", "10", "22", "19"], "num2": [7, 5, 2, 2, 1, 8, 9, 8], "num3": [3, 4, 5, 2, 6, 8, 9, 8], "conditions": [18, 1200, "v", 18000], "internal_node_id": "0.0-34.0", "key_presses": [49, 56, 13, 49, 52, 13, 56, 13, 49, 48, 13, 49, 48, 13, 50, 50, 13, 49, 57, 13], "trial": 1, "time_elapsed": 324172, "type": "DISTRACTOR", "trial_index": 43, "num1": [8, 5, 1, 6, 3, 6, 1, 2]}, "uniqueid": "MTK3039:3NPI0JQDAPC8KUMNOL24V7NIEECPTQ", "dateTime": 1519672219855}, {"current_trial": 44, "trialdata": {"rt": -1, "trial_type": "single-stim", "stimulus": "<p id=\"stim\">10</p>", "internal_node_id": "0.0-35.0-0.0", "time_elapsed": 327202, "key_press": -1, "trial_index": 44}, "uniqueid": "MTK3039:3NPI0JQDAPC8KUMNOL24V7NIEECPTQ", "dateTime": 1519672222885}, {"current_trial": 45, "trialdata": {"rt": -1, "trial_type": "single-stim", "stimulus": "<p id=\"stim\">9</p>", "internal_node_id": "0.0-35.0-1.0", "time_elapsed": 328202, "key_press": -1, "trial_index": 45}, "uniqueid": "MTK3039:3NPI0JQDAPC8KUMNOL24V7NIEECPTQ", "dateTime": 1519672223885}, {"current_trial": 46, "trialdata": {"rt": -1, "trial_type": "single-stim", "stimulus": "<p id=\"stim\">8</p>", "internal_node_id": "0.0-35.0-2.0", "time_elapsed": 329203, "key_press": -1, "trial_index": 46}, "uniqueid": "MTK3039:3NPI0JQDAPC8KUMNOL24V7NIEECPTQ", "dateTime": 1519672224886}, {"current_trial": 47, "trialdata": {"rt": -1, "trial_type": "single-stim", "stimulus": "<p id=\"stim\">7</p>", "internal_node_id": "0.0-35.0-3.0", "time_elapsed": 330203, "key_press": -1, "trial_index": 47}, "uniqueid": "MTK3039:3NPI0JQDAPC8KUMNOL24V7NIEECPTQ", "dateTime": 1519672225886}, {"current_trial": 48, "trialdata": {"rt": -1, "trial_type": "single-stim", "stimulus": "<p id=\"stim\">6</p>", "internal_node_id": "0.0-35.0-4.0", "time_elapsed": 331203, "key_press": -1, "trial_index": 48}, "uniqueid": "MTK3039:3NPI0JQDAPC8KUMNOL24V7NIEECPTQ", "dateTime": 1519672226886}, {"current_trial": 49, "trialdata": {"rt": -1, "trial_type": "single-stim", "stimulus": "<p id=\"stim\">5</p>", "internal_node_id": "0.0-35.0-5.0", "time_elapsed": 332202, "key_press": -1, "trial_index": 49}, "uniqueid": "MTK3039:3NPI0JQDAPC8KUMNOL24V7NIEECPTQ", "dateTime": 1519672227885}, {"current_trial": 50, "trialdata": {"rt": -1, "trial_type": "single-stim", "stimulus": "<p id=\"stim\">4</p>", "internal_node_id": "0.0-35.0-6.0", "time_elapsed": 333203, "key_press": -1, "trial_index": 50}, "uniqueid": "MTK3039:3NPI0JQDAPC8KUMNOL24V7NIEECPTQ", "dateTime": 1519672228886}, {"current_trial": 51, "trialdata": {"rt": -1, "trial_type": "single-stim", "stimulus": "<p id=\"stim\">3</p>", "internal_node_id": "0.0-35.0-7.0", "time_elapsed": 334201, "key_press": -1, "trial_index": 51}, "uniqueid": "MTK3039:3NPI0JQDAPC8KUMNOL24V7NIEECPTQ", "dateTime": 1519672229884}, {"current_trial": 52, "trialdata": {"rt": -1, "trial_type": "single-stim", "stimulus": "<p id=\"stim\">2</p>", "internal_node_id": "0.0-35.0-8.0", "time_elapsed": 335199, "key_press": -1, "trial_index": 52}, "uniqueid": "MTK3039:3NPI0JQDAPC8KUMNOL24V7NIEECPTQ", "dateTime": 1519672230882}, {"current_trial": 53, "trialdata": {"rt": -1, "trial_type": "single-stim", "stimulus": "<p id=\"stim\">1</p>", "internal_node_id": "0.0-35.0-9.0", "time_elapsed": 336199, "key_press": -1, "trial_index": 53}, "uniqueid": "MTK3039:3NPI0JQDAPC8KUMNOL24V7NIEECPTQ", "dateTime": 1519672231882}, {"current_trial": 54, "trialdata": {"rt": -1, "trial_type": "single-stim", "stimulus": "<p id=\"stim\">+</p>", "internal_node_id": "0.0-36.0-0.0", "time_elapsed": 337713, "key_press": -1, "type": "FIXATION", "trial_index": 54}, "uniqueid": "MTK3039:3NPI0JQDAPC8KUMNOL24V7NIEECPTQ", "dateTime": 1519672233397}, {"current_trial": 55, "trialdata": {"rt": -1, "trial_type": "single-stim", "word": "empire", "stimulus": "<p id=\"stim\">EMPIRE</p>", "conditions": [18, 1200, "v", 18000], "internal_node_id": "0.0-37.0", "trial": 1, "time_elapsed": 338916, "serialpos": 0, "key_press": -1, "wordID": 529, "type": "PRES_VIS", "trial_index": 55}, "uniqueid": "MTK3039:3NPI0JQDAPC8KUMNOL24V7NIEECPTQ", "dateTime": 1519672234600}, {"current_trial": 56, "trialdata": {"rt": -1, "trial_type": "single-stim", "word": "hook", "stimulus": "<p id=\"stim\">HOOK</p>", "conditions": [18, 1200, "v", 18000], "internal_node_id": "0.0-38.0", "trial": 1, "time_elapsed": 341069, "serialpos": 1, "key_press": -1, "wordID": 714, "type": "PRES_VIS", "trial_index": 56}, "uniqueid": "MTK3039:3NPI0JQDAPC8KUMNOL24V7NIEECPTQ", "dateTime": 1519672236752}, {"current_trial": 57, "trialdata": {"rt": -1, "trial_type": "single-stim", "word": "canal", "stimulus": "<p id=\"stim\">CANAL</p>", "conditions": [18, 1200, "v", 18000], "internal_node_id": "0.0-39.0", "trial": 1, "time_elapsed": 343083, "serialpos": 2, "key_press": -1, "wordID": 225, "type": "PRES_VIS", "trial_index": 57}, "uniqueid": "MTK3039:3NPI0JQDAPC8KUMNOL24V7NIEECPTQ", "dateTime": 1519672238766}, {"current_trial": 58, "trialdata": {"rt": -1, "trial_type": "single-stim", "word": "pocket", "stimulus": "<p id=\"stim\">POCKET</p>", "conditions": [18, 1200, "v", 18000], "internal_node_id": "0.0-40.0", "trial": 1, "time_elapsed": 345098, "serialpos": 3, "key_press": -1, "wordID": 1092, "type": "PRES_VIS", "trial_index": 58}, "uniqueid": "MTK3039:3NPI0JQDAPC8KUMNOL24V7NIEECPTQ", "dateTime": 1519672240781}, {"current_trial": 59, "trialdata": {"rt": -1, "trial_type": "single-stim", "word": "valley", "stimulus": "<p id=\"stim\">VALLEY</p>", "conditions": [18, 1200, "v", 18000], "internal_node_id": "0.0-41.0", "trial": 1, "time_elapsed": 347282, "serialpos": 4, "key_press": -1, "wordID": 1544, "type": "PRES_VIS", "trial_index": 59}, "uniqueid": "MTK3039:3NPI0JQDAPC8KUMNOL24V7NIEECPTQ", "dateTime": 1519672242965}, {"current_trial": 60, "trialdata": {"rt": -1, "trial_type": "single-stim", "word": "shortcake", "stimulus": "<p id=\"stim\">SHORTCAKE</p>", "conditions": [18, 1200, "v", 18000], "internal_node_id": "0.0-42.0", "trial": 1, "time_elapsed": 349407, "serialpos": 5, "key_press": -1, "wordID": 1291, "type": "PRES_VIS", "trial_index": 60}, "uniqueid": "MTK3039:3NPI0JQDAPC8KUMNOL24V7NIEECPTQ", "dateTime": 1519672245090}, {"current_trial": 61, "trialdata": {"rt": -1, "trial_type": "single-stim", "word": "guitar", "stimulus": "<p id=\"stim\">GUITAR</p>", "conditions": [18, 1200, "v", 18000], "internal_node_id": "0.0-43.0", "trial": 1, "time_elapsed": 351817, "serialpos": 6, "key_press": -1, "wordID": 669, "type": "PRES_VIS", "trial_index": 61}, "uniqueid": "MTK3039:3NPI0JQDAPC8KUMNOL24V7NIEECPTQ", "dateTime": 1519672247500}, {"current_trial": 62, "trialdata": {"rt": -1, "trial_type": "single-stim", "word": "hawk", "stimulus": "<p id=\"stim\">HAWK</p>", "conditions": [18, 1200, "v", 18000], "internal_node_id": "0.0-44.0", "trial": 1, "time_elapsed": 354157, "serialpos": 7, "key_press": -1, "wordID": 691, "type": "PRES_VIS", "trial_index": 62}, "uniqueid": "MTK3039:3NPI0JQDAPC8KUMNOL24V7NIEECPTQ", "dateTime": 1519672249841}, {"current_trial": 63, "trialdata": {"rt": -1, "trial_type": "single-stim", "word": "dentist", "stimulus": "<p id=\"stim\">DENTIST</p>", "conditions": [18, 1200, "v", 18000], "internal_node_id": "0.0-45.0", "trial": 1, "time_elapsed": 356486, "serialpos": 8, "key_press": -1, "wordID": 446, "type": "PRES_VIS", "trial_index": 63}, "uniqueid": "MTK3039:3NPI0JQDAPC8KUMNOL24V7NIEECPTQ", "dateTime": 1519672252169}, {"current_trial": 64, "trialdata": {"rt": -1, "trial_type": "single-stim", "word": "pecan", "stimulus": "<p id=\"stim\">PECAN</p>", "conditions": [18, 1200, "v", 18000], "internal_node_id": "0.0-46.0", "trial": 1, "time_elapsed": 358688, "serialpos": 9, "key_press": -1, "wordID": 1035, "type": "PRES_VIS", "trial_index": 64}, "uniqueid": "MTK3039:3NPI0JQDAPC8KUMNOL24V7NIEECPTQ", "dateTime": 1519672254371}, {"current_trial": 65, "trialdata": {"rt": -1, "trial_type": "single-stim", "word": "paper", "stimulus": "<p id=\"stim\">PAPER</p>", "conditions": [18, 1200, "v", 18000], "internal_node_id": "0.0-47.0", "trial": 1, "time_elapsed": 360816, "serialpos": 10, "key_press": -1, "wordID": 1010, "type": "PRES_VIS", "trial_index": 65}, "uniqueid": "MTK3039:3NPI0JQDAPC8KUMNOL24V7NIEECPTQ", "dateTime": 1519672256499}, {"current_trial": 66, "trialdata": {"rt": -1, "trial_type": "single-stim", "word": "victim", "stimulus": "<p id=\"stim\">VICTIM</p>", "conditions": [18, 1200, "v", 18000], "internal_node_id": "0.0-48.0", "trial": 1, "time_elapsed": 362877, "serialpos": 11, "key_press": -1, "wordID": 1561, "type": "PRES_VIS", "trial_index": 66}, "uniqueid": "MTK3039:3NPI0JQDAPC8KUMNOL24V7NIEECPTQ", "dateTime": 1519672258560}, {"current_trial": 67, "trialdata": {"rt": -1, "trial_type": "single-stim", "word": "buggy", "stimulus": "<p id=\"stim\">BUGGY</p>", "conditions": [18, 1200, "v", 18000], "internal_node_id": "0.0-49.0", "trial": 1, "time_elapsed": 365128, "serialpos": 12, "key_press": -1, "wordID": 187, "type": "PRES_VIS", "trial_index": 67}, "uniqueid": "MTK3039:3NPI0JQDAPC8KUMNOL24V7NIEECPTQ", "dateTime": 1519672260811}, {"current_trial": 68, "trialdata": {"rt": -1, "trial_type": "single-stim", "word": "witness", "stimulus": "<p id=\"stim\">WITNESS</p>", "conditions": [18, 1200, "v", 18000], "internal_node_id": "0.0-50.0", "trial": 1, "time_elapsed": 367360, "serialpos": 13, "key_press": -1, "wordID": 1617, "type": "PRES_VIS", "trial_index": 68}, "uniqueid": "MTK3039:3NPI0JQDAPC8KUMNOL24V7NIEECPTQ", "dateTime": 1519672263043}, {"current_trial": 69, "trialdata": {"rt": -1, "trial_type": "single-stim", "word": "casket", "stimulus": "<p id=\"stim\">CASKET</p>", "conditions": [18, 1200, "v", 18000], "internal_node_id": "0.0-51.0", "trial": 1, "time_elapsed": 369765, "serialpos": 14, "key_press": -1, "wordID": 254, "type": "PRES_VIS", "trial_index": 69}, "uniqueid": "MTK3039:3NPI0JQDAPC8KUMNOL24V7NIEECPTQ", "dateTime": 1519672265448}, {"current_trial": 70, "trialdata": {"rt": -1, "trial_type": "single-stim", "word": "balloon", "stimulus": "<p id=\"stim\">BALLOON</p>", "conditions": [18, 1200, "v", 18000], "internal_node_id": "0.0-52.0", "trial": 1, "time_elapsed": 371890, "serialpos": 15, "key_press": -1, "wordID": 74, "type": "PRES_VIS", "trial_index": 70}, "uniqueid": "MTK3039:3NPI0JQDAPC8KUMNOL24V7NIEECPTQ", "dateTime": 1519672267573}, {"current_trial": 71, "trialdata": {"rt": -1, "trial_type": "single-stim", "word": "bank", "stimulus": "<p id=\"stim\">BANK</p>", "conditions": [18, 1200, "v", 18000], "internal_node_id": "0.0-53.0", "trial": 1, "time_elapsed": 374043, "serialpos": 16, "key_press": -1, "wordID": 82, "type": "PRES_VIS", "trial_index": 71}, "uniqueid": "MTK3039:3NPI0JQDAPC8KUMNOL24V7NIEECPTQ", "dateTime": 1519672269726}, {"current_trial": 72, "trialdata": {"rt": -1, "trial_type": "single-stim", "word": "typist", "stimulus": "<p id=\"stim\">TYPIST</p>", "conditions": [18, 1200, "v", 18000], "internal_node_id": "0.0-54.0", "trial": 1, "time_elapsed": 376119, "serialpos": 17, "key_press": -1, "wordID": 1531, "type": "PRES_VIS", "trial_index": 72}, "uniqueid": "MTK3039:3NPI0JQDAPC8KUMNOL24V7NIEECPTQ", "dateTime": 1519672271802}, {"current_trial": 73, "trialdata": {"rt": -1, "trial_type": "single-stim", "stimulus": "", "internal_node_id": "0.0-55.0-0.0", "time_elapsed": 378305, "key_press": -1, "type": "PRE_RECALL_DELAY", "trial_index": 73}, "uniqueid": "MTK3039:3NPI0JQDAPC8KUMNOL24V7NIEECPTQ", "dateTime": 1519672273988}, {"current_trial": 74, "trialdata": {"rt": -1000, "trial_type": "single-audio", "stimulus": "/static/audio/400Hz.wav", "internal_node_id": "0.0-56.0", "time_elapsed": 378820, "key_press": -1, "type": "PRE_RECALL_ALERT", "trial_index": 74}, "uniqueid": "MTK3039:3NPI0JQDAPC8KUMNOL24V7NIEECPTQ", "dateTime": 1519672274503}, {"current_trial": 75, "trialdata": {"rt": [3460, 7989, 9741, 12624, 16630, 19553, 21652, 24814, 26831, 31584, 41017, 48302, 52997], "recwords": ["empire", "witness", "casket", "blloon", "pocket", "cake", "pecan", "paper", "victim", "empire", "banl", "pocket", "cake"], "key_times": [2083, 2248, 2528, 2765, 3131, 3337, 3460, 5729, 5983, 6891, 7163, 7317, 7642, 7820, 7989, 8289, 8492, 8751, 9009, 9215, 9481, 9741, 10311, 10759, 10908, 11311, 11483, 11692, 11895, 12206, 12624, 15149, 15354, 15674, 15953, 16135, 16358, 16630, 18756, 18971, 19136, 19324, 19553, 20182, 20403, 20764, 20986, 21293, 21652, 23843, 24008, 24094, 24337, 24476, 24814, 25344, 25565, 25756, 26136, 26205, 26460, 26831, 29542, 29727, 30002, 30245, 30706, 30955, 31584, 38934, 39283, 39476, 39730, 40367, 40667, 41017, 46809, 46997, 47195, 47394, 47535, 47790, 48302, 52089, 52347, 52496, 52664, 52997], "trial_type": "free-recall", "conditions": [18, 1200, "v", 18000], "internal_node_id": "0.0-57.0-0.0", "key_presses": [69, 77, 80, 73, 82, 69, 13, 87, 73, 84, 78, 69, 83, 83, 13, 67, 65, 83, 75, 69, 84, 13, 78, 8, 66, 76, 76, 79, 79, 78, 13, 80, 79, 67, 75, 69, 84, 13, 67, 65, 75, 69, 13, 80, 69, 67, 65, 78, 13, 80, 65, 80, 69, 82, 13, 86, 73, 67, 84, 73, 77, 13, 69, 77, 80, 73, 82, 69, 13, 86, 8, 66, 65, 78, 76, 13, 80, 79, 67, 75, 69, 84, 13, 67, 65, 75, 69, 13], "trial": 1, "time_elapsed": 438828, "type": "FREE_RECALL", "trial_index": 75}, "uniqueid": "MTK3039:3NPI0JQDAPC8KUMNOL24V7NIEECPTQ", "dateTime": 1519672334514}, {"current_trial": 76, "trialdata": {"rt": 1841, "trial_type": "text", "internal_node_id": "0.0-58.0", "time_elapsed": 442686, "key_press": 13, "type": "INSTRUCTIONS", "trial_index": 76}, "uniqueid": "MTK3039:3NPI0JQDAPC8KUMNOL24V7NIEECPTQ", "dateTime": 1519672338369}, {"current_trial": 77, "trialdata": {"rt": [3633, 6656, 10463], "trial_type": "math-distractor", "key_times": [2847, 3277, 3633, 5975, 6273, 6656, 9900, 10178, 10463], "responses": ["25", "17", "13"], "num2": [9, 6, 2, 3], "num3": [7, 9, 6, 5], "conditions": [12, 800, "v", 12000], "internal_node_id": "0.0-59.0", "key_presses": [50, 53, 13, 49, 55, 13, 49, 51, 13], "trial": 2, "time_elapsed": 455709, "type": "DISTRACTOR", "trial_index": 77, "num1": [9, 2, 5, 9]}, "uniqueid": "MTK3039:3NPI0JQDAPC8KUMNOL24V7NIEECPTQ", "dateTime": 1519672351392}, {"current_trial": 78, "trialdata": {"rt": -1, "trial_type": "single-stim", "stimulus": "<p id=\"stim\">10</p>", "internal_node_id": "0.0-60.0-0.0", "time_elapsed": 458725, "key_press": -1, "trial_index": 78}, "uniqueid": "MTK3039:3NPI0JQDAPC8KUMNOL24V7NIEECPTQ", "dateTime": 1519672354408}, {"current_trial": 79, "trialdata": {"rt": -1, "trial_type": "single-stim", "stimulus": "<p id=\"stim\">9</p>", "internal_node_id": "0.0-60.0-1.0", "time_elapsed": 459725, "key_press": -1, "trial_index": 79}, "uniqueid": "MTK3039:3NPI0JQDAPC8KUMNOL24V7NIEECPTQ", "dateTime": 1519672355408}, {"current_trial": 80, "trialdata": {"rt": -1, "trial_type": "single-stim", "stimulus": "<p id=\"stim\">8</p>", "internal_node_id": "0.0-60.0-2.0", "time_elapsed": 460726, "key_press": -1, "trial_index": 80}, "uniqueid": "MTK3039:3NPI0JQDAPC8KUMNOL24V7NIEECPTQ", "dateTime": 1519672356409}, {"current_trial": 81, "trialdata": {"rt": -1, "trial_type": "single-stim", "stimulus": "<p id=\"stim\">7</p>", "internal_node_id": "0.0-60.0-3.0", "time_elapsed": 461724, "key_press": -1, "trial_index": 81}, "uniqueid": "MTK3039:3NPI0JQDAPC8KUMNOL24V7NIEECPTQ", "dateTime": 1519672357407}, {"current_trial": 82, "trialdata": {"rt": -1, "trial_type": "single-stim", "stimulus": "<p id=\"stim\">6</p>", "internal_node_id": "0.0-60.0-4.0", "time_elapsed": 462724, "key_press": -1, "trial_index": 82}, "uniqueid": "MTK3039:3NPI0JQDAPC8KUMNOL24V7NIEECPTQ", "dateTime": 1519672358407}, {"current_trial": 83, "trialdata": {"rt": -1, "trial_type": "single-stim", "stimulus": "<p id=\"stim\">5</p>", "internal_node_id": "0.0-60.0-5.0", "time_elapsed": 463722, "key_press": -1, "trial_index": 83}, "uniqueid": "MTK3039:3NPI0JQDAPC8KUMNOL24V7NIEECPTQ", "dateTime": 1519672359406}, {"current_trial": 84, "trialdata": {"rt": -1, "trial_type": "single-stim", "stimulus": "<p id=\"stim\">4</p>", "internal_node_id": "0.0-60.0-6.0", "time_elapsed": 464737, "key_press": -1, "trial_index": 84}, "uniqueid": "MTK3039:3NPI0JQDAPC8KUMNOL24V7NIEECPTQ", "dateTime": 1519672360420}, {"current_trial": 85, "trialdata": {"rt": -1, "trial_type": "single-stim", "stimulus": "<p id=\"stim\">3</p>", "internal_node_id": "0.0-60.0-7.0", "time_elapsed": 465735, "key_press": -1, "trial_index": 85}, "uniqueid": "MTK3039:3NPI0JQDAPC8KUMNOL24V7NIEECPTQ", "dateTime": 1519672361418}, {"current_trial": 86, "trialdata": {"rt": -1, "trial_type": "single-stim", "stimulus": "<p id=\"stim\">2</p>", "internal_node_id": "0.0-60.0-8.0", "time_elapsed": 466735, "key_press": -1, "trial_index": 86}, "uniqueid": "MTK3039:3NPI0JQDAPC8KUMNOL24V7NIEECPTQ", "dateTime": 1519672362419}, {"current_trial": 87, "trialdata": {"rt": -1, "trial_type": "single-stim", "stimulus": "<p id=\"stim\">1</p>", "internal_node_id": "0.0-60.0-9.0", "time_elapsed": 467735, "key_press": -1, "trial_index": 87}, "uniqueid": "MTK3039:3NPI0JQDAPC8KUMNOL24V7NIEECPTQ", "dateTime": 1519672363418}, {"current_trial": 88, "trialdata": {"rt": -1, "trial_type": "single-stim", "stimulus": "<p id=\"stim\">+</p>", "internal_node_id": "0.0-61.0-0.0", "time_elapsed": 469251, "key_press": -1, "type": "FIXATION", "trial_index": 88}, "uniqueid": "MTK3039:3NPI0JQDAPC8KUMNOL24V7NIEECPTQ", "dateTime": 1519672364934}, {"current_trial": 89, "trialdata": {"rt": -1, "trial_type": "single-stim", "word": "elbow", "stimulus": "<p id=\"stim\">ELBOW</p>", "conditions": [12, 800, "v", 12000], "internal_node_id": "0.0-62.0", "trial": 2, "time_elapsed": 470062, "serialpos": 0, "key_press": -1, "wordID": 519, "type": "PRES_VIS", "trial_index": 89}, "uniqueid": "MTK3039:3NPI0JQDAPC8KUMNOL24V7NIEECPTQ", "dateTime": 1519672365745}, {"current_trial": 90, "trialdata": {"rt": -1, "trial_type": "single-stim", "word": "foot", "stimulus": "<p id=\"stim\">FOOT</p>", "conditions": [12, 800, "v", 12000], "internal_node_id": "0.0-63.0", "trial": 2, "time_elapsed": 472017, "serialpos": 1, "key_press": -1, "wordID": 589, "type": "PRES_VIS", "trial_index": 90}, "uniqueid": "MTK3039:3NPI0JQDAPC8KUMNOL24V7NIEECPTQ", "dateTime": 1519672367700}, {"current_trial": 91, "trialdata": {"rt": -1, "trial_type": "single-stim", "word": "hood", "stimulus": "<p id=\"stim\">HOOD</p>", "conditions": [12, 800, "v", 12000], "internal_node_id": "0.0-64.0", "trial": 2, "time_elapsed": 473766, "serialpos": 2, "key_press": -1, "wordID": 713, "type": "PRES_VIS", "trial_index": 91}, "uniqueid": "MTK3039:3NPI0JQDAPC8KUMNOL24V7NIEECPTQ", "dateTime": 1519672369449}, {"current_trial": 92, "trialdata": {"rt": -1, "trial_type": "single-stim", "word": "banquet", "stimulus": "<p id=\"stim\">BANQUET</p>", "conditions": [12, 800, "v", 12000], "internal_node_id": "0.0-65.0", "trial": 2, "time_elapsed": 475589, "serialpos": 3, "key_press": -1, "wordID": 85, "type": "PRES_VIS", "trial_index": 92}, "uniqueid": "MTK3039:3NPI0JQDAPC8KUMNOL24V7NIEECPTQ", "dateTime": 1519672371273}, {"current_trial": 93, "trialdata": {"rt": -1, "trial_type": "single-stim", "word": "patient", "stimulus": "<p id=\"stim\">PATIENT</p>", "conditions": [12, 800, "v", 12000], "internal_node_id": "0.0-66.0", "trial": 2, "time_elapsed": 477462, "serialpos": 4, "key_press": -1, "wordID": 1023, "type": "PRES_VIS", "trial_index": 93}, "uniqueid": "MTK3039:3NPI0JQDAPC8KUMNOL24V7NIEECPTQ", "dateTime": 1519672373145}, {"current_trial": 94, "trialdata": {"rt": -1, "trial_type": "single-stim", "word": "nurse", "stimulus": "<p id=\"stim\">NURSE</p>", "conditions": [12, 800, "v", 12000], "internal_node_id": "0.0-67.0", "trial": 2, "time_elapsed": 479273, "serialpos": 5, "key_press": -1, "wordID": 962, "type": "PRES_VIS", "trial_index": 94}, "uniqueid": "MTK3039:3NPI0JQDAPC8KUMNOL24V7NIEECPTQ", "dateTime": 1519672374956}, {"current_trial": 95, "trialdata": {"rt": -1, "trial_type": "single-stim", "word": "perch", "stimulus": "<p id=\"stim\">PERCH</p>", "conditions": [12, 800, "v", 12000], "internal_node_id": "0.0-68.0", "trial": 2, "time_elapsed": 480988, "serialpos": 6, "key_press": -1, "wordID": 1047, "type": "PRES_VIS", "trial_index": 95}, "uniqueid": "MTK3039:3NPI0JQDAPC8KUMNOL24V7NIEECPTQ", "dateTime": 1519672376671}, {"current_trial": 96, "trialdata": {"rt": -1, "trial_type": "single-stim", "word": "hero", "stimulus": "<p id=\"stim\">HERO</p>", "conditions": [12, 800, "v", 12000], "internal_node_id": "0.0-69.0", "trial": 2, "time_elapsed": 482955, "serialpos": 7, "key_press": -1, "wordID": 705, "type": "PRES_VIS", "trial_index": 96}, "uniqueid": "MTK3039:3NPI0JQDAPC8KUMNOL24V7NIEECPTQ", "dateTime": 1519672378638}, {"current_trial": 97, "trialdata": {"rt": -1, "trial_type": "single-stim", "word": "supper", "stimulus": "<p id=\"stim\">SUPPER</p>", "conditions": [12, 800, "v", 12000], "internal_node_id": "0.0-70.0", "trial": 2, "time_elapsed": 484641, "serialpos": 8, "key_press": -1, "wordID": 1410, "type": "PRES_VIS", "trial_index": 97}, "uniqueid": "MTK3039:3NPI0JQDAPC8KUMNOL24V7NIEECPTQ", "dateTime": 1519672380324}, {"current_trial": 98, "trialdata": {"rt": -1, "trial_type": "single-stim", "word": "cottage", "stimulus": "<p id=\"stim\">COTTAGE</p>", "conditions": [12, 800, "v", 12000], "internal_node_id": "0.0-71.0", "trial": 2, "time_elapsed": 486626, "serialpos": 9, "key_press": -1, "wordID": 383, "type": "PRES_VIS", "trial_index": 98}, "uniqueid": "MTK3039:3NPI0JQDAPC8KUMNOL24V7NIEECPTQ", "dateTime": 1519672382310}, {"current_trial": 99, "trialdata": {"rt": -1, "trial_type": "single-stim", "word": "europe", "stimulus": "<p id=\"stim\">EUROPE</p>", "conditions": [12, 800, "v", 12000], "internal_node_id": "0.0-72.0", "trial": 2, "time_elapsed": 488395, "serialpos": 10, "key_press": -1, "wordID": 540, "type": "PRES_VIS", "trial_index": 99}, "uniqueid": "MTK3039:3NPI0JQDAPC8KUMNOL24V7NIEECPTQ", "dateTime": 1519672384078}, {"current_trial": 100, "trialdata": {"rt": -1, "trial_type": "single-stim", "word": "flashlight", "stimulus": "<p id=\"stim\">FLASHLIGHT</p>", "conditions": [12, 800, "v", 12000], "internal_node_id": "0.0-73.0", "trial": 2, "time_elapsed": 490113, "serialpos": 11, "key_press": -1, "wordID": 574, "type": "PRES_VIS", "trial_index": 100}, "uniqueid": "MTK3039:3NPI0JQDAPC8KUMNOL24V7NIEECPTQ", "dateTime": 1519672385796}, {"current_trial": 101, "trialdata": {"rt": -1, "trial_type": "single-stim", "stimulus": "", "internal_node_id": "0.0-74.0-0.0", "time_elapsed": 492298, "key_press": -1, "type": "PRE_RECALL_DELAY", "trial_index": 101}, "uniqueid": "MTK3039:3NPI0JQDAPC8KUMNOL24V7NIEECPTQ", "dateTime": 1519672387982}, {"current_trial": 102, "trialdata": {"rt": -1000, "trial_type": "single-audio", "stimulus": "/static/audio/400Hz.wav", "internal_node_id": "0.0-75.0", "time_elapsed": 492813, "key_press": -1, "type": "PRE_RECALL_ALERT", "trial_index": 102}, "uniqueid": "MTK3039:3NPI0JQDAPC8KUMNOL24V7NIEECPTQ", "dateTime": 1519672388496}, {"current_trial": 103, "trialdata": {"rt": [3458, 6818, 8464, 10606, 17846, 19801, 24549, 35973, 44508], "recwords": ["foot", "elbow", "nurse", "patient", "flashlight", "cottage", "bank", "buggy", "postage"], "key_times": [2641, 2849, 3027, 3184, 3458, 5121, 5314, 6128, 6359, 6639, 6818, 7387, 7644, 7856, 8080, 8282, 8464, 8880, 9002, 9280, 9469, 9625, 10059, 10298, 10606, 15427, 15630, 15799, 16220, 16411, 16951, 17222, 17456, 17588, 17700, 17846, 18136, 18356, 18561, 18703, 18950, 19297, 19513, 19801, 22704, 22951, 23122, 24173, 24549, 34805, 35063, 35317, 35467, 35603, 35973, 43129, 43301, 43501, 43746, 43929, 44089, 44249, 44508], "trial_type": "free-recall", "conditions": [12, 800, "v", 12000], "internal_node_id": "0.0-76.0-0.0", "key_presses": [70, 79, 79, 84, 13, 69, 76, 66, 79, 87, 13, 78, 85, 82, 83, 69, 13, 80, 65, 84, 73, 69, 78, 84, 13, 70, 76, 65, 83, 72, 76, 73, 71, 72, 84, 32, 67, 79, 84, 84, 65, 71, 69, 13, 66, 65, 78, 75, 13, 66, 85, 71, 71, 89, 13, 80, 79, 83, 84, 65, 71, 69, 13], "trial": 2, "time_elapsed": 552830, "type": "FREE_RECALL", "trial_index": 103}, "uniqueid": "MTK3039:3NPI0JQDAPC8KUMNOL24V7NIEECPTQ", "dateTime": 1519672448517}, {"current_trial": 104, "trialdata": {"rt": 5363, "trial_type": "text", "internal_node_id": "0.0-77.0", "time_elapsed": 560206, "key_press": 13, "type": "INSTRUCTIONS", "trial_index": 104}, "uniqueid": "MTK3039:3NPI0JQDAPC8KUMNOL24V7NIEECPTQ", "dateTime": 1519672455889}, {"current_trial": 105, "trialdata": {"rt": [2992, 7203, 10229], "trial_type": "math-distractor", "key_times": [2573, 2992, 6424, 6835, 7203, 9547, 9799, 10229], "responses": ["7", "19", "10"], "num2": [3, 4, 5, 8], "num3": [2, 8, 3, 7], "conditions": [12, 800, "v", 12000], "internal_node_id": "0.0-78.0", "key_presses": [55, 13, 49, 57, 13, 49, 48, 13], "trial": 3, "time_elapsed": 574221, "type": "DISTRACTOR", "trial_index": 105, "num1": [2, 7, 2, 9]}, "uniqueid": "MTK3039:3NPI0JQDAPC8KUMNOL24V7NIEECPTQ", "dateTime": 1519672469904}, {"current_trial": 106, "trialdata": {"rt": -1, "trial_type": "single-stim", "stimulus": "<p id=\"stim\">10</p>", "internal_node_id": "0.0-79.0-0.0", "time_elapsed": 577249, "key_press": -1, "trial_index": 106}, "uniqueid": "MTK3039:3NPI0JQDAPC8KUMNOL24V7NIEECPTQ", "dateTime": 1519672472932}, {"current_trial": 107, "trialdata": {"rt": -1, "trial_type": "single-stim", "stimulus": "<p id=\"stim\">9</p>", "internal_node_id": "0.0-79.0-1.0", "time_elapsed": 578247, "key_press": -1, "trial_index": 107}, "uniqueid": "MTK3039:3NPI0JQDAPC8KUMNOL24V7NIEECPTQ", "dateTime": 1519672473930}, {"current_trial": 108, "trialdata": {"rt": -1, "trial_type": "single-stim", "stimulus": "<p id=\"stim\">8</p>", "internal_node_id": "0.0-79.0-2.0", "time_elapsed": 579250, "key_press": -1, "trial_index": 108}, "uniqueid": "MTK3039:3NPI0JQDAPC8KUMNOL24V7NIEECPTQ", "dateTime": 1519672474933}, {"current_trial": 109, "trialdata": {"rt": -1, "trial_type": "single-stim", "stimulus": "<p id=\"stim\">7</p>", "internal_node_id": "0.0-79.0-3.0", "time_elapsed": 580245, "key_press": -1, "trial_index": 109}, "uniqueid": "MTK3039:3NPI0JQDAPC8KUMNOL24V7NIEECPTQ", "dateTime": 1519672475928}, {"current_trial": 110, "trialdata": {"rt": -1, "trial_type": "single-stim", "stimulus": "<p id=\"stim\">6</p>", "internal_node_id": "0.0-79.0-4.0", "time_elapsed": 581247, "key_press": -1, "trial_index": 110}, "uniqueid": "MTK3039:3NPI0JQDAPC8KUMNOL24V7NIEECPTQ", "dateTime": 1519672476930}, {"current_trial": 111, "trialdata": {"rt": -1, "trial_type": "single-stim", "stimulus": "<p id=\"stim\">5</p>", "internal_node_id": "0.0-79.0-5.0", "time_elapsed": 582251, "key_press": -1, "trial_index": 111}, "uniqueid": "MTK3039:3NPI0JQDAPC8KUMNOL24V7NIEECPTQ", "dateTime": 1519672477934}, {"current_trial": 112, "trialdata": {"rt": -1, "trial_type": "single-stim", "stimulus": "<p id=\"stim\">4</p>", "internal_node_id": "0.0-79.0-6.0", "time_elapsed": 583250, "key_press": -1, "trial_index": 112}, "uniqueid": "MTK3039:3NPI0JQDAPC8KUMNOL24V7NIEECPTQ", "dateTime": 1519672478933}, {"current_trial": 113, "trialdata": {"rt": -1, "trial_type": "single-stim", "stimulus": "<p id=\"stim\">3</p>", "internal_node_id": "0.0-79.0-7.0", "time_elapsed": 584249, "key_press": -1, "trial_index": 113}, "uniqueid": "MTK3039:3NPI0JQDAPC8KUMNOL24V7NIEECPTQ", "dateTime": 1519672479932}, {"current_trial": 114, "trialdata": {"rt": -1, "trial_type": "single-stim", "stimulus": "<p id=\"stim\">2</p>", "internal_node_id": "0.0-79.0-8.0", "time_elapsed": 585249, "key_press": -1, "trial_index": 114}, "uniqueid": "MTK3039:3NPI0JQDAPC8KUMNOL24V7NIEECPTQ", "dateTime": 1519672480932}, {"current_trial": 115, "trialdata": {"rt": -1, "trial_type": "single-stim", "stimulus": "<p id=\"stim\">1</p>", "internal_node_id": "0.0-79.0-9.0", "time_elapsed": 586245, "key_press": -1, "trial_index": 115}, "uniqueid": "MTK3039:3NPI0JQDAPC8KUMNOL24V7NIEECPTQ", "dateTime": 1519672481928}, {"current_trial": 116, "trialdata": {"rt": -1, "trial_type": "single-stim", "stimulus": "<p id=\"stim\">+</p>", "internal_node_id": "0.0-80.0-0.0", "time_elapsed": 587759, "key_press": -1, "type": "FIXATION", "trial_index": 116}, "uniqueid": "MTK3039:3NPI0JQDAPC8KUMNOL24V7NIEECPTQ", "dateTime": 1519672483443}, {"current_trial": 117, "trialdata": {"rt": -1, "trial_type": "single-stim", "word": "panther", "stimulus": "<p id=\"stim\">PANTHER</p>", "conditions": [12, 800, "v", 12000], "internal_node_id": "0.0-81.0", "trial": 3, "time_elapsed": 588568, "serialpos": 0, "key_press": -1, "wordID": 1008, "type": "PRES_VIS", "trial_index": 117}, "uniqueid": "MTK3039:3NPI0JQDAPC8KUMNOL24V7NIEECPTQ", "dateTime": 1519672484252}, {"current_trial": 118, "trialdata": {"rt": -1, "trial_type": "single-stim", "word": "zebra", "stimulus": "<p id=\"stim\">ZEBRA</p>", "conditions": [12, 800, "v", 12000], "internal_node_id": "0.0-82.0", "trial": 3, "time_elapsed": 590505, "serialpos": 1, "key_press": -1, "wordID": 1634, "type": "PRES_VIS", "trial_index": 118}, "uniqueid": "MTK3039:3NPI0JQDAPC8KUMNOL24V7NIEECPTQ", "dateTime": 1519672486188}, {"current_trial": 119, "trialdata": {"rt": -1, "trial_type": "single-stim", "word": "sketch", "stimulus": "<p id=\"stim\">SKETCH</p>", "conditions": [12, 800, "v", 12000], "internal_node_id": "0.0-83.0", "trial": 3, "time_elapsed": 592194, "serialpos": 2, "key_press": -1, "wordID": 1314, "type": "PRES_VIS", "trial_index": 119}, "uniqueid": "MTK3039:3NPI0JQDAPC8KUMNOL24V7NIEECPTQ", "dateTime": 1519672487877}, {"current_trial": 120, "trialdata": {"rt": -1, "trial_type": "single-stim", "word": "drawing", "stimulus": "<p id=\"stim\">DRAWING</p>", "conditions": [12, 800, "v", 12000], "internal_node_id": "0.0-84.0", "trial": 3, "time_elapsed": 594065, "serialpos": 3, "key_press": -1, "wordID": 493, "type": "PRES_VIS", "trial_index": 120}, "uniqueid": "MTK3039:3NPI0JQDAPC8KUMNOL24V7NIEECPTQ", "dateTime": 1519672489748}, {"current_trial": 121, "trialdata": {"rt": -1, "trial_type": "single-stim", "word": "scissors", "stimulus": "<p id=\"stim\">SCISSORS</p>", "conditions": [12, 800, "v", 12000], "internal_node_id": "0.0-85.0", "trial": 3, "time_elapsed": 595846, "serialpos": 4, "key_press": -1, "wordID": 1249, "type": "PRES_VIS", "trial_index": 121}, "uniqueid": "MTK3039:3NPI0JQDAPC8KUMNOL24V7NIEECPTQ", "dateTime": 1519672491529}, {"current_trial": 122, "trialdata": {"rt": -1, "trial_type": "single-stim", "word": "sunrise", "stimulus": "<p id=\"stim\">SUNRISE</p>", "conditions": [12, 800, "v", 12000], "internal_node_id": "0.0-86.0", "trial": 3, "time_elapsed": 597485, "serialpos": 5, "key_press": -1, "wordID": 1406, "type": "PRES_VIS", "trial_index": 122}, "uniqueid": "MTK3039:3NPI0JQDAPC8KUMNOL24V7NIEECPTQ", "dateTime": 1519672493168}, {"current_trial": 123, "trialdata": {"rt": -1, "trial_type": "single-stim", "word": "crab", "stimulus": "<p id=\"stim\">CRAB</p>", "conditions": [12, 800, "v", 12000], "internal_node_id": "0.0-87.0", "trial": 3, "time_elapsed": 599219, "serialpos": 6, "key_press": -1, "wordID": 396, "type": "PRES_VIS", "trial_index": 123}, "uniqueid": "MTK3039:3NPI0JQDAPC8KUMNOL24V7NIEECPTQ", "dateTime": 1519672494902}, {"current_trial": 124, "trialdata": {"rt": -1, "trial_type": "single-stim", "word": "item", "stimulus": "<p id=\"stim\">ITEM</p>", "conditions": [12, 800, "v", 12000], "internal_node_id": "0.0-88.0", "trial": 3, "time_elapsed": 600952, "serialpos": 7, "key_press": -1, "wordID": 745, "type": "PRES_VIS", "trial_index": 124}, "uniqueid": "MTK3039:3NPI0JQDAPC8KUMNOL24V7NIEECPTQ", "dateTime": 1519672496635}, {"current_trial": 125, "trialdata": {"rt": -1, "trial_type": "single-stim", "word": "peach", "stimulus": "<p id=\"stim\">PEACH</p>", "conditions": [12, 800, "v", 12000], "internal_node_id": "0.0-89.0", "trial": 3, "time_elapsed": 602671, "serialpos": 8, "key_press": -1, "wordID": 1030, "type": "PRES_VIS", "trial_index": 125}, "uniqueid": "MTK3039:3NPI0JQDAPC8KUMNOL24V7NIEECPTQ", "dateTime": 1519672498354}, {"current_trial": 126, "trialdata": {"rt": -1, "trial_type": "single-stim", "word": "scalpel", "stimulus": "<p id=\"stim\">SCALPEL</p>", "conditions": [12, 800, "v", 12000], "internal_node_id": "0.0-90.0", "trial": 3, "time_elapsed": 604492, "serialpos": 9, "key_press": -1, "wordID": 1242, "type": "PRES_VIS", "trial_index": 126}, "uniqueid": "MTK3039:3NPI0JQDAPC8KUMNOL24V7NIEECPTQ", "dateTime": 1519672500175}, {"current_trial": 127, "trialdata": {"rt": -1, "trial_type": "single-stim", "word": "crater", "stimulus": "<p id=\"stim\">CRATER</p>", "conditions": [12, 800, "v", 12000], "internal_node_id": "0.0-91.0", "trial": 3, "time_elapsed": 606468, "serialpos": 10, "key_press": -1, "wordID": 399, "type": "PRES_VIS", "trial_index": 127}, "uniqueid": "MTK3039:3NPI0JQDAPC8KUMNOL24V7NIEECPTQ", "dateTime": 1519672502151}, {"current_trial": 128, "trialdata": {"rt": -1, "trial_type": "single-stim", "word": "journal", "stimulus": "<p id=\"stim\">JOURNAL</p>", "conditions": [12, 800, "v", 12000], "internal_node_id": "0.0-92.0", "trial": 3, "time_elapsed": 608141, "serialpos": 11, "key_press": -1, "wordID": 759, "type": "PRES_VIS", "trial_index": 128}, "uniqueid": "MTK3039:3NPI0JQDAPC8KUMNOL24V7NIEECPTQ", "dateTime": 1519672503824}, {"current_trial": 129, "trialdata": {"rt": -1, "trial_type": "single-stim", "stimulus": "", "internal_node_id": "0.0-93.0-0.0", "time_elapsed": 610671, "key_press": -1, "type": "PRE_RECALL_DELAY", "trial_index": 129}, "uniqueid": "MTK3039:3NPI0JQDAPC8KUMNOL24V7NIEECPTQ", "dateTime": 1519672506354}, {"current_trial": 130, "trialdata": {"rt": -1000, "trial_type": "single-audio", "stimulus": "/static/audio/400Hz.wav", "internal_node_id": "0.0-94.0", "time_elapsed": 611173, "key_press": -1, "type": "PRE_RECALL_ALERT", "trial_index": 130}, "uniqueid": "MTK3039:3NPI0JQDAPC8KUMNOL24V7NIEECPTQ", "dateTime": 1519672506856}, {"current_trial": 131, "trialdata": {"rt": [3228, 6154, 9199, 13610, 16742, 19970, 25423, 27831, 31151], "recwords": ["pebble", "peach", "journal", "panther", "zebra", "crab", "drawing", "sketch", "paper"], "key_times": [1828, 2147, 2489, 2652, 2866, 3039, 3228, 4071, 4691, 4919, 5406, 5739, 6154, 7314, 7540, 7754, 7975, 8360, 8520, 8808, 9199, 12512, 12662, 12855, 13137, 13267, 13403, 13472, 13610, 15191, 15581, 16019, 16219, 16471, 16742, 18789, 19034, 19275, 19693, 19970, 23949, 24179, 24399, 24708, 24935, 25155, 25322, 25423, 25676, 25963, 26149, 26939, 27291, 27493, 27831, 30111, 30311, 30434, 30721, 30844, 31151], "trial_type": "free-recall", "conditions": [12, 800, "v", 12000], "internal_node_id": "0.0-95.0-0.0", "key_presses": [80, 69, 66, 66, 76, 69, 13, 80, 69, 65, 67, 72, 13, 74, 79, 85, 82, 78, 65, 76, 13, 80, 65, 78, 84, 72, 69, 82, 32, 90, 69, 66, 82, 65, 13, 67, 82, 65, 66, 13, 68, 82, 65, 87, 73, 78, 71, 32, 83, 75, 69, 84, 67, 72, 13, 80, 65, 80, 69, 82, 13], "trial": 3, "time_elapsed": 671188, "type": "FREE_RECALL", "trial_index": 131}, "uniqueid": "MTK3039:3NPI0JQDAPC8KUMNOL24V7NIEECPTQ", "dateTime": 1519672566873}, {"current_trial": 132, "trialdata": {"rt": 1362, "trial_type": "text", "internal_node_id": "0.0-96.0", "time_elapsed": 674566, "key_press": 13, "type": "INSTRUCTIONS", "trial_index": 132}, "uniqueid": "MTK3039:3NPI0JQDAPC8KUMNOL24V7NIEECPTQ", "dateTime": 1519672570249}, {"current_trial": 133, "trialdata": {"rt": [2013, 4247, 6774, 9587, 12717, 17254, 20282, 22679], "trial_type": "math-distractor", "key_times": [1491, 1679, 2013, 3516, 3923, 4247, 5924, 6389, 6774, 8750, 9210, 9587, 12000, 12374, 12717, 15913, 16596, 16807, 17028, 17254, 19451, 19983, 20282, 22277, 22487, 22679, 23730, 23969], "responses": ["10", "17", "15", "14", "15", "23", "17", "12"], "num2": [3, 1, 4, 2, 3, 9, 2, 8, 1], "num3": [5, 8, 3, 3, 5, 8, 6, 1, 6], "conditions": [24, 800, "v", 24000], "internal_node_id": "0.0-97.0", "key_presses": [49, 48, 13, 49, 55, 13, 49, 53, 13, 49, 52, 13, 49, 53, 13, 49, 8, 50, 51, 13, 49, 55, 13, 49, 50, 13, 49, 51], "trial": 4, "time_elapsed": 700581, "type": "DISTRACTOR", "trial_index": 133, "num1": [2, 8, 8, 9, 7, 6, 9, 3, 6]}, "uniqueid": "MTK3039:3NPI0JQDAPC8KUMNOL24V7NIEECPTQ", "dateTime": 1519672596265}, {"current_trial": 134, "trialdata": {"rt": -1, "trial_type": "single-stim", "stimulus": "<p id=\"stim\">10</p>", "internal_node_id": "0.0-98.0-0.0", "time_elapsed": 703609, "key_press": -1, "trial_index": 134}, "uniqueid": "MTK3039:3NPI0JQDAPC8KUMNOL24V7NIEECPTQ", "dateTime": 1519672599293}, {"current_trial": 135, "trialdata": {"rt": -1, "trial_type": "single-stim", "stimulus": "<p id=\"stim\">9</p>", "internal_node_id": "0.0-98.0-1.0", "time_elapsed": 704597, "key_press": -1, "trial_index": 135}, "uniqueid": "MTK3039:3NPI0JQDAPC8KUMNOL24V7NIEECPTQ", "dateTime": 1519672600280}, {"current_trial": 136, "trialdata": {"rt": -1, "trial_type": "single-stim", "stimulus": "<p id=\"stim\">8</p>", "internal_node_id": "0.0-98.0-2.0", "time_elapsed": 705604, "key_press": -1, "trial_index": 136}, "uniqueid": "MTK3039:3NPI0JQDAPC8KUMNOL24V7NIEECPTQ", "dateTime": 1519672601287}, {"current_trial": 137, "trialdata": {"rt": -1, "trial_type": "single-stim", "stimulus": "<p id=\"stim\">7</p>", "internal_node_id": "0.0-98.0-3.0", "time_elapsed": 706599, "key_press": -1, "trial_index": 137}, "uniqueid": "MTK3039:3NPI0JQDAPC8KUMNOL24V7NIEECPTQ", "dateTime": 1519672602282}, {"current_trial": 138, "trialdata": {"rt": -1, "trial_type": "single-stim", "stimulus": "<p id=\"stim\">6</p>", "internal_node_id": "0.0-98.0-4.0", "time_elapsed": 707608, "key_press": -1, "trial_index": 138}, "uniqueid": "MTK3039:3NPI0JQDAPC8KUMNOL24V7NIEECPTQ", "dateTime": 1519672603291}, {"current_trial": 139, "trialdata": {"rt": -1, "trial_type": "single-stim", "stimulus": "<p id=\"stim\">5</p>", "internal_node_id": "0.0-98.0-5.0", "time_elapsed": 708600, "key_press": -1, "trial_index": 139}, "uniqueid": "MTK3039:3NPI0JQDAPC8KUMNOL24V7NIEECPTQ", "dateTime": 1519672604283}, {"current_trial": 140, "trialdata": {"rt": -1, "trial_type": "single-stim", "stimulus": "<p id=\"stim\">4</p>", "internal_node_id": "0.0-98.0-6.0", "time_elapsed": 709599, "key_press": -1, "trial_index": 140}, "uniqueid": "MTK3039:3NPI0JQDAPC8KUMNOL24V7NIEECPTQ", "dateTime": 1519672605282}, {"current_trial": 141, "trialdata": {"rt": -1, "trial_type": "single-stim", "stimulus": "<p id=\"stim\">3</p>", "internal_node_id": "0.0-98.0-7.0", "time_elapsed": 710597, "key_press": -1, "trial_index": 141}, "uniqueid": "MTK3039:3NPI0JQDAPC8KUMNOL24V7NIEECPTQ", "dateTime": 1519672606280}, {"current_trial": 142, "trialdata": {"rt": -1, "trial_type": "single-stim", "stimulus": "<p id=\"stim\">2</p>", "internal_node_id": "0.0-98.0-8.0", "time_elapsed": 711597, "key_press": -1, "trial_index": 142}, "uniqueid": "MTK3039:3NPI0JQDAPC8KUMNOL24V7NIEECPTQ", "dateTime": 1519672607280}, {"current_trial": 143, "trialdata": {"rt": -1, "trial_type": "single-stim", "stimulus": "<p id=\"stim\">1</p>", "internal_node_id": "0.0-98.0-9.0", "time_elapsed": 712596, "key_press": -1, "trial_index": 143}, "uniqueid": "MTK3039:3NPI0JQDAPC8KUMNOL24V7NIEECPTQ", "dateTime": 1519672608279}, {"current_trial": 144, "trialdata": {"rt": -1, "trial_type": "single-stim", "stimulus": "<p id=\"stim\">+</p>", "internal_node_id": "0.0-99.0-0.0", "time_elapsed": 714109, "key_press": -1, "type": "FIXATION", "trial_index": 144}, "uniqueid": "MTK3039:3NPI0JQDAPC8KUMNOL24V7NIEECPTQ", "dateTime": 1519672609792}, {"current_trial": 145, "trialdata": {"rt": -1, "trial_type": "single-stim", "word": "crown", "stimulus": "<p id=\"stim\">CROWN</p>", "conditions": [24, 800, "v", 24000], "internal_node_id": "0.0-100.0", "trial": 4, "time_elapsed": 714918, "serialpos": 0, "key_press": -1, "wordID": 414, "type": "PRES_VIS", "trial_index": 145}, "uniqueid": "MTK3039:3NPI0JQDAPC8KUMNOL24V7NIEECPTQ", "dateTime": 1519672610601}, {"current_trial": 146, "trialdata": {"rt": -1, "trial_type": "single-stim", "word": "award", "stimulus": "<p id=\"stim\">AWARD</p>", "conditions": [24, 800, "v", 24000], "internal_node_id": "0.0-101.0", "trial": 4, "time_elapsed": 716697, "serialpos": 1, "key_press": -1, "wordID": 62, "type": "PRES_VIS", "trial_index": 146}, "uniqueid": "MTK3039:3NPI0JQDAPC8KUMNOL24V7NIEECPTQ", "dateTime": 1519672612381}, {"current_trial": 147, "trialdata": {"rt": -1, "trial_type": "single-stim", "word": "jelly", "stimulus": "<p id=\"stim\">JELLY</p>", "conditions": [24, 800, "v", 24000], "internal_node_id": "0.0-102.0", "trial": 4, "time_elapsed": 718663, "serialpos": 2, "key_press": -1, "wordID": 754, "type": "PRES_VIS", "trial_index": 147}, "uniqueid": "MTK3039:3NPI0JQDAPC8KUMNOL24V7NIEECPTQ", "dateTime": 1519672614346}, {"current_trial": 148, "trialdata": {"rt": -1, "trial_type": "single-stim", "word": "dresser", "stimulus": "<p id=\"stim\">DRESSER</p>", "conditions": [24, 800, "v", 24000], "internal_node_id": "0.0-103.0", "trial": 4, "time_elapsed": 720518, "serialpos": 3, "key_press": -1, "wordID": 495, "type": "PRES_VIS", "trial_index": 148}, "uniqueid": "MTK3039:3NPI0JQDAPC8KUMNOL24V7NIEECPTQ", "dateTime": 1519672616201}, {"current_trial": 149, "trialdata": {"rt": -1, "trial_type": "single-stim", "word": "garlic", "stimulus": "<p id=\"stim\">GARLIC</p>", "conditions": [24, 800, "v", 24000], "internal_node_id": "0.0-104.0", "trial": 4, "time_elapsed": 722515, "serialpos": 4, "key_press": -1, "wordID": 623, "type": "PRES_VIS", "trial_index": 149}, "uniqueid": "MTK3039:3NPI0JQDAPC8KUMNOL24V7NIEECPTQ", "dateTime": 1519672618199}, {"current_trial": 150, "trialdata": {"rt": -1, "trial_type": "single-stim", "word": "kitchen", "stimulus": "<p id=\"stim\">KITCHEN</p>", "conditions": [24, 800, "v", 24000], "internal_node_id": "0.0-105.0", "trial": 4, "time_elapsed": 724485, "serialpos": 5, "key_press": -1, "wordID": 777, "type": "PRES_VIS", "trial_index": 150}, "uniqueid": "MTK3039:3NPI0JQDAPC8KUMNOL24V7NIEECPTQ", "dateTime": 1519672620168}, {"current_trial": 151, "trialdata": {"rt": -1, "trial_type": "single-stim", "word": "sphinx", "stimulus": "<p id=\"stim\">SPHINX</p>", "conditions": [24, 800, "v", 24000], "internal_node_id": "0.0-106.0", "trial": 4, "time_elapsed": 726468, "serialpos": 6, "key_press": -1, "wordID": 1348, "type": "PRES_VIS", "trial_index": 151}, "uniqueid": "MTK3039:3NPI0JQDAPC8KUMNOL24V7NIEECPTQ", "dateTime": 1519672622151}, {"current_trial": 152, "trialdata": {"rt": -1, "trial_type": "single-stim", "word": "onion", "stimulus": "<p id=\"stim\">ONION</p>", "conditions": [24, 800, "v", 24000], "internal_node_id": "0.0-107.0", "trial": 4, "time_elapsed": 728133, "serialpos": 7, "key_press": -1, "wordID": 976, "type": "PRES_VIS", "trial_index": 152}, "uniqueid": "MTK3039:3NPI0JQDAPC8KUMNOL24V7NIEECPTQ", "dateTime": 1519672623816}, {"current_trial": 153, "trialdata": {"rt": -1, "trial_type": "single-stim", "word": "kidney", "stimulus": "<p id=\"stim\">KIDNEY</p>", "conditions": [24, 800, "v", 24000], "internal_node_id": "0.0-108.0", "trial": 4, "time_elapsed": 729942, "serialpos": 8, "key_press": -1, "wordID": 775, "type": "PRES_VIS", "trial_index": 153}, "uniqueid": "MTK3039:3NPI0JQDAPC8KUMNOL24V7NIEECPTQ", "dateTime": 1519672625625}, {"current_trial": 154, "trialdata": {"rt": -1, "trial_type": "single-stim", "word": "liver", "stimulus": "<p id=\"stim\">LIVER</p>", "conditions": [24, 800, "v", 24000], "internal_node_id": "0.0-109.0", "trial": 4, "time_elapsed": 731814, "serialpos": 9, "key_press": -1, "wordID": 832, "type": "PRES_VIS", "trial_index": 154}, "uniqueid": "MTK3039:3NPI0JQDAPC8KUMNOL24V7NIEECPTQ", "dateTime": 1519672627498}, {"current_trial": 155, "trialdata": {"rt": -1, "trial_type": "single-stim", "word": "binder", "stimulus": "<p id=\"stim\">BINDER</p>", "conditions": [24, 800, "v", 24000], "internal_node_id": "0.0-110.0", "trial": 4, "time_elapsed": 733608, "serialpos": 10, "key_press": -1, "wordID": 126, "type": "PRES_VIS", "trial_index": 155}, "uniqueid": "MTK3039:3NPI0JQDAPC8KUMNOL24V7NIEECPTQ", "dateTime": 1519672629292}, {"current_trial": 156, "trialdata": {"rt": -1, "trial_type": "single-stim", "word": "popcorn", "stimulus": "<p id=\"stim\">POPCORN</p>", "conditions": [24, 800, "v", 24000], "internal_node_id": "0.0-111.0", "trial": 4, "time_elapsed": 735399, "serialpos": 11, "key_press": -1, "wordID": 1103, "type": "PRES_VIS", "trial_index": 156}, "uniqueid": "MTK3039:3NPI0JQDAPC8KUMNOL24V7NIEECPTQ", "dateTime": 1519672631082}, {"current_trial": 157, "trialdata": {"rt": -1, "trial_type": "single-stim", "word": "stomach", "stimulus": "<p id=\"stim\">STOMACH</p>", "conditions": [24, 800, "v", 24000], "internal_node_id": "0.0-112.0", "trial": 4, "time_elapsed": 737301, "serialpos": 12, "key_press": -1, "wordID": 1383, "type": "PRES_VIS", "trial_index": 157}, "uniqueid": "MTK3039:3NPI0JQDAPC8KUMNOL24V7NIEECPTQ", "dateTime": 1519672632984}, {"current_trial": 158, "trialdata": {"rt": -1, "trial_type": "single-stim", "word": "perfume", "stimulus": "<p id=\"stim\">PERFUME</p>", "conditions": [24, 800, "v", 24000], "internal_node_id": "0.0-113.0", "trial": 4, "time_elapsed": 739285, "serialpos": 13, "key_press": -1, "wordID": 1048, "type": "PRES_VIS", "trial_index": 158}, "uniqueid": "MTK3039:3NPI0JQDAPC8KUMNOL24V7NIEECPTQ", "dateTime": 1519672634969}, {"current_trial": 159, "trialdata": {"rt": -1, "trial_type": "single-stim", "word": "sheriff", "stimulus": "<p id=\"stim\">SHERIFF</p>", "conditions": [24, 800, "v", 24000], "internal_node_id": "0.0-114.0", "trial": 4, "time_elapsed": 741204, "serialpos": 14, "key_press": -1, "wordID": 1283, "type": "PRES_VIS", "trial_index": 159}, "uniqueid": "MTK3039:3NPI0JQDAPC8KUMNOL24V7NIEECPTQ", "dateTime": 1519672636887}, {"current_trial": 160, "trialdata": {"rt": -1, "trial_type": "single-stim", "word": "label", "stimulus": "<p id=\"stim\">LABEL</p>", "conditions": [24, 800, "v", 24000], "internal_node_id": "0.0-115.0", "trial": 4, "time_elapsed": 743047, "serialpos": 15, "key_press": -1, "wordID": 789, "type": "PRES_VIS", "trial_index": 160}, "uniqueid": "MTK3039:3NPI0JQDAPC8KUMNOL24V7NIEECPTQ", "dateTime": 1519672638730}, {"current_trial": 161, "trialdata": {"rt": -1, "trial_type": "single-stim", "word": "subway", "stimulus": "<p id=\"stim\">SUBWAY</p>", "conditions": [24, 800, "v", 24000], "internal_node_id": "0.0-116.0", "trial": 4, "time_elapsed": 744672, "serialpos": 16, "key_press": -1, "wordID": 1399, "type": "PRES_VIS", "trial_index": 161}, "uniqueid": "MTK3039:3NPI0JQDAPC8KUMNOL24V7NIEECPTQ", "dateTime": 1519672640355}, {"current_trial": 162, "trialdata": {"rt": -1, "trial_type": "single-stim", "word": "salad", "stimulus": "<p id=\"stim\">SALAD</p>", "conditions": [24, 800, "v", 24000], "internal_node_id": "0.0-117.0", "trial": 4, "time_elapsed": 746561, "serialpos": 17, "key_press": -1, "wordID": 1223, "type": "PRES_VIS", "trial_index": 162}, "uniqueid": "MTK3039:3NPI0JQDAPC8KUMNOL24V7NIEECPTQ", "dateTime": 1519672642245}, {"current_trial": 163, "trialdata": {"rt": -1, "trial_type": "single-stim", "word": "county", "stimulus": "<p id=\"stim\">COUNTY</p>", "conditions": [24, 800, "v", 24000], "internal_node_id": "0.0-118.0", "trial": 4, "time_elapsed": 748562, "serialpos": 18, "key_press": -1, "wordID": 388, "type": "PRES_VIS", "trial_index": 163}, "uniqueid": "MTK3039:3NPI0JQDAPC8KUMNOL24V7NIEECPTQ", "dateTime": 1519672644245}, {"current_trial": 164, "trialdata": {"rt": -1, "trial_type": "single-stim", "word": "tutu", "stimulus": "<p id=\"stim\">TUTU</p>", "conditions": [24, 800, "v", 24000], "internal_node_id": "0.0-119.0", "trial": 4, "time_elapsed": 750468, "serialpos": 19, "key_press": -1, "wordID": 1523, "type": "PRES_VIS", "trial_index": 164}, "uniqueid": "MTK3039:3NPI0JQDAPC8KUMNOL24V7NIEECPTQ", "dateTime": 1519672646152}, {"current_trial": 165, "trialdata": {"rt": -1, "trial_type": "single-stim", "word": "spoon", "stimulus": "<p id=\"stim\">SPOON</p>", "conditions": [24, 800, "v", 24000], "internal_node_id": "0.0-120.0", "trial": 4, "time_elapsed": 752313, "serialpos": 20, "key_press": -1, "wordID": 1356, "type": "PRES_VIS", "trial_index": 165}, "uniqueid": "MTK3039:3NPI0JQDAPC8KUMNOL24V7NIEECPTQ", "dateTime": 1519672647996}, {"current_trial": 166, "trialdata": {"rt": -1, "trial_type": "single-stim", "word": "stone", "stimulus": "<p id=\"stim\">STONE</p>", "conditions": [24, 800, "v", 24000], "internal_node_id": "0.0-121.0", "trial": 4, "time_elapsed": 754250, "serialpos": 21, "key_press": -1, "wordID": 1384, "type": "PRES_VIS", "trial_index": 166}, "uniqueid": "MTK3039:3NPI0JQDAPC8KUMNOL24V7NIEECPTQ", "dateTime": 1519672649933}, {"current_trial": 167, "trialdata": {"rt": -1, "trial_type": "single-stim", "word": "brick", "stimulus": "<p id=\"stim\">BRICK</p>", "conditions": [24, 800, "v", 24000], "internal_node_id": "0.0-122.0", "trial": 4, "time_elapsed": 755966, "serialpos": 22, "key_press": -1, "wordID": 171, "type": "PRES_VIS", "trial_index": 167}, "uniqueid": "MTK3039:3NPI0JQDAPC8KUMNOL24V7NIEECPTQ", "dateTime": 1519672651649}, {"current_trial": 168, "trialdata": {"rt": -1, "trial_type": "single-stim", "word": "denim", "stimulus": "<p id=\"stim\">DENIM</p>", "conditions": [24, 800, "v", 24000], "internal_node_id": "0.0-123.0", "trial": 4, "time_elapsed": 757684, "serialpos": 23, "key_press": -1, "wordID": 445, "type": "PRES_VIS", "trial_index": 168}, "uniqueid": "MTK3039:3NPI0JQDAPC8KUMNOL24V7NIEECPTQ", "dateTime": 1519672653367}, {"current_trial": 169, "trialdata": {"rt": -1, "trial_type": "single-stim", "stimulus": "", "internal_node_id": "0.0-124.0-0.0", "time_elapsed": 760215, "key_press": -1, "type": "PRE_RECALL_DELAY", "trial_index": 169}, "uniqueid": "MTK3039:3NPI0JQDAPC8KUMNOL24V7NIEECPTQ", "dateTime": 1519672655898}, {"current_trial": 170, "trialdata": {"rt": -1000, "trial_type": "single-audio", "stimulus": "/static/audio/400Hz.wav", "internal_node_id": "0.0-125.0", "time_elapsed": 760732, "key_press": -1, "type": "PRE_RECALL_ALERT", "trial_index": 170}, "uniqueid": "MTK3039:3NPI0JQDAPC8KUMNOL24V7NIEECPTQ", "dateTime": 1519672656415}, {"current_trial": 171, "trialdata": {"rt": [8606, 10053, 12727, 15019, 20012, 21585, 28969, 32273, 34126, 37728, 40147], "recwords": ["subway", "salad", "crown", "jewel", "kitchen", "spoon", "popcorn", "onion", "jelly", "stone", "brick"], "key_times": [6259, 6477, 6850, 7599, 7836, 8017, 8606, 9024, 9262, 9385, 9613, 9851, 10053, 11033, 11360, 11595, 11848, 12218, 12727, 13375, 13757, 14009, 14248, 14655, 15019, 18196, 18399, 18596, 18987, 19212, 19375, 19543, 20012, 20360, 20620, 20838, 20995, 21231, 21585, 27077, 27281, 27461, 27892, 28141, 28387, 28611, 28969, 30714, 30992, 31259, 31538, 31819, 32273, 32905, 33196, 33395, 33552, 33917, 34126, 36562, 36769, 37079, 37366, 37562, 37728, 38111, 38410, 38610, 38868, 39613, 40147], "trial_type": "free-recall", "conditions": [24, 800, "v", 24000], "internal_node_id": "0.0-126.0-0.0", "key_presses": [83, 85, 66, 87, 65, 89, 13, 83, 65, 76, 65, 68, 13, 67, 82, 79, 87, 78, 13, 74, 69, 87, 69, 76, 13, 75, 73, 84, 67, 72, 69, 78, 13, 83, 80, 79, 79, 78, 13, 80, 79, 80, 67, 79, 82, 78, 13, 79, 78, 73, 79, 78, 13, 74, 69, 76, 76, 89, 13, 83, 84, 79, 78, 69, 32, 66, 82, 73, 67, 75, 13], "trial": 4, "time_elapsed": 820738, "type": "FREE_RECALL", "trial_index": 171}, "uniqueid": "MTK3039:3NPI0JQDAPC8KUMNOL24V7NIEECPTQ", "dateTime": 1519672716425}, {"current_trial": 172, "trialdata": {"rt": 1385, "trial_type": "text", "internal_node_id": "0.0-127.0", "time_elapsed": 824137, "key_press": 13, "type": "INSTRUCTIONS", "trial_index": 172}, "uniqueid": "MTK3039:3NPI0JQDAPC8KUMNOL24V7NIEECPTQ", "dateTime": 1519672719820}, {"current_trial": 173, "trialdata": {"rt": [3149, 5805, 8246, 10533, 12721, 14906, 17195, 18962, 21246, 23057], "trial_type": "math-distractor", "key_times": [1509, 1668, 2171, 2479, 3149, 4990, 5488, 5805, 7359, 7924, 8246, 9810, 10203, 10533, 11875, 12351, 12721, 14586, 14906, 16610, 16901, 17195, 18172, 18628, 18962, 20754, 21031, 21246, 22531, 22812, 23057], "responses": ["10", "15", "10", "14", "19", "7", "13", "15", "12", "11"], "num2": [2, 8, 5, 6, 7, 1, 7, 9, 5, 4, 3], "num3": [7, 5, 3, 1, 6, 2, 5, 5, 4, 4, 4], "conditions": [12, 1600, "v", 24000], "internal_node_id": "0.0-128.0", "key_presses": [49, 57, 8, 48, 13, 49, 53, 13, 49, 48, 13, 49, 52, 13, 49, 57, 13, 55, 13, 49, 51, 13, 49, 53, 13, 49, 50, 13, 49, 49, 13], "trial": 5, "time_elapsed": 850161, "type": "DISTRACTOR", "trial_index": 173, "num1": [1, 2, 2, 7, 6, 4, 1, 1, 3, 3, 7]}, "uniqueid": "MTK3039:3NPI0JQDAPC8KUMNOL24V7NIEECPTQ", "dateTime": 1519672745844}, {"current_trial": 174, "trialdata": {"rt": -1, "trial_type": "single-stim", "stimulus": "<p id=\"stim\">10</p>", "internal_node_id": "0.0-129.0-0.0", "time_elapsed": 853189, "key_press": -1, "trial_index": 174}, "uniqueid": "MTK3039:3NPI0JQDAPC8KUMNOL24V7NIEECPTQ", "dateTime": 1519672748872}, {"current_trial": 175, "trialdata": {"rt": -1, "trial_type": "single-stim", "stimulus": "<p id=\"stim\">9</p>", "internal_node_id": "0.0-129.0-1.0", "time_elapsed": 854187, "key_press": -1, "trial_index": 175}, "uniqueid": "MTK3039:3NPI0JQDAPC8KUMNOL24V7NIEECPTQ", "dateTime": 1519672749870}, {"current_trial": 176, "trialdata": {"rt": -1, "trial_type": "single-stim", "stimulus": "<p id=\"stim\">8</p>", "internal_node_id": "0.0-129.0-2.0", "time_elapsed": 855184, "key_press": -1, "trial_index": 176}, "uniqueid": "MTK3039:3NPI0JQDAPC8KUMNOL24V7NIEECPTQ", "dateTime": 1519672750867}, {"current_trial": 177, "trialdata": {"rt": -1, "trial_type": "single-stim", "stimulus": "<p id=\"stim\">7</p>", "internal_node_id": "0.0-129.0-3.0", "time_elapsed": 856181, "key_press": -1, "trial_index": 177}, "uniqueid": "MTK3039:3NPI0JQDAPC8KUMNOL24V7NIEECPTQ", "dateTime": 1519672751865}, {"current_trial": 178, "trialdata": {"rt": -1, "trial_type": "single-stim", "stimulus": "<p id=\"stim\">6</p>", "internal_node_id": "0.0-129.0-4.0", "time_elapsed": 857178, "key_press": -1, "trial_index": 178}, "uniqueid": "MTK3039:3NPI0JQDAPC8KUMNOL24V7NIEECPTQ", "dateTime": 1519672752862}, {"current_trial": 179, "trialdata": {"rt": -1, "trial_type": "single-stim", "stimulus": "<p id=\"stim\">5</p>", "internal_node_id": "0.0-129.0-5.0", "time_elapsed": 858178, "key_press": -1, "trial_index": 179}, "uniqueid": "MTK3039:3NPI0JQDAPC8KUMNOL24V7NIEECPTQ", "dateTime": 1519672753861}, {"current_trial": 180, "trialdata": {"rt": -1, "trial_type": "single-stim", "stimulus": "<p id=\"stim\">4</p>", "internal_node_id": "0.0-129.0-6.0", "time_elapsed": 859175, "key_press": -1, "trial_index": 180}, "uniqueid": "MTK3039:3NPI0JQDAPC8KUMNOL24V7NIEECPTQ", "dateTime": 1519672754858}, {"current_trial": 181, "trialdata": {"rt": -1, "trial_type": "single-stim", "stimulus": "<p id=\"stim\">3</p>", "internal_node_id": "0.0-129.0-7.0", "time_elapsed": 860189, "key_press": -1, "trial_index": 181}, "uniqueid": "MTK3039:3NPI0JQDAPC8KUMNOL24V7NIEECPTQ", "dateTime": 1519672755872}, {"current_trial": 182, "trialdata": {"rt": -1, "trial_type": "single-stim", "stimulus": "<p id=\"stim\">2</p>", "internal_node_id": "0.0-129.0-8.0", "time_elapsed": 861188, "key_press": -1, "trial_index": 182}, "uniqueid": "MTK3039:3NPI0JQDAPC8KUMNOL24V7NIEECPTQ", "dateTime": 1519672756871}, {"current_trial": 183, "trialdata": {"rt": -1, "trial_type": "single-stim", "stimulus": "<p id=\"stim\">1</p>", "internal_node_id": "0.0-129.0-9.0", "time_elapsed": 862187, "key_press": -1, "trial_index": 183}, "uniqueid": "MTK3039:3NPI0JQDAPC8KUMNOL24V7NIEECPTQ", "dateTime": 1519672757871}, {"current_trial": 184, "trialdata": {"rt": -1, "trial_type": "single-stim", "stimulus": "<p id=\"stim\">+</p>", "internal_node_id": "0.0-130.0-0.0", "time_elapsed": 863700, "key_press": -1, "type": "FIXATION", "trial_index": 184}, "uniqueid": "MTK3039:3NPI0JQDAPC8KUMNOL24V7NIEECPTQ", "dateTime": 1519672759383}, {"current_trial": 185, "trialdata": {"rt": -1, "trial_type": "single-stim", "word": "gymnast", "stimulus": "<p id=\"stim\">GYMNAST</p>", "conditions": [12, 1600, "v", 24000], "internal_node_id": "0.0-131.0", "trial": 5, "time_elapsed": 865308, "serialpos": 0, "key_press": -1, "wordID": 674, "type": "PRES_VIS", "trial_index": 185}, "uniqueid": "MTK3039:3NPI0JQDAPC8KUMNOL24V7NIEECPTQ", "dateTime": 1519672760991}, {"current_trial": 186, "trialdata": {"rt": -1, "trial_type": "single-stim", "word": "dancer", "stimulus": "<p id=\"stim\">DANCER</p>", "conditions": [12, 1600, "v", 24000], "internal_node_id": "0.0-132.0", "trial": 5, "time_elapsed": 868024, "serialpos": 1, "key_press": -1, "wordID": 436, "type": "PRES_VIS", "trial_index": 186}, "uniqueid": "MTK3039:3NPI0JQDAPC8KUMNOL24V7NIEECPTQ", "dateTime": 1519672763707}, {"current_trial": 187, "trialdata": {"rt": -1, "trial_type": "single-stim", "word": "lace", "stimulus": "<p id=\"stim\">LACE</p>", "conditions": [12, 1600, "v", 24000], "internal_node_id": "0.0-133.0", "trial": 5, "time_elapsed": 870552, "serialpos": 2, "key_press": -1, "wordID": 791, "type": "PRES_VIS", "trial_index": 187}, "uniqueid": "MTK3039:3NPI0JQDAPC8KUMNOL24V7NIEECPTQ", "dateTime": 1519672766236}, {"current_trial": 188, "trialdata": {"rt": -1, "trial_type": "single-stim", "word": "river", "stimulus": "<p id=\"stim\">RIVER</p>", "conditions": [12, 1600, "v", 24000], "internal_node_id": "0.0-134.0", "trial": 5, "time_elapsed": 873144, "serialpos": 3, "key_press": -1, "wordID": 1193, "type": "PRES_VIS", "trial_index": 188}, "uniqueid": "MTK3039:3NPI0JQDAPC8KUMNOL24V7NIEECPTQ", "dateTime": 1519672768828}, {"current_trial": 189, "trialdata": {"rt": -1, "trial_type": "single-stim", "word": "powder", "stimulus": "<p id=\"stim\">POWDER</p>", "conditions": [12, 1600, "v", 24000], "internal_node_id": "0.0-135.0", "trial": 5, "time_elapsed": 875640, "serialpos": 4, "key_press": -1, "wordID": 1116, "type": "PRES_VIS", "trial_index": 189}, "uniqueid": "MTK3039:3NPI0JQDAPC8KUMNOL24V7NIEECPTQ", "dateTime": 1519672771323}, {"current_trial": 190, "trialdata": {"rt": -1, "trial_type": "single-stim", "word": "scotch", "stimulus": "<p id=\"stim\">SCOTCH</p>", "conditions": [12, 1600, "v", 24000], "internal_node_id": "0.0-136.0", "trial": 5, "time_elapsed": 878389, "serialpos": 5, "key_press": -1, "wordID": 1250, "type": "PRES_VIS", "trial_index": 190}, "uniqueid": "MTK3039:3NPI0JQDAPC8KUMNOL24V7NIEECPTQ", "dateTime": 1519672774072}, {"current_trial": 191, "trialdata": {"rt": -1, "trial_type": "single-stim", "word": "chauffeur", "stimulus": "<p id=\"stim\">CHAUFFEUR</p>", "conditions": [12, 1600, "v", 24000], "internal_node_id": "0.0-137.0", "trial": 5, "time_elapsed": 881058, "serialpos": 6, "key_press": -1, "wordID": 282, "type": "PRES_VIS", "trial_index": 191}, "uniqueid": "MTK3039:3NPI0JQDAPC8KUMNOL24V7NIEECPTQ", "dateTime": 1519672776741}, {"current_trial": 192, "trialdata": {"rt": -1, "trial_type": "single-stim", "word": "brook", "stimulus": "<p id=\"stim\">BROOK</p>", "conditions": [12, 1600, "v", 24000], "internal_node_id": "0.0-138.0", "trial": 5, "time_elapsed": 883524, "serialpos": 7, "key_press": -1, "wordID": 176, "type": "PRES_VIS", "trial_index": 192}, "uniqueid": "MTK3039:3NPI0JQDAPC8KUMNOL24V7NIEECPTQ", "dateTime": 1519672779207}, {"current_trial": 193, "trialdata": {"rt": -1, "trial_type": "single-stim", "word": "ox", "stimulus": "<p id=\"stim\">OX</p>", "conditions": [12, 1600, "v", 24000], "internal_node_id": "0.0-139.0", "trial": 5, "time_elapsed": 886304, "serialpos": 8, "key_press": -1, "wordID": 993, "type": "PRES_VIS", "trial_index": 193}, "uniqueid": "MTK3039:3NPI0JQDAPC8KUMNOL24V7NIEECPTQ", "dateTime": 1519672781987}, {"current_trial": 194, "trialdata": {"rt": -1, "trial_type": "single-stim", "word": "custard", "stimulus": "<p id=\"stim\">CUSTARD</p>", "conditions": [12, 1600, "v", 24000], "internal_node_id": "0.0-140.0", "trial": 5, "time_elapsed": 888906, "serialpos": 9, "key_press": -1, "wordID": 428, "type": "PRES_VIS", "trial_index": 194}, "uniqueid": "MTK3039:3NPI0JQDAPC8KUMNOL24V7NIEECPTQ", "dateTime": 1519672784590}, {"current_trial": 195, "trialdata": {"rt": -1, "trial_type": "single-stim", "word": "tart", "stimulus": "<p id=\"stim\">TART</p>", "conditions": [12, 1600, "v", 24000], "internal_node_id": "0.0-141.0", "trial": 5, "time_elapsed": 891470, "serialpos": 10, "key_press": -1, "wordID": 1435, "type": "PRES_VIS", "trial_index": 195}, "uniqueid": "MTK3039:3NPI0JQDAPC8KUMNOL24V7NIEECPTQ", "dateTime": 1519672787153}, {"current_trial": 196, "trialdata": {"rt": -1, "trial_type": "single-stim", "word": "branch", "stimulus": "<p id=\"stim\">BRANCH</p>", "conditions": [12, 1600, "v", 24000], "internal_node_id": "0.0-142.0", "trial": 5, "time_elapsed": 893938, "serialpos": 11, "key_press": -1, "wordID": 167, "type": "PRES_VIS", "trial_index": 196}, "uniqueid": "MTK3039:3NPI0JQDAPC8KUMNOL24V7NIEECPTQ", "dateTime": 1519672789622}, {"current_trial": 197, "trialdata": {"rt": -1, "trial_type": "single-stim", "stimulus": "", "internal_node_id": "0.0-143.0-0.0", "time_elapsed": 896156, "key_press": -1, "type": "PRE_RECALL_DELAY", "trial_index": 197}, "uniqueid": "MTK3039:3NPI0JQDAPC8KUMNOL24V7NIEECPTQ", "dateTime": 1519672791839}, {"current_trial": 198, "trialdata": {"rt": -1000, "trial_type": "single-audio", "stimulus": "/static/audio/400Hz.wav", "internal_node_id": "0.0-144.0", "time_elapsed": 896671, "key_press": -1, "type": "PRE_RECALL_ALERT", "trial_index": 198}, "uniqueid": "MTK3039:3NPI0JQDAPC8KUMNOL24V7NIEECPTQ", "dateTime": 1519672792354}, {"current_trial": 199, "trialdata": {"rt": [5736, 9132, 14174, 15464, 17010, 23984, 26743], "recwords": ["gymnastics", "chauffer", "branch", "brook", "river", "power", "fox"], "key_times": [2805, 3013, 3382, 3736, 3948, 4260, 4627, 4840, 5082, 5426, 5736, 7235, 7465, 7833, 8101, 8404, 8561, 8771, 8835, 9132, 12483, 12718, 12978, 13171, 13619, 13898, 14174, 14413, 14688, 14889, 15051, 15243, 15464, 15776, 15960, 16182, 16420, 16532, 17010, 22235, 22920, 23210, 23427, 23664, 23984, 25979, 26206, 26486, 26743], "trial_type": "free-recall", "conditions": [12, 1600, "v", 24000], "internal_node_id": "0.0-145.0-0.0", "key_presses": [71, 89, 77, 78, 65, 83, 84, 73, 67, 83, 13, 67, 72, 65, 85, 70, 70, 69, 82, 13, 66, 82, 65, 78, 67, 72, 32, 66, 82, 79, 79, 75, 32, 82, 73, 86, 69, 82, 13, 80, 79, 87, 69, 82, 13, 70, 79, 88, 13], "trial": 5, "time_elapsed": 956688, "type": "FREE_RECALL", "trial_index": 199}, "uniqueid": "MTK3039:3NPI0JQDAPC8KUMNOL24V7NIEECPTQ", "dateTime": 1519672852375}, {"current_trial": 200, "trialdata": {"rt": 2062, "trial_type": "text", "internal_node_id": "0.0-146.0", "time_elapsed": 960765, "key_press": 13, "type": "INSTRUCTIONS", "trial_index": 200}, "uniqueid": "MTK3039:3NPI0JQDAPC8KUMNOL24V7NIEECPTQ", "dateTime": 1519672856448}, {"current_trial": 201, "trialdata": {"rt": [2947, 6284, 9512, 11963, 15062, 17410, 19254, 21124, 23414], "trial_type": "math-distractor", "key_times": [1955, 2235, 2947, 5528, 5921, 6284, 7807, 8394, 8950, 9254, 9512, 11030, 11565, 11963, 13134, 13639, 14198, 14485, 15062, 16744, 17171, 17410, 18553, 19000, 19254, 20805, 21124, 23148, 23414], "responses": ["13", "19", "15", "19", "10", "14", "14", "9", "9"], "num2": [1, 9, 2, 4, 3, 3, 7, 4, 6, 3], "num3": [8, 6, 9, 8, 4, 3, 3, 1, 1, 5], "conditions": [12, 800, "v", 24000], "internal_node_id": "0.0-147.0", "key_presses": [49, 51, 13, 49, 57, 13, 49, 52, 8, 53, 13, 49, 57, 13, 49, 57, 8, 48, 13, 49, 52, 13, 49, 52, 13, 57, 13, 57, 13], "trial": 6, "time_elapsed": 986780, "type": "DISTRACTOR", "trial_index": 201, "num1": [4, 4, 4, 7, 3, 8, 4, 4, 2, 3]}, "uniqueid": "MTK3039:3NPI0JQDAPC8KUMNOL24V7NIEECPTQ", "dateTime": 1519672882464}, {"current_trial": 202, "trialdata": {"rt": -1, "trial_type": "single-stim", "stimulus": "<p id=\"stim\">10</p>", "internal_node_id": "0.0-148.0-0.0", "time_elapsed": 989806, "key_press": -1, "trial_index": 202}, "uniqueid": "MTK3039:3NPI0JQDAPC8KUMNOL24V7NIEECPTQ", "dateTime": 1519672885489}, {"current_trial": 203, "trialdata": {"rt": -1, "trial_type": "single-stim", "stimulus": "<p id=\"stim\">9</p>", "internal_node_id": "0.0-148.0-1.0", "time_elapsed": 990805, "key_press": -1, "trial_index": 203}, "uniqueid": "MTK3039:3NPI0JQDAPC8KUMNOL24V7NIEECPTQ", "dateTime": 1519672886488}, {"current_trial": 204, "trialdata": {"rt": -1, "trial_type": "single-stim", "stimulus": "<p id=\"stim\">8</p>", "internal_node_id": "0.0-148.0-2.0", "time_elapsed": 991804, "key_press": -1, "trial_index": 204}, "uniqueid": "MTK3039:3NPI0JQDAPC8KUMNOL24V7NIEECPTQ", "dateTime": 1519672887488}, {"current_trial": 205, "trialdata": {"rt": -1, "trial_type": "single-stim", "stimulus": "<p id=\"stim\">7</p>", "internal_node_id": "0.0-148.0-3.0", "time_elapsed": 992804, "key_press": -1, "trial_index": 205}, "uniqueid": "MTK3039:3NPI0JQDAPC8KUMNOL24V7NIEECPTQ", "dateTime": 1519672888488}, {"current_trial": 206, "trialdata": {"rt": -1, "trial_type": "single-stim", "stimulus": "<p id=\"stim\">6</p>", "internal_node_id": "0.0-148.0-4.0", "time_elapsed": 993804, "key_press": -1, "trial_index": 206}, "uniqueid": "MTK3039:3NPI0JQDAPC8KUMNOL24V7NIEECPTQ", "dateTime": 1519672889487}, {"current_trial": 207, "trialdata": {"rt": -1, "trial_type": "single-stim", "stimulus": "<p id=\"stim\">5</p>", "internal_node_id": "0.0-148.0-5.0", "time_elapsed": 994803, "key_press": -1, "trial_index": 207}, "uniqueid": "MTK3039:3NPI0JQDAPC8KUMNOL24V7NIEECPTQ", "dateTime": 1519672890486}, {"current_trial": 208, "trialdata": {"rt": -1, "trial_type": "single-stim", "stimulus": "<p id=\"stim\">4</p>", "internal_node_id": "0.0-148.0-6.0", "time_elapsed": 995802, "key_press": -1, "trial_index": 208}, "uniqueid": "MTK3039:3NPI0JQDAPC8KUMNOL24V7NIEECPTQ", "dateTime": 1519672891486}, {"current_trial": 209, "trialdata": {"rt": -1, "trial_type": "single-stim", "stimulus": "<p id=\"stim\">3</p>", "internal_node_id": "0.0-148.0-7.0", "time_elapsed": 996801, "key_press": -1, "trial_index": 209}, "uniqueid": "MTK3039:3NPI0JQDAPC8KUMNOL24V7NIEECPTQ", "dateTime": 1519672892484}, {"current_trial": 210, "trialdata": {"rt": -1, "trial_type": "single-stim", "stimulus": "<p id=\"stim\">2</p>", "internal_node_id": "0.0-148.0-8.0", "time_elapsed": 997799, "key_press": -1, "trial_index": 210}, "uniqueid": "MTK3039:3NPI0JQDAPC8KUMNOL24V7NIEECPTQ", "dateTime": 1519672893482}, {"current_trial": 211, "trialdata": {"rt": -1, "trial_type": "single-stim", "stimulus": "<p id=\"stim\">1</p>", "internal_node_id": "0.0-148.0-9.0", "time_elapsed": 998798, "key_press": -1, "trial_index": 211}, "uniqueid": "MTK3039:3NPI0JQDAPC8KUMNOL24V7NIEECPTQ", "dateTime": 1519672894481}, {"current_trial": 212, "trialdata": {"rt": -1, "trial_type": "single-stim", "stimulus": "<p id=\"stim\">+</p>", "internal_node_id": "0.0-149.0-0.0", "time_elapsed": 1000314, "key_press": -1, "type": "FIXATION", "trial_index": 212}, "uniqueid": "MTK3039:3NPI0JQDAPC8KUMNOL24V7NIEECPTQ", "dateTime": 1519672895997}, {"current_trial": 213, "trialdata": {"rt": -1, "trial_type": "single-stim", "word": "patrol", "stimulus": "<p id=\"stim\">PATROL</p>", "conditions": [12, 800, "v", 24000], "internal_node_id": "0.0-150.0", "trial": 6, "time_elapsed": 1001126, "serialpos": 0, "key_press": -1, "wordID": 1026, "type": "PRES_VIS", "trial_index": 213}, "uniqueid": "MTK3039:3NPI0JQDAPC8KUMNOL24V7NIEECPTQ", "dateTime": 1519672896809}, {"current_trial": 214, "trialdata": {"rt": -1, "trial_type": "single-stim", "word": "turnip", "stimulus": "<p id=\"stim\">TURNIP</p>", "conditions": [12, 800, "v", 24000], "internal_node_id": "0.0-151.0", "trial": 6, "time_elapsed": 1002811, "serialpos": 1, "key_press": -1, "wordID": 1520, "type": "PRES_VIS", "trial_index": 214}, "uniqueid": "MTK3039:3NPI0JQDAPC8KUMNOL24V7NIEECPTQ", "dateTime": 1519672898495}, {"current_trial": 215, "trialdata": {"rt": -1, "trial_type": "single-stim", "word": "robin", "stimulus": "<p id=\"stim\">ROBIN</p>", "conditions": [12, 800, "v", 24000], "internal_node_id": "0.0-152.0", "trial": 6, "time_elapsed": 1004450, "serialpos": 2, "key_press": -1, "wordID": 1198, "type": "PRES_VIS", "trial_index": 215}, "uniqueid": "MTK3039:3NPI0JQDAPC8KUMNOL24V7NIEECPTQ", "dateTime": 1519672900133}, {"current_trial": 216, "trialdata": {"rt": -1, "trial_type": "single-stim", "word": "shelf", "stimulus": "<p id=\"stim\">SHELF</p>", "conditions": [12, 800, "v", 24000], "internal_node_id": "0.0-153.0", "trial": 6, "time_elapsed": 1006417, "serialpos": 3, "key_press": -1, "wordID": 1279, "type": "PRES_VIS", "trial_index": 216}, "uniqueid": "MTK3039:3NPI0JQDAPC8KUMNOL24V7NIEECPTQ", "dateTime": 1519672902101}, {"current_trial": 217, "trialdata": {"rt": -1, "trial_type": "single-stim", "word": "police", "stimulus": "<p id=\"stim\">POLICE</p>", "conditions": [12, 800, "v", 24000], "internal_node_id": "0.0-154.0", "trial": 6, "time_elapsed": 1008214, "serialpos": 4, "key_press": -1, "wordID": 1097, "type": "PRES_VIS", "trial_index": 217}, "uniqueid": "MTK3039:3NPI0JQDAPC8KUMNOL24V7NIEECPTQ", "dateTime": 1519672903897}, {"current_trial": 218, "trialdata": {"rt": -1, "trial_type": "single-stim", "word": "dust", "stimulus": "<p id=\"stim\">DUST</p>", "conditions": [12, 800, "v", 24000], "internal_node_id": "0.0-155.0", "trial": 6, "time_elapsed": 1010024, "serialpos": 5, "key_press": -1, "wordID": 507, "type": "PRES_VIS", "trial_index": 218}, "uniqueid": "MTK3039:3NPI0JQDAPC8KUMNOL24V7NIEECPTQ", "dateTime": 1519672905707}, {"current_trial": 219, "trialdata": {"rt": -1, "trial_type": "single-stim", "word": "bug", "stimulus": "<p id=\"stim\">BUG</p>", "conditions": [12, 800, "v", 24000], "internal_node_id": "0.0-156.0", "trial": 6, "time_elapsed": 1011676, "serialpos": 6, "key_press": -1, "wordID": 186, "type": "PRES_VIS", "trial_index": 219}, "uniqueid": "MTK3039:3NPI0JQDAPC8KUMNOL24V7NIEECPTQ", "dateTime": 1519672907360}, {"current_trial": 220, "trialdata": {"rt": -1, "trial_type": "single-stim", "word": "skirt", "stimulus": "<p id=\"stim\">SKIRT</p>", "conditions": [12, 800, "v", 24000], "internal_node_id": "0.0-157.0", "trial": 6, "time_elapsed": 1013301, "serialpos": 7, "key_press": -1, "wordID": 1318, "type": "PRES_VIS", "trial_index": 220}, "uniqueid": "MTK3039:3NPI0JQDAPC8KUMNOL24V7NIEECPTQ", "dateTime": 1519672908985}, {"current_trial": 221, "trialdata": {"rt": -1, "trial_type": "single-stim", "word": "grill", "stimulus": "<p id=\"stim\">GRILL</p>", "conditions": [12, 800, "v", 24000], "internal_node_id": "0.0-158.0", "trial": 6, "time_elapsed": 1015096, "serialpos": 8, "key_press": -1, "wordID": 660, "type": "PRES_VIS", "trial_index": 221}, "uniqueid": "MTK3039:3NPI0JQDAPC8KUMNOL24V7NIEECPTQ", "dateTime": 1519672910779}, {"current_trial": 222, "trialdata": {"rt": -1, "trial_type": "single-stim", "word": "briefcase", "stimulus": "<p id=\"stim\">BRIEFCASE</p>", "conditions": [12, 800, "v", 24000], "internal_node_id": "0.0-159.0", "trial": 6, "time_elapsed": 1016969, "serialpos": 9, "key_press": -1, "wordID": 174, "type": "PRES_VIS", "trial_index": 222}, "uniqueid": "MTK3039:3NPI0JQDAPC8KUMNOL24V7NIEECPTQ", "dateTime": 1519672912652}, {"current_trial": 223, "trialdata": {"rt": -1, "trial_type": "single-stim", "word": "daughter", "stimulus": "<p id=\"stim\">DAUGHTER</p>", "conditions": [12, 800, "v", 24000], "internal_node_id": "0.0-160.0", "trial": 6, "time_elapsed": 1018609, "serialpos": 10, "key_press": -1, "wordID": 441, "type": "PRES_VIS", "trial_index": 223}, "uniqueid": "MTK3039:3NPI0JQDAPC8KUMNOL24V7NIEECPTQ", "dateTime": 1519672914292}, {"current_trial": 224, "trialdata": {"rt": -1, "trial_type": "single-stim", "word": "woman", "stimulus": "<p id=\"stim\">WOMAN</p>", "conditions": [12, 800, "v", 24000], "internal_node_id": "0.0-161.0", "trial": 6, "time_elapsed": 1020531, "serialpos": 11, "key_press": -1, "wordID": 1619, "type": "PRES_VIS", "trial_index": 224}, "uniqueid": "MTK3039:3NPI0JQDAPC8KUMNOL24V7NIEECPTQ", "dateTime": 1519672916215}, {"current_trial": 225, "trialdata": {"rt": -1, "trial_type": "single-stim", "stimulus": "", "internal_node_id": "0.0-162.0-0.0", "time_elapsed": 1022797, "key_press": -1, "type": "PRE_RECALL_DELAY", "trial_index": 225}, "uniqueid": "MTK3039:3NPI0JQDAPC8KUMNOL24V7NIEECPTQ", "dateTime": 1519672918480}, {"current_trial": 226, "trialdata": {"rt": -1000, "trial_type": "single-audio", "stimulus": "/static/audio/400Hz.wav", "internal_node_id": "0.0-163.0", "time_elapsed": 1023296, "key_press": -1, "type": "PRE_RECALL_ALERT", "trial_index": 226}, "uniqueid": "MTK3039:3NPI0JQDAPC8KUMNOL24V7NIEECPTQ", "dateTime": 1519672918979}, {"current_trial": 227, "trialdata": {"rt": [4059, 5912, 9077, 12557, 18355, 22290, 25916], "recwords": ["patrol", "woman", "daughter", "brief", "police", "buggy", "turn"], "key_times": [2161, 2445, 2937, 3198, 3378, 3577, 4059, 4728, 4937, 5281, 5498, 5609, 5912, 7389, 7582, 7726, 7978, 8134, 8529, 8729, 8778, 9077, 11165, 11466, 11736, 11901, 12154, 12557, 17169, 17357, 17539, 17747, 17907, 18150, 18355, 19573, 19892, 20281, 21591, 21893, 22290, 24586, 25039, 25364, 25567, 25916], "trial_type": "free-recall", "conditions": [12, 800, "v", 24000], "internal_node_id": "0.0-164.0-0.0", "key_presses": [80, 65, 84, 82, 79, 76, 13, 87, 79, 77, 65, 78, 13, 68, 65, 85, 71, 72, 84, 69, 82, 13, 66, 82, 73, 69, 70, 13, 80, 79, 76, 73, 67, 69, 32, 66, 85, 71, 71, 89, 13, 84, 85, 82, 78, 13], "trial": 6, "time_elapsed": 1083302, "type": "FREE_RECALL", "trial_index": 227}, "uniqueid": "MTK3039:3NPI0JQDAPC8KUMNOL24V7NIEECPTQ", "dateTime": 1519672978989}, {"current_trial": 228, "trialdata": {"rt": 2043, "trial_type": "text", "internal_node_id": "0.0-165.0", "time_elapsed": 1087360, "key_press": 13, "type": "INSTRUCTIONS", "trial_index": 228}, "uniqueid": "MTK3039:3NPI0JQDAPC8KUMNOL24V7NIEECPTQ", "dateTime": 1519672983044}, {"current_trial": 229, "trialdata": {"rt": [2331, 5158, 6925, 9152, 11098, 13096, 15508, 17727, 19914, 23032], "trial_type": "math-distractor", "key_times": [1453, 1991, 2331, 4725, 5158, 6260, 6593, 6925, 8735, 9152, 10644, 10887, 11098, 12721, 13096, 14758, 15203, 15508, 17141, 17380, 17727, 19442, 19678, 19914, 21912, 22656, 23032], "responses": ["16", "9", "17", "9", "12", "2", "14", "11", "13", "25"], "num2": [1, 3, 8, 2, 7, 6, 7, 2, 1, 9, 2], "num3": [9, 5, 2, 4, 4, 8, 4, 4, 5, 8, 5], "conditions": [24, 1600, "v", 24000], "internal_node_id": "0.0-166.0", "key_presses": [49, 54, 13, 57, 13, 49, 55, 13, 57, 13, 49, 50, 13, 50, 13, 49, 52, 13, 49, 49, 13, 49, 51, 13, 50, 53, 13], "trial": 7, "time_elapsed": 1113392, "type": "DISTRACTOR", "trial_index": 229, "num1": [6, 1, 7, 3, 1, 6, 3, 5, 7, 8, 3]}, "uniqueid": "MTK3039:3NPI0JQDAPC8KUMNOL24V7NIEECPTQ", "dateTime": 1519673009076}, {"current_trial": 230, "trialdata": {"rt": -1, "trial_type": "single-stim", "stimulus": "<p id=\"stim\">10</p>", "internal_node_id": "0.0-167.0-0.0", "time_elapsed": 1116422, "key_press": -1, "trial_index": 230}, "uniqueid": "MTK3039:3NPI0JQDAPC8KUMNOL24V7NIEECPTQ", "dateTime": 1519673012105}, {"current_trial": 231, "trialdata": {"rt": -1, "trial_type": "single-stim", "stimulus": "<p id=\"stim\">9</p>", "internal_node_id": "0.0-167.0-1.0", "time_elapsed": 1117406, "key_press": -1, "trial_index": 231}, "uniqueid": "MTK3039:3NPI0JQDAPC8KUMNOL24V7NIEECPTQ", "dateTime": 1519673013090}, {"current_trial": 232, "trialdata": {"rt": -1, "trial_type": "single-stim", "stimulus": "<p id=\"stim\">8</p>", "internal_node_id": "0.0-167.0-2.0", "time_elapsed": 1118421, "key_press": -1, "trial_index": 232}, "uniqueid": "MTK3039:3NPI0JQDAPC8KUMNOL24V7NIEECPTQ", "dateTime": 1519673014104}, {"current_trial": 233, "trialdata": {"rt": -1, "trial_type": "single-stim", "stimulus": "<p id=\"stim\">7</p>", "internal_node_id": "0.0-167.0-3.0", "time_elapsed": 1119414, "key_press": -1, "trial_index": 233}, "uniqueid": "MTK3039:3NPI0JQDAPC8KUMNOL24V7NIEECPTQ", "dateTime": 1519673015097}, {"current_trial": 234, "trialdata": {"rt": -1, "trial_type": "single-stim", "stimulus": "<p id=\"stim\">6</p>", "internal_node_id": "0.0-167.0-4.0", "time_elapsed": 1120421, "key_press": -1, "trial_index": 234}, "uniqueid": "MTK3039:3NPI0JQDAPC8KUMNOL24V7NIEECPTQ", "dateTime": 1519673016104}, {"current_trial": 235, "trialdata": {"rt": -1, "trial_type": "single-stim", "stimulus": "<p id=\"stim\">5</p>", "internal_node_id": "0.0-167.0-5.0", "time_elapsed": 1121436, "key_press": -1, "trial_index": 235}, "uniqueid": "MTK3039:3NPI0JQDAPC8KUMNOL24V7NIEECPTQ", "dateTime": 1519673017120}, {"current_trial": 236, "trialdata": {"rt": -1, "trial_type": "single-stim", "stimulus": "<p id=\"stim\">4</p>", "internal_node_id": "0.0-167.0-6.0", "time_elapsed": 1122422, "key_press": -1, "trial_index": 236}, "uniqueid": "MTK3039:3NPI0JQDAPC8KUMNOL24V7NIEECPTQ", "dateTime": 1519673018105}, {"current_trial": 237, "trialdata": {"rt": -1, "trial_type": "single-stim", "stimulus": "<p id=\"stim\">3</p>", "internal_node_id": "0.0-167.0-7.0", "time_elapsed": 1123421, "key_press": -1, "trial_index": 237}, "uniqueid": "MTK3039:3NPI0JQDAPC8KUMNOL24V7NIEECPTQ", "dateTime": 1519673019104}, {"current_trial": 238, "trialdata": {"rt": -1, "trial_type": "single-stim", "stimulus": "<p id=\"stim\">2</p>", "internal_node_id": "0.0-167.0-8.0", "time_elapsed": 1124421, "key_press": -1, "trial_index": 238}, "uniqueid": "MTK3039:3NPI0JQDAPC8KUMNOL24V7NIEECPTQ", "dateTime": 1519673020104}, {"current_trial": 239, "trialdata": {"rt": -1, "trial_type": "single-stim", "stimulus": "<p id=\"stim\">1</p>", "internal_node_id": "0.0-167.0-9.0", "time_elapsed": 1125423, "key_press": -1, "trial_index": 239}, "uniqueid": "MTK3039:3NPI0JQDAPC8KUMNOL24V7NIEECPTQ", "dateTime": 1519673021106}, {"current_trial": 240, "trialdata": {"rt": -1, "trial_type": "single-stim", "stimulus": "<p id=\"stim\">+</p>", "internal_node_id": "0.0-168.0-0.0", "time_elapsed": 1126938, "key_press": -1, "type": "FIXATION", "trial_index": 240}, "uniqueid": "MTK3039:3NPI0JQDAPC8KUMNOL24V7NIEECPTQ", "dateTime": 1519673022621}, {"current_trial": 241, "trialdata": {"rt": -1, "trial_type": "single-stim", "word": "mailman", "stimulus": "<p id=\"stim\">MAILMAN</p>", "conditions": [24, 1600, "v", 24000], "internal_node_id": "0.0-169.0", "trial": 7, "time_elapsed": 1128547, "serialpos": 0, "key_press": -1, "wordID": 857, "type": "PRES_VIS", "trial_index": 241}, "uniqueid": "MTK3039:3NPI0JQDAPC8KUMNOL24V7NIEECPTQ", "dateTime": 1519673024230}, {"current_trial": 242, "trialdata": {"rt": -1, "trial_type": "single-stim", "word": "receipt", "stimulus": "<p id=\"stim\">RECEIPT</p>", "conditions": [24, 1600, "v", 24000], "internal_node_id": "0.0-170.0", "trial": 7, "time_elapsed": 1131002, "serialpos": 1, "key_press": -1, "wordID": 1172, "type": "PRES_VIS", "trial_index": 242}, "uniqueid": "MTK3039:3NPI0JQDAPC8KUMNOL24V7NIEECPTQ", "dateTime": 1519673026685}, {"current_trial": 243, "trialdata": {"rt": -1, "trial_type": "single-stim", "word": "snake", "stimulus": "<p id=\"stim\">SNAKE</p>", "conditions": [24, 1600, "v", 24000], "internal_node_id": "0.0-171.0", "trial": 7, "time_elapsed": 1133813, "serialpos": 2, "key_press": -1, "wordID": 1332, "type": "PRES_VIS", "trial_index": 243}, "uniqueid": "MTK3039:3NPI0JQDAPC8KUMNOL24V7NIEECPTQ", "dateTime": 1519673029496}, {"current_trial": 244, "trialdata": {"rt": -1, "trial_type": "single-stim", "word": "jungle", "stimulus": "<p id=\"stim\">JUNGLE</p>", "conditions": [24, 1600, "v", 24000], "internal_node_id": "0.0-172.0", "trial": 7, "time_elapsed": 1136626, "serialpos": 3, "key_press": -1, "wordID": 763, "type": "PRES_VIS", "trial_index": 244}, "uniqueid": "MTK3039:3NPI0JQDAPC8KUMNOL24V7NIEECPTQ", "dateTime": 1519673032309}, {"current_trial": 245, "trialdata": {"rt": -1, "trial_type": "single-stim", "word": "lodge", "stimulus": "<p id=\"stim\">LODGE</p>", "conditions": [24, 1600, "v", 24000], "internal_node_id": "0.0-173.0", "trial": 7, "time_elapsed": 1139358, "serialpos": 4, "key_press": -1, "wordID": 838, "type": "PRES_VIS", "trial_index": 245}, "uniqueid": "MTK3039:3NPI0JQDAPC8KUMNOL24V7NIEECPTQ", "dateTime": 1519673035042}, {"current_trial": 246, "trialdata": {"rt": -1, "trial_type": "single-stim", "word": "spouse", "stimulus": "<p id=\"stim\">SPOUSE</p>", "conditions": [24, 1600, "v", 24000], "internal_node_id": "0.0-174.0", "trial": 7, "time_elapsed": 1141969, "serialpos": 5, "key_press": -1, "wordID": 1357, "type": "PRES_VIS", "trial_index": 246}, "uniqueid": "MTK3039:3NPI0JQDAPC8KUMNOL24V7NIEECPTQ", "dateTime": 1519673037653}, {"current_trial": 247, "trialdata": {"rt": -1, "trial_type": "single-stim", "word": "marrow", "stimulus": "<p id=\"stim\">MARROW</p>", "conditions": [24, 1600, "v", 24000], "internal_node_id": "0.0-175.0", "trial": 7, "time_elapsed": 1144593, "serialpos": 6, "key_press": -1, "wordID": 871, "type": "PRES_VIS", "trial_index": 247}, "uniqueid": "MTK3039:3NPI0JQDAPC8KUMNOL24V7NIEECPTQ", "dateTime": 1519673040276}, {"current_trial": 248, "trialdata": {"rt": -1, "trial_type": "single-stim", "word": "rooster", "stimulus": "<p id=\"stim\">ROOSTER</p>", "conditions": [24, 1600, "v", 24000], "internal_node_id": "0.0-176.0", "trial": 7, "time_elapsed": 1147323, "serialpos": 7, "key_press": -1, "wordID": 1208, "type": "PRES_VIS", "trial_index": 248}, "uniqueid": "MTK3039:3NPI0JQDAPC8KUMNOL24V7NIEECPTQ", "dateTime": 1519673043006}, {"current_trial": 249, "trialdata": {"rt": -1, "trial_type": "single-stim", "word": "rabbit", "stimulus": "<p id=\"stim\">RABBIT</p>", "conditions": [24, 1600, "v", 24000], "internal_node_id": "0.0-177.0", "trial": 7, "time_elapsed": 1150070, "serialpos": 8, "key_press": -1, "wordID": 1151, "type": "PRES_VIS", "trial_index": 249}, "uniqueid": "MTK3039:3NPI0JQDAPC8KUMNOL24V7NIEECPTQ", "dateTime": 1519673045754}, {"current_trial": 250, "trialdata": {"rt": -1, "trial_type": "single-stim", "word": "cobra", "stimulus": "<p id=\"stim\">COBRA</p>", "conditions": [24, 1600, "v", 24000], "internal_node_id": "0.0-178.0", "trial": 7, "time_elapsed": 1152612, "serialpos": 9, "key_press": -1, "wordID": 335, "type": "PRES_VIS", "trial_index": 250}, "uniqueid": "MTK3039:3NPI0JQDAPC8KUMNOL24