{"assignmentId": "3PXX5PX6LY5114M4ZGTM5IS1A3YBAT", "workerId": "MTK3731", "questiondata": {"origin": "United States", "strat-rehearsal": "24", "marital": "Married/Domestic Partnership", "education": "Bachelor's degree", "ethnicity": "Not Hispanic", "color_depth": 24, "distracted": "No", "wrote-notes": "No", "strat-other": "", "screen_width": 1366, "avail_screen_width": 1366, "avail_screen_height": 720, "strat-image": "9", "language": "english", "gender": "Female", "age": "36", "gender_other": "", "race": ["White"], "strat-categorize": "46", "pixel_depth": 24, "strat-spatial": "15", "strat-story": "82", "race_other": "", "screen_height": 768}, "bonus": 0, "hitId": "35NNO802AV3GLBW5OSL6ORKUJJTINB", "counterbalance": 287, "useragent": "Mozilla/5.0 (X11; CrOS x86_64 10032.86.0) AppleWebKit/537.36 (KHTML, like Gecko) Chrome/63.0.3239.140 Safari/537.36", "eventdata": [{"eventtype": "initialized", "interval": 0, "value": null, "timestamp": 1520972343152}, {"eventtype": "window_resize", "interval": 1, "value": [1366, 648], "timestamp": 1520972343153}], "data": [{"current_trial": 0, "trialdata": {"rt": 2935, "trial_type": "text", "internal_node_id": "0.0-0.0", "time_elapsed": 2941, "key_press": 74, "type": "INSTRUCTIONS", "trial_index": 0}, "uniqueid": "MTK3731:3PXX5PX6LY5114M4ZGTM5IS1A3YBAT", "dateTime": 1520972351583}, {"current_trial": 1, "trialdata": {"rt": 9273, "trial_type": "text", "internal_node_id": "0.0-1.0", "time_elapsed": 12220, "key_press": 77, "type": "INSTRUCTIONS", "trial_index": 1}, "uniqueid": "MTK3731:3PXX5PX6LY5114M4ZGTM5IS1A3YBAT", "dateTime": 1520972360860}, {"current_trial": 2, "trialdata": {"rt": [13988], "trial_type": "audio-test", "responses": ["ocean"], "internal_node_id": "0.0-2.0", "time_elapsed": 26260, "type": "AUDIO_TEST", "trial_index": 2}, "uniqueid": "MTK3731:3PXX5PX6LY5114M4ZGTM5IS1A3YBAT", "dateTime": 1520972374901}, {"current_trial": 3, "trialdata": {"rt": [9331], "trial_type": "audio-test", "responses": ["crystal"], "internal_node_id": "0.0-3.0", "time_elapsed": 35609, "type": "AUDIO_TEST", "trial_index": 3}, "uniqueid": "MTK3731:3PXX5PX6LY5114M4ZGTM5IS1A3YBAT", "dateTime": 1520972384249}, {"current_trial": 4, "trialdata": {"rt": [6534], "trial_type": "audio-test", "responses": ["spice"], "internal_node_id": "0.0-4.0", "time_elapsed": 42156, "type": "AUDIO_TEST", "trial_index": 4}, "uniqueid": "MTK3731:3PXX5PX6LY5114M4ZGTM5IS1A3YBAT", "dateTime": 1520972390797}, {"current_trial": 5, "trialdata": {"rt": 26293, "trial_type": "survey-text", "responses": "{\"Q0\":\"10:30\",\"Q1\":\"5:30\",\"Q2\":\"4\"}", "internal_node_id": "0.0-5.0", "time_elapsed": 69205, "type": "SLEEP_SURVEY", "trial_index": 5}, "uniqueid": "MTK3731:3PXX5PX6LY5114M4ZGTM5IS1A3YBAT", "dateTime": 1520972417846}, {"current_trial": 6, "trialdata": {"rt": 20128, "trial_type": "text", "internal_node_id": "0.0-6.0", "time_elapsed": 90337, "key_press": 75, "type": "INSTRUCTIONS", "trial_index": 6}, "uniqueid": "MTK3731:3PXX5PX6LY5114M4ZGTM5IS1A3YBAT", "dateTime": 1520972438977}, {"current_trial": 7, "trialdata": {"rt": 9525, "trial_type": "text", "internal_node_id": "0.0-7.0", "time_elapsed": 100365, "key_press": 13, "type": "INSTRUCTIONS", "trial_index": 7}, "uniqueid": "MTK3731:3PXX5PX6LY5114M4ZGTM5IS1A3YBAT", "dateTime": 1520972449005}, {"current_trial": 8, "trialdata": {"rt": 3874, "trial_type": "text", "internal_node_id": "0.0-8.0", "time_elapsed": 104742, "key_press": 222, "type": "INSTRUCTIONS", "trial_index": 8}, "uniqueid": "MTK3731:3PXX5PX6LY5114M4ZGTM5IS1A3YBAT", "dateTime": 1520972453383}, {"current_trial": 9, "trialdata": {"rt": [2887, 6454, 13431], "trial_type": "math-distractor", "key_times": [1817, 1892, 2887, 6097, 6454, 12644, 13075, 13431, 16046, 16617], "responses": ["17", "6", "14"], "num2": [8, 1, 4, 9], "num3": [9, 4, 2, 5], "conditions": [18, 1200, "a", 18000], "internal_node_id": "0.0-9.0", "key_presses": [49, 55, 13, 54, 13, 49, 52, 13, 49, 55], "trial": 0, "time_elapsed": 123787, "type": "DISTRACTOR", "trial_index": 9, "num1": [6, 4, 8, 3]}, "uniqueid": "MTK3731:3PXX5PX6LY5114M4ZGTM5IS1A3YBAT", "dateTime": 1520972472428}, {"current_trial": 10, "trialdata": {"rt": -1, "trial_type": "single-stim", "stimulus": "<p id=\"stim\">10</p>", "internal_node_id": "0.0-10.0-0.0", "time_elapsed": 126795, "key_press": -1, "trial_index": 10}, "uniqueid": "MTK3731:3PXX5PX6LY5114M4ZGTM5IS1A3YBAT", "dateTime": 1520972475435}, {"current_trial": 11, "trialdata": {"rt": -1, "trial_type": "single-stim", "stimulus": "<p id=\"stim\">9</p>", "internal_node_id": "0.0-10.0-1.0", "time_elapsed": 127799, "key_press": -1, "trial_index": 11}, "uniqueid": "MTK3731:3PXX5PX6LY5114M4ZGTM5IS1A3YBAT", "dateTime": 1520972476439}, {"current_trial": 12, "trialdata": {"rt": -1, "trial_type": "single-stim", "stimulus": "<p id=\"stim\">8</p>", "internal_node_id": "0.0-10.0-2.0", "time_elapsed": 128803, "key_press": -1, "trial_index": 12}, "uniqueid": "MTK3731:3PXX5PX6LY5114M4ZGTM5IS1A3YBAT", "dateTime": 1520972477444}, {"current_trial": 13, "trialdata": {"rt": -1, "trial_type": "single-stim", "stimulus": "<p id=\"stim\">7</p>", "internal_node_id": "0.0-10.0-3.0", "time_elapsed": 129807, "key_press": -1, "trial_index": 13}, "uniqueid": "MTK3731:3PXX5PX6LY5114M4ZGTM5IS1A3YBAT", "dateTime": 1520972478448}, {"current_trial": 14, "trialdata": {"rt": -1, "trial_type": "single-stim", "stimulus": "<p id=\"stim\">6</p>", "internal_node_id": "0.0-10.0-4.0", "time_elapsed": 130810, "key_press": -1, "trial_index": 14}, "uniqueid": "MTK3731:3PXX5PX6LY5114M4ZGTM5IS1A3YBAT", "dateTime": 1520972479450}, {"current_trial": 15, "trialdata": {"rt": -1, "trial_type": "single-stim", "stimulus": "<p id=\"stim\">5</p>", "internal_node_id": "0.0-10.0-5.0", "time_elapsed": 131813, "key_press": -1, "trial_index": 15}, "uniqueid": "MTK3731:3PXX5PX6LY5114M4ZGTM5IS1A3YBAT", "dateTime": 1520972480453}, {"current_trial": 16, "trialdata": {"rt": -1, "trial_type": "single-stim", "stimulus": "<p id=\"stim\">4</p>", "internal_node_id": "0.0-10.0-6.0", "time_elapsed": 132817, "key_press": -1, "trial_index": 16}, "uniqueid": "MTK3731:3PXX5PX6LY5114M4ZGTM5IS1A3YBAT", "dateTime": 1520972481457}, {"current_trial": 17, "trialdata": {"rt": -1, "trial_type": "single-stim", "stimulus": "<p id=\"stim\">3</p>", "internal_node_id": "0.0-10.0-7.0", "time_elapsed": 133822, "key_press": -1, "trial_index": 17}, "uniqueid": "MTK3731:3PXX5PX6LY5114M4ZGTM5IS1A3YBAT", "dateTime": 1520972482463}, {"current_trial": 18, "trialdata": {"rt": -1, "trial_type": "single-stim", "stimulus": "<p id=\"stim\">2</p>", "internal_node_id": "0.0-10.0-8.0", "time_elapsed": 134826, "key_press": -1, "trial_index": 18}, "uniqueid": "MTK3731:3PXX5PX6LY5114M4ZGTM5IS1A3YBAT", "dateTime": 1520972483466}, {"current_trial": 19, "trialdata": {"rt": -1, "trial_type": "single-stim", "stimulus": "<p id=\"stim\">1</p>", "internal_node_id": "0.0-10.0-9.0", "time_elapsed": 135830, "key_press": -1, "trial_index": 19}, "uniqueid": "MTK3731:3PXX5PX6LY5114M4ZGTM5IS1A3YBAT", "dateTime": 1520972484470}, {"current_trial": 20, "trialdata": {"rt": -1, "trial_type": "single-stim", "stimulus": "<p id=\"stim\">+</p>", "internal_node_id": "0.0-11.0-0.0", "time_elapsed": 137333, "key_press": -1, "type": "FIXATION", "trial_index": 20}, "uniqueid": "MTK3731:3PXX5PX6LY5114M4ZGTM5IS1A3YBAT", "dateTime": 1520972485974}, {"current_trial": 21, "trialdata": {"rt": -1000, "trial_type": "single-audio", "word": "pistol", "stimulus": "/static/audio/wordpool/PISTOL.wav", "conditions": [18, 1200, "a", 18000], "internal_node_id": "0.0-12.0", "trial": 0, "time_elapsed": 139524, "serialpos": 0, "key_press": -1, "wordID": 1074, "type": "PRES_AUD", "trial_index": 21}, "uniqueid": "MTK3731:3PXX5PX6LY5114M4ZGTM5IS1A3YBAT", "dateTime": 1520972488165}, {"current_trial": 22, "trialdata": {"rt": -1000, "trial_type": "single-audio", "word": "relish", "stimulus": "/static/audio/wordpool/RELISH.wav", "conditions": [18, 1200, "a", 18000], "internal_node_id": "0.0-13.0", "trial": 0, "time_elapsed": 141544, "serialpos": 1, "key_press": -1, "wordID": 1182, "type": "PRES_AUD", "trial_index": 22}, "uniqueid": "MTK3731:3PXX5PX6LY5114M4ZGTM5IS1A3YBAT", "dateTime": 1520972490184}, {"current_trial": 23, "trialdata": {"rt": -1000, "trial_type": "single-audio", "word": "powder", "stimulus": "/static/audio/wordpool/POWDER.wav", "conditions": [18, 1200, "a", 18000], "internal_node_id": "0.0-14.0", "trial": 0, "time_elapsed": 143888, "serialpos": 2, "key_press": -1, "wordID": 1116, "type": "PRES_AUD", "trial_index": 23}, "uniqueid": "MTK3731:3PXX5PX6LY5114M4ZGTM5IS1A3YBAT", "dateTime": 1520972492528}, {"current_trial": 24, "trialdata": {"rt": -1000, "trial_type": "single-audio", "word": "journal", "stimulus": "/static/audio/wordpool/JOURNAL.wav", "conditions": [18, 1200, "a", 18000], "internal_node_id": "0.0-15.0", "trial": 0, "time_elapsed": 146117, "serialpos": 3, "key_press": -1, "wordID": 759, "type": "PRES_AUD", "trial_index": 24}, "uniqueid": "MTK3731:3PXX5PX6LY5114M4ZGTM5IS1A3YBAT", "dateTime": 1520972494757}, {"current_trial": 25, "trialdata": {"rt": -1000, "trial_type": "single-audio", "word": "dandruff", "stimulus": "/static/audio/wordpool/DANDRUFF.wav", "conditions": [18, 1200, "a", 18000], "internal_node_id": "0.0-16.0", "trial": 0, "time_elapsed": 148464, "serialpos": 4, "key_press": -1, "wordID": 438, "type": "PRES_AUD", "trial_index": 25}, "uniqueid": "MTK3731:3PXX5PX6LY5114M4ZGTM5IS1A3YBAT", "dateTime": 1520972497105}, {"current_trial": 26, "trialdata": {"rt": -1000, "trial_type": "single-audio", "word": "critic", "stimulus": "/static/audio/wordpool/CRITIC.wav", "conditions": [18, 1200, "a", 18000], "internal_node_id": "0.0-17.0", "trial": 0, "time_elapsed": 150579, "serialpos": 5, "key_press": -1, "wordID": 409, "type": "PRES_AUD", "trial_index": 26}, "uniqueid": "MTK3731:3PXX5PX6LY5114M4ZGTM5IS1A3YBAT", "dateTime": 1520972499219}, {"current_trial": 27, "trialdata": {"rt": -1000, "trial_type": "single-audio", "word": "star", "stimulus": "/static/audio/wordpool/STAR.wav", "conditions": [18, 1200, "a", 18000], "internal_node_id": "0.0-18.0", "trial": 0, "time_elapsed": 152807, "serialpos": 6, "key_press": -1, "wordID": 1372, "type": "PRES_AUD", "trial_index": 27}, "uniqueid": "MTK3731:3PXX5PX6LY5114M4ZGTM5IS1A3YBAT", "dateTime": 1520972501448}, {"current_trial": 28, "trialdata": {"rt": -1000, "trial_type": "single-audio", "word": "lion", "stimulus": "/static/audio/wordpool/LION.wav", "conditions": [18, 1200, "a", 18000], "internal_node_id": "0.0-19.0", "trial": 0, "time_elapsed": 155040, "serialpos": 7, "key_press": -1, "wordID": 826, "type": "PRES_AUD", "trial_index": 28}, "uniqueid": "MTK3731:3PXX5PX6LY5114M4ZGTM5IS1A3YBAT", "dateTime": 1520972503680}, {"current_trial": 29, "trialdata": {"rt": -1000, "trial_type": "single-audio", "word": "antler", "stimulus": "/static/audio/wordpool/ANTLER.wav", "conditions": [18, 1200, "a", 18000], "internal_node_id": "0.0-20.0", "trial": 0, "time_elapsed": 157252, "serialpos": 8, "key_press": -1, "wordID": 28, "type": "PRES_AUD", "trial_index": 29}, "uniqueid": "MTK3731:3PXX5PX6LY5114M4ZGTM5IS1A3YBAT", "dateTime": 1520972505892}, {"current_trial": 30, "trialdata": {"rt": -1000, "trial_type": "single-audio", "word": "daisy", "stimulus": "/static/audio/wordpool/DAISY.wav", "conditions": [18, 1200, "a", 18000], "internal_node_id": "0.0-21.0", "trial": 0, "time_elapsed": 159647, "serialpos": 9, "key_press": -1, "wordID": 434, "type": "PRES_AUD", "trial_index": 30}, "uniqueid": "MTK3731:3PXX5PX6LY5114M4ZGTM5IS1A3YBAT", "dateTime": 1520972508287}, {"current_trial": 31, "trialdata": {"rt": -1000, "trial_type": "single-audio", "word": "tuba", "stimulus": "/static/audio/wordpool/TUBA.wav", "conditions": [18, 1200, "a", 18000], "internal_node_id": "0.0-22.0", "trial": 0, "time_elapsed": 161940, "serialpos": 10, "key_press": -1, "wordID": 1514, "type": "PRES_AUD", "trial_index": 31}, "uniqueid": "MTK3731:3PXX5PX6LY5114M4ZGTM5IS1A3YBAT", "dateTime": 1520972510580}, {"current_trial": 32, "trialdata": {"rt": -1000, "trial_type": "single-audio", "word": "sunset", "stimulus": "/static/audio/wordpool/SUNSET.wav", "conditions": [18, 1200, "a", 18000], "internal_node_id": "0.0-23.0", "trial": 0, "time_elapsed": 163998, "serialpos": 11, "key_press": -1, "wordID": 1407, "type": "PRES_AUD", "trial_index": 32}, "uniqueid": "MTK3731:3PXX5PX6LY5114M4ZGTM5IS1A3YBAT", "dateTime": 1520972512639}, {"current_trial": 33, "trialdata": {"rt": -1000, "trial_type": "single-audio", "word": "gift", "stimulus": "/static/audio/wordpool/GIFT.wav", "conditions": [18, 1200, "a", 18000], "internal_node_id": "0.0-24.0", "trial": 0, "time_elapsed": 166340, "serialpos": 12, "key_press": -1, "wordID": 634, "type": "PRES_AUD", "trial_index": 33}, "uniqueid": "MTK3731:3PXX5PX6LY5114M4ZGTM5IS1A3YBAT", "dateTime": 1520972514980}, {"current_trial": 34, "trialdata": {"rt": -1000, "trial_type": "single-audio", "word": "coffee", "stimulus": "/static/audio/wordpool/COFFEE.wav", "conditions": [18, 1200, "a", 18000], "internal_node_id": "0.0-25.0", "trial": 0, "time_elapsed": 168510, "serialpos": 13, "key_press": -1, "wordID": 340, "type": "PRES_AUD", "trial_index": 34}, "uniqueid": "MTK3731:3PXX5PX6LY5114M4ZGTM5IS1A3YBAT", "dateTime": 1520972517150}, {"current_trial": 35, "trialdata": {"rt": -1000, "trial_type": "single-audio", "word": "apron", "stimulus": "/static/audio/wordpool/APRON.wav", "conditions": [18, 1200, "a", 18000], "internal_node_id": "0.0-26.0", "trial": 0, "time_elapsed": 170648, "serialpos": 14, "key_press": -1, "wordID": 34, "type": "PRES_AUD", "trial_index": 35}, "uniqueid": "MTK3731:3PXX5PX6LY5114M4ZGTM5IS1A3YBAT", "dateTime": 1520972519289}, {"current_trial": 36, "trialdata": {"rt": -1000, "trial_type": "single-audio", "word": "lily", "stimulus": "/static/audio/wordpool/LILY.wav", "conditions": [18, 1200, "a", 18000], "internal_node_id": "0.0-27.0", "trial": 0, "time_elapsed": 172935, "serialpos": 15, "key_press": -1, "wordID": 820, "type": "PRES_AUD", "trial_index": 36}, "uniqueid": "MTK3731:3PXX5PX6LY5114M4ZGTM5IS1A3YBAT", "dateTime": 1520972521575}, {"current_trial": 37, "trialdata": {"rt": -1000, "trial_type": "single-audio", "word": "fleet", "stimulus": "/static/audio/wordpool/FLEET.wav", "conditions": [18, 1200, "a", 18000], "internal_node_id": "0.0-28.0", "trial": 0, "time_elapsed": 175271, "serialpos": 16, "key_press": -1, "wordID": 577, "type": "PRES_AUD", "trial_index": 37}, "uniqueid": "MTK3731:3PXX5PX6LY5114M4ZGTM5IS1A3YBAT", "dateTime": 1520972523912}, {"current_trial": 38, "trialdata": {"rt": -1000, "trial_type": "single-audio", "word": "shovel", "stimulus": "/static/audio/wordpool/SHOVEL.wav", "conditions": [18, 1200, "a", 18000], "internal_node_id": "0.0-29.0", "trial": 0, "time_elapsed": 177416, "serialpos": 17, "key_press": -1, "wordID": 1294, "type": "PRES_AUD", "trial_index": 38}, "uniqueid": "MTK3731:3PXX5PX6LY5114M4ZGTM5IS1A3YBAT", "dateTime": 1520972526056}, {"current_trial": 39, "trialdata": {"rt": -1, "trial_type": "single-stim", "stimulus": "", "internal_node_id": "0.0-30.0-0.0", "time_elapsed": 178752, "key_press": -1, "type": "PRE_RECALL_DELAY", "trial_index": 39}, "uniqueid": "MTK3731:3PXX5PX6LY5114M4ZGTM5IS1A3YBAT", "dateTime": 1520972527393}, {"current_trial": 40, "trialdata": {"rt": -1000, "trial_type": "single-audio", "stimulus": "/static/audio/400Hz.wav", "internal_node_id": "0.0-31.0", "time_elapsed": 179256, "key_press": -1, "type": "PRE_RECALL_ALERT", "trial_index": 40}, "uniqueid": "MTK3731:3PXX5PX6LY5114M4ZGTM5IS1A3YBAT", "dateTime": 1520972527897}, {"current_trial": 41, "trialdata": {"rt": [3244, 4637, 6027, 9651, 16908, 28207], "recwords": ["crystal", "tuba", "coffee", "apron", "relish", "fleet"], "key_times": [1673, 1954, 2051, 2179, 2331, 2495, 2878, 3244, 3697, 3846, 4066, 4303, 4637, 4881, 5000, 5197, 5310, 5466, 5611, 6027, 8760, 8932, 9098, 9204, 9452, 9651, 15906, 16048, 16173, 16308, 16538, 16607, 16908, 27249, 27471, 27562, 27710, 27966, 28207], "trial_type": "free-recall", "conditions": [18, 1200, "a", 18000], "internal_node_id": "0.0-32.0-0.0", "key_presses": [67, 82, 89, 83, 84, 65, 76, 13, 84, 85, 66, 65, 13, 67, 79, 70, 70, 69, 69, 13, 65, 80, 82, 79, 78, 13, 82, 69, 76, 73, 83, 72, 13, 70, 76, 69, 69, 84, 13], "trial": 0, "time_elapsed": 239263, "type": "FREE_RECALL", "trial_index": 41}, "uniqueid": "MTK3731:3PXX5PX6LY5114M4ZGTM5IS1A3YBAT", "dateTime": 1520972587907}, {"current_trial": 42, "trialdata": {"rt": 1451, "trial_type": "text", "internal_node_id": "0.0-33.0", "time_elapsed": 242722, "key_press": 13, "type": "INSTRUCTIONS", "trial_index": 42}, "uniqueid": "MTK3731:3PXX5PX6LY5114M4ZGTM5IS1A3YBAT", "dateTime": 1520972591362}, {"current_trial": 43, "trialdata": {"rt": [4221, 7313, 10094, 13176], "trial_type": "math-distractor", "key_times": [3358, 3777, 4221, 6589, 6843, 7313, 9473, 9802, 10094, 12632, 12941, 13176, 15526, 15897], "responses": ["17", "17", "13", "23"], "num2": [1, 9, 3, 8, 2], "num3": [7, 1, 5, 7, 6], "conditions": [18, 1200, "a", 18000], "internal_node_id": "0.0-34.0", "key_presses": [49, 55, 13, 49, 55, 13, 49, 51, 13, 50, 51, 13, 49, 51], "trial": 1, "time_elapsed": 262729, "type": "DISTRACTOR", "trial_index": 43, "num1": [9, 6, 3, 8, 5]}, "uniqueid": "MTK3731:3PXX5PX6LY5114M4ZGTM5IS1A3YBAT", "dateTime": 1520972611370}, {"current_trial": 44, "trialdata": {"rt": -1, "trial_type": "single-stim", "stimulus": "<p id=\"stim\">10</p>", "internal_node_id": "0.0-35.0-0.0", "time_elapsed": 265734, "key_press": -1, "trial_index": 44}, "uniqueid": "MTK3731:3PXX5PX6LY5114M4ZGTM5IS1A3YBAT", "dateTime": 1520972614374}, {"current_trial": 45, "trialdata": {"rt": -1, "trial_type": "single-stim", "stimulus": "<p id=\"stim\">9</p>", "internal_node_id": "0.0-35.0-1.0", "time_elapsed": 266738, "key_press": -1, "trial_index": 45}, "uniqueid": "MTK3731:3PXX5PX6LY5114M4ZGTM5IS1A3YBAT", "dateTime": 1520972615378}, {"current_trial": 46, "trialdata": {"rt": -1, "trial_type": "single-stim", "stimulus": "<p id=\"stim\">8</p>", "internal_node_id": "0.0-35.0-2.0", "time_elapsed": 267741, "key_press": -1, "trial_index": 46}, "uniqueid": "MTK3731:3PXX5PX6LY5114M4ZGTM5IS1A3YBAT", "dateTime": 1520972616382}, {"current_trial": 47, "trialdata": {"rt": -1, "trial_type": "single-stim", "stimulus": "<p id=\"stim\">7</p>", "internal_node_id": "0.0-35.0-3.0", "time_elapsed": 268745, "key_press": -1, "trial_index": 47}, "uniqueid": "MTK3731:3PXX5PX6LY5114M4ZGTM5IS1A3YBAT", "dateTime": 1520972617386}, {"current_trial": 48, "trialdata": {"rt": -1, "trial_type": "single-stim", "stimulus": "<p id=\"stim\">6</p>", "internal_node_id": "0.0-35.0-4.0", "time_elapsed": 269749, "key_press": -1, "trial_index": 48}, "uniqueid": "MTK3731:3PXX5PX6LY5114M4ZGTM5IS1A3YBAT", "dateTime": 1520972618390}, {"current_trial": 49, "trialdata": {"rt": -1, "trial_type": "single-stim", "stimulus": "<p id=\"stim\">5</p>", "internal_node_id": "0.0-35.0-5.0", "time_elapsed": 270753, "key_press": -1, "trial_index": 49}, "uniqueid": "MTK3731:3PXX5PX6LY5114M4ZGTM5IS1A3YBAT", "dateTime": 1520972619393}, {"current_trial": 50, "trialdata": {"rt": -1, "trial_type": "single-stim", "stimulus": "<p id=\"stim\">4</p>", "internal_node_id": "0.0-35.0-6.0", "time_elapsed": 271756, "key_press": -1, "trial_index": 50}, "uniqueid": "MTK3731:3PXX5PX6LY5114M4ZGTM5IS1A3YBAT", "dateTime": 1520972620396}, {"current_trial": 51, "trialdata": {"rt": -1, "trial_type": "single-stim", "stimulus": "<p id=\"stim\">3</p>", "internal_node_id": "0.0-35.0-7.0", "time_elapsed": 272760, "key_press": -1, "trial_index": 51}, "uniqueid": "MTK3731:3PXX5PX6LY5114M4ZGTM5IS1A3YBAT", "dateTime": 1520972621401}, {"current_trial": 52, "trialdata": {"rt": -1, "trial_type": "single-stim", "stimulus": "<p id=\"stim\">2</p>", "internal_node_id": "0.0-35.0-8.0", "time_elapsed": 273765, "key_press": -1, "trial_index": 52}, "uniqueid": "MTK3731:3PXX5PX6LY5114M4ZGTM5IS1A3YBAT", "dateTime": 1520972622406}, {"current_trial": 53, "trialdata": {"rt": -1, "trial_type": "single-stim", "stimulus": "<p id=\"stim\">1</p>", "internal_node_id": "0.0-35.0-9.0", "time_elapsed": 274768, "key_press": -1, "trial_index": 53}, "uniqueid": "MTK3731:3PXX5PX6LY5114M4ZGTM5IS1A3YBAT", "dateTime": 1520972623408}, {"current_trial": 54, "trialdata": {"rt": -1, "trial_type": "single-stim", "stimulus": "<p id=\"stim\">+</p>", "internal_node_id": "0.0-36.0-0.0", "time_elapsed": 276271, "key_press": -1, "type": "FIXATION", "trial_index": 54}, "uniqueid": "MTK3731:3PXX5PX6LY5114M4ZGTM5IS1A3YBAT", "dateTime": 1520972624912}, {"current_trial": 55, "trialdata": {"rt": -1000, "trial_type": "single-audio", "word": "widow", "stimulus": "/static/audio/wordpool/WIDOW.wav", "conditions": [18, 1200, "a", 18000], "internal_node_id": "0.0-37.0", "trial": 1, "time_elapsed": 278540, "serialpos": 0, "key_press": -1, "wordID": 1607, "type": "PRES_AUD", "trial_index": 55}, "uniqueid": "MTK3731:3PXX5PX6LY5114M4ZGTM5IS1A3YBAT", "dateTime": 1520972627180}, {"current_trial": 56, "trialdata": {"rt": -1000, "trial_type": "single-audio", "word": "record", "stimulus": "/static/audio/wordpool/RECORD.wav", "conditions": [18, 1200, "a", 18000], "internal_node_id": "0.0-38.0", "trial": 1, "time_elapsed": 280934, "serialpos": 1, "key_press": -1, "wordID": 1175, "type": "PRES_AUD", "trial_index": 56}, "uniqueid": "MTK3731:3PXX5PX6LY5114M4ZGTM5IS1A3YBAT", "dateTime": 1520972629575}, {"current_trial": 57, "trialdata": {"rt": -1000, "trial_type": "single-audio", "word": "servant", "stimulus": "/static/audio/wordpool/SERVANT.wav", "conditions": [18, 1200, "a", 18000], "internal_node_id": "0.0-39.0", "trial": 1, "time_elapsed": 283050, "serialpos": 2, "key_press": -1, "wordID": 1270, "type": "PRES_AUD", "trial_index": 57}, "uniqueid": "MTK3731:3PXX5PX6LY5114M4ZGTM5IS1A3YBAT", "dateTime": 1520972631691}, {"current_trial": 58, "trialdata": {"rt": -1000, "trial_type": "single-audio", "word": "beef", "stimulus": "/static/audio/wordpool/BEEF.wav", "conditions": [18, 1200, "a", 18000], "internal_node_id": "0.0-40.0", "trial": 1, "time_elapsed": 285150, "serialpos": 3, "key_press": -1, "wordID": 112, "type": "PRES_AUD", "trial_index": 58}, "uniqueid": "MTK3731:3PXX5PX6LY5114M4ZGTM5IS1A3YBAT", "dateTime": 1520972633790}, {"current_trial": 59, "trialdata": {"rt": -1000, "trial_type": "single-audio", "word": "expert", "stimulus": "/static/audio/wordpool/EXPERT.wav", "conditions": [18, 1200, "a", 18000], "internal_node_id": "0.0-41.0", "trial": 1, "time_elapsed": 287234, "serialpos": 4, "key_press": -1, "wordID": 542, "type": "PRES_AUD", "trial_index": 59}, "uniqueid": "MTK3731:3PXX5PX6LY5114M4ZGTM5IS1A3YBAT", "dateTime": 1520972635874}, {"current_trial": 60, "trialdata": {"rt": -1000, "trial_type": "single-audio", "word": "tart", "stimulus": "/static/audio/wordpool/TART.wav", "conditions": [18, 1200, "a", 18000], "internal_node_id": "0.0-42.0", "trial": 1, "time_elapsed": 289507, "serialpos": 5, "key_press": -1, "wordID": 1435, "type": "PRES_AUD", "trial_index": 60}, "uniqueid": "MTK3731:3PXX5PX6LY5114M4ZGTM5IS1A3YBAT", "dateTime": 1520972638148}, {"current_trial": 61, "trialdata": {"rt": -1000, "trial_type": "single-audio", "word": "rooster", "stimulus": "/static/audio/wordpool/ROOSTER.wav", "conditions": [18, 1200, "a", 18000], "internal_node_id": "0.0-43.0", "trial": 1, "time_elapsed": 291824, "serialpos": 6, "key_press": -1, "wordID": 1208, "type": "PRES_AUD", "trial_index": 61}, "uniqueid": "MTK3731:3PXX5PX6LY5114M4ZGTM5IS1A3YBAT", "dateTime": 1520972640465}, {"current_trial": 62, "trialdata": {"rt": -1000, "trial_type": "single-audio", "word": "tombstone", "stimulus": "/static/audio/wordpool/TOMBSTONE.wav", "conditions": [18, 1200, "a", 18000], "internal_node_id": "0.0-44.0", "trial": 1, "time_elapsed": 293839, "serialpos": 7, "key_press": -1, "wordID": 1477, "type": "PRES_AUD", "trial_index": 62}, "uniqueid": "MTK3731:3PXX5PX6LY5114M4ZGTM5IS1A3YBAT", "dateTime": 1520972642482}, {"current_trial": 63, "trialdata": {"rt": -1000, "trial_type": "single-audio", "word": "mummy", "stimulus": "/static/audio/wordpool/MUMMY.wav", "conditions": [18, 1200, "a", 18000], "internal_node_id": "0.0-45.0", "trial": 1, "time_elapsed": 296028, "serialpos": 8, "key_press": -1, "wordID": 931, "type": "PRES_AUD", "trial_index": 63}, "uniqueid": "MTK3731:3PXX5PX6LY5114M4ZGTM5IS1A3YBAT", "dateTime": 1520972644668}, {"current_trial": 64, "trialdata": {"rt": -1000, "trial_type": "single-audio", "word": "snail", "stimulus": "/static/audio/wordpool/SNAIL.wav", "conditions": [18, 1200, "a", 18000], "internal_node_id": "0.0-46.0", "trial": 1, "time_elapsed": 298419, "serialpos": 9, "key_press": -1, "wordID": 1331, "type": "PRES_AUD", "trial_index": 64}, "uniqueid": "MTK3731:3PXX5PX6LY5114M4ZGTM5IS1A3YBAT", "dateTime": 1520972647059}, {"current_trial": 65, "trialdata": {"rt": -1000, "trial_type": "single-audio", "word": "dentist", "stimulus": "/static/audio/wordpool/DENTIST.wav", "conditions": [18, 1200, "a", 18000], "internal_node_id": "0.0-47.0", "trial": 1, "time_elapsed": 300793, "serialpos": 10, "key_press": -1, "wordID": 446, "type": "PRES_AUD", "trial_index": 65}, "uniqueid": "MTK3731:3PXX5PX6LY5114M4ZGTM5IS1A3YBAT", "dateTime": 1520972649433}, {"current_trial": 66, "trialdata": {"rt": -1000, "trial_type": "single-audio", "word": "sandwich", "stimulus": "/static/audio/wordpool/SANDWICH.wav", "conditions": [18, 1200, "a", 18000], "internal_node_id": "0.0-48.0", "trial": 1, "time_elapsed": 302921, "serialpos": 11, "key_press": -1, "wordID": 1231, "type": "PRES_AUD", "trial_index": 66}, "uniqueid": "MTK3731:3PXX5PX6LY5114M4ZGTM5IS1A3YBAT", "dateTime": 1520972651561}, {"current_trial": 67, "trialdata": {"rt": -1000, "trial_type": "single-audio", "word": "postage", "stimulus": "/static/audio/wordpool/POSTAGE.wav", "conditions": [18, 1200, "a", 18000], "internal_node_id": "0.0-49.0", "trial": 1, "time_elapsed": 304963, "serialpos": 12, "key_press": -1, "wordID": 1112, "type": "PRES_AUD", "trial_index": 67}, "uniqueid": "MTK3731:3PXX5PX6LY5114M4ZGTM5IS1A3YBAT", "dateTime": 1520972653603}, {"current_trial": 68, "trialdata": {"rt": -1000, "trial_type": "single-audio", "word": "typist", "stimulus": "/static/audio/wordpool/TYPIST.wav", "conditions": [18, 1200, "a", 18000], "internal_node_id": "0.0-50.0", "trial": 1, "time_elapsed": 307054, "serialpos": 13, "key_press": -1, "wordID": 1531, "type": "PRES_AUD", "trial_index": 68}, "uniqueid": "MTK3731:3PXX5PX6LY5114M4ZGTM5IS1A3YBAT", "dateTime": 1520972655698}, {"current_trial": 69, "trialdata": {"rt": -1000, "trial_type": "single-audio", "word": "patient", "stimulus": "/static/audio/wordpool/PATIENT.wav", "conditions": [18, 1200, "a", 18000], "internal_node_id": "0.0-51.0", "trial": 1, "time_elapsed": 309102, "serialpos": 14, "key_press": -1, "wordID": 1023, "type": "PRES_AUD", "trial_index": 69}, "uniqueid": "MTK3731:3PXX5PX6LY5114M4ZGTM5IS1A3YBAT", "dateTime": 1520972657742}, {"current_trial": 70, "trialdata": {"rt": -1000, "trial_type": "single-audio", "word": "mailman", "stimulus": "/static/audio/wordpool/MAILMAN.wav", "conditions": [18, 1200, "a", 18000], "internal_node_id": "0.0-52.0", "trial": 1, "time_elapsed": 311176, "serialpos": 15, "key_press": -1, "wordID": 857, "type": "PRES_AUD", "trial_index": 70}, "uniqueid": "MTK3731:3PXX5PX6LY5114M4ZGTM5IS1A3YBAT", "dateTime": 1520972659816}, {"current_trial": 71, "trialdata": {"rt": -1000, "trial_type": "single-audio", "word": "beast", "stimulus": "/static/audio/wordpool/BEAST.wav", "conditions": [18, 1200, "a", 18000], "internal_node_id": "0.0-53.0", "trial": 1, "time_elapsed": 313451, "serialpos": 16, "key_press": -1, "wordID": 107, "type": "PRES_AUD", "trial_index": 71}, "uniqueid": "MTK3731:3PXX5PX6LY5114M4ZGTM5IS1A3YBAT", "dateTime": 1520972662091}, {"current_trial": 72, "trialdata": {"rt": -1000, "trial_type": "single-audio", "word": "marrow", "stimulus": "/static/audio/wordpool/MARROW.wav", "conditions": [18, 1200, "a", 18000], "internal_node_id": "0.0-54.0", "trial": 1, "time_elapsed": 315592, "serialpos": 17, "key_press": -1, "wordID": 871, "type": "PRES_AUD", "trial_index": 72}, "uniqueid": "MTK3731:3PXX5PX6LY5114M4ZGTM5IS1A3YBAT", "dateTime": 1520972664232}, {"current_trial": 73, "trialdata": {"rt": -1, "trial_type": "single-stim", "stimulus": "", "internal_node_id": "0.0-55.0-0.0", "time_elapsed": 316804, "key_press": -1, "type": "PRE_RECALL_DELAY", "trial_index": 73}, "uniqueid": "MTK3731:3PXX5PX6LY5114M4ZGTM5IS1A3YBAT", "dateTime": 1520972665445}, {"current_trial": 74, "trialdata": {"rt": -1000, "trial_type": "single-audio", "stimulus": "/static/audio/400Hz.wav", "internal_node_id": "0.0-56.0", "time_elapsed": 317307, "key_press": -1, "type": "PRE_RECALL_ALERT", "trial_index": 74}, "uniqueid": "MTK3731:3PXX5PX6LY5114M4ZGTM5IS1A3YBAT", "dateTime": 1520972665947}, {"current_trial": 75, "trialdata": {"rt": [1742, 3991, 7009, 10267, 11736, 13358, 18855, 24350, 29033, 30819, 36126, 37731], "recwords": ["beef", "marrow", "postage", "typist", "widow", "servant", "postage", "beef", "servant", "widow", "tombstone", "mummy"], "key_times": [965, 1197, 1353, 1564, 1742, 2150, 2565, 2951, 3048, 3129, 3292, 3424, 3769, 3991, 4307, 5337, 5832, 6032, 6137, 6277, 6422, 6697, 6779, 7009, 7325, 7442, 7641, 8135, 8382, 8639, 8929, 9057, 9654, 9800, 9929, 10129, 10267, 10586, 10825, 11231, 11348, 11572, 11736, 12081, 12301, 12397, 12636, 12763, 12857, 13043, 13358, 17758, 17955, 18083, 18221, 18375, 18599, 18684, 18855, 23631, 23803, 23937, 24134, 24350, 27923, 28010, 28152, 28378, 28528, 28611, 28734, 29033, 30045, 30130, 30341, 30451, 30668, 30819, 33981, 34054, 34408, 34714, 35043, 35318, 35397, 35617, 35849, 36126, 36412, 36694, 37008, 37136, 37385, 37731], "trial_type": "free-recall", "conditions": [18, 1200, "a", 18000], "internal_node_id": "0.0-57.0-0.0", "key_presses": [66, 69, 69, 70, 13, 65, 8, 77, 65, 82, 82, 79, 87, 13, 219, 8, 80, 79, 83, 84, 65, 71, 69, 13, 84, 89, 219, 8, 219, 73, 8, 8, 80, 73, 83, 84, 13, 87, 73, 68, 79, 87, 13, 83, 69, 82, 86, 65, 78, 84, 13, 80, 79, 83, 84, 65, 71, 69, 13, 66, 69, 69, 70, 13, 83, 69, 82, 86, 65, 78, 84, 13, 87, 73, 68, 79, 87, 13, 84, 79, 77, 66, 83, 84, 79, 78, 69, 13, 77, 85, 77, 77, 89, 13], "trial": 1, "time_elapsed": 377313, "type": "FREE_RECALL", "trial_index": 75}, "uniqueid": "MTK3731:3PXX5PX6LY5114M4ZGTM5IS1A3YBAT", "dateTime": 1520972725960}, {"current_trial": 76, "trialdata": {"rt": 2711, "trial_type": "text", "internal_node_id": "0.0-58.0", "time_elapsed": 382033, "key_press": 75, "type": "INSTRUCTIONS", "trial_index": 76}, "uniqueid": "MTK3731:3PXX5PX6LY5114M4ZGTM5IS1A3YBAT", "dateTime": 1520972730674}, {"current_trial": 77, "trialdata": {"rt": [4822, 8305], "trial_type": "math-distractor", "key_times": [4113, 4560, 4822, 7540, 7666, 8305, 10888, 11393, 11645], "responses": ["15", "20"], "num2": [8, 9, 8], "num3": [3, 2, 5], "conditions": [24, 800, "a", 12000], "internal_node_id": "0.0-59.0", "key_presses": [49, 53, 13, 50, 48, 13, 49, 54, 16], "trial": 2, "time_elapsed": 395042, "type": "DISTRACTOR", "trial_index": 77, "num1": [4, 9, 3]}, "uniqueid": "MTK3731:3PXX5PX6LY5114M4ZGTM5IS1A3YBAT", "dateTime": 1520972743682}, {"current_trial": 78, "trialdata": {"rt": -1, "trial_type": "single-stim", "stimulus": "<p id=\"stim\">10</p>", "internal_node_id": "0.0-60.0-0.0", "time_elapsed": 398046, "key_press": -1, "trial_index": 78}, "uniqueid": "MTK3731:3PXX5PX6LY5114M4ZGTM5IS1A3YBAT", "dateTime": 1520972746686}, {"current_trial": 79, "trialdata": {"rt": -1, "trial_type": "single-stim", "stimulus": "<p id=\"stim\">9</p>", "internal_node_id": "0.0-60.0-1.0", "time_elapsed": 399049, "key_press": -1, "trial_index": 79}, "uniqueid": "MTK3731:3PXX5PX6LY5114M4ZGTM5IS1A3YBAT", "dateTime": 1520972747689}, {"current_trial": 80, "trialdata": {"rt": -1, "trial_type": "single-stim", "stimulus": "<p id=\"stim\">8</p>", "internal_node_id": "0.0-60.0-2.0", "time_elapsed": 400051, "key_press": -1, "trial_index": 80}, "uniqueid": "MTK3731:3PXX5PX6LY5114M4ZGTM5IS1A3YBAT", "dateTime": 1520972748691}, {"current_trial": 81, "trialdata": {"rt": -1, "trial_type": "single-stim", "stimulus": "<p id=\"stim\">7</p>", "internal_node_id": "0.0-60.0-3.0", "time_elapsed": 401053, "key_press": -1, "trial_index": 81}, "uniqueid": "MTK3731:3PXX5PX6LY5114M4ZGTM5IS1A3YBAT", "dateTime": 1520972749693}, {"current_trial": 82, "trialdata": {"rt": -1, "trial_type": "single-stim", "stimulus": "<p id=\"stim\">6</p>", "internal_node_id": "0.0-60.0-4.0", "time_elapsed": 402055, "key_press": -1, "trial_index": 82}, "uniqueid": "MTK3731:3PXX5PX6LY5114M4ZGTM5IS1A3YBAT", "dateTime": 1520972750695}, {"current_trial": 83, "trialdata": {"rt": -1, "trial_type": "single-stim", "stimulus": "<p id=\"stim\">5</p>", "internal_node_id": "0.0-60.0-5.0", "time_elapsed": 403057, "key_press": -1, "trial_index": 83}, "uniqueid": "MTK3731:3PXX5PX6LY5114M4ZGTM5IS1A3YBAT", "dateTime": 1520972751697}, {"current_trial": 84, "trialdata": {"rt": -1, "trial_type": "single-stim", "stimulus": "<p id=\"stim\">4</p>", "internal_node_id": "0.0-60.0-6.0", "time_elapsed": 404060, "key_press": -1, "trial_index": 84}, "uniqueid": "MTK3731:3PXX5PX6LY5114M4ZGTM5IS1A3YBAT", "dateTime": 1520972752700}, {"current_trial": 85, "trialdata": {"rt": -1, "trial_type": "single-stim", "stimulus": "<p id=\"stim\">3</p>", "internal_node_id": "0.0-60.0-7.0", "time_elapsed": 405063, "key_press": -1, "trial_index": 85}, "uniqueid": "MTK3731:3PXX5PX6LY5114M4ZGTM5IS1A3YBAT", "dateTime": 1520972753703}, {"current_trial": 86, "trialdata": {"rt": -1, "trial_type": "single-stim", "stimulus": "<p id=\"stim\">2</p>", "internal_node_id": "0.0-60.0-8.0", "time_elapsed": 406065, "key_press": -1, "trial_index": 86}, "uniqueid": "MTK3731:3PXX5PX6LY5114M4ZGTM5IS1A3YBAT", "dateTime": 1520972754705}, {"current_trial": 87, "trialdata": {"rt": -1, "trial_type": "single-stim", "stimulus": "<p id=\"stim\">1</p>", "internal_node_id": "0.0-60.0-9.0", "time_elapsed": 407068, "key_press": -1, "trial_index": 87}, "uniqueid": "MTK3731:3PXX5PX6LY5114M4ZGTM5IS1A3YBAT", "dateTime": 1520972755708}, {"current_trial": 88, "trialdata": {"rt": -1, "trial_type": "single-stim", "stimulus": "<p id=\"stim\">+</p>", "internal_node_id": "0.0-61.0-0.0", "time_elapsed": 408570, "key_press": -1, "type": "FIXATION", "trial_index": 88}, "uniqueid": "MTK3731:3PXX5PX6LY5114M4ZGTM5IS1A3YBAT", "dateTime": 1520972757210}, {"current_trial": 89, "trialdata": {"rt": -1000, "trial_type": "single-audio", "word": "elbow", "stimulus": "/static/audio/wordpool/ELBOW.wav", "conditions": [24, 800, "a", 12000], "internal_node_id": "0.0-62.0", "trial": 2, "time_elapsed": 410264, "serialpos": 0, "key_press": -1, "wordID": 519, "type": "PRES_AUD", "trial_index": 89}, "uniqueid": "MTK3731:3PXX5PX6LY5114M4ZGTM5IS1A3YBAT", "dateTime": 1520972758904}, {"current_trial": 90, "trialdata": {"rt": -1000, "trial_type": "single-audio", "word": "empire", "stimulus": "/static/audio/wordpool/EMPIRE.wav", "conditions": [24, 800, "a", 12000], "internal_node_id": "0.0-63.0", "trial": 2, "time_elapsed": 412148, "serialpos": 1, "key_press": -1, "wordID": 529, "type": "PRES_AUD", "trial_index": 90}, "uniqueid": "MTK3731:3PXX5PX6LY5114M4ZGTM5IS1A3YBAT", "dateTime": 1520972760788}, {"current_trial": 91, "trialdata": {"rt": -1000, "trial_type": "single-audio", "word": "belly", "stimulus": "/static/audio/wordpool/BELLY.wav", "conditions": [24, 800, "a", 12000], "internal_node_id": "0.0-64.0", "trial": 2, "time_elapsed": 413836, "serialpos": 2, "key_press": -1, "wordID": 118, "type": "PRES_AUD", "trial_index": 91}, "uniqueid": "MTK3731:3PXX5PX6LY5114M4ZGTM5IS1A3YBAT", "dateTime": 1520972762476}, {"current_trial": 92, "trialdata": {"rt": -1000, "trial_type": "single-audio", "word": "bathtub", "stimulus": "/static/audio/wordpool/BATHTUB.wav", "conditions": [24, 800, "a", 12000], "internal_node_id": "0.0-65.0", "trial": 2, "time_elapsed": 415532, "serialpos": 3, "key_press": -1, "wordID": 99, "type": "PRES_AUD", "trial_index": 92}, "uniqueid": "MTK3731:3PXX5PX6LY5114M4ZGTM5IS1A3YBAT", "dateTime": 1520972764173}, {"current_trial": 93, "trialdata": {"rt": -1000, "trial_type": "single-audio", "word": "infant", "stimulus": "/static/audio/wordpool/INFANT.wav", "conditions": [24, 800, "a", 12000], "internal_node_id": "0.0-66.0", "trial": 2, "time_elapsed": 417243, "serialpos": 4, "key_press": -1, "wordID": 736, "type": "PRES_AUD", "trial_index": 93}, "uniqueid": "MTK3731:3PXX5PX6LY5114M4ZGTM5IS1A3YBAT", "dateTime": 1520972765884}, {"current_trial": 94, "trialdata": {"rt": -1000, "trial_type": "single-audio", "word": "suitcase", "stimulus": "/static/audio/wordpool/SUITCASE.wav", "conditions": [24, 800, "a", 12000], "internal_node_id": "0.0-67.0", "trial": 2, "time_elapsed": 418924, "serialpos": 5, "key_press": -1, "wordID": 1402, "type": "PRES_AUD", "trial_index": 94}, "uniqueid": "MTK3731:3PXX5PX6LY5114M4ZGTM5IS1A3YBAT", "dateTime": 1520972767564}, {"current_trial": 95, "trialdata": {"rt": -1000, "trial_type": "single-audio", "word": "handbag", "stimulus": "/static/audio/wordpool/HANDBAG.wav", "conditions": [24, 800, "a", 12000], "internal_node_id": "0.0-68.0", "trial": 2, "time_elapsed": 420608, "serialpos": 6, "key_press": -1, "wordID": 683, "type": "PRES_AUD", "trial_index": 95}, "uniqueid": "MTK3731:3PXX5PX6LY5114M4ZGTM5IS1A3YBAT", "dateTime": 1520972769249}, {"current_trial": 96, "trialdata": {"rt": -1000, "trial_type": "single-audio", "word": "child", "stimulus": "/static/audio/wordpool/CHILD.wav", "conditions": [24, 800, "a", 12000], "internal_node_id": "0.0-69.0", "trial": 2, "time_elapsed": 422568, "serialpos": 7, "key_press": -1, "wordID": 298, "type": "PRES_AUD", "trial_index": 96}, "uniqueid": "MTK3731:3PXX5PX6LY5114M4ZGTM5IS1A3YBAT", "dateTime": 1520972771208}, {"current_trial": 97, "trialdata": {"rt": -1000, "trial_type": "single-audio", "word": "money", "stimulus": "/static/audio/wordpool/MONEY.wav", "conditions": [24, 800, "a", 12000], "internal_node_id": "0.0-70.0", "trial": 2, "time_elapsed": 424540, "serialpos": 8, "key_press": -1, "wordID": 907, "type": "PRES_AUD", "trial_index": 97}, "uniqueid": "MTK3731:3PXX5PX6LY5114M4ZGTM5IS1A3YBAT", "dateTime": 1520972773180}, {"current_trial": 98, "trialdata": {"rt": -1000, "trial_type": "single-audio", "word": "cabbage", "stimulus": "/static/audio/wordpool/CABBAGE.wav", "conditions": [24, 800, "a", 12000], "internal_node_id": "0.0-71.0", "trial": 2, "time_elapsed": 426501, "serialpos": 9, "key_press": -1, "wordID": 209, "type": "PRES_AUD", "trial_index": 98}, "uniqueid": "MTK3731:3PXX5PX6LY5114M4ZGTM5IS1A3YBAT", "dateTime": 1520972775141}, {"current_trial": 99, "trialdata": {"rt": -1000, "trial_type": "single-audio", "word": "apple", "stimulus": "/static/audio/wordpool/APPLE.wav", "conditions": [24, 800, "a", 12000], "internal_node_id": "0.0-72.0", "trial": 2, "time_elapsed": 428326, "serialpos": 10, "key_press": -1, "wordID": 32, "type": "PRES_AUD", "trial_index": 99}, "uniqueid": "MTK3731:3PXX5PX6LY5114M4ZGTM5IS1A3YBAT", "dateTime": 1520972776966}, {"current_trial": 100, "trialdata": {"rt": -1000, "trial_type": "single-audio", "word": "palace", "stimulus": "/static/audio/wordpool/PALACE.wav", "conditions": [24, 800, "a", 12000], "internal_node_id": "0.0-73.0", "trial": 2, "time_elapsed": 430082, "serialpos": 11, "key_press": -1, "wordID": 1005, "type": "PRES_AUD", "trial_index": 100}, "uniqueid": "MTK3731:3PXX5PX6LY5114M4ZGTM5IS1A3YBAT", "dateTime": 1520972778723}, {"current_trial": 101, "trialdata": {"rt": -1000, "trial_type": "single-audio", "word": "playground", "stimulus": "/static/audio/wordpool/PLAYGROUND.wav", "conditions": [24, 800, "a", 12000], "internal_node_id": "0.0-74.0", "trial": 2, "time_elapsed": 431950, "serialpos": 12, "key_press": -1, "wordID": 1086, "type": "PRES_AUD", "trial_index": 101}, "uniqueid": "MTK3731:3PXX5PX6LY5114M4ZGTM5IS1A3YBAT", "dateTime": 1520972780590}, {"current_trial": 102, "trialdata": {"rt": -1000, "trial_type": "single-audio", "word": "grape", "stimulus": "/static/audio/wordpool/GRAPE.wav", "conditions": [24, 800, "a", 12000], "internal_node_id": "0.0-75.0", "trial": 2, "time_elapsed": 433773, "serialpos": 13, "key_press": -1, "wordID": 653, "type": "PRES_AUD", "trial_index": 102}, "uniqueid": "MTK3731:3PXX5PX6LY5114M4ZGTM5IS1A3YBAT", "dateTime": 1520972782414}, {"current_trial": 103, "trialdata": {"rt": -1000, "trial_type": "single-audio", "word": "lava", "stimulus": "/static/audio/wordpool/LAVA.wav", "conditions": [24, 800, "a", 12000], "internal_node_id": "0.0-76.0", "trial": 2, "time_elapsed": 435667, "serialpos": 14, "key_press": -1, "wordID": 803, "type": "PRES_AUD", "trial_index": 103}, "uniqueid": "MTK3731:3PXX5PX6LY5114M4ZGTM5IS1A3YBAT", "dateTime": 1520972784307}, {"current_trial": 104, "trialdata": {"rt": -1000, "trial_type": "single-audio", "word": "crater", "stimulus": "/static/audio/wordpool/CRATER.wav", "conditions": [24, 800, "a", 12000], "internal_node_id": "0.0-77.0", "trial": 2, "time_elapsed": 437411, "serialpos": 15, "key_press": -1, "wordID": 399, "type": "PRES_AUD", "trial_index": 104}, "uniqueid": "MTK3731:3PXX5PX6LY5114M4ZGTM5IS1A3YBAT", "dateTime": 1520972786052}, {"current_trial": 105, "trialdata": {"rt": -1000, "trial_type": "single-audio", "word": "drug", "stimulus": "/static/audio/wordpool/DRUG.wav", "conditions": [24, 800, "a", 12000], "internal_node_id": "0.0-78.0", "trial": 2, "time_elapsed": 439216, "serialpos": 16, "key_press": -1, "wordID": 500, "type": "PRES_AUD", "trial_index": 105}, "uniqueid": "MTK3731:3PXX5PX6LY5114M4ZGTM5IS1A3YBAT", "dateTime": 1520972787857}, {"current_trial": 106, "trialdata": {"rt": -1000, "trial_type": "single-audio", "word": "fruit", "stimulus": "/static/audio/wordpool/FRUIT.wav", "conditions": [24, 800, "a", 12000], "internal_node_id": "0.0-79.0", "trial": 2, "time_elapsed": 441201, "serialpos": 17, "key_press": -1, "wordID": 609, "type": "PRES_AUD", "trial_index": 106}, "uniqueid": "MTK3731:3PXX5PX6LY5114M4ZGTM5IS1A3YBAT", "dateTime": 1520972789841}, {"current_trial": 107, "trialdata": {"rt": -1000, "trial_type": "single-audio", "word": "temple", "stimulus": "/static/audio/wordpool/TEMPLE.wav", "conditions": [24, 800, "a", 12000], "internal_node_id": "0.0-80.0", "trial": 2, "time_elapsed": 443065, "serialpos": 18, "key_press": -1, "wordID": 1447, "type": "PRES_AUD", "trial_index": 107}, "uniqueid": "MTK3731:3PXX5PX6LY5114M4ZGTM5IS1A3YBAT", "dateTime": 1520972791705}, {"current_trial": 108, "trialdata": {"rt": -1000, "trial_type": "single-audio", "word": "buggy", "stimulus": "/static/audio/wordpool/BUGGY.wav", "conditions": [24, 800, "a", 12000], "internal_node_id": "0.0-81.0", "trial": 2, "time_elapsed": 445003, "serialpos": 19, "key_press": -1, "wordID": 187, "type": "PRES_AUD", "trial_index": 108}, "uniqueid": "MTK3731:3PXX5PX6LY5114M4ZGTM5IS1A3YBAT", "dateTime": 1520972793643}, {"current_trial": 109, "trialdata": {"rt": -1000, "trial_type": "single-audio", "word": "stallion", "stimulus": "/static/audio/wordpool/STALLION.wav", "conditions": [24, 800, "a", 12000], "internal_node_id": "0.0-82.0", "trial": 2, "time_elapsed": 446661, "serialpos": 20, "key_press": -1, "wordID": 1368, "type": "PRES_AUD", "trial_index": 109}, "uniqueid": "MTK3731:3PXX5PX6LY5114M4ZGTM5IS1A3YBAT", "dateTime": 1520972795302}, {"current_trial": 110, "trialdata": {"rt": -1000, "trial_type": "single-audio", "word": "treat", "stimulus": "/static/audio/wordpool/TREAT.wav", "conditions": [24, 800, "a", 12000], "internal_node_id": "0.0-83.0", "trial": 2, "time_elapsed": 448284, "serialpos": 21, "key_press": -1, "wordID": 1500, "type": "PRES_AUD", "trial_index": 110}, "uniqueid": "MTK3731:3PXX5PX6LY5114M4ZGTM5IS1A3YBAT", "dateTime": 1520972796925}, {"current_trial": 111, "trialdata": {"rt": -1000, "trial_type": "single-audio", "word": "candy", "stimulus": "/static/audio/wordpool/CANDY.wav", "conditions": [24, 800, "a", 12000], "internal_node_id": "0.0-84.0", "trial": 2, "time_elapsed": 450255, "serialpos": 22, "key_press": -1, "wordID": 229, "type": "PRES_AUD", "trial_index": 111}, "uniqueid": "MTK3731:3PXX5PX6LY5114M4ZGTM5IS1A3YBAT", "dateTime": 1520972798896}, {"current_trial": 112, "trialdata": {"rt": -1000, "trial_type": "single-audio", "word": "bouquet", "stimulus": "/static/audio/wordpool/BOUQUET.wav", "conditions": [24, 800, "a", 12000], "internal_node_id": "0.0-85.0", "trial": 2, "time_elapsed": 452172, "serialpos": 23, "key_press": -1, "wordID": 156, "type": "PRES_AUD", "trial_index": 112}, "uniqueid": "MTK3731:3PXX5PX6LY5114M4ZGTM5IS1A3YBAT", "dateTime": 1520972800812}, {"current_trial": 113, "trialdata": {"rt": -1, "trial_type": "single-stim", "stimulus": "", "internal_node_id": "0.0-86.0-0.0", "time_elapsed": 453398, "key_press": -1, "type": "PRE_RECALL_DELAY", "trial_index": 113}, "uniqueid": "MTK3731:3PXX5PX6LY5114M4ZGTM5IS1A3YBAT", "dateTime": 1520972802039}, {"current_trial": 114, "trialdata": {"rt": -1000, "trial_type": "single-audio", "stimulus": "/static/audio/400Hz.wav", "internal_node_id": "0.0-87.0", "time_elapsed": 453901, "key_press": -1, "type": "PRE_RECALL_ALERT", "trial_index": 114}, "uniqueid": "MTK3731:3PXX5PX6LY5114M4ZGTM5IS1A3YBAT", "dateTime": 1520972802541}, {"current_trial": 115, "trialdata": {"rt": [2722, 3937, 7451, 8876, 10547, 12830, 15197, 17179, 19760, 21471, 22673, 40861], "recwords": ["bouquet", "infant", "treat", "candy", "buggy", "grape", "elbow", "callous", "bathtub", "temple", "belly", "playground"], "key_times": [646, 821, 977, 1234, 1681, 1840, 1935, 2081, 2564, 2722, 2999, 3196, 3346, 3504, 3583, 3714, 3937, 5726, 5874, 6720, 6933, 7167, 7451, 7738, 7983, 8177, 8403, 8553, 8876, 9638, 9792, 9980, 10116, 10259, 10547, 11981, 12171, 12262, 12456, 12567, 12830, 13692, 14111, 14432, 14741, 14970, 15197, 15947, 16290, 16384, 16519, 16689, 16796, 16918, 17179, 17553, 17762, 17965, 18056, 18999, 19138, 19594, 19760, 20277, 20520, 20614, 20957, 21201, 21259, 21471, 21701, 21906, 21997, 22115, 22334, 22673, 39295, 39506, 39620, 39713, 39979, 40232, 40271, 40325, 40568, 40659, 40861], "trial_type": "free-recall", "conditions": [24, 800, "a", 12000], "internal_node_id": "0.0-88.0-0.0", "key_presses": [66, 79, 85, 71, 8, 81, 85, 69, 84, 13, 73, 78, 70, 65, 78, 84, 13, 84, 82, 69, 65, 84, 13, 67, 65, 78, 68, 89, 13, 66, 85, 71, 71, 89, 13, 71, 82, 65, 80, 69, 13, 69, 76, 66, 79, 87, 13, 67, 65, 76, 76, 79, 85, 83, 13, 66, 65, 84, 72, 84, 85, 66, 13, 84, 69, 77, 80, 76, 69, 13, 66, 69, 76, 76, 89, 13, 80, 76, 65, 89, 71, 82, 79, 85, 78, 68, 13], "trial": 2, "time_elapsed": 513907, "type": "FREE_RECALL", "trial_index": 115}, "uniqueid": "MTK3731:3PXX5PX6LY5114M4ZGTM5IS1A3YBAT", "dateTime": 1520972862552}, {"current_trial": 116, "trialdata": {"rt": 1611, "trial_type": "text", "internal_node_id": "0.0-89.0", "time_elapsed": 517526, "key_press": 75, "type": "INSTRUCTIONS", "trial_index": 116}, "uniqueid": "MTK3731:3PXX5PX6LY5114M4ZGTM5IS1A3YBAT", "dateTime": 1520972866166}, {"current_trial": 117, "trialdata": {"rt": [5015, 9436], "trial_type": "math-distractor", "key_times": [4492, 5015, 8892, 9175, 9436, 11102, 11767], "responses": ["9", "14"], "num2": [5, 2, 3], "num3": [2, 7, 7], "conditions": [12, 1600, "a", 12000], "internal_node_id": "0.0-90.0", "key_presses": [57, 13, 49, 52, 13, 49, 51], "trial": 3, "time_elapsed": 531532, "type": "DISTRACTOR", "trial_index": 117, "num1": [3, 5, 3]}, "uniqueid": "MTK3731:3PXX5PX6LY5114M4ZGTM5IS1A3YBAT", "dateTime": 1520972880173}, {"current_trial": 118, "trialdata": {"rt": -1, "trial_type": "single-stim", "stimulus": "<p id=\"stim\">10</p>", "internal_node_id": "0.0-91.0-0.0", "time_elapsed": 534536, "key_press": -1, "trial_index": 118}, "uniqueid": "MTK3731:3PXX5PX6LY5114M4ZGTM5IS1A3YBAT", "dateTime": 1520972883176}, {"current_trial": 119, "trialdata": {"rt": -1, "trial_type": "single-stim", "stimulus": "<p id=\"stim\">9</p>", "internal_node_id": "0.0-91.0-1.0", "time_elapsed": 535539, "key_press": -1, "trial_index": 119}, "uniqueid": "MTK3731:3PXX5PX6LY5114M4ZGTM5IS1A3YBAT", "dateTime": 1520972884179}, {"current_trial": 120, "trialdata": {"rt": -1, "trial_type": "single-stim", "stimulus": "<p id=\"stim\">8</p>", "internal_node_id": "0.0-91.0-2.0", "time_elapsed": 536541, "key_press": -1, "trial_index": 120}, "uniqueid": "MTK3731:3PXX5PX6LY5114M4ZGTM5IS1A3YBAT", "dateTime": 1520972885182}, {"current_trial": 121, "trialdata": {"rt": -1, "trial_type": "single-stim", "stimulus": "<p id=\"stim\">7</p>", "internal_node_id": "0.0-91.0-3.0", "time_elapsed": 537544, "key_press": -1, "trial_index": 121}, "uniqueid": "MTK3731:3PXX5PX6LY5114M4ZGTM5IS1A3YBAT", "dateTime": 1520972886185}, {"current_trial": 122, "trialdata": {"rt": -1, "trial_type": "single-stim", "stimulus": "<p id=\"stim\">6</p>", "internal_node_id": "0.0-91.0-4.0", "time_elapsed": 538547, "key_press": -1, "trial_index": 122}, "uniqueid": "MTK3731:3PXX5PX6LY5114M4ZGTM5IS1A3YBAT", "dateTime": 1520972887187}, {"current_trial": 123, "trialdata": {"rt": -1, "trial_type": "single-stim", "stimulus": "<p id=\"stim\">5</p>", "internal_node_id": "0.0-91.0-5.0", "time_elapsed": 539549, "key_press": -1, "trial_index": 123}, "uniqueid": "MTK3731:3PXX5PX6LY5114M4ZGTM5IS1A3YBAT", "dateTime": 1520972888189}, {"current_trial": 124, "trialdata": {"rt": -1, "trial_type": "single-stim", "stimulus": "<p id=\"stim\">4</p>", "internal_node_id": "0.0-91.0-6.0", "time_elapsed": 540552, "key_press": -1, "trial_index": 124}, "uniqueid": "MTK3731:3PXX5PX6LY5114M4ZGTM5IS1A3YBAT", "dateTime": 1520972889193}, {"current_trial": 125, "trialdata": {"rt": -1, "trial_type": "single-stim", "stimulus": "<p id=\"stim\">3</p>", "internal_node_id": "0.0-91.0-7.0", "time_elapsed": 541556, "key_press": -1, "trial_index": 125}, "uniqueid": "MTK3731:3PXX5PX6LY5114M4ZGTM5IS1A3YBAT", "dateTime": 1520972890196}, {"current_trial": 126, "trialdata": {"rt": -1, "trial_type": "single-stim", "stimulus": "<p id=\"stim\">2</p>", "internal_node_id": "0.0-91.0-8.0", "time_elapsed": 542560, "key_press": -1, "trial_index": 126}, "uniqueid": "MTK3731:3PXX5PX6LY5114M4ZGTM5IS1A3YBAT", "dateTime": 1520972891200}, {"current_trial": 127, "trialdata": {"rt": -1, "trial_type": "single-stim", "stimulus": "<p id=\"stim\">1</p>", "internal_node_id": "0.0-91.0-9.0", "time_elapsed": 543563, "key_press": -1, "trial_index": 127}, "uniqueid": "MTK3731:3PXX5PX6LY5114M4ZGTM5IS1A3YBAT", "dateTime": 1520972892203}, {"current_trial": 128, "trialdata": {"rt": -1, "trial_type": "single-stim", "stimulus": "<p id=\"stim\">+</p>", "internal_node_id": "0.0-92.0-0.0", "time_elapsed": 545066, "key_press": -1, "type": "FIXATION", "trial_index": 128}, "uniqueid": "MTK3731:3PXX5PX6LY5114M4ZGTM5IS1A3YBAT", "dateTime": 1520972893706}, {"current_trial": 129, "trialdata": {"rt": -1000, "trial_type": "single-audio", "word": "thread", "stimulus": "/static/audio/wordpool/THREAD.wav", "conditions": [12, 1600, "a", 12000], "internal_node_id": "0.0-93.0", "trial": 3, "time_elapsed": 547807, "serialpos": 0, "key_press": -1, "wordID": 1459, "type": "PRES_AUD", "trial_index": 129}, "uniqueid": "MTK3731:3PXX5PX6LY5114M4ZGTM5IS1A3YBAT", "dateTime": 1520972896447}, {"current_trial": 130, "trialdata": {"rt": -1000, "trial_type": "single-audio", "word": "inmate", "stimulus": "/static/audio/wordpool/INMATE.wav", "conditions": [12, 1600, "a", 12000], "internal_node_id": "0.0-94.0", "trial": 3, "time_elapsed": 550223, "serialpos": 1, "key_press": -1, "wordID": 737, "type": "PRES_AUD", "trial_index": 130}, "uniqueid": "MTK3731:3PXX5PX6LY5114M4ZGTM5IS1A3YBAT", "dateTime": 1520972898864}, {"current_trial": 131, "trialdata": {"rt": -1000, "trial_type": "single-audio", "word": "captive", "stimulus": "/static/audio/wordpool/CAPTIVE.wav", "conditions": [12, 1600, "a", 12000], "internal_node_id": "0.0-95.0", "trial": 3, "time_elapsed": 552827, "serialpos": 2, "key_press": -1, "wordID": 239, "type": "PRES_AUD", "trial_index": 131}, "uniqueid": "MTK3731:3PXX5PX6LY5114M4ZGTM5IS1A3YBAT", "dateTime": 1520972901467}, {"current_trial": 132, "trialdata": {"rt": -1000, "trial_type": "single-audio", "word": "cousin", "stimulus": "/static/audio/wordpool/COUSIN.wav", "conditions": [12, 1600, "a", 12000], "internal_node_id": "0.0-96.0", "trial": 3, "time_elapsed": 555318, "serialpos": 3, "key_press": -1, "wordID": 391, "type": "PRES_AUD", "trial_index": 132}, "uniqueid": "MTK3731:3PXX5PX6LY5114M4ZGTM5IS1A3YBAT", "dateTime": 1520972903958}, {"current_trial": 133, "trialdata": {"rt": -1000, "trial_type": "single-audio", "word": "jelly", "stimulus": "/static/audio/wordpool/JELLY.wav", "conditions": [12, 1600, "a", 12000], "internal_node_id": "0.0-97.0", "trial": 3, "time_elapsed": 558016, "serialpos": 4, "key_press": -1, "wordID": 754, "type": "PRES_AUD", "trial_index": 133}, "uniqueid": "MTK3731:3PXX5PX6LY5114M4ZGTM5IS1A3YBAT", "dateTime": 1520972906657}, {"current_trial": 134, "trialdata": {"rt": -1000, "trial_type": "single-audio", "word": "bacon", "stimulus": "/static/audio/wordpool/BACON.wav", "conditions": [12, 1600, "a", 12000], "internal_node_id": "0.0-98.0", "trial": 3, "time_elapsed": 560782, "serialpos": 5, "key_press": -1, "wordID": 66, "type": "PRES_AUD", "trial_index": 134}, "uniqueid": "MTK3731:3PXX5PX6LY5114M4ZGTM5IS1A3YBAT", "dateTime": 1520972909423}, {"current_trial": 135, "trialdata": {"rt": -1000, "trial_type": "single-audio", "word": "xerox", "stimulus": "/static/audio/wordpool/XEROX.wav", "conditions": [12, 1600, "a", 12000], "internal_node_id": "0.0-99.0", "trial": 3, "time_elapsed": 563191, "serialpos": 6, "key_press": -1, "wordID": 1627, "type": "PRES_AUD", "trial_index": 135}, "uniqueid": "MTK3731:3PXX5PX6LY5114M4ZGTM5IS1A3YBAT", "dateTime": 1520972911831}, {"current_trial": 136, "trialdata": {"rt": -1000, "trial_type": "single-audio", "word": "onion", "stimulus": "/static/audio/wordpool/ONION.wav", "conditions": [12, 1600, "a", 12000], "internal_node_id": "0.0-100.0", "trial": 3, "time_elapsed": 565645, "serialpos": 7, "key_press": -1, "wordID": 976, "type": "PRES_AUD", "trial_index": 136}, "uniqueid": "MTK3731:3PXX5PX6LY5114M4ZGTM5IS1A3YBAT", "dateTime": 1520972914285}, {"current_trial": 137, "trialdata": {"rt": -1000, "trial_type": "single-audio", "word": "muffin", "stimulus": "/static/audio/wordpool/MUFFIN.wav", "conditions": [12, 1600, "a", 12000], "internal_node_id": "0.0-101.0", "trial": 3, "time_elapsed": 568075, "serialpos": 8, "key_press": -1, "wordID": 928, "type": "PRES_AUD", "trial_index": 137}, "uniqueid": "MTK3731:3PXX5PX6LY5114M4ZGTM5IS1A3YBAT", "dateTime": 1520972916715}, {"current_trial": 138, "trialdata": {"rt": -1000, "trial_type": "single-audio", "word": "flower", "stimulus": "/static/audio/wordpool/FLOWER.wav", "conditions": [12, 1600, "a", 12000], "internal_node_id": "0.0-102.0", "trial": 3, "time_elapsed": 570847, "serialpos": 9, "key_press": -1, "wordID": 583, "type": "PRES_AUD", "trial_index": 138}, "uniqueid": "MTK3731:3PXX5PX6LY5114M4ZGTM5IS1A3YBAT", "dateTime": 1520972919487}, {"current_trial": 139, "trialdata": {"rt": -1000, "trial_type": "single-audio", "word": "shrub", "stimulus": "/static/audio/wordpool/SHRUB.wav", "conditions": [12, 1600, "a", 12000], "internal_node_id": "0.0-103.0", "trial": 3, "time_elapsed": 573621, "serialpos": 10, "key_press": -1, "wordID": 1298, "type": "PRES_AUD", "trial_index": 139}, "uniqueid": "MTK3731:3PXX5PX6LY5114M4ZGTM5IS1A3YBAT", "dateTime": 1520972922261}, {"current_trial": 140, "trialdata": {"rt": -1000, "trial_type": "single-audio", "word": "turkey", "stimulus": "/static/audio/wordpool/TURKEY.wav", "conditions": [12, 1600, "a", 12000], "internal_node_id": "0.0-104.0", "trial": 3, "time_elapsed": 576108, "serialpos": 11, "key_press": -1, "wordID": 1519, "type": "PRES_AUD", "trial_index": 140}, "uniqueid": "MTK3731:3PXX5PX6LY5114M4ZGTM5IS1A3YBAT", "dateTime": 1520972924749}, {"current_trial": 141, "trialdata": {"rt": -1, "trial_type": "single-stim", "stimulus": "", "internal_node_id": "0.0-105.0-0.0", "time_elapsed": 577314, "key_press": -1, "type": "PRE_RECALL_DELAY", "trial_index": 141}, "uniqueid": "MTK3731:3PXX5PX6LY5114M4ZGTM5IS1A3YBAT", "dateTime": 1520972925955}, {"current_trial": 142, "trialdata": {"rt": -1000, "trial_type": "single-audio", "stimulus": "/static/audio/400Hz.wav", "internal_node_id": "0.0-106.0", "time_elapsed": 577817, "key_press": -1, "type": "PRE_RECALL_ALERT", "trial_index": 142}, "uniqueid": "MTK3731:3PXX5PX6LY5114M4ZGTM5IS1A3YBAT", "dateTime": 1520972926457}, {"current_trial": 143, "trialdata": {"rt": [3394, 4789, 5781, 6802, 9313, 11371, 17789, 24041], "recwords": ["shrub", "turkey", "bacon", "jelly", "captive", "xerox", "flower", "bacon"], "key_times": [2544, 2738, 2844, 3007, 3198, 3394, 3729, 3816, 3986, 4186, 4452, 4544, 4789, 4973, 5148, 5331, 5423, 5639, 5781, 5937, 6084, 6190, 6341, 6511, 6802, 7087, 7783, 8004, 8306, 8668, 8777, 8895, 9010, 9174, 9313, 10276, 10544, 10676, 10829, 11160, 11371, 16924, 17058, 17274, 17365, 17481, 17582, 17789, 22962, 23159, 23419, 23486, 23735, 24041], "trial_type": "free-recall", "conditions": [12, 1600, "a", 12000], "internal_node_id": "0.0-107.0-0.0", "key_presses": [83, 72, 82, 85, 66, 13, 84, 85, 82, 75, 69, 89, 13, 66, 65, 67, 79, 78, 32, 74, 69, 76, 76, 89, 13, 67, 65, 80, 73, 8, 84, 73, 86, 69, 13, 88, 69, 82, 79, 88, 13, 70, 76, 79, 87, 69, 82, 13, 66, 65, 67, 79, 78, 13], "trial": 3, "time_elapsed": 637823, "type": "FREE_RECALL", "trial_index": 143}, "uniqueid": "MTK3731:3PXX5PX6LY5114M4ZGTM5IS1A3YBAT", "dateTime": 1520972986473}, {"current_trial": 144, "trialdata": {"rt": 4651, "trial_type": "text", "internal_node_id": "0.0-108.0", "time_elapsed": 644487, "key_press": 76, "type": "INSTRUCTIONS", "trial_index": 144}, "uniqueid": "MTK3731:3PXX5PX6LY5114M4ZGTM5IS1A3YBAT", "dateTime": 1520972993128}, {"current_trial": 145, "trialdata": {"rt": [2975, 5528, 10703, 13520, 16175, 18755, 20717], "trial_type": "math-distractor", "key_times": [2044, 2708, 2975, 4752, 5360, 5528, 9399, 9720, 10703, 12568, 13302, 13520, 15363, 15928, 16175, 18320, 18521, 18755, 19813, 20018, 20717, 23343, 23870], "responses": ["16", "19", "13", "10", "19", "11", "11"], "num2": [8, 9, 5, 4, 4, 2, 3, 4], "num3": [7, 4, 5, 1, 9, 2, 1, 2], "conditions": [24, 800, "a", 24000], "internal_node_id": "0.0-109.0", "key_presses": [49, 54, 13, 49, 57, 13, 49, 51, 13, 49, 48, 13, 49, 57, 13, 49, 49, 13, 49, 49, 13, 49, 52], "trial": 4, "time_elapsed": 670494, "type": "DISTRACTOR", "trial_index": 145, "num1": [1, 6, 3, 5, 6, 7, 7, 4]}, "uniqueid": "MTK3731:3PXX5PX6LY5114M4ZGTM5IS1A3YBAT", "dateTime": 1520973019134}, {"current_trial": 146, "trialdata": {"rt": -1, "trial_type": "single-stim", "stimulus": "<p id=\"stim\">10</p>", "internal_node_id": "0.0-110.0-0.0", "time_elapsed": 673497, "key_press": -1, "trial_index": 146}, "uniqueid": "MTK3731:3PXX5PX6LY5114M4ZGTM5IS1A3YBAT", "dateTime": 1520973022137}, {"current_trial": 147, "trialdata": {"rt": -1, "trial_type": "single-stim", "stimulus": "<p id=\"stim\">9</p>", "internal_node_id": "0.0-110.0-1.0", "time_elapsed": 674499, "key_press": -1, "trial_index": 147}, "uniqueid": "MTK3731:3PXX5PX6LY5114M4ZGTM5IS1A3YBAT", "dateTime": 1520973023140}, {"current_trial": 148, "trialdata": {"rt": -1, "trial_type": "single-stim", "stimulus": "<p id=\"stim\">8</p>", "internal_node_id": "0.0-110.0-2.0", "time_elapsed": 675502, "key_press": -1, "trial_index": 148}, "uniqueid": "MTK3731:3PXX5PX6LY5114M4ZGTM5IS1A3YBAT", "dateTime": 1520973024143}, {"current_trial": 149, "trialdata": {"rt": -1, "trial_type": "single-stim", "stimulus": "<p id=\"stim\">7</p>", "internal_node_id": "0.0-110.0-3.0", "time_elapsed": 676505, "key_press": -1, "trial_index": 149}, "uniqueid": "MTK3731:3PXX5PX6LY5114M4ZGTM5IS1A3YBAT", "dateTime": 1520973025145}, {"current_trial": 150, "trialdata": {"rt": -1, "trial_type": "single-stim", "stimulus": "<p id=\"stim\">6</p>", "internal_node_id": "0.0-110.0-4.0", "time_elapsed": 677508, "key_press": -1, "trial_index": 150}, "uniqueid": "MTK3731:3PXX5PX6LY5114M4ZGTM5IS1A3YBAT", "dateTime": 1520973026148}, {"current_trial": 151, "trialdata": {"rt": -1, "trial_type": "single-stim", "stimulus": "<p id=\"stim\">5</p>", "internal_node_id": "0.0-110.0-5.0", "time_elapsed": 678510, "key_press": -1, "trial_index": 151}, "uniqueid": "MTK3731:3PXX5PX6LY5114M4ZGTM5IS1A3YBAT", "dateTime": 1520973027150}, {"current_trial": 152, "trialdata": {"rt": -1, "trial_type": "single-stim", "stimulus": "<p id=\"stim\">4</p>", "internal_node_id": "0.0-110.0-6.0", "time_elapsed": 679513, "key_press": -1, "trial_index": 152}, "uniqueid": "MTK3731:3PXX5PX6LY5114M4ZGTM5IS1A3YBAT", "dateTime": 1520973028153}, {"current_trial": 153, "trialdata": {"rt": -1, "trial_type": "single-stim", "stimulus": "<p id=\"stim\">3</p>", "internal_node_id": "0.0-110.0-7.0", "time_elapsed": 680516, "key_press": -1, "trial_index": 153}, "uniqueid": "MTK3731:3PXX5PX6LY5114M4ZGTM5IS1A3YBAT", "dateTime": 1520973029157}, {"current_trial": 154, "trialdata": {"rt": -1, "trial_type": "single-stim", "stimulus": "<p id=\"stim\">2</p>", "internal_node_id": "0.0-110.0-8.0", "time_elapsed": 681520, "key_press": -1, "trial_index": 154}, "uniqueid": "MTK3731:3PXX5PX6LY5114M4ZGTM5IS1A3YBAT", "dateTime": 1520973030161}, {"current_trial": 155, "trialdata": {"rt": -1, "trial_type": "single-stim", "stimulus": "<p id=\"stim\">1</p>", "internal_node_id": "0.0-110.0-9.0", "time_elapsed": 682523, "key_press": -1, "trial_index": 155}, "uniqueid": "MTK3731:3PXX5PX6LY5114M4ZGTM5IS1A3YBAT", "dateTime": 1520973031164}, {"current_trial": 156, "trialdata": {"rt": -1, "trial_type": "single-stim", "stimulus": "<p id=\"stim\">+</p>", "internal_node_id": "0.0-111.0-0.0", "time_elapsed": 684026, "key_press": -1, "type": "FIXATION", "trial_index": 156}, "uniqueid": "MTK3731:3PXX5PX6LY5114M4ZGTM5IS1A3YBAT", "dateTime": 1520973032666}, {"current_trial": 157, "trialdata": {"rt": -1000, "trial_type": "single-audio", "word": "luggage", "stimulus": "/static/audio/wordpool/LUGGAGE.wav", "conditions": [24, 800, "a", 24000], "internal_node_id": "0.0-112.0", "trial": 4, "time_elapsed": 685718, "serialpos": 0, "key_press": -1, "wordID": 846, "type": "PRES_AUD", "trial_index": 157}, "uniqueid": "MTK3731:3PXX5PX6LY5114M4ZGTM5IS1A3YBAT", "dateTime": 1520973034358}, {"current_trial": 158, "trialdata": {"rt": -1000, "trial_type": "single-audio", "word": "europe", "stimulus": "/static/audio/wordpool/EUROPE.wav", "conditions": [24, 800, "a", 24000], "internal_node_id": "0.0-113.0", "trial": 4, "time_elapsed": 687643, "serialpos": 1, "key_press": -1, "wordID": 540, "type": "PRES_AUD", "trial_index": 158}, "uniqueid": "MTK3731:3PXX5PX6LY5114M4ZGTM5IS1A3YBAT", "dateTime": 1520973036284}, {"current_trial": 159, "trialdata": {"rt": -1000, "trial_type": "single-audio", "word": "branch", "stimulus": "/static/audio/wordpool/BRANCH.wav", "conditions": [24, 800, "a", 24000], "internal_node_id": "0.0-114.0", "trial": 4, "time_elapsed": 689445, "serialpos": 2, "key_press": -1, "wordID": 167, "type": "PRES_AUD", "trial_index": 159}, "uniqueid": "MTK3731:3PXX5PX6LY5114M4ZGTM5IS1A3YBAT", "dateTime": 1520973038085}, {"current_trial": 160, "trialdata": {"rt": -1000, "trial_type": "single-audio", "word": "bureau", "stimulus": "/static/audio/wordpool/BUREAU.wav", "conditions": [24, 800, "a", 24000], "internal_node_id": "0.0-115.0", "trial": 4, "time_elapsed": 691057, "serialpos": 3, "key_press": -1, "wordID": 198, "type": "PRES_AUD", "trial_index": 160}, "uniqueid": "MTK3731:3PXX5PX6LY5114M4ZGTM5IS1A3YBAT", "dateTime": 1520973039697}, {"current_trial": 161, "trialdata": {"rt": -1000, "trial_type": "single-audio", "word": "donkey", "stimulus": "/static/audio/wordpool/DONKEY.wav", "conditions": [24, 800, "a", 24000], "internal_node_id": "0.0-116.0", "trial": 4, "time_elapsed": 692997, "serialpos": 4, "key_press": -1, "wordID": 483, "type": "PRES_AUD", "trial_index": 161}, "uniqueid": "MTK3731:3PXX5PX6LY5114M4ZGTM5IS1A3YBAT", "dateTime": 1520973041637}, {"current_trial": 162, "trialdata": {"rt": -1000, "trial_type": "single-audio", "word": "sphinx", "stimulus": "/static/audio/wordpool/SPHINX.wav", "conditions": [24, 800, "a", 24000], "internal_node_id": "0.0-117.0", "trial": 4, "time_elapsed": 694954, "serialpos": 5, "key_press": -1, "wordID": 1348, "type": "PRES_AUD", "trial_index": 162}, "uniqueid": "MTK3731:3PXX5PX6LY5114M4ZGTM5IS1A3YBAT", "dateTime": 1520973043595}, {"current_trial": 163, "trialdata": {"rt": -1000, "trial_type": "single-audio", "word": "seafood", "stimulus": "/static/audio/wordpool/SEAFOOD.wav", "conditions": [24, 800, "a", 24000], "internal_node_id": "0.0-118.0", "trial": 4, "time_elapsed": 696876, "serialpos": 6, "key_press": -1, "wordID": 1259, "type": "PRES_AUD", "trial_index": 163}, "uniqueid": "MTK3731:3PXX5PX6LY5114M4ZGTM5IS1A3YBAT", "dateTime": 1520973045516}, {"current_trial": 164, "trialdata": {"rt": -1000, "trial_type": "single-audio", "word": "driver", "stimulus": "/static/audio/wordpool/DRIVER.wav", "conditions": [24, 800, "a", 24000], "internal_node_id": "0.0-119.0", "trial": 4, "time_elapsed": 698496, "serialpos": 7, "key_press": -1, "wordID": 498, "type": "PRES_AUD", "trial_index": 164}, "uniqueid": "MTK3731:3PXX5PX6LY5114M4ZGTM5IS1A3YBAT", "dateTime": 1520973047137}, {"current_trial": 165, "trialdata": {"rt": -1000, "trial_type": "single-audio", "word": "rabbit", "stimulus": "/static/audio/wordpool/RABBIT.wav", "conditions": [24, 800, "a", 24000], "internal_node_id": "0.0-120.0", "trial": 4, "time_elapsed": 700289, "serialpos": 8, "key_press": -1, "wordID": 1151, "type": "PRES_AUD", "trial_index": 165}, "uniqueid": "MTK3731:3PXX5PX6LY5114M4ZGTM5IS1A3YBAT", "dateTime": 1520973048930}, {"current_trial": 166, "trialdata": {"rt": -1000, "trial_type": "single-audio", "word": "bunny", "stimulus": "/static/audio/wordpool/BUNNY.wav", "conditions": [24, 800, "a", 24000], "internal_node_id": "0.0-121.0", "trial": 4, "time_elapsed": 702152, "serialpos": 9, "key_press": -1, "wordID": 197, "type": "PRES_AUD", "trial_index": 166}, "uniqueid": "MTK3731:3PXX5PX6LY5114M4ZGTM5IS1A3YBAT", "dateTime": 1520973050792}, {"current_trial": 167, "trialdata": {"rt": -1000, "trial_type": "single-audio", "word": "carriage", "stimulus": "/static/audio/wordpool/CARRIAGE.wav", "conditions": [24, 800, "a", 24000], "internal_node_id": "0.0-122.0", "trial": 4, "time_elapsed": 704065, "serialpos": 10, "key_press": -1, "wordID": 247, "type": "PRES_AUD", "trial_index": 167}, "uniqueid": "MTK3731:3PXX5PX6LY5114M4ZGTM5IS1A3YBAT", "dateTime": 1520973052705}, {"current_trial": 168, "trialdata": {"rt": -1000, "trial_type": "single-audio", "word": "oyster", "stimulus": "/static/audio/wordpool/OYSTER.wav", "conditions": [24, 800, "a", 24000], "internal_node_id": "0.0-123.0", "trial": 4, "time_elapsed": 705687, "serialpos": 11, "key_press": -1, "wordID": 994, "type": "PRES_AUD", "trial_index": 168}, "uniqueid": "MTK3731:3PXX5PX6LY5114M4ZGTM5IS1A3YBAT", "dateTime": 1520973054327}, {"current_trial": 169, "trialdata": {"rt": -1000, "trial_type": "single-audio", "word": "shortcake", "stimulus": "/static/audio/wordpool/SHORTCAKE.wav", "conditions": [24, 800, "a", 24000], "internal_node_id": "0.0-124.0", "trial": 4, "time_elapsed": 707525, "serialpos": 12, "key_press": -1, "wordID": 1291, "type": "PRES_AUD", "trial_index": 169}, "uniqueid": "MTK3731:3PXX5PX6LY5114M4ZGTM5IS1A3YBAT", "dateTime": 1520973056166}, {"current_trial": 170, "trialdata": {"rt": -1000, "trial_type": "single-audio", "word": "salad", "stimulus": "/static/audio/wordpool/SALAD.wav", "conditions": [24, 800, "a", 24000], "internal_node_id": "0.0-125.0", "trial": 4, "time_elapsed": 709403, "serialpos": 13, "key_press": -1, "wordID": 1223, "type": "PRES_AUD", "trial_index": 170}, "uniqueid": "MTK3731:3PXX5PX6LY5114M4ZGTM5IS1A3YBAT", "dateTime": 1520973058043}, {"current_trial": 171, "trialdata": {"rt": -1000, "trial_type": "single-audio", "word": "girl", "stimulus": "/static/audio/wordpool/GIRL.wav", "conditions": [24, 800, "a", 24000], "internal_node_id": "0.0-126.0", "trial": 4, "time_elapsed": 711007, "serialpos": 14, "key_press": -1, "wordID": 636, "type": "PRES_AUD", "trial_index": 171}, "uniqueid": "MTK3731:3PXX5PX6LY5114M4ZGTM5IS1A3YBAT", "dateTime": 1520973059647}, {"current_trial": 172, "trialdata": {"rt": -1000, "trial_type": "single-audio", "word": "actress", "stimulus": "/static/audio/wordpool/ACTRESS.wav", "conditions": [24, 800, "a", 24000], "internal_node_id": "0.0-127.0", "trial": 4, "time_elapsed": 712642, "serialpos": 15, "key_press": -1, "wordID": 5, "type": "PRES_AUD", "trial_index": 172}, "uniqueid": "MTK3731:3PXX5PX6LY5114M4ZGTM5IS1A3YBAT", "dateTime": 1520973061282}, {"current_trial": 173, "trialdata": {"rt": -1000, "trial_type": "single-audio", "word": "cricket", "stimulus": "/static/audio/wordpool/CRICKET.wav", "conditions": [24, 800, "a", 24000], "internal_node_id": "0.0-128.0", "trial": 4, "time_elapsed": 714417, "serialpos": 16, "key_press": -1, "wordID": 407, "type": "PRES_AUD", "trial_index": 173}, "uniqueid": "MTK3731:3PXX5PX6LY5114M4ZGTM5IS1A3YBAT", "dateTime": 1520973063058}, {"current_trial": 174, "trialdata": {"rt": -1000, "trial_type": "single-audio", "word": "loft", "stimulus": "/static/audio/wordpool/LOFT.wav", "conditions": [24, 800, "a", 24000], "internal_node_id": "0.0-129.0", "trial": 4, "time_elapsed": 716397, "serialpos": 17, "key_press": -1, "wordID": 839, "type": "PRES_AUD", "trial_index": 174}, "uniqueid": "MTK3731:3PXX5PX6LY5114M4ZGTM5IS1A3YBAT", "dateTime": 1520973065037}, {"current_trial": 175, "trialdata": {"rt": -1000, "trial_type": "single-audio", "word": "daughter", "stimulus": "/static/audio/wordpool/DAUGHTER.wav", "conditions": [24, 800, "a", 24000], "internal_node_id": "0.0-130.0", "trial": 4, "time_elapsed": 718067, "serialpos": 18, "key_press": -1, "wordID": 441, "type": "PRES_AUD", "trial_index": 175}, "uniqueid": "MTK3731:3PXX5PX6LY5114M4ZGTM5IS1A3YBAT", "dateTime": 1520973066708}, {"current_trial": 176, "trialdata": {"rt": -1000, "trial_type": "single-audio", "word": "maple", "stimulus": "/static/audio/wordpool/MAPLE.wav", "conditions": [24, 800, "a", 24000], "internal_node_id": "0.0-131.0", "trial": 4, "time_elapsed": 719696, "serialpos": 19, "key_press": -1, "wordID": 865, "type": "PRES_AUD", "trial_index": 176}, "uniqueid": "MTK3731:3PXX5PX6LY5114M4ZGTM5IS1A3YBAT", "dateTime": 1520973068337}, {"current_trial": 177, "trialdata": {"rt": -1000, "trial_type": "single-audio", "word": "film", "stimulus": "/static/audio/wordpool/FILM.wav", "conditions": [24, 800, "a", 24000], "internal_node_id": "0.0-132.0", "trial": 4, "time_elapsed": 721312, "serialpos": 20, "key_press": -1, "wordID": 564, "type": "PRES_AUD", "trial_index": 177}, "uniqueid": "MTK3731:3PXX5PX6LY5114M4ZGTM5IS1A3YBAT", "dateTime": 1520973069952}, {"current_trial": 178, "trialdata": {"rt": -1000, "trial_type": "single-audio", "word": "frame", "stimulus": "/static/audio/wordpool/FRAME.wav", "conditions": [24, 800, "a", 24000], "internal_node_id": "0.0-133.0", "trial": 4, "time_elapsed": 723213, "serialpos": 21, "key_press": -1, "wordID": 599, "type": "PRES_AUD", "trial_index": 178}, "uniqueid": "MTK3731:3PXX5PX6LY5114M4ZGTM5IS1A3YBAT", "dateTime": 1520973071853}, {"current_trial": 179, "trialdata": {"rt": -1000, "trial_type": "single-audio", "word": "marker", "stimulus": "/static/audio/wordpool/MARKER.wav", "conditions": [24, 800, "a", 24000], "internal_node_id": "0.0-134.0", "trial": 4, "time_elapsed": 725049, "serialpos": 22, "key_press": -1, "wordID": 869, "type": "PRES_AUD", "trial_index": 179}, "uniqueid": "MTK3731:3PXX5PX6LY5114M4ZGTM5IS1A3YBAT", "dateTime": 1520973073690}, {"current_trial": 180, "trialdata": {"rt": -1000, "trial_type": "single-audio", "word": "thief", "stimulus": "/static/audio/wordpool/THIEF.wav", "conditions": [24, 800, "a", 24000], "internal_node_id": "0.0-135.0", "trial": 4, "time_elapsed": 726966, "serialpos": 23, "key_press": -1, "wordID": 1455, "type": "PRES_AUD", "trial_index": 180}, "uniqueid": "MTK3731:3PXX5PX6LY5114M4ZGTM5IS1A3YBAT", "dateTime": 1520973075606}, {"current_trial": 181, "trialdata": {"rt": -1, "trial_type": "single-stim", "stimulus": "", "internal_node_id": "0.0-136.0-0.0", "time_elapsed": 728245, "key_press": -1, "type": "PRE_RECALL_DELAY", "trial_index": 181}, "uniqueid": "MTK3731:3PXX5PX6LY5114M4ZGTM5IS1A3YBAT", "dateTime": 1520973076885}, {"current_trial": 182, "trialdata": {"rt": -1000, "trial_type": "single-audio", "stimulus": "/static/audio/400Hz.wav", "internal_node_id": "0.0-137.0", "time_elapsed": 728748, "key_press": -1, "type": "PRE_RECALL_ALERT", "trial_index": 182}, "uniqueid": "MTK3731:3PXX5PX6LY5114M4ZGTM5IS1A3YBAT", "dateTime": 1520973077388}, {"current_trial": 183, "trialdata": {"rt": [1669, 4062, 6494, 9035, 10756, 12425, 14046, 15856, 20786, 21880, 23882, 29091, 44865], "recwords": ["marker", "thief", "luggage", "europe", "sphinx", "seafood", "oyster", "carriage", "daughter", "loft", "girl", "driver", "oyster"], "key_times": [704, 999, 1115, 1243, 1378, 1460, 1669, 2593, 2671, 2794, 2891, 3682, 4062, 5428, 5619, 5753, 5881, 6054, 6247, 6349, 6494, 7490, 7685, 7798, 7954, 8506, 8773, 9035, 9470, 9545, 9749, 9927, 10151, 10533, 10756, 10978, 11183, 11310, 11887, 12006, 12153, 12225, 12425, 12781, 13067, 13273, 13492, 13718, 13825, 14046, 14331, 14564, 14787, 14932, 15060, 15254, 15447, 15556, 15856, 16914, 17005, 17212, 17335, 17810, 17943, 18078, 18828, 19222, 19402, 19485, 19665, 20013, 20296, 20509, 20588, 20786, 21143, 21356, 21484, 21661, 21880, 23117, 23180, 23572, 23632, 23882, 28310, 28500, 28566, 28724, 28880, 28958, 29091, 43313, 43472, 43899, 44157, 44356, 44419, 44865], "trial_type": "free-recall", "conditions": [24, 800, "a", 24000], "internal_node_id": "0.0-138.0-0.0", "key_presses": [77, 65, 82, 75, 69, 82, 32, 84, 72, 73, 69, 70, 13, 76, 85, 71, 71, 65, 71, 69, 13, 69, 85, 82, 79, 80, 69, 13, 83, 80, 72, 73, 78, 88, 13, 83, 69, 65, 70, 79, 79, 68, 13, 79, 89, 83, 84, 69, 82, 13, 67, 65, 82, 82, 73, 65, 71, 69, 13, 71, 73, 70, 76, 8, 8, 8, 8, 68, 65, 85, 71, 72, 84, 69, 82, 13, 76, 79, 70, 84, 13, 71, 73, 82, 76, 13, 68, 82, 73, 86, 69, 82, 13, 79, 89, 83, 84, 69, 82, 13], "trial": 4, "time_elapsed": 788753, "type": "FREE_RECALL", "trial_index": 183}, "uniqueid": "MTK3731:3PXX5PX6LY5114M4ZGTM5IS1A3YBAT", "dateTime": 1520973137402}, {"current_trial": 184, "trialdata": {"rt": 1230, "trial_type": "text", "internal_node_id": "0.0-139.0", "time_elapsed": 791994, "key_press": 13, "type": "INSTRUCTIONS", "trial_index": 184}, "uniqueid": "MTK3731:3PXX5PX6LY5114M4ZGTM5IS1A3YBAT", "dateTime": 1520973140634}, {"current_trial": 185, "trialdata": {"rt": [3883, 6134, 10491, 12658, 14854, 18158, 20646], "trial_type": "math-distractor", "key_times": [3551, 3625, 3883, 5412, 5936, 6134, 10313, 10491, 11931, 12480, 12658, 14219, 14694, 14854, 17381, 17953, 18158, 19594, 20328, 20646, 23388], "responses": ["20", "13", "6", "10", "18", "10", "14"], "num2": [9, 8, 3, 4, 3, 3, 3, 5], "num3": [3, 4, 1, 5, 8, 4, 4, 3], "conditions": [24, 800, "a", 24000], "internal_node_id": "0.0-140.0", "key_presses": [50, 48, 13, 49, 51, 13, 54, 13, 49, 48, 13, 49, 56, 13, 49, 48, 13, 49, 52, 13, 49], "trial": 5, "time_elapsed": 818003, "type": "DISTRACTOR", "trial_index": 185, "num1": [8, 1, 2, 1, 7, 3, 7, 2]}, "uniqueid": "MTK3731:3PXX5PX6LY5114M4ZGTM5IS1A3YBAT", "dateTime": 1520973166644}, {"current_trial": 186, "trialdata": {"rt": -1, "trial_type": "single-stim", "stimulus": "<p id=\"stim\">10</p>", "internal_node_id": "0.0-141.0-0.0", "time_elapsed": 821008, "key_press": -1, "trial_index": 186}, "uniqueid": "MTK3731:3PXX5PX6LY5114M4ZGTM5IS1A3YBAT", "dateTime": 1520973169649}, {"current_trial": 187, "trialdata": {"rt": -1, "trial_type": "single-stim", "stimulus": "<p id=\"stim\">9</p>", "internal_node_id": "0.0-141.0-1.0", "time_elapsed": 822011, "key_press": -1, "trial_index": 187}, "uniqueid": "MTK3731:3PXX5PX6LY5114M4ZGTM5IS1A3YBAT", "dateTime": 1520973170651}, {"current_trial": 188, "trialdata": {"rt": -1, "trial_type": "single-stim", "stimulus": "<p id=\"stim\">8</p>", "internal_node_id": "0.0-141.0-2.0", "time_elapsed": 823014, "key_press": -1, "trial_index": 188}, "uniqueid": "MTK3731:3PXX5PX6LY5114M4ZGTM5IS1A3YBAT", "dateTime": 1520973171654}, {"current_trial": 189, "trialdata": {"rt": -1, "trial_type": "single-stim", "stimulus": "<p id=\"stim\">7</p>", "internal_node_id": "0.0-141.0-3.0", "time_elapsed": 824017, "key_press": -1, "trial_index": 189}, "uniqueid": "MTK3731:3PXX5PX6LY5114M4ZGTM5IS1A3YBAT", "dateTime": 1520973172657}, {"current_trial": 190, "trialdata": {"rt": -1, "trial_type": "single-stim", "stimulus": "<p id=\"stim\">6</p>", "internal_node_id": "0.0-141.0-4.0", "time_elapsed": 825021, "key_press": -1, "trial_index": 190}, "uniqueid": "MTK3731:3PXX5PX6LY5114M4ZGTM5IS1A3YBAT", "dateTime": 1520973173661}, {"current_trial": 191, "trialdata": {"rt": -1, "trial_type": "single-stim", "stimulus": "<p id=\"stim\">5</p>", "internal_node_id": "0.0-141.0-5.0", "time_elapsed": 826024, "key_press": -1, "trial_index": 191}, "uniqueid": "MTK3731:3PXX5PX6LY5114M4ZGTM5IS1A3YBAT", "dateTime": 1520973174665}, {"current_trial": 192, "trialdata": {"rt": -1, "trial_type": "single-stim", "stimulus": "<p id=\"stim\">4</p>", "internal_node_id": "0.0-141.0-6.0", "time_elapsed": 827029, "key_press": -1, "trial_index": 192}, "uniqueid": "MTK3731:3PXX5PX6LY5114M4ZGTM5IS1A3YBAT", "dateTime": 1520973175669}, {"current_trial": 193, "trialdata": {"rt": -1, "trial_type": "single-stim", "stimulus": "<p id=\"stim\">3</p>", "internal_node_id": "0.0-141.0-7.0", "time_elapsed": 828033, "key_press": -1, "trial_index": 193}, "uniqueid": "MTK3731:3PXX5PX6LY5114M4ZGTM5IS1A3YBAT", "dateTime": 1520973176673}, {"current_trial": 194, "trialdata": {"rt": -1, "trial_type": "single-stim", "stimulus": "<p id=\"stim\">2</p>", "internal_node_id": "0.0-141.0-8.0", "time_elapsed": 829037, "key_press": -1, "trial_index": 194}, "uniqueid": "MTK3731:3PXX5PX6LY5114M4ZGTM5IS1A3YBAT", "dateTime": 1520973177677}, {"current_trial": 195, "trialdata": {"rt": -1, "trial_type": "single-stim", "stimulus": "<p id=\"stim\">1</p>", "internal_node_id": "0.0-141.0-9.0", "time_elapsed": 830039, "key_press": -1, "trial_index": 195}, "uniqueid": "MTK3731:3PXX5PX6LY5114M4ZGTM5IS1A3YBAT", "dateTime": 1520973178679}, {"current_trial": 196, "trialdata": {"rt": -1, "trial_type": "single-stim", "stimulus": "<p id=\"stim\">+</p>", "internal_node_id": "0.0-142.0-0.0", "time_elapsed": 831542, "key_press": -1, "type": "FIXATION", "trial_index": 196}, "uniqueid": "MTK3731:3PXX5PX6LY5114M4ZGTM5IS1A3YBAT", "dateTime": 1520973180182}, {"current_trial": 197, "trialdata": {"rt": -1000, "trial_type": "single-audio", "word": "peanut", "stimulus": "/static/audio/wordpool/PEANUT.wav", "conditions": [24, 800, "a", 24000], "internal_node_id": "0.0-143.0", "trial": 5, "time_elapsed": 833436, "serialpos": 0, "key_press": -1, "wordID": 1031, "type": "PRES_AUD", "trial_index": 197}, "uniqueid": "MTK3731:3PXX5PX6LY5114M4ZGTM5IS1A3YBAT", "dateTime": 1520973182076}, {"current_trial": 198, "trialdata": {"rt": -1000, "trial_type": "single-audio", "word": "snack", "stimulus": "/static/audio/wordpool/SNACK.wav", "conditions": [24, 800, "a", 24000], "internal_node_id": "0.0-144.0", "trial": 5, "time_elapsed": 835267, "serialpos": 1, "key_press": -1, "wordID": 1330, "type": "PRES_AUD", "trial_index": 198}, "uniqueid": "MTK3731:3PXX5PX6LY5114M4ZGTM5IS1A3YBAT", "dateTime": 1520973183907}, {"current_trial": 199, "trialdata": {"rt": -1000, "trial_type": "single-audio", "word": "nurse", "stimulus": "/static/audio/wordpool/NURSE.wav", "conditions": [24, 800, "a", 24000], "internal_node_id": "0.0-145.0", "trial": 5, "time_elapsed": 837092, "serialpos": 2, "key_press": -1, "wordID": 962, "type": "PRES_AUD", "trial_index": 199}, "uniqueid": "MTK3731:3PXX5PX6LY5114M4ZGTM5IS1A3YBAT", "dateTime": 1520973185732}, {"current_trial": 200, "trialdata": {"rt": -1000, "trial_type": "single-audio", "word": "chest", "stimulus": "/static/audio/wordpool/CHEST.wav", "conditions": [24, 800, "a", 24000], "internal_node_id": "0.0-146.0", "trial": 5, "time_elapsed": 838964, "serialpos": 3, "key_press": -1, "wordID": 294, "type": "PRES_AUD", "trial_index": 200}, "uniqueid": "MTK3731:3PXX5PX6LY5114M4ZGTM5IS1A3YBAT", "dateTime": 1520973187604}, {"current_trial": 201, "trialdata": {"rt": -1000, "trial_type": "single-audio", "word": "pecan", "stimulus": "/static/audio/wordpool/PECAN.wav", "conditions": [24, 800, "a", 24000], "internal_node_id": "0.0-147.0", "trial": 5, "time_elapsed": 840595, "serialpos": 4, "key_press": -1, "wordID": 1035, "type": "PRES_AUD", "trial_index": 201}, "uniqueid": "MTK3731:3PXX5PX6LY5114M4ZGTM5IS1A3YBAT", "dateTime": 1520973189235}, {"current_trial": 202, "trialdata": {"rt": -1000, "trial_type": "single-audio", "word": "valley", "stimulus": "/static/audio/wordpool/VALLEY.wav", "conditions": [24, 800, "a", 24000], "internal_node_id": "0.0-148.0", "trial": 5, "time_elapsed": 842506, "serialpos": 5, "key_press": -1, "wordID": 1544, "type": "PRES_AUD", "trial_index": 202}, "uniqueid": "MTK3731:3PXX5PX6LY5114M4ZGTM5IS1A3YBAT", "dateTime": 1520973191146}, {"current_trial": 203, "trialdata": {"rt": -1000, "trial_type": "single-audio", "word": "velvet", "stimulus": "/static/audio/wordpool/VELVET.wav", "conditions": [24, 800, "a", 24000], "internal_node_id": "0.0-149.0", "trial": 5, "time_elapsed": 844146, "serialpos": 6, "key_press": -1, "wordID": 1554, "type": "PRES_AUD", "trial_index": 203}, "uniqueid": "MTK3731:3PXX5PX6LY5114M4ZGTM5IS1A3YBAT", "dateTime": 1520973192788}, {"current_trial": 204, "trialdata": {"rt": -1000, "trial_type": "single-audio", "word": "scalpel", "stimulus": "/static/audio/wordpool/SCALPEL.wav", "conditions": [24, 800, "a", 24000], "internal_node_id": "0.0-150.0", "trial": 5, "time_elapsed": 846123, "serialpos": 7, "key_press": -1, "wordID": 1242, "type": "PRES_AUD", "trial_index": 204}, "uniqueid": "MTK3731:3PXX5PX6LY5114M4ZGTM5IS1A3YBAT", "dateTime": 1520973194764}, {"current_trial": 205, "trialdata": {"rt": -1000, "trial_type": "single-audio", "word": "soda", "stimulus": "/static/audio/wordpool/SODA.wav", "conditions": [24, 800, "a", 24000], "internal_node_id": "0.0-151.0", "trial": 5, "time_elapsed": 847882, "serialpos": 8, "key_press": -1, "wordID": 1340, "type": "PRES_AUD", "trial_index": 205}, "uniqueid": "MTK3731:3PXX5PX6LY5114M4ZGTM5IS1A3YBAT", "dateTime": 1520973196522}, {"current_trial": 206, "trialdata": {"rt": -1000, "trial_type": "single-audio", "word": "drink", "stimulus": "/static/audio/wordpool/DRINK.wav", "conditions": [24, 800, "a", 24000], "internal_node_id": "0.0-152.0", "trial": 5, "time_elapsed": 849617, "serialpos": 9, "key_press": -1, "wordID": 497, "type": "PRES_AUD", "trial_index": 206}, "uniqueid": "MTK3731:3PXX5PX6LY5114M4ZGTM5IS1A3YBAT", "dateTime": 1520973198257}, {"current_trial": 207, "trialdata": {"rt": -1000, "trial_type": "single-audio", "word": "student", "stimulus": "/static/audio/wordpool/STUDENT.wav", "conditions": [24, 800, "a", 24000], "internal_node_id": "0.0-153.0", "trial": 5, "time_elapsed": 851337, "serialpos": 10, "key_press": -1, "wordID": 1394, "type": "PRES_AUD", "trial_index": 207}, "uniqueid": "MTK3731:3PXX5PX6LY5114M4ZGTM5IS1A3YBAT", "dateTime": 1520973199977}, {"current_trial": 208, "trialdata": {"rt": -1000, "trial_type": "single-audio", "word": "cottage", "stimulus": "/static/audio/wordpool/COTTAGE.wav", "conditions": [24, 800, "a", 24000], "internal_node_id": "0.0-154.0", "trial": 5, "time_elapsed": 853047, "serialpos": 11, "key_press": -1, "wordID": 383, "type": "PRES_AUD", "trial_index": 208}, "uniqueid": "MTK3731:3PXX5PX6LY5114M4ZGTM5IS1A3YBAT", "dateTime": 1520973201688}, {"current_trial": 209, "trialdata": {"rt": -1000, "trial_type": "single-audio", "word": "viking", "stimulus": "/static/audio/wordpool/VIKING.wav", "conditions": [24, 800, "a", 24000], "internal_node_id": "0.0-155.0", "trial": 5, "time_elapsed": 854901, "serialpos": 12, "key_press": -1, "wordID": 1564, "type": "PRES_AUD", "trial_index": 209}, "uniqueid": "MTK3731:3PXX5PX6LY5114M4ZGTM5IS1A3YBAT", "dateTime": 1520973203542}, {"current_trial": 210, "trialdata": {"rt": -1000, "trial_type": "single-audio", "word": "convict", "stimulus": "/static/audio/wordpool/CONVICT.wav", "conditions": [24, 800, "a", 24000], "internal_node_id": "0.0-156.0", "trial": 5, "time_elapsed": 856750, "serialpos": 13, "key_press": -1, "wordID": 370, "type": "PRES_AUD", "trial_index": 210}, "uniqueid": "MTK3731:3PXX5PX6LY5114M4ZGTM5IS1A3YBAT", "dateTime": 1520973205391}, {"current_trial": 211, "trialdata": {"rt": -1000, "trial_type": "single-audio", "word": "crab", "stimulus": "/static/audio/wordpool/CRAB.wav", "conditions": [24, 800, "a", 24000], "internal_node_id": "0.0-157.0", "trial": 5, "time_elapsed": 858460, "serialpos": 14, "key_press": -1, "wordID": 396, "type": "PRES_AUD", "trial_index": 211}, "uniqueid": "MTK3731:3PXX5PX6LY5114M4ZGTM5IS1A3YBAT", "dateTime": 1520973207100}, {"current_trial": 212, "trialdata": {"rt": -1000, "trial_type": "single-audio", "word": "leader", "stimulus": "/static/audio/wordpool/LEADER.wav", "conditions": [24, 800, "a", 24000], "internal_node_id": "0.0-158.0", "trial": 5, "time_elapsed": 860249, "serialpos": 15, "key_press": -1, "wordID": 806, "type": "PRES_AUD", "trial_index": 212}, "uniqueid": "MTK3731:3PXX5PX6LY5114M4ZGTM5IS1A3YBAT", "dateTime": 1520973208890}, {"current_trial": 213, "trialdata": {"rt": -1000, "trial_type": "single-audio", "word": "laser", "stimulus": "/static/audio/wordpool/LASER.wav", "conditions": [24, 800, "a", 24000], "internal_node_id": "0.0-159.0", "trial": 5, "time_elapsed": 862188, "serialpos": 16, "key_press": -1, "wordID": 800, "type": "PRES_AUD", "trial_index": 213}, "uniqueid": "MTK3731:3PXX5PX6LY5114M4ZGTM5IS1A3YBAT", "dateTime": 1520973210828}, {"current_trial": 214, "trialdata": {"rt": -1000, "trial_type": "single-audio", "word": "clam", "stimulus": "/static/audio/wordpool/CLAM.wav", "conditions": [24, 800, "a", 24000], "internal_node_id": "0.0-160.0", "trial": 5, "time_elapsed": 864108, "serialpos": 17, "key_press": -1, "wordID": 314, "type": "PRES_AUD", "trial_index": 214}, "uniqueid": "MTK3731:3PXX5PX6LY5114M4ZGTM5IS1A3YBAT", "dateTime": 1520973212748}, {"current_trial": 215, "trialdata": {"rt": -1000, "trial_type": "single-audio", "word": "mattress", "stimulus": "/static/audio/wordpool/MATTRESS.wav", "conditions": [24, 800, "a", 24000], "internal_node_id": "0.0-161.0", "trial": 5, "time_elapsed": 865882, "serialpos": 18, "key_press": -1, "wordID": 878, "type": "PRES_AUD", "trial_index": 215}, "uniqueid": "MTK3731:3PXX5PX6LY5114M4ZGTM5IS1A3YBAT", "dateTime": 1520973214522}, {"current_trial": 216, "trialdata": {"rt": -1000, "trial_type": "single-audio", "word": "couch", "stimulus": "/static/audio/wordpool/COUCH.wav", "conditions": [24, 800, "a", 24000], "internal_node_id": "0.0-162.0", "trial": 5, "time_elapsed": 867770, "serialpos": 19, "key_press": -1, "wordID": 385, "type": "PRES_AUD", "trial_index": 216}, "uniqueid": "MTK3731:3PXX5PX6LY5114M4ZGTM5IS1A3YBAT", "dateTime": 1520973216410}, {"current_trial": 217, "trialdata": {"rt": -1000, "trial_type": "single-audio", "word": "transplant", "stimulus": "/static/audio/wordpool/TRANSPLANT.wav", "conditions": [24, 800, "a", 24000], "internal_node_id": "0.0-163.0", "trial": 5, "time_elapsed": 869559, "serialpos": 20, "key_press": -1, "wordID": 1495, "type": "PRES_AUD", "trial_index": 217}, "uniqueid": "MTK3731:3PXX5PX6LY5114M4ZGTM5IS1A3YBAT", "dateTime": 1520973218199}, {"current_trial": 218, "trialdata": {"rt": -1000, "trial_type": "single-audio", "word": "flask", "stimulus": "/static/audio/wordpool/FLASK.wav", "conditions": [24, 800, "a", 24000], "internal_node_id": "0.0-164.0", "trial": 5, "time_elapsed": 871486, "serialpos": 21, "key_press": -1, "wordID": 575, "type": "PRES_AUD", "trial_index": 218}, "uniqueid": "MTK3731:3PXX5PX6LY5114M4ZGTM5IS1A3YBAT", "dateTime": 1520973220127}, {"current_trial": 219, "trialdata": {"rt": -1000, "trial_type": "single-audio", "word": "lace", "stimulus": "/static/audio/wordpool/LACE.wav", "conditions": [24, 800, "a", 24000], "internal_node_id": "0.0-165.0", "trial": 5, "time_elapsed": 873455, "serialpos": 22, "key_press": -1, "wordID": 791, "type": "PRES_AUD", "trial_index": 219}, "uniqueid": "MTK3731:3PXX5PX6LY5114M4ZGTM5IS1A3YBAT", "dateTime": 1520973222096}, {"current_trial": 220, "trialdata": {"rt": -1000, "trial_type": "single-audio", "word": "fragrance", "stimulus": "/static/audio/wordpool/FRAGRANCE.wav", "conditions": [24, 800, "a", 24000], "internal_node_id": "0.0-166.0", "trial": 5, "time_elapsed": 875453, "serialpos": 23, "key_press": -1, "wordID": 598, "type": "PRES_AUD", "trial_index": 220}, "uniqueid": "MTK3731:3PXX5PX6LY5114M4ZGTM5IS1A3YBAT", "dateTime": 1520973224093}, {"current_trial": 221, "trialdata": {"rt": -1, "trial_type": "single-stim", "stimulus": "", "internal_node_id": "0.0-167.0-0.0", "time_elapsed": 876741, "key_press": -1, "type": "PRE_RECALL_DELAY", "trial_index": 221}, "uniqueid": "MTK3731:3PXX5PX6LY5114M4ZGTM5IS1A3YBAT", "dateTime": 1520973225381}, {"current_trial": 222, "trialdata": {"rt": -1000, "trial_type": "single-audio", "stimulus": "/static/audio/400Hz.wav", "internal_node_id": "0.0-168.0", "time_elapsed": 877244, "key_press": -1, "type": "PRE_RECALL_ALERT", "trial_index": 222}, "uniqueid": "MTK3731:3PXX5PX6LY5114M4ZGTM5IS1A3YBAT", "dateTime": 1520973225884}, {"current_trial": 223, "trialdata": {"rt": [1445, 4193, 5554, 6726, 7780, 10861, 12958, 14114, 15778, 17068, 20169, 21165, 28192, 32958, 34145, 40625], "recwords": ["lace", "fragrance", "crab", "peanut", "snack", "nurse", "student", "snack", "viking", "cottage", "fragrance", "lace", "nurse", "pecan", "valley", "chest"], "key_times": [789, 891, 1116, 1314, 1445, 2137, 2332, 2430, 2702, 2906, 2998, 3503, 3575, 3821, 4193, 4755, 5007, 5123, 5375, 5554, 5820, 5920, 6050, 6186, 6405, 6563, 6726, 6984, 7124, 7247, 7487, 7550, 7780, 7989, 8231, 8325, 8633, 9161, 9324, 9464, 9599, 10100, 10338, 10439, 10627, 10703, 10861, 11045, 11142, 11623, 11767, 11875, 12037, 12512, 12634, 12800, 12958, 13233, 13461, 13507, 13739, 13827, 14114, 14402, 14887, 15096, 15235, 15406, 15606, 15778, 15969, 16067, 16274, 16399, 16560, 16755, 16866, 17068, 18545, 18848, 18895, 19198, 19400, 19475, 19626, 19824, 20028, 20169, 20438, 20551, 20786, 21000, 21165, 27416, 27654, 27754, 27935, 28016, 28192, 31894, 31960, 32182, 32368, 32419, 32958, 33226, 33386, 33483, 33621, 33725, 33893, 34145, 39897, 39994, 40126, 40228, 40478, 40625], "trial_type": "free-recall", "conditions": [24, 800, "a", 24000], "internal_node_id": "0.0-169.0-0.0", "key_presses": [76, 65, 67, 69, 32, 70, 82, 65, 71, 82, 65, 78, 67, 69, 13, 67, 82, 65, 66, 13, 80, 69, 65, 78, 85, 84, 13, 83, 78, 65, 67, 75, 13, 67, 82, 65, 66, 8, 8, 8, 8, 78, 85, 82, 83, 69, 13, 83, 69, 8, 84, 85, 68, 69, 78, 84, 13, 83, 78, 65, 67, 75, 13, 86, 73, 75, 73, 78, 71, 13, 67, 79, 84, 84, 65, 71, 69, 13, 70, 82, 65, 71, 82, 65, 78, 67, 69, 13, 76, 65, 67, 69, 13, 78, 85, 82, 83, 69, 13, 80, 69, 67, 65, 78, 13, 86, 65, 76, 76, 69, 89, 13, 67, 72, 69, 83, 84, 13], "trial": 5, "time_elapsed": 937249, "type": "FREE_RECALL", "trial_index": 223}, "uniqueid": "MTK3731:3PXX5PX6LY5114M4ZGTM5IS1A3YBAT", "dateTime": 1520973285898}, {"current_trial": 224, "trialdata": {"rt": 6859, "trial_type": "text", "internal_node_id": "0.0-170.0", "time_elapsed": 946119, "key_press": 186, "type": "INSTRUCTIONS", "trial_index": 224}, "uniqueid": "MTK3731:3PXX5PX6LY5114M4ZGTM5IS1A3YBAT", "dateTime": 1520973294759}, {"current_trial": 225, "trialdata": {"rt": [1793, 3283, 8215, 10615, 12252, 14652, 17329, 20031, 22086], "trial_type": "math-distractor", "key_times": [1419, 1529, 1793, 3009, 3173, 3283, 7778, 7900, 8215, 10229, 10317, 10615, 11892, 12022, 12252, 14132, 14464, 14652, 16528, 17107, 17329, 19247, 19787, 20031, 21670, 21836, 22086, 23342, 23912], "responses": ["13", "11", "21", "12", "11", "13", "17", "19", "11"], "num2": [3, 4, 9, 1, 2, 6, 8, 7, 1, 4], "num3": [3, 1, 8, 6, 8, 4, 6, 3, 4, 6], "conditions": [12, 1600, "a", 24000], "internal_node_id": "0.0-171.0", "key_presses": [49, 51, 13, 49, 49, 13, 50, 49, 13, 49, 50, 13, 49, 49, 13, 49, 51, 13, 49, 55, 13, 49, 57, 13, 49, 49, 13, 49, 54], "trial": 6, "time_elapsed": 972125, "type": "DISTRACTOR", "trial_index": 225, "num1": [7, 6, 4, 5, 1, 3, 3, 9, 6, 6]}, "uniqueid": "MTK3731:3PXX5PX6LY5114M4ZGTM5IS1A3YBAT", "dateTime": 1520973320766}, {"current_trial": 226, "trialdata": {"rt": -1, "trial_type": "single-stim", "stimulus": "<p id=\"stim\">10</p>", "internal_node_id": "0.0-172.0-0.0", "time_elapsed": 975128, "key_press": -1, "trial_index": 226}, "uniqueid": "MTK3731:3PXX5PX6LY5114M4ZGTM5IS1A3YBAT", "dateTime": 1520973323768}, {"current_trial": 227, "trialdata": {"rt": -1, "trial_type": "single-stim", "stimulus": "<p id=\"stim\">9</p>", "internal_node_id": "0.0-172.0-1.0", "time_elapsed": 976129, "key_press": -1, "trial_index": 227}, "uniqueid": "MTK3731:3PXX5PX6LY5114M4ZGTM5IS1A3YBAT", "dateTime": 1520973324770}, {"current_trial": 228, "trialdata": {"rt": -1, "trial_type": "single-stim", "stimulus": "<p id=\"stim\">8</p>", "internal_node_id": "0.0-172.0-2.0", "time_elapsed": 977132, "key_press": -1, "trial_index": 228}, "uniqueid": "MTK3731:3PXX5PX6LY5114M4ZGTM5IS1A3YBAT", "dateTime": 1520973325772}, {"current_trial": 229, "trialdata": {"rt": -1, "trial_type": "single-stim", "stimulus": "<p id=\"stim\">7</p>", "internal_node_id": "0.0-172.0-3.0", "time_elapsed": 978135, "key_press": -1, "trial_index": 229}, "uniqueid": "MTK3731:3PXX5PX6LY5114M4ZGTM5IS1A3YBAT", "dateTime": 1520973326775}, {"current_trial": 230, "trialdata": {"rt": -1, "trial_type": "single-stim", "stimulus": "<p id=\"stim\">6</p>", "internal_node_id": "0.0-172.0-4.0", "time_elapsed": 979137, "key_press": -1, "trial_index": 230}, "uniqueid": "MTK3731:3PXX5PX6LY5114M4ZGTM5IS1A3YBAT", "dateTime": 1520973327777}, {"current_trial": 231, "trialdata": {"rt": -1, "trial_type": "single-stim", "stimulus": "<p id=\"stim\">5</p>", "internal_node_id": "0.0-172.0-5.0", "time_elapsed": 980139, "key_press": -1, "trial_index": 231}, "uniqueid": "MTK3731:3PXX5PX6LY5114M4ZGTM5IS1A3YBAT", "dateTime": 1520973328779}, {"current_trial": 232, "trialdata": {"rt": -1, "trial_type": "single-stim", "stimulus": "<p id=\"stim\">4</p>", "internal_node_id": "0.0-172.0-6.0", "time_elapsed": 981142, "key_press": -1, "trial_index": 232}, "uniqueid": "MTK3731:3PXX5PX6LY5114M4ZGTM5IS1A3YBAT", "dateTime": 1520973329782}, {"current_trial": 233, "trialdata": {"rt": -1, "trial_type": "single-stim", "stimulus": "<p id=\"stim\">3</p>", "internal_node_id": "0.0-172.0-7.0", "time_elapsed": 982144, "key_press": -1, "trial_index": 233}, "uniqueid": "MTK3731:3PXX5PX6LY5114M4ZGTM5IS1A3YBAT", "dateTime": 1520973330784}, {"current_trial": 234, "trialdata": {"rt": -1, "trial_type": "single-stim", "stimulus": "<p id=\"stim\">2</p>", "internal_node_id": "0.0-172.0-8.0", "time_elapsed": 983147, "key_press": -1, "trial_index": 234}, "uniqueid": "MTK3731:3PXX5PX6LY5114M4ZGTM5IS1A3YBAT", "dateTime": 1520973331787}, {"current_trial": 235, "trialdata": {"rt": -1, "trial_type": "single-stim", "stimulus": "<p id=\"stim\">1</p>", "internal_node_id": "0.0-172.0-9.0", "time_elapsed": 984149, "key_press": -1, "trial_index": 235}, "uniqueid": "MTK3731:3PXX5PX6LY5114M4ZGTM5IS1A3YBAT", "dateTime": 1520973332789}, {"current_trial": 236, "trialdata": {"rt": -1, "trial_type": "single-stim", "stimulus": "<p id=\"stim\">+</p>", "internal_node_id": "0.0-173.0-0.0", "time_elapsed": 985652, "key_press": -1, "type": "FIXATION", "trial_index": 236}, "uniqueid": "MTK3731:3PXX5PX6LY5114M4ZGTM5IS1A3YBAT", "dateTime": 1520973334292}, {"current_trial": 237, "trialdata": {"rt": -1000, "trial_type": "single-audio", "word": "pork", "stimulus": "/static/audio/wordpool/PORK.wav", "conditions": [12, 1600, "a", 24000], "internal_node_id": "0.0-174.0", "trial": 6, "time_elapsed": 988084, "serialpos": 0, "key_press": -1, "wordID": 1107, "type": "PRES_AUD", "trial_index": 237}, "uniqueid": "MTK3731:3PXX5PX6LY5114M4ZGTM5IS1A3YBAT", "dateTime": 1520973336725}, {"current_trial": 238, "trialdata": {"rt": -1000, "trial_type": "single-audio", "word": "hand", "stimulus": "/static/audio/wordpool/HAND.wav", "conditions": [12, 1600, "a", 24000], "internal_node_id": "0.0-175.0", "trial": 6, "time_elapsed": 990598, "serialpos": 1, "key_press": -1, "wordID": 682, "type": "PRES_AUD", "trial_index": 238}, "uniqueid": "MTK3731:3PXX5PX6LY5114M4ZGTM5IS1A3YBAT", "dateTime": 1520973339238}, {"current_trial": 239, "trialdata": {"rt": -1000, "trial_type": "single-audio", "word": "umpire", "stimulus": "/static/audio/wordpool/UMPIRE.wav", "conditions": [12, 1600, "a", 24000], "internal_node_id": "0.0-176.0", "trial": 6, "time_elapsed": 993285, "serialpos": 2, "key_press": -1, "wordID": 1534, "type": "PRES_AUD", "trial_index": 239}, "uniqueid": "MTK3731:3PXX5PX6LY5114M4ZGTM5IS1A3YBAT", "dateTime": 1520973341926}, {"current_trial": 240, "trialdata": {"rt": -1000, "trial_type": "single-audio", "word": "creature", "stimulus": "/static/audio/wordpool/CREATURE.wav", "conditions": [12, 1600, "a", 24000], "internal_node_id": "0.0-177.0", "trial": 6, "time_elapsed": 995817, "serialpos": 3, "key_press": -1, "wordID": 402, "type": "PRES_AUD", "trial_index": 240}, "uniqueid": "MTK3731:3PXX5PX6LY5114M4ZGTM5IS1A3YBAT", "dateTime": 1520973344457}, {"current_trial": 241, "trialdata": {"rt": -1000, "trial_type": "single-audio", "word": "france", "stimulus": "/static/audio/wordpool/FRANCE.wav", "conditions": [12, 1600, "a", 24000], "internal_node_id": "0.0-178.0", "trial": 6, "time_elapsed": 998468, "serialpos": 4, "key_press": -1, "wordID": 600, "type": "PRES_AUD", "trial_index": 241}, "uniqueid": "MTK3731:3PXX5PX6LY5114M4ZGTM5IS1A3YBAT", "dateTime": 1520973347108}, {"current_trial": 242, "trialdata": {"rt": -1000, "trial_type": "single-audio", "word": "chemist", "stimulus": "/static/audio/wordpool/CHEMIST.wav", "conditions": [12, 1600, "a", 24000], "internal_node_id": "0.0-179.0", "trial": 6, "time_elapsed": 1001075, "serialpos": 5, "key_press": -1, "wordID": 291, "type": "PRES_AUD", "trial_index": 242}, "uniqueid": "MTK3731:3PXX5PX6LY5114M4ZGTM5IS1A3YBAT", "dateTime": 1520973349715}, {"current_trial": 243, "trialdata": {"rt": -1000, "trial_type": "single-audio", "word": "sausage", "stimulus": "/static/audio/wordpool/SAUSAGE.wav", "conditions": [12, 1600, "a", 24000], "internal_node_id": "0.0-180.0", "trial": 6, "time_elapsed": 1003628, "serialpos": 6, "key_press": -1, "wordID": 1237, "type": "PRES_AUD", "trial_index": 243}, "uniqueid": "MTK3731:3PXX5PX6LY5114M4ZGTM5IS1A3YBAT", "dateTime": 1520973352268}, {"current_trial": 244, "trialdata": {"rt": -1000, "trial_type": "single-audio", "word": "clock", "stimulus": "/static/audio/wordpool/CLOCK.wav", "conditions": [12, 1600, "a", 24000], "internal_node_id": "0.0-181.0", "trial": 6, "time_elapsed": 1006356, "serialpos": 7, "key_press": -1, "wordID": 324, "type": "PRES_AUD", "trial_index": 244}, "uniqueid": "MTK3731:3PXX5PX6LY5114M4ZGTM5IS1A3YBAT", "dateTime": 1520973354996}, {"current_trial": 245, "trialdata": {"rt": -1000, "trial_type": "single-audio", "word": "harp", "stimulus": "/static/audio/wordpool/HARP.wav", "conditions": [12, 1600, "a", 24000], "internal_node_id": "0.0-182.0", "trial": 6, "time_elapsed": 1009156, "serialpos": 8, "key_press": -1, "wordID": 688, "type": "PRES_AUD", "trial_index": 245}, "uniqueid": "MTK3731:3PXX5PX6LY5114M4ZGTM5IS1A3YBAT", "dateTime": 1520973357796}, {"current_trial": 246, "trialdata": {"rt": -1000, "trial_type": "single-audio", "word": "piano", "stimulus": "/static/audio/wordpool/PIANO.wav", "conditions": [12, 1600, "a", 24000], "internal_node_id": "0.0-183.0", "trial": 6, "time_elapsed": 1011735, "serialpos": 9, "key_press": -1, "wordID": 1056, "type": "PRES_AUD", "trial_index": 246}, "uniqueid": "MTK3731:3PXX5PX6LY5114M4ZGTM5IS1A3YBAT", "dateTime": 1520973360375}, {"current_trial": 247, "trialdata": {"rt": -1000, "trial_type": "single-audio", "word": "comet", "stimulus": "/static/audio/wordpool/COMET.wav", "conditions": [12, 1600, "a", 24000], "internal_node_id": "0.0-184.0", "trial": 6, "time_elapsed": 1014285, "serialpos": 10, "key_press": -1, "wordI