{"assignmentId": "3FUI0JHJPY5WEOJ6B8Z60RGJGBJ338", "workerId": "MTK3245", "questiondata": {"origin": "United States", "strat-rehearsal": "53", "marital": "Single", "education": "Bachelor's degree", "ethnicity": "Not Hispanic", "color_depth": 24, "distracted": "No", "wrote-notes": "No", "strat-other": "", "screen_width": 1536, "avail_screen_width": 1536, "avail_screen_height": 824, "strat-image": "5", "language": "English", "gender": "Male", "age": "22", "gender_other": "", "race": ["White"], "strat-categorize": "55", "pixel_depth": 24, "strat-spatial": "0", "strat-story": "0", "race_other": "", "screen_height": 864}, "bonus": 0, "hitId": "3NSCTNUR2ZUXP47184X7DCWPFKY5A2", "counterbalance": 1433, "useragent": "Mozilla/5.0 (Windows NT 10.0; Win64; x64) AppleWebKit/537.36 (KHTML, like Gecko) Chrome/58.0.3029.110 Safari/537.36 Edge/16.16299", "eventdata": [{"eventtype": "initialized", "interval": 0, "value": null, "timestamp": 1520275799875}, {"eventtype": "window_resize", "interval": 0, "value": [1536, 747], "timestamp": 1520275799875}, {"eventtype": "focus", "interval": 166, "value": "on", "timestamp": 1520275800041}, {"eventtype": "focus", "interval": 1833205, "value": "off", "timestamp": 1520277633246}, {"eventtype": "focus", "interval": 7506, "value": "on", "timestamp": 1520277640752}, {"eventtype": "focus", "interval": 1255233, "value": "off", "timestamp": 1520278895985}, {"eventtype": "focus", "interval": 2801, "value": "on", "timestamp": 1520278898786}], "data": [{"current_trial": 0, "trialdata": {"rt": 1468, "trial_type": "text", "internal_node_id": "0.0-0.0", "time_elapsed": 1470, "key_press": 13, "type": "INSTRUCTIONS", "trial_index": 0}, "uniqueid": "MTK3245:3FUI0JHJPY5WEOJ6B8Z60RGJGBJ338", "dateTime": 1520275801922}, {"current_trial": 1, "trialdata": {"rt": 608, "trial_type": "text", "internal_node_id": "0.0-1.0", "time_elapsed": 2079, "key_press": 13, "type": "INSTRUCTIONS", "trial_index": 1}, "uniqueid": "MTK3245:3FUI0JHJPY5WEOJ6B8Z60RGJGBJ338", "dateTime": 1520275802530}, {"current_trial": 2, "trialdata": {"rt": [7404], "trial_type": "audio-test", "responses": ["ocean"], "internal_node_id": "0.0-2.0", "time_elapsed": 9696, "type": "AUDIO_TEST", "trial_index": 2}, "uniqueid": "MTK3245:3FUI0JHJPY5WEOJ6B8Z60RGJGBJ338", "dateTime": 1520275810147}, {"current_trial": 3, "trialdata": {"rt": [11892], "trial_type": "audio-test", "responses": ["crystal"], "internal_node_id": "0.0-3.0", "time_elapsed": 21599, "type": "AUDIO_TEST", "trial_index": 3}, "uniqueid": "MTK3245:3FUI0JHJPY5WEOJ6B8Z60RGJGBJ338", "dateTime": 1520275822051}, {"current_trial": 4, "trialdata": {"rt": [6046], "trial_type": "audio-test", "responses": ["spice"], "internal_node_id": "0.0-4.0", "time_elapsed": 27660, "type": "AUDIO_TEST", "trial_index": 4}, "uniqueid": "MTK3245:3FUI0JHJPY5WEOJ6B8Z60RGJGBJ338", "dateTime": 1520275828111}, {"current_trial": 5, "trialdata": {"rt": 20854, "trial_type": "survey-text", "responses": "{\"Q0\":\"4 am\",\"Q1\":\"12 pm\",\"Q2\":\"3\"}", "internal_node_id": "0.0-5.0", "time_elapsed": 49273, "type": "SLEEP_SURVEY", "trial_index": 5}, "uniqueid": "MTK3245:3FUI0JHJPY5WEOJ6B8Z60RGJGBJ338", "dateTime": 1520275849724}, {"current_trial": 6, "trialdata": {"rt": 24955, "trial_type": "text", "internal_node_id": "0.0-6.0", "time_elapsed": 75236, "key_press": 32, "type": "INSTRUCTIONS", "trial_index": 6}, "uniqueid": "MTK3245:3FUI0JHJPY5WEOJ6B8Z60RGJGBJ338", "dateTime": 1520275875687}, {"current_trial": 7, "trialdata": {"rt": 13766, "trial_type": "text", "internal_node_id": "0.0-7.0", "time_elapsed": 89527, "key_press": 32, "type": "INSTRUCTIONS", "trial_index": 7}, "uniqueid": "MTK3245:3FUI0JHJPY5WEOJ6B8Z60RGJGBJ338", "dateTime": 1520275889978}, {"current_trial": 8, "trialdata": {"rt": 7565, "trial_type": "text", "internal_node_id": "0.0-8.0", "time_elapsed": 97591, "key_press": 32, "type": "INSTRUCTIONS", "trial_index": 8}, "uniqueid": "MTK3245:3FUI0JHJPY5WEOJ6B8Z60RGJGBJ338", "dateTime": 1520275898042}, {"current_trial": 9, "trialdata": {"rt": [3464, 5811, 9035, 12238, 14820, 17421], "trial_type": "math-distractor", "key_times": [2562, 2836, 3464, 5027, 5147, 5811, 8264, 8503, 9035, 11131, 11582, 12238, 13980, 14380, 14820, 16478, 16831, 17421], "responses": ["10", "12", "20", "16", "13", "17"], "num2": [1, 4, 8, 3, 4, 1, 3], "num3": [3, 4, 6, 4, 5, 8, 8], "conditions": [18, 1200, "v", 18000], "internal_node_id": "0.0-9.0", "key_presses": [97, 96, 13, 97, 98, 13, 98, 96, 13, 97, 102, 13, 97, 99, 13, 97, 103, 13], "trial": 0, "time_elapsed": 116623, "type": "DISTRACTOR", "trial_index": 9, "num1": [6, 4, 6, 9, 4, 8, 1]}, "uniqueid": "MTK3245:3FUI0JHJPY5WEOJ6B8Z60RGJGBJ338", "dateTime": 1520275917075}, {"current_trial": 10, "trialdata": {"rt": -1, "trial_type": "single-stim", "stimulus": "<p id=\"stim\">10</p>", "internal_node_id": "0.0-10.0-0.0", "time_elapsed": 119647, "key_press": -1, "trial_index": 10}, "uniqueid": "MTK3245:3FUI0JHJPY5WEOJ6B8Z60RGJGBJ338", "dateTime": 1520275920098}, {"current_trial": 11, "trialdata": {"rt": -1, "trial_type": "single-stim", "stimulus": "<p id=\"stim\">9</p>", "internal_node_id": "0.0-10.0-1.0", "time_elapsed": 120647, "key_press": -1, "trial_index": 11}, "uniqueid": "MTK3245:3FUI0JHJPY5WEOJ6B8Z60RGJGBJ338", "dateTime": 1520275921098}, {"current_trial": 12, "trialdata": {"rt": -1, "trial_type": "single-stim", "stimulus": "<p id=\"stim\">8</p>", "internal_node_id": "0.0-10.0-2.0", "time_elapsed": 121650, "key_press": -1, "trial_index": 12}, "uniqueid": "MTK3245:3FUI0JHJPY5WEOJ6B8Z60RGJGBJ338", "dateTime": 1520275922101}, {"current_trial": 13, "trialdata": {"rt": -1, "trial_type": "single-stim", "stimulus": "<p id=\"stim\">7</p>", "internal_node_id": "0.0-10.0-3.0", "time_elapsed": 122656, "key_press": -1, "trial_index": 13}, "uniqueid": "MTK3245:3FUI0JHJPY5WEOJ6B8Z60RGJGBJ338", "dateTime": 1520275923108}, {"current_trial": 14, "trialdata": {"rt": -1, "trial_type": "single-stim", "stimulus": "<p id=\"stim\">6</p>", "internal_node_id": "0.0-10.0-4.0", "time_elapsed": 123641, "key_press": -1, "trial_index": 14}, "uniqueid": "MTK3245:3FUI0JHJPY5WEOJ6B8Z60RGJGBJ338", "dateTime": 1520275924092}, {"current_trial": 15, "trialdata": {"rt": -1, "trial_type": "single-stim", "stimulus": "<p id=\"stim\">5</p>", "internal_node_id": "0.0-10.0-5.0", "time_elapsed": 124655, "key_press": -1, "trial_index": 15}, "uniqueid": "MTK3245:3FUI0JHJPY5WEOJ6B8Z60RGJGBJ338", "dateTime": 1520275925106}, {"current_trial": 16, "trialdata": {"rt": -1, "trial_type": "single-stim", "stimulus": "<p id=\"stim\">4</p>", "internal_node_id": "0.0-10.0-6.0", "time_elapsed": 125655, "key_press": -1, "trial_index": 16}, "uniqueid": "MTK3245:3FUI0JHJPY5WEOJ6B8Z60RGJGBJ338", "dateTime": 1520275926106}, {"current_trial": 17, "trialdata": {"rt": -1, "trial_type": "single-stim", "stimulus": "<p id=\"stim\">3</p>", "internal_node_id": "0.0-10.0-7.0", "time_elapsed": 126655, "key_press": -1, "trial_index": 17}, "uniqueid": "MTK3245:3FUI0JHJPY5WEOJ6B8Z60RGJGBJ338", "dateTime": 1520275927106}, {"current_trial": 18, "trialdata": {"rt": -1, "trial_type": "single-stim", "stimulus": "<p id=\"stim\">2</p>", "internal_node_id": "0.0-10.0-8.0", "time_elapsed": 127642, "key_press": -1, "trial_index": 18}, "uniqueid": "MTK3245:3FUI0JHJPY5WEOJ6B8Z60RGJGBJ338", "dateTime": 1520275928093}, {"current_trial": 19, "trialdata": {"rt": -1, "trial_type": "single-stim", "stimulus": "<p id=\"stim\">1</p>", "internal_node_id": "0.0-10.0-9.0", "time_elapsed": 128648, "key_press": -1, "trial_index": 19}, "uniqueid": "MTK3245:3FUI0JHJPY5WEOJ6B8Z60RGJGBJ338", "dateTime": 1520275929099}, {"current_trial": 20, "trialdata": {"rt": -1, "trial_type": "single-stim", "stimulus": "<p id=\"stim\">+</p>", "internal_node_id": "0.0-11.0-0.0", "time_elapsed": 130153, "key_press": -1, "type": "FIXATION", "trial_index": 20}, "uniqueid": "MTK3245:3FUI0JHJPY5WEOJ6B8Z60RGJGBJ338", "dateTime": 1520275930604}, {"current_trial": 21, "trialdata": {"rt": -1, "trial_type": "single-stim", "word": "cupboard", "stimulus": "<p id=\"stim\">CUPBOARD</p>", "conditions": [18, 1200, "v", 18000], "internal_node_id": "0.0-12.0", "trial": 0, "time_elapsed": 131361, "serialpos": 0, "key_press": -1, "wordID": 424, "type": "PRES_VIS", "trial_index": 21}, "uniqueid": "MTK3245:3FUI0JHJPY5WEOJ6B8Z60RGJGBJ338", "dateTime": 1520275931813}, {"current_trial": 22, "trialdata": {"rt": -1, "trial_type": "single-stim", "word": "leopard", "stimulus": "<p id=\"stim\">LEOPARD</p>", "conditions": [18, 1200, "v", 18000], "internal_node_id": "0.0-13.0", "trial": 0, "time_elapsed": 133393, "serialpos": 1, "key_press": -1, "wordID": 811, "type": "PRES_VIS", "trial_index": 22}, "uniqueid": "MTK3245:3FUI0JHJPY5WEOJ6B8Z60RGJGBJ338", "dateTime": 1520275933844}, {"current_trial": 23, "trialdata": {"rt": -1, "trial_type": "single-stim", "word": "lodge", "stimulus": "<p id=\"stim\">LODGE</p>", "conditions": [18, 1200, "v", 18000], "internal_node_id": "0.0-14.0", "trial": 0, "time_elapsed": 135775, "serialpos": 2, "key_press": -1, "wordID": 838, "type": "PRES_VIS", "trial_index": 23}, "uniqueid": "MTK3245:3FUI0JHJPY5WEOJ6B8Z60RGJGBJ338", "dateTime": 1520275936226}, {"current_trial": 24, "trialdata": {"rt": -1, "trial_type": "single-stim", "word": "glass", "stimulus": "<p id=\"stim\">GLASS</p>", "conditions": [18, 1200, "v", 18000], "internal_node_id": "0.0-15.0", "trial": 0, "time_elapsed": 138073, "serialpos": 3, "key_press": -1, "wordID": 638, "type": "PRES_VIS", "trial_index": 24}, "uniqueid": "MTK3245:3FUI0JHJPY5WEOJ6B8Z60RGJGBJ338", "dateTime": 1520275938524}, {"current_trial": 25, "trialdata": {"rt": -1, "trial_type": "single-stim", "word": "barrel", "stimulus": "<p id=\"stim\">BARREL</p>", "conditions": [18, 1200, "v", 18000], "internal_node_id": "0.0-16.0", "trial": 0, "time_elapsed": 140156, "serialpos": 4, "key_press": -1, "wordID": 90, "type": "PRES_VIS", "trial_index": 25}, "uniqueid": "MTK3245:3FUI0JHJPY5WEOJ6B8Z60RGJGBJ338", "dateTime": 1520275940607}, {"current_trial": 26, "trialdata": {"rt": -1, "trial_type": "single-stim", "word": "monster", "stimulus": "<p id=\"stim\">MONSTER</p>", "conditions": [18, 1200, "v", 18000], "internal_node_id": "0.0-17.0", "trial": 0, "time_elapsed": 142188, "serialpos": 5, "key_press": -1, "wordID": 911, "type": "PRES_VIS", "trial_index": 26}, "uniqueid": "MTK3245:3FUI0JHJPY5WEOJ6B8Z60RGJGBJ338", "dateTime": 1520275942640}, {"current_trial": 27, "trialdata": {"rt": -1, "trial_type": "single-stim", "word": "salmon", "stimulus": "<p id=\"stim\">SALMON</p>", "conditions": [18, 1200, "v", 18000], "internal_node_id": "0.0-18.0", "trial": 0, "time_elapsed": 144506, "serialpos": 6, "key_press": -1, "wordID": 1226, "type": "PRES_VIS", "trial_index": 27}, "uniqueid": "MTK3245:3FUI0JHJPY5WEOJ6B8Z60RGJGBJ338", "dateTime": 1520275944957}, {"current_trial": 28, "trialdata": {"rt": -1, "trial_type": "single-stim", "word": "shoulder", "stimulus": "<p id=\"stim\">SHOULDER</p>", "conditions": [18, 1200, "v", 18000], "internal_node_id": "0.0-19.0", "trial": 0, "time_elapsed": 146673, "serialpos": 7, "key_press": -1, "wordID": 1293, "type": "PRES_VIS", "trial_index": 28}, "uniqueid": "MTK3245:3FUI0JHJPY5WEOJ6B8Z60RGJGBJ338", "dateTime": 1520275947124}, {"current_trial": 29, "trialdata": {"rt": -1, "trial_type": "single-stim", "word": "human", "stimulus": "<p id=\"stim\">HUMAN</p>", "conditions": [18, 1200, "v", 18000], "internal_node_id": "0.0-20.0", "trial": 0, "time_elapsed": 148952, "serialpos": 8, "key_press": -1, "wordID": 725, "type": "PRES_VIS", "trial_index": 29}, "uniqueid": "MTK3245:3FUI0JHJPY5WEOJ6B8Z60RGJGBJ338", "dateTime": 1520275949403}, {"current_trial": 30, "trialdata": {"rt": -1, "trial_type": "single-stim", "word": "lace", "stimulus": "<p id=\"stim\">LACE</p>", "conditions": [18, 1200, "v", 18000], "internal_node_id": "0.0-21.0", "trial": 0, "time_elapsed": 151288, "serialpos": 9, "key_press": -1, "wordID": 791, "type": "PRES_VIS", "trial_index": 30}, "uniqueid": "MTK3245:3FUI0JHJPY5WEOJ6B8Z60RGJGBJ338", "dateTime": 1520275951739}, {"current_trial": 31, "trialdata": {"rt": -1, "trial_type": "single-stim", "word": "outlaw", "stimulus": "<p id=\"stim\">OUTLAW</p>", "conditions": [18, 1200, "v", 18000], "internal_node_id": "0.0-22.0", "trial": 0, "time_elapsed": 153539, "serialpos": 10, "key_press": -1, "wordID": 988, "type": "PRES_VIS", "trial_index": 31}, "uniqueid": "MTK3245:3FUI0JHJPY5WEOJ6B8Z60RGJGBJ338", "dateTime": 1520275953990}, {"current_trial": 32, "trialdata": {"rt": -1, "trial_type": "single-stim", "word": "cod", "stimulus": "<p id=\"stim\">COD</p>", "conditions": [18, 1200, "v", 18000], "internal_node_id": "0.0-23.0", "trial": 0, "time_elapsed": 155938, "serialpos": 11, "key_press": -1, "wordID": 339, "type": "PRES_VIS", "trial_index": 32}, "uniqueid": "MTK3245:3FUI0JHJPY5WEOJ6B8Z60RGJGBJ338", "dateTime": 1520275956389}, {"current_trial": 33, "trialdata": {"rt": -1, "trial_type": "single-stim", "word": "viking", "stimulus": "<p id=\"stim\">VIKING</p>", "conditions": [18, 1200, "v", 18000], "internal_node_id": "0.0-24.0", "trial": 0, "time_elapsed": 158239, "serialpos": 12, "key_press": -1, "wordID": 1564, "type": "PRES_VIS", "trial_index": 33}, "uniqueid": "MTK3245:3FUI0JHJPY5WEOJ6B8Z60RGJGBJ338", "dateTime": 1520275958690}, {"current_trial": 34, "trialdata": {"rt": -1, "trial_type": "single-stim", "word": "clamp", "stimulus": "<p id=\"stim\">CLAMP</p>", "conditions": [18, 1200, "v", 18000], "internal_node_id": "0.0-25.0", "trial": 0, "time_elapsed": 160304, "serialpos": 13, "key_press": -1, "wordID": 315, "type": "PRES_VIS", "trial_index": 34}, "uniqueid": "MTK3245:3FUI0JHJPY5WEOJ6B8Z60RGJGBJ338", "dateTime": 1520275960755}, {"current_trial": 35, "trialdata": {"rt": -1, "trial_type": "single-stim", "word": "rooster", "stimulus": "<p id=\"stim\">ROOSTER</p>", "conditions": [18, 1200, "v", 18000], "internal_node_id": "0.0-26.0", "trial": 0, "time_elapsed": 162700, "serialpos": 14, "key_press": -1, "wordID": 1208, "type": "PRES_VIS", "trial_index": 35}, "uniqueid": "MTK3245:3FUI0JHJPY5WEOJ6B8Z60RGJGBJ338", "dateTime": 1520275963152}, {"current_trial": 36, "trialdata": {"rt": -1, "trial_type": "single-stim", "word": "glove", "stimulus": "<p id=\"stim\">GLOVE</p>", "conditions": [18, 1200, "v", 18000], "internal_node_id": "0.0-27.0", "trial": 0, "time_elapsed": 165069, "serialpos": 15, "key_press": -1, "wordID": 641, "type": "PRES_VIS", "trial_index": 36}, "uniqueid": "MTK3245:3FUI0JHJPY5WEOJ6B8Z60RGJGBJ338", "dateTime": 1520275965520}, {"current_trial": 37, "trialdata": {"rt": -1, "trial_type": "single-stim", "word": "hornet", "stimulus": "<p id=\"stim\">HORNET</p>", "conditions": [18, 1200, "v", 18000], "internal_node_id": "0.0-28.0", "trial": 0, "time_elapsed": 167202, "serialpos": 16, "key_press": -1, "wordID": 717, "type": "PRES_VIS", "trial_index": 37}, "uniqueid": "MTK3245:3FUI0JHJPY5WEOJ6B8Z60RGJGBJ338", "dateTime": 1520275967654}, {"current_trial": 38, "trialdata": {"rt": -1, "trial_type": "single-stim", "word": "padding", "stimulus": "<p id=\"stim\">PADDING</p>", "conditions": [18, 1200, "v", 18000], "internal_node_id": "0.0-29.0", "trial": 0, "time_elapsed": 169437, "serialpos": 17, "key_press": -1, "wordID": 998, "type": "PRES_VIS", "trial_index": 38}, "uniqueid": "MTK3245:3FUI0JHJPY5WEOJ6B8Z60RGJGBJ338", "dateTime": 1520275969888}, {"current_trial": 39, "trialdata": {"rt": -1, "trial_type": "single-stim", "stimulus": "", "internal_node_id": "0.0-30.0-0.0", "time_elapsed": 171681, "key_press": -1, "type": "PRE_RECALL_DELAY", "trial_index": 39}, "uniqueid": "MTK3245:3FUI0JHJPY5WEOJ6B8Z60RGJGBJ338", "dateTime": 1520275972132}, {"current_trial": 40, "trialdata": {"rt": -1000, "trial_type": "single-audio", "stimulus": "/static/audio/400Hz.wav", "internal_node_id": "0.0-31.0", "time_elapsed": 172200, "key_press": -1, "type": "PRE_RECALL_ALERT", "trial_index": 40}, "uniqueid": "MTK3245:3FUI0JHJPY5WEOJ6B8Z60RGJGBJ338", "dateTime": 1520275972651}, {"current_trial": 41, "trialdata": {"rt": [5930, 8047, 9719, 11207, 12880, 14882, 17353, 20625, 24047, 25771, 27563, 43093, 54397], "recwords": ["cupboard", "leopard", "glass", "salmon", "human", "viking", "lodge", "cod", "outlaw", "barrel", "badge", "glass", ""], "key_times": [2127, 2235, 4169, 4367, 4487, 4777, 4991, 5253, 5930, 6698, 6969, 7094, 7298, 7453, 7557, 7832, 8047, 8826, 8946, 9090, 9340, 9520, 9719, 10123, 10278, 10368, 10554, 10742, 10844, 11207, 11826, 11941, 12171, 12321, 12430, 12880, 13639, 13818, 14044, 14242, 14333, 14482, 14882, 15506, 15736, 15840, 16240, 16699, 16879, 17000, 17353, 18017, 18221, 18406, 20625, 22920, 23034, 23259, 23424, 23581, 23714, 24047, 24651, 24797, 24918, 25147, 25241, 25380, 25771, 26475, 26624, 26763, 27030, 27332, 27563, 40902, 41071, 41171, 41406, 41925, 43093, 54397], "trial_type": "free-recall", "conditions": [18, 1200, "v", 18000], "internal_node_id": "0.0-32.0-0.0", "key_presses": [67, 85, 80, 66, 79, 65, 82, 68, 13, 76, 69, 79, 80, 65, 82, 68, 13, 71, 76, 65, 83, 83, 13, 83, 65, 76, 77, 79, 78, 13, 72, 85, 77, 65, 78, 13, 86, 73, 75, 73, 78, 71, 13, 76, 79, 68, 69, 8, 71, 69, 13, 67, 79, 68, 13, 79, 85, 84, 76, 65, 87, 13, 66, 65, 82, 82, 69, 76, 13, 66, 65, 68, 71, 69, 13, 71, 76, 65, 83, 83, 13, 13], "trial": 0, "time_elapsed": 232212, "type": "FREE_RECALL", "trial_index": 41}, "uniqueid": "MTK3245:3FUI0JHJPY5WEOJ6B8Z60RGJGBJ338", "dateTime": 1520276032666}, {"current_trial": 42, "trialdata": {"rt": 2213, "trial_type": "text", "internal_node_id": "0.0-33.0", "time_elapsed": 236440, "key_press": 13, "type": "INSTRUCTIONS", "trial_index": 42}, "uniqueid": "MTK3245:3FUI0JHJPY5WEOJ6B8Z60RGJGBJ338", "dateTime": 1520276036891}, {"current_trial": 43, "trialdata": {"rt": [3337, 6743, 10018, 12314, 15085, 17843], "trial_type": "math-distractor", "key_times": [2130, 2758, 3337, 5420, 5524, 6743, 9564, 9768, 10018, 11851, 12055, 12314, 14492, 14786, 15085, 16613, 16757, 17843], "responses": ["13", "15", "14", "14", "19", "15"], "num2": [3, 4, 1, 2, 6, 5, 7], "num3": [1, 9, 9, 8, 8, 2, 2], "conditions": [18, 1200, "v", 18000], "internal_node_id": "0.0-34.0", "key_presses": [97, 99, 13, 97, 101, 13, 97, 100, 13, 97, 100, 13, 97, 105, 13, 97, 101, 13], "trial": 1, "time_elapsed": 256456, "type": "DISTRACTOR", "trial_index": 43, "num1": [9, 1, 4, 4, 5, 8, 9]}, "uniqueid": "MTK3245:3FUI0JHJPY5WEOJ6B8Z60RGJGBJ338", "dateTime": 1520276056907}, {"current_trial": 44, "trialdata": {"rt": -1, "trial_type": "single-stim", "stimulus": "<p id=\"stim\">10</p>", "internal_node_id": "0.0-35.0-0.0", "time_elapsed": 259473, "key_press": -1, "trial_index": 44}, "uniqueid": "MTK3245:3FUI0JHJPY5WEOJ6B8Z60RGJGBJ338", "dateTime": 1520276059924}, {"current_trial": 45, "trialdata": {"rt": -1, "trial_type": "single-stim", "stimulus": "<p id=\"stim\">9</p>", "internal_node_id": "0.0-35.0-1.0", "time_elapsed": 260474, "key_press": -1, "trial_index": 45}, "uniqueid": "MTK3245:3FUI0JHJPY5WEOJ6B8Z60RGJGBJ338", "dateTime": 1520276060925}, {"current_trial": 46, "trialdata": {"rt": -1, "trial_type": "single-stim", "stimulus": "<p id=\"stim\">8</p>", "internal_node_id": "0.0-35.0-2.0", "time_elapsed": 261479, "key_press": -1, "trial_index": 46}, "uniqueid": "MTK3245:3FUI0JHJPY5WEOJ6B8Z60RGJGBJ338", "dateTime": 1520276061930}, {"current_trial": 47, "trialdata": {"rt": -1, "trial_type": "single-stim", "stimulus": "<p id=\"stim\">7</p>", "internal_node_id": "0.0-35.0-3.0", "time_elapsed": 262479, "key_press": -1, "trial_index": 47}, "uniqueid": "MTK3245:3FUI0JHJPY5WEOJ6B8Z60RGJGBJ338", "dateTime": 1520276062930}, {"current_trial": 48, "trialdata": {"rt": -1, "trial_type": "single-stim", "stimulus": "<p id=\"stim\">6</p>", "internal_node_id": "0.0-35.0-4.0", "time_elapsed": 263482, "key_press": -1, "trial_index": 48}, "uniqueid": "MTK3245:3FUI0JHJPY5WEOJ6B8Z60RGJGBJ338", "dateTime": 1520276063933}, {"current_trial": 49, "trialdata": {"rt": -1, "trial_type": "single-stim", "stimulus": "<p id=\"stim\">5</p>", "internal_node_id": "0.0-35.0-5.0", "time_elapsed": 264473, "key_press": -1, "trial_index": 49}, "uniqueid": "MTK3245:3FUI0JHJPY5WEOJ6B8Z60RGJGBJ338", "dateTime": 1520276064924}, {"current_trial": 50, "trialdata": {"rt": -1, "trial_type": "single-stim", "stimulus": "<p id=\"stim\">4</p>", "internal_node_id": "0.0-35.0-6.0", "time_elapsed": 265474, "key_press": -1, "trial_index": 50}, "uniqueid": "MTK3245:3FUI0JHJPY5WEOJ6B8Z60RGJGBJ338", "dateTime": 1520276065925}, {"current_trial": 51, "trialdata": {"rt": -1, "trial_type": "single-stim", "stimulus": "<p id=\"stim\">3</p>", "internal_node_id": "0.0-35.0-7.0", "time_elapsed": 266472, "key_press": -1, "trial_index": 51}, "uniqueid": "MTK3245:3FUI0JHJPY5WEOJ6B8Z60RGJGBJ338", "dateTime": 1520276066923}, {"current_trial": 52, "trialdata": {"rt": -1, "trial_type": "single-stim", "stimulus": "<p id=\"stim\">2</p>", "internal_node_id": "0.0-35.0-8.0", "time_elapsed": 267488, "key_press": -1, "trial_index": 52}, "uniqueid": "MTK3245:3FUI0JHJPY5WEOJ6B8Z60RGJGBJ338", "dateTime": 1520276067939}, {"current_trial": 53, "trialdata": {"rt": -1, "trial_type": "single-stim", "stimulus": "<p id=\"stim\">1</p>", "internal_node_id": "0.0-35.0-9.0", "time_elapsed": 268487, "key_press": -1, "trial_index": 53}, "uniqueid": "MTK3245:3FUI0JHJPY5WEOJ6B8Z60RGJGBJ338", "dateTime": 1520276068938}, {"current_trial": 54, "trialdata": {"rt": -1, "trial_type": "single-stim", "stimulus": "<p id=\"stim\">+</p>", "internal_node_id": "0.0-36.0-0.0", "time_elapsed": 270003, "key_press": -1, "type": "FIXATION", "trial_index": 54}, "uniqueid": "MTK3245:3FUI0JHJPY5WEOJ6B8Z60RGJGBJ338", "dateTime": 1520276070454}, {"current_trial": 55, "trialdata": {"rt": -1, "trial_type": "single-stim", "word": "skillet", "stimulus": "<p id=\"stim\">SKILLET</p>", "conditions": [18, 1200, "v", 18000], "internal_node_id": "0.0-37.0", "trial": 1, "time_elapsed": 271221, "serialpos": 0, "key_press": -1, "wordID": 1316, "type": "PRES_VIS", "trial_index": 55}, "uniqueid": "MTK3245:3FUI0JHJPY5WEOJ6B8Z60RGJGBJ338", "dateTime": 1520276071672}, {"current_trial": 56, "trialdata": {"rt": -1, "trial_type": "single-stim", "word": "police", "stimulus": "<p id=\"stim\">POLICE</p>", "conditions": [18, 1200, "v", 18000], "internal_node_id": "0.0-38.0", "trial": 1, "time_elapsed": 273337, "serialpos": 1, "key_press": -1, "wordID": 1097, "type": "PRES_VIS", "trial_index": 56}, "uniqueid": "MTK3245:3FUI0JHJPY5WEOJ6B8Z60RGJGBJ338", "dateTime": 1520276073788}, {"current_trial": 57, "trialdata": {"rt": -1, "trial_type": "single-stim", "word": "suspect", "stimulus": "<p id=\"stim\">SUSPECT</p>", "conditions": [18, 1200, "v", 18000], "internal_node_id": "0.0-39.0", "trial": 1, "time_elapsed": 275481, "serialpos": 2, "key_press": -1, "wordID": 1414, "type": "PRES_VIS", "trial_index": 57}, "uniqueid": "MTK3245:3FUI0JHJPY5WEOJ6B8Z60RGJGBJ338", "dateTime": 1520276075932}, {"current_trial": 58, "trialdata": {"rt": -1, "trial_type": "single-stim", "word": "nightgown", "stimulus": "<p id=\"stim\">NIGHTGOWN</p>", "conditions": [18, 1200, "v", 18000], "internal_node_id": "0.0-40.0", "trial": 1, "time_elapsed": 277672, "serialpos": 3, "key_press": -1, "wordID": 952, "type": "PRES_VIS", "trial_index": 58}, "uniqueid": "MTK3245:3FUI0JHJPY5WEOJ6B8Z60RGJGBJ338", "dateTime": 1520276078124}, {"current_trial": 59, "trialdata": {"rt": -1, "trial_type": "single-stim", "word": "pecan", "stimulus": "<p id=\"stim\">PECAN</p>", "conditions": [18, 1200, "v", 18000], "internal_node_id": "0.0-41.0", "trial": 1, "time_elapsed": 279727, "serialpos": 4, "key_press": -1, "wordID": 1035, "type": "PRES_VIS", "trial_index": 59}, "uniqueid": "MTK3245:3FUI0JHJPY5WEOJ6B8Z60RGJGBJ338", "dateTime": 1520276080179}, {"current_trial": 60, "trialdata": {"rt": -1, "trial_type": "single-stim", "word": "mattress", "stimulus": "<p id=\"stim\">MATTRESS</p>", "conditions": [18, 1200, "v", 18000], "internal_node_id": "0.0-42.0", "trial": 1, "time_elapsed": 282107, "serialpos": 5, "key_press": -1, "wordID": 878, "type": "PRES_VIS", "trial_index": 60}, "uniqueid": "MTK3245:3FUI0JHJPY5WEOJ6B8Z60RGJGBJ338", "dateTime": 1520276082558}, {"current_trial": 61, "trialdata": {"rt": -1, "trial_type": "single-stim", "word": "stomach", "stimulus": "<p id=\"stim\">STOMACH</p>", "conditions": [18, 1200, "v", 18000], "internal_node_id": "0.0-43.0", "trial": 1, "time_elapsed": 284324, "serialpos": 6, "key_press": -1, "wordID": 1383, "type": "PRES_VIS", "trial_index": 61}, "uniqueid": "MTK3245:3FUI0JHJPY5WEOJ6B8Z60RGJGBJ338", "dateTime": 1520276084775}, {"current_trial": 62, "trialdata": {"rt": -1, "trial_type": "single-stim", "word": "brook", "stimulus": "<p id=\"stim\">BROOK</p>", "conditions": [18, 1200, "v", 18000], "internal_node_id": "0.0-44.0", "trial": 1, "time_elapsed": 286459, "serialpos": 7, "key_press": -1, "wordID": 176, "type": "PRES_VIS", "trial_index": 62}, "uniqueid": "MTK3245:3FUI0JHJPY5WEOJ6B8Z60RGJGBJ338", "dateTime": 1520276086910}, {"current_trial": 63, "trialdata": {"rt": -1, "trial_type": "single-stim", "word": "window", "stimulus": "<p id=\"stim\">WINDOW</p>", "conditions": [18, 1200, "v", 18000], "internal_node_id": "0.0-45.0", "trial": 1, "time_elapsed": 288770, "serialpos": 8, "key_press": -1, "wordID": 1610, "type": "PRES_VIS", "trial_index": 63}, "uniqueid": "MTK3245:3FUI0JHJPY5WEOJ6B8Z60RGJGBJ338", "dateTime": 1520276089222}, {"current_trial": 64, "trialdata": {"rt": -1, "trial_type": "single-stim", "word": "coffee", "stimulus": "<p id=\"stim\">COFFEE</p>", "conditions": [18, 1200, "v", 18000], "internal_node_id": "0.0-46.0", "trial": 1, "time_elapsed": 290969, "serialpos": 9, "key_press": -1, "wordID": 340, "type": "PRES_VIS", "trial_index": 64}, "uniqueid": "MTK3245:3FUI0JHJPY5WEOJ6B8Z60RGJGBJ338", "dateTime": 1520276091420}, {"current_trial": 65, "trialdata": {"rt": -1, "trial_type": "single-stim", "word": "camel", "stimulus": "<p id=\"stim\">CAMEL</p>", "conditions": [18, 1200, "v", 18000], "internal_node_id": "0.0-47.0", "trial": 1, "time_elapsed": 293173, "serialpos": 10, "key_press": -1, "wordID": 222, "type": "PRES_VIS", "trial_index": 65}, "uniqueid": "MTK3245:3FUI0JHJPY5WEOJ6B8Z60RGJGBJ338", "dateTime": 1520276093624}, {"current_trial": 66, "trialdata": {"rt": -1, "trial_type": "single-stim", "word": "tombstone", "stimulus": "<p id=\"stim\">TOMBSTONE</p>", "conditions": [18, 1200, "v", 18000], "internal_node_id": "0.0-48.0", "trial": 1, "time_elapsed": 295584, "serialpos": 11, "key_press": -1, "wordID": 1477, "type": "PRES_VIS", "trial_index": 66}, "uniqueid": "MTK3245:3FUI0JHJPY5WEOJ6B8Z60RGJGBJ338", "dateTime": 1520276096035}, {"current_trial": 67, "trialdata": {"rt": -1, "trial_type": "single-stim", "word": "virus", "stimulus": "<p id=\"stim\">VIRUS</p>", "conditions": [18, 1200, "v", 18000], "internal_node_id": "0.0-49.0", "trial": 1, "time_elapsed": 297744, "serialpos": 12, "key_press": -1, "wordID": 1571, "type": "PRES_VIS", "trial_index": 67}, "uniqueid": "MTK3245:3FUI0JHJPY5WEOJ6B8Z60RGJGBJ338", "dateTime": 1520276098195}, {"current_trial": 68, "trialdata": {"rt": -1, "trial_type": "single-stim", "word": "bank", "stimulus": "<p id=\"stim\">BANK</p>", "conditions": [18, 1200, "v", 18000], "internal_node_id": "0.0-50.0", "trial": 1, "time_elapsed": 299903, "serialpos": 13, "key_press": -1, "wordID": 82, "type": "PRES_VIS", "trial_index": 68}, "uniqueid": "MTK3245:3FUI0JHJPY5WEOJ6B8Z60RGJGBJ338", "dateTime": 1520276100354}, {"current_trial": 69, "trialdata": {"rt": -1, "trial_type": "single-stim", "word": "lumber", "stimulus": "<p id=\"stim\">LUMBER</p>", "conditions": [18, 1200, "v", 18000], "internal_node_id": "0.0-51.0", "trial": 1, "time_elapsed": 302121, "serialpos": 14, "key_press": -1, "wordID": 847, "type": "PRES_VIS", "trial_index": 69}, "uniqueid": "MTK3245:3FUI0JHJPY5WEOJ6B8Z60RGJGBJ338", "dateTime": 1520276102573}, {"current_trial": 70, "trialdata": {"rt": -1, "trial_type": "single-stim", "word": "twister", "stimulus": "<p id=\"stim\">TWISTER</p>", "conditions": [18, 1200, "v", 18000], "internal_node_id": "0.0-52.0", "trial": 1, "time_elapsed": 304371, "serialpos": 15, "key_press": -1, "wordID": 1529, "type": "PRES_VIS", "trial_index": 70}, "uniqueid": "MTK3245:3FUI0JHJPY5WEOJ6B8Z60RGJGBJ338", "dateTime": 1520276104822}, {"current_trial": 71, "trialdata": {"rt": -1, "trial_type": "single-stim", "word": "stamp", "stimulus": "<p id=\"stim\">STAMP</p>", "conditions": [18, 1200, "v", 18000], "internal_node_id": "0.0-53.0", "trial": 1, "time_elapsed": 306404, "serialpos": 16, "key_press": -1, "wordID": 1369, "type": "PRES_VIS", "trial_index": 71}, "uniqueid": "MTK3245:3FUI0JHJPY5WEOJ6B8Z60RGJGBJ338", "dateTime": 1520276106855}, {"current_trial": 72, "trialdata": {"rt": -1, "trial_type": "single-stim", "word": "couch", "stimulus": "<p id=\"stim\">COUCH</p>", "conditions": [18, 1200, "v", 18000], "internal_node_id": "0.0-54.0", "trial": 1, "time_elapsed": 308731, "serialpos": 17, "key_press": -1, "wordID": 385, "type": "PRES_VIS", "trial_index": 72}, "uniqueid": "MTK3245:3FUI0JHJPY5WEOJ6B8Z60RGJGBJ338", "dateTime": 1520276109183}, {"current_trial": 73, "trialdata": {"rt": -1, "trial_type": "single-stim", "stimulus": "", "internal_node_id": "0.0-55.0-0.0", "time_elapsed": 310932, "key_press": -1, "type": "PRE_RECALL_DELAY", "trial_index": 73}, "uniqueid": "MTK3245:3FUI0JHJPY5WEOJ6B8Z60RGJGBJ338", "dateTime": 1520276111383}, {"current_trial": 74, "trialdata": {"rt": -1000, "trial_type": "single-audio", "stimulus": "/static/audio/400Hz.wav", "internal_node_id": "0.0-56.0", "time_elapsed": 311432, "key_press": -1, "type": "PRE_RECALL_ALERT", "trial_index": 74}, "uniqueid": "MTK3245:3FUI0JHJPY5WEOJ6B8Z60RGJGBJ338", "dateTime": 1520276111884}, {"current_trial": 75, "trialdata": {"rt": [3392, 5054, 8455, 11190, 13267, 14520, 18789, 25434], "recwords": ["skillet", "pecan", "police", "nightgown", "twister", "couch", "lumber", "couch"], "key_times": [1819, 2174, 2418, 2677, 2853, 2942, 3127, 3392, 4117, 4210, 4455, 4545, 4705, 5054, 6423, 6527, 6737, 6977, 7186, 7311, 8455, 9125, 9183, 9425, 9567, 9712, 10207, 10336, 10517, 10727, 11190, 11579, 11724, 12488, 12598, 12803, 13058, 13167, 13267, 13711, 13811, 13936, 14090, 14195, 14520, 14984, 15538, 15813, 16927, 17106, 17216, 18789, 24664, 24789, 24869, 25049, 25129, 25434], "trial_type": "free-recall", "conditions": [18, 1200, "v", 18000], "internal_node_id": "0.0-57.0-0.0", "key_presses": [83, 75, 73, 76, 76, 69, 84, 13, 80, 69, 67, 65, 78, 13, 80, 79, 76, 73, 67, 69, 13, 78, 73, 71, 72, 84, 71, 79, 87, 78, 13, 84, 87, 73, 83, 84, 69, 82, 13, 67, 79, 85, 67, 72, 13, 76, 85, 77, 66, 69, 82, 13, 67, 79, 85, 67, 72, 13], "trial": 1, "time_elapsed": 371448, "type": "FREE_RECALL", "trial_index": 75}, "uniqueid": "MTK3245:3FUI0JHJPY5WEOJ6B8Z60RGJGBJ338", "dateTime": 1520276171901}, {"current_trial": 76, "trialdata": {"rt": 33290, "trial_type": "text", "internal_node_id": "0.0-58.0", "time_elapsed": 406749, "key_press": 32, "type": "INSTRUCTIONS", "trial_index": 76}, "uniqueid": "MTK3245:3FUI0JHJPY5WEOJ6B8Z60RGJGBJ338", "dateTime": 1520276207200}, {"current_trial": 77, "trialdata": {"rt": [2888, 4550, 6982, 9399, 11256, 13463, 15605, 17657, 19539, 21421, 23079], "trial_type": "math-distractor", "key_times": [2304, 2629, 2888, 4147, 4297, 4550, 6379, 6618, 6982, 8965, 9153, 9399, 10747, 10982, 11256, 12933, 13198, 13463, 15132, 15360, 15605, 17178, 17358, 17657, 19106, 19320, 19539, 20992, 21172, 21421, 22834, 23079], "responses": ["17", "11", "19", "14", "10", "18", "16", "12", "16", "12", "9"], "num2": [7, 7, 7, 2, 1, 4, 2, 5, 1, 1, 2, 9], "num3": [1, 1, 9, 6, 5, 7, 9, 4, 9, 4, 5, 9], "conditions": [24, 800, "v", 24000], "internal_node_id": "0.0-59.0", "key_presses": [97, 103, 13, 97, 97, 13, 97, 105, 13, 97, 100, 13, 97, 96, 13, 97, 104, 13, 97, 102, 13, 97, 98, 13, 97, 102, 13, 97, 98, 13, 105, 13], "trial": 2, "time_elapsed": 431775, "type": "DISTRACTOR", "trial_index": 77, "num1": [9, 3, 3, 6, 4, 7, 5, 3, 6, 4, 2, 5]}, "uniqueid": "MTK3245:3FUI0JHJPY5WEOJ6B8Z60RGJGBJ338", "dateTime": 1520276232226}, {"current_trial": 78, "trialdata": {"rt": -1, "trial_type": "single-stim", "stimulus": "<p id=\"stim\">10</p>", "internal_node_id": "0.0-60.0-0.0", "time_elapsed": 434787, "key_press": -1, "trial_index": 78}, "uniqueid": "MTK3245:3FUI0JHJPY5WEOJ6B8Z60RGJGBJ338", "dateTime": 1520276235238}, {"current_trial": 79, "trialdata": {"rt": -1, "trial_type": "single-stim", "stimulus": "<p id=\"stim\">9</p>", "internal_node_id": "0.0-60.0-1.0", "time_elapsed": 435802, "key_press": -1, "trial_index": 79}, "uniqueid": "MTK3245:3FUI0JHJPY5WEOJ6B8Z60RGJGBJ338", "dateTime": 1520276236253}, {"current_trial": 80, "trialdata": {"rt": -1, "trial_type": "single-stim", "stimulus": "<p id=\"stim\">8</p>", "internal_node_id": "0.0-60.0-2.0", "time_elapsed": 436801, "key_press": -1, "trial_index": 80}, "uniqueid": "MTK3245:3FUI0JHJPY5WEOJ6B8Z60RGJGBJ338", "dateTime": 1520276237252}, {"current_trial": 81, "trialdata": {"rt": -1, "trial_type": "single-stim", "stimulus": "<p id=\"stim\">7</p>", "internal_node_id": "0.0-60.0-3.0", "time_elapsed": 437800, "key_press": -1, "trial_index": 81}, "uniqueid": "MTK3245:3FUI0JHJPY5WEOJ6B8Z60RGJGBJ338", "dateTime": 1520276238251}, {"current_trial": 82, "trialdata": {"rt": -1, "trial_type": "single-stim", "stimulus": "<p id=\"stim\">6</p>", "internal_node_id": "0.0-60.0-4.0", "time_elapsed": 438800, "key_press": -1, "trial_index": 82}, "uniqueid": "MTK3245:3FUI0JHJPY5WEOJ6B8Z60RGJGBJ338", "dateTime": 1520276239251}, {"current_trial": 83, "trialdata": {"rt": -1, "trial_type": "single-stim", "stimulus": "<p id=\"stim\">5</p>", "internal_node_id": "0.0-60.0-5.0", "time_elapsed": 439800, "key_press": -1, "trial_index": 83}, "uniqueid": "MTK3245:3FUI0JHJPY5WEOJ6B8Z60RGJGBJ338", "dateTime": 1520276240251}, {"current_trial": 84, "trialdata": {"rt": -1, "trial_type": "single-stim", "stimulus": "<p id=\"stim\">4</p>", "internal_node_id": "0.0-60.0-6.0", "time_elapsed": 440790, "key_press": -1, "trial_index": 84}, "uniqueid": "MTK3245:3FUI0JHJPY5WEOJ6B8Z60RGJGBJ338", "dateTime": 1520276241241}, {"current_trial": 85, "trialdata": {"rt": -1, "trial_type": "single-stim", "stimulus": "<p id=\"stim\">3</p>", "internal_node_id": "0.0-60.0-7.0", "time_elapsed": 441793, "key_press": -1, "trial_index": 85}, "uniqueid": "MTK3245:3FUI0JHJPY5WEOJ6B8Z60RGJGBJ338", "dateTime": 1520276242244}, {"current_trial": 86, "trialdata": {"rt": -1, "trial_type": "single-stim", "stimulus": "<p id=\"stim\">2</p>", "internal_node_id": "0.0-60.0-8.0", "time_elapsed": 442795, "key_press": -1, "trial_index": 86}, "uniqueid": "MTK3245:3FUI0JHJPY5WEOJ6B8Z60RGJGBJ338", "dateTime": 1520276243246}, {"current_trial": 87, "trialdata": {"rt": -1, "trial_type": "single-stim", "stimulus": "<p id=\"stim\">1</p>", "internal_node_id": "0.0-60.0-9.0", "time_elapsed": 443802, "key_press": -1, "trial_index": 87}, "uniqueid": "MTK3245:3FUI0JHJPY5WEOJ6B8Z60RGJGBJ338", "dateTime": 1520276244253}, {"current_trial": 88, "trialdata": {"rt": -1, "trial_type": "single-stim", "stimulus": "<p id=\"stim\">+</p>", "internal_node_id": "0.0-61.0-0.0", "time_elapsed": 445314, "key_press": -1, "type": "FIXATION", "trial_index": 88}, "uniqueid": "MTK3245:3FUI0JHJPY5WEOJ6B8Z60RGJGBJ338", "dateTime": 1520276245765}, {"current_trial": 89, "trialdata": {"rt": -1, "trial_type": "single-stim", "word": "crib", "stimulus": "<p id=\"stim\">CRIB</p>", "conditions": [24, 800, "v", 24000], "internal_node_id": "0.0-62.0", "trial": 2, "time_elapsed": 446128, "serialpos": 0, "key_press": -1, "wordID": 406, "type": "PRES_VIS", "trial_index": 89}, "uniqueid": "MTK3245:3FUI0JHJPY5WEOJ6B8Z60RGJGBJ338", "dateTime": 1520276246579}, {"current_trial": 90, "trialdata": {"rt": -1, "trial_type": "single-stim", "word": "jello", "stimulus": "<p id=\"stim\">JELLO</p>", "conditions": [24, 800, "v", 24000], "internal_node_id": "0.0-63.0", "trial": 2, "time_elapsed": 447906, "serialpos": 1, "key_press": -1, "wordID": 753, "type": "PRES_VIS", "trial_index": 90}, "uniqueid": "MTK3245:3FUI0JHJPY5WEOJ6B8Z60RGJGBJ338", "dateTime": 1520276248357}, {"current_trial": 91, "trialdata": {"rt": -1, "trial_type": "single-stim", "word": "victim", "stimulus": "<p id=\"stim\">VICTIM</p>", "conditions": [24, 800, "v", 24000], "internal_node_id": "0.0-64.0", "trial": 2, "time_elapsed": 449603, "serialpos": 2, "key_press": -1, "wordID": 1561, "type": "PRES_VIS", "trial_index": 91}, "uniqueid": "MTK3245:3FUI0JHJPY5WEOJ6B8Z60RGJGBJ338", "dateTime": 1520276250054}, {"current_trial": 92, "trialdata": {"rt": -1, "trial_type": "single-stim", "word": "empire", "stimulus": "<p id=\"stim\">EMPIRE</p>", "conditions": [24, 800, "v", 24000], "internal_node_id": "0.0-65.0", "trial": 2, "time_elapsed": 451413, "serialpos": 3, "key_press": -1, "wordID": 529, "type": "PRES_VIS", "trial_index": 92}, "uniqueid": "MTK3245:3FUI0JHJPY5WEOJ6B8Z60RGJGBJ338", "dateTime": 1520276251864}, {"current_trial": 93, "trialdata": {"rt": -1, "trial_type": "single-stim", "word": "bubble", "stimulus": "<p id=\"stim\">BUBBLE</p>", "conditions": [24, 800, "v", 24000], "internal_node_id": "0.0-66.0", "trial": 2, "time_elapsed": 453095, "serialpos": 4, "key_press": -1, "wordID": 182, "type": "PRES_VIS", "trial_index": 93}, "uniqueid": "MTK3245:3FUI0JHJPY5WEOJ6B8Z60RGJGBJ338", "dateTime": 1520276253547}, {"current_trial": 94, "trialdata": {"rt": -1, "trial_type": "single-stim", "word": "scarecrow", "stimulus": "<p id=\"stim\">SCARECROW</p>", "conditions": [24, 800, "v", 24000], "internal_node_id": "0.0-67.0", "trial": 2, "time_elapsed": 454764, "serialpos": 5, "key_press": -1, "wordID": 1244, "type": "PRES_VIS", "trial_index": 94}, "uniqueid": "MTK3245:3FUI0JHJPY5WEOJ6B8Z60RGJGBJ338", "dateTime": 1520276255215}, {"current_trial": 95, "trialdata": {"rt": -1, "trial_type": "single-stim", "word": "market", "stimulus": "<p id=\"stim\">MARKET</p>", "conditions": [24, 800, "v", 24000], "internal_node_id": "0.0-68.0", "trial": 2, "time_elapsed": 456657, "serialpos": 6, "key_press": -1, "wordID": 870, "type": "PRES_VIS", "trial_index": 95}, "uniqueid": "MTK3245:3FUI0JHJPY5WEOJ6B8Z60RGJGBJ338", "dateTime": 1520276257108}, {"current_trial": 96, "trialdata": {"rt": -1, "trial_type": "single-stim", "word": "cousin", "stimulus": "<p id=\"stim\">COUSIN</p>", "conditions": [24, 800, "v", 24000], "internal_node_id": "0.0-69.0", "trial": 2, "time_elapsed": 458664, "serialpos": 7, "key_press": -1, "wordID": 391, "type": "PRES_VIS", "trial_index": 96}, "uniqueid": "MTK3245:3FUI0JHJPY5WEOJ6B8Z60RGJGBJ338", "dateTime": 1520276259115}, {"current_trial": 97, "trialdata": {"rt": -1, "trial_type": "single-stim", "word": "shirt", "stimulus": "<p id=\"stim\">SHIRT</p>", "conditions": [24, 800, "v", 24000], "internal_node_id": "0.0-70.0", "trial": 2, "time_elapsed": 460580, "serialpos": 8, "key_press": -1, "wordID": 1286, "type": "PRES_VIS", "trial_index": 97}, "uniqueid": "MTK3245:3FUI0JHJPY5WEOJ6B8Z60RGJGBJ338", "dateTime": 1520276261032}, {"current_trial": 98, "trialdata": {"rt": -1, "trial_type": "single-stim", "word": "jelly", "stimulus": "<p id=\"stim\">JELLY</p>", "conditions": [24, 800, "v", 24000], "internal_node_id": "0.0-71.0", "trial": 2, "time_elapsed": 462252, "serialpos": 9, "key_press": -1, "wordID": 754, "type": "PRES_VIS", "trial_index": 98}, "uniqueid": "MTK3245:3FUI0JHJPY5WEOJ6B8Z60RGJGBJ338", "dateTime": 1520276262703}, {"current_trial": 99, "trialdata": {"rt": -1, "trial_type": "single-stim", "word": "france", "stimulus": "<p id=\"stim\">FRANCE</p>", "conditions": [24, 800, "v", 24000], "internal_node_id": "0.0-72.0", "trial": 2, "time_elapsed": 464079, "serialpos": 10, "key_press": -1, "wordID": 600, "type": "PRES_VIS", "trial_index": 99}, "uniqueid": "MTK3245:3FUI0JHJPY5WEOJ6B8Z60RGJGBJ338", "dateTime": 1520276264530}, {"current_trial": 100, "trialdata": {"rt": -1, "trial_type": "single-stim", "word": "europe", "stimulus": "<p id=\"stim\">EUROPE</p>", "conditions": [24, 800, "v", 24000], "internal_node_id": "0.0-73.0", "trial": 2, "time_elapsed": 465794, "serialpos": 11, "key_press": -1, "wordID": 540, "type": "PRES_VIS", "trial_index": 100}, "uniqueid": "MTK3245:3FUI0JHJPY5WEOJ6B8Z60RGJGBJ338", "dateTime": 1520276266245}, {"current_trial": 101, "trialdata": {"rt": -1, "trial_type": "single-stim", "word": "foot", "stimulus": "<p id=\"stim\">FOOT</p>", "conditions": [24, 800, "v", 24000], "internal_node_id": "0.0-74.0", "trial": 2, "time_elapsed": 467411, "serialpos": 12, "key_press": -1, "wordID": 589, "type": "PRES_VIS", "trial_index": 101}, "uniqueid": "MTK3245:3FUI0JHJPY5WEOJ6B8Z60RGJGBJ338", "dateTime": 1520276267863}, {"current_trial": 102, "trialdata": {"rt": -1, "trial_type": "single-stim", "word": "ground", "stimulus": "<p id=\"stim\">GROUND</p>", "conditions": [24, 800, "v", 24000], "internal_node_id": "0.0-75.0", "trial": 2, "time_elapsed": 469120, "serialpos": 13, "key_press": -1, "wordID": 665, "type": "PRES_VIS", "trial_index": 102}, "uniqueid": "MTK3245:3FUI0JHJPY5WEOJ6B8Z60RGJGBJ338", "dateTime": 1520276269571}, {"current_trial": 103, "trialdata": {"rt": -1, "trial_type": "single-stim", "word": "garden", "stimulus": "<p id=\"stim\">GARDEN</p>", "conditions": [24, 800, "v", 24000], "internal_node_id": "0.0-76.0", "trial": 2, "time_elapsed": 471007, "serialpos": 14, "key_press": -1, "wordID": 622, "type": "PRES_VIS", "trial_index": 103}, "uniqueid": "MTK3245:3FUI0JHJPY5WEOJ6B8Z60RGJGBJ338", "dateTime": 1520276271459}, {"current_trial": 104, "trialdata": {"rt": -1, "trial_type": "single-stim", "word": "orchid", "stimulus": "<p id=\"stim\">ORCHID</p>", "conditions": [24, 800, "v", 24000], "internal_node_id": "0.0-77.0", "trial": 2, "time_elapsed": 472934, "serialpos": 15, "key_press": -1, "wordID": 981, "type": "PRES_VIS", "trial_index": 104}, "uniqueid": "MTK3245:3FUI0JHJPY5WEOJ6B8Z60RGJGBJ338", "dateTime": 1520276273385}, {"current_trial": 105, "trialdata": {"rt": -1, "trial_type": "single-stim", "word": "missile", "stimulus": "<p id=\"stim\">MISSILE</p>", "conditions": [24, 800, "v", 24000], "internal_node_id": "0.0-78.0", "trial": 2, "time_elapsed": 474761, "serialpos": 16, "key_press": -1, "wordID": 899, "type": "PRES_VIS", "trial_index": 105}, "uniqueid": "MTK3245:3FUI0JHJPY5WEOJ6B8Z60RGJGBJ338", "dateTime": 1520276275212}, {"current_trial": 106, "trialdata": {"rt": -1, "trial_type": "single-stim", "word": "butcher", "stimulus": "<p id=\"stim\">BUTCHER</p>", "conditions": [24, 800, "v", 24000], "internal_node_id": "0.0-79.0", "trial": 2, "time_elapsed": 476649, "serialpos": 17, "key_press": -1, "wordID": 202, "type": "PRES_VIS", "trial_index": 106}, "uniqueid": "MTK3245:3FUI0JHJPY5WEOJ6B8Z60RGJGBJ338", "dateTime": 1520276277100}, {"current_trial": 107, "trialdata": {"rt": -1, "trial_type": "single-stim", "word": "braces", "stimulus": "<p id=\"stim\">BRACES</p>", "conditions": [24, 800, "v", 24000], "internal_node_id": "0.0-80.0", "trial": 2, "time_elapsed": 478356, "serialpos": 18, "key_press": -1, "wordID": 163, "type": "PRES_VIS", "trial_index": 107}, "uniqueid": "MTK3245:3FUI0JHJPY5WEOJ6B8Z60RGJGBJ338", "dateTime": 1520276278807}, {"current_trial": 108, "trialdata": {"rt": -1, "trial_type": "single-stim", "word": "gallon", "stimulus": "<p id=\"stim\">GALLON</p>", "conditions": [24, 800, "v", 24000], "internal_node_id": "0.0-81.0", "trial": 2, "time_elapsed": 480092, "serialpos": 19, "key_press": -1, "wordID": 617, "type": "PRES_VIS", "trial_index": 108}, "uniqueid": "MTK3245:3FUI0JHJPY5WEOJ6B8Z60RGJGBJ338", "dateTime": 1520276280544}, {"current_trial": 109, "trialdata": {"rt": -1, "trial_type": "single-stim", "word": "rocket", "stimulus": "<p id=\"stim\">ROCKET</p>", "conditions": [24, 800, "v", 24000], "internal_node_id": "0.0-82.0", "trial": 2, "time_elapsed": 482007, "serialpos": 20, "key_press": -1, "wordID": 1201, "type": "PRES_VIS", "trial_index": 109}, "uniqueid": "MTK3245:3FUI0JHJPY5WEOJ6B8Z60RGJGBJ338", "dateTime": 1520276282458}, {"current_trial": 110, "trialdata": {"rt": -1, "trial_type": "single-stim", "word": "chapel", "stimulus": "<p id=\"stim\">CHAPEL</p>", "conditions": [24, 800, "v", 24000], "internal_node_id": "0.0-83.0", "trial": 2, "time_elapsed": 483740, "serialpos": 21, "key_press": -1, "wordID": 279, "type": "PRES_VIS", "trial_index": 110}, "uniqueid": "MTK3245:3FUI0JHJPY5WEOJ6B8Z60RGJGBJ338", "dateTime": 1520276284192}, {"current_trial": 111, "trialdata": {"rt": -1, "trial_type": "single-stim", "word": "statue", "stimulus": "<p id=\"stim\">STATUE</p>", "conditions": [24, 800, "v", 24000], "internal_node_id": "0.0-84.0", "trial": 2, "time_elapsed": 485511, "serialpos": 22, "key_press": -1, "wordID": 1373, "type": "PRES_VIS", "trial_index": 111}, "uniqueid": "MTK3245:3FUI0JHJPY5WEOJ6B8Z60RGJGBJ338", "dateTime": 1520276285962}, {"current_trial": 112, "trialdata": {"rt": -1, "trial_type": "single-stim", "word": "motel", "stimulus": "<p id=\"stim\">MOTEL</p>", "conditions": [24, 800, "v", 24000], "internal_node_id": "0.0-85.0", "trial": 2, "time_elapsed": 487440, "serialpos": 23, "key_press": -1, "wordID": 918, "type": "PRES_VIS", "trial_index": 112}, "uniqueid": "MTK3245:3FUI0JHJPY5WEOJ6B8Z60RGJGBJ338", "dateTime": 1520276287892}, {"current_trial": 113, "trialdata": {"rt": -1, "trial_type": "single-stim", "stimulus": "", "internal_node_id": "0.0-86.0-0.0", "time_elapsed": 489639, "key_press": -1, "type": "PRE_RECALL_DELAY", "trial_index": 113}, "uniqueid": "MTK3245:3FUI0JHJPY5WEOJ6B8Z60RGJGBJ338", "dateTime": 1520276290090}, {"current_trial": 114, "trialdata": {"rt": -1000, "trial_type": "single-audio", "stimulus": "/static/audio/400Hz.wav", "internal_node_id": "0.0-87.0", "time_elapsed": 490149, "key_press": -1, "type": "PRE_RECALL_ALERT", "trial_index": 114}, "uniqueid": "MTK3245:3FUI0JHJPY5WEOJ6B8Z60RGJGBJ338", "dateTime": 1520276290600}, {"current_trial": 115, "trialdata": {"rt": [3621, 5369, 7424, 9246, 11219, 15492, 17420, 58845], "recwords": ["crib", "cousin", "missile", "butcher", "rocket", "orchid", "market", "foot"], "key_times": [1602, 2257, 2417, 2506, 3621, 4339, 4434, 4488, 4668, 4762, 4893, 5369, 5982, 6046, 6241, 6401, 6505, 6740, 7065, 7424, 8114, 8202, 8407, 8662, 8751, 8942, 9017, 9246, 9885, 10005, 10215, 10329, 10534, 10684, 11219, 14290, 14508, 14833, 14918, 15008, 15148, 15492, 16622, 16755, 16905, 16945, 17130, 17250, 17420, 57063, 57507, 57647, 58322, 58845], "trial_type": "free-recall", "conditions": [24, 800, "v", 24000], "internal_node_id": "0.0-88.0-0.0", "key_presses": [67, 82, 73, 66, 13, 67, 79, 85, 83, 73, 78, 13, 77, 73, 83, 83, 73, 76, 69, 13, 66, 85, 84, 67, 72, 69, 82, 13, 82, 79, 67, 75, 69, 84, 13, 79, 82, 67, 72, 73, 68, 13, 77, 65, 82, 75, 69, 84, 13, 70, 79, 79, 84, 13], "trial": 2, "time_elapsed": 550163, "type": "FREE_RECALL", "trial_index": 115}, "uniqueid": "MTK3245:3FUI0JHJPY5WEOJ6B8Z60RGJGBJ338", "dateTime": 1520276350616}, {"current_trial": 116, "trialdata": {"rt": 5210, "trial_type": "text", "internal_node_id": "0.0-89.0", "time_elapsed": 557380, "key_press": 13, "type": "INSTRUCTIONS", "trial_index": 116}, "uniqueid": "MTK3245:3FUI0JHJPY5WEOJ6B8Z60RGJGBJ338", "dateTime": 1520276357832}, {"current_trial": 117, "trialdata": {"rt": [3120, 5012, 7562, 9651, 11303, 13759, 15413, 18298, 20321, 22243], "trial_type": "math-distractor", "key_times": [2295, 2800, 3120, 4639, 4732, 5012, 6739, 7144, 7562, 9092, 9347, 9651, 11008, 11303, 13271, 13519, 13759, 15033, 15192, 15413, 17570, 17974, 18298, 19756, 20035, 20321, 21669, 21949, 22243, 23978], "responses": ["13", "12", "16", "16", "8", "14", "11", "19", "19", "13"], "num2": [5, 1, 1, 6, 1, 3, 6, 3, 7, 4, 7], "num3": [1, 3, 7, 2, 1, 3, 2, 7, 4, 4, 7], "conditions": [24, 1600, "v", 24000], "internal_node_id": "0.0-90.0", "key_presses": [97, 99, 13, 97, 98, 13, 97, 102, 13, 97, 102, 13, 104, 13, 97, 100, 13, 97, 97, 13, 97, 105, 13, 97, 105, 13, 97, 99, 13, 98], "trial": 3, "time_elapsed": 583399, "type": "DISTRACTOR", "trial_index": 117, "num1": [7, 8, 8, 8, 6, 8, 3, 9, 8, 5, 6]}, "uniqueid": "MTK3245:3FUI0JHJPY5WEOJ6B8Z60RGJGBJ338", "dateTime": 1520276383850}, {"current_trial": 118, "trialdata": {"rt": -1, "trial_type": "single-stim", "stimulus": "<p id=\"stim\">10</p>", "internal_node_id": "0.0-91.0-0.0", "time_elapsed": 586408, "key_press": -1, "trial_index": 118}, "uniqueid": "MTK3245:3FUI0JHJPY5WEOJ6B8Z60RGJGBJ338", "dateTime": 1520276386859}, {"current_trial": 119, "trialdata": {"rt": -1, "trial_type": "single-stim", "stimulus": "<p id=\"stim\">9</p>", "internal_node_id": "0.0-91.0-1.0", "time_elapsed": 587410, "key_press": -1, "trial_index": 119}, "uniqueid": "MTK3245:3FUI0JHJPY5WEOJ6B8Z60RGJGBJ338", "dateTime": 1520276387861}, {"current_trial": 120, "trialdata": {"rt": -1, "trial_type": "single-stim", "stimulus": "<p id=\"stim\">8</p>", "internal_node_id": "0.0-91.0-2.0", "time_elapsed": 588414, "key_press": -1, "trial_index": 120}, "uniqueid": "MTK3245:3FUI0JHJPY5WEOJ6B8Z60RGJGBJ338", "dateTime": 1520276388866}, {"current_trial": 121, "trialdata": {"rt": -1, "trial_type": "single-stim", "stimulus": "<p id=\"stim\">7</p>", "internal_node_id": "0.0-91.0-3.0", "time_elapsed": 589406, "key_press": -1, "trial_index": 121}, "uniqueid": "MTK3245:3FUI0JHJPY5WEOJ6B8Z60RGJGBJ338", "dateTime": 1520276389857}, {"current_trial": 122, "trialdata": {"rt": -1, "trial_type": "single-stim", "stimulus": "<p id=\"stim\">6</p>", "internal_node_id": "0.0-91.0-4.0", "time_elapsed": 590409, "key_press": -1, "trial_index": 122}, "uniqueid": "MTK3245:3FUI0JHJPY5WEOJ6B8Z60RGJGBJ338", "dateTime": 1520276390861}, {"current_trial": 123, "trialdata": {"rt": -1, "trial_type": "single-stim", "stimulus": "<p id=\"stim\">5</p>", "internal_node_id": "0.0-91.0-5.0", "time_elapsed": 591415, "key_press": -1, "trial_index": 123}, "uniqueid": "MTK3245:3FUI0JHJPY5WEOJ6B8Z60RGJGBJ338", "dateTime": 1520276391866}, {"current_trial": 124, "trialdata": {"rt": -1, "trial_type": "single-stim", "stimulus": "<p id=\"stim\">4</p>", "internal_node_id": "0.0-91.0-6.0", "time_elapsed": 592431, "key_press": -1, "trial_index": 124}, "uniqueid": "MTK3245:3FUI0JHJPY5WEOJ6B8Z60RGJGBJ338", "dateTime": 1520276392882}, {"current_trial": 125, "trialdata": {"rt": -1, "trial_type": "single-stim", "stimulus": "<p id=\"stim\">3</p>", "internal_node_id": "0.0-91.0-7.0", "time_elapsed": 593415, "key_press": -1, "trial_index": 125}, "uniqueid": "MTK3245:3FUI0JHJPY5WEOJ6B8Z60RGJGBJ338", "dateTime": 1520276393867}, {"current_trial": 126, "trialdata": {"rt": -1, "trial_type": "single-stim", "stimulus": "<p id=\"stim\">2</p>", "internal_node_id": "0.0-91.0-8.0", "time_elapsed": 594415, "key_press": -1, "trial_index": 126}, "uniqueid": "MTK3245:3FUI0JHJPY5WEOJ6B8Z60RGJGBJ338", "dateTime": 1520276394866}, {"current_trial": 127, "trialdata": {"rt": -1, "trial_type": "single-stim", "stimulus": "<p id=\"stim\">1</p>", "internal_node_id": "0.0-91.0-9.0", "time_elapsed": 595405, "key_press": -1, "trial_index": 127}, "uniqueid": "MTK3245:3FUI0JHJPY5WEOJ6B8Z60RGJGBJ338", "dateTime": 1520276395857}, {"current_trial": 128, "trialdata": {"rt": -1, "trial_type": "single-stim", "stimulus": "<p id=\"stim\">+</p>", "internal_node_id": "0.0-92.0-0.0", "time_elapsed": 596908, "key_press": -1, "type": "FIXATION", "trial_index": 128}, "uniqueid": "MTK3245:3FUI0JHJPY5WEOJ6B8Z60RGJGBJ338", "dateTime": 1520276397359}, {"current_trial": 129, "trialdata": {"rt": -1, "trial_type": "single-stim", "word": "keeper", "stimulus": "<p id=\"stim\">KEEPER</p>", "conditions": [24, 1600, "v", 24000], "internal_node_id": "0.0-93.0", "trial": 3, "time_elapsed": 598523, "serialpos": 0, "key_press": -1, "wordID": 768, "type": "PRES_VIS", "trial_index": 129}, "uniqueid": "MTK3245:3FUI0JHJPY5WEOJ6B8Z60RGJGBJ338", "dateTime": 1520276398975}, {"current_trial": 130, "trialdata": {"rt": -1, "trial_type": "single-stim", "word": "sheriff", "stimulus": "<p id=\"stim\">SHERIFF</p>", "conditions": [24, 1600, "v", 24000], "internal_node_id": "0.0-94.0", "trial": 3, "time_elapsed": 601005, "serialpos": 1, "key_press": -1, "wordID": 1283, "type": "PRES_VIS", "trial_index": 130}, "uniqueid": "MTK3245:3FUI0JHJPY5WEOJ6B8Z60RGJGBJ338", "dateTime": 1520276401457}, {"current_trial": 131, "trialdata": {"rt": -1, "trial_type": "single-stim", "word": "award", "stimulus": "<p id=\"stim\">AWARD</p>", "conditions": [24, 1600, "v", 24000], "internal_node_id": "0.0-95.0", "trial": 3, "time_elapsed": 603506, "serialpos": 2, "key_press": -1, "wordID": 62, "type": "PRES_VIS", "trial_index": 131}, "uniqueid": "MTK3245:3FUI0JHJPY5WEOJ6B8Z60RGJGBJ338", "dateTime": 1520276403958}, {"current_trial": 132, "trialdata": {"rt": -1, "trial_type": "single-stim", "word": "scotch", "stimulus": "<p id=\"stim\">SCOTCH</p>", "conditions": [24, 1600, "v", 24000], "internal_node_id": "0.0-96.0", "trial": 3, "time_elapsed": 605974, "serialpos": 3, "key_press": -1, "wordID": 1250, "type": "PRES_VIS", "trial_index": 132}, "uniqueid": "MTK3245:3FUI0JHJPY5WEOJ6B8Z60RGJGBJ338", "dateTime": 1520276406425}, {"current_trial": 133, "trialdata": {"rt": -1, "trial_type": "single-stim", "word": "brandy", "stimulus": "<p id=\"stim\">BRANDY</p>", "conditions": [24, 1600, "v", 24000], "internal_node_id": "0.0-97.0", "trial": 3, "time_elapsed": 608458, "serialpos": 4, "key_press": -1, "wordID": 168, "type": "PRES_VIS", "trial_index": 133}, "uniqueid": "MTK3245:3FUI0JHJPY5WEOJ6B8Z60RGJGBJ338", "dateTime": 1520276408909}, {"current_trial": 134, "trialdata": {"rt": -1, "trial_type": "single-stim", "word": "gift", "stimulus": "<p id=\"stim\">GIFT</p>", "conditions": [24, 1600, "v", 24000], "internal_node_id": "0.0-98.0", "trial": 3, "time_elapsed": 611074, "serialpos": 5, "key_press": -1, "wordID": 634, "type": "PRES_VIS", "trial_index": 134}, "uniqueid": "MTK3245:3FUI0JHJPY5WEOJ6B8Z60RGJGBJ338", "dateTime": 1520276411525}, {"current_trial": 135, "trialdata": {"rt": -1, "trial_type": "single-stim", "word": "county", "stimulus": "<p id=\"stim\">COUNTY</p>", "conditions": [24, 1600, "v", 24000], "internal_node_id": "0.0-99.0", "trial": 3, "time_elapsed": 613612, "serialpos": 6, "key_press": -1, "wordID": 388, "type": "PRES_VIS", "trial_index": 135}, "uniqueid": "MTK3245:3FUI0JHJPY5WEOJ6B8Z60RGJGBJ338", "dateTime": 1520276414063}, {"current_trial": 136, "trialdata": {"rt": -1, "trial_type": "single-stim", "word": "cross", "stimulus": "<p id=\"stim\">CROSS</p>", "conditions": [24, 1600, "v", 24000], "internal_node_id": "0.0-100.0", "trial": 3, "time_elapsed": 616164, "serialpos": 7, "key_press": -1, "wordID": 412, "type": "PRES_VIS", "trial_index": 136}, "uniqueid": "MTK3245:3FUI0JHJPY5WEOJ6B8Z60RGJGBJ338", "dateTime": 1520276416615}, {"current_trial": 137, "trialdata": {"rt": -1, "trial_type": "single-stim", "word": "garbage", "stimulus": "<p id=\"stim\">GARBAGE</p>", "conditions": [24, 1600, "v", 24000], "internal_node_id": "0.0-101.0", "trial": 3, "time_elapsed": 618812, "serialpos": 8, "key_press": -1, "wordID": 621, "type": "PRES_VIS", "trial_index": 137}, "uniqueid": "MTK3245:3FUI0JHJPY5WEOJ6B8Z60RGJGBJ338", "dateTime": 1520276419263}, {"current_trial": 138, "trialdata": {"rt": -1, "trial_type": "single-stim", "word": "wrench", "stimulus": "<p id=\"stim\">WRENCH</p>", "conditions": [24, 1600, "v", 24000], "internal_node_id": "0.0-102.0", "trial": 3, "time_elapsed": 621369, "serialpos": 9, "key_press": -1, "wordID": 1624, "type": "PRES_VIS", "trial_index": 138}, "uniqueid": "MTK3245:3FUI0JHJPY5WEOJ6B8Z60RGJGBJ338", "dateTime": 1520276421820}, {"current_trial": 139, "trialdata": {"rt": -1, "trial_type": "single-stim", "word": "hamper", "stimulus": "<p id=\"stim\">HAMPER</p>", "conditions": [24, 1600, "v", 24000], "internal_node_id": "0.0-103.0", "trial": 3, "time_elapsed": 623838, "serialpos": 10, "key_press": -1, "wordID": 681, "type": "PRES_VIS", "trial_index": 139}, "uniqueid": "MTK3245:3FUI0JHJPY5WEOJ6B8Z60RGJGBJ338", "dateTime": 1520276424289}, {"current_trial": 140, "trialdata": {"rt": -1, "trial_type": "single-stim", "word": "actress", "stimulus": "<p id=\"stim\">ACTRESS</p>", "conditions": [24, 1600, "v", 24000], "internal_node_id": "0.0-104.0", "trial": 3, "time_elapsed": 626454, "serialpos": 11, "key_press": -1, "wordID": 5, "type": "PRES_VIS", "trial_index": 140}, "uniqueid": "MTK3245:3FUI0JHJPY5WEOJ6B8Z60RGJGBJ338", "dateTime": 1520276426906}, {"current_trial": 141, "trialdata": {"rt": -1, "trial_type": "single-stim", "word": "husband", "stimulus": "<p id=\"stim\">HUSBAND</p>", "conditions": [24, 1600, "v", 24000], "internal_node_id": "0.0-105.0", "trial": 3, "time_elapsed": 628936, "serialpos": 12, "key_press": -1, "wordID": 727, "type": "PRES_VIS", "trial_index": 141}, "uniqueid": "MTK3245:3FUI0JHJPY5WEOJ6B8Z60RGJGBJ338", "dateTime": 1520276429388}, {"current_trial": 142, "trialdata": {"rt": -1, "trial_type": "single-stim", "word": "leader", "stimulus": "<p id=\"stim\">LEADER</p>", "conditions": [24, 1600, "v", 24000], "internal_node_id": "0.0-106.0", "trial": 3, "time_elapsed": 631387, "serialpos": 13, "key_press": -1, "wordID": 806, "type": "PRES_VIS", "trial_index": 142}, "uniqueid": "MTK3245:3FUI0JHJPY5WEOJ6B8Z60RGJGBJ338", "dateTime": 1520276431838}, {"current_trial": 143, "trialdata": {"rt": -1, "trial_type": "single-stim", "word": "tunnel", "stimulus": "<p id=\"stim\">TUNNEL</p>", "conditions": [24, 1600, "v", 24000], "internal_node_id": "0.0-107.0", "trial": 3, "time_elapsed": 634115, "serialpos": 14, "key_press": -1, "wordID": 1518, "type": "PRES_VIS", "trial_index": 143}, "uniqueid": "MTK3245:3FUI0JHJPY5WEOJ6B8Z60RGJGBJ338", "dateTime": 1520276434566}, {"current_trial": 144, "trialdata": {"rt": -1, "trial_type": "single-stim", "word": "clam", "stimulus": "<p id=\"stim\">CLAM</p>", "conditions": [24, 1600, "v", 24000], "internal_node_id": "0.0-108.0", "trial": 3, "time_elapsed": 636763, "serialpos": 15, "key_press": -1, "wordID": 314, "type": "PRES_VIS", "trial_index": 144}, "uniqueid": "MTK3245:3FUI0JHJPY5WEOJ6B8Z60RGJGBJ338", "dateTime": 1520276437214}, {"current_trial": 145, "trialdata": {"rt": -1, "trial_type": "single-stim", "word": "lagoon", "stimulus": "<p id=\"stim\">LAGOON</p>", "conditions": [24, 1600, "v", 24000], "internal_node_id": "0.0-109.0", "trial": 3, "time_elapsed": 639255, "serialpos": 16, "key_press": -1, "wordID": 794, "type": "PRES_VIS", "trial_index": 145}, "uniqueid": "MTK3245:3FUI0JHJPY5WEOJ6B8Z60RGJGBJ338", "dateTime": 1520276439706}, {"current_trial": 146, "trialdata": {"rt": -1, "trial_type": "single-stim", "word": "canal", "stimulus": "<p id=\"stim\">CANAL</p>", "conditions": [24, 1600, "v", 24000], "internal_node_id": "0.0-110.0", "trial": 3, "time_elapsed": 641953, "serialpos": 17, "key_press": -1, "wordID": 225, "type": "PRES_VIS", "trial_index": 146}, "uniqueid": "MTK3245:3FUI0JHJPY5WEOJ6B8Z60RGJGBJ338", "dateTime": 1520276442404}, {"current_trial": 147, "trialdata": {"rt": -1, "trial_type": "single-stim", "word": "ghetto", "stimulus": "<p id=\"stim\">GHETTO</p>", "conditions": [24, 1600, "v", 24000], "internal_node_id": "0.0-111.0", "trial": 3, "time_elapsed": 644751, "serialpos": 18, "key_press": -1, "wordID": 632, "type": "PRES_VIS", "trial_index": 147}, "uniqueid": "MTK3245:3FUI0JHJPY5WEOJ6B8Z60RGJGBJ338", "dateTime": 1520276445202}, {"current_trial": 148, "trialdata": {"rt": -1, "trial_type": "single-stim", "word": "preacher", "stimulus": "<p id=\"stim\">PREACHER</p>", "conditions": [24, 1600, "v", 24000], "internal_node_id": "0.0-112.0", "trial": 3, "time_elapsed": 647252, "serialpos": 19, "key_press": -1, "wordID": 1118, "type": "PRES_VIS", "trial_index": 148}, "uniqueid": "MTK3245:3FUI0JHJPY5WEOJ6B8Z60RGJGBJ338", "dateTime": 1520276447704}, {"current_trial": 149, "trialdata": {"rt": -1, "trial_type": "single-stim", "word": "harp", "stimulus": "<p id=\"stim\">HARP</p>", "conditions": [24, 1600, "v", 24000], "internal_node_id": "0.0-113.0", "trial": 3, "time_elapsed": 650074, "serialpos": 20, "key_press": -1, "wordID": 688, "type": "PRES_VIS", "trial_index": 149}, "uniqueid": "MTK3245:3FUI0JHJPY5WEOJ6B8Z60RGJGBJ338", "dateTime": 1520276450526}, {"current_trial": 150, "trialdata": {"rt": -1, "trial_type": "single-stim", "word": "toaster", "stimulus": "<p id=\"stim\">TOASTER</p>", "conditions": [24, 1600, "v", 24000], "internal_node_id": "0.0-114.0", "trial": 3, "time_elapsed": 652600, "serialpos": 21, "key_press": -1, "wordID": 1471, "type": "PRES_VIS", "trial_index": 150}, "uniqueid": "MTK3245:3FUI0JHJPY5WEOJ6B8Z60RGJGBJ338", "dateTime": 1520276453052}, {"current_trial": 151, "trialdata": {"rt": -1, "trial_type": "single-stim", "word": "pluto", "stimulus": "<p id=\"stim\">PLUTO</p>", "conditions": [24, 1600, "v", 24000], "internal_node_id": "0.0-115.0", "trial": 3, "time_elapsed": 655216, "serialpos": 22, "key_press": -1, "wordID": 1091, "type": "PRES_VIS", "trial_index": 151}, "uniqueid": "MTK3245:3FUI0JHJPY5WEOJ6B8Z60RGJGBJ338", "dateTime": 1520276455667}, {"current_trial": 152, "trialdata": {"rt": -1, "trial_type": "single-stim", "word": "wife", "stimulus": "<p id=\"stim\">WIFE</p>", "conditions": [24, 1600, "v", 24000], "internal_node_id": "0.0-116.0", "trial": 3, "time_elapsed": 657977, "serialpos": 23, "key_press": -1, "wordID": 1608, "type": "PRES_VIS", "trial_index": 152}, "uniqueid": "MTK3245:3FUI0JHJPY5WEOJ6B8Z60RGJGBJ338", "dateTime": 1520276458428}, {"current_trial": 153, "trialdata": {"rt": -1, "trial_type": "single-stim", "stimulus": "", "internal_node_id": "0.0-117.0-0.0", "time_elapsed": 660421, "key_press": -1, "type": "PRE_RECALL_DELAY", "trial_index": 153}, "uniqueid": "MTK3245:3FUI0JHJPY5WEOJ6B8Z60RGJGBJ338", "dateTime": 1520276460873}, {"current_trial": 154, "trialdata": {"rt": -1000, "trial_type": "single-audio", "stimulus": "/static/audio/400Hz.wav", "internal_node_id": "0.0-118.0", "time_elapsed": 660937, "key_press": -1, "type": "PRE_RECALL_ALERT", "trial_index": 154}, "uniqueid": "MTK3245:3FUI0JHJPY5WEOJ6B8Z60RGJGBJ338", "dateTime": 1520276461389}, {"current_trial": 155, "trialdata": {"rt": [2693, 4450, 5988, 7241, 9203, 12249, 14416, 17303, 18650], "recwords": ["keeper", "sheriff", "award", "wife", "brandy", "scotch", "lagoon", "clam", "canal"], "key_times": [1685, 1908, 2088, 2168, 2338, 2448, 2693, 3222, 3412, 3606, 3708, 3781, 3971, 4156, 4450, 4874, 5039, 5249, 5406, 5734, 5988, 6427, 6552, 6941, 7061, 7241, 8150, 8255, 8331, 8419, 8579, 8744, 9203, 9628, 9757, 9867, 10682, 11261, 11436, 11770, 11869, 12249, 12913, 13063, 13248, 13412, 13578, 14062, 14416, 15066, 15205, 15375, 15585, 17303, 17742, 17851, 18056, 18191, 18315, 18650], "trial_type": "free-recall", "conditions": [24, 1600, "v", 24000], "internal_node_id": "0.0-119.0-0.0", "key_presses": [75, 69, 69, 80, 69, 82, 13, 83, 72, 69, 82, 73, 70, 70, 13, 65, 87, 65, 82, 68, 13, 87, 73, 70, 69, 13, 66, 82, 65, 78, 68, 89, 13, 83, 67, 73, 8, 79, 84, 67, 72, 13, 76, 65, 71, 79, 79, 78, 13, 67, 76, 65, 77, 13, 67, 65, 78, 65, 76, 13], "trial": 3, "time_elapsed": 720966, "type": "FREE_RECALL", "trial_index": 155}, "uniqueid": "MTK3245:3FUI0JHJPY5WEOJ6B8Z60RGJGBJ338", "dateTime": 1520276521420}, {"current_trial": 156, "trialdata": {"rt": 48194, "trial_type": "text", "internal_node_id": "0.0-120.0", "time_elapsed": 771179, "key_press": 13, "type": "INSTRUCTIONS", "trial_index": 156}, "uniqueid": "MTK3245:3FUI0JHJPY5WEOJ6B8Z60RGJGBJ338", "dateTime": 1520276571630}, {"current_trial": 157, "trialdata": {"rt": [2050, 4502, 6764, 9815], "trial_type": "math-distractor", "key_times": [1626, 1799, 2050, 4243, 4502, 6365, 6459, 6764, 9182, 9815], "responses": ["16", "7", "21", "1"], "num2": [6, 1, 8, 3, 7], "num3": [7, 4, 9, 7, 4], "conditions": [12, 800, "v", 12000], "internal_node_id": "0.0-121.0", "key_presses": [97, 102, 13, 103, 13, 98, 97, 13, 97, 13], "trial": 4, "time_elapsed": 785191, "type": "DISTRACTOR", "trial_index": 157, "num1": [3, 2, 4, 9, 9]}, "uniqueid": "MTK3245:3FUI0JHJPY5WEOJ6B8Z60RGJGBJ338", "dateTime": 1520276585642}, {"current_trial": 158, "trialdata": {"rt": -1, "trial_type": "single-stim", "stimulus": "<p id=\"stim\">10</p>", "internal_node_id": "0.0-122.0-0.0", "time_elapsed": 788197, "key_press": -1, "trial_index": 158}, "uniqueid": "MTK3245:3FUI0JHJPY5WEOJ6B8Z60RGJGBJ338", "dateTime": 1520276588648}, {"current_trial": 159, "trialdata": {"rt": -1, "trial_type": "single-stim", "stimulus": "<p id=\"stim\">9</p>", "internal_node_id": "0.0-122.0-1.0", "time_elapsed": 789198, "key_press": -1, "trial_index": 159}, "uniqueid": "MTK3245:3FUI0JHJPY5WEOJ6B8Z60RGJGBJ338", "dateTime": 1520276589650}, {"current_trial": 160, "trialdata": {"rt": -1, "trial_type": "single-stim", "stimulus": "<p id=\"stim\">8</p>", "internal_node_id": "0.0-122.0-2.0", "time_elapsed": 790200, "key_press": -1, "trial_index": 160}, "uniqueid": "MTK3245:3FUI0JHJPY5WEOJ6B8Z60RGJGBJ338", "dateTime": 1520276590651}, {"current_trial": 161, "trialdata": {"rt": -1, "trial_type": "single-stim", "stimulus": "<p id=\"stim\">7</p>", "internal_node_id": "0.0-122.0-3.0", "time_elapsed": 791209, "key_press": -1, "trial_index": 161}, "uniqueid": "MTK3245:3FUI0JHJPY5WEOJ6B8Z60RGJGBJ338", "dateTime": 1520276591660}, {"current_trial": 162, "trialdata": {"rt": -1, "trial_type": "single-stim", "stimulus": "<p id=\"stim\">6</p>", "internal_node_id": "0.0-122.0-4.0", "time_elapsed": 792208, "key_press": -1, "trial_index": 162}, "uniqueid": "MTK3245:3FUI0JHJPY5WEOJ6B8Z60RGJGBJ338", "dateTime": 1520276592659}, {"current_trial": 163, "trialdata": {"rt": -1, "trial_type": "single-stim", "stimulus": "<p id=\"stim\">5</p>", "internal_node_id": "0.0-122.0-5.0", "time_elapsed": 793208, "key_press": -1, "trial_index": 163}, "uniqueid": "MTK3245:3FUI0JHJPY5WEOJ6B8Z60RGJGBJ338", "dateTime": 1520276593659}, {"current_trial": 164, "trialdata": {"rt": -1, "trial_type": "single-stim", "stimulus": "<p id=\"stim\">4</p>", "internal_node_id": "0.0-122.0-6.0", "time_elapsed": 794223, "key_press": -1, "trial_index": 164}, "uniqueid": "MTK3245:3FUI0JHJPY5WEOJ6B8Z60RGJGBJ338", "dateTime": 1520276594674}, {"current_trial": 165, "trialdata": {"rt": -1, "trial_type": "single-stim", "stimulus": "<p id=\"stim\">3</p>", "internal_node_id": "0.0-122.0-7.0", "time_elapsed": 795192, "key_press": -1, "trial_index": 165}, "uniqueid": "MTK3245:3FUI0JHJPY5WEOJ6B8Z60RGJGBJ338", "dateTime": 1520276595644}, {"current_trial": 166, "trialdata": {"rt": -1, "trial_type": "single-stim", "stimulus": "<p id=\"stim\">2</p>", "internal_node_id": "0.0-122.0-8.0", "time_elapsed": 796207, "key_press": -1, "trial_index": 166}, "uniqueid": "MTK3245:3FUI0JHJPY5WEOJ6B8Z60RGJGBJ338", "dateTime": 1520276596658}, {"current_trial": 167, "trialdata": {"rt": -1, "trial_type": "single-stim", "stimulus": "<p id=\"stim\">1</p>", "internal_node_id": "0.0-122.0-9.0", "time_elapsed": 797197, "key_press": -1, "trial_index": 167}, "uniqueid": "MTK3245:3FUI0JHJPY5WEOJ6B8Z60RGJGBJ338", "dateTime": 1520276597649}, {"current_trial": 168, "trialdata": {"rt": -1, "trial_type": "single-stim", "stimulus": "<p id=\"stim\">+</p>", "internal_node_id": "0.0-123.0-0.0", "time_elapsed": 798713, "key_press": -1, "type": "FIXATION", "trial_index": 168}, "uniqueid": "MTK3245:3FUI0JHJPY5WEOJ6B8Z60RGJGBJ338", "dateTime": 1520276599165}, {"current_trial": 169, "trialdata": {"rt": -1, "trial_type": "single-stim", "word": "climber", "stimulus": "<p id=\"stim\">CLIMBER</p>", "conditions": [12, 800, "v", 12000], "internal_node_id": "0.0-124.0", "trial": 4, "time_elapsed": 799516, "serialpos": 0, "key_press": -1, "wordID": 322, "type": "PRES_VIS", "trial_index": 169}, "uniqueid": "MTK3245:3FUI0JHJPY5WEOJ6B8Z60RGJGBJ338", "dateTime": 1520276599967}, {"current_trial": 170, "trialdata": {"rt": -1, "trial_type": "single-stim", "word": "belly", "stimulus": "<p id=\"stim\">BELLY</p>", "conditions": [12, 800, "v", 12000], "internal_node_id": "0.0-125.0", "trial": 4, "time_elapsed": 801335, "serialpos": 1, "key_press": -1, "wordID": 118, "type": "PRES_VIS", "trial_index": 170}, "uniqueid": "MTK3245:3FUI0JHJPY5WEOJ6B8Z60RGJGBJ338", "dateTime": 1520276601786}, {"current_trial": 171, "trialdata": {"rt": -1, "trial_type": "single-stim", "word": "panther", "stimulus": "<p id=\"stim\">PANTHER</p>", "conditions": [12, 800, "v", 12000], "internal_node_id": "0.0-126.0", "trial": 4, "time_elapsed": 803002, "serialpos": 2, "key_press": -1, "wordID": 1008, "type": "PRES_VIS", "trial_index": 171}, "uniqueid": "MTK3245:3FUI0JHJPY5WEOJ6B8Z60RGJGBJ338", "dateTime": 1520276603453}, {"current_trial": 172, "trialdata": {"rt": -1, "trial_type": "single-stim", "word": "hiker", "stimulus": "<p id=\"stim\">HIKER</p>", "conditions": [12, 800, "v", 12000], "internal_node_id": "0.0-127.0", "trial": 4, "time_elapsed": 804755, "serialpos": 3, "key_press": -1, "wordID": 707, "type": "PRES_VIS", "trial_index": 172}, "uniqueid": "MTK3245:3FUI0JHJPY5WEOJ6B8Z60RGJGBJ338", "dateTime": 1520276605206}, {"current_trial": 173, "trialdata": {"rt": -1, "trial_type": "single-stim", "word": "lamp", "stimulus": "<p id=\"stim\">LAMP</p>", "conditions": [12, 800, "v", 12000], "internal_node_id": "0.0-128.0", "trial": 4, "time_elapsed": 806617, "serialpos": 4, "key_press": -1, "wordID": 797, "type": "PRES_VIS", "trial_index": 173}, "uniqueid": "MTK3245:3FUI0JHJPY5WEOJ6B8Z60RGJGBJ338", "dateTime": 1520276607068}, {"current_trial": 174, "trialdata": {"rt": -1, "trial_type": "single-stim", "word": "trench", "stimulus": "<p id=\"stim\">TRENCH</p>", "conditions": [12, 800, "v", 12000], "internal_node_id": "0.0-129.0", "trial": 4, "time_elapsed": 808300, "serialpos": 5, "key_press": -1, "wordID": 1502, "type": "PRES_VIS", "trial_index": 174}, "uniqueid": "MTK3245:3FUI0JHJPY5WEOJ6B8Z60RGJGBJ338", "dateTime": 1520276608751}, {"current_trial": 175, "trialdata": {"rt": -1, "trial_type": "single-stim", "word": "plaid", "stimulus": "<p id=\"stim\">PLAID</p>", "conditions": [12, 800, "v", 12000], "internal_node_id": "0.0-130.0", "trial": 4, "time_elapsed": 810285, "serialpos": 6, "key_press": -1, "wordID": 1079, "type": "PRES_VIS", "trial_index": 175}, "uniqueid": "MTK3245:3FUI0JHJPY5WEOJ6B8Z60RGJGBJ338", "dateTime": 1520276610736}, {"current_trial": 176, "trialdata": {"rt": -1, "trial_type": "single-stim", "word": "pastry", "stimulus": "<p id=\"stim\">PASTRY</p>", "conditions": [12, 800, "v", 12000], "internal_node_id": "0.0-131.0", "trial": 4, "time_elapsed": 812002, "serialpos": 7, "key_press": -1, "wordID": 1021, "type": "PRES_VIS", "trial_index": 176}, "uniqueid": "MTK3245:3FUI0JHJPY5WEOJ6B8Z60RGJGBJ338", "dateTime": 1520276612453}, {"current_trial": 177, "trialdata": {"rt": -1, "trial_type": "single-stim", "word": "fireman", "stimulus": "<p id=\"stim\">FIREMAN</p>", "conditions": [12, 800, "v", 12000], "internal_node_id": "0.0-132.0", "trial": 4, "time_elapsed": 813876, "serialpos": 8, "key_press": -1, "wordID": 568, "type": "PRES_VIS", "trial_index": 177}, "uniqueid": "MTK3245:3FUI0JHJPY5WEOJ6B8Z60RGJGBJ338", "dateTime": 1520276614327}, {"current_trial": 178, "trialdata": {"rt": -1, "trial_type": "single-stim", "word": "mailbox", "stimulus": "<p id=\"stim\">MAILBOX</p>", "conditions": [12, 800, "v", 12000], "internal_node_id": "0.0-133.0", "trial": 4, "time_elapsed": 815556, "serialpos": 9, "key_press": -1, "wordID": 856, "type": "PRES_VIS", "trial_index": 178}, "uniqueid": "MTK3245:3FUI0JHJPY5WEOJ6B8Z60RGJGBJ338", "dateTime": 1520276616008}, {"current_trial": 179, "trialdata": {"rt": -1, "trial_type": "single-stim", "word": "lover", "stimulus": "<p id=\"stim\">LOVER</p>", "conditions": [12, 800, "v", 12000], "internal_node_id": "0.0-134.0", "trial": 4, "time_elapsed": 817334, "serialpos": 10, "key_press": -1, "wordID": 845, "type": "PRES_VIS", "trial_index": 179}, "uniqueid": "MTK3245:3FUI0JHJPY5WEOJ6B8Z60RGJGBJ338", "dateTime": 1520276617785}, {"current_trial": 180, "trialdata": {"rt": -1, "trial_type": "single-stim", "word": "boyfriend", "stimulus": "<p id=\"stim\">BOYFRIEND</p>", "conditions": [12, 800, "v", 12000], "internal_node_id": "0.0-135.0", "trial": 4, "time_elapsed": 819315, "serialpos": 11, "key_press": -1, "wordID": 161, "type": "PRES_VIS", "trial_index": 180}, "uniqueid": "MTK3245:3FUI0JHJPY5WEOJ6B8Z60RGJGBJ338", "dateTime": 1520276619767}, {"current_trial": 181, "trialdata": {"rt": -1, "trial_type": "single-stim", "stimulus": "", "internal_node_id": "0.0-136.0-0.0", "time_elapsed": 821895, "key_press": -1, "type": "PRE_RECALL_DELAY", "trial_index": 181}, "uniqueid": "MTK3245:3FUI0JHJPY5WEOJ6B8Z60RGJGBJ338", "dateTime": 1520276622347}, {"current_trial": 182, "trialdata": {"rt": -1000, "trial_type": "single-audio", "stimulus": "/static/audio/400Hz.wav", "internal_node_id": "0.0-137.0", "time_elapsed": 822402, "key_press": -1, "type": "PRE_RECALL_ALERT", "trial_index": 182}, "uniqueid": "MTK3245:3FUI0JHJPY5WEOJ6B8Z60RGJGBJ338", "dateTime": 1520276622853}, {"current_trial": 183, "trialdata": {"rt": [2735, 4418, 6691, 9561, 11784, 13431], "recwords": ["camper", "belly", "lamp", "boyfriend", "mailbox", "pastry"], "key_times": [1653, 1763, 1863, 2086, 2258, 2358, 2735, 3449, 3677, 3834, 4009, 4179, 4418, 4952, 5072, 5256, 5488, 6691, 7214, 7453, 7599, 8194, 8627, 8757, 8873, 8993, 9182, 9561, 10071, 10176, 10290, 10531, 10866, 11115, 11374, 11784, 12245, 12403, 12438, 12678, 12767, 13002, 13431], "trial_type": "free-recall", "conditions": [12, 800, "v", 12000], "internal_node_id": "0.0-138.0-0.0", "key_presses": [67, 65, 77, 80, 69, 82, 13, 66, 69, 76, 76, 89, 13, 76, 65, 77, 80, 13, 66, 79, 89, 70, 82, 73, 69, 78, 68, 13, 77, 65, 73, 76, 66, 79, 88, 13, 80, 65, 83, 84, 82, 89, 13], "trial": 4, "time_elapsed": 882419, "type": "FREE_RECALL", "trial_index": 183}, "uniqueid": "MTK3245:3FUI0JHJPY5WEOJ6B8Z60RGJGBJ338", "dateTime": 1520276682874}, {"current_trial": 184, "trialdata": {"rt": 1095, "trial_type": "text", "internal_node_id": "0.0-139.0", "time_elapsed": 885526, "key_press": 13, "type": "INSTRUCTIONS", "trial_index": 184}, "uniqueid": "MTK3245:3FUI0JHJPY5WEOJ6B8Z60RGJGBJ338", "dateTime": 1520276685977}, {"current_trial": 185, "trialdata": {"rt": [1952, 3616, 5343, 6975, 9127, 11500, 13652, 15055, 16434, 18457, 20046, 22417], "trial_type": "math-distractor", "key_times": [1593, 1707, 1952, 3256, 3388, 3616, 4918, 5104, 5343, 6682, 6975, 8584, 8898, 9127, 10855, 11176, 11500, 12818, 13408, 13652, 14706, 14797, 15055, 16029, 16205, 16434, 17903, 18142, 18457, 19595, 19790, 20046, 21787, 21948, 22417], "responses": ["16", "11", "12", "9", "16", "20", "16", "12", "14", "22", "13", "22"], "num2": [1, 3, 5, 3, 6, 7, 1, 5, 1, 7, 7, 7, 3], "num3": [9, 6, 4, 5, 6, 8, 7, 5, 4, 9, 3, 8, 8], "conditions": [12, 800, "v", 24000], "internal_node_id": "0.0-140.0", "key_presses": [97, 102, 13, 97, 97, 13, 97, 98, 13, 105, 13, 97, 102, 13, 98, 96, 13, 97, 102, 13, 97, 98, 13, 97, 100, 13, 98, 98, 13, 97, 99, 13, 98, 98, 13], "trial": 5, "time_elapsed": 911540, "type": "DISTRACTOR", "trial_index": 185, "num1": [6, 2, 3, 1, 4, 5, 8, 2, 9, 7, 3, 7, 4]}, "uniqueid": "MTK3245:3FUI0JHJPY5WEOJ6B8Z60RGJGBJ338", "dateTime": 1520276711992}, {"current_trial": 186, "trialdata": {"rt": -1, "trial_type": "single-stim", "stimulus": "<p id=\"stim\">10</p>", "internal_node_id": "0.0-141.0-0.0", "time_elapsed": 914549, "key_press": -1, "trial_index": 186}, "uniqueid": "MTK3245:3FUI0JHJPY5WEOJ6B8Z60RGJGBJ338", "dateTime": 1520276715001}, {"current_trial": 187, "trialdata": {"rt": -1, "trial_type": "single-stim", "stimulus": "<p id=\"stim\">9</p>", "internal_node_id": "0.0-141.0-1.0", "time_elapsed": 915553, "key_press": -1, "trial_index": 187}, "uniqueid": "MTK3245:3FUI0JHJPY5WEOJ6B8Z60RGJGBJ338", "dateTime": 1520276716004}, {"current_trial": 188, "trialdata": {"rt": -1, "trial_type": "single-stim", "stimulus": "<p id=\"stim\">8</p>", "internal_node_id": "0.0-141.0-2.0", "time_elapsed": 916560, "key_press": -1, "trial_index": 188}, "uniqueid": "MTK3245:3FUI0JHJPY5WEOJ6B8Z60RGJGBJ338", "dateTime": 1520276717011}, {"current_trial": 189, "trialdata": {"rt": -1, "trial_type": "single-stim", "stimulus": "<p id=\"stim\">7</p>", "internal_node_id": "0.0-141.0-3.0", "time_elapsed": 917544, "key_press": -1, "trial_index": 189}, "uniqueid": "MTK3245:3FUI0JHJPY5WEOJ6B8Z60RGJGBJ338", "dateTime": 1520276717995}, {"current_trial": 190, "trialdata": {"rt": -1, "trial_type": "single-stim", "stimulus": "<p id=\"stim\">6</p>", "internal_node_id": "0.0-141.0-4.0", "time_elapsed": 918559, "key_press": -1, "trial_index": 190}, "uniqueid": "MTK3245:3FUI0JHJPY5WEOJ6B8Z60RGJGBJ338", "dateTime": 1520276719010}, {"current_trial": 191, "trialdata": {"rt": -1, "trial_type": "single-stim", "stimulus": "<p id=\"stim\">5</p>", "internal_node_id": "0.0-141.0-5.0", "time_elapsed": 919557, "key_press": -1, "trial_index": 191}, "uniqueid": "MTK3245:3FUI0JHJPY5WEOJ6B8Z60RGJGBJ338", "dateTime": 1520276720009}, {"current_trial": 192, "trialdata": {"rt": -1, "trial_type": "single-stim", "stimulus": "<p id=\"stim\">4</p>", "internal_node_id": "0.0-141.0-6.0", "time_elapsed": 920556, "key_press": -1, "trial_index": 192}, "uniqueid": "MTK3245:3FUI0JHJPY5WEOJ6B8Z60RGJGBJ338", "dateTime": 1520276721007}, {"current_trial": 193, "trialdata": {"rt": -1, "trial_type": "single-stim", "stimulus": "<p id=\"stim\">3</p>", "internal_node_id": "0.0-141.0-7.0", "time_elapsed": 921557, "key_press": -1, "trial_index": 193}, "uniqueid": "MTK3245:3FUI0JHJPY5WEOJ6B8Z60RGJGBJ338", "dateTime": 1520276722009}, {"current_trial": 194, "trialdata": {"rt": -1, "trial_type": "single-stim", "stimulus": "<p id=\"stim\">2</p>", "internal_node_id": "0.0-141.0-8.0", "time_elapsed": 922550, "key_press": -1, "trial_index": 194}, "uniqueid": "MTK3245:3FUI0JHJPY5WEOJ6B8Z60RGJGBJ338", "dateTime": 1520276723001}, {"current_trial": 195, "trialdata": {"rt": -1, "trial_type": "single-stim", "stimulus": "<p id=\"stim\">1</p>", "internal_node_id": "0.0-141.0-9.0", "time_elapsed": 923549, "key_press": -1, "trial_index": 195}, "uniqueid": "MTK3245:3FUI0JHJPY5WEOJ6B8Z60RGJGBJ338", "dateTime": 1520276724001}, {"current_trial": 196, "trialdata": {"rt": -1, "trial_type": "single-stim", "stimulus": "<p id=\"stim\">+</p>", "internal_node_id": "0.0-142.0-0.0", "time_elapsed": 925053, "key_press": -1, "type": "FIXATION", "trial_index": 196}, "uniqueid": "MTK3245:3FUI0JHJPY5WEOJ6B8Z60RGJGBJ338", "dateTime": 1520276725505}, {"current_trial": 197, "trialdata": {"rt": -1, "trial_type": "single-stim", "word": "female", "stimulus": "<p id=\"stim\">FEMALE</p>", "conditions": [12, 800, "v", 24000], "internal_node_id": "0.0-143.0", "trial": 5, "time_elapsed": 925868, "serialpos": 0, "key_press": -1, "wordID": 558, "type": "PRES_VIS", "trial_index": 197}, "uniqueid": "MTK3245:3FUI0JHJPY5WEOJ6B8Z60RGJGBJ338", "dateTime": 1520276726319}, {"current_trial": 198, "trialdata": {"rt": -1, "trial_type": "single-stim", "word": "guitar", "stimulus": "<p id=\"stim\">GUITAR</p>", "conditions": [12, 800, "v", 24000], "internal_node_id": "0.0-144.0", "trial": 5, "time_elapsed": 927736, "serialpos": 1, "key_press": -1, "wordID": 669, "type": "PRES_VIS", "trial_index": 198}, "uniqueid": "MTK3245:3FUI0JHJPY5WEOJ6B8Z60RGJGBJ338", "dateTime": 1520276728187}, {"current_trial": 199, "trialdata": {"rt": -1, "trial_type": "single-stim", "word": "kleenex", "stimulus": "<p id=\"stim\">KLEENEX</p>", "conditions": [12, 800, "v", 24000], "internal_node_id": "0.0-145.0", "trial": 5, "time_elapsed": 929436, "serialpos": 2, "key_press": -1, "wordID": 781, "type": "PRES_VIS", "trial_index": 199}, "uniqueid": "MTK3245:3FUI0JHJPY5WEOJ6B8Z60RGJGBJ338", "dateTime": 1520276729887}, {"current_trial": 200, "trialdata": {"rt": -1, "trial_type": "single-stim", "word": "parrot", "stimulus": "<p id=\"stim\">PARROT</p>", "conditions": [12, 800, "v", 24000], "internal_node_id": "0.0-146.0", "trial": 5, "time_elapsed": 931247, "serialpos": 3, "key_press": -1, "wordID": 1014, "type": "PRES_VIS", "trial_index": 200}, "uniqueid": "MTK3245:3FUI0JHJPY5WEOJ6B8Z60RGJGBJ338", "dateTime": 1520276731699}, {"current_trial": 201, "trialdata": {"rt": -1, "trial_type": "single-stim", "word": "package", "stimulus": "<p id=\"stim\">PACKAGE</p>", "conditions": [12, 800, "v", 24000], "internal_node_id": "0.0-147.0", "trial": 5, "time_elapsed": 933083, "serialpos": 4, "key_press": -1, "wordID": 996, "type": "PRES_VIS", "trial_index": 201}, "uniqueid": "MTK3245:3FUI0JHJPY5WEOJ6B8Z60RGJGBJ338", "dateTime": 1520276733535}, {"current_trial": 202, "trialdata": {"rt": -1, "trial_type": "single-stim", "word": "mummy", "stimulus": "<p id=\"stim\">MUMMY</p>", "conditions": [12, 800, "v", 24000], "internal_node_id": "0.0-148.0", "trial": 5, "time_elapsed": 934889, "serialpos": 5, "key_press": -1, "wordID": 931, "type": "PRES_VIS", "trial_index": 202}, "uniqueid": "MTK3245:3FUI0JHJPY5WEOJ6B8Z60RGJGBJ338", "dateTime": 1520276735340}, {"current_trial": 203, "trialdata": {"rt": -1, "trial_type": "single-stim", "word": "tuba", "stimulus": "<p id=\"stim\">TUBA</p>", "conditions": [12, 800, "v", 24000], "internal_node_id": "0.0-149.0", "trial": 5, "time_elapsed": 936627, "serialpos": 6, "key_press": -1, "wordID": 1514, "type": "PRES_VIS", "trial_index": 203}, "uniqueid": "MTK3245:3FUI0JHJPY5WEOJ6B8Z60RGJGBJ338", "dateTime": 1520276737078}, {"current_trial": 204, "trialdata": {"rt": -1, "trial_type": "single-stim", "word": "briefcase", "stimulus": "<p id=\"stim\">BRIEFCASE</p>", "conditions": [12, 800, "v", 24000], "internal_node_id": "0.0-150.0", "trial": 5, "time_elapsed": 938467, "serialpos": 7, "key_press": -1, "wordID": 174, "type": "PRES_VIS", "trial_index": 204}, "uniqueid": "MTK3245:3FUI0JHJPY5WEOJ6B8Z60RGJGBJ338", "dateTime": 1520276738919}, {"current_trial": 205, "trialdata": {"rt": -1, "trial_type": "single-stim", "word": "handbag", "stimulus": "<p id=\"stim\">HANDBAG</p>", "conditions": [12, 800, "v", 24000], "internal_node_id": "0.0-151.0", "trial": 5, "time_elapsed": 940501, "serialpos": 8, "key_press": -1, "wordID": 683, "type": "PRES_VIS", "trial_index": 205}, "uniqueid": "MTK3245:3FUI0JHJPY5WEOJ6B8Z60RGJGBJ338", "dateTime": 1520276740952}, {"current_trial": 206, "trialdata": {"rt": -1, "trial_type": "single-stim", "word": "flag", "stimulus": "<p id=\"stim\">FLAG</p>", "conditions": [12, 800, "v", 24000], "internal_node_id": "0.0-152.0", "trial": 5, "time_elapsed": 942168, "serialpos": 9, "key_press": -1, "wordID": 572, "type": "PRES_VIS", "trial_index": 206}, "uniqueid": "MTK3245:3FUI0JHJPY5WEOJ6B8Z60RGJGBJ338", "dateTime": 1520276742620}, {"current_trial": 207, "trialdata": {"rt": -1, "trial_type": "single-stim", "word": "tourist", "stimulus": "<p id=\"stim\">TOURIST</p>", "conditions": [12, 800, "v", 24000], "internal_node_id": "0.0-153.0", "trial": 5, "time_elapsed": 944042, "serialpos": 10, "key_press": -1, "wordID": 1487, "type": "PRES_VIS", "trial_index": 207}, "uniqueid": "MTK3245:3FUI0JHJPY5WEOJ6B8Z60RGJGBJ338", "dateTime": 1520276744494}, {"current_trial": 208, "trialdata": {"rt": -1, "trial_type": "single-stim", "word": "swimmer", "stimulus": "<p id=\"stim\">SWIMMER</p>", "conditions": [12, 800, "v", 24000], "internal_node_id": "0.0-154.0", "trial": 5, "time_elapsed": 945853, "serialpos": 11, "key_press": -1, "wordID": 1419, "type": "PRES_VIS", "trial_index": 208}, "uniqueid": "MTK3245:3FUI0JHJPY5WEOJ6B8Z60RGJGBJ338", "dateTime": 1520276746304}, {"current_trial": 209, "trialdata": {"rt": -1, "trial_type": "single-stim", "stimulus": "", "internal_node_id": "0.0-155.0-0.0", "time_elapsed": 948099, "key_press": -1, "type": "PRE_RECALL_DELAY", "trial_index": 209}, "uniqueid": "MTK3245:3FUI0JHJPY5WEOJ6B8Z60RGJGBJ338", "dateTime": 1520276748550}, {"current_trial": 210, "trialdata": {"rt": -1000, "trial_type": "single-audio", "stimulus": "/static/audio/400Hz.wav", "internal_node_id": "0.0-156.0", "time_elapsed": 948620, "key_press": -1, "type": "PRE_RECALL_ALERT", "trial_index": 210}, "uniqueid": "MTK3245:3FUI0JHJPY5WEOJ6B8Z60RGJGBJ338", "dateTime": 1520276749072}, {"current_trial": 211, "trialdata": {"rt": [2615, 4325, 5750, 7838, 9531, 11118, 15838], "recwords": ["female", "guitar", "mummy", "briefcase", "handbag", "swimmer", "tourist"], "key_times": [1512, 1610, 1726, 1935, 2070, 2275, 2615, 3205, 3318, 3509, 3658, 3753, 4003, 4325, 4672, 5026, 5226, 5392, 5538, 5750, 6230, 6375, 6469, 6589, 6805, 7157, 7288, 7529, 7653, 7838, 8402, 8522, 8632, 8774, 8937, 9061, 9266, 9531, 9990, 10265, 10350, 10515, 10690, 10835, 10955, 11118, 13917, 14374, 14439, 14879, 15049, 15254, 15369, 15838], "trial_type": "free-recall", "conditions": [12, 800, "v", 24000], "internal_node_id": "0.0-157.0-0.0", "key_presses": [70, 69, 77, 65, 76, 69, 13, 71, 85, 73, 84, 65, 82, 13, 77, 85, 77, 77, 89, 13, 66, 82, 73, 69, 70, 67, 65, 83, 69, 13, 72, 65, 78, 68, 66, 65, 71, 13, 83, 87, 73, 77, 77, 69, 82, 13, 84, 79, 85, 82, 73, 83, 84, 13], "trial": 5, "time_elapsed": 1008636, "type": "FREE_RECALL", "trial_index": 211}, "uniqueid": "MTK3245:3FUI0JHJPY5WEOJ6B8Z60RGJGBJ338", "dateTime": 1520276809090}, {"current_trial": 212, "trialdata": {"rt": 1311, "trial_type": "text", "internal_node_id": "0.0-158.0", "time_elapsed": 1011974, "key_press": 13, "type": "INSTRUCTIONS", "trial_index": 212}, "uniqueid": "MTK3245:3FUI0JHJPY5WEOJ6B8Z60RGJGBJ338", "dateTime": 1520276812425}, {"current_trial": 213, "trialdata": {"rt": [2017, 4005, 6697, 10102, 12614, 14835, 16364, 18641, 20784], "trial_type": "math-distractor", "key_times": [1644, 1792, 2017, 3580, 3750, 4005, 6303, 6427, 6697, 8326, 9283, 9898, 10102, 12211, 12394, 12614, 14477, 14571, 14835, 16049, 16137, 16364, 17463, 17483, 17622, 18353, 18641, 20370, 20554, 20784, 23290], "responses": ["15", "13", "15", "7", "21", "12", "15", "12", "16"], "num2": [8, 6, 4, 3, 5, 7, 3, 4, 9, 8], "num3": [4, 5, 7, 3, 7, 1, 8, 3, 1, 5], "conditions": [12, 1600, "v", 24000], "internal_node_id": "0.0-159.0", "key_presses": [97, 101, 13, 97, 99, 13, 97, 101, 13, 97, 8, 103, 13, 98, 97, 13, 97, 98, 13, 97, 101, 13, 97, 98, 98, 8, 13, 97, 102, 13, 98], "trial": 6, "time_elapsed": 1037983, "type": "DISTRACTOR", "trial_index": 213, "num1": [3, 2, 4, 1, 9, 4, 4, 5, 6, 7]}, "uniqueid": "MTK3245:3FUI0JHJPY5WEOJ6B8Z60RGJGBJ338", "dateTime": 1520276838434}, {"current_trial": 214, "trialdata": {"rt": -1, "trial_type": "single-stim", "stimulus": "<p id=\"stim\">10</p>", "internal_node_id": "0.0-160.0-0.0", "time_elapsed": 1040991, "key_press": -1, "trial_index": 214}, "uniqueid": "MTK3245:3FUI0JHJPY5WEOJ6B8Z60RGJGBJ338", "dateTime": 1520276841442}, {"current_trial": 215, "trialdata": {"rt": -1, "trial_type": "single-stim", "stimulus": "<p id=\"stim\">9</p>", "internal_node_id": "0.0-160.0-1.0", "time_elapsed": 1042008, "key_press": -1, "trial_index": 215}, "uniqueid": "MTK3245:3FUI0JHJPY5WEOJ6B8Z60RGJGBJ338", "dateTime": 1520276842459}, {"current_trial": 216, "trialdata": {"rt": -1, "trial_type": "single-stim", "stimulus": "<p id=\"stim\">8</p>", "internal_node_id": "0.0-160.0-2.0", "time_elapsed": 1042999, "key_press": -1, "trial_index": 216}, "uniqueid": "MTK3245:3FUI0JHJPY5WEOJ6B8Z60RGJGBJ338", "dateTime": 1520276843450}, {"current_trial": 217, "trialdata": {"rt": -1, "trial_type": "single-stim", "stimulus": "<p id=\"stim\">7</p>", "internal_node_id": "0.0-160.0-3.0", "time_elapsed": 1044000, "key_press": -1, "trial_index": 217}, "uniqueid": "MTK3245:3FUI0JHJPY5WEOJ6B8Z60RGJGBJ338", "dateTime": 1520276844451}, {"current_trial": 218, "trialdata": {"rt": -1, "trial_type": "single-stim", "stimulus": "<p id=\"stim\">6</p>", "internal_node_id": "0.0-160.0-4.0", "time_elapsed": 1045003, "key_press": -1, "trial_index": 218}, "uniqueid": "MTK3245:3FUI0JHJPY5WEOJ6B8Z60RGJGBJ338", "dateTime": 1520276845454}, {"current_trial": 219, "trialdata": {"rt": -1, "trial_type": "single-stim", "stimulus": "<p id=\"stim\">5</p>", "internal_node_id": "0.0-160.0-5.0", "time_elapsed": 1045994, "key_press": -1, "trial_index": 219}, "uniqueid": "MTK3245:3FUI0JHJPY5WEOJ6B8Z60RGJGBJ338", "dateTime": 1520276846446}, {"current_trial": 220, "trialdata": {"rt": -1, "trial_type": "single-stim", "stimulus": "<p id=\"stim\">4</p>", "internal_node_id": "0.0-160.0-6.0", "time_elapsed": 1047007, "key_press": -1, "trial_index": 220}, "uniqueid": "MTK3245:3FUI0JHJPY5WEOJ6B8Z60RGJGBJ338", "dateTime": 1520276847459}, {"current_trial": 221, "trialdata": {"rt": -1, "trial_type": "single-stim", "stimulus": "<p id=\"stim\">3</p>", "internal_node_id": "0.0-160.0-7.0", "time_elapsed": 1047994, "key_press": -1, "trial_index": 221}, "uniqueid": "MTK3245:3FUI0JHJPY5WEOJ6B8Z60RGJGBJ338", "dateTime": 1520276848445}, {"current_trial": 222, "trialdata": {"rt": -1, "trial_type": "single-stim", "stimulus": "<p id=\"stim\">2</p>", "internal_node_id": "0.0-160.0-8.0", "time_elapsed": 1049008, "key_press": -1, "trial_index": 222}, "uniqueid": "MTK3245:3FUI0JHJPY5WEOJ6B8Z60RGJGBJ338", "dateTime": 1520276849459}, {"current_trial": 223, "trialdata": {"rt": -1, "trial_type": "single-stim", "stimulus": "<p id=\"stim\">1</p>", "internal_node_id": "0.0-160.0-9.0", "time_elapsed": 1050006, "key_press": -1, "trial_index": 223}, "uniqueid": "MTK3245:3FUI0JHJPY5WEOJ6B8Z60RGJGBJ338", "dateTime": 1520276850458}, {"current_trial": 224, "trialdata": {"rt": -1, "trial_type": "single-stim", "stimulus": "<p id=\"stim\">+</p>", "internal_node_id": "0.0-161.0-0.0", "time_elapsed": 1051522, "key_press": -1, "type": "FIXATION", "trial_index": 224}, "uniqueid": "MTK3245:3FUI0JHJPY5WEOJ6B8Z60RGJGBJ338", "dateTime": 1520276851973}, {"current_trial": 225, "trialdata": {"rt": -1, "trial_type": "single-stim", "word": "concert", "stimulus": "<p id=\"stim\">CONCERT</p>", "conditions": [12, 1600, "v", 24000], "internal_node_id": "0.0-162.0", "trial": 6, "time_elapsed": 1053122, "serialpos": 0, "key_press": -1, "wordID": 359, "type": "PRES_VIS", "trial_index": 225}, "uniqueid": "MTK3245:3FUI0JHJPY5WEOJ6B8Z60RGJGBJ338", "dateTime": 1520276853574}, {"current_trial": 226, "trialdata": {"rt": -1, "trial_type": "single-stim", "word": "denim", "stimulus": "<p id=\"stim\">DENIM</p>", "conditions": [12, 1600, "v", 24000], "internal_node_id": "0.0-163.0", "trial": 6, "time_elapsed": 1055727, "serialpos": 1, "key_press": -1, "wordID": 445, "type": "PRES_VIS", "trial_index": 226}, "uniqueid": "MTK3245:3FUI0JHJPY5WEOJ6B8Z60RGJGBJ338", "dateTime": 1520276856178}, {"current_trial": 227, "trialdata": {"rt": -1, "trial_type": "single-stim", "word": "grape", "stimulus": "<p id=\"stim\">GRAPE</p>", "conditions": [12, 1600, "v", 24000], "internal_node_id": "0.0-164.0", "trial": 6, "time_elapsed": 1058270, "serialpos": 2, "key_press": -1, "wordID": 653, "type": "PRES_VIS", "trial_index": 227}, "uniqueid": "MTK3245:3FUI0JHJPY5WEOJ6B8Z60RGJGBJ338", "dateTime": 1520276858721}, {"current_trial": 228, "trialdata": {"rt": -1, "trial_type": "single-stim", "word": "barley", "stimulus": "<p id=\"stim\">BARLEY</p>", "conditions": [12, 1600, "v", 24000], "internal_node_id": "0.0-165.0", "trial": 6, "time_elapsed": 1060783, "serialpos": 3, "key_press": -1, "wordID": 87, "type": "PRES_VIS", "trial_index": 228}, "uniqueid": "MTK3245:3FUI0JHJPY5WEOJ6B8Z60RGJGBJ338", "dateTime": 1520276861234}, {"current_trial": 229, "trialdata": {"rt": -1, "trial_type": "single-stim", "word": "flute", "stimulus": "<p id=\"stim\">FLUTE</p>", "conditions": [12, 1600, "v", 24000], "internal_node_id": "0.0-166.0", "trial": 6, "time_elapsed": 1063347, "serialpos": 4, "key_press": -1, "wordID": 584, "type": "PRES_VIS", "trial_index": 229}, "uniqueid": "MTK3245:3FUI0JHJPY5WEOJ6B8Z60RGJGBJ338", "dateTime": 1520276863798}, {"current_trial": 230, "trialdata": {"rt": -1, "trial_type": "single-stim", "word": "helmet", "stimulus": "<p id=\"stim\">HELMET</p>", "conditions": [12, 1600, "v", 24000], "internal_node_id": "0.0-167.0", "trial": 6, "time_elapsed": 1065901, "serialpos": 5, "key_press": -1, "wordID": 701, "type": "PRES_VIS", "trial_index": 230}, "uniqueid": "MTK3245:3FUI0JHJPY5WEOJ6B8Z60RGJGBJ338", "dateTime": 1520276866353}, {"current_trial": 231, "trialdata": {"rt": -1, "trial_type": "single-stim", "word": "chauffeur", "stimulus": "<p id=\"stim\">CHAUFFEUR</p>", "conditions": [12, 1600, "v", 24000], "internal_node_id": "0.0-168.0", "trial": 6, "time_elapsed": 1068549, "serialpos": 6, "key_press": -1, "wordID": 282, "type": "PRES_VIS", "trial_index": 231}, "uniqueid": "MTK3245:3FUI0JHJPY5WEOJ6B8Z60RGJGBJ338", "dateTime": 1520276869000}, {"current_trial": 232, "trialdata": {"rt": -1, "trial_type": "single-stim", "word": "piston", "stimulus": "<p id=\"stim\">PISTON</p>", "conditions": [12, 1600, "v", 24000], "internal_node_id": "0.0-169.0", "trial": 6, "time_elapsed": 1071044, "serialpos": 7, "key_press": -1, "wordID": 1075, "type": "PRES_VIS", "trial_index": 232}, "uniqueid": "MTK3245:3FUI0JHJPY5WEOJ6B8Z60RGJGBJ338", "dateTime": 1520276871496}, {"current_trial": 233, "trialdata": {"rt": -1, "trial_type": "single-stim", "word": "clothes", "stimulus": "<p id=\"stim\">CLOTHES</p>", "conditions": [12, 1600, "v", 24000], "internal_node_id": "0.0-170.0", "trial": 6, "time_elapsed": 1073807, "serialpos": 8, "key_press": -1, "wordID": 326, "type": "PRES_VIS", "trial_index": 233}, "uniqueid": "MTK3245:3FUI0JHJPY5WEOJ6B8Z60RGJGBJ338", "dateTime": 1520276874258}, {"current_trial": 234, "trialdata": {"rt": -1, "trial_type": "single-stim", "word": "lion", "stimulus": "<p id=\"stim\">LION</p>", "conditions": [12, 1600, "v", 24000], "internal_node_id": "0.0-171.0", "trial": 6, "time_elapsed": 1076615, "serialpos": 9, "key_press": -1, "wordID": 826, "type": "PRES_VIS", "trial_index": 234}, "uniqueid": "MTK3245:3FUI0JHJPY5WEOJ6B8Z60RGJGBJ338", "dateTime": 1520276877066}, {"current_trial": 235, "trialdata": {"rt": -1, "trial_type": "single-stim", "word": "money", "stimulus": "<p id=\"stim\">MONEY</p>", "conditions": [12, 1600, "v", 24000], "internal_node_id": "0.0-172.0", "trial": 6, "time_elapsed": 1079064, "serialpos": 10, "key_press": -1, "wordID": 907, "type": "PRES_VIS", "trial_index": 235}, "uniqueid": "MTK3245:3FUI0JHJPY5WEOJ6B8Z60RGJGBJ338", "dateTime": 1520276879515}, {"current_trial": 236, "trialdata": {"rt": -1, "trial_type": "single-stim", "word": "goblin", "stimulus": "<p id=\"stim\">GOBLIN</p>", "conditions": [12, 1600, "v", 24000], "internal_node_id": "0.0-173.0", "trial": 6, "time_elapsed": 1081798, "serialpos": 11, "key_press": -1, "wordID": 644, "type": "PRES_VIS", "trial_index": 236}, "uniqueid": "MTK3245:3FUI0JHJPY5WEOJ6B8Z60RGJGBJ338", "dateTime": 1520276882249}, {"current_trial": 237, "trialdata": {"rt": -1, "trial_type": "single-stim", "stimulus": "", "internal_node_id": "0.0-174.0-0.0", "time_elapsed": 1084313, "key_press": -1, "type": "PRE_RECALL_DELAY", "trial_index": 237}, "uniqueid": "MTK3245:3FUI0JHJPY5WEOJ6B8Z60RGJGBJ338", "dateTime": 1520276884764}, {"current_trial": 238, "trialdata": {"rt": -1000, "trial_type": "single-audio", "stimulus": "/static/audio/400Hz.wav", "internal_node_id": "0.0-175.0", "time_elapsed": 1084829, "key_press": -1, "type": "PRE_RECALL_ALERT", "trial_index": 238}, "uniqueid": "MTK3245:3FUI0JHJPY5WEOJ6B8Z60RGJGBJ338", "dateTime": 1520276885280}, {"current_trial": 239, "trialdata": {"rt": [2762, 4370, 6148, 7922, 11848, 19431, 22787], "recwords": ["concert", "denim", "grape", "barley", "lion", "chauffer", "flute"], "key_times": [1250, 1349, 1429, 1664, 1928, 2034, 2458, 2762, 3283, 3383, 3461, 3527, 4070, 4370, 4945, 5029, 5129, 5340, 5923, 6148, 6938, 7047, 7162, 7287, 7516, 7736, 7922, 8355, 8630, 8722, 8840, 11848, 15962, 16070, 16215, 17624, 17954, 18124, 18328, 18418, 19431, 21930, 22053, 22243, 22398, 22553, 22787], "trial_type": "free-recall", "conditions": [12, 1600, "v", 24000], "internal_node_id": "0.0-176.0-0.0", "key_presses": [67, 79, 78, 67, 69, 82, 84, 13, 68, 69, 78, 73, 77, 13, 71, 82, 65, 80, 69, 13, 66, 65, 82, 76, 69, 89, 13, 76, 73, 79, 78, 13, 67, 72, 65, 85, 70, 70, 69, 82, 13, 70, 76, 85, 84, 69, 13], "trial": 6, "time_elapsed": 1144835, "type": "FREE_RECALL", "trial_index": 239}, "uniqueid": "MTK3245:3FUI0JHJPY5WEOJ6B8Z60RGJGBJ338", "dateTime": 1520276945289}, {"current_trial": 240, "trialdata": {"rt": 1044, "trial_type": "text", "internal_node_id": "0.0-177.0", "time_elapsed": 1147893, "key_press": 13, "type": "INSTRUCTIONS", "trial_index": 240}, "uniqueid": "MTK3245:3FUI0JHJPY5WEOJ6B8Z60RGJGBJ338", "dateTime": 1520276948344}, {"current_trial": 241, "trialdata": {"rt": [3068, 4647, 6485, 8271, 11634, 13287, 15239, 16802, 18420, 19998, 22686], "trial_type": "math-distractor", "key_times": [2561, 2833, 3068, 4192, 4401, 4647, 5976, 6249, 6485, 7787, 8037, 8271, 9886, 10410, 10968, 11064, 11634, 12843, 13037, 13287, 14744, 15000, 15239, 16342, 16578, 16802, 18037, 18201, 18420, 19434, 19614, 19998, 22272, 22445, 22686], "responses": ["17", "18", "17", "17", "23", "19", "17", "18", "11", "12", "20"], "num2": [7, 2, 6, 6, 9, 8, 9, 1, 2, 5, 7, 5], "num3": [6, 8, 8, 5, 5, 7, 2, 8, 2, 2, 4, 7], "conditions": [12, 800, "v", 24000], "internal_node_id": "0.0-178.0", "key_presses": [97, 103, 13, 97, 104, 13, 97, 103, 13, 97, 103, 13, 97, 8, 98, 99, 13, 97, 105, 13, 97, 103, 13, 97, 104, 13, 97, 97, 13, 97, 98, 13, 98, 96, 13], "trial": 7, "time_elapsed": 1173910, "type": "DISTRACTOR", "trial_index": 241, "num1": [4, 8, 3, 6, 9, 4, 6, 9, 7, 5, 9, 1]}, "uniqueid": "MTK3245:3FUI0JHJPY5WEOJ6B8Z60RGJGBJ338", "dateTime": 1520276974361}, {"current_trial": 242, "trialdata": {"rt": -1, "trial_type": "single-stim", "stimulus": "<p id=\"stim\">10</p>", "internal_node_id": "0.0-179.0-0.0", "time_elapsed": 1176926, "key_press": -1, "trial_index": 242}, "uniqueid": "MTK3245:3FUI0JHJPY5WEOJ6B8Z60RGJGBJ338", "dateTime": 1520276977377}, {"current_trial": 243, "trialdata": {"rt": -1, "trial_type": "single-stim", "stimulus": "<p id=\"stim\">9</p>", "internal_node_id": "0.0-179.0-1.0", "time_elapsed": 1177942, "key_press": -1, "trial_index": 243}, "uniqueid": "MTK3245:3FUI0JHJPY5WEOJ6B8Z60RGJGBJ338", "dateTime": 1520276978393}, {"current_trial": 244, "trialdata": {"rt": -1, "trial_type": "single-stim", "stimulus": "<p id=\"stim\">8</p>", "internal_node_id": "0.0-179.0-2.0", "time_elapsed": 1178926, "key_press": -1, "trial_index": 244}, "uniqueid": "MTK3245:3FUI0JHJPY5WEOJ6B8Z60RGJGBJ338", "dateTime": 1520276979378}, {"current_trial": 245, "trialdata": {"rt": -1, "trial_type": "single-stim", "stimulus": "<p id=\"stim\">7</p>", "internal_node_id": "0.0-179.0-3.0", "time_elapsed": 1179928, "key_press": -1, "trial_index": 245}, "uniqueid": "MTK3245:3FUI0JHJPY5WEOJ6B8Z60RGJGBJ338", "dateTime": 1520276980379}, {"current_trial": 246, "trialdata": {"rt": -1, "trial_type": "single-stim", "stimulus": "<p id=\"stim\">6</p>", "internal_node_id": "0.0-179.0-4.0", "time_elapsed": 1180917, "key_press": -1, "trial_index": 246}, "uniqueid": "MTK3245:3FUI0JHJPY5WEOJ6B8Z60RGJGBJ338", "dateTime": 1520276981369}, {"current_trial": 247, "trialdata": {"rt": -1, "trial_type": "single-stim", "stimulus": "<p id=\"stim\">5</p>", "internal_node_id": "0.0-179.0-5.0", "time_elapsed": 1181919, "key_press": -1, "trial_index": 247}, "uniqueid": "MTK3245:3FUI0JHJPY5WEOJ6B8Z60RGJGBJ338", "dateTime": 1520276982371}, {"current_trial": 248, "trialdata": {"rt": -1, "trial_type": "single-stim", "stimulus": "<p id=\"stim\">4</p>", "internal_node_id": "0.0-179.0-6.0", "time_elapsed": 1182925, "key_press": -1, "trial_index": 248}, "uniqueid": "MTK3245:3FUI0JHJPY5WEOJ6B8Z60RGJGBJ338", "dateTime": 1520276983377}, {"current_trial": 249, "trialdata": {"rt": -1, "trial_type": "single-stim", "stimulus": "<p id=\"stim\">3</p>", "internal_node_id": "0.0-179.0-7.0", "time_elapsed": 1183927, "key_press": -1, "trial_index": 249}, "uniqueid": "MTK3245:3FUI0JHJPY5WEOJ6B8Z60RGJGBJ338", "dateTime": 1520276984378}, {"current_trial": 250, "trialdata": {"rt": -1, "trial_type": "single-stim", "stimulus": "<p id=\"stim\">2</p>", "internal_node_id": "0.0-179.0-8.0", "time_elapsed": 1184927, "key_press": -1, "trial_index": 250}, "uniqueid": "MTK3245:3FUI0JHJPY5WEOJ6B8Z60RGJGBJ338", "dateTime": 1520276985379}, {"current_trial": 251, "trialdata": {"rt": -1, "trial_type": "single-stim", "stimulus": "<p id=\"stim\">1</p>", "internal_node_id": "0.0-179.0-9.0", "time_elapsed": 1185924, "key_press": -1, "trial_index": 251}, "uniqueid": "MTK3245:3FUI0JHJPY5WEOJ6B8Z60RGJGBJ338", "dateTime": 1520276986376}, {"current_trial": 252, "trialdata": {"rt": -1, "trial_type": "single-stim", "stimulus": "<p id=\"stim\">+</p>", "internal_node_id": "0.0-180.0-0.0", "time_elapsed": 1187427, "key_press": -1, "type": "FIXATION", "trial_index": 252}, "uniqueid": "MTK3245:3FUI0JHJPY5WEOJ6B8Z60RGJGBJ338", "dateTime"