{"assignmentId": "3FQ5JJ512MV9EQKNEXBKQRVRWQ3NKE", "workerId": "MTK3405", "questiondata": {"origin": "United States", "strat-rehearsal": "66", "marital": "Married/Domestic Partnership", "education": "Some college", "ethnicity": "Not Hispanic", "color_depth": 24, "distracted": "No", "wrote-notes": "No", "strat-other": "", "screen_width": 1920, "avail_screen_width": 1920, "avail_screen_height": 1040, "strat-image": "80", "language": "English", "gender": "Female", "age": "48", "gender_other": "", "race": ["White"], "strat-categorize": "90", "pixel_depth": 24, "strat-spatial": "20", "strat-story": "90", "race_other": "", "screen_height": 1080}, "bonus": 0, "hitId": "3S4TINXCC0UOGOIBJXT2HTGME0SBOI", "counterbalance": 2836, "useragent": "Mozilla/5.0 (Windows NT 6.3; Win64; x64) AppleWebKit/537.36 (KHTML, like Gecko) Chrome/65.0.3325.146 Safari/537.36", "eventdata": [{"eventtype": "initialized", "interval": 0, "value": null, "timestamp": 1520525926201}, {"eventtype": "window_resize", "interval": 0, "value": [1916, 1025], "timestamp": 1520525926201}, {"eventtype": "focus", "interval": 260257, "value": "off", "timestamp": 1520526186458}, {"eventtype": "focus", "interval": 3779, "value": "on", "timestamp": 1520526190237}, {"eventtype": "focus", "interval": 1278423, "value": "off", "timestamp": 1520527468660}, {"eventtype": "focus", "interval": 8030, "value": "on", "timestamp": 1520527476690}, {"eventtype": "focus", "interval": 132161, "value": "off", "timestamp": 1520527608851}, {"eventtype": "focus", "interval": 18965, "value": "on", "timestamp": 1520527627816}, {"eventtype": "focus", "interval": 302791, "value": "off", "timestamp": 1520527930607}, {"eventtype": "focus", "interval": 3, "value": "on", "timestamp": 1520527930610}, {"eventtype": "focus", "interval": 116, "value": "off", "timestamp": 1520527930726}, {"eventtype": "focus", "interval": 105655, "value": "on", "timestamp": 1520528036381}, {"eventtype": "focus", "interval": 0, "value": "off", "timestamp": 1520528036381}, {"eventtype": "focus", "interval": 37290, "value": "on", "timestamp": 1520528073671}, {"eventtype": "focus", "interval": 110137, "value": "off", "timestamp": 1520528183808}, {"eventtype": "focus", "interval": 7485, "value": "on", "timestamp": 1520528191293}, {"eventtype": "focus", "interval": 8089, "value": "off", "timestamp": 1520528199382}, {"eventtype": "focus", "interval": 2850, "value": "on", "timestamp": 1520528202232}, {"eventtype": "focus", "interval": 2695, "value": "off", "timestamp": 1520528204927}, {"eventtype": "focus", "interval": 23020, "value": "on", "timestamp": 1520528227947}, {"eventtype": "focus", "interval": 556879, "value": "off", "timestamp": 1520528784826}, {"eventtype": "focus", "interval": 55000, "value": "on", "timestamp": 1520528839826}], "data": [{"current_trial": 0, "trialdata": {"rt": 2295, "trial_type": "text", "internal_node_id": "0.0-0.0", "time_elapsed": 2298, "key_press": 32, "type": "INSTRUCTIONS", "trial_index": 0}, "uniqueid": "MTK3405:3FQ5JJ512MV9EQKNEXBKQRVRWQ3NKE", "dateTime": 1520525936552}, {"current_trial": 1, "trialdata": {"rt": 1548, "trial_type": "text", "internal_node_id": "0.0-1.0", "time_elapsed": 3849, "key_press": 32, "type": "INSTRUCTIONS", "trial_index": 1}, "uniqueid": "MTK3405:3FQ5JJ512MV9EQKNEXBKQRVRWQ3NKE", "dateTime": 1520525938102}, {"current_trial": 2, "trialdata": {"rt": [7848], "trial_type": "audio-test", "responses": ["ocean"], "internal_node_id": "0.0-2.0", "time_elapsed": 11706, "type": "AUDIO_TEST", "trial_index": 2}, "uniqueid": "MTK3405:3FQ5JJ512MV9EQKNEXBKQRVRWQ3NKE", "dateTime": 1520525945959}, {"current_trial": 3, "trialdata": {"rt": [8906], "trial_type": "audio-test", "responses": ["crystal"], "internal_node_id": "0.0-3.0", "time_elapsed": 20617, "type": "AUDIO_TEST", "trial_index": 3}, "uniqueid": "MTK3405:3FQ5JJ512MV9EQKNEXBKQRVRWQ3NKE", "dateTime": 1520525954870}, {"current_trial": 4, "trialdata": {"rt": [5452], "trial_type": "audio-test", "responses": ["spice"], "internal_node_id": "0.0-4.0", "time_elapsed": 26073, "type": "AUDIO_TEST", "trial_index": 4}, "uniqueid": "MTK3405:3FQ5JJ512MV9EQKNEXBKQRVRWQ3NKE", "dateTime": 1520525960326}, {"current_trial": 5, "trialdata": {"rt": 52070, "trial_type": "survey-text", "responses": "{\"Q0\":\"10:30\",\"Q1\":\"5:15\",\"Q2\":\"5\"}", "internal_node_id": "0.0-5.0", "time_elapsed": 78897, "type": "SLEEP_SURVEY", "trial_index": 5}, "uniqueid": "MTK3405:3FQ5JJ512MV9EQKNEXBKQRVRWQ3NKE", "dateTime": 1520526013150}, {"current_trial": 6, "trialdata": {"rt": 105429, "trial_type": "text", "internal_node_id": "0.0-6.0", "time_elapsed": 185327, "key_press": 32, "type": "INSTRUCTIONS", "trial_index": 6}, "uniqueid": "MTK3405:3FQ5JJ512MV9EQKNEXBKQRVRWQ3NKE", "dateTime": 1520526119580}, {"current_trial": 7, "trialdata": {"rt": 48116, "trial_type": "text", "internal_node_id": "0.0-7.0", "time_elapsed": 233946, "key_press": 32, "type": "INSTRUCTIONS", "trial_index": 7}, "uniqueid": "MTK3405:3FQ5JJ512MV9EQKNEXBKQRVRWQ3NKE", "dateTime": 1520526168199}, {"current_trial": 8, "trialdata": {"rt": 31088, "trial_type": "text", "internal_node_id": "0.0-8.0", "time_elapsed": 265537, "key_press": 32, "type": "INSTRUCTIONS", "trial_index": 8}, "uniqueid": "MTK3405:3FQ5JJ512MV9EQKNEXBKQRVRWQ3NKE", "dateTime": 1520526199790}, {"current_trial": 9, "trialdata": {"rt": [5932, 15948], "trial_type": "math-distractor", "key_times": [2966, 3205, 5932, 11838, 11892, 15948, 17693, 17797], "responses": ["20", "21"], "num2": [6, 8, 7], "num3": [9, 9, 2], "conditions": [18, 1200, "a", 18000], "internal_node_id": "0.0-9.0", "key_presses": [98, 96, 13, 98, 97, 13, 97, 98], "trial": 0, "time_elapsed": 284556, "type": "DISTRACTOR", "trial_index": 9, "num1": [5, 4, 3]}, "uniqueid": "MTK3405:3FQ5JJ512MV9EQKNEXBKQRVRWQ3NKE", "dateTime": 1520526218809}, {"current_trial": 10, "trialdata": {"rt": -1, "trial_type": "single-stim", "stimulus": "<p id=\"stim\">10</p>", "internal_node_id": "0.0-10.0-0.0", "time_elapsed": 287559, "key_press": -1, "trial_index": 10}, "uniqueid": "MTK3405:3FQ5JJ512MV9EQKNEXBKQRVRWQ3NKE", "dateTime": 1520526221812}, {"current_trial": 11, "trialdata": {"rt": -1, "trial_type": "single-stim", "stimulus": "<p id=\"stim\">9</p>", "internal_node_id": "0.0-10.0-1.0", "time_elapsed": 288561, "key_press": -1, "trial_index": 11}, "uniqueid": "MTK3405:3FQ5JJ512MV9EQKNEXBKQRVRWQ3NKE", "dateTime": 1520526222814}, {"current_trial": 12, "trialdata": {"rt": -1, "trial_type": "single-stim", "stimulus": "<p id=\"stim\">8</p>", "internal_node_id": "0.0-10.0-2.0", "time_elapsed": 289564, "key_press": -1, "trial_index": 12}, "uniqueid": "MTK3405:3FQ5JJ512MV9EQKNEXBKQRVRWQ3NKE", "dateTime": 1520526223817}, {"current_trial": 13, "trialdata": {"rt": -1, "trial_type": "single-stim", "stimulus": "<p id=\"stim\">7</p>", "internal_node_id": "0.0-10.0-3.0", "time_elapsed": 290567, "key_press": -1, "trial_index": 13}, "uniqueid": "MTK3405:3FQ5JJ512MV9EQKNEXBKQRVRWQ3NKE", "dateTime": 1520526224820}, {"current_trial": 14, "trialdata": {"rt": -1, "trial_type": "single-stim", "stimulus": "<p id=\"stim\">6</p>", "internal_node_id": "0.0-10.0-4.0", "time_elapsed": 291569, "key_press": -1, "trial_index": 14}, "uniqueid": "MTK3405:3FQ5JJ512MV9EQKNEXBKQRVRWQ3NKE", "dateTime": 1520526225822}, {"current_trial": 15, "trialdata": {"rt": -1, "trial_type": "single-stim", "stimulus": "<p id=\"stim\">5</p>", "internal_node_id": "0.0-10.0-5.0", "time_elapsed": 292574, "key_press": -1, "trial_index": 15}, "uniqueid": "MTK3405:3FQ5JJ512MV9EQKNEXBKQRVRWQ3NKE", "dateTime": 1520526226827}, {"current_trial": 16, "trialdata": {"rt": -1, "trial_type": "single-stim", "stimulus": "<p id=\"stim\">4</p>", "internal_node_id": "0.0-10.0-6.0", "time_elapsed": 293599, "key_press": -1, "trial_index": 16}, "uniqueid": "MTK3405:3FQ5JJ512MV9EQKNEXBKQRVRWQ3NKE", "dateTime": 1520526227852}, {"current_trial": 17, "trialdata": {"rt": -1, "trial_type": "single-stim", "stimulus": "<p id=\"stim\">3</p>", "internal_node_id": "0.0-10.0-7.0", "time_elapsed": 294601, "key_press": -1, "trial_index": 17}, "uniqueid": "MTK3405:3FQ5JJ512MV9EQKNEXBKQRVRWQ3NKE", "dateTime": 1520526228855}, {"current_trial": 18, "trialdata": {"rt": -1, "trial_type": "single-stim", "stimulus": "<p id=\"stim\">2</p>", "internal_node_id": "0.0-10.0-8.0", "time_elapsed": 295604, "key_press": -1, "trial_index": 18}, "uniqueid": "MTK3405:3FQ5JJ512MV9EQKNEXBKQRVRWQ3NKE", "dateTime": 1520526229857}, {"current_trial": 19, "trialdata": {"rt": -1, "trial_type": "single-stim", "stimulus": "<p id=\"stim\">1</p>", "internal_node_id": "0.0-10.0-9.0", "time_elapsed": 296607, "key_press": -1, "trial_index": 19}, "uniqueid": "MTK3405:3FQ5JJ512MV9EQKNEXBKQRVRWQ3NKE", "dateTime": 1520526230860}, {"current_trial": 20, "trialdata": {"rt": -1, "trial_type": "single-stim", "stimulus": "<p id=\"stim\">+</p>", "internal_node_id": "0.0-11.0-0.0", "time_elapsed": 298108, "key_press": -1, "type": "FIXATION", "trial_index": 20}, "uniqueid": "MTK3405:3FQ5JJ512MV9EQKNEXBKQRVRWQ3NKE", "dateTime": 1520526232362}, {"current_trial": 21, "trialdata": {"rt": -1000, "trial_type": "single-audio", "word": "diner", "stimulus": "/static/audio/wordpool/DINER.wav", "conditions": [18, 1200, "a", 18000], "internal_node_id": "0.0-12.0", "trial": 0, "time_elapsed": 300342, "serialpos": 0, "key_press": -1, "wordID": 466, "type": "PRES_AUD", "trial_index": 21}, "uniqueid": "MTK3405:3FQ5JJ512MV9EQKNEXBKQRVRWQ3NKE", "dateTime": 1520526234596}, {"current_trial": 22, "trialdata": {"rt": -1000, "trial_type": "single-audio", "word": "banquet", "stimulus": "/static/audio/wordpool/BANQUET.wav", "conditions": [18, 1200, "a", 18000], "internal_node_id": "0.0-13.0", "trial": 0, "time_elapsed": 302735, "serialpos": 1, "key_press": -1, "wordID": 85, "type": "PRES_AUD", "trial_index": 22}, "uniqueid": "MTK3405:3FQ5JJ512MV9EQKNEXBKQRVRWQ3NKE", "dateTime": 1520526236988}, {"current_trial": 23, "trialdata": {"rt": -1000, "trial_type": "single-audio", "word": "helmet", "stimulus": "/static/audio/wordpool/HELMET.wav", "conditions": [18, 1200, "a", 18000], "internal_node_id": "0.0-14.0", "trial": 0, "time_elapsed": 305086, "serialpos": 2, "key_press": -1, "wordID": 701, "type": "PRES_AUD", "trial_index": 23}, "uniqueid": "MTK3405:3FQ5JJ512MV9EQKNEXBKQRVRWQ3NKE", "dateTime": 1520526239339}, {"current_trial": 24, "trialdata": {"rt": -1000, "trial_type": "single-audio", "word": "gavel", "stimulus": "/static/audio/wordpool/GAVEL.wav", "conditions": [18, 1200, "a", 18000], "internal_node_id": "0.0-15.0", "trial": 0, "time_elapsed": 307298, "serialpos": 3, "key_press": -1, "wordID": 626, "type": "PRES_AUD", "trial_index": 24}, "uniqueid": "MTK3405:3FQ5JJ512MV9EQKNEXBKQRVRWQ3NKE", "dateTime": 1520526241551}, {"current_trial": 25, "trialdata": {"rt": -1000, "trial_type": "single-audio", "word": "branch", "stimulus": "/static/audio/wordpool/BRANCH.wav", "conditions": [18, 1200, "a", 18000], "internal_node_id": "0.0-16.0", "trial": 0, "time_elapsed": 309542, "serialpos": 4, "key_press": -1, "wordID": 167, "type": "PRES_AUD", "trial_index": 25}, "uniqueid": "MTK3405:3FQ5JJ512MV9EQKNEXBKQRVRWQ3NKE", "dateTime": 1520526243796}, {"current_trial": 26, "trialdata": {"rt": -1000, "trial_type": "single-audio", "word": "apron", "stimulus": "/static/audio/wordpool/APRON.wav", "conditions": [18, 1200, "a", 18000], "internal_node_id": "0.0-17.0", "trial": 0, "time_elapsed": 311645, "serialpos": 5, "key_press": -1, "wordID": 34, "type": "PRES_AUD", "trial_index": 26}, "uniqueid": "MTK3405:3FQ5JJ512MV9EQKNEXBKQRVRWQ3NKE", "dateTime": 1520526245898}, {"current_trial": 27, "trialdata": {"rt": -1000, "trial_type": "single-audio", "word": "hornet", "stimulus": "/static/audio/wordpool/HORNET.wav", "conditions": [18, 1200, "a", 18000], "internal_node_id": "0.0-18.0", "trial": 0, "time_elapsed": 313784, "serialpos": 6, "key_press": -1, "wordID": 717, "type": "PRES_AUD", "trial_index": 27}, "uniqueid": "MTK3405:3FQ5JJ512MV9EQKNEXBKQRVRWQ3NKE", "dateTime": 1520526248037}, {"current_trial": 28, "trialdata": {"rt": -1000, "trial_type": "single-audio", "word": "rattle", "stimulus": "/static/audio/wordpool/RATTLE.wav", "conditions": [18, 1200, "a", 18000], "internal_node_id": "0.0-19.0", "trial": 0, "time_elapsed": 316157, "serialpos": 7, "key_press": -1, "wordID": 1169, "type": "PRES_AUD", "trial_index": 28}, "uniqueid": "MTK3405:3FQ5JJ512MV9EQKNEXBKQRVRWQ3NKE", "dateTime": 1520526250410}, {"current_trial": 29, "trialdata": {"rt": -1000, "trial_type": "single-audio", "word": "sandwich", "stimulus": "/static/audio/wordpool/SANDWICH.wav", "conditions": [18, 1200, "a", 18000], "internal_node_id": "0.0-20.0", "trial": 0, "time_elapsed": 318445, "serialpos": 8, "key_press": -1, "wordID": 1231, "type": "PRES_AUD", "trial_index": 29}, "uniqueid": "MTK3405:3FQ5JJ512MV9EQKNEXBKQRVRWQ3NKE", "dateTime": 1520526252699}, {"current_trial": 30, "trialdata": {"rt": -1000, "trial_type": "single-audio", "word": "antler", "stimulus": "/static/audio/wordpool/ANTLER.wav", "conditions": [18, 1200, "a", 18000], "internal_node_id": "0.0-21.0", "trial": 0, "time_elapsed": 320462, "serialpos": 9, "key_press": -1, "wordID": 28, "type": "PRES_AUD", "trial_index": 30}, "uniqueid": "MTK3405:3FQ5JJ512MV9EQKNEXBKQRVRWQ3NKE", "dateTime": 1520526254715}, {"current_trial": 31, "trialdata": {"rt": -1000, "trial_type": "single-audio", "word": "dust", "stimulus": "/static/audio/wordpool/DUST.wav", "conditions": [18, 1200, "a", 18000], "internal_node_id": "0.0-22.0", "trial": 0, "time_elapsed": 322612, "serialpos": 10, "key_press": -1, "wordID": 507, "type": "PRES_AUD", "trial_index": 31}, "uniqueid": "MTK3405:3FQ5JJ512MV9EQKNEXBKQRVRWQ3NKE", "dateTime": 1520526256865}, {"current_trial": 32, "trialdata": {"rt": -1000, "trial_type": "single-audio", "word": "barrel", "stimulus": "/static/audio/wordpool/BARREL.wav", "conditions": [18, 1200, "a", 18000], "internal_node_id": "0.0-23.0", "trial": 0, "time_elapsed": 325006, "serialpos": 11, "key_press": -1, "wordID": 90, "type": "PRES_AUD", "trial_index": 32}, "uniqueid": "MTK3405:3FQ5JJ512MV9EQKNEXBKQRVRWQ3NKE", "dateTime": 1520526259259}, {"current_trial": 33, "trialdata": {"rt": -1000, "trial_type": "single-audio", "word": "pasta", "stimulus": "/static/audio/wordpool/PASTA.wav", "conditions": [18, 1200, "a", 18000], "internal_node_id": "0.0-24.0", "trial": 0, "time_elapsed": 327102, "serialpos": 12, "key_press": -1, "wordID": 1020, "type": "PRES_AUD", "trial_index": 33}, "uniqueid": "MTK3405:3FQ5JJ512MV9EQKNEXBKQRVRWQ3NKE", "dateTime": 1520526261355}, {"current_trial": 34, "trialdata": {"rt": -1000, "trial_type": "single-audio", "word": "salt", "stimulus": "/static/audio/wordpool/SALT.wav", "conditions": [18, 1200, "a", 18000], "internal_node_id": "0.0-25.0", "trial": 0, "time_elapsed": 329200, "serialpos": 13, "key_press": -1, "wordID": 1228, "type": "PRES_AUD", "trial_index": 34}, "uniqueid": "MTK3405:3FQ5JJ512MV9EQKNEXBKQRVRWQ3NKE", "dateTime": 1520526263453}, {"current_trial": 35, "trialdata": {"rt": -1000, "trial_type": "single-audio", "word": "quarter", "stimulus": "/static/audio/wordpool/QUARTER.wav", "conditions": [18, 1200, "a", 18000], "internal_node_id": "0.0-26.0", "trial": 0, "time_elapsed": 331248, "serialpos": 14, "key_press": -1, "wordID": 1147, "type": "PRES_AUD", "trial_index": 35}, "uniqueid": "MTK3405:3FQ5JJ512MV9EQKNEXBKQRVRWQ3NKE", "dateTime": 1520526265501}, {"current_trial": 36, "trialdata": {"rt": -1000, "trial_type": "single-audio", "word": "rebel", "stimulus": "/static/audio/wordpool/REBEL.wav", "conditions": [18, 1200, "a", 18000], "internal_node_id": "0.0-27.0", "trial": 0, "time_elapsed": 333646, "serialpos": 15, "key_press": -1, "wordID": 1171, "type": "PRES_AUD", "trial_index": 36}, "uniqueid": "MTK3405:3FQ5JJ512MV9EQKNEXBKQRVRWQ3NKE", "dateTime": 1520526267899}, {"current_trial": 37, "trialdata": {"rt": -1000, "trial_type": "single-audio", "word": "mattress", "stimulus": "/static/audio/wordpool/MATTRESS.wav", "conditions": [18, 1200, "a", 18000], "internal_node_id": "0.0-28.0", "trial": 0, "time_elapsed": 335952, "serialpos": 16, "key_press": -1, "wordID": 878, "type": "PRES_AUD", "trial_index": 37}, "uniqueid": "MTK3405:3FQ5JJ512MV9EQKNEXBKQRVRWQ3NKE", "dateTime": 1520526270205}, {"current_trial": 38, "trialdata": {"rt": -1000, "trial_type": "single-audio", "word": "dolphin", "stimulus": "/static/audio/wordpool/DOLPHIN.wav", "conditions": [18, 1200, "a", 18000], "internal_node_id": "0.0-29.0", "trial": 0, "time_elapsed": 338103, "serialpos": 17, "key_press": -1, "wordID": 482, "type": "PRES_AUD", "trial_index": 38}, "uniqueid": "MTK3405:3FQ5JJ512MV9EQKNEXBKQRVRWQ3NKE", "dateTime": 1520526272357}, {"current_trial": 39, "trialdata": {"rt": -1, "trial_type": "single-stim", "stimulus": "", "internal_node_id": "0.0-30.0-0.0", "time_elapsed": 339504, "key_press": -1, "type": "PRE_RECALL_DELAY", "trial_index": 39}, "uniqueid": "MTK3405:3FQ5JJ512MV9EQKNEXBKQRVRWQ3NKE", "dateTime": 1520526273757}, {"current_trial": 40, "trialdata": {"rt": -1000, "trial_type": "single-audio", "stimulus": "/static/audio/400Hz.wav", "internal_node_id": "0.0-31.0", "time_elapsed": 340005, "key_press": -1, "type": "PRE_RECALL_ALERT", "trial_index": 40}, "uniqueid": "MTK3405:3FQ5JJ512MV9EQKNEXBKQRVRWQ3NKE", "dateTime": 1520526274258}, {"current_trial": 41, "trialdata": {"rt": [8704, 14463, 27487, 33295, 39319, 43712, 45703, 49031, 55951], "recwords": ["dolphin", "mattress", "dinner", "helmet", "apron", "rattle", "branch", "sandwich", "barrel"], "key_times": [6289, 6392, 6848, 7151, 7352, 7447, 7631, 8704, 9784, 9903, 10104, 10656, 10871, 11143, 11279, 11826, 11999, 12298, 12591, 12719, 14463, 26489, 26591, 26807, 26944, 27048, 27143, 27487, 30952, 31072, 31192, 31480, 31559, 31736, 33295, 37832, 37951, 38095, 38536, 38640, 39319, 42239, 42552, 42839, 42951, 43175, 43336, 43712, 43992, 44096, 44407, 44663, 45255, 45351, 45703, 46327, 46503, 46623, 46864, 47272, 47407, 47568, 47648, 49031, 51935, 52264, 52567, 52759, 53160, 53320, 55951, 58728, 59472, 59959], "trial_type": "free-recall", "conditions": [18, 1200, "a", 18000], "internal_node_id": "0.0-32.0-0.0", "key_presses": [68, 79, 76, 80, 72, 73, 78, 13, 77, 65, 84, 84, 82, 73, 83, 8, 8, 69, 83, 83, 13, 68, 73, 78, 78, 69, 82, 13, 72, 69, 76, 77, 69, 84, 13, 65, 80, 82, 79, 78, 13, 82, 65, 84, 84, 76, 69, 13, 66, 82, 65, 78, 67, 72, 13, 83, 65, 78, 68, 87, 73, 67, 72, 13, 66, 65, 82, 82, 69, 76, 13, 81, 89, 8], "trial": 0, "time_elapsed": 400011, "type": "FREE_RECALL", "trial_index": 41}, "uniqueid": "MTK3405:3FQ5JJ512MV9EQKNEXBKQRVRWQ3NKE", "dateTime": 1520526334266}, {"current_trial": 42, "trialdata": {"rt": 14248, "trial_type": "text", "internal_node_id": "0.0-33.0", "time_elapsed": 416263, "key_press": 32, "type": "INSTRUCTIONS", "trial_index": 42}, "uniqueid": "MTK3405:3FQ5JJ512MV9EQKNEXBKQRVRWQ3NKE", "dateTime": 1520526350517}, {"current_trial": 43, "trialdata": {"rt": [3551, 6975, 12039, 14246, 16199], "trial_type": "math-distractor", "key_times": [1840, 1879, 3551, 5895, 6103, 6975, 11528, 11671, 12039, 13520, 13671, 14246, 15623, 15831, 16199, 17983], "responses": ["12", "19", "11", "15", "18"], "num2": [2, 4, 4, 2, 7, 1], "num3": [5, 9, 6, 5, 8, 5], "conditions": [18, 1200, "a", 18000], "internal_node_id": "0.0-34.0", "key_presses": [97, 98, 13, 97, 105, 13, 97, 97, 13, 97, 101, 13, 97, 104, 13, 97], "trial": 1, "time_elapsed": 436273, "type": "DISTRACTOR", "trial_index": 43, "num1": [5, 6, 1, 8, 3, 8]}, "uniqueid": "MTK3405:3FQ5JJ512MV9EQKNEXBKQRVRWQ3NKE", "dateTime": 1520526370527}, {"current_trial": 44, "trialdata": {"rt": -1, "trial_type": "single-stim", "stimulus": "<p id=\"stim\">10</p>", "internal_node_id": "0.0-35.0-0.0", "time_elapsed": 439277, "key_press": -1, "trial_index": 44}, "uniqueid": "MTK3405:3FQ5JJ512MV9EQKNEXBKQRVRWQ3NKE", "dateTime": 1520526373530}, {"current_trial": 45, "trialdata": {"rt": -1, "trial_type": "single-stim", "stimulus": "<p id=\"stim\">9</p>", "internal_node_id": "0.0-35.0-1.0", "time_elapsed": 440278, "key_press": -1, "trial_index": 45}, "uniqueid": "MTK3405:3FQ5JJ512MV9EQKNEXBKQRVRWQ3NKE", "dateTime": 1520526374531}, {"current_trial": 46, "trialdata": {"rt": -1, "trial_type": "single-stim", "stimulus": "<p id=\"stim\">8</p>", "internal_node_id": "0.0-35.0-2.0", "time_elapsed": 441280, "key_press": -1, "trial_index": 46}, "uniqueid": "MTK3405:3FQ5JJ512MV9EQKNEXBKQRVRWQ3NKE", "dateTime": 1520526375534}, {"current_trial": 47, "trialdata": {"rt": -1, "trial_type": "single-stim", "stimulus": "<p id=\"stim\">7</p>", "internal_node_id": "0.0-35.0-3.0", "time_elapsed": 442282, "key_press": -1, "trial_index": 47}, "uniqueid": "MTK3405:3FQ5JJ512MV9EQKNEXBKQRVRWQ3NKE", "dateTime": 1520526376536}, {"current_trial": 48, "trialdata": {"rt": -1, "trial_type": "single-stim", "stimulus": "<p id=\"stim\">6</p>", "internal_node_id": "0.0-35.0-4.0", "time_elapsed": 443283, "key_press": -1, "trial_index": 48}, "uniqueid": "MTK3405:3FQ5JJ512MV9EQKNEXBKQRVRWQ3NKE", "dateTime": 1520526377536}, {"current_trial": 49, "trialdata": {"rt": -1, "trial_type": "single-stim", "stimulus": "<p id=\"stim\">5</p>", "internal_node_id": "0.0-35.0-5.0", "time_elapsed": 444286, "key_press": -1, "trial_index": 49}, "uniqueid": "MTK3405:3FQ5JJ512MV9EQKNEXBKQRVRWQ3NKE", "dateTime": 1520526378539}, {"current_trial": 50, "trialdata": {"rt": -1, "trial_type": "single-stim", "stimulus": "<p id=\"stim\">4</p>", "internal_node_id": "0.0-35.0-6.0", "time_elapsed": 445289, "key_press": -1, "trial_index": 50}, "uniqueid": "MTK3405:3FQ5JJ512MV9EQKNEXBKQRVRWQ3NKE", "dateTime": 1520526379543}, {"current_trial": 51, "trialdata": {"rt": -1, "trial_type": "single-stim", "stimulus": "<p id=\"stim\">3</p>", "internal_node_id": "0.0-35.0-7.0", "time_elapsed": 446292, "key_press": -1, "trial_index": 51}, "uniqueid": "MTK3405:3FQ5JJ512MV9EQKNEXBKQRVRWQ3NKE", "dateTime": 1520526380545}, {"current_trial": 52, "trialdata": {"rt": -1, "trial_type": "single-stim", "stimulus": "<p id=\"stim\">2</p>", "internal_node_id": "0.0-35.0-8.0", "time_elapsed": 447294, "key_press": -1, "trial_index": 52}, "uniqueid": "MTK3405:3FQ5JJ512MV9EQKNEXBKQRVRWQ3NKE", "dateTime": 1520526381548}, {"current_trial": 53, "trialdata": {"rt": -1, "trial_type": "single-stim", "stimulus": "<p id=\"stim\">1</p>", "internal_node_id": "0.0-35.0-9.0", "time_elapsed": 448297, "key_press": -1, "trial_index": 53}, "uniqueid": "MTK3405:3FQ5JJ512MV9EQKNEXBKQRVRWQ3NKE", "dateTime": 1520526382550}, {"current_trial": 54, "trialdata": {"rt": -1, "trial_type": "single-stim", "stimulus": "<p id=\"stim\">+</p>", "internal_node_id": "0.0-36.0-0.0", "time_elapsed": 449798, "key_press": -1, "type": "FIXATION", "trial_index": 54}, "uniqueid": "MTK3405:3FQ5JJ512MV9EQKNEXBKQRVRWQ3NKE", "dateTime": 1520526384051}, {"current_trial": 55, "trialdata": {"rt": -1000, "trial_type": "single-audio", "word": "cashier", "stimulus": "/static/audio/wordpool/CASHIER.wav", "conditions": [18, 1200, "a", 18000], "internal_node_id": "0.0-37.0", "trial": 1, "time_elapsed": 451979, "serialpos": 0, "key_press": -1, "wordID": 253, "type": "PRES_AUD", "trial_index": 55}, "uniqueid": "MTK3405:3FQ5JJ512MV9EQKNEXBKQRVRWQ3NKE", "dateTime": 1520526386233}, {"current_trial": 56, "trialdata": {"rt": -1000, "trial_type": "single-audio", "word": "crevice", "stimulus": "/static/audio/wordpool/CREVICE.wav", "conditions": [18, 1200, "a", 18000], "internal_node_id": "0.0-38.0", "trial": 1, "time_elapsed": 454124, "serialpos": 1, "key_press": -1, "wordID": 404, "type": "PRES_AUD", "trial_index": 56}, "uniqueid": "MTK3405:3FQ5JJ512MV9EQKNEXBKQRVRWQ3NKE", "dateTime": 1520526388377}, {"current_trial": 57, "trialdata": {"rt": -1000, "trial_type": "single-audio", "word": "ketchup", "stimulus": "/static/audio/wordpool/KETCHUP.wav", "conditions": [18, 1200, "a", 18000], "internal_node_id": "0.0-39.0", "trial": 1, "time_elapsed": 456384, "serialpos": 2, "key_press": -1, "wordID": 770, "type": "PRES_AUD", "trial_index": 57}, "uniqueid": "MTK3405:3FQ5JJ512MV9EQKNEXBKQRVRWQ3NKE", "dateTime": 1520526390637}, {"current_trial": 58, "trialdata": {"rt": -1000, "trial_type": "single-audio", "word": "creature", "stimulus": "/static/audio/wordpool/CREATURE.wav", "conditions": [18, 1200, "a", 18000], "internal_node_id": "0.0-40.0", "trial": 1, "time_elapsed": 458776, "serialpos": 3, "key_press": -1, "wordID": 402, "type": "PRES_AUD", "trial_index": 58}, "uniqueid": "MTK3405:3FQ5JJ512MV9EQKNEXBKQRVRWQ3NKE", "dateTime": 1520526393029}, {"current_trial": 59, "trialdata": {"rt": -1000, "trial_type": "single-audio", "word": "hand", "stimulus": "/static/audio/wordpool/HAND.wav", "conditions": [18, 1200, "a", 18000], "internal_node_id": "0.0-41.0", "trial": 1, "time_elapsed": 461059, "serialpos": 4, "key_press": -1, "wordID": 682, "type": "PRES_AUD", "trial_index": 59}, "uniqueid": "MTK3405:3FQ5JJ512MV9EQKNEXBKQRVRWQ3NKE", "dateTime": 1520526395312}, {"current_trial": 60, "trialdata": {"rt": -1000, "trial_type": "single-audio", "word": "subway", "stimulus": "/static/audio/wordpool/SUBWAY.wav", "conditions": [18, 1200, "a", 18000], "internal_node_id": "0.0-42.0", "trial": 1, "time_elapsed": 463284, "serialpos": 5, "key_press": -1, "wordID": 1399, "type": "PRES_AUD", "trial_index": 60}, "uniqueid": "MTK3405:3FQ5JJ512MV9EQKNEXBKQRVRWQ3NKE", "dateTime": 1520526397537}, {"current_trial": 61, "trialdata": {"rt": -1000, "trial_type": "single-audio", "word": "liver", "stimulus": "/static/audio/wordpool/LIVER.wav", "conditions": [18, 1200, "a", 18000], "internal_node_id": "0.0-43.0", "trial": 1, "time_elapsed": 465467, "serialpos": 6, "key_press": -1, "wordID": 832, "type": "PRES_AUD", "trial_index": 61}, "uniqueid": "MTK3405:3FQ5JJ512MV9EQKNEXBKQRVRWQ3NKE", "dateTime": 1520526399721}, {"current_trial": 62, "trialdata": {"rt": -1000, "trial_type": "single-audio", "word": "princess", "stimulus": "/static/audio/wordpool/PRINCESS.wav", "conditions": [18, 1200, "a", 18000], "internal_node_id": "0.0-44.0", "trial": 1, "time_elapsed": 467475, "serialpos": 7, "key_press": -1, "wordID": 1124, "type": "PRES_AUD", "trial_index": 62}, "uniqueid": "MTK3405:3FQ5JJ512MV9EQKNEXBKQRVRWQ3NKE", "dateTime": 1520526401728}, {"current_trial": 63, "trialdata": {"rt": -1000, "trial_type": "single-audio", "word": "girl", "stimulus": "/static/audio/wordpool/GIRL.wav", "conditions": [18, 1200, "a", 18000], "internal_node_id": "0.0-45.0", "trial": 1, "time_elapsed": 469805, "serialpos": 8, "key_press": -1, "wordID": 636, "type": "PRES_AUD", "trial_index": 63}, "uniqueid": "MTK3405:3FQ5JJ512MV9EQKNEXBKQRVRWQ3NKE", "dateTime": 1520526404058}, {"current_trial": 64, "trialdata": {"rt": -1000, "trial_type": "single-audio", "word": "picnic", "stimulus": "/static/audio/wordpool/PICNIC.wav", "conditions": [18, 1200, "a", 18000], "internal_node_id": "0.0-46.0", "trial": 1, "time_elapsed": 472149, "serialpos": 9, "key_press": -1, "wordID": 1059, "type": "PRES_AUD", "trial_index": 64}, "uniqueid": "MTK3405:3FQ5JJ512MV9EQKNEXBKQRVRWQ3NKE", "dateTime": 1520526406402}, {"current_trial": 65, "trialdata": {"rt": -1000, "trial_type": "single-audio", "word": "valley", "stimulus": "/static/audio/wordpool/VALLEY.wav", "conditions": [18, 1200, "a", 18000], "internal_node_id": "0.0-47.0", "trial": 1, "time_elapsed": 474204, "serialpos": 10, "key_press": -1, "wordID": 1544, "type": "PRES_AUD", "trial_index": 65}, "uniqueid": "MTK3405:3FQ5JJ512MV9EQKNEXBKQRVRWQ3NKE", "dateTime": 1520526408457}, {"current_trial": 66, "trialdata": {"rt": -1000, "trial_type": "single-audio", "word": "college", "stimulus": "/static/audio/wordpool/COLLEGE.wav", "conditions": [18, 1200, "a", 18000], "internal_node_id": "0.0-48.0", "trial": 1, "time_elapsed": 476314, "serialpos": 11, "key_press": -1, "wordID": 345, "type": "PRES_AUD", "trial_index": 66}, "uniqueid": "MTK3405:3FQ5JJ512MV9EQKNEXBKQRVRWQ3NKE", "dateTime": 1520526410567}, {"current_trial": 67, "trialdata": {"rt": -1000, "trial_type": "single-audio", "word": "cattle", "stimulus": "/static/audio/wordpool/CATTLE.wav", "conditions": [18, 1200, "a", 18000], "internal_node_id": "0.0-49.0", "trial": 1, "time_elapsed": 478668, "serialpos": 12, "key_press": -1, "wordID": 260, "type": "PRES_AUD", "trial_index": 67}, "uniqueid": "MTK3405:3FQ5JJ512MV9EQKNEXBKQRVRWQ3NKE", "dateTime": 1520526412921}, {"current_trial": 68, "trialdata": {"rt": -1000, "trial_type": "single-audio", "word": "glove", "stimulus": "/static/audio/wordpool/GLOVE.wav", "conditions": [18, 1200, "a", 18000], "internal_node_id": "0.0-50.0", "trial": 1, "time_elapsed": 480850, "serialpos": 13, "key_press": -1, "wordID": 641, "type": "PRES_AUD", "trial_index": 68}, "uniqueid": "MTK3405:3FQ5JJ512MV9EQKNEXBKQRVRWQ3NKE", "dateTime": 1520526415110}, {"current_trial": 69, "trialdata": {"rt": -1000, "trial_type": "single-audio", "word": "keeper", "stimulus": "/static/audio/wordpool/KEEPER.wav", "conditions": [18, 1200, "a", 18000], "internal_node_id": "0.0-51.0", "trial": 1, "time_elapsed": 483178, "serialpos": 14, "key_press": -1, "wordID": 768, "type": "PRES_AUD", "trial_index": 69}, "uniqueid": "MTK3405:3FQ5JJ512MV9EQKNEXBKQRVRWQ3NKE", "dateTime": 1520526417431}, {"current_trial": 70, "trialdata": {"rt": -1000, "trial_type": "single-audio", "word": "suitcase", "stimulus": "/static/audio/wordpool/SUITCASE.wav", "conditions": [18, 1200, "a", 18000], "internal_node_id": "0.0-52.0", "trial": 1, "time_elapsed": 485468, "serialpos": 15, "key_press": -1, "wordID": 1402, "type": "PRES_AUD", "trial_index": 70}, "uniqueid": "MTK3405:3FQ5JJ512MV9EQKNEXBKQRVRWQ3NKE", "dateTime": 1520526419721}, {"current_trial": 71, "trialdata": {"rt": -1000, "trial_type": "single-audio", "word": "servant", "stimulus": "/static/audio/wordpool/SERVANT.wav", "conditions": [18, 1200, "a", 18000], "internal_node_id": "0.0-53.0", "trial": 1, "time_elapsed": 487780, "serialpos": 16, "key_press": -1, "wordID": 1270, "type": "PRES_AUD", "trial_index": 71}, "uniqueid": "MTK3405:3FQ5JJ512MV9EQKNEXBKQRVRWQ3NKE", "dateTime": 1520526422033}, {"current_trial": 72, "trialdata": {"rt": -1000, "trial_type": "single-audio", "word": "binder", "stimulus": "/static/audio/wordpool/BINDER.wav", "conditions": [18, 1200, "a", 18000], "internal_node_id": "0.0-54.0", "trial": 1, "time_elapsed": 489860, "serialpos": 17, "key_press": -1, "wordID": 126, "type": "PRES_AUD", "trial_index": 72}, "uniqueid": "MTK3405:3FQ5JJ512MV9EQKNEXBKQRVRWQ3NKE", "dateTime": 1520526424113}, {"current_trial": 73, "trialdata": {"rt": -1, "trial_type": "single-stim", "stimulus": "", "internal_node_id": "0.0-55.0-0.0", "time_elapsed": 491203, "key_press": -1, "type": "PRE_RECALL_DELAY", "trial_index": 73}, "uniqueid": "MTK3405:3FQ5JJ512MV9EQKNEXBKQRVRWQ3NKE", "dateTime": 1520526425456}, {"current_trial": 74, "trialdata": {"rt": -1000, "trial_type": "single-audio", "stimulus": "/static/audio/400Hz.wav", "internal_node_id": "0.0-56.0", "time_elapsed": 491704, "key_press": -1, "type": "PRE_RECALL_ALERT", "trial_index": 74}, "uniqueid": "MTK3405:3FQ5JJ512MV9EQKNEXBKQRVRWQ3NKE", "dateTime": 1520526425958}, {"current_trial": 75, "trialdata": {"rt": [2724, 5803, 7556, 12932, 15076, 22820, 29859, 36068, 42492, 52404], "recwords": ["binder", "suitcase", "glove", "college", "liver", "hand", "keeper", "catchup", "subway", "girl"], "key_times": [1141, 1366, 1451, 1749, 1988, 2108, 2724, 3564, 3684, 3787, 3924, 4389, 4603, 4724, 4964, 5803, 6532, 6588, 6780, 6843, 7020, 7556, 9439, 9463, 10027, 10180, 10236, 10444, 11020, 11172, 11513, 11685, 11919, 12060, 12196, 12364, 12468, 12932, 13933, 14132, 14252, 14501, 14636, 15076, 16596, 17316, 18108, 19380, 22820, 25339, 25740, 25939, 26108, 26829, 27229, 29859, 30724, 30956, 31212, 31572, 31692, 32180, 32284, 36068, 40293, 40533, 40796, 41012, 41133, 41309, 42492, 50077, 50261, 50612, 51036, 52404], "trial_type": "free-recall", "conditions": [18, 1200, "a", 18000], "internal_node_id": "0.0-57.0-0.0", "key_presses": [66, 73, 78, 68, 69, 82, 13, 83, 85, 73, 84, 67, 65, 83, 69, 13, 71, 76, 79, 86, 69, 13, 79, 86, 8, 8, 86, 79, 8, 8, 67, 79, 76, 76, 69, 71, 69, 13, 76, 73, 86, 69, 82, 13, 72, 65, 78, 68, 13, 75, 69, 69, 80, 69, 82, 13, 67, 65, 84, 67, 72, 85, 80, 13, 83, 85, 66, 87, 65, 89, 13, 71, 73, 82, 76, 13], "trial": 1, "time_elapsed": 551710, "type": "FREE_RECALL", "trial_index": 75}, "uniqueid": "MTK3405:3FQ5JJ512MV9EQKNEXBKQRVRWQ3NKE", "dateTime": 1520526485966}, {"current_trial": 76, "trialdata": {"rt": 20811, "trial_type": "text", "internal_node_id": "0.0-58.0", "time_elapsed": 574529, "key_press": 32, "type": "INSTRUCTIONS", "trial_index": 76}, "uniqueid": "MTK3405:3FQ5JJ512MV9EQKNEXBKQRVRWQ3NKE", "dateTime": 1520526508782}, {"current_trial": 77, "trialdata": {"rt": [2465, 8833, 11313, 14728, 18177, 20216], "trial_type": "math-distractor", "key_times": [1993, 2074, 2465, 8250, 8369, 8833, 10946, 11313, 14057, 14225, 14728, 17673, 17833, 18177, 19593, 19737, 20216], "responses": ["12", "23", "9", "20", "14", "11"], "num2": [4, 6, 3, 8, 7, 6, 3], "num3": [6, 9, 5, 3, 5, 1, 8], "conditions": [24, 1600, "a", 24000], "internal_node_id": "0.0-59.0", "key_presses": [97, 98, 13, 98, 99, 13, 105, 13, 98, 96, 13, 97, 100, 13, 97, 97, 13], "trial": 2, "time_elapsed": 599535, "type": "DISTRACTOR", "trial_index": 77, "num1": [2, 8, 1, 9, 2, 4, 9]}, "uniqueid": "MTK3405:3FQ5JJ512MV9EQKNEXBKQRVRWQ3NKE", "dateTime": 1520526533788}, {"current_trial": 78, "trialdata": {"rt": -1, "trial_type": "single-stim", "stimulus": "<p id=\"stim\">10</p>", "internal_node_id": "0.0-60.0-0.0", "time_elapsed": 602538, "key_press": -1, "trial_index": 78}, "uniqueid": "MTK3405:3FQ5JJ512MV9EQKNEXBKQRVRWQ3NKE", "dateTime": 1520526536791}, {"current_trial": 79, "trialdata": {"rt": -1, "trial_type": "single-stim", "stimulus": "<p id=\"stim\">9</p>", "internal_node_id": "0.0-60.0-1.0", "time_elapsed": 603540, "key_press": -1, "trial_index": 79}, "uniqueid": "MTK3405:3FQ5JJ512MV9EQKNEXBKQRVRWQ3NKE", "dateTime": 1520526537793}, {"current_trial": 80, "trialdata": {"rt": -1, "trial_type": "single-stim", "stimulus": "<p id=\"stim\">8</p>", "internal_node_id": "0.0-60.0-2.0", "time_elapsed": 604543, "key_press": -1, "trial_index": 80}, "uniqueid": "MTK3405:3FQ5JJ512MV9EQKNEXBKQRVRWQ3NKE", "dateTime": 1520526538796}, {"current_trial": 81, "trialdata": {"rt": -1, "trial_type": "single-stim", "stimulus": "<p id=\"stim\">7</p>", "internal_node_id": "0.0-60.0-3.0", "time_elapsed": 605546, "key_press": -1, "trial_index": 81}, "uniqueid": "MTK3405:3FQ5JJ512MV9EQKNEXBKQRVRWQ3NKE", "dateTime": 1520526539799}, {"current_trial": 82, "trialdata": {"rt": -1, "trial_type": "single-stim", "stimulus": "<p id=\"stim\">6</p>", "internal_node_id": "0.0-60.0-4.0", "time_elapsed": 606551, "key_press": -1, "trial_index": 82}, "uniqueid": "MTK3405:3FQ5JJ512MV9EQKNEXBKQRVRWQ3NKE", "dateTime": 1520526540804}, {"current_trial": 83, "trialdata": {"rt": -1, "trial_type": "single-stim", "stimulus": "<p id=\"stim\">5</p>", "internal_node_id": "0.0-60.0-5.0", "time_elapsed": 607552, "key_press": -1, "trial_index": 83}, "uniqueid": "MTK3405:3FQ5JJ512MV9EQKNEXBKQRVRWQ3NKE", "dateTime": 1520526541805}, {"current_trial": 84, "trialdata": {"rt": -1, "trial_type": "single-stim", "stimulus": "<p id=\"stim\">4</p>", "internal_node_id": "0.0-60.0-6.0", "time_elapsed": 608555, "key_press": -1, "trial_index": 84}, "uniqueid": "MTK3405:3FQ5JJ512MV9EQKNEXBKQRVRWQ3NKE", "dateTime": 1520526542808}, {"current_trial": 85, "trialdata": {"rt": -1, "trial_type": "single-stim", "stimulus": "<p id=\"stim\">3</p>", "internal_node_id": "0.0-60.0-7.0", "time_elapsed": 609557, "key_press": -1, "trial_index": 85}, "uniqueid": "MTK3405:3FQ5JJ512MV9EQKNEXBKQRVRWQ3NKE", "dateTime": 1520526543810}, {"current_trial": 86, "trialdata": {"rt": -1, "trial_type": "single-stim", "stimulus": "<p id=\"stim\">2</p>", "internal_node_id": "0.0-60.0-8.0", "time_elapsed": 610559, "key_press": -1, "trial_index": 86}, "uniqueid": "MTK3405:3FQ5JJ512MV9EQKNEXBKQRVRWQ3NKE", "dateTime": 1520526544812}, {"current_trial": 87, "trialdata": {"rt": -1, "trial_type": "single-stim", "stimulus": "<p id=\"stim\">1</p>", "internal_node_id": "0.0-60.0-9.0", "time_elapsed": 611561, "key_press": -1, "trial_index": 87}, "uniqueid": "MTK3405:3FQ5JJ512MV9EQKNEXBKQRVRWQ3NKE", "dateTime": 1520526545814}, {"current_trial": 88, "trialdata": {"rt": -1, "trial_type": "single-stim", "stimulus": "<p id=\"stim\">+</p>", "internal_node_id": "0.0-61.0-0.0", "time_elapsed": 613065, "key_press": -1, "type": "FIXATION", "trial_index": 88}, "uniqueid": "MTK3405:3FQ5JJ512MV9EQKNEXBKQRVRWQ3NKE", "dateTime": 1520526547318}, {"current_trial": 89, "trialdata": {"rt": -1000, "trial_type": "single-audio", "word": "sunset", "stimulus": "/static/audio/wordpool/SUNSET.wav", "conditions": [24, 1600, "a", 24000], "internal_node_id": "0.0-62.0", "trial": 2, "time_elapsed": 615565, "serialpos": 0, "key_press": -1, "wordID": 1407, "type": "PRES_AUD", "trial_index": 89}, "uniqueid": "MTK3405:3FQ5JJ512MV9EQKNEXBKQRVRWQ3NKE", "dateTime": 1520526549818}, {"current_trial": 90, "trialdata": {"rt": -1000, "trial_type": "single-audio", "word": "bathtub", "stimulus": "/static/audio/wordpool/BATHTUB.wav", "conditions": [24, 1600, "a", 24000], "internal_node_id": "0.0-63.0", "trial": 2, "time_elapsed": 618162, "serialpos": 1, "key_press": -1, "wordID": 99, "type": "PRES_AUD", "trial_index": 90}, "uniqueid": "MTK3405:3FQ5JJ512MV9EQKNEXBKQRVRWQ3NKE", "dateTime": 1520526552416}, {"current_trial": 91, "trialdata": {"rt": -1000, "trial_type": "single-audio", "word": "smog", "stimulus": "/static/audio/wordpool/SMOG.wav", "conditions": [24, 1600, "a", 24000], "internal_node_id": "0.0-64.0", "trial": 2, "time_elapsed": 620587, "serialpos": 2, "key_press": -1, "wordID": 1329, "type": "PRES_AUD", "trial_index": 91}, "uniqueid": "MTK3405:3FQ5JJ512MV9EQKNEXBKQRVRWQ3NKE", "dateTime": 1520526554840}, {"current_trial": 92, "trialdata": {"rt": -1000, "trial_type": "single-audio", "word": "thief", "stimulus": "/static/audio/wordpool/THIEF.wav", "conditions": [24, 1600, "a", 24000], "internal_node_id": "0.0-65.0", "trial": 2, "time_elapsed": 623175, "serialpos": 3, "key_press": -1, "wordID": 1455, "type": "PRES_AUD", "trial_index": 92}, "uniqueid": "MTK3405:3FQ5JJ512MV9EQKNEXBKQRVRWQ3NKE", "dateTime": 1520526557428}, {"current_trial": 93, "trialdata": {"rt": -1000, "trial_type": "single-audio", "word": "sunrise", "stimulus": "/static/audio/wordpool/SUNRISE.wav", "conditions": [24, 1600, "a", 24000], "internal_node_id": "0.0-66.0", "trial": 2, "time_elapsed": 625944, "serialpos": 4, "key_press": -1, "wordID": 1406, "type": "PRES_AUD", "trial_index": 93}, "uniqueid": "MTK3405:3FQ5JJ512MV9EQKNEXBKQRVRWQ3NKE", "dateTime": 1520526560197}, {"current_trial": 94, "trialdata": {"rt": -1000, "trial_type": "single-audio", "word": "arm", "stimulus": "/static/audio/wordpool/ARM.wav", "conditions": [24, 1600, "a", 24000], "internal_node_id": "0.0-67.0", "trial": 2, "time_elapsed": 628356, "serialpos": 5, "key_press": -1, "wordID": 37, "type": "PRES_AUD", "trial_index": 94}, "uniqueid": "MTK3405:3FQ5JJ512MV9EQKNEXBKQRVRWQ3NKE", "dateTime": 1520526562609}, {"current_trial": 95, "trialdata": {"rt": -1000, "trial_type": "single-audio", "word": "maple", "stimulus": "/static/audio/wordpool/MAPLE.wav", "conditions": [24, 1600, "a", 24000], "internal_node_id": "0.0-68.0", "trial": 2, "time_elapsed": 631040, "serialpos": 6, "key_press": -1, "wordID": 865, "type": "PRES_AUD", "trial_index": 95}, "uniqueid": "MTK3405:3FQ5JJ512MV9EQKNEXBKQRVRWQ3NKE", "dateTime": 1520526565294}, {"current_trial": 96, "trialdata": {"rt": -1000, "trial_type": "single-audio", "word": "silk", "stimulus": "/static/audio/wordpool/SILK.wav", "conditions": [24, 1600, "a", 24000], "internal_node_id": "0.0-69.0", "trial": 2, "time_elapsed": 633832, "serialpos": 7, "key_press": -1, "wordID": 1306, "type": "PRES_AUD", "trial_index": 96}, "uniqueid": "MTK3405:3FQ5JJ512MV9EQKNEXBKQRVRWQ3NKE", "dateTime": 1520526568085}, {"current_trial": 97, "trialdata": {"rt": -1000, "trial_type": "single-audio", "word": "flute", "stimulus": "/static/audio/wordpool/FLUTE.wav", "conditions": [24, 1600, "a", 24000], "internal_node_id": "0.0-70.0", "trial": 2, "time_elapsed": 636252, "serialpos": 8, "key_press": -1, "wordID": 584, "type": "PRES_AUD", "trial_index": 97}, "uniqueid": "MTK3405:3FQ5JJ512MV9EQKNEXBKQRVRWQ3NKE", "dateTime": 1520526570505}, {"current_trial": 98, "trialdata": {"rt": -1000, "trial_type": "single-audio", "word": "fiddle", "stimulus": "/static/audio/wordpool/FIDDLE.wav", "conditions": [24, 1600, "a", 24000], "internal_node_id": "0.0-71.0", "trial": 2, "time_elapsed": 638659, "serialpos": 9, "key_press": -1, "wordID": 560, "type": "PRES_AUD", "trial_index": 98}, "uniqueid": "MTK3405:3FQ5JJ512MV9EQKNEXBKQRVRWQ3NKE", "dateTime": 1520526572912}, {"current_trial": 99, "trialdata": {"rt": -1000, "trial_type": "single-audio", "word": "burglar", "stimulus": "/static/audio/wordpool/BURGLAR.wav", "conditions": [24, 1600, "a", 24000], "internal_node_id": "0.0-72.0", "trial": 2, "time_elapsed": 641188, "serialpos": 10, "key_press": -1, "wordID": 199, "type": "PRES_AUD", "trial_index": 99}, "uniqueid": "MTK3405:3FQ5JJ512MV9EQKNEXBKQRVRWQ3NKE", "dateTime": 1520526575441}, {"current_trial": 100, "trialdata": {"rt": -1000, "trial_type": "single-audio", "word": "wardrobe", "stimulus": "/static/audio/wordpool/WARDROBE.wav", "conditions": [24, 1600, "a", 24000], "internal_node_id": "0.0-73.0", "trial": 2, "time_elapsed": 643814, "serialpos": 11, "key_press": -1, "wordID": 1586, "type": "PRES_AUD", "trial_index": 100}, "uniqueid": "MTK3405:3FQ5JJ512MV9EQKNEXBKQRVRWQ3NKE", "dateTime": 1520526578067}, {"current_trial": 101, "trialdata": {"rt": -1000, "trial_type": "single-audio", "word": "bubble", "stimulus": "/static/audio/wordpool/BUBBLE.wav", "conditions": [24, 1600, "a", 24000], "internal_node_id": "0.0-74.0", "trial": 2, "time_elapsed": 646290, "serialpos": 12, "key_press": -1, "wordID": 182, "type": "PRES_AUD", "trial_index": 101}, "uniqueid": "MTK3405:3FQ5JJ512MV9EQKNEXBKQRVRWQ3NKE", "dateTime": 1520526580543}, {"current_trial": 102, "trialdata": {"rt": -1000, "trial_type": "single-audio", "word": "window", "stimulus": "/static/audio/wordpool/WINDOW.wav", "conditions": [24, 1600, "a", 24000], "internal_node_id": "0.0-75.0", "trial": 2, "time_elapsed": 648746, "serialpos": 13, "key_press": -1, "wordID": 1610, "type": "PRES_AUD", "trial_index": 102}, "uniqueid": "MTK3405:3FQ5JJ512MV9EQKNEXBKQRVRWQ3NKE", "dateTime": 1520526582999}, {"current_trial": 103, "trialdata": {"rt": -1000, "trial_type": "single-audio", "word": "police", "stimulus": "/static/audio/wordpool/POLICE.wav", "conditions": [24, 1600, "a", 24000], "internal_node_id": "0.0-76.0", "trial": 2, "time_elapsed": 651278, "serialpos": 14, "key_press": -1, "wordID": 1097, "type": "PRES_AUD", "trial_index": 103}, "uniqueid": "MTK3405:3FQ5JJ512MV9EQKNEXBKQRVRWQ3NKE", "dateTime": 1520526585531}, {"current_trial": 104, "trialdata": {"rt": -1000, "trial_type": "single-audio", "word": "plaid", "stimulus": "/static/audio/wordpool/PLAID.wav", "conditions": [24, 1600, "a", 24000], "internal_node_id": "0.0-77.0", "trial": 2, "time_elapsed": 654057, "serialpos": 15, "key_press": -1, "wordID": 1079, "type": "PRES_AUD", "trial_index": 104}, "uniqueid": "MTK3405:3FQ5JJ512MV9EQKNEXBKQRVRWQ3NKE", "dateTime": 1520526588310}, {"current_trial": 105, "trialdata": {"rt": -1000, "trial_type": "single-audio", "word": "velvet", "stimulus": "/static/audio/wordpool/VELVET.wav", "conditions": [24, 1600, "a", 24000], "internal_node_id": "0.0-78.0", "trial": 2, "time_elapsed": 656476, "serialpos": 16, "key_press": -1, "wordID": 1554, "type": "PRES_AUD", "trial_index": 105}, "uniqueid": "MTK3405:3FQ5JJ512MV9EQKNEXBKQRVRWQ3NKE", "dateTime": 1520526590729}, {"current_trial": 106, "trialdata": {"rt": -1000, "trial_type": "single-audio", "word": "patrol", "stimulus": "/static/audio/wordpool/PATROL.wav", "conditions": [24, 1600, "a", 24000], "internal_node_id": "0.0-79.0", "trial": 2, "time_elapsed": 659161, "serialpos": 17, "key_press": -1, "wordID": 1026, "type": "PRES_AUD", "trial_index": 106}, "uniqueid": "MTK3405:3FQ5JJ512MV9EQKNEXBKQRVRWQ3NKE", "dateTime": 1520526593414}, {"current_trial": 107, "trialdata": {"rt": -1000, "trial_type": "single-audio", "word": "patient", "stimulus": "/static/audio/wordpool/PATIENT.wav", "conditions": [24, 1600, "a", 24000], "internal_node_id": "0.0-80.0", "trial": 2, "time_elapsed": 661795, "serialpos": 18, "key_press": -1, "wordID": 1023, "type": "PRES_AUD", "trial_index": 107}, "uniqueid": "MTK3405:3FQ5JJ512MV9EQKNEXBKQRVRWQ3NKE", "dateTime": 1520526596048}, {"current_trial": 108, "trialdata": {"rt": -1000, "trial_type": "single-audio", "word": "human", "stimulus": "/static/audio/wordpool/HUMAN.wav", "conditions": [24, 1600, "a", 24000], "internal_node_id": "0.0-81.0", "trial": 2, "time_elapsed": 664389, "serialpos": 19, "key_press": -1, "wordID": 725, "type": "PRES_AUD", "trial_index": 108}, "uniqueid": "MTK3405:3FQ5JJ512MV9EQKNEXBKQRVRWQ3NKE", "dateTime": 1520526598642}, {"current_trial": 109, "trialdata": {"rt": -1000, "trial_type": "single-audio", "word": "finger", "stimulus": "/static/audio/wordpool/FINGER.wav", "conditions": [24, 1600, "a", 24000], "internal_node_id": "0.0-82.0", "trial": 2, "time_elapsed": 666936, "serialpos": 20, "key_press": -1, "wordID": 566, "type": "PRES_AUD", "trial_index": 109}, "uniqueid": "MTK3405:3FQ5JJ512MV9EQKNEXBKQRVRWQ3NKE", "dateTime": 1520526601189}, {"current_trial": 110, "trialdata": {"rt": -1000, "trial_type": "single-audio", "word": "shortcake", "stimulus": "/static/audio/wordpool/SHORTCAKE.wav", "conditions": [24, 1600, "a", 24000], "internal_node_id": "0.0-83.0", "trial": 2, "time_elapsed": 669483, "serialpos": 21, "key_press": -1, "wordID": 1291, "type": "PRES_AUD", "trial_index": 110}, "uniqueid": "MTK3405:3FQ5JJ512MV9EQKNEXBKQRVRWQ3NKE", "dateTime": 1520526603736}, {"current_trial": 111, "trialdata": {"rt": -1000, "trial_type": "single-audio", "word": "butcher", "stimulus": "/static/audio/wordpool/BUTCHER.wav", "conditions": [24, 1600, "a", 24000], "internal_node_id": "0.0-84.0", "trial": 2, "time_elapsed": 672216, "serialpos": 22, "key_press": -1, "wordID": 202, "type": "PRES_AUD", "trial_index": 111}, "uniqueid": "MTK3405:3FQ5JJ512MV9EQKNEXBKQRVRWQ3NKE", "dateTime": 1520526606469}, {"current_trial": 112, "trialdata": {"rt": -1000, "trial_type": "single-audio", "word": "seal", "stimulus": "/static/audio/wordpool/SEAL.wav", "conditions": [24, 1600, "a", 24000], "internal_node_id": "0.0-85.0", "trial": 2, "time_elapsed": 674983, "serialpos": 23, "key_press": -1, "wordID": 1261, "type": "PRES_AUD", "trial_index": 112}, "uniqueid": "MTK3405:3FQ5JJ512MV9EQKNEXBKQRVRWQ3NKE", "dateTime": 1520526609236}, {"current_trial": 113, "trialdata": {"rt": -1, "trial_type": "single-stim", "stimulus": "", "internal_node_id": "0.0-86.0-0.0", "time_elapsed": 676196, "key_press": -1, "type": "PRE_RECALL_DELAY", "trial_index": 113}, "uniqueid": "MTK3405:3FQ5JJ512MV9EQKNEXBKQRVRWQ3NKE", "dateTime": 1520526610449}, {"current_trial": 114, "trialdata": {"rt": -1000, "trial_type": "single-audio", "stimulus": "/static/audio/400Hz.wav", "internal_node_id": "0.0-87.0", "time_elapsed": 676697, "key_press": -1, "type": "PRE_RECALL_ALERT", "trial_index": 114}, "uniqueid": "MTK3405:3FQ5JJ512MV9EQKNEXBKQRVRWQ3NKE", "dateTime": 1520526610950}, {"current_trial": 115, "trialdata": {"rt": [2330, 6203, 12891, 20403, 25339, 29379, 34715, 41003, 47844], "recwords": ["seal", "hum", "sunset", "finger", "patient", "police", "bubble", "arm", "bathtub"], "key_times": [931, 947, 1579, 1699, 1866, 2035, 2330, 5643, 5876, 6179, 6203, 6339, 8011, 10754, 10931, 11397, 11747, 12347, 12442, 12546, 12671, 12891, 19427, 19563, 19707, 19947, 20123, 20218, 20403, 23275, 23442, 23634, 23787, 23891, 24179, 24355, 25339, 27563, 27867, 28139, 28243, 28403, 28547, 29379, 33162, 33427, 33627, 33770, 33915, 34035, 34715, 40339, 40508, 40651, 41003, 43868, 44179, 44394, 44459, 44763, 44963, 45717, 45916, 46058, 46258, 46555, 47844], "trial_type": "free-recall", "conditions": [24, 1600, "a", 24000], "internal_node_id": "0.0-88.0-0.0", "key_presses": [83, 68, 8, 69, 65, 76, 13, 72, 85, 77, 32, 65, 8, 83, 85, 78, 69, 8, 83, 69, 84, 13, 70, 73, 78, 71, 69, 82, 13, 80, 65, 84, 73, 69, 78, 84, 13, 80, 79, 76, 73, 67, 69, 13, 66, 85, 66, 66, 76, 69, 13, 65, 82, 77, 13, 66, 65, 84, 72, 82, 85, 8, 8, 84, 85, 66, 13], "trial": 2, "time_elapsed": 736703, "type": "FREE_RECALL", "trial_index": 115}, "uniqueid": "MTK3405:3FQ5JJ512MV9EQKNEXBKQRVRWQ3NKE", "dateTime": 1520526670961}, {"current_trial": 116, "trialdata": {"rt": 2770, "trial_type": "text", "internal_node_id": "0.0-89.0", "time_elapsed": 741479, "key_press": 32, "type": "INSTRUCTIONS", "trial_index": 116}, "uniqueid": "MTK3405:3FQ5JJ512MV9EQKNEXBKQRVRWQ3NKE", "dateTime": 1520526675732}, {"current_trial": 117, "trialdata": {"rt": [2130, 5737, 8201, 9978, 12226, 13729, 15410, 17649, 19738], "trial_type": "math-distractor", "key_times": [1595, 1795, 2130, 4907, 5057, 5737, 7746, 7946, 8201, 9515, 9650, 9978, 11841, 12002, 12226, 13313, 13466, 13729, 14994, 15193, 15410, 17169, 17338, 17649, 19385, 19514, 19738, 21930, 22049, 23034, 23153, 23738, 23778], "responses": ["13", "11", "19", "11", "14", "13", "10", "19", "13"], "num2": [4, 4, 4, 4, 9, 5, 4, 2, 2, 9], "num3": [3, 4, 6, 1, 1, 5, 2, 8, 5, 5], "conditions": [24, 1600, "a", 24000], "internal_node_id": "0.0-90.0", "key_presses": [97, 99, 13, 97, 97, 13, 97, 105, 13, 97, 97, 13, 97, 100, 13, 97, 99, 13, 97, 96, 13, 97, 105, 13, 97, 99, 13, 97, 99, 8, 8, 98, 99], "trial": 3, "time_elapsed": 767485, "type": "DISTRACTOR", "trial_index": 117, "num1": [6, 3, 9, 6, 4, 3, 4, 9, 6, 9]}, "uniqueid": "MTK3405:3FQ5JJ512MV9EQKNEXBKQRVRWQ3NKE", "dateTime": 1520526701738}, {"current_trial": 118, "trialdata": {"rt": -1, "trial_type": "single-stim", "stimulus": "<p id=\"stim\">10</p>", "internal_node_id": "0.0-91.0-0.0", "time_elapsed": 770489, "key_press": -1, "trial_index": 118}, "uniqueid": "MTK3405:3FQ5JJ512MV9EQKNEXBKQRVRWQ3NKE", "dateTime": 1520526704742}, {"current_trial": 119, "trialdata": {"rt": -1, "trial_type": "single-stim", "stimulus": "<p id=\"stim\">9</p>", "internal_node_id": "0.0-91.0-1.0", "time_elapsed": 771492, "key_press": -1, "trial_index": 119}, "uniqueid": "MTK3405:3FQ5JJ512MV9EQKNEXBKQRVRWQ3NKE", "dateTime": 1520526705745}, {"current_trial": 120, "trialdata": {"rt": -1, "trial_type": "single-stim", "stimulus": "<p id=\"stim\">8</p>", "internal_node_id": "0.0-91.0-2.0", "time_elapsed": 772493, "key_press": -1, "trial_index": 120}, "uniqueid": "MTK3405:3FQ5JJ512MV9EQKNEXBKQRVRWQ3NKE", "dateTime": 1520526706746}, {"current_trial": 121, "trialdata": {"rt": -1, "trial_type": "single-stim", "stimulus": "<p id=\"stim\">7</p>", "internal_node_id": "0.0-91.0-3.0", "time_elapsed": 773496, "key_press": -1, "trial_index": 121}, "uniqueid": "MTK3405:3FQ5JJ512MV9EQKNEXBKQRVRWQ3NKE", "dateTime": 1520526707750}, {"current_trial": 122, "trialdata": {"rt": -1, "trial_type": "single-stim", "stimulus": "<p id=\"stim\">6</p>", "internal_node_id": "0.0-91.0-4.0", "time_elapsed": 774498, "key_press": -1, "trial_index": 122}, "uniqueid": "MTK3405:3FQ5JJ512MV9EQKNEXBKQRVRWQ3NKE", "dateTime": 1520526708751}, {"current_trial": 123, "trialdata": {"rt": -1, "trial_type": "single-stim", "stimulus": "<p id=\"stim\">5</p>", "internal_node_id": "0.0-91.0-5.0", "time_elapsed": 775502, "key_press": -1, "trial_index": 123}, "uniqueid": "MTK3405:3FQ5JJ512MV9EQKNEXBKQRVRWQ3NKE", "dateTime": 1520526709756}, {"current_trial": 124, "trialdata": {"rt": -1, "trial_type": "single-stim", "stimulus": "<p id=\"stim\">4</p>", "internal_node_id": "0.0-91.0-6.0", "time_elapsed": 776505, "key_press": -1, "trial_index": 124}, "uniqueid": "MTK3405:3FQ5JJ512MV9EQKNEXBKQRVRWQ3NKE", "dateTime": 1520526710759}, {"current_trial": 125, "trialdata": {"rt": -1, "trial_type": "single-stim", "stimulus": "<p id=\"stim\">3</p>", "internal_node_id": "0.0-91.0-7.0", "time_elapsed": 777507, "key_press": -1, "trial_index": 125}, "uniqueid": "MTK3405:3FQ5JJ512MV9EQKNEXBKQRVRWQ3NKE", "dateTime": 1520526711761}, {"current_trial": 126, "trialdata": {"rt": -1, "trial_type": "single-stim", "stimulus": "<p id=\"stim\">2</p>", "internal_node_id": "0.0-91.0-8.0", "time_elapsed": 778510, "key_press": -1, "trial_index": 126}, "uniqueid": "MTK3405:3FQ5JJ512MV9EQKNEXBKQRVRWQ3NKE", "dateTime": 1520526712763}, {"current_trial": 127, "trialdata": {"rt": -1, "trial_type": "single-stim", "stimulus": "<p id=\"stim\">1</p>", "internal_node_id": "0.0-91.0-9.0", "time_elapsed": 779513, "key_press": -1, "trial_index": 127}, "uniqueid": "MTK3405:3FQ5JJ512MV9EQKNEXBKQRVRWQ3NKE", "dateTime": 1520526713766}, {"current_trial": 128, "trialdata": {"rt": -1, "trial_type": "single-stim", "stimulus": "<p id=\"stim\">+</p>", "internal_node_id": "0.0-92.0-0.0", "time_elapsed": 781015, "key_press": -1, "type": "FIXATION", "trial_index": 128}, "uniqueid": "MTK3405:3FQ5JJ512MV9EQKNEXBKQRVRWQ3NKE", "dateTime": 1520526715268}, {"current_trial": 129, "trialdata": {"rt": -1000, "trial_type": "single-audio", "word": "leader", "stimulus": "/static/audio/wordpool/LEADER.wav", "conditions": [24, 1600, "a", 24000], "internal_node_id": "0.0-93.0", "trial": 3, "time_elapsed": 783767, "serialpos": 0, "key_press": -1, "wordID": 806, "type": "PRES_AUD", "trial_index": 129}, "uniqueid": "MTK3405:3FQ5JJ512MV9EQKNEXBKQRVRWQ3NKE", "dateTime": 1520526718021}, {"current_trial": 130, "trialdata": {"rt": -1000, "trial_type": "single-audio", "word": "basement", "stimulus": "/static/audio/wordpool/BASEMENT.wav", "conditions": [24, 1600, "a", 24000], "internal_node_id": "0.0-94.0", "trial": 3, "time_elapsed": 786261, "serialpos": 1, "key_press": -1, "wordID": 93, "type": "PRES_AUD", "trial_index": 130}, "uniqueid": "MTK3405:3FQ5JJ512MV9EQKNEXBKQRVRWQ3NKE", "dateTime": 1520526720514}, {"current_trial": 131, "trialdata": {"rt": -1000, "trial_type": "single-audio", "word": "panther", "stimulus": "/static/audio/wordpool/PANTHER.wav", "conditions": [24, 1600, "a", 24000], "internal_node_id": "0.0-95.0", "trial": 3, "time_elapsed": 788860, "serialpos": 2, "key_press": -1, "wordID": 1008, "type": "PRES_AUD", "trial_index": 131}, "uniqueid": "MTK3405:3FQ5JJ512MV9EQKNEXBKQRVRWQ3NKE", "dateTime": 1520526723113}, {"current_trial": 132, "trialdata": {"rt": -1000, "trial_type": "single-audio", "word": "twig", "stimulus": "/static/audio/wordpool/TWIG.wav", "conditions": [24, 1600, "a", 24000], "internal_node_id": "0.0-96.0", "trial": 3, "time_elapsed": 791339, "serialpos": 3, "key_press": -1, "wordID": 1526, "type": "PRES_AUD", "trial_index": 132}, "uniqueid": "MTK3405:3FQ5JJ512MV9EQKNEXBKQRVRWQ3NKE", "dateTime": 1520526725592}, {"current_trial": 133, "trialdata": {"rt": -1000, "trial_type": "single-audio", "word": "pork", "stimulus": "/static/audio/wordpool/PORK.wav", "conditions": [24, 1600, "a", 24000], "internal_node_id": "0.0-97.0", "trial": 3, "time_elapsed": 793912, "serialpos": 4, "key_press": -1, "wordID": 1107, "type": "PRES_AUD", "trial_index": 133}, "uniqueid": "MTK3405:3FQ5JJ512MV9EQKNEXBKQRVRWQ3NKE", "dateTime": 1520526728166}, {"current_trial": 134, "trialdata": {"rt": -1000, "trial_type": "single-audio", "word": "suspect", "stimulus": "/static/audio/wordpool/SUSPECT.wav", "conditions": [24, 1600, "a", 24000], "internal_node_id": "0.0-98.0", "trial": 3, "time_elapsed": 796487, "serialpos": 5, "key_press": -1, "wordID": 1414, "type": "PRES_AUD", "trial_index": 134}, "uniqueid": "MTK3405:3FQ5JJ512MV9EQKNEXBKQRVRWQ3NKE", "dateTime": 1520526730740}, {"current_trial": 135, "trialdata": {"rt": -1000, "trial_type": "single-audio", "word": "robber", "stimulus": "/static/audio/wordpool/ROBBER.wav", "conditions": [24, 1600, "a", 24000], "internal_node_id": "0.0-99.0", "trial": 3, "time_elapsed": 798954, "serialpos": 6, "key_press": -1, "wordID": 1196, "type": "PRES_AUD", "trial_index": 135}, "uniqueid": "MTK3405:3FQ5JJ512MV9EQKNEXBKQRVRWQ3NKE", "dateTime": 1520526733207}, {"current_trial": 136, "trialdata": {"rt": -1000, "trial_type": "single-audio", "word": "cellar", "stimulus": "/static/audio/wordpool/CELLAR.wav", "conditions": [24, 1600, "a", 24000], "internal_node_id": "0.0-100.0", "trial": 3, "time_elapsed": 801727, "serialpos": 7, "key_press": -1, "wordID": 266, "type": "PRES_AUD", "trial_index": 136}, "uniqueid": "MTK3405:3FQ5JJ512MV9EQKNEXBKQRVRWQ3NKE", "dateTime": 1520526735980}, {"current_trial": 137, "trialdata": {"rt": -1000, "trial_type": "single-audio", "word": "jelly", "stimulus": "/static/audio/wordpool/JELLY.wav", "conditions": [24, 1600, "a", 24000], "internal_node_id": "0.0-101.0", "trial": 3, "time_elapsed": 804180, "serialpos": 8, "key_press": -1, "wordID": 754, "type": "PRES_AUD", "trial_index": 137}, "uniqueid": "MTK3405:3FQ5JJ512MV9EQKNEXBKQRVRWQ3NKE", "dateTime": 1520526738433}, {"current_trial": 138, "trialdata": {"rt": -1000, "trial_type": "single-audio", "word": "stove", "stimulus": "/static/audio/wordpool/STOVE.wav", "conditions": [24, 1600, "a", 24000], "internal_node_id": "0.0-102.0", "trial": 3, "time_elapsed": 806805, "serialpos": 9, "key_press": -1, "wordID": 1387, "type": "PRES_AUD", "trial_index": 138}, "uniqueid": "MTK3405:3FQ5JJ512MV9EQKNEXBKQRVRWQ3NKE", "dateTime": 1520526741058}, {"current_trial": 139, "trialdata": {"rt": -1000, "trial_type": "single-audio", "word": "bureau", "stimulus": "/static/audio/wordpool/BUREAU.wav", "conditions": [24, 1600, "a", 24000], "internal_node_id": "0.0-103.0", "trial": 3, "time_elapsed": 809549, "serialpos": 10, "key_press": -1, "wordID": 198, "type": "PRES_AUD", "trial_index": 139}, "uniqueid": "MTK3405:3FQ5JJ512MV9EQKNEXBKQRVRWQ3NKE", "dateTime": 1520526743802}, {"current_trial": 140, "trialdata": {"rt": -1000, "trial_type": "single-audio", "word": "grill", "stimulus": "/static/audio/wordpool/GRILL.wav", "conditions": [24, 1600, "a", 24000], "internal_node_id": "0.0-104.0", "trial": 3, "time_elapsed": 812258, "serialpos": 11, "key_press": -1, "wordID": 660, "type": "PRES_AUD", "trial_index": 140}, "uniqueid": "MTK3405:3FQ5JJ512MV9EQKNEXBKQRVRWQ3NKE", "dateTime": 1520526746511}, {"current_trial": 141, "trialdata": {"rt": -1000, "trial_type": "single-audio", "word": "lizard", "stimulus": "/static/audio/wordpool/LIZARD.wav", "conditions": [24, 1600, "a", 24000], "internal_node_id": "0.0-105.0", "trial": 3, "time_elapsed": 814683, "serialpos": 12, "key_press": -1, "wordID": 833, "type": "PRES_AUD", "trial_index": 141}, "uniqueid": "MTK3405:3FQ5JJ512MV9EQKNEXBKQRVRWQ3NKE", "dateTime": 1520526748936}, {"current_trial": 142, "trialdata": {"rt": -1000, "trial_type": "single-audio", "word": "badge", "stimulus": "/static/audio/wordpool/BADGE.wav", "conditions": [24, 1600, "a", 24000], "internal_node_id": "0.0-106.0", "trial": 3, "time_elapsed": 817097, "serialpos": 13, "key_press": -1, "wordID": 67, "type": "PRES_AUD", "trial_index": 142}, "uniqueid": "MTK3405:3FQ5JJ512MV9EQKNEXBKQRVRWQ3NKE", "dateTime": 1520526751350}, {"current_trial": 143, "trialdata": {"rt": -1000, "trial_type": "single-audio", "word": "sword", "stimulus": "/static/audio/wordpool/SWORD.wav", "conditions": [24, 1600, "a", 24000], "internal_node_id": "0.0-107.0", "trial": 3, "time_elapsed": 819780, "serialpos": 14, "key_press": -1, "wordID": 1422, "type": "PRES_AUD", "trial_index": 143}, "uniqueid": "MTK3405:3FQ5JJ512MV9EQKNEXBKQRVRWQ3NKE", "dateTime": 1520526754033}, {"current_trial": 144, "trialdata": {"rt": -1000, "trial_type": "single-audio", "word": "dress", "stimulus": "/static/audio/wordpool/DRESS.wav", "conditions": [24, 1600, "a", 24000], "internal_node_id": "0.0-108.0", "trial": 3, "time_elapsed": 822186, "serialpos": 15, "key_press": -1, "wordID": 494, "type": "PRES_AUD", "trial_index": 144}, "uniqueid": "MTK3405:3FQ5JJ512MV9EQKNEXBKQRVRWQ3NKE", "dateTime": 1520526756439}, {"current_trial": 145, "trialdata": {"rt": -1000, "trial_type": "single-audio", "word": "citrus", "stimulus": "/static/audio/wordpool/CITRUS.wav", "conditions": [24, 1600, "a", 24000], "internal_node_id": "0.0-109.0", "trial": 3, "time_elapsed": 824686, "serialpos": 16, "key_press": -1, "wordID": 312, "type": "PRES_AUD", "trial_index": 145}, "uniqueid": "MTK3405:3FQ5JJ512MV9EQKNEXBKQRVRWQ3NKE", "dateTime": 1520526758939}, {"current_trial": 146, "trialdata": {"rt": -1000, "trial_type": "single-audio", "word": "trout", "stimulus": "/static/audio/wordpool/TROUT.wav", "conditions": [24, 1600, "a", 24000], "internal_node_id": "0.0-110.0", "trial": 3, "time_elapsed": 827358, "serialpos": 17, "key_press": -1, "wordID": 1510, "type": "PRES_AUD", "trial_index": 146}, "uniqueid": "MTK3405:3FQ5JJ512MV9EQKNEXBKQRVRWQ3NKE", "dateTime": 1520526761611}, {"current_trial": 147, "trialdata": {"rt": -1000, "trial_type": "single-audio", "word": "cod", "stimulus": "/static/audio/wordpool/COD.wav", "conditions": [24, 1600, "a", 24000], "internal_node_id": "0.0-111.0", "trial": 3, "time_elapsed": 829854, "serialpos": 18, "key_press": -1, "wordID": 339, "type": "PRES_AUD", "trial_index": 147}, "uniqueid": "MTK3405:3FQ5JJ512MV9EQKNEXBKQRVRWQ3NKE", "dateTime": 1520526764107}, {"current_trial": 148, "trialdata": {"rt": -1000, "trial_type": "single-audio", "word": "receipt", "stimulus": "/static/audio/wordpool/RECEIPT.wav", "conditions": [24, 1600, "a", 24000], "internal_node_id": "0.0-112.0", "trial": 3, "time_elapsed": 832306, "serialpos": 19, "key_press": -1, "wordID": 1172, "type": "PRES_AUD", "trial_index": 148}, "uniqueid": "MTK3405:3FQ5JJ512MV9EQKNEXBKQRVRWQ3NKE", "dateTime": 1520526766559}, {"current_trial": 149, "trialdata": {"rt": -1000, "trial_type": "single-audio", "word": "coffee", "stimulus": "/static/audio/wordpool/COFFEE.wav", "conditions": [24, 1600, "a", 24000], "internal_node_id": "0.0-113.0", "trial": 3, "time_elapsed": 834741, "serialpos": 20, "key_press": -1, "wordID": 340, "type": "PRES_AUD", "trial_index": 149}, "uniqueid": "MTK3405:3FQ5JJ512MV9EQKNEXBKQRVRWQ3NKE", "dateTime": 1520526768994}, {"current_trial": 150, "trialdata": {"rt": -1000, "trial_type": "single-audio", "word": "soda", "stimulus": "/static/audio/wordpool/SODA.wav", "conditions": [24, 1600, "a", 24000], "internal_node_id": "0.0-114.0", "trial": 3, "time_elapsed": 837391, "serialpos": 21, "key_press": -1, "wordID": 1340, "type": "PRES_AUD", "trial_index": 150}, "uniqueid": "MTK3405:3FQ5JJ512MV9EQKNEXBKQRVRWQ3NKE", "dateTime": 1520526771645}, {"current_trial": 151, "trialdata": {"rt": -1000, "trial_type": "single-audio", "word": "penguin", "stimulus": "/static/audio/wordpool/PENGUIN.wav", "conditions": [24, 1600, "a", 24000], "internal_node_id": "0.0-115.0", "trial": 3, "time_elapsed": 840153, "serialpos": 22, "key_press": -1, "wordID": 1043, "type": "PRES_AUD", "trial_index": 151}, "uniqueid": "MTK3405:3FQ5JJ512MV9EQKNEXBKQRVRWQ3NKE", "dateTime": 1520526774406}, {"current_trial": 152, "trialdata": {"rt": -1000, "trial_type": "single-audio", "word": "cookbook", "stimulus": "/static/audio/wordpool/COOKBOOK.wav", "conditions": [24, 1600, "a", 24000], "internal_node_id": "0.0-116.0", "trial": 3, "time_elapsed": 842584, "serialpos": 23, "key_press": -1, "wordID": 372, "type": "PRES_AUD", "trial_index": 152}, "uniqueid": "MTK3405:3FQ5JJ512MV9EQKNEXBKQRVRWQ3NKE", "dateTime": 1520526776837}, {"current_trial": 153, "trialdata": {"rt": -1, "trial_type": "single-stim", "stimulus": "", "internal_node_id": "0.0-117.0-0.0", "time_elapsed": 843928, "key_press": -1, "type": "PRE_RECALL_DELAY", "trial_index": 153}, "uniqueid": "MTK3405:3FQ5JJ512MV9EQKNEXBKQRVRWQ3NKE", "dateTime": 1520526778181}, {"current_trial": 154, "trialdata": {"rt": -1000, "trial_type": "single-audio", "stimulus": "/static/audio/400Hz.wav", "internal_node_id": "0.0-118.0", "time_elapsed": 844429, "key_press": -1, "type": "PRE_RECALL_ALERT", "trial_index": 154}, "uniqueid": "MTK3405:3FQ5JJ512MV9EQKNEXBKQRVRWQ3NKE", "dateTime": 1520526778682}, {"current_trial": 155, "trialdata": {"rt": [4693, 6933, 10117, 14173, 16989, 22445, 29197, 31636, 39573, 44484], "recwords": ["cookbook", "soda", "coffee", "cod", "dress", "twig", "stove", "grill", "pork", "leader"], "key_times": [2227, 2773, 2949, 3181, 3582, 3766, 3926, 4110, 4693, 5945, 6245, 6462, 6661, 6933, 8141, 8558, 8765, 8885, 9518, 9693, 10117, 12414, 12533, 12958, 13198, 13757, 14173, 15997, 16229, 16350, 16605, 16701, 16989, 21397, 21598, 21758, 21925, 22445, 25509, 25694, 25797, 25917, 26134, 29197, 30333, 30534, 30637, 30893, 31037, 31636, 35623, 36097, 36277, 36664, 39573, 42198, 42334, 42493, 42637, 43453, 43725, 43941, 44078, 44484], "trial_type": "free-recall", "conditions": [24, 1600, "a", 24000], "internal_node_id": "0.0-119.0-0.0", "key_presses": [67, 79, 79, 75, 66, 79, 79, 75, 13, 83, 79, 68, 65, 13, 67, 79, 70, 70, 69, 69, 13, 67, 79, 68, 69, 8, 13, 68, 82, 69, 83, 83, 13, 84, 87, 73, 71, 13, 83, 84, 79, 86, 69, 13, 71, 82, 73, 76, 76, 13, 80, 79, 82, 75, 13, 76, 69, 65, 83, 8, 68, 69, 82, 13], "trial": 3, "time_elapsed": 904435, "type": "FREE_RECALL", "trial_index": 155}, "uniqueid": "MTK3405:3FQ5JJ512MV9EQKNEXBKQRVRWQ3NKE", "dateTime": 1520526838693}, {"current_trial": 156, "trialdata": {"rt": 1232, "trial_type": "text", "internal_node_id": "0.0-120.0", "time_elapsed": 907674, "key_press": 32, "type": "INSTRUCTIONS", "trial_index": 156}, "uniqueid": "MTK3405:3FQ5JJ512MV9EQKNEXBKQRVRWQ3NKE", "dateTime": 1520526841927}, {"current_trial": 157, "trialdata": {"rt": [2958, 6038, 9318, 11637], "trial_type": "math-distractor", "key_times": [2270, 2390, 2958, 5535, 5695, 6038, 8943, 9119, 9318, 11233, 11310, 11637], "responses": ["16", "13", "20", "15"], "num2": [1, 8, 9, 4, 3], "num3": [8, 4, 4, 6, 9], "conditions": [24, 1600, "a", 12000], "internal_node_id": "0.0-121.0", "key_presses": [97, 102, 13, 97, 99, 13, 98, 96, 13, 97, 101, 13], "trial": 4, "time_elapsed": 921680, "type": "DISTRACTOR", "trial_index": 157, "num1": [7, 1, 7, 5, 6]}, "uniqueid": "MTK3405:3FQ5JJ512MV9EQKNEXBKQRVRWQ3NKE", "dateTime": 1520526855933}, {"current_trial": 158, "trialdata": {"rt": -1, "trial_type": "single-stim", "stimulus": "<p id=\"stim\">10</p>", "internal_node_id": "0.0-122.0-0.0", "time_elapsed": 924682, "key_press": -1, "trial_index": 158}, "uniqueid": "MTK3405:3FQ5JJ512MV9EQKNEXBKQRVRWQ3NKE", "dateTime": 1520526858935}, {"current_trial": 159, "trialdata": {"rt": -1, "trial_type": "single-stim", "stimulus": "<p id=\"stim\">9</p>", "internal_node_id": "0.0-122.0-1.0", "time_elapsed": 925684, "key_press": -1, "trial_index": 159}, "uniqueid": "MTK3405:3FQ5JJ512MV9EQKNEXBKQRVRWQ3NKE", "dateTime": 1520526859937}, {"current_trial": 160, "trialdata": {"rt": -1, "trial_type": "single-stim", "stimulus": "<p id=\"stim\">8</p>", "internal_node_id": "0.0-122.0-2.0", "time_elapsed": 926686, "key_press": -1, "trial_index": 160}, "uniqueid": "MTK3405:3FQ5JJ512MV9EQKNEXBKQRVRWQ3NKE", "dateTime": 1520526860939}, {"current_trial": 161, "trialdata": {"rt": -1, "trial_type": "single-stim", "stimulus": "<p id=\"stim\">7</p>", "internal_node_id": "0.0-122.0-3.0", "time_elapsed": 927688, "key_press": -1, "trial_index": 161}, "uniqueid": "MTK3405:3FQ5JJ512MV9EQKNEXBKQRVRWQ3NKE", "dateTime": 1520526861942}, {"current_trial": 162, "trialdata": {"rt": -1, "trial_type": "single-stim", "stimulus": "<p id=\"stim\">6</p>", "internal_node_id": "0.0-122.0-4.0", "time_elapsed": 928690, "key_press": -1, "trial_index": 162}, "uniqueid": "MTK3405:3FQ5JJ512MV9EQKNEXBKQRVRWQ3NKE", "dateTime": 1520526862943}, {"current_trial": 163, "trialdata": {"rt": -1, "trial_type": "single-stim", "stimulus": "<p id=\"stim\">5</p>", "internal_node_id": "0.0-122.0-5.0", "time_elapsed": 929694, "key_press": -1, "trial_index": 163}, "uniqueid": "MTK3405:3FQ5JJ512MV9EQKNEXBKQRVRWQ3NKE", "dateTime": 1520526863947}, {"current_trial": 164, "trialdata": {"rt": -1, "trial_type": "single-stim", "stimulus": "<p id=\"stim\">4</p>", "internal_node_id": "0.0-122.0-6.0", "time_elapsed": 930696, "key_press": -1, "trial_index": 164}, "uniqueid": "MTK3405:3FQ5JJ512MV9EQKNEXBKQRVRWQ3NKE", "dateTime": 1520526864949}, {"current_trial": 165, "trialdata": {"rt": -1, "trial_type": "single-stim", "stimulus": "<p id=\"stim\">3</p>", "internal_node_id": "0.0-122.0-7.0", "time_elapsed": 931699, "key_press": -1, "trial_index": 165}, "uniqueid": "MTK3405:3FQ5JJ512MV9EQKNEXBKQRVRWQ3NKE", "dateTime": 1520526865952}, {"current_trial": 166, "trialdata": {"rt": -1, "trial_type": "single-stim", "stimulus": "<p id=\"stim\">2</p>", "internal_node_id": "0.0-122.0-8.0", "time_elapsed": 932703, "key_press": -1, "trial_index": 166}, "uniqueid": "MTK3405:3FQ5JJ512MV9EQKNEXBKQRVRWQ3NKE", "dateTime": 1520526866956}, {"current_trial": 167, "trialdata": {"rt": -1, "trial_type": "single-stim", "stimulus": "<p id=\"stim\">1</p>", "internal_node_id": "0.0-122.0-9.0", "time_elapsed": 933704, "key_press": -1, "trial_index": 167}, "uniqueid": "MTK3405:3FQ5JJ512MV9EQKNEXBKQRVRWQ3NKE", "dateTime": 1520526867957}, {"current_trial": 168, "trialdata": {"rt": -1, "trial_type": "single-stim", "stimulus": "<p id=\"stim\">+</p>", "internal_node_id": "0.0-123.0-0.0", "time_elapsed": 935205, "key_press": -1, "type": "FIXATION", "trial_index": 168}, "uniqueid": "MTK3405:3FQ5JJ512MV9EQKNEXBKQRVRWQ3NKE", "dateTime": 1520526869458}, {"current_trial": 169, "trialdata": {"rt": -1000, "trial_type": "single-audio", "word": "pilot", "stimulus": "/static/audio/wordpool/PILOT.wav", "conditions": [24, 1600, "a", 12000], "internal_node_id": "0.0-124.0", "trial": 4, "time_elapsed": 937832, "serialpos": 0, "key_press": -1, "wordID": 1069, "type": "PRES_AUD", "trial_index": 169}, "uniqueid": "MTK3405:3FQ5JJ512MV9EQKNEXBKQRVRWQ3NKE", "dateTime": 1520526872085}, {"current_trial": 170, "trialdata": {"rt": -1000, "trial_type": "single-audio", "word": "crater", "stimulus": "/static/audio/wordpool/CRATER.wav", "conditions": [24, 1600, "a", 12000], "internal_node_id": "0.0-125.0", "trial": 4, "time_elapsed": 940342, "serialpos": 1, "key_press": -1, "wordID": 399, "type": "PRES_AUD", "trial_index": 170}, "uniqueid": "MTK3405:3FQ5JJ512MV9EQKNEXBKQRVRWQ3NKE", "dateTime": 1520526874595}, {"current_trial": 171, "trialdata": {"rt": -1000, "trial_type": "single-audio", "word": "daisy", "stimulus": "/static/audio/wordpool/DAISY.wav", "conditions": [24, 1600, "a", 12000], "internal_node_id": "0.0-126.0", "trial": 4, "time_elapsed": 943006, "serialpos": 2, "key_press": -1, "wordID": 434, "type": "PRES_AUD", "trial_index": 171}, "uniqueid": "MTK3405:3FQ5JJ512MV9EQKNEXBKQRVRWQ3NKE", "dateTime": 1520526877259}, {"current_trial": 172, "trialdata": {"rt": -1000, "trial_type": "single-audio", "word": "custard", "stimulus": "/static/audio/wordpool/CUSTARD.wav", "conditions": [24, 1600, "a", 12000], "internal_node_id": "0.0-127.0", "trial": 4, "time_elapsed": 945718, "serialpos": 3, "key_press": -1, "wordID": 428, "type": "PRES_AUD", "trial_index": 172}, "uniqueid": "MTK3405:3FQ5JJ512MV9EQKNEXBKQRVRWQ3NKE", "dateTime": 1520526879971}, {"current_trial": 173, "trialdata": {"rt": -1000, "trial_type": "single-audio", "word": "omelet", "stimulus": "/static/audio/wordpool/OMELET.wav", "conditions": [24, 1600, "a", 12000], "internal_node_id": "0.0-128.0", "trial": 4, "time_elapsed": 948423, "serialpos": 4, "key_press": -1, "wordID": 975, "type": "PRES_AUD", "trial_index": 173}, "uniqueid": "MTK3405:3FQ5JJ512MV9EQKNEXBKQRVRWQ3NKE", "dateTime": 1520526882677}, {"current_trial": 174, "trialdata": {"rt": -1000, "trial_type": "single-audio", "word": "lava", "stimulus": "/static/audio/wordpool/LAVA.wav", "conditions": [24, 1600, "a", 12000], "internal_node_id": "0.0-129.0", "trial": 4, "time_elapsed": 951094, "serialpos": 5, "key_press": -1, "wordID": 803, "type": "PRES_AUD", "trial_index": 174}, "uniqueid": "MTK3405:3FQ5JJ512MV9EQKNEXBKQRVRWQ3NKE", "dateTime": 1520526885347}, {"current_trial": 175, "trialdata": {"rt": -1000, "trial_type": "single-audio", "word": "ground", "stimulus": "/static/audio/wordpool/GROUND.wav", "conditions": [24, 1600, "a", 12000], "internal_node_id": "0.0-130.0", "trial": 4, "time_elapsed": 953649, "serialpos": 6, "key_press": -1, "wordID": 665, "type": "PRES_AUD", "trial_index": 175}, "uniqueid": "MTK3405:3FQ5JJ512MV9EQKNEXBKQRVRWQ3NKE", "dateTime": 1520526887902}, {"current_trial": 176, "trialdata": {"rt": -1000, "trial_type": "single-audio", "word": "grave", "stimulus": "/static/audio/wordpool/GRAVE.wav", "conditions": [24, 1600, "a", 12000], "internal_node_id": "0.0-131.0", "trial": 4, "time_elapsed": 956315, "serialpos": 7, "key_press": -1, "wordID": 657, "type": "PRES_AUD", "trial_index": 176}, "uniqueid": "MTK3405:3FQ5JJ512MV9EQKNEXBKQRVRWQ3NKE", "dateTime": 1520526890569}, {"current_trial": 177, "trialdata": {"rt": -1000, "trial_type": "single-audio", "word": "doughnut", "stimulus": "/static/audio/wordpool/DOUGHNUT.wav", "conditions": [24, 1600, "a", 12000], "internal_node_id": "0.0-132.0", "trial": 4, "time_elapsed": 958954, "serialpos": 8, "key_press": -1, "wordID": 489, "type": "PRES_AUD", "trial_index": 177}, "uniqueid": "MTK3405:3FQ5JJ512MV9EQKNEXBKQRVRWQ3NKE", "dateTime": 1520526893208}, {"current_trial": 178, "trialdata": {"rt": -1000, "trial_type": "single-audio", "word": "powder", "stimulus": "/static/audio/wordpool/POWDER.wav", "conditions": [24, 1600, "a", 12000], "internal_node_id": "0.0-133.0", "trial": 4, "time_elapsed": 961439, "serialpos": 9, "key_press": -1, "wordID": 1116, "type": "PRES_AUD", "trial_index": 178}, "uniqueid": "MTK3405:3FQ5JJ512MV9EQKNEXBKQRVRWQ3NKE", "dateTime": 1520526895692}, {"current_trial": 179, "trialdata": {"rt": -1000, "trial_type": "single-audio", "word": "mildew", "stimulus": "/static/audio/wordpool/MILDEW.wav", "conditions": [24, 1600, "a", 12000], "internal_node_id": "0.0-134.0", "trial": 4, "time_elapsed": 963913, "serialpos": 10, "key_press": -1, "wordID": 892, "type": "PRES_AUD", "trial_index": 179}, "uniqueid": "MTK3405:3FQ5JJ512MV9EQKNEXBKQRVRWQ3NKE", "dateTime": 1520526898166}, {"current_trial": 180, "trialdata": {"rt": -1000, "trial_type": "single-audio", "word": "slime", "stimulus": "/static/audio/wordpool/SLIME.wav", "conditions": [24, 1600, "a", 12000], "internal_node_id": "0.0-135.0", "trial": 4, "time_elapsed": 966705, "serialpos": 11, "key_press": -1, "wordID": 1326, "type": "PRES_AUD", "trial_index": 180}, "uniqueid": "MTK3405:3FQ5JJ512MV9EQKNEXBKQRVRWQ3NKE", "dateTime": 1520526900958}, {"current_trial": 181, "trialdata": {"rt": -1000, "trial_type": "single-audio", "word": "highway", "stimulus": "/static/audio/wordpool/HIGHWAY.wav", "conditions": [24, 1600, "a", 12000], "internal_node_id": "0.0-136.0", "trial": 4, "time_elapsed": 969189, "serialpos": 12, "key_press": -1, "wordID": 706, "type": "PRES_AUD", "trial_index": 181}, "uniqueid": "MTK3405:3FQ5JJ512MV9EQKNEXBKQRVRWQ3NKE", "dateTime": 1520526903442}, {"current_trial": 182, "trialdata": {"rt": -1000, "trial_type": "single-audio", "word": "briefcase", "stimulus": "/static/audio/wordpool/BRIEFCASE.wav", "conditions": [24, 1600, "a", 12000], "internal_node_id": "0.0-137.0", "trial": 4, "time_elapsed": 971829, "serialpos": 13, "key_press": -1, "wordID": 174, "type": "PRES_AUD", "trial_index": 182}, "uniqueid": "MTK3405:3FQ5JJ512MV9EQKNEXBKQRVRWQ3NKE", "dateTime": 1520526906082}, {"current_trial": 183, "trialdata": {"rt": -1000, "trial_type": "single-audio", "word": "buggy", "stimulus": "/static/audio/wordpool/BUGGY.wav", "conditions": [24, 1600, "a", 12000], "internal_node_id": "0.0-138.0", "trial": 4, "time_elapsed": 974489, "serialpos": 14, "key_press": -1, "wordID": 187, "type": "PRES_AUD", "trial_index": 183}, "uniqueid": "MTK3405:3FQ5JJ512MV9EQKNEXBKQRVRWQ3NKE", "dateTime": 1520526908743}, {"current_trial": 184, "trialdata": {"rt": -1000, "trial_type": "single-audio", "word": "church", "stimulus": "/static/audio/wordpool/CHURCH.wav", "conditions": [24, 1600, "a", 12000], "internal_node_id": "0.0-139.0", "trial": 4, "time_elapsed": 976985, "serialpos": 15, "key_press": -1, "wordID": 306, "type": "PRES_AUD", "trial_index": 184}, "uniqueid": "MTK3405:3FQ5JJ512MV9EQKNEXBKQRVRWQ3NKE", "dateTime": 1520526911238}, {"current_trial": 185, "trialdata": {"rt": -1000, "trial_type": "single-audio", "word": "chapel", "stimulus": "/static/audio/wordpool/CHAPEL.wav", "conditions": [24, 1600, "a", 12000], "internal_node_id": "0.0-140.0", "trial": 4, "time_elapsed": 979568, "serialpos": 16, "key_press": -1, "wordID": 279, "type": "PRES_AUD", "trial_index": 185}, "uniqueid": "MTK3405:3FQ5JJ512MV9EQKNEXBKQRVRWQ3NKE", "dateTime": 1520526913821}, {"current_trial": 186, "trialdata": {"rt": -1000, "trial_type": "single-audio", "word": "monster", "stimulus": "/static/audio/wordpool/MONSTER.wav", "conditions": [24, 1600, "a", 12000], "internal_node_id": "0.0-141.0", "trial": 4, "time_elapsed": 982035, "serialpos": 17, "key_press": -1, "wordID": 911, "type": "PRES_AUD", "trial_index": 186}, "uniqueid": "MTK3405:3FQ5JJ512MV9EQKNEXBKQRVRWQ3NKE", "dateTime": 1520526916288}, {"current_trial": 187, "trialdata": {"rt": -1000, "trial_type": "single-audio", "word": "curtain", "stimulus": "/static/audio/wordpool/CURTAIN.wav", "conditions": [24, 1600, "a", 12000], "internal_node_id": "0.0-142.0", "trial": 4, "time_elapsed": 984559, "serialpos": 18, "key_press": -1, "wordID": 426, "type": "PRES_AUD", "trial_index": 187}, "uniqueid": "MTK3405:3FQ5JJ512MV9EQKNEXBKQRVRWQ3NKE", "dateTime": 1520526918813}, {"current_trial": 188, "trialdata": {"rt": -1000, "trial_type": "single-audio", "word": "airplane", "stimulus": "/static/audio/wordpool/AIRPLANE.wav", "conditions": [24, 1600, "a", 12000], "internal_node_id": "0.0-143.0", "trial": 4, "time_elapsed": 987159, "serialpos": 19, "key_press": -1, "wordID": 11, "type": "PRES_AUD", "trial_index": 188}, "uniqueid": "MTK3405:3FQ5JJ512MV9EQKNEXBKQRVRWQ3NKE", "dateTime": 1520526921413}, {"current_trial": 189, "trialdata": {"rt": -1000, "trial_type": "single-audio", "word": "marsh", "stimulus": "/static/audio/wordpool/MARSH.wav", "conditions": [24, 1600, "a", 12000], "internal_node_id": "0.0-144.0", "trial": 4, "time_elapsed": 989882, "serialpos": 20, "key_press": -1, "wordID": 873, "type": "PRES_AUD", "trial_index": 189}, "uniqueid": "MTK3405:3FQ5JJ512MV9EQKNEXBKQRVRWQ3NKE", "dateTime": 1520526924135}, {"current_trial": 190, "trialdata": {"rt": -1000, "trial_type": "single-audio", "word": "hawk", "stimulus": "/static/audio/wordpool/HAWK.wav", "conditions": [24, 1600, "a", 12000], "internal_node_id": "0.0-145.0", "trial": 4, "time_elapsed": 992540, "serialpos": 21, "key_press": -1, "wordID": 691, "type": "PRES_AUD", "trial_index": 190}, "uniqueid": "MTK3405:3FQ5JJ512MV9EQKNEXBKQRVRWQ3NKE", "dateTime": 1520526926793}, {"current_trial": 191, "trialdata": {"rt": -1000, "trial_type": "single-audio", "word": "beast", "stimulus": "/static/audio/wordpool/BEAST.wav", "conditions": [24, 1600, "a", 12000], "internal_node_id": "0.0-146.0", "trial": 4, "time_elapsed": 995062, "serialpos": 22, "key_press": -1, "wordID": 107, "type": "PRES_AUD", "trial_index": 191}, "uniqueid": "MTK3405:3FQ5JJ512MV9EQKNEXBKQRVRWQ3NKE", "dateTime": 1520526929315}, {"current_trial": 192, "trialdata": {"rt": -1000, "trial_type": "single-audio", "word": "paddle", "stimulus": "/static/audio/wordpool/PADDLE.wav", "conditions": [24, 1600, "a", 12000], "internal_node_id": "0.0-147.0", "trial": 4, "time_elapsed": 997671, "serialpos": 23, "key_press": -1, "wordID": 999, "type": "PRES_AUD", "trial_index": 192}, "uniqueid": "MTK3405:3FQ5JJ512MV9EQKNEXBKQRVRWQ3NKE", "dateTime": 1520526931924}, {"current_trial": 193, "trialdata": {"rt": -1, "trial_type": "single-stim", "stimulus": "", "internal_node_id": "0.0-148.0-0.0", "time_elapsed": 998957, "key_press": -1, "type": "PRE_RECALL_DELAY", "trial_index": 193}, "uniqueid": "MTK3405:3FQ5JJ512MV9EQKNEXBKQRVRWQ3NKE", "dateTime": 1520526933210}, {"current_trial": 194, "trialdata": {"rt": -1000, "trial_type": "single-audio", "stimulus": "/static/audio/400Hz.wav", "internal_node_id": "0.0-149.0", "time_elapsed": 999459, "key_press": -1, "type": "PRE_RECALL_ALERT", "trial_index": 194}, "uniqueid": "MTK3405:3FQ5JJ512MV9EQKNEXBKQRVRWQ3NKE", "dateTime": 1520526933712}, {"current_trial": 195, "trialdata": {"rt": [3016, 7016, 9976, 15968, 19183, 21880, 26904, 37360, 42704, 48567, 50848], "recwords": ["paddle", "beast", "hawk", "airplane", "church", "chapel", "highway", "powder", "donut", "grave", "ground"], "key_times": [1104, 1304, 1488, 1625, 1960, 2120, 3016, 5256, 5376, 5481, 5616, 5975, 7016, 7505, 7640, 7856, 8200, 8971, 9248, 9976, 12384, 12520, 12752, 13071, 13280, 13415, 13976, 14111, 14368, 14448, 14640, 14783, 15968, 16832, 17521, 17648, 17751, 17943, 17959, 18224, 18304, 19183, 20064, 20152, 20320, 20896, 21016, 21136, 21880, 25729, 25888, 26047, 26088, 26279, 26447, 26551, 26904, 35922, 36088, 36231, 36640, 36895, 37056, 37360, 37672, 37776, 38439, 38656, 38712, 39680, 39848, 39999, 40152, 40455, 41039, 41440, 41719, 41912, 42013, 42704, 46913, 47136, 47407, 47768, 47951, 48567, 49514, 49703, 49784, 49928, 50280, 50336, 50848, 54984, 55591, 55647, 55808, 56016], "trial_type": "free-recall", "conditions": [24, 1600, "a", 12000], "internal_node_id": "0.0-150.0-0.0", "key_presses": [80, 65, 68, 68, 76, 69, 13, 66, 69, 65, 83, 84, 13, 72, 65, 87, 70, 8, 75, 13, 65, 73, 82, 80, 65, 76, 8, 8, 76, 65, 78, 69, 13, 72, 8, 67, 72, 85, 82, 67, 72, 13, 67, 72, 65, 80, 69, 76, 13, 72, 73, 71, 72, 87, 65, 89, 13, 80, 79, 87, 68, 69, 82, 13, 68, 85, 78, 85, 84, 8, 8, 8, 8, 73, 8, 79, 78, 85, 84, 13, 71, 82, 65, 86, 69, 13, 71, 82, 79, 85, 78, 68, 13, 68, 73, 65, 83, 89], "trial": 4, "time_elapsed": 1059463, "type": "FREE_RECALL", "trial_index": 195}, "uniqueid": "MTK3405:3FQ5JJ512MV9EQKNEXBKQRVRWQ3NKE", "dateTime": 1520526993723}, {"current_trial": 196, "trialdata": {"rt": 1373, "trial_type": "text", "internal_node_id": "0.0-151.0", "time_elapsed": 1062845, "key_press": 13, "type": "INSTRUCTIONS", "trial_index": 196}, "uniqueid": "MTK3405:3FQ5JJ512MV9EQKNEXBKQRVRWQ3NKE", "dateTime": 1520526997098}, {"current_trial": 197, "trialdata": {"rt": [2436, 6934, 9044, 11004], "trial_type": "math-distractor", "key_times": [1389, 1444, 2436, 6261, 6381, 6934, 8470, 8677, 9044, 10676, 11004], "responses": ["12", "13", "18", "9"], "num2": [7, 7, 3, 1, 7], "num3": [2, 1, 8, 1, 3], "conditions": [12, 800, "a", 12000], "internal_node_id": "0.0-152.0", "key_presses": [97, 98, 13, 97, 99, 13, 97, 104, 13, 105, 13], "trial": 5, "time_elapsed": 1076851, "type": "DISTRACTOR", "trial_index": 197, "num1": [3, 5, 7, 7, 4]}, "uniqueid": "MTK3405:3FQ5JJ512MV9EQKNEXBKQRVRWQ3NKE", "dateTime": 1520527011104}, {"current_trial": 198, "trialdata": {"rt": -1, "trial_type": "single-stim", "stimulus": "<p id=\"stim\">10</p>", "internal_node_id": "0.0-153.0-0.0", "time_elapsed": 1079855, "key_press": -1, "trial_index": 198}, "uniqueid": "MTK3405:3FQ5JJ512MV9EQKNEXBKQRVRWQ3NKE", "dateTime": 1520527014108}, {"current_trial": 199, "trialdata": {"rt": -1, "trial_type": "single-stim", "stimulus": "<p id=\"stim\">9</p>", "internal_node_id": "0.0-153.0-1.0", "time_elapsed": 1080856, "key_press": -1, "trial_index": 199}, "uniqueid": "MTK3405:3FQ5JJ512MV9EQKNEXBKQRVRWQ3NKE", "dateTime": 1520527015109}, {"current_trial": 200, "trialdata": {"rt": -1, "trial_type": "single-stim", "stimulus": "<p id=\"stim\">8</p>", "internal_node_id": "0.0-153.0-2.0", "time_elapsed": 1081858, "key_press": -1, "trial_index": 200}, "uniqueid": "MTK3405:3FQ5JJ512MV9EQKNEXBKQRVRWQ3NKE", "dateTime": 1520527016112}, {"current_trial": 201, "trialdata": {"rt": -1, "trial_type": "single-stim", "stimulus": "<p id=\"stim\">7</p>", "internal_node_id": "0.0-153.0-3.0", "time_elapsed": 1082861, "key_press": -1, "trial_index": 201}, "uniqueid": "MTK3405:3FQ5JJ512MV9EQKNEXBKQRVRWQ3NKE", "dateTime": 1520527017115}, {"current_trial": 202, "trialdata": {"rt": -1, "trial_type": "single-stim", "stimulus": "<p id=\"stim\">6</p>", "internal_node_id": "0.0-153.0-4.0", "time_elapsed": 1083865, "key_press": -1, "trial_index": 202}, "uniqueid": "MTK3405:3FQ5JJ512MV9EQKNEXBKQRVRWQ3NKE", "dateTime": 1520527018118}, {"current_trial": 203, "trialdata": {"rt": -1, "trial_type": "single-stim", "stimulus": "<p id=\"stim\">5</p>", "internal_node_id": "0.0-153.0-5.0", "time_elapsed": 1084866, "key_press": -1, "trial_index": 203}, "uniqueid": "MTK3405:3FQ5JJ512MV9EQKNEXBKQRVRWQ3NKE", "dateTime": 1520527019119}, {"current_trial": 204, "trialdata": {"rt": -1, "trial_type": "single-stim", "stimulus": "<p id=\"stim\">4</p>", "internal_node_id": "0.0-153.0-6.0", "time_elapsed": 1085868, "key_press": -1, "trial_index": 204}, "uniqueid": "MTK3405:3FQ5JJ512MV9EQKNEXBKQRVRWQ3NKE", "dateTime": 1520527020121}, {"current_trial": 205, "trialdata": {"rt": -1, "trial_type": "single-stim", "stimulus": "<p id=\"stim\">3</p>", "internal_node_id": "0.0-153.0-7.0", "time_elapsed": 1086870, "key_press": -1, "trial_index": 205}, "uniqueid": "MTK3405:3FQ5JJ512MV9EQKNEXBKQRVRWQ3NKE", "dateTime": 1520527021123}, {"current_trial": 206, "trialdata": {"rt": -1, "trial_type": "single-stim", "stimulus": "<p id=\"stim\">2</p>", "internal_node_id": "0.0-153.0-8.0", "time_elapsed": 1087871, "key_press": -1, "trial_index": 206}, "uniqueid": "MTK3405:3FQ5JJ512MV9EQKNEXBKQRVRWQ3NKE", "dateTime": 1520527022125}, {"current_trial": 207, "trialdata": {"rt": -1, "trial_type": "single-stim", "stimulus": "<p id=\"stim\">1</p>", "internal_node_id": "0.0-153.0-9.0", "time_elapsed": 1088873, "key_press": -1, "trial_index": 207}, "uniqueid": "MTK3405:3FQ5JJ512MV9EQKNEXBKQRVRWQ3NKE", "dateTime": 1520527023127}, {"current_trial": 208, "trialdata": {"rt": -1, "trial_type": "single-stim", "stimulus": "<p id=\"stim\">+</p>", "internal_node_id": "0.0-154.0-0.0", "time_elapsed": 1090382, "key_press": -1, "type": "FIXATION", "trial_index": 208}, "uniqueid": "MTK3405:3FQ5JJ512MV9EQKNEXBKQRVRWQ3NKE", "dateTime": 1520527024635}, {"current_trial": 209, "trialdata": {"rt": -1000, "trial_type": "single-audio", "word": "lake", "stimulus": "/static/audio/wordpool/LAKE.wav", "conditions": [12, 800, "a", 12000], "internal_node_id": "0.0-155.0", "trial": 5, "time_elapsed": 1092316, "serialpos": 0, "key_press": -1, "wordID": 795, "type": "PRES_AUD", "trial_index": 209}, "uniqueid": "MTK3405:3FQ5JJ512MV9EQKNEXBKQRVRWQ3NKE", "dateTime": 1520527026570}, {"current_trial": 210, "trialdata": {"rt": -1000, "trial_type": "single-audio", "word": "airport", "stimulus": "/static/audio/wordpool/AIRPORT.wav", "conditions": [12, 800, "a", 12000], "internal_node_id": "0.0-156.0", "trial": 5, "time_elapsed": 1094289, "serialpos": 1, "key_press": -1, "wordID": 12, "type": "PRES_AUD", "trial_index": 210}, "uniqueid": "MTK3405:3FQ5JJ512MV9EQKNEXBKQRVRWQ3NKE", "dateTime": 1520527028543}, {"current_trial": 211, "trialdata": {"rt": -1000, "trial_type": "single-audio", "word": "palace", "stimulus": "/static/audio/wordpool/PALACE.wav", "conditions": [12, 800, "a", 12000], "internal_node_id": "0.0-157.0", "trial": 5, "time_elapsed": 1096210, "serialpos": 2, "key_press": -1, "wordID": 1005, "type": "PRES_AUD", "trial_index": 211}, "uniqueid": "MTK3405:3FQ5JJ512MV9EQKNEXBKQRVRWQ3NKE", "dateTime": 1520527030464}, {"current_trial": 212, "trialdata": {"rt": -1000, "trial_type": "single-audio", "word": "lady", "stimulus": "/static/audio/wordpool/LADY.wav", "conditions": [12, 800, "a", 12000], "internal_node_id": "0.0-158.0", "trial": 5, "time_elapsed": 1098145, "serialpos": 3, "key_press": -1, "wordID": 793, "type": "PRES_AUD", "trial_index": 212}, "uniqueid": "MTK3405:3FQ5JJ512MV9EQKNEXBKQRVRWQ3NKE", "dateTime": 1520527032398}, {"current_trial": 213, "trialdata": {"rt": -1000, "trial_type": "single-audio", "word": "sponge", "stimulus": "/static/audio/wordpool/SPONGE.wav", "conditions": [12, 800, "a", 12000], "internal_node_id": "0.0-159.0", "trial": 5, "time_elapsed": 1099948, "serialpos": 4, "key_press": -1, "wordID": 1354, "type": "PRES_AUD", "trial_index": 213}, "uniqueid": "MTK3405:3FQ5JJ512MV9EQKNEXBKQRVRWQ3NKE", "dateTime": 1520527034201}, {"current_trial": 214, "trialdata": {"rt": -1000, "trial_type": "single-audio", "word": "zebra", "stimulus": "/static/audio/wordpool/ZEBRA.wav", "conditions": [12, 800, "a", 12000], "internal_node_id": "0.0-160.0", "trial": 5, "time_elapsed": 1101864, "serialpos": 5, "key_press": -1, "wordID": 1634, "type": "PRES_AUD", "trial_index": 214}, "uniqueid": "MTK3405:3FQ5JJ512MV9EQKNEXBKQRVRWQ3NKE", "dateTime": 1520527036117}, {"current_trial": 215, "trialdata": {"rt": -1000, "trial_type": "single-audio", "word": "camel", "stimulus": "/static/audio/wordpool/CAMEL.wav", "conditions": [12, 800, "a", 12000], "internal_node_id": "0.0-161.0", "trial": 5, "time_elapsed": 1103699, "serialpos": 6, "key_press": -1, "wordID": 222, "type": "PRES_AUD", "trial_index": 215}, "uniqueid": "MTK3405:3FQ5JJ512MV9EQKNEXBKQRVRWQ3NKE", "dateTime": 1520527037952}, {"current_trial": 216, "trialdata": {"rt": -1000, "trial_type": "single-audio", "word": "driver", "stimulus": "/static/audio/wordpool/DRIVER.wav", "conditions": [12, 800, "a", 12000], "internal_node_id": "0.0-162.0", "trial": 5, "time_elapsed": 1105530, "serialpos": 7, "key_press": -1, "wordID": 498, "type": "PRES_AUD", "trial_index": 216}, "uniqueid": "MTK3405:3FQ5JJ512MV9EQKNEXBKQRVRWQ3NKE", "dateTime": 1520527039783}, {"current_trial": 217, "trialdata": {"rt": -1000, "trial_type": "single-audio", "word": "truck", "stimulus": "/static/audio/wordpool/TRUCK.wav", "conditions": [12, 800, "a", 12000], "internal_node_id": "0.0-163.0", "trial": 5, "time_elapsed": 1107243, "serialpos": 8, "key_press": -1, "wordID": 1511, "type": "PRES_AUD", "trial_index": 217}, "uniqueid": "MTK3405:3FQ5JJ512MV9EQKNEXBKQRVRWQ3NKE", "dateTime": 1520527041498}, {"current_trial": 218, "trialdata": {"rt": -1000, "trial_type": "single-audio", "word": "jello", "stimulus": "/static/audio/wordpool/JELLO.wav", "conditions": [12, 800, "a", 12000], "internal_node_id": "0.0-164.0", "trial": 5, "time_elapsed": 1108901, "serialpos": 9, "key_press": -1, "wordID": 753, "type": "PRES_AUD", "trial_index": 218}, "uniqueid": "MTK3405:3FQ5JJ512MV9EQKNEXBKQRVRWQ3NKE", "dateTime": 1520527043154}, {"current_trial": 219, "trialdata": {"rt": -1000, "trial_type": "single-audio", "word": "parsley", "stimulus": "/static/audio/wordpool/PARSLEY.wav", "conditions": [12, 800, "a", 12000], "internal_node_id": "0.0-165.0", "trial": 5, "time_elapsed": 1110869, "serialpos": 10, "key_press": -1, "wordID": 1015, "type": "PRES_AUD", "trial_index": 219}, "uniqueid": "MTK3405:3FQ5JJ512MV9EQKNEXBKQRVRWQ3NKE", "dateTime": 1520527045122}, {"current_trial": 220, "trialdata": {"rt": -1000, "trial_type": "single-audio", "word": "donkey", "stimulus": "/static/audio/wordpool/DONKEY.wav", "conditions": [12, 800, "a", 12000], "internal_node_id": "0.0-166.0", "trial": 5, "time_elapsed": 1112487, "serialpos": 11, "key_press": -1, "wordID": 483, "type": "PRES_AUD", "trial_index": 220}, "uniqueid": "MTK3405:3FQ5JJ512MV9EQKNEXBKQRVRWQ3NKE", "dateTime": 1520527046740}, {"current_trial": 221, "trialdata": {"rt": -1, "trial_type": "single-stim", "stimulus": "", "internal_node_id": "0.0-167.0-0.0", "time_elapsed": 1113875, "key_press": -1, "type": "PRE_RECALL_DELAY", "trial_index": 221}, "uniqueid": "MTK3405:3FQ5JJ512MV9EQKNEXBKQRVRWQ3NKE", "dateTime": 1520527048128}, {"current_trial": 222, "trialdata": {"rt": -1000, "trial_type": "single-audio", "stimulus": "/static/audio/400Hz.wav", "internal_node_id": "0.0-168.0", "time_elapsed": 1114378, "key_press": -1, "type": "PRE_RECALL_ALERT", "trial_index": 222}, "uniqueid": "MTK3405:3FQ5JJ512MV9EQKNEXBKQRVRWQ3NKE", "dateTime": 1520527048631}, {"current_trial": 223, "trialdata": {"rt": [2976, 7672, 12008, 16520, 19352, 24825, 27072, 32344, 44336], "recwords": ["donkey", "jello", "truck", "driver", "sponge", "lady", "airport", "lake", "camel"], "key_times": [1793, 1888, 1992, 2240, 2376, 2552, 2976, 4648, 4865, 5000, 5145, 5336, 6736, 7272, 7672, 8976, 9112, 9176, 9520, 9665, 10088, 10247, 10431, 10657, 10824, 10985, 11152, 11287, 12008, 12647, 12784, 12888, 13056, 13160, 13928, 14088, 14391, 14543, 14736, 15249, 15408, 15584, 15688, 16520, 17696, 17816, 18088, 18288, 18472, 18680, 19352, 20880, 21040, 21273, 21704, 21856, 21960, 22545, 22664, 24825, 25600, 25657, 25841, 26073, 26248, 26368, 26552, 27072, 31065, 31304, 31448, 31528, 32344, 37850, 38168, 39080, 39673, 39832, 44336], "trial_type": "free-recall", "conditions": [12, 800, "a", 12000], "internal_node_id": "0.0-169.0-0.0", "key_presses": [68, 79, 78, 75, 69, 89, 13, 74, 69, 76, 76, 89, 8, 79, 13, 84, 85, 82, 67, 75, 8, 8, 8, 8, 82, 85, 67, 75, 13, 68, 73, 86, 69, 82, 8, 8, 8, 8, 82, 73, 86, 69, 82, 13, 83, 80, 79, 78, 71, 69, 13, 76, 68, 65, 8, 8, 65, 68, 89, 13, 65, 73, 82, 80, 79, 82, 84, 13, 76, 65, 75, 69, 13, 67, 65, 77, 69, 76, 13], "trial": 5, "time_elapsed": 1174384, "type": "FREE_RECALL", "trial_index": 223}, "uniqueid": "MTK3405:3FQ5JJ512MV9EQKNEXBKQRVRWQ3NKE", "dateTime": 1520527108643}, {"current_trial": 224, "trialdata": {"rt": 2052, "trial_type": "text", "internal_node_id": "0.0-170.0", "time_elapsed": 1178445, "key_press": 13, "type": "INSTRUCTIONS", "trial_index": 224}, "uniqueid": "MTK3405:3FQ5JJ512MV9EQKNEXBKQRVRWQ3NKE", "dateTime": 1520527112698}, {"current_trial": 225, "trialdata": {"rt": [2524, 4195, 6844, 8964], "trial_type": "math-distractor", "key_times": [1780, 2013, 2524, 3765, 3844, 4195, 6252, 6436, 6844, 8445, 8652, 8964, 11829, 11909], "responses": ["10", "12", "19", "19"], "num2": [2, 1, 9, 9, 6], "num3": [5, 9, 6, 2, 2], "conditions": [12, 800, "a", 12000], "internal_node_id": "0.0-171.0", "key_presses": [97, 96, 13, 97, 98, 13, 97, 105, 13, 97, 105, 13, 97, 101], "trial": 6, "time_elapsed": 1192449, "type": "DISTRACTOR", "trial_index": 225, "num1": [3, 2, 4, 8, 7]}, "uniqueid": "MTK3405:3FQ5JJ512MV9EQKNEXBKQRVRWQ3NKE", "dateTime": 1520527126702}, {"current_trial": 226, "trialdata": {"rt": -1, "trial_type": "single-stim", "stimulus": "<p id=\"stim\">10</p>", "internal_node_id": "0.0-172.0-0.0", "time_elapsed": 1195454, "key_press": -1, "trial_index": 226}, "uniqueid": "MTK3405:3FQ5JJ512MV9EQKNEXBKQRVRWQ3NKE", "dateTime": 1520527129707}, {"current_trial": 227, "trialdata": {"rt": -1, "trial_type": "single-stim", "stimulus": "<p id=\"stim\">9</p>", "internal_node_id": "0.0-172.0-1.0", "time_elapsed": 1196459, "key_press": -1, "trial_index": 227}, "uniqueid": "MTK3405:3FQ5JJ512MV9EQKNEXBKQRVRWQ3NKE", "dateTime": 1520527130712}, {"current_trial": 228, "trialdata": {"rt": -1, "trial_type": "single-stim", "stimulus": "<p id=\"stim\">8</p>", "internal_node_id": "0.0-172.0-2.0", "time_elapsed": 1197462, "key_press": -1, "trial_index": 228}, "uniqueid": "MTK3405:3FQ5JJ512MV9EQKNEXBKQRVRWQ3NKE", "dateTime": 1520527131715}, {"current_trial": 229, "trialdata": {"rt": -1, "trial_type": "single-stim", "stimulus": "<p id=\"stim\">7</p>", "internal_node_id": "0.0-172.0-3.0", "time_elapsed": 1198465, "key_press": -1, "trial_index": 229}, "uniqueid": "MTK3405:3FQ5JJ512MV9EQKNEXBKQRVRWQ3NKE", "dateTime": 1520527132718}, {"current_trial": 230, "trialdata": {"rt": -1, "trial_type": "single-stim", "stimulus": "<p id=\"stim\">6</p>", "internal_node_id": "0.0-172.0-4.0", "time_elapsed": 1199466, "key_press": -1, "trial_index": 230}, "uniqueid": "MTK3405:3FQ5JJ512MV9EQKNEXBKQRVRWQ3NKE", "dateTime": 1520527133720}, {"current_trial": 231, "trialdata": {"rt": -1, "trial_type": "single-stim", "stimulus": "<p id=\"stim\">5</p>", "internal_node_id": "0.0-172.0-5.0", "time_elapsed": 1200469, "key_press": -1, "trial_index": 231}, "uniqueid": "MTK3405:3FQ5JJ512MV9EQKNEXBKQRVRWQ3NKE", "dateTime": 1520527134723}, {"current_trial": 232, "trialdata": {"rt": -1, "trial_type": "single-stim", "stimulus": "<p id=\"stim\">4</p>", "internal_node_id": "0.0-172.0-6.0", "time_elapsed": 1201472, "key_press": -1, "trial_index": 232}, "uniqueid": "MTK3405:3FQ5JJ512MV9EQKNEXBKQRVRWQ3NKE", "dateTime": 1520527135726}, {"current_trial": 233, "trialdata": {"rt": -1, "trial_type": "single-stim", "stimulus": "<p id=\"stim\">3</p>", "internal_node_id": "0.0-172.0-7.0", "time_elapsed": 1202474, "key_press": -1, "trial_index": 233}, "uniqueid": "MTK3405:3FQ5JJ512MV9EQKNEXBKQRVRWQ3NKE", "dateTime": 1520527136727}, {"current_trial": 234, "trialdata": {"rt": -1, "trial_type": "single-stim", "stimulus": "<p id=\"stim\">2</p>", "internal_node_id": "0.0-172.0-8.0", "time_elapsed": 1203474, "key_press": -1, "trial_index": 234}, "uniqueid": "MTK3405:3FQ5JJ512MV9EQKNEXBKQRVRWQ3NKE", "dateTime": 1520527137727}, {"current_trial": 235, "trialdata": {"rt": -1, "trial_type": "single-stim", "stimulus": "<p id=\"stim\">1</p>", "internal_node_id": "0.0-172.0-9.0", "time_elapsed": 1204476, "key_press": -1, "trial_index": 235}, "uniqueid": "MTK3405:3FQ5JJ512MV9EQKNEXBKQRVRWQ3NKE", "dateTime": 1520527138730}, {"current_trial": 236, "trialdata": {"rt": -1, "trial_type": "single-stim", "stimulus": "<p id=\"stim\">+</p>", "internal_node_id": "0.0-173.0-0.0", "time_elapsed": 1205979, "key_press": -1, "type": "FIXATION", "trial_index": 236}, "uniqueid": "MTK3405:3FQ5JJ512MV9EQKNEXBKQRVRWQ3NKE", "dateTime": 1520527140232}, {"current_trial": 237, "trialdata": {"rt": -1000, "trial_type": "single-audio", "word": "typist", "stimulus": "/static/audio/wordpool/TYPIST.wav", "conditions": [12, 800, "a", 12000], "internal_node_id": "0.0-174.0", "trial": 6, "time_elapsed": 1207676, "serialpos": 0, "key_press": -1, "wordID": 1531, "type": "PRES_AUD", "trial_index": 237}, "uniqueid": "MTK3405:3FQ5JJ512MV9EQKNEXBKQRVRWQ3NKE", "dateTime": 1520527141929}, {"current_trial": 238, "trialdata": {"rt": -1000, "trial_type": "single-audio", "word": "globe", "stimulus": "/static/audio/wordpool/GLOBE.wav", "conditions": [12, 800, "a", 12000], "internal_node_id": "0.0-175.0", "trial": 6, "time_elapsed": 1209642, "serialpos": 1, "key_press": -1, "wordID": 640, "type": "PRES_AUD", "trial_index": 238}, "uniqueid": "MTK3405:3FQ5JJ512MV9EQKNEXBKQRVRWQ3NKE", "dateTime": 1520527143895}, {"current_trial": 239, "trialdata": {"rt": -1000, "trial_type": "single-audio", "word": "country", "stimulus": "/static/audio/wordpool/COUNTRY.wav", "conditions": [12, 800, "a", 12000], "internal_node_id": "0.0-176.0", "trial": 6, "time_elapsed": 1211362, "serialpos": 2, "key_press": -1, "wordID": 387, "type": "PRES_AUD", "trial_index": 239}, "uniqueid": "MTK3405:3FQ5JJ512MV9EQKNEXBKQRVRWQ3NKE", "dateTime": 1520527145615}, {"current_trial": 240, "trialdata": {"rt": -1000, "trial_type": "single-audio", "word": "box", "stimulus": "/static/audio/wordpool/BOX.wav", "conditions": [12, 800, "a", 12000], "internal_node_id": "0.0-177.0", "trial": 6, "time_elapsed": 1212991, "serialpos": 3, "key_press": -1, "wordID": 158, "type": "PRES_AUD", "trial_index": 240}, "uniqueid": "MTK3405:3FQ5JJ512MV9EQKNEXBKQRVRWQ3NKE", "dateTime": 1520527147244}, {"current_trial": 241, "trialdata": {"rt": -1000, "trial_type": "single-audio", "word": "pigment", "stimulus": "/static/audio/wordpool/PIGMENT.wav", "conditions": [12, 800, "a", 12000], "internal_node_id": "0.0-178.0", "trial": 6, "time_elapsed": 1214977, "serialpos": 4, "key_press": -1, "wordID": 1065, "type": "PRES_AUD", "trial_index": 241}, "uniqueid": "MTK3405:3FQ5JJ512MV9EQKNEXBKQRVRWQ3NKE", "dateTime": 1520527149230}, {"current_trial": 242, "trialdata": {"rt": -1000, "trial_type": "single-audio", "word": "valve", "stimulus": "/static/audio/wordpool/VALVE.wav", "conditions": [12, 800, "a", 12000], "internal_node_id": "0.0-179.0", "trial": 6, "time_elapsed": 1216675, "serialpos": 5, "key_press": -1, "wordID": 1545, "type": "PRES_AUD", "trial_index": 242}, "uniqueid": "MTK3405:3FQ5JJ512MV9EQKNEXBKQRVRWQ3NKE", "dateTime": 1520527150929}, {"current_trial": 243, "trialdata": {"rt": -1000, "trial_type": "single-audio", "word": "motor", "stimulus": "/static/audio/wordpool/MOTOR.wav", "conditions": [12, 800, "a", 12000], "internal_node_id": "0.0-180.0", "trial": 6, "time_elapsed": 1218419, "serialpos": 6, "key_press": -1, "wordID": 921, "type": "PRES_AUD", "trial_index": 243}, "uniqueid": "MTK3405:3FQ5JJ512MV9EQKNEXBKQRVRWQ3NKE", "dateTime": 1520527152672}, {"current_trial": 244, "trialdata": {"rt": -1000, "trial_type": "single-audio", "word": "uncle", "stimulus": "/static/audio/wordpool/UNCLE.wav", "conditions": [12, 800, "a", 12000], "internal_node_id": "0.0-181.0", "t