{"assignmentId": "3TMSXRD2X77XVJ7FYOWPHVCJG7ZW1P", "workerId": "MTK3657", "questiondata": {"origin": "United States", "strat-rehearsal": "95", "marital": "Married/Domestic Partnership", "education": "Bachelor's degree", "ethnicity": "Not Hispanic", "color_depth": 24, "distracted": "No", "wrote-notes": "Yes", "strat-other": "", "screen_width": 1920, "avail_screen_width": 1920, "avail_screen_height": 1080, "strat-image": "77", "language": "ENGLISH", "gender": "Male", "age": "33", "gender_other": "", "race": ["Black"], "strat-categorize": "97", "pixel_depth": 24, "strat-spatial": "49", "strat-story": "17", "race_other": "", "screen_height": 1080}, "bonus": 0, "hitId": "3FCO4VKOZ4KF2L2WC2EQ7F0CRAEE7I", "counterbalance": 1330, "useragent": "Mozilla/5.0 (Windows NT 10.0; Win64; x64) AppleWebKit/537.36 (KHTML, like Gecko) Chrome/64.0.3282.186 Safari/537.36", "eventdata": [{"eventtype": "initialized", "interval": 0, "value": null, "timestamp": 1520884605513}, {"eventtype": "window_resize", "interval": 0, "value": [1920, 1033], "timestamp": 1520884605513}, {"eventtype": "focus", "interval": 19599, "value": "off", "timestamp": 1520884625112}, {"eventtype": "window_resize", "interval": 12370, "value": [1920, 1029], "timestamp": 1520884637482}, {"eventtype": "window_resize", "interval": 1192, "value": [1920, 1033], "timestamp": 1520884638674}, {"eventtype": "window_resize", "interval": 2536, "value": [1920, 866], "timestamp": 1520884641210}, {"eventtype": "window_resize", "interval": 5632, "value": [1301, 866], "timestamp": 1520884646842}, {"eventtype": "focus", "interval": 1404, "value": "on", "timestamp": 1520884648246}, {"eventtype": "focus", "interval": 126663, "value": "off", "timestamp": 1520884774909}, {"eventtype": "focus", "interval": 5939, "value": "on", "timestamp": 1520884780848}, {"eventtype": "focus", "interval": 971979, "value": "off", "timestamp": 1520885752827}, {"eventtype": "focus", "interval": 5201, "value": "on", "timestamp": 1520885758028}, {"eventtype": "focus", "interval": 92762, "value": "off", "timestamp": 1520885850790}, {"eventtype": "focus", "interval": 2813, "value": "on", "timestamp": 1520885853603}, {"eventtype": "focus", "interval": 556346, "value": "off", "timestamp": 1520886409949}, {"eventtype": "focus", "interval": 3557, "value": "on", "timestamp": 1520886413506}], "data": [{"current_trial": 0, "trialdata": {"rt": 22452, "trial_type": "text", "internal_node_id": "0.0-0.0", "time_elapsed": 22454, "key_press": 32, "type": "INSTRUCTIONS", "trial_index": 0}, "uniqueid": "MTK3657:3TMSXRD2X77XVJ7FYOWPHVCJG7ZW1P", "dateTime": 1520884650137}, {"current_trial": 1, "trialdata": {"rt": 205, "trial_type": "text", "internal_node_id": "0.0-1.0", "time_elapsed": 22660, "key_press": 32, "type": "INSTRUCTIONS", "trial_index": 1}, "uniqueid": "MTK3657:3TMSXRD2X77XVJ7FYOWPHVCJG7ZW1P", "dateTime": 1520884650342}, {"current_trial": 2, "trialdata": {"rt": [12082], "trial_type": "audio-test", "responses": ["ocean"], "internal_node_id": "0.0-2.0", "time_elapsed": 34747, "type": "AUDIO_TEST", "trial_index": 2}, "uniqueid": "MTK3657:3TMSXRD2X77XVJ7FYOWPHVCJG7ZW1P", "dateTime": 1520884662429}, {"current_trial": 3, "trialdata": {"rt": [12733], "trial_type": "audio-test", "responses": ["crystal"], "internal_node_id": "0.0-3.0", "time_elapsed": 47482, "type": "AUDIO_TEST", "trial_index": 3}, "uniqueid": "MTK3657:3TMSXRD2X77XVJ7FYOWPHVCJG7ZW1P", "dateTime": 1520884675164}, {"current_trial": 4, "trialdata": {"rt": [6793], "trial_type": "audio-test", "responses": ["spice"], "internal_node_id": "0.0-4.0", "time_elapsed": 54278, "type": "AUDIO_TEST", "trial_index": 4}, "uniqueid": "MTK3657:3TMSXRD2X77XVJ7FYOWPHVCJG7ZW1P", "dateTime": 1520884681960}, {"current_trial": 5, "trialdata": {"rt": 27630, "trial_type": "survey-text", "responses": "{\"Q0\":\"3:00 AM\",\"Q1\":\"10:00 AM\",\"Q2\":\"5\"}", "internal_node_id": "0.0-5.0", "time_elapsed": 82660, "type": "SLEEP_SURVEY", "trial_index": 5}, "uniqueid": "MTK3657:3TMSXRD2X77XVJ7FYOWPHVCJG7ZW1P", "dateTime": 1520884710342}, {"current_trial": 6, "trialdata": {"rt": 16747, "trial_type": "text", "internal_node_id": "0.0-6.0", "time_elapsed": 100408, "key_press": 32, "type": "INSTRUCTIONS", "trial_index": 6}, "uniqueid": "MTK3657:3TMSXRD2X77XVJ7FYOWPHVCJG7ZW1P", "dateTime": 1520884728090}, {"current_trial": 7, "trialdata": {"rt": 1546, "trial_type": "text", "internal_node_id": "0.0-7.0", "time_elapsed": 102454, "key_press": 32, "type": "INSTRUCTIONS", "trial_index": 7}, "uniqueid": "MTK3657:3TMSXRD2X77XVJ7FYOWPHVCJG7ZW1P", "dateTime": 1520884730136}, {"current_trial": 8, "trialdata": {"rt": 2161, "trial_type": "text", "internal_node_id": "0.0-8.0", "time_elapsed": 105117, "key_press": 32, "type": "INSTRUCTIONS", "trial_index": 8}, "uniqueid": "MTK3657:3TMSXRD2X77XVJ7FYOWPHVCJG7ZW1P", "dateTime": 1520884732799}, {"current_trial": 9, "trialdata": {"rt": [3852, 8192, 12252, 15183], "trial_type": "math-distractor", "key_times": [2847, 3852, 6757, 6983, 8192, 11425, 12252, 14663, 14855, 15183], "responses": ["6", "14", "7", "10"], "num2": [2, 2, 1, 2, 8], "num3": [2, 7, 2, 5, 2], "conditions": [18, 1200, "a", 18000], "internal_node_id": "0.0-9.0", "key_presses": [102, 13, 97, 100, 13, 103, 13, 97, 96, 13], "trial": 0, "time_elapsed": 124122, "type": "DISTRACTOR", "trial_index": 9, "num1": [2, 5, 4, 3, 5]}, "uniqueid": "MTK3657:3TMSXRD2X77XVJ7FYOWPHVCJG7ZW1P", "dateTime": 1520884751804}, {"current_trial": 10, "trialdata": {"rt": -1, "trial_type": "single-stim", "stimulus": "<p id=\"stim\">10</p>", "internal_node_id": "0.0-10.0-0.0", "time_elapsed": 127126, "key_press": -1, "trial_index": 10}, "uniqueid": "MTK3657:3TMSXRD2X77XVJ7FYOWPHVCJG7ZW1P", "dateTime": 1520884754808}, {"current_trial": 11, "trialdata": {"rt": -1, "trial_type": "single-stim", "stimulus": "<p id=\"stim\">9</p>", "internal_node_id": "0.0-10.0-1.0", "time_elapsed": 128126, "key_press": -1, "trial_index": 11}, "uniqueid": "MTK3657:3TMSXRD2X77XVJ7FYOWPHVCJG7ZW1P", "dateTime": 1520884755808}, {"current_trial": 12, "trialdata": {"rt": -1, "trial_type": "single-stim", "stimulus": "<p id=\"stim\">8</p>", "internal_node_id": "0.0-10.0-2.0", "time_elapsed": 129128, "key_press": -1, "trial_index": 12}, "uniqueid": "MTK3657:3TMSXRD2X77XVJ7FYOWPHVCJG7ZW1P", "dateTime": 1520884756810}, {"current_trial": 13, "trialdata": {"rt": -1, "trial_type": "single-stim", "stimulus": "<p id=\"stim\">7</p>", "internal_node_id": "0.0-10.0-3.0", "time_elapsed": 130130, "key_press": -1, "trial_index": 13}, "uniqueid": "MTK3657:3TMSXRD2X77XVJ7FYOWPHVCJG7ZW1P", "dateTime": 1520884757812}, {"current_trial": 14, "trialdata": {"rt": -1, "trial_type": "single-stim", "stimulus": "<p id=\"stim\">6</p>", "internal_node_id": "0.0-10.0-4.0", "time_elapsed": 131132, "key_press": -1, "trial_index": 14}, "uniqueid": "MTK3657:3TMSXRD2X77XVJ7FYOWPHVCJG7ZW1P", "dateTime": 1520884758814}, {"current_trial": 15, "trialdata": {"rt": -1, "trial_type": "single-stim", "stimulus": "<p id=\"stim\">5</p>", "internal_node_id": "0.0-10.0-5.0", "time_elapsed": 132134, "key_press": -1, "trial_index": 15}, "uniqueid": "MTK3657:3TMSXRD2X77XVJ7FYOWPHVCJG7ZW1P", "dateTime": 1520884759816}, {"current_trial": 16, "trialdata": {"rt": -1, "trial_type": "single-stim", "stimulus": "<p id=\"stim\">4</p>", "internal_node_id": "0.0-10.0-6.0", "time_elapsed": 133135, "key_press": -1, "trial_index": 16}, "uniqueid": "MTK3657:3TMSXRD2X77XVJ7FYOWPHVCJG7ZW1P", "dateTime": 1520884760817}, {"current_trial": 17, "trialdata": {"rt": -1, "trial_type": "single-stim", "stimulus": "<p id=\"stim\">3</p>", "internal_node_id": "0.0-10.0-7.0", "time_elapsed": 134136, "key_press": -1, "trial_index": 17}, "uniqueid": "MTK3657:3TMSXRD2X77XVJ7FYOWPHVCJG7ZW1P", "dateTime": 1520884761818}, {"current_trial": 18, "trialdata": {"rt": -1, "trial_type": "single-stim", "stimulus": "<p id=\"stim\">2</p>", "internal_node_id": "0.0-10.0-8.0", "time_elapsed": 135138, "key_press": -1, "trial_index": 18}, "uniqueid": "MTK3657:3TMSXRD2X77XVJ7FYOWPHVCJG7ZW1P", "dateTime": 1520884762820}, {"current_trial": 19, "trialdata": {"rt": -1, "trial_type": "single-stim", "stimulus": "<p id=\"stim\">1</p>", "internal_node_id": "0.0-10.0-9.0", "time_elapsed": 136140, "key_press": -1, "trial_index": 19}, "uniqueid": "MTK3657:3TMSXRD2X77XVJ7FYOWPHVCJG7ZW1P", "dateTime": 1520884763822}, {"current_trial": 20, "trialdata": {"rt": -1, "trial_type": "single-stim", "stimulus": "<p id=\"stim\">+</p>", "internal_node_id": "0.0-11.0-0.0", "time_elapsed": 137642, "key_press": -1, "type": "FIXATION", "trial_index": 20}, "uniqueid": "MTK3657:3TMSXRD2X77XVJ7FYOWPHVCJG7ZW1P", "dateTime": 1520884765324}, {"current_trial": 21, "trialdata": {"rt": -1000, "trial_type": "single-audio", "word": "forest", "stimulus": "/static/audio/wordpool/FOREST.wav", "conditions": [18, 1200, "a", 18000], "internal_node_id": "0.0-12.0", "trial": 0, "time_elapsed": 139899, "serialpos": 0, "key_press": -1, "wordID": 592, "type": "PRES_AUD", "trial_index": 21}, "uniqueid": "MTK3657:3TMSXRD2X77XVJ7FYOWPHVCJG7ZW1P", "dateTime": 1520884767581}, {"current_trial": 22, "trialdata": {"rt": -1000, "trial_type": "single-audio", "word": "frame", "stimulus": "/static/audio/wordpool/FRAME.wav", "conditions": [18, 1200, "a", 18000], "internal_node_id": "0.0-13.0", "trial": 0, "time_elapsed": 142265, "serialpos": 1, "key_press": -1, "wordID": 599, "type": "PRES_AUD", "trial_index": 22}, "uniqueid": "MTK3657:3TMSXRD2X77XVJ7FYOWPHVCJG7ZW1P", "dateTime": 1520884769947}, {"current_trial": 23, "trialdata": {"rt": -1000, "trial_type": "single-audio", "word": "blockade", "stimulus": "/static/audio/wordpool/BLOCKADE.wav", "conditions": [18, 1200, "a", 18000], "internal_node_id": "0.0-14.0", "trial": 0, "time_elapsed": 144622, "serialpos": 2, "key_press": -1, "wordID": 136, "type": "PRES_AUD", "trial_index": 23}, "uniqueid": "MTK3657:3TMSXRD2X77XVJ7FYOWPHVCJG7ZW1P", "dateTime": 1520884772304}, {"current_trial": 24, "trialdata": {"rt": -1000, "trial_type": "single-audio", "word": "flask", "stimulus": "/static/audio/wordpool/FLASK.wav", "conditions": [18, 1200, "a", 18000], "internal_node_id": "0.0-15.0", "trial": 0, "time_elapsed": 146907, "serialpos": 3, "key_press": -1, "wordID": 575, "type": "PRES_AUD", "trial_index": 24}, "uniqueid": "MTK3657:3TMSXRD2X77XVJ7FYOWPHVCJG7ZW1P", "dateTime": 1520884774589}, {"current_trial": 25, "trialdata": {"rt": -1000, "trial_type": "single-audio", "word": "sidewalk", "stimulus": "/static/audio/wordpool/SIDEWALK.wav", "conditions": [18, 1200, "a", 18000], "internal_node_id": "0.0-16.0", "trial": 0, "time_elapsed": 149158, "serialpos": 4, "key_press": -1, "wordID": 1302, "type": "PRES_AUD", "trial_index": 25}, "uniqueid": "MTK3657:3TMSXRD2X77XVJ7FYOWPHVCJG7ZW1P", "dateTime": 1520884776840}, {"current_trial": 26, "trialdata": {"rt": -1000, "trial_type": "single-audio", "word": "college", "stimulus": "/static/audio/wordpool/COLLEGE.wav", "conditions": [18, 1200, "a", 18000], "internal_node_id": "0.0-17.0", "trial": 0, "time_elapsed": 151487, "serialpos": 5, "key_press": -1, "wordID": 345, "type": "PRES_AUD", "trial_index": 26}, "uniqueid": "MTK3657:3TMSXRD2X77XVJ7FYOWPHVCJG7ZW1P", "dateTime": 1520884779169}, {"current_trial": 27, "trialdata": {"rt": -1000, "trial_type": "single-audio", "word": "cocktail", "stimulus": "/static/audio/wordpool/COCKTAIL.wav", "conditions": [18, 1200, "a", 18000], "internal_node_id": "0.0-18.0", "trial": 0, "time_elapsed": 153532, "serialpos": 6, "key_press": -1, "wordID": 337, "type": "PRES_AUD", "trial_index": 27}, "uniqueid": "MTK3657:3TMSXRD2X77XVJ7FYOWPHVCJG7ZW1P", "dateTime": 1520884781214}, {"current_trial": 28, "trialdata": {"rt": -1000, "trial_type": "single-audio", "word": "plaster", "stimulus": "/static/audio/wordpool/PLASTER.wav", "conditions": [18, 1200, "a", 18000], "internal_node_id": "0.0-19.0", "trial": 0, "time_elapsed": 155761, "serialpos": 7, "key_press": -1, "wordID": 1084, "type": "PRES_AUD", "trial_index": 28}, "uniqueid": "MTK3657:3TMSXRD2X77XVJ7FYOWPHVCJG7ZW1P", "dateTime": 1520884783444}, {"current_trial": 29, "trialdata": {"rt": -1000, "trial_type": "single-audio", "word": "mask", "stimulus": "/static/audio/wordpool/MASK.wav", "conditions": [18, 1200, "a", 18000], "internal_node_id": "0.0-20.0", "trial": 0, "time_elapsed": 158045, "serialpos": 8, "key_press": -1, "wordID": 875, "type": "PRES_AUD", "trial_index": 29}, "uniqueid": "MTK3657:3TMSXRD2X77XVJ7FYOWPHVCJG7ZW1P", "dateTime": 1520884785727}, {"current_trial": 30, "trialdata": {"rt": -1000, "trial_type": "single-audio", "word": "whiskers", "stimulus": "/static/audio/wordpool/WHISKERS.wav", "conditions": [18, 1200, "a", 18000], "internal_node_id": "0.0-21.0", "trial": 0, "time_elapsed": 160185, "serialpos": 9, "key_press": -1, "wordID": 1604, "type": "PRES_AUD", "trial_index": 30}, "uniqueid": "MTK3657:3TMSXRD2X77XVJ7FYOWPHVCJG7ZW1P", "dateTime": 1520884787867}, {"current_trial": 31, "trialdata": {"rt": -1000, "trial_type": "single-audio", "word": "grave", "stimulus": "/static/audio/wordpool/GRAVE.wav", "conditions": [18, 1200, "a", 18000], "internal_node_id": "0.0-22.0", "trial": 0, "time_elapsed": 162417, "serialpos": 10, "key_press": -1, "wordID": 657, "type": "PRES_AUD", "trial_index": 31}, "uniqueid": "MTK3657:3TMSXRD2X77XVJ7FYOWPHVCJG7ZW1P", "dateTime": 1520884790100}, {"current_trial": 32, "trialdata": {"rt": -1000, "trial_type": "single-audio", "word": "robber", "stimulus": "/static/audio/wordpool/ROBBER.wav", "conditions": [18, 1200, "a", 18000], "internal_node_id": "0.0-23.0", "trial": 0, "time_elapsed": 164688, "serialpos": 11, "key_press": -1, "wordID": 1196, "type": "PRES_AUD", "trial_index": 32}, "uniqueid": "MTK3657:3TMSXRD2X77XVJ7FYOWPHVCJG7ZW1P", "dateTime": 1520884792370}, {"current_trial": 33, "trialdata": {"rt": -1000, "trial_type": "single-audio", "word": "piston", "stimulus": "/static/audio/wordpool/PISTON.wav", "conditions": [18, 1200, "a", 18000], "internal_node_id": "0.0-24.0", "trial": 0, "time_elapsed": 167015, "serialpos": 12, "key_press": -1, "wordID": 1075, "type": "PRES_AUD", "trial_index": 33}, "uniqueid": "MTK3657:3TMSXRD2X77XVJ7FYOWPHVCJG7ZW1P", "dateTime": 1520884794697}, {"current_trial": 34, "trialdata": {"rt": -1000, "trial_type": "single-audio", "word": "island", "stimulus": "/static/audio/wordpool/ISLAND.wav", "conditions": [18, 1200, "a", 18000], "internal_node_id": "0.0-25.0", "trial": 0, "time_elapsed": 169355, "serialpos": 13, "key_press": -1, "wordID": 744, "type": "PRES_AUD", "trial_index": 34}, "uniqueid": "MTK3657:3TMSXRD2X77XVJ7FYOWPHVCJG7ZW1P", "dateTime": 1520884797037}, {"current_trial": 35, "trialdata": {"rt": -1000, "trial_type": "single-audio", "word": "dolphin", "stimulus": "/static/audio/wordpool/DOLPHIN.wav", "conditions": [18, 1200, "a", 18000], "internal_node_id": "0.0-26.0", "trial": 0, "time_elapsed": 171607, "serialpos": 14, "key_press": -1, "wordID": 482, "type": "PRES_AUD", "trial_index": 35}, "uniqueid": "MTK3657:3TMSXRD2X77XVJ7FYOWPHVCJG7ZW1P", "dateTime": 1520884799289}, {"current_trial": 36, "trialdata": {"rt": -1000, "trial_type": "single-audio", "word": "blouse", "stimulus": "/static/audio/wordpool/BLOUSE.wav", "conditions": [18, 1200, "a", 18000], "internal_node_id": "0.0-27.0", "trial": 0, "time_elapsed": 173684, "serialpos": 15, "key_press": -1, "wordID": 138, "type": "PRES_AUD", "trial_index": 36}, "uniqueid": "MTK3657:3TMSXRD2X77XVJ7FYOWPHVCJG7ZW1P", "dateTime": 1520884801366}, {"current_trial": 37, "trialdata": {"rt": -1000, "trial_type": "single-audio", "word": "star", "stimulus": "/static/audio/wordpool/STAR.wav", "conditions": [18, 1200, "a", 18000], "internal_node_id": "0.0-28.0", "trial": 0, "time_elapsed": 175776, "serialpos": 16, "key_press": -1, "wordID": 1372, "type": "PRES_AUD", "trial_index": 37}, "uniqueid": "MTK3657:3TMSXRD2X77XVJ7FYOWPHVCJG7ZW1P", "dateTime": 1520884803458}, {"current_trial": 38, "trialdata": {"rt": -1000, "trial_type": "single-audio", "word": "rattle", "stimulus": "/static/audio/wordpool/RATTLE.wav", "conditions": [18, 1200, "a", 18000], "internal_node_id": "0.0-29.0", "trial": 0, "time_elapsed": 178062, "serialpos": 17, "key_press": -1, "wordID": 1169, "type": "PRES_AUD", "trial_index": 38}, "uniqueid": "MTK3657:3TMSXRD2X77XVJ7FYOWPHVCJG7ZW1P", "dateTime": 1520884805745}, {"current_trial": 39, "trialdata": {"rt": -1, "trial_type": "single-stim", "stimulus": "", "internal_node_id": "0.0-30.0-0.0", "time_elapsed": 179365, "key_press": -1, "type": "PRE_RECALL_DELAY", "trial_index": 39}, "uniqueid": "MTK3657:3TMSXRD2X77XVJ7FYOWPHVCJG7ZW1P", "dateTime": 1520884807047}, {"current_trial": 40, "trialdata": {"rt": -1000, "trial_type": "single-audio", "stimulus": "/static/audio/400Hz.wav", "internal_node_id": "0.0-31.0", "time_elapsed": 179865, "key_press": -1, "type": "PRE_RECALL_ALERT", "trial_index": 40}, "uniqueid": "MTK3657:3TMSXRD2X77XVJ7FYOWPHVCJG7ZW1P", "dateTime": 1520884807548}, {"current_trial": 41, "trialdata": {"rt": [16789, 20635, 23175, 29844, 35393, 35735, 35865, 36051, 48049, 49402, 52359, 54290, 57165], "recwords": ["forest", "star", "rattle", "whiskers", "", "", "", "", "listen", "", "star", "rattle", "forest"], "key_times": [14246, 14423, 14657, 15016, 15193, 15338, 15584, 15982, 16789, 19400, 19610, 19761, 19908, 20635, 21394, 21502, 21757, 21882, 22060, 22161, 23175, 27228, 27563, 27718, 28087, 28239, 28414, 28564, 28805, 29844, 35393, 35735, 35865, 36051, 46403, 46549, 46655, 46862, 46981, 47159, 48049, 49402, 51499, 51718, 51886, 52029, 52359, 52378, 53077, 53163, 53421, 53554, 53724, 53833, 54290, 55384, 55636, 55904, 56174, 56400, 56582, 57165], "trial_type": "free-recall", "conditions": [18, 1200, "a", 18000], "internal_node_id": "0.0-32.0-0.0", "key_presses": [70, 79, 84, 8, 82, 69, 83, 84, 13, 83, 84, 65, 82, 13, 82, 65, 84, 84, 76, 69, 13, 87, 72, 73, 83, 75, 69, 82, 83, 13, 13, 13, 13, 13, 76, 73, 83, 84, 69, 78, 13, 13, 83, 84, 65, 82, 13, 16, 82, 65, 84, 84, 76, 69, 13, 70, 79, 82, 69, 83, 84, 13], "trial": 0, "time_elapsed": 239870, "type": "FREE_RECALL", "trial_index": 41}, "uniqueid": "MTK3657:3TMSXRD2X77XVJ7FYOWPHVCJG7ZW1P", "dateTime": 1520884867553}, {"current_trial": 42, "trialdata": {"rt": 1765, "trial_type": "text", "internal_node_id": "0.0-33.0", "time_elapsed": 243639, "key_press": 32, "type": "INSTRUCTIONS", "trial_index": 42}, "uniqueid": "MTK3657:3TMSXRD2X77XVJ7FYOWPHVCJG7ZW1P", "dateTime": 1520884871321}, {"current_trial": 43, "trialdata": {"rt": [3157, 6435, 10063, 13145, 15954], "trial_type": "math-distractor", "key_times": [2757, 3157, 5918, 6111, 6435, 8796, 8985, 10063, 12570, 12837, 13145, 15415, 15672, 15954], "responses": ["9", "14", "10", "18", "16"], "num2": [2, 6, 1, 8, 7, 9], "num3": [4, 5, 4, 3, 8, 1], "conditions": [18, 1200, "a", 18000], "internal_node_id": "0.0-34.0", "key_presses": [105, 13, 97, 100, 13, 97, 96, 13, 97, 104, 13, 97, 102, 13], "trial": 1, "time_elapsed": 263642, "type": "DISTRACTOR", "trial_index": 43, "num1": [3, 3, 5, 7, 1, 6]}, "uniqueid": "MTK3657:3TMSXRD2X77XVJ7FYOWPHVCJG7ZW1P", "dateTime": 1520884891324}, {"current_trial": 44, "trialdata": {"rt": -1, "trial_type": "single-stim", "stimulus": "<p id=\"stim\">10</p>", "internal_node_id": "0.0-35.0-0.0", "time_elapsed": 266643, "key_press": -1, "trial_index": 44}, "uniqueid": "MTK3657:3TMSXRD2X77XVJ7FYOWPHVCJG7ZW1P", "dateTime": 1520884894325}, {"current_trial": 45, "trialdata": {"rt": -1, "trial_type": "single-stim", "stimulus": "<p id=\"stim\">9</p>", "internal_node_id": "0.0-35.0-1.0", "time_elapsed": 267644, "key_press": -1, "trial_index": 45}, "uniqueid": "MTK3657:3TMSXRD2X77XVJ7FYOWPHVCJG7ZW1P", "dateTime": 1520884895326}, {"current_trial": 46, "trialdata": {"rt": -1, "trial_type": "single-stim", "stimulus": "<p id=\"stim\">8</p>", "internal_node_id": "0.0-35.0-2.0", "time_elapsed": 268646, "key_press": -1, "trial_index": 46}, "uniqueid": "MTK3657:3TMSXRD2X77XVJ7FYOWPHVCJG7ZW1P", "dateTime": 1520884896329}, {"current_trial": 47, "trialdata": {"rt": -1, "trial_type": "single-stim", "stimulus": "<p id=\"stim\">7</p>", "internal_node_id": "0.0-35.0-3.0", "time_elapsed": 269648, "key_press": -1, "trial_index": 47}, "uniqueid": "MTK3657:3TMSXRD2X77XVJ7FYOWPHVCJG7ZW1P", "dateTime": 1520884897330}, {"current_trial": 48, "trialdata": {"rt": -1, "trial_type": "single-stim", "stimulus": "<p id=\"stim\">6</p>", "internal_node_id": "0.0-35.0-4.0", "time_elapsed": 270649, "key_press": -1, "trial_index": 48}, "uniqueid": "MTK3657:3TMSXRD2X77XVJ7FYOWPHVCJG7ZW1P", "dateTime": 1520884898331}, {"current_trial": 49, "trialdata": {"rt": -1, "trial_type": "single-stim", "stimulus": "<p id=\"stim\">5</p>", "internal_node_id": "0.0-35.0-5.0", "time_elapsed": 271650, "key_press": -1, "trial_index": 49}, "uniqueid": "MTK3657:3TMSXRD2X77XVJ7FYOWPHVCJG7ZW1P", "dateTime": 1520884899332}, {"current_trial": 50, "trialdata": {"rt": -1, "trial_type": "single-stim", "stimulus": "<p id=\"stim\">4</p>", "internal_node_id": "0.0-35.0-6.0", "time_elapsed": 272651, "key_press": -1, "trial_index": 50}, "uniqueid": "MTK3657:3TMSXRD2X77XVJ7FYOWPHVCJG7ZW1P", "dateTime": 1520884900333}, {"current_trial": 51, "trialdata": {"rt": -1, "trial_type": "single-stim", "stimulus": "<p id=\"stim\">3</p>", "internal_node_id": "0.0-35.0-7.0", "time_elapsed": 273653, "key_press": -1, "trial_index": 51}, "uniqueid": "MTK3657:3TMSXRD2X77XVJ7FYOWPHVCJG7ZW1P", "dateTime": 1520884901335}, {"current_trial": 52, "trialdata": {"rt": -1, "trial_type": "single-stim", "stimulus": "<p id=\"stim\">2</p>", "internal_node_id": "0.0-35.0-8.0", "time_elapsed": 274655, "key_press": -1, "trial_index": 52}, "uniqueid": "MTK3657:3TMSXRD2X77XVJ7FYOWPHVCJG7ZW1P", "dateTime": 1520884902337}, {"current_trial": 53, "trialdata": {"rt": -1, "trial_type": "single-stim", "stimulus": "<p id=\"stim\">1</p>", "internal_node_id": "0.0-35.0-9.0", "time_elapsed": 275657, "key_press": -1, "trial_index": 53}, "uniqueid": "MTK3657:3TMSXRD2X77XVJ7FYOWPHVCJG7ZW1P", "dateTime": 1520884903339}, {"current_trial": 54, "trialdata": {"rt": -1, "trial_type": "single-stim", "stimulus": "<p id=\"stim\">+</p>", "internal_node_id": "0.0-36.0-0.0", "time_elapsed": 277157, "key_press": -1, "type": "FIXATION", "trial_index": 54}, "uniqueid": "MTK3657:3TMSXRD2X77XVJ7FYOWPHVCJG7ZW1P", "dateTime": 1520884904840}, {"current_trial": 55, "trialdata": {"rt": -1000, "trial_type": "single-audio", "word": "bathtub", "stimulus": "/static/audio/wordpool/BATHTUB.wav", "conditions": [18, 1200, "a", 18000], "internal_node_id": "0.0-37.0", "trial": 1, "time_elapsed": 279252, "serialpos": 0, "key_press": -1, "wordID": 99, "type": "PRES_AUD", "trial_index": 55}, "uniqueid": "MTK3657:3TMSXRD2X77XVJ7FYOWPHVCJG7ZW1P", "dateTime": 1520884906934}, {"current_trial": 56, "trialdata": {"rt": -1000, "trial_type": "single-audio", "word": "treat", "stimulus": "/static/audio/wordpool/TREAT.wav", "conditions": [18, 1200, "a", 18000], "internal_node_id": "0.0-38.0", "trial": 1, "time_elapsed": 281287, "serialpos": 1, "key_press": -1, "wordID": 1500, "type": "PRES_AUD", "trial_index": 56}, "uniqueid": "MTK3657:3TMSXRD2X77XVJ7FYOWPHVCJG7ZW1P", "dateTime": 1520884908969}, {"current_trial": 57, "trialdata": {"rt": -1000, "trial_type": "single-audio", "word": "cyclone", "stimulus": "/static/audio/wordpool/CYCLONE.wav", "conditions": [18, 1200, "a", 18000], "internal_node_id": "0.0-39.0", "trial": 1, "time_elapsed": 283593, "serialpos": 2, "key_press": -1, "wordID": 430, "type": "PRES_AUD", "trial_index": 57}, "uniqueid": "MTK3657:3TMSXRD2X77XVJ7FYOWPHVCJG7ZW1P", "dateTime": 1520884911276}, {"current_trial": 58, "trialdata": {"rt": -1000, "trial_type": "single-audio", "word": "inmate", "stimulus": "/static/audio/wordpool/INMATE.wav", "conditions": [18, 1200, "a", 18000], "internal_node_id": "0.0-40.0", "trial": 1, "time_elapsed": 285734, "serialpos": 3, "key_press": -1, "wordID": 737, "type": "PRES_AUD", "trial_index": 58}, "uniqueid": "MTK3657:3TMSXRD2X77XVJ7FYOWPHVCJG7ZW1P", "dateTime": 1520884913417}, {"current_trial": 59, "trialdata": {"rt": -1000, "trial_type": "single-audio", "word": "sheriff", "stimulus": "/static/audio/wordpool/SHERIFF.wav", "conditions": [18, 1200, "a", 18000], "internal_node_id": "0.0-41.0", "trial": 1, "time_elapsed": 287932, "serialpos": 4, "key_press": -1, "wordID": 1283, "type": "PRES_AUD", "trial_index": 59}, "uniqueid": "MTK3657:3TMSXRD2X77XVJ7FYOWPHVCJG7ZW1P", "dateTime": 1520884915614}, {"current_trial": 60, "trialdata": {"rt": -1000, "trial_type": "single-audio", "word": "cross", "stimulus": "/static/audio/wordpool/CROSS.wav", "conditions": [18, 1200, "a", 18000], "internal_node_id": "0.0-42.0", "trial": 1, "time_elapsed": 290308, "serialpos": 5, "key_press": -1, "wordID": 412, "type": "PRES_AUD", "trial_index": 60}, "uniqueid": "MTK3657:3TMSXRD2X77XVJ7FYOWPHVCJG7ZW1P", "dateTime": 1520884917990}, {"current_trial": 61, "trialdata": {"rt": -1000, "trial_type": "single-audio", "word": "drawing", "stimulus": "/static/audio/wordpool/DRAWING.wav", "conditions": [18, 1200, "a", 18000], "internal_node_id": "0.0-43.0", "trial": 1, "time_elapsed": 292393, "serialpos": 6, "key_press": -1, "wordID": 493, "type": "PRES_AUD", "trial_index": 61}, "uniqueid": "MTK3657:3TMSXRD2X77XVJ7FYOWPHVCJG7ZW1P", "dateTime": 1520884920075}, {"current_trial": 62, "trialdata": {"rt": -1000, "trial_type": "single-audio", "word": "lipstick", "stimulus": "/static/audio/wordpool/LIPSTICK.wav", "conditions": [18, 1200, "a", 18000], "internal_node_id": "0.0-44.0", "trial": 1, "time_elapsed": 294708, "serialpos": 7, "key_press": -1, "wordID": 828, "type": "PRES_AUD", "trial_index": 62}, "uniqueid": "MTK3657:3TMSXRD2X77XVJ7FYOWPHVCJG7ZW1P", "dateTime": 1520884922390}, {"current_trial": 63, "trialdata": {"rt": -1000, "trial_type": "single-audio", "word": "shelter", "stimulus": "/static/audio/wordpool/SHELTER.wav", "conditions": [18, 1200, "a", 18000], "internal_node_id": "0.0-45.0", "trial": 1, "time_elapsed": 297071, "serialpos": 8, "key_press": -1, "wordID": 1281, "type": "PRES_AUD", "trial_index": 63}, "uniqueid": "MTK3657:3TMSXRD2X77XVJ7FYOWPHVCJG7ZW1P", "dateTime": 1520884924753}, {"current_trial": 64, "trialdata": {"rt": -1000, "trial_type": "single-audio", "word": "hero", "stimulus": "/static/audio/wordpool/HERO.wav", "conditions": [18, 1200, "a", 18000], "internal_node_id": "0.0-46.0", "trial": 1, "time_elapsed": 299235, "serialpos": 9, "key_press": -1, "wordID": 705, "type": "PRES_AUD", "trial_index": 64}, "uniqueid": "MTK3657:3TMSXRD2X77XVJ7FYOWPHVCJG7ZW1P", "dateTime": 1520884926917}, {"current_trial": 65, "trialdata": {"rt": -1000, "trial_type": "single-audio", "word": "sunrise", "stimulus": "/static/audio/wordpool/SUNRISE.wav", "conditions": [18, 1200, "a", 18000], "internal_node_id": "0.0-47.0", "trial": 1, "time_elapsed": 301408, "serialpos": 10, "key_press": -1, "wordID": 1406, "type": "PRES_AUD", "trial_index": 65}, "uniqueid": "MTK3657:3TMSXRD2X77XVJ7FYOWPHVCJG7ZW1P", "dateTime": 1520884929090}, {"current_trial": 66, "trialdata": {"rt": -1000, "trial_type": "single-audio", "word": "fox", "stimulus": "/static/audio/wordpool/FOX.wav", "conditions": [18, 1200, "a", 18000], "internal_node_id": "0.0-48.0", "trial": 1, "time_elapsed": 303551, "serialpos": 11, "key_press": -1, "wordID": 597, "type": "PRES_AUD", "trial_index": 66}, "uniqueid": "MTK3657:3TMSXRD2X77XVJ7FYOWPHVCJG7ZW1P", "dateTime": 1520884931233}, {"current_trial": 67, "trialdata": {"rt": -1000, "trial_type": "single-audio", "word": "bacon", "stimulus": "/static/audio/wordpool/BACON.wav", "conditions": [18, 1200, "a", 18000], "internal_node_id": "0.0-49.0", "trial": 1, "time_elapsed": 305894, "serialpos": 12, "key_press": -1, "wordID": 66, "type": "PRES_AUD", "trial_index": 67}, "uniqueid": "MTK3657:3TMSXRD2X77XVJ7FYOWPHVCJG7ZW1P", "dateTime": 1520884933576}, {"current_trial": 68, "trialdata": {"rt": -1000, "trial_type": "single-audio", "word": "belly", "stimulus": "/static/audio/wordpool/BELLY.wav", "conditions": [18, 1200, "a", 18000], "internal_node_id": "0.0-50.0", "trial": 1, "time_elapsed": 308089, "serialpos": 13, "key_press": -1, "wordID": 118, "type": "PRES_AUD", "trial_index": 68}, "uniqueid": "MTK3657:3TMSXRD2X77XVJ7FYOWPHVCJG7ZW1P", "dateTime": 1520884935772}, {"current_trial": 69, "trialdata": {"rt": -1000, "trial_type": "single-audio", "word": "maple", "stimulus": "/static/audio/wordpool/MAPLE.wav", "conditions": [18, 1200, "a", 18000], "internal_node_id": "0.0-51.0", "trial": 1, "time_elapsed": 310124, "serialpos": 14, "key_press": -1, "wordID": 865, "type": "PRES_AUD", "trial_index": 69}, "uniqueid": "MTK3657:3TMSXRD2X77XVJ7FYOWPHVCJG7ZW1P", "dateTime": 1520884937806}, {"current_trial": 70, "trialdata": {"rt": -1000, "trial_type": "single-audio", "word": "expert", "stimulus": "/static/audio/wordpool/EXPERT.wav", "conditions": [18, 1200, "a", 18000], "internal_node_id": "0.0-52.0", "trial": 1, "time_elapsed": 312474, "serialpos": 15, "key_press": -1, "wordID": 542, "type": "PRES_AUD", "trial_index": 70}, "uniqueid": "MTK3657:3TMSXRD2X77XVJ7FYOWPHVCJG7ZW1P", "dateTime": 1520884940156}, {"current_trial": 71, "trialdata": {"rt": -1000, "trial_type": "single-audio", "word": "cabin", "stimulus": "/static/audio/wordpool/CABIN.wav", "conditions": [18, 1200, "a", 18000], "internal_node_id": "0.0-53.0", "trial": 1, "time_elapsed": 314515, "serialpos": 16, "key_press": -1, "wordID": 210, "type": "PRES_AUD", "trial_index": 71}, "uniqueid": "MTK3657:3TMSXRD2X77XVJ7FYOWPHVCJG7ZW1P", "dateTime": 1520884942198}, {"current_trial": 72, "trialdata": {"rt": -1000, "trial_type": "single-audio", "word": "country", "stimulus": "/static/audio/wordpool/COUNTRY.wav", "conditions": [18, 1200, "a", 18000], "internal_node_id": "0.0-54.0", "trial": 1, "time_elapsed": 316793, "serialpos": 17, "key_press": -1, "wordID": 387, "type": "PRES_AUD", "trial_index": 72}, "uniqueid": "MTK3657:3TMSXRD2X77XVJ7FYOWPHVCJG7ZW1P", "dateTime": 1520884944475}, {"current_trial": 73, "trialdata": {"rt": -1, "trial_type": "single-stim", "stimulus": "", "internal_node_id": "0.0-55.0-0.0", "time_elapsed": 318067, "key_press": -1, "type": "PRE_RECALL_DELAY", "trial_index": 73}, "uniqueid": "MTK3657:3TMSXRD2X77XVJ7FYOWPHVCJG7ZW1P", "dateTime": 1520884945749}, {"current_trial": 74, "trialdata": {"rt": -1000, "trial_type": "single-audio", "stimulus": "/static/audio/400Hz.wav", "internal_node_id": "0.0-56.0", "time_elapsed": 318568, "key_press": -1, "type": "PRE_RECALL_ALERT", "trial_index": 74}, "uniqueid": "MTK3657:3TMSXRD2X77XVJ7FYOWPHVCJG7ZW1P", "dateTime": 1520884946250}, {"current_trial": 75, "trialdata": {"rt": [8243, 16812, 19703, 23536, 25558, 29766, 40388, 43326, 48530, 52718, 57579], "recwords": ["country", "sheriff", "inmate", "bathtub", "treat", "expert", "belly", "maple", "hero", "sunrise", "treat"], "key_times": [6239, 6505, 6659, 6864, 7016, 7122, 7236, 8243, 12474, 12704, 12895, 12989, 16004, 16254, 16392, 16812, 17838, 18000, 18459, 18584, 18762, 18900, 19703, 20840, 20936, 21243, 21838, 22154, 22310, 22596, 23536, 24203, 24434, 24566, 24672, 24890, 25558, 25576, 27061, 27752, 28208, 28512, 28685, 28815, 29057, 29766, 38991, 39124, 39872, 39998, 40200, 40388, 41198, 41316, 41475, 41494, 41638, 41807, 42316, 42476, 42630, 42901, 43080, 43326, 46526, 46914, 47105, 47713, 48530, 49504, 50080, 50344, 50803, 51268, 51752, 51961, 52718, 54697, 54944, 55200, 55483, 55929, 55948, 56838, 57579, 59486, 59748], "trial_type": "free-recall", "conditions": [18, 1200, "a", 18000], "internal_node_id": "0.0-57.0-0.0", "key_presses": [67, 79, 85, 78, 84, 82, 89, 13, 83, 72, 69, 82, 73, 70, 70, 13, 73, 78, 77, 65, 84, 69, 13, 66, 65, 84, 72, 84, 85, 66, 13, 84, 82, 69, 65, 84, 13, 222, 8, 69, 88, 80, 69, 82, 84, 13, 66, 69, 76, 76, 89, 13, 77, 65, 80, 79, 76, 69, 8, 8, 8, 76, 69, 13, 72, 69, 82, 79, 13, 83, 85, 78, 82, 73, 83, 69, 13, 84, 82, 69, 65, 84, 82, 8, 13, 76, 73], "trial": 1, "time_elapsed": 378570, "type": "FREE_RECALL", "trial_index": 75}, "uniqueid": "MTK3657:3TMSXRD2X77XVJ7FYOWPHVCJG7ZW1P", "dateTime": 1520885006254}, {"current_trial": 76, "trialdata": {"rt": 108, "trial_type": "text", "internal_node_id": "0.0-58.0", "time_elapsed": 380680, "key_press": 67, "type": "INSTRUCTIONS", "trial_index": 76}, "uniqueid": "MTK3657:3TMSXRD2X77XVJ7FYOWPHVCJG7ZW1P", "dateTime": 1520885008362}, {"current_trial": 77, "trialdata": {"rt": [3837, 7040, 10508, 19093, 22912], "trial_type": "math-distractor", "key_times": [3402, 3557, 3837, 6762, 7040, 9630, 9797, 10508, 17140, 17313, 18128, 18848, 19093, 22456, 22611, 22912], "responses": ["16", "8", "15", "23", "21"], "num2": [3, 2, 6, 6, 9, 3], "num3": [6, 5, 1, 9, 6, 9], "conditions": [12, 1600, "a", 24000], "internal_node_id": "0.0-59.0", "key_presses": [97, 102, 13, 104, 13, 97, 101, 13, 98, 98, 8, 99, 13, 98, 97, 13], "trial": 2, "time_elapsed": 405685, "type": "DISTRACTOR", "trial_index": 77, "num1": [7, 1, 8, 8, 8, 8]}, "uniqueid": "MTK3657:3TMSXRD2X77XVJ7FYOWPHVCJG7ZW1P", "dateTime": 1520885033367}, {"current_trial": 78, "trialdata": {"rt": -1, "trial_type": "single-stim", "stimulus": "<p id=\"stim\">10</p>", "internal_node_id": "0.0-60.0-0.0", "time_elapsed": 408686, "key_press": -1, "trial_index": 78}, "uniqueid": "MTK3657:3TMSXRD2X77XVJ7FYOWPHVCJG7ZW1P", "dateTime": 1520885036369}, {"current_trial": 79, "trialdata": {"rt": -1, "trial_type": "single-stim", "stimulus": "<p id=\"stim\">9</p>", "internal_node_id": "0.0-60.0-1.0", "time_elapsed": 409688, "key_press": -1, "trial_index": 79}, "uniqueid": "MTK3657:3TMSXRD2X77XVJ7FYOWPHVCJG7ZW1P", "dateTime": 1520885037370}, {"current_trial": 80, "trialdata": {"rt": -1, "trial_type": "single-stim", "stimulus": "<p id=\"stim\">8</p>", "internal_node_id": "0.0-60.0-2.0", "time_elapsed": 410689, "key_press": -1, "trial_index": 80}, "uniqueid": "MTK3657:3TMSXRD2X77XVJ7FYOWPHVCJG7ZW1P", "dateTime": 1520885038371}, {"current_trial": 81, "trialdata": {"rt": -1, "trial_type": "single-stim", "stimulus": "<p id=\"stim\">7</p>", "internal_node_id": "0.0-60.0-3.0", "time_elapsed": 411690, "key_press": -1, "trial_index": 81}, "uniqueid": "MTK3657:3TMSXRD2X77XVJ7FYOWPHVCJG7ZW1P", "dateTime": 1520885039373}, {"current_trial": 82, "trialdata": {"rt": -1, "trial_type": "single-stim", "stimulus": "<p id=\"stim\">6</p>", "internal_node_id": "0.0-60.0-4.0", "time_elapsed": 412692, "key_press": -1, "trial_index": 82}, "uniqueid": "MTK3657:3TMSXRD2X77XVJ7FYOWPHVCJG7ZW1P", "dateTime": 1520885040374}, {"current_trial": 83, "trialdata": {"rt": -1, "trial_type": "single-stim", "stimulus": "<p id=\"stim\">5</p>", "internal_node_id": "0.0-60.0-5.0", "time_elapsed": 413693, "key_press": -1, "trial_index": 83}, "uniqueid": "MTK3657:3TMSXRD2X77XVJ7FYOWPHVCJG7ZW1P", "dateTime": 1520885041375}, {"current_trial": 84, "trialdata": {"rt": -1, "trial_type": "single-stim", "stimulus": "<p id=\"stim\">4</p>", "internal_node_id": "0.0-60.0-6.0", "time_elapsed": 414694, "key_press": -1, "trial_index": 84}, "uniqueid": "MTK3657:3TMSXRD2X77XVJ7FYOWPHVCJG7ZW1P", "dateTime": 1520885042376}, {"current_trial": 85, "trialdata": {"rt": -1, "trial_type": "single-stim", "stimulus": "<p id=\"stim\">3</p>", "internal_node_id": "0.0-60.0-7.0", "time_elapsed": 415696, "key_press": -1, "trial_index": 85}, "uniqueid": "MTK3657:3TMSXRD2X77XVJ7FYOWPHVCJG7ZW1P", "dateTime": 1520885043378}, {"current_trial": 86, "trialdata": {"rt": -1, "trial_type": "single-stim", "stimulus": "<p id=\"stim\">2</p>", "internal_node_id": "0.0-60.0-8.0", "time_elapsed": 416698, "key_press": -1, "trial_index": 86}, "uniqueid": "MTK3657:3TMSXRD2X77XVJ7FYOWPHVCJG7ZW1P", "dateTime": 1520885044380}, {"current_trial": 87, "trialdata": {"rt": -1, "trial_type": "single-stim", "stimulus": "<p id=\"stim\">1</p>", "internal_node_id": "0.0-60.0-9.0", "time_elapsed": 417700, "key_press": -1, "trial_index": 87}, "uniqueid": "MTK3657:3TMSXRD2X77XVJ7FYOWPHVCJG7ZW1P", "dateTime": 1520885045382}, {"current_trial": 88, "trialdata": {"rt": -1, "trial_type": "single-stim", "stimulus": "<p id=\"stim\">+</p>", "internal_node_id": "0.0-61.0-0.0", "time_elapsed": 419201, "key_press": -1, "type": "FIXATION", "trial_index": 88}, "uniqueid": "MTK3657:3TMSXRD2X77XVJ7FYOWPHVCJG7ZW1P", "dateTime": 1520885046883}, {"current_trial": 89, "trialdata": {"rt": -1000, "trial_type": "single-audio", "word": "dorm", "stimulus": "/static/audio/wordpool/DORM.wav", "conditions": [12, 1600, "a", 24000], "internal_node_id": "0.0-62.0", "trial": 2, "time_elapsed": 421623, "serialpos": 0, "key_press": -1, "wordID": 487, "type": "PRES_AUD", "trial_index": 89}, "uniqueid": "MTK3657:3TMSXRD2X77XVJ7FYOWPHVCJG7ZW1P", "dateTime": 1520885049305}, {"current_trial": 90, "trialdata": {"rt": -1000, "trial_type": "single-audio", "word": "termite", "stimulus": "/static/audio/wordpool/TERMITE.wav", "conditions": [12, 1600, "a", 24000], "internal_node_id": "0.0-63.0", "trial": 2, "time_elapsed": 424147, "serialpos": 1, "key_press": -1, "wordID": 1450, "type": "PRES_AUD", "trial_index": 90}, "uniqueid": "MTK3657:3TMSXRD2X77XVJ7FYOWPHVCJG7ZW1P", "dateTime": 1520885051829}, {"current_trial": 91, "trialdata": {"rt": -1000, "trial_type": "single-audio", "word": "mammal", "stimulus": "/static/audio/wordpool/MAMMAL.wav", "conditions": [12, 1600, "a", 24000], "internal_node_id": "0.0-64.0", "trial": 2, "time_elapsed": 426612, "serialpos": 2, "key_press": -1, "wordID": 860, "type": "PRES_AUD", "trial_index": 91}, "uniqueid": "MTK3657:3TMSXRD2X77XVJ7FYOWPHVCJG7ZW1P", "dateTime": 1520885054294}, {"current_trial": 92, "trialdata": {"rt": -1000, "trial_type": "single-audio", "word": "salmon", "stimulus": "/static/audio/wordpool/SALMON.wav", "conditions": [12, 1600, "a", 24000], "internal_node_id": "0.0-65.0", "trial": 2, "time_elapsed": 429039, "serialpos": 3, "key_press": -1, "wordID": 1226, "type": "PRES_AUD", "trial_index": 92}, "uniqueid": "MTK3657:3TMSXRD2X77XVJ7FYOWPHVCJG7ZW1P", "dateTime": 1520885056721}, {"current_trial": 93, "trialdata": {"rt": -1000, "trial_type": "single-audio", "word": "crab", "stimulus": "/static/audio/wordpool/CRAB.wav", "conditions": [12, 1600, "a", 24000], "internal_node_id": "0.0-66.0", "trial": 2, "time_elapsed": 431678, "serialpos": 4, "key_press": -1, "wordID": 396, "type": "PRES_AUD", "trial_index": 93}, "uniqueid": "MTK3657:3TMSXRD2X77XVJ7FYOWPHVCJG7ZW1P", "dateTime": 1520885059360}, {"current_trial": 94, "trialdata": {"rt": -1000, "trial_type": "single-audio", "word": "flower", "stimulus": "/static/audio/wordpool/FLOWER.wav", "conditions": [12, 1600, "a", 24000], "internal_node_id": "0.0-67.0", "trial": 2, "time_elapsed": 434089, "serialpos": 5, "key_press": -1, "wordID": 583, "type": "PRES_AUD", "trial_index": 94}, "uniqueid": "MTK3657:3TMSXRD2X77XVJ7FYOWPHVCJG7ZW1P", "dateTime": 1520885061771}, {"current_trial": 95, "trialdata": {"rt": -1000, "trial_type": "single-audio", "word": "fruit", "stimulus": "/static/audio/wordpool/FRUIT.wav", "conditions": [12, 1600, "a", 24000], "internal_node_id": "0.0-68.0", "trial": 2, "time_elapsed": 436735, "serialpos": 6, "key_press": -1, "wordID": 609, "type": "PRES_AUD", "trial_index": 95}, "uniqueid": "MTK3657:3TMSXRD2X77XVJ7FYOWPHVCJG7ZW1P", "dateTime": 1520885064417}, {"current_trial": 96, "trialdata": {"rt": -1000, "trial_type": "single-audio", "word": "fungus", "stimulus": "/static/audio/wordpool/FUNGUS.wav", "conditions": [12, 1600, "a", 24000], "internal_node_id": "0.0-69.0", "trial": 2, "time_elapsed": 439377, "serialpos": 7, "key_press": -1, "wordID": 613, "type": "PRES_AUD", "trial_index": 96}, "uniqueid": "MTK3657:3TMSXRD2X77XVJ7FYOWPHVCJG7ZW1P", "dateTime": 1520885067059}, {"current_trial": 97, "trialdata": {"rt": -1000, "trial_type": "single-audio", "word": "monster", "stimulus": "/static/audio/wordpool/MONSTER.wav", "conditions": [12, 1600, "a", 24000], "internal_node_id": "0.0-70.0", "trial": 2, "time_elapsed": 441903, "serialpos": 8, "key_press": -1, "wordID": 911, "type": "PRES_AUD", "trial_index": 97}, "uniqueid": "MTK3657:3TMSXRD2X77XVJ7FYOWPHVCJG7ZW1P", "dateTime": 1520885069585}, {"current_trial": 98, "trialdata": {"rt": -1000, "trial_type": "single-audio", "word": "lamp", "stimulus": "/static/audio/wordpool/LAMP.wav", "conditions": [12, 1600, "a", 24000], "internal_node_id": "0.0-71.0", "trial": 2, "time_elapsed": 444514, "serialpos": 9, "key_press": -1, "wordID": 797, "type": "PRES_AUD", "trial_index": 98}, "uniqueid": "MTK3657:3TMSXRD2X77XVJ7FYOWPHVCJG7ZW1P", "dateTime": 1520885072197}, {"current_trial": 99, "trialdata": {"rt": -1000, "trial_type": "single-audio", "word": "leopard", "stimulus": "/static/audio/wordpool/LEOPARD.wav", "conditions": [12, 1600, "a", 24000], "internal_node_id": "0.0-72.0", "trial": 2, "time_elapsed": 447046, "serialpos": 10, "key_press": -1, "wordID": 811, "type": "PRES_AUD", "trial_index": 99}, "uniqueid": "MTK3657:3TMSXRD2X77XVJ7FYOWPHVCJG7ZW1P", "dateTime": 1520885074728}, {"current_trial": 100, "trialdata": {"rt": -1000, "trial_type": "single-audio", "word": "braces", "stimulus": "/static/audio/wordpool/BRACES.wav", "conditions": [12, 1600, "a", 24000], "internal_node_id": "0.0-73.0", "trial": 2, "time_elapsed": 449535, "serialpos": 11, "key_press": -1, "wordID": 163, "type": "PRES_AUD", "trial_index": 100}, "uniqueid": "MTK3657:3TMSXRD2X77XVJ7FYOWPHVCJG7ZW1P", "dateTime": 1520885077217}, {"current_trial": 101, "trialdata": {"rt": -1, "trial_type": "single-stim", "stimulus": "", "internal_node_id": "0.0-74.0-0.0", "time_elapsed": 450891, "key_press": -1, "type": "PRE_RECALL_DELAY", "trial_index": 101}, "uniqueid": "MTK3657:3TMSXRD2X77XVJ7FYOWPHVCJG7ZW1P", "dateTime": 1520885078573}, {"current_trial": 102, "trialdata": {"rt": -1000, "trial_type": "single-audio", "stimulus": "/static/audio/400Hz.wav", "internal_node_id": "0.0-75.0", "time_elapsed": 451393, "key_press": -1, "type": "PRE_RECALL_ALERT", "trial_index": 102}, "uniqueid": "MTK3657:3TMSXRD2X77XVJ7FYOWPHVCJG7ZW1P", "dateTime": 1520885079075}, {"current_trial": 103, "trialdata": {"rt": [6675, 12991, 18716, 23046, 26556, 36154, 40666, 43596, 46138, 52583, 54537, 58470], "recwords": ["braces", "monster", "crab", "flower", "dorm", "salmon", "fungus", "fruit", "mammal", "crab", "fruit", "monster"], "key_times": [2884, 3215, 3542, 3973, 4202, 4371, 5443, 6675, 8606, 8763, 8796, 9851, 10619, 11269, 11674, 11929, 12088, 12991, 16688, 16887, 17233, 17761, 18716, 21913, 22122, 22227, 22482, 22611, 22865, 23046, 25234, 25539, 25832, 26059, 26556, 34949, 35105, 35250, 35456, 35606, 35816, 36154, 39614, 39764, 39922, 40230, 40339, 40470, 40666, 42792, 42929, 43209, 43319, 43438, 43596, 45145, 45264, 45427, 45564, 45782, 45917, 46138, 51762, 51979, 52099, 52348, 52583, 53807, 53995, 54177, 54267, 54395, 54537, 56819, 56937, 57136, 57819, 58042, 58185, 58305, 58470], "trial_type": "free-recall", "conditions": [12, 1600, "a", 24000], "internal_node_id": "0.0-76.0-0.0", "key_presses": [66, 82, 65, 67, 69, 83, 16, 13, 77, 79, 73, 8, 78, 83, 84, 69, 82, 13, 67, 82, 65, 66, 13, 70, 76, 79, 87, 69, 82, 13, 68, 79, 82, 77, 13, 83, 65, 76, 77, 79, 78, 13, 70, 85, 78, 71, 85, 83, 13, 70, 82, 85, 73, 84, 13, 77, 65, 77, 77, 65, 76, 13, 67, 82, 65, 66, 13, 70, 82, 85, 73, 84, 13, 77, 79, 78, 83, 84, 69, 82, 13], "trial": 2, "time_elapsed": 511394, "type": "FREE_RECALL", "trial_index": 103}, "uniqueid": "MTK3657:3TMSXRD2X77XVJ7FYOWPHVCJG7ZW1P", "dateTime": 1520885139077}, {"current_trial": 104, "trialdata": {"rt": 635, "trial_type": "text", "internal_node_id": "0.0-77.0", "time_elapsed": 514033, "key_press": 68, "type": "INSTRUCTIONS", "trial_index": 104}, "uniqueid": "MTK3657:3TMSXRD2X77XVJ7FYOWPHVCJG7ZW1P", "dateTime": 1520885141715}, {"current_trial": 105, "trialdata": {"rt": [5998, 9966, 13521, 16018, 19327, 22602], "trial_type": "math-distractor", "key_times": [5530, 5739, 5998, 9555, 9708, 9966, 12313, 12517, 13521, 15605, 15762, 16018, 18940, 19066, 19327, 22112, 22347, 22602], "responses": ["24", "22", "10", "15", "14", "16"], "num2": [6, 4, 2, 7, 5, 8, 4], "num3": [9, 9, 4, 7, 2, 4, 2], "conditions": [24, 1600, "a", 24000], "internal_node_id": "0.0-78.0", "key_presses": [98, 100, 13, 98, 98, 13, 97, 96, 13, 97, 101, 13, 97, 100, 13, 97, 102, 13], "trial": 3, "time_elapsed": 540036, "type": "DISTRACTOR", "trial_index": 105, "num1": [9, 9, 4, 1, 7, 4, 4]}, "uniqueid": "MTK3657:3TMSXRD2X77XVJ7FYOWPHVCJG7ZW1P", "dateTime": 1520885167718}, {"current_trial": 106, "trialdata": {"rt": -1, "trial_type": "single-stim", "stimulus": "<p id=\"stim\">10</p>", "internal_node_id": "0.0-79.0-0.0", "time_elapsed": 543037, "key_press": -1, "trial_index": 106}, "uniqueid": "MTK3657:3TMSXRD2X77XVJ7FYOWPHVCJG7ZW1P", "dateTime": 1520885170719}, {"current_trial": 107, "trialdata": {"rt": -1, "trial_type": "single-stim", "stimulus": "<p id=\"stim\">9</p>", "internal_node_id": "0.0-79.0-1.0", "time_elapsed": 544039, "key_press": -1, "trial_index": 107}, "uniqueid": "MTK3657:3TMSXRD2X77XVJ7FYOWPHVCJG7ZW1P", "dateTime": 1520885171721}, {"current_trial": 108, "trialdata": {"rt": -1, "trial_type": "single-stim", "stimulus": "<p id=\"stim\">8</p>", "internal_node_id": "0.0-79.0-2.0", "time_elapsed": 545040, "key_press": -1, "trial_index": 108}, "uniqueid": "MTK3657:3TMSXRD2X77XVJ7FYOWPHVCJG7ZW1P", "dateTime": 1520885172722}, {"current_trial": 109, "trialdata": {"rt": -1, "trial_type": "single-stim", "stimulus": "<p id=\"stim\">7</p>", "internal_node_id": "0.0-79.0-3.0", "time_elapsed": 546040, "key_press": -1, "trial_index": 109}, "uniqueid": "MTK3657:3TMSXRD2X77XVJ7FYOWPHVCJG7ZW1P", "dateTime": 1520885173722}, {"current_trial": 110, "trialdata": {"rt": -1, "trial_type": "single-stim", "stimulus": "<p id=\"stim\">6</p>", "internal_node_id": "0.0-79.0-4.0", "time_elapsed": 547042, "key_press": -1, "trial_index": 110}, "uniqueid": "MTK3657:3TMSXRD2X77XVJ7FYOWPHVCJG7ZW1P", "dateTime": 1520885174724}, {"current_trial": 111, "trialdata": {"rt": -1, "trial_type": "single-stim", "stimulus": "<p id=\"stim\">5</p>", "internal_node_id": "0.0-79.0-5.0", "time_elapsed": 548044, "key_press": -1, "trial_index": 111}, "uniqueid": "MTK3657:3TMSXRD2X77XVJ7FYOWPHVCJG7ZW1P", "dateTime": 1520885175726}, {"current_trial": 112, "trialdata": {"rt": -1, "trial_type": "single-stim", "stimulus": "<p id=\"stim\">4</p>", "internal_node_id": "0.0-79.0-6.0", "time_elapsed": 549045, "key_press": -1, "trial_index": 112}, "uniqueid": "MTK3657:3TMSXRD2X77XVJ7FYOWPHVCJG7ZW1P", "dateTime": 1520885176728}, {"current_trial": 113, "trialdata": {"rt": -1, "trial_type": "single-stim", "stimulus": "<p id=\"stim\">3</p>", "internal_node_id": "0.0-79.0-7.0", "time_elapsed": 550046, "key_press": -1, "trial_index": 113}, "uniqueid": "MTK3657:3TMSXRD2X77XVJ7FYOWPHVCJG7ZW1P", "dateTime": 1520885177728}, {"current_trial": 114, "trialdata": {"rt": -1, "trial_type": "single-stim", "stimulus": "<p id=\"stim\">2</p>", "internal_node_id": "0.0-79.0-8.0", "time_elapsed": 551047, "key_press": -1, "trial_index": 114}, "uniqueid": "MTK3657:3TMSXRD2X77XVJ7FYOWPHVCJG7ZW1P", "dateTime": 1520885178729}, {"current_trial": 115, "trialdata": {"rt": -1, "trial_type": "single-stim", "stimulus": "<p id=\"stim\">1</p>", "internal_node_id": "0.0-79.0-9.0", "time_elapsed": 552049, "key_press": -1, "trial_index": 115}, "uniqueid": "MTK3657:3TMSXRD2X77XVJ7FYOWPHVCJG7ZW1P", "dateTime": 1520885179731}, {"current_trial": 116, "trialdata": {"rt": -1, "trial_type": "single-stim", "stimulus": "<p id=\"stim\">+</p>", "internal_node_id": "0.0-80.0-0.0", "time_elapsed": 553552, "key_press": -1, "type": "FIXATION", "trial_index": 116}, "uniqueid": "MTK3657:3TMSXRD2X77XVJ7FYOWPHVCJG7ZW1P", "dateTime": 1520885181234}, {"current_trial": 117, "trialdata": {"rt": -1000, "trial_type": "single-audio", "word": "cattle", "stimulus": "/static/audio/wordpool/CATTLE.wav", "conditions": [24, 1600, "a", 24000], "internal_node_id": "0.0-81.0", "trial": 3, "time_elapsed": 556194, "serialpos": 0, "key_press": -1, "wordID": 260, "type": "PRES_AUD", "trial_index": 117}, "uniqueid": "MTK3657:3TMSXRD2X77XVJ7FYOWPHVCJG7ZW1P", "dateTime": 1520885183876}, {"current_trial": 118, "trialdata": {"rt": -1000, "trial_type": "single-audio", "word": "cowboy", "stimulus": "/static/audio/wordpool/COWBOY.wav", "conditions": [24, 1600, "a", 24000], "internal_node_id": "0.0-82.0", "trial": 3, "time_elapsed": 558690, "serialpos": 1, "key_press": -1, "wordID": 394, "type": "PRES_AUD", "trial_index": 118}, "uniqueid": "MTK3657:3TMSXRD2X77XVJ7FYOWPHVCJG7ZW1P", "dateTime": 1520885186372}, {"current_trial": 119, "trialdata": {"rt": -1000, "trial_type": "single-audio", "word": "tourist", "stimulus": "/static/audio/wordpool/TOURIST.wav", "conditions": [24, 1600, "a", 24000], "internal_node_id": "0.0-83.0", "trial": 3, "time_elapsed": 561330, "serialpos": 2, "key_press": -1, "wordID": 1487, "type": "PRES_AUD", "trial_index": 119}, "uniqueid": "MTK3657:3TMSXRD2X77XVJ7FYOWPHVCJG7ZW1P", "dateTime": 1520885189012}, {"current_trial": 120, "trialdata": {"rt": -1000, "trial_type": "single-audio", "word": "baby", "stimulus": "/static/audio/wordpool/BABY.wav", "conditions": [24, 1600, "a", 24000], "internal_node_id": "0.0-84.0", "trial": 3, "time_elapsed": 564115, "serialpos": 3, "key_press": -1, "wordID": 63, "type": "PRES_AUD", "trial_index": 120}, "uniqueid": "MTK3657:3TMSXRD2X77XVJ7FYOWPHVCJG7ZW1P", "dateTime": 1520885191797}, {"current_trial": 121, "trialdata": {"rt": -1000, "trial_type": "single-audio", "word": "virus", "stimulus": "/static/audio/wordpool/VIRUS.wav", "conditions": [24, 1600, "a", 24000], "internal_node_id": "0.0-85.0", "trial": 3, "time_elapsed": 566591, "serialpos": 4, "key_press": -1, "wordID": 1571, "type": "PRES_AUD", "trial_index": 121}, "uniqueid": "MTK3657:3TMSXRD2X77XVJ7FYOWPHVCJG7ZW1P", "dateTime": 1520885194274}, {"current_trial": 122, "trialdata": {"rt": -1000, "trial_type": "single-audio", "word": "sponge", "stimulus": "/static/audio/wordpool/SPONGE.wav", "conditions": [24, 1600, "a", 24000], "internal_node_id": "0.0-86.0", "trial": 3, "time_elapsed": 569265, "serialpos": 5, "key_press": -1, "wordID": 1354, "type": "PRES_AUD", "trial_index": 122}, "uniqueid": "MTK3657:3TMSXRD2X77XVJ7FYOWPHVCJG7ZW1P", "dateTime": 1520885196947}, {"current_trial": 123, "trialdata": {"rt": -1000, "trial_type": "single-audio", "word": "item", "stimulus": "/static/audio/wordpool/ITEM.wav", "conditions": [24, 1600, "a", 24000], "internal_node_id": "0.0-87.0", "trial": 3, "time_elapsed": 571979, "serialpos": 6, "key_press": -1, "wordID": 745, "type": "PRES_AUD", "trial_index": 123}, "uniqueid": "MTK3657:3TMSXRD2X77XVJ7FYOWPHVCJG7ZW1P", "dateTime": 1520885199661}, {"current_trial": 124, "trialdata": {"rt": -1000, "trial_type": "single-audio", "word": "ozone", "stimulus": "/static/audio/wordpool/OZONE.wav", "conditions": [24, 1600, "a", 24000], "internal_node_id": "0.0-88.0", "trial": 3, "time_elapsed": 574498, "serialpos": 7, "key_press": -1, "wordID": 995, "type": "PRES_AUD", "trial_index": 124}, "uniqueid": "MTK3657:3TMSXRD2X77XVJ7FYOWPHVCJG7ZW1P", "dateTime": 1520885202180}, {"current_trial": 125, "trialdata": {"rt": -1000, "trial_type": "single-audio", "word": "smog", "stimulus": "/static/audio/wordpool/SMOG.wav", "conditions": [24, 1600, "a", 24000], "internal_node_id": "0.0-89.0", "trial": 3, "time_elapsed": 577262, "serialpos": 8, "key_press": -1, "wordID": 1329, "type": "PRES_AUD", "trial_index": 125}, "uniqueid": "MTK3657:3TMSXRD2X77XVJ7FYOWPHVCJG7ZW1P", "dateTime": 1520885204944}, {"current_trial": 126, "trialdata": {"rt": -1000, "trial_type": "single-audio", "word": "blender", "stimulus": "/static/audio/wordpool/BLENDER.wav", "conditions": [24, 1600, "a", 24000], "internal_node_id": "0.0-90.0", "trial": 3, "time_elapsed": 579797, "serialpos": 9, "key_press": -1, "wordID": 135, "type": "PRES_AUD", "trial_index": 126}, "uniqueid": "MTK3657:3TMSXRD2X77XVJ7FYOWPHVCJG7ZW1P", "dateTime": 1520885207479}, {"current_trial": 127, "trialdata": {"rt": -1000, "trial_type": "single-audio", "word": "hostess", "stimulus": "/static/audio/wordpool/HOSTESS.wav", "conditions": [24, 1600, "a", 24000], "internal_node_id": "0.0-91.0", "trial": 3, "time_elapsed": 582418, "serialpos": 10, "key_press": -1, "wordID": 722, "type": "PRES_AUD", "trial_index": 127}, "uniqueid": "MTK3657:3TMSXRD2X77XVJ7FYOWPHVCJG7ZW1P", "dateTime": 1520885210100}, {"current_trial": 128, "trialdata": {"rt": -1000, "trial_type": "single-audio", "word": "puppy", "stimulus": "/static/audio/wordpool/PUPPY.wav", "conditions": [24, 1600, "a", 24000], "internal_node_id": "0.0-92.0", "trial": 3, "time_elapsed": 584935, "serialpos": 11, "key_press": -1, "wordID": 1143, "type": "PRES_AUD", "trial_index": 128}, "uniqueid": "MTK3657:3TMSXRD2X77XVJ7FYOWPHVCJG7ZW1P", "dateTime": 1520885212617}, {"current_trial": 129, "trialdata": {"rt": -1000, "trial_type": "single-audio", "word": "freezer", "stimulus": "/static/audio/wordpool/FREEZER.wav", "conditions": [24, 1600, "a", 24000], "internal_node_id": "0.0-93.0", "trial": 3, "time_elapsed": 587511, "serialpos": 12, "key_press": -1, "wordID": 603, "type": "PRES_AUD", "trial_index": 129}, "uniqueid": "MTK3657:3TMSXRD2X77XVJ7FYOWPHVCJG7ZW1P", "dateTime": 1520885215193}, {"current_trial": 130, "trialdata": {"rt": -1000, "trial_type": "single-audio", "word": "contract", "stimulus": "/static/audio/wordpool/CONTRACT.wav", "conditions": [24, 1600, "a", 24000], "internal_node_id": "0.0-94.0", "trial": 3, "time_elapsed": 589966, "serialpos": 13, "key_press": -1, "wordID": 367, "type": "PRES_AUD", "trial_index": 130}, "uniqueid": "MTK3657:3TMSXRD2X77XVJ7FYOWPHVCJG7ZW1P", "dateTime": 1520885217648}, {"current_trial": 131, "trialdata": {"rt": -1000, "trial_type": "single-audio", "word": "award", "stimulus": "/static/audio/wordpool/AWARD.wav", "conditions": [24, 1600, "a", 24000], "internal_node_id": "0.0-95.0", "trial": 3, "time_elapsed": 592708, "serialpos": 14, "key_press": -1, "wordID": 62, "type": "PRES_AUD", "trial_index": 131}, "uniqueid": "MTK3657:3TMSXRD2X77XVJ7FYOWPHVCJG7ZW1P", "dateTime": 1520885220390}, {"current_trial": 132, "trialdata": {"rt": -1000, "trial_type": "single-audio", "word": "river", "stimulus": "/static/audio/wordpool/RIVER.wav", "conditions": [24, 1600, "a", 24000], "internal_node_id": "0.0-96.0", "trial": 3, "time_elapsed": 595296, "serialpos": 15, "key_press": -1, "wordID": 1193, "type": "PRES_AUD", "trial_index": 132}, "uniqueid": "MTK3657:3TMSXRD2X77XVJ7FYOWPHVCJG7ZW1P", "dateTime": 1520885222979}, {"current_trial": 133, "trialdata": {"rt": -1000, "trial_type": "single-audio", "word": "lake", "stimulus": "/static/audio/wordpool/LAKE.wav", "conditions": [24, 1600, "a", 24000], "internal_node_id": "0.0-97.0", "trial": 3, "time_elapsed": 597923, "serialpos": 16, "key_press": -1, "wordID": 795, "type": "PRES_AUD", "trial_index": 133}, "uniqueid": "MTK3657:3TMSXRD2X77XVJ7FYOWPHVCJG7ZW1P", "dateTime": 1520885225605}, {"current_trial": 134, "trialdata": {"rt": -1000, "trial_type": "single-audio", "word": "pizza", "stimulus": "/static/audio/wordpool/PIZZA.wav", "conditions": [24, 1600, "a", 24000], "internal_node_id": "0.0-98.0", "trial": 3, "time_elapsed": 600417, "serialpos": 17, "key_press": -1, "wordID": 1078, "type": "PRES_AUD", "trial_index": 134}, "uniqueid": "MTK3657:3TMSXRD2X77XVJ7FYOWPHVCJG7ZW1P", "dateTime": 1520885228099}, {"current_trial": 135, "trialdata": {"rt": -1000, "trial_type": "single-audio", "word": "princess", "stimulus": "/static/audio/wordpool/PRINCESS.wav", "conditions": [24, 1600, "a", 24000], "internal_node_id": "0.0-99.0", "trial": 3, "time_elapsed": 603014, "serialpos": 18, "key_press": -1, "wordID": 1124, "type": "PRES_AUD", "trial_index": 135}, "uniqueid": "MTK3657:3TMSXRD2X77XVJ7FYOWPHVCJG7ZW1P", "dateTime": 1520885230696}, {"current_trial": 136, "trialdata": {"rt": -1000, "trial_type": "single-audio", "word": "space", "stimulus": "/static/audio/wordpool/SPACE.wav", "conditions": [24, 1600, "a", 24000], "internal_node_id": "0.0-100.0", "trial": 3, "time_elapsed": 605738, "serialpos": 19, "key_press": -1, "wordID": 1344, "type": "PRES_AUD", "trial_index": 136}, "uniqueid": "MTK3657:3TMSXRD2X77XVJ7FYOWPHVCJG7ZW1P", "dateTime": 1520885233420}, {"current_trial": 137, "trialdata": {"rt": -1000, "trial_type": "single-audio", "word": "lily", "stimulus": "/static/audio/wordpool/LILY.wav", "conditions": [24, 1600, "a", 24000], "internal_node_id": "0.0-101.0", "trial": 3, "time_elapsed": 608306, "serialpos": 20, "key_press": -1, "wordID": 820, "type": "PRES_AUD", "trial_index": 137}, "uniqueid": "MTK3657:3TMSXRD2X77XVJ7FYOWPHVCJG7ZW1P", "dateTime": 1520885235988}, {"current_trial": 138, "trialdata": {"rt": -1000, "trial_type": "single-audio", "word": "novel", "stimulus": "/static/audio/wordpool/NOVEL.wav", "conditions": [24, 1600, "a", 24000], "internal_node_id": "0.0-102.0", "trial": 3, "time_elapsed": 610834, "serialpos": 21, "key_press": -1, "wordID": 959, "type": "PRES_AUD", "trial_index": 138}, "uniqueid": "MTK3657:3TMSXRD2X77XVJ7FYOWPHVCJG7ZW1P", "dateTime": 1520885238516}, {"current_trial": 139, "trialdata": {"rt": -1000, "trial_type": "single-audio", "word": "saddle", "stimulus": "/static/audio/wordpool/SADDLE.wav", "conditions": [24, 1600, "a", 24000], "internal_node_id": "0.0-103.0", "trial": 3, "time_elapsed": 613309, "serialpos": 22, "key_press": -1, "wordID": 1220, "type": "PRES_AUD", "trial_index": 139}, "uniqueid": "MTK3657:3TMSXRD2X77XVJ7FYOWPHVCJG7ZW1P", "dateTime": 1520885240991}, {"current_trial": 140, "trialdata": {"rt": -1000, "trial_type": "single-audio", "word": "queen", "stimulus": "/static/audio/wordpool/QUEEN.wav", "conditions": [24, 1600, "a", 24000], "internal_node_id": "0.0-104.0", "trial": 3, "time_elapsed": 615982, "serialpos": 23, "key_press": -1, "wordID": 1148, "type": "PRES_AUD", "trial_index": 140}, "uniqueid": "MTK3657:3TMSXRD2X77XVJ7FYOWPHVCJG7ZW1P", "dateTime": 1520885243664}, {"current_trial": 141, "trialdata": {"rt": -1, "trial_type": "single-stim", "stimulus": "", "internal_node_id": "0.0-105.0-0.0", "time_elapsed": 617245, "key_press": -1, "type": "PRE_RECALL_DELAY", "trial_index": 141}, "uniqueid": "MTK3657:3TMSXRD2X77XVJ7FYOWPHVCJG7ZW1P", "dateTime": 1520885244927}, {"current_trial": 142, "trialdata": {"rt": -1000, "trial_type": "single-audio", "stimulus": "/static/audio/400Hz.wav", "internal_node_id": "0.0-106.0", "time_elapsed": 617754, "key_press": -1, "type": "PRE_RECALL_ALERT", "trial_index": 142}, "uniqueid": "MTK3657:3TMSXRD2X77XVJ7FYOWPHVCJG7ZW1P", "dateTime": 1520885245436}, {"current_trial": 143, "trialdata": {"rt": [11137, 13304, 17656, 19142, 22686, 27051, 29393, 30908, 34871, 36314, 42921, 44948, 49050, 52148, 54316, 58375], "recwords": ["queen", "saddle", "pizza", "lake", "river", "sponge", "ozone", "item", "contract", "award", "smog", "ozone", "princess", "space", "lilly", "freezer"], "key_times": [7504, 7785, 8078, 8203, 8341, 8609, 8758, 8912, 9054, 9201, 9324, 10070, 10332, 10620, 10740, 10893, 11137, 11788, 11910, 12152, 12280, 12854, 13151, 13304, 16651, 16801, 17101, 17252, 17513, 17656, 18619, 18758, 18883, 19004, 19142, 20776, 20998, 21276, 21406, 21502, 22686, 24976, 25215, 25312, 25579, 26567, 26704, 27051, 28293, 28619, 28732, 28893, 29208, 29393, 30073, 30290, 30440, 30639, 30908, 32043, 32307, 32467, 32728, 32926, 33059, 33220, 33451, 34871, 35327, 35549, 35692, 35971, 36170, 36314, 41634, 41836, 42002, 42224, 42921, 43893, 44245, 44371, 44544, 44730, 44948, 47495, 47700, 47937, 48114, 48309, 48474, 48745, 48882, 49050, 51097, 51264, 51380, 51612, 51704, 52148, 53091, 53231, 53481, 53602, 54208, 54316, 56749, 56940, 57070, 57284, 57749, 58025, 58183, 58375], "trial_type": "free-recall", "conditions": [24, 1600, "a", 24000], "internal_node_id": "0.0-107.0-0.0", "key_presses": [87, 85, 69, 69, 78, 8, 8, 8, 8, 8, 8, 81, 85, 69, 69, 78, 13, 83, 65, 68, 68, 76, 69, 13, 80, 73, 90, 90, 65, 13, 76, 65, 75, 69, 13, 82, 73, 86, 69, 82, 13, 83, 80, 79, 78, 71, 69, 13, 79, 90, 79, 78, 69, 13, 73, 84, 69, 77, 13, 67, 79, 78, 84, 82, 65, 67, 84, 13, 65, 87, 65, 82, 68, 13, 83, 77, 79, 71, 13, 79, 90, 79, 78, 69, 13, 80, 82, 73, 78, 67, 69, 83, 83, 13, 83, 80, 65, 67, 69, 13, 76, 73, 76, 76, 89, 13, 70, 82, 69, 69, 90, 69, 82, 13], "trial": 3, "time_elapsed": 677756, "type": "FREE_RECALL", "trial_index": 143}, "uniqueid": "MTK3657:3TMSXRD2X77XVJ7FYOWPHVCJG7ZW1P", "dateTime": 1520885305439}, {"current_trial": 144, "trialdata": {"rt": 1735, "trial_type": "text", "internal_node_id": "0.0-108.0", "time_elapsed": 681492, "key_press": 32, "type": "INSTRUCTIONS", "trial_index": 144}, "uniqueid": "MTK3657:3TMSXRD2X77XVJ7FYOWPHVCJG7ZW1P", "dateTime": 1520885309174}, {"current_trial": 145, "trialdata": {"rt": [2512, 5282, 9134], "trial_type": "math-distractor", "key_times": [2104, 2234, 2512, 4849, 5038, 5282, 8614, 8766, 9134], "responses": ["18", "12", "16"], "num2": [3, 3, 5, 2], "num3": [9, 1, 2, 8], "conditions": [24, 800, "a", 12000], "internal_node_id": "0.0-109.0", "key_presses": [97, 104, 13, 97, 98, 13, 97, 102, 13], "trial": 4, "time_elapsed": 695494, "type": "DISTRACTOR", "trial_index": 145, "num1": [6, 8, 9, 4]}, "uniqueid": "MTK3657:3TMSXRD2X77XVJ7FYOWPHVCJG7ZW1P", "dateTime": 1520885323177}, {"current_trial": 146, "trialdata": {"rt": -1, "trial_type": "single-stim", "stimulus": "<p id=\"stim\">10</p>", "internal_node_id": "0.0-110.0-0.0", "time_elapsed": 698498, "key_press": -1, "trial_index": 146}, "uniqueid": "MTK3657:3TMSXRD2X77XVJ7FYOWPHVCJG7ZW1P", "dateTime": 1520885326180}, {"current_trial": 147, "trialdata": {"rt": -1, "trial_type": "single-stim", "stimulus": "<p id=\"stim\">9</p>", "internal_node_id": "0.0-110.0-1.0", "time_elapsed": 699499, "key_press": -1, "trial_index": 147}, "uniqueid": "MTK3657:3TMSXRD2X77XVJ7FYOWPHVCJG7ZW1P", "dateTime": 1520885327182}, {"current_trial": 148, "trialdata": {"rt": -1, "trial_type": "single-stim", "stimulus": "<p id=\"stim\">8</p>", "internal_node_id": "0.0-110.0-2.0", "time_elapsed": 700500, "key_press": -1, "trial_index": 148}, "uniqueid": "MTK3657:3TMSXRD2X77XVJ7FYOWPHVCJG7ZW1P", "dateTime": 1520885328183}, {"current_trial": 149, "trialdata": {"rt": -1, "trial_type": "single-stim", "stimulus": "<p id=\"stim\">7</p>", "internal_node_id": "0.0-110.0-3.0", "time_elapsed": 701503, "key_press": -1, "trial_index": 149}, "uniqueid": "MTK3657:3TMSXRD2X77XVJ7FYOWPHVCJG7ZW1P", "dateTime": 1520885329185}, {"current_trial": 150, "trialdata": {"rt": -1, "trial_type": "single-stim", "stimulus": "<p id=\"stim\">6</p>", "internal_node_id": "0.0-110.0-4.0", "time_elapsed": 702505, "key_press": -1, "trial_index": 150}, "uniqueid": "MTK3657:3TMSXRD2X77XVJ7FYOWPHVCJG7ZW1P", "dateTime": 1520885330187}, {"current_trial": 151, "trialdata": {"rt": -1, "trial_type": "single-stim", "stimulus": "<p id=\"stim\">5</p>", "internal_node_id": "0.0-110.0-5.0", "time_elapsed": 703505, "key_press": -1, "trial_index": 151}, "uniqueid": "MTK3657:3TMSXRD2X77XVJ7FYOWPHVCJG7ZW1P", "dateTime": 1520885331187}, {"current_trial": 152, "trialdata": {"rt": -1, "trial_type": "single-stim", "stimulus": "<p id=\"stim\">4</p>", "internal_node_id": "0.0-110.0-6.0", "time_elapsed": 704507, "key_press": -1, "trial_index": 152}, "uniqueid": "MTK3657:3TMSXRD2X77XVJ7FYOWPHVCJG7ZW1P", "dateTime": 1520885332190}, {"current_trial": 153, "trialdata": {"rt": -1, "trial_type": "single-stim", "stimulus": "<p id=\"stim\">3</p>", "internal_node_id": "0.0-110.0-7.0", "time_elapsed": 705508, "key_press": -1, "trial_index": 153}, "uniqueid": "MTK3657:3TMSXRD2X77XVJ7FYOWPHVCJG7ZW1P", "dateTime": 1520885333190}, {"current_trial": 154, "trialdata": {"rt": -1, "trial_type": "single-stim", "stimulus": "<p id=\"stim\">2</p>", "internal_node_id": "0.0-110.0-8.0", "time_elapsed": 706510, "key_press": -1, "trial_index": 154}, "uniqueid": "MTK3657:3TMSXRD2X77XVJ7FYOWPHVCJG7ZW1P", "dateTime": 1520885334192}, {"current_trial": 155, "trialdata": {"rt": -1, "trial_type": "single-stim", "stimulus": "<p id=\"stim\">1</p>", "internal_node_id": "0.0-110.0-9.0", "time_elapsed": 707510, "key_press": -1, "trial_index": 155}, "uniqueid": "MTK3657:3TMSXRD2X77XVJ7FYOWPHVCJG7ZW1P", "dateTime": 1520885335193}, {"current_trial": 156, "trialdata": {"rt": -1, "trial_type": "single-stim", "stimulus": "<p id=\"stim\">+</p>", "internal_node_id": "0.0-111.0-0.0", "time_elapsed": 709012, "key_press": -1, "type": "FIXATION", "trial_index": 156}, "uniqueid": "MTK3657:3TMSXRD2X77XVJ7FYOWPHVCJG7ZW1P", "dateTime": 1520885336694}, {"current_trial": 157, "trialdata": {"rt": -1000, "trial_type": "single-audio", "word": "plate", "stimulus": "/static/audio/wordpool/PLATE.wav", "conditions": [24, 800, "a", 12000], "internal_node_id": "0.0-112.0", "trial": 4, "time_elapsed": 710661, "serialpos": 0, "key_press": -1, "wordID": 1085, "type": "PRES_AUD", "trial_index": 157}, "uniqueid": "MTK3657:3TMSXRD2X77XVJ7FYOWPHVCJG7ZW1P", "dateTime": 1520885338343}, {"current_trial": 158, "trialdata": {"rt": -1000, "trial_type": "single-audio", "word": "office", "stimulus": "/static/audio/wordpool/OFFICE.wav", "conditions": [24, 800, "a", 12000], "internal_node_id": "0.0-113.0", "trial": 4, "time_elapsed": 712424, "serialpos": 1, "key_press": -1, "wordID": 971, "type": "PRES_AUD", "trial_index": 158}, "uniqueid": "MTK3657:3TMSXRD2X77XVJ7FYOWPHVCJG7ZW1P", "dateTime": 1520885340106}, {"current_trial": 159, "trialdata": {"rt": -1000, "trial_type": "single-audio", "word": "shirt", "stimulus": "/static/audio/wordpool/SHIRT.wav", "conditions": [24, 800, "a", 12000], "internal_node_id": "0.0-114.0", "trial": 4, "time_elapsed": 714405, "serialpos": 2, "key_press": -1, "wordID": 1286, "type": "PRES_AUD", "trial_index": 159}, "uniqueid": "MTK3657:3TMSXRD2X77XVJ7FYOWPHVCJG7ZW1P", "dateTime": 1520885342087}, {"current_trial": 160, "trialdata": {"rt": -1000, "trial_type": "single-audio", "word": "friend", "stimulus": "/static/audio/wordpool/FRIEND.wav", "conditions": [24, 800, "a", 12000], "internal_node_id": "0.0-115.0", "trial": 4, "time_elapsed": 716303, "serialpos": 3, "key_press": -1, "wordID": 605, "type": "PRES_AUD", "trial_index": 160}, "uniqueid": "MTK3657:3TMSXRD2X77XVJ7FYOWPHVCJG7ZW1P", "dateTime": 1520885343985}, {"current_trial": 161, "trialdata": {"rt": -1000, "trial_type": "single-audio", "word": "wife", "stimulus": "/static/audio/wordpool/WIFE.wav", "conditions": [24, 800, "a", 12000], "internal_node_id": "0.0-116.0", "trial": 4, "time_elapsed": 718072, "serialpos": 4, "key_press": -1, "wordID": 1608, "type": "PRES_AUD", "trial_index": 161}, "uniqueid": "MTK3657:3TMSXRD2X77XVJ7FYOWPHVCJG7ZW1P", "dateTime": 1520885345754}, {"current_trial": 162, "trialdata": {"rt": -1000, "trial_type": "single-audio", "word": "message", "stimulus": "/static/audio/wordpool/MESSAGE.wav", "conditions": [24, 800, "a", 12000], "internal_node_id": "0.0-117.0", "trial": 4, "time_elapsed": 719818, "serialpos": 5, "key_press": -1, "wordID": 887, "type": "PRES_AUD", "trial_index": 162}, "uniqueid": "MTK3657:3TMSXRD2X77XVJ7FYOWPHVCJG7ZW1P", "dateTime": 1520885347500}, {"current_trial": 163, "trialdata": {"rt": -1000, "trial_type": "single-audio", "word": "napkin", "stimulus": "/static/audio/wordpool/NAPKIN.wav", "conditions": [24, 800, "a", 12000], "internal_node_id": "0.0-118.0", "trial": 4, "time_elapsed": 721460, "serialpos": 6, "key_press": -1, "wordID": 936, "type": "PRES_AUD", "trial_index": 163}, "uniqueid": "MTK3657:3TMSXRD2X77XVJ7FYOWPHVCJG7ZW1P", "dateTime": 1520885349143}, {"current_trial": 164, "trialdata": {"rt": -1000, "trial_type": "single-audio", "word": "tablet", "stimulus": "/static/audio/wordpool/TABLET.wav", "conditions": [24, 800, "a", 12000], "internal_node_id": "0.0-119.0", "trial": 4, "time_elapsed": 723462, "serialpos": 7, "key_press": -1, "wordID": 1426, "type": "PRES_AUD", "trial_index": 164}, "uniqueid": "MTK3657:3TMSXRD2X77XVJ7FYOWPHVCJG7ZW1P", "dateTime": 1520885351144}, {"current_trial": 165, "trialdata": {"rt": -1000, "trial_type": "single-audio", "word": "headband", "stimulus": "/static/audio/wordpool/HEADBAND.wav", "conditions": [24, 800, "a", 12000], "internal_node_id": "0.0-120.0", "trial": 4, "time_elapsed": 725092, "serialpos": 8, "key_press": -1, "wordID": 695, "type": "PRES_AUD", "trial_index": 165}, "uniqueid": "MTK3657:3TMSXRD2X77XVJ7FYOWPHVCJG7ZW1P", "dateTime": 1520885352774}, {"current_trial": 166, "trialdata": {"rt": -1000, "trial_type": "single-audio", "word": "rocket", "stimulus": "/static/audio/wordpool/ROCKET.wav", "conditions": [24, 800, "a", 12000], "internal_node_id": "0.0-121.0", "trial": 4, "time_elapsed": 726815, "serialpos": 9, "key_press": -1, "wordID": 1201, "type": "PRES_AUD", "trial_index": 166}, "uniqueid": "MTK3657:3TMSXRD2X77XVJ7FYOWPHVCJG7ZW1P", "dateTime": 1520885354497}, {"current_trial": 167, "trialdata": {"rt": -1000, "trial_type": "single-audio", "word": "costume", "stimulus": "/static/audio/wordpool/COSTUME.wav", "conditions": [24, 800, "a", 12000], "internal_node_id": "0.0-122.0", "trial": 4, "time_elapsed": 728660, "serialpos": 10, "key_press": -1, "wordID": 382, "type": "PRES_AUD", "trial_index": 167}, "uniqueid": "MTK3657:3TMSXRD2X77XVJ7FYOWPHVCJG7ZW1P", "dateTime": 1520885356342}, {"current_trial": 168, "trialdata": {"rt": -1000, "trial_type": "single-audio", "word": "portrait", "stimulus": "/static/audio/wordpool/PORTRAIT.wav", "conditions": [24, 800, "a", 12000], "internal_node_id": "0.0-123.0", "trial": 4, "time_elapsed": 730494, "serialpos": 11, "key_press": -1, "wordID": 1110, "type": "PRES_AUD", "trial_index": 168}, "uniqueid": "MTK3657:3TMSXRD2X77XVJ7FYOWPHVCJG7ZW1P", "dateTime": 1520885358176}, {"current_trial": 169, "trialdata": {"rt": -1000, "trial_type": "single-audio", "word": "hedge", "stimulus": "/static/audio/wordpool/HEDGE.wav", "conditions": [24, 800, "a", 12000], "internal_node_id": "0.0-124.0", "trial": 4, "time_elapsed": 732230, "serialpos": 12, "key_press": -1, "wordID": 698, "type": "PRES_AUD", "trial_index": 169}, "uniqueid": "MTK3657:3TMSXRD2X77XVJ7FYOWPHVCJG7ZW1P", "dateTime": 1520885359912}, {"current_trial": 170, "trialdata": {"rt": -1000, "trial_type": "single-audio", "word": "crib", "stimulus": "/static/audio/wordpool/CRIB.wav", "conditions": [24, 800, "a", 12000], "internal_node_id": "0.0-125.0", "trial": 4, "time_elapsed": 734062, "serialpos": 13, "key_press": -1, "wordID": 406, "type": "PRES_AUD", "trial_index": 170}, "uniqueid": "MTK3657:3TMSXRD2X77XVJ7FYOWPHVCJG7ZW1P", "dateTime": 1520885361744}, {"current_trial": 171, "trialdata": {"rt": -1000, "trial_type": "single-audio", "word": "scalpel", "stimulus": "/static/audio/wordpool/SCALPEL.wav", "conditions": [24, 800, "a", 12000], "internal_node_id": "0.0-126.0", "trial": 4, "time_elapsed": 736039, "serialpos": 14, "key_press": -1, "wordID": 1242, "type": "PRES_AUD", "trial_index": 171}, "uniqueid": "MTK3657:3TMSXRD2X77XVJ7FYOWPHVCJG7ZW1P", "dateTime": 1520885363721}, {"current_trial": 172, "trialdata": {"rt": -1000, "trial_type": "single-audio", "word": "scissors", "stimulus": "/static/audio/wordpool/SCISSORS.wav", "conditions": [24, 800, "a", 12000], "internal_node_id": "0.0-127.0", "trial": 4, "time_elapsed": 737893, "serialpos": 15, "key_press": -1, "wordID": 1249, "type": "PRES_AUD", "trial_index": 172}, "uniqueid": "MTK3657:3TMSXRD2X77XVJ7FYOWPHVCJG7ZW1P", "dateTime": 1520885365575}, {"current_trial": 173, "trialdata": {"rt": -1000, "trial_type": "single-audio", "word": "rabbit", "stimulus": "/static/audio/wordpool/RABBIT.wav", "conditions": [24, 800, "a", 12000], "internal_node_id": "0.0-128.0", "trial": 4, "time_elapsed": 739808, "serialpos": 16, "key_press": -1, "wordID": 1151, "type": "PRES_AUD", "trial_index": 173}, "uniqueid": "MTK3657:3TMSXRD2X77XVJ7FYOWPHVCJG7ZW1P", "dateTime": 1520885367490}, {"current_trial": 174, "trialdata": {"rt": -1000, "trial_type": "single-audio", "word": "primate", "stimulus": "/static/audio/wordpool/PRIMATE.wav", "conditions": [24, 800, "a", 12000], "internal_node_id": "0.0-129.0", "trial": 4, "time_elapsed": 741530, "serialpos": 17, "key_press": -1, "wordID": 1122, "type": "PRES_AUD", "trial_index": 174}, "uniqueid": "MTK3657:3TMSXRD2X77XVJ7FYOWPHVCJG7ZW1P", "dateTime": 1520885369212}, {"current_trial": 175, "trialdata": {"rt": -1000, "trial_type": "single-audio", "word": "hound", "stimulus": "/static/audio/wordpool/HOUND.wav", "conditions": [24, 800, "a", 12000], "internal_node_id": "0.0-130.0", "trial": 4, "time_elapsed": 743215, "serialpos": 18, "key_press": -1, "wordID": 723, "type": "PRES_AUD", "trial_index": 175}, "uniqueid": "MTK3657:3TMSXRD2X77XVJ7FYOWPHVCJG7ZW1P", "dateTime": 1520885370897}, {"current_trial": 176, "trialdata": {"rt": -1000, "trial_type": "single-audio", "word": "infant", "stimulus": "/static/audio/wordpool/INFANT.wav", "conditions": [24, 800, "a", 12000], "internal_node_id": "0.0-131.0", "trial": 4, "time_elapsed": 745030, "serialpos": 19, "key_press": -1, "wordID": 736, "type": "PRES_AUD", "trial_index": 176}, "uniqueid": "MTK3657:3TMSXRD2X77XVJ7FYOWPHVCJG7ZW1P", "dateTime": 1520885372713}, {"current_trial": 177, "trialdata": {"rt": -1000, "trial_type": "single-audio", "word": "concert", "stimulus": "/static/audio/wordpool/CONCERT.wav", "conditions": [24, 800, "a", 12000], "internal_node_id": "0.0-132.0", "trial": 4, "time_elapsed": 746782, "serialpos": 20, "key_press": -1, "wordID": 359, "type": "PRES_AUD", "trial_index": 177}, "uniqueid": "MTK3657:3TMSXRD2X77XVJ7FYOWPHVCJG7ZW1P", "dateTime": 1520885374465}, {"current_trial": 178, "trialdata": {"rt": -1000, "trial_type": "single-audio", "word": "apple", "stimulus": "/static/audio/wordpool/APPLE.wav", "conditions": [24, 800, "a", 12000], "internal_node_id": "0.0-133.0", "trial": 4, "time_elapsed": 748698, "serialpos": 21, "key_press": -1, "wordID": 32, "type": "PRES_AUD", "trial_index": 178}, "uniqueid": "MTK3657:3TMSXRD2X77XVJ7FYOWPHVCJG7ZW1P", "dateTime": 1520885376380}, {"current_trial": 179, "trialdata": {"rt": -1000, "trial_type": "single-audio", "word": "carriage", "stimulus": "/static/audio/wordpool/CARRIAGE.wav", "conditions": [24, 800, "a", 12000], "internal_node_id": "0.0-134.0", "trial": 4, "time_elapsed": 750328, "serialpos": 22, "key_press": -1, "wordID": 247, "type": "PRES_AUD", "trial_index": 179}, "uniqueid": "MTK3657:3TMSXRD2X77XVJ7FYOWPHVCJG7ZW1P", "dateTime": 1520885378010}, {"current_trial": 180, "trialdata": {"rt": -1000, "trial_type": "single-audio", "word": "relish", "stimulus": "/static/audio/wordpool/RELISH.wav", "conditions": [24, 800, "a", 12000], "internal_node_id": "0.0-135.0", "trial": 4, "time_elapsed": 752094, "serialpos": 23, "key_press": -1, "wordID": 1182, "type": "PRES_AUD", "trial_index": 180}, "uniqueid": "MTK3657:3TMSXRD2X77XVJ7FYOWPHVCJG7ZW1P", "dateTime": 1520885379776}, {"current_trial": 181, "trialdata": {"rt": -1, "trial_type": "single-stim", "stimulus": "", "internal_node_id": "0.0-136.0-0.0", "time_elapsed": 753435, "key_press": -1, "type": "PRE_RECALL_DELAY", "trial_index": 181}, "uniqueid": "MTK3657:3TMSXRD2X77XVJ7FYOWPHVCJG7ZW1P", "dateTime": 1520885381117}, {"current_trial": 182, "trialdata": {"rt": -1000, "trial_type": "single-audio", "stimulus": "/static/audio/400Hz.wav", "internal_node_id": "0.0-137.0", "time_elapsed": 753937, "key_press": -1, "type": "PRE_RECALL_ALERT", "trial_index": 182}, "uniqueid": "MTK3657:3TMSXRD2X77XVJ7FYOWPHVCJG7ZW1P", "dateTime": 1520885381619}, {"current_trial": 183, "trialdata": {"rt": [6235, 9694, 11397, 17074, 20278, 21648, 23180, 26922, 30427, 33757, 44090, 48646, 51182, 53549, 57912], "recwords": ["rellish", "carriage", "apple", "rocket", "message", "wife", "friend", "tablet", "napkin", "infant", "headband", "rocket", "hound", "carriage", "concert"], "key_times": [4718, 4820, 4991, 5098, 5668, 5777, 5933, 6235, 6825, 6943, 7157, 7307, 8937, 9043, 9400, 9485, 9694, 10319, 10835, 10971, 11115, 11239, 11397, 13432, 13557, 13736, 14542, 14664, 14802, 14946, 15109, 15557, 15651, 17074, 17630, 17820, 18155, 18373, 18884, 19079, 19296, 20278, 20859, 21084, 21372, 21494, 21648, 22155, 22275, 22473, 22525, 22680, 22804, 23180, 25976, 26118, 26292, 26494, 26638, 26736, 26922, 28976, 29126, 29354, 29928, 30076, 30224, 30427, 32376, 32517, 33187, 33304, 33465, 33578, 33757, 40078, 40359, 40599, 40632, 40725, 41065, 41216, 41750, 41863, 42062, 42892, 43034, 43172, 43844, 44090, 46517, 46772, 46935, 47136, 47390, 47531, 48646, 49848, 50079, 50258, 50451, 50593, 51182, 52289, 52418, 52664, 52806, 52925, 53036, 53225, 53343, 53549, 56808, 56977, 57141, 57312, 57471, 57556, 57765, 57912], "trial_type": "free-recall", "conditions": [24, 800, "a", 12000], "internal_node_id": "0.0-138.0-0.0", "key_presses": [82, 69, 76, 76, 73, 83, 72, 13, 67, 65, 82, 82, 73, 65, 71, 69, 13, 65, 80, 80, 76, 69, 13, 82, 79, 88, 8, 67, 75, 69, 82, 8, 84, 13, 77, 69, 83, 83, 65, 71, 69, 13, 87, 73, 70, 69, 13, 70, 82, 73, 69, 78, 68, 13, 84, 65, 66, 76, 69, 84, 13, 78, 65, 80, 75, 73, 78, 13, 73, 78, 70, 65, 78, 84, 13, 71, 8, 72, 74, 69, 8, 8, 69, 65, 68, 66, 65, 78, 68, 13, 82, 79, 67, 75, 69, 84, 13, 72, 79, 85, 78, 68, 13, 67, 65, 82, 82, 73, 65, 71, 69, 13, 67, 79, 78, 67, 69, 82, 84, 13], "trial": 4, "time_elapsed": 813941, "type": "FREE_RECALL", "trial_index": 183}, "uniqueid": "MTK3657:3TMSXRD2X77XVJ7FYOWPHVCJG7ZW1P", "dateTime": 1520885441624}, {"current_trial": 184, "trialdata": {"rt": 1880, "trial_type": "text", "internal_node_id": "0.0-139.0", "time_elapsed": 817823, "key_press": 32, "type": "INSTRUCTIONS", "trial_index": 184}, "uniqueid": "MTK3657:3TMSXRD2X77XVJ7FYOWPHVCJG7ZW1P", "dateTime": 1520885445505}, {"current_trial": 185, "trialdata": {"rt": [4257, 7223, 10094], "trial_type": "math-distractor", "key_times": [3851, 3988, 4257, 6803, 6941, 7223, 9494, 9765, 10094], "responses": ["11", "18", "27"], "num2": [4, 7, 9, 2], "num3": [2, 9, 9, 8], "conditions": [12, 1600, "a", 12000], "internal_node_id": "0.0-140.0", "key_presses": [97, 97, 13, 97, 104, 13, 98, 103, 13], "trial": 5, "time_elapsed": 831827, "type": "DISTRACTOR", "trial_index": 185, "num1": [5, 2, 9, 2]}, "uniqueid": "MTK3657:3TMSXRD2X77XVJ7FYOWPHVCJG7ZW1P", "dateTime": 1520885459509}, {"current_trial": 186, "trialdata": {"rt": -1, "trial_type": "single-stim", "stimulus": "<p id=\"stim\">10</p>", "internal_node_id": "0.0-141.0-0.0", "time_elapsed": 834828, "key_press": -1, "trial_index": 186}, "uniqueid": "MTK3657:3TMSXRD2X77XVJ7FYOWPHVCJG7ZW1P", "dateTime": 1520885462510}, {"current_trial": 187, "trialdata": {"rt": -1, "trial_type": "single-stim", "stimulus": "<p id=\"stim\">9</p>", "internal_node_id": "0.0-141.0-1.0", "time_elapsed": 835829, "key_press": -1, "trial_index": 187}, "uniqueid": "MTK3657:3TMSXRD2X77XVJ7FYOWPHVCJG7ZW1P", "dateTime": 1520885463511}, {"current_trial": 188, "trialdata": {"rt": -1, "trial_type": "single-stim", "stimulus": "<p id=\"stim\">8</p>", "internal_node_id": "0.0-141.0-2.0", "time_elapsed": 836831, "key_press": -1, "trial_index": 188}, "uniqueid": "MTK3657:3TMSXRD2X77XVJ7FYOWPHVCJG7ZW1P", "dateTime": 1520885464513}, {"current_trial": 189, "trialdata": {"rt": -1, "trial_type": "single-stim", "stimulus": "<p id=\"stim\">7</p>", "internal_node_id": "0.0-141.0-3.0", "time_elapsed": 837831, "key_press": -1, "trial_index": 189}, "uniqueid": "MTK3657:3TMSXRD2X77XVJ7FYOWPHVCJG7ZW1P", "dateTime": 1520885465513}, {"current_trial": 190, "trialdata": {"rt": -1, "trial_type": "single-stim", "stimulus": "<p id=\"stim\">6</p>", "internal_node_id": "0.0-141.0-4.0", "time_elapsed": 838832, "key_press": -1, "trial_index": 190}, "uniqueid": "MTK3657:3TMSXRD2X77XVJ7FYOWPHVCJG7ZW1P", "dateTime": 1520885466514}, {"current_trial": 191, "trialdata": {"rt": -1, "trial_type": "single-stim", "stimulus": "<p id=\"stim\">5</p>", "internal_node_id": "0.0-141.0-5.0", "time_elapsed": 839834, "key_press": -1, "trial_index": 191}, "uniqueid": "MTK3657:3TMSXRD2X77XVJ7FYOWPHVCJG7ZW1P", "dateTime": 1520885467516}, {"current_trial": 192, "trialdata": {"rt": -1, "trial_type": "single-stim", "stimulus": "<p id=\"stim\">4</p>", "internal_node_id": "0.0-141.0-6.0", "time_elapsed": 840837, "key_press": -1, "trial_index": 192}, "uniqueid": "MTK3657:3TMSXRD2X77XVJ7FYOWPHVCJG7ZW1P", "dateTime": 1520885468519}, {"current_trial": 193, "trialdata": {"rt": -1, "trial_type": "single-stim", "stimulus": "<p id=\"stim\">3</p>", "internal_node_id": "0.0-141.0-7.0", "time_elapsed": 841838, "key_press": -1, "trial_index": 193}, "uniqueid": "MTK3657:3TMSXRD2X77XVJ7FYOWPHVCJG7ZW1P", "dateTime": 1520885469520}, {"current_trial": 194, "trialdata": {"rt": -1, "trial_type": "single-stim", "stimulus": "<p id=\"stim\">2</p>", "internal_node_id": "0.0-141.0-8.0", "time_elapsed": 842839, "key_press": -1, "trial_index": 194}, "uniqueid": "MTK3657:3TMSXRD2X77XVJ7FYOWPHVCJG7ZW1P", "dateTime": 1520885470521}, {"current_trial": 195, "trialdata": {"rt": -1, "trial_type": "single-stim", "stimulus": "<p id=\"stim\">1</p>", "internal_node_id": "0.0-141.0-9.0", "time_elapsed": 843840, "key_press": -1, "trial_index": 195}, "uniqueid": "MTK3657:3TMSXRD2X77XVJ7FYOWPHVCJG7ZW1P", "dateTime": 1520885471523}, {"current_trial": 196, "trialdata": {"rt": -1, "trial_type": "single-stim", "stimulus": "<p id=\"stim\">+</p>", "internal_node_id": "0.0-142.0-0.0", "time_elapsed": 845342, "key_press": -1, "type": "FIXATION", "trial_index": 196}, "uniqueid": "MTK3657:3TMSXRD2X77XVJ7FYOWPHVCJG7ZW1P", "dateTime": 1520885473024}, {"current_trial": 197, "trialdata": {"rt": -1000, "trial_type": "single-audio", "word": "police", "stimulus": "/static/audio/wordpool/POLICE.wav", "conditions": [12, 1600, "a", 12000], "internal_node_id": "0.0-143.0", "trial": 5, "time_elapsed": 848073, "serialpos": 0, "key_press": -1, "wordID": 1097, "type": "PRES_AUD", "trial_index": 197}, "uniqueid": "MTK3657:3TMSXRD2X77XVJ7FYOWPHVCJG7ZW1P", "dateTime": 1520885475755}, {"current_trial": 198, "trialdata": {"rt": -1000, "trial_type": "single-audio", "word": "rust", "stimulus": "/static/audio/wordpool/RUST.wav", "conditions": [12, 1600, "a", 12000], "internal_node_id": "0.0-144.0", "trial": 5, "time_elapsed": 850679, "serialpos": 1, "key_press": -1, "wordID": 1218, "type": "PRES_AUD", "trial_index": 198}, "uniqueid": "MTK3657:3TMSXRD2X77XVJ7FYOWPHVCJG7ZW1P", "dateTime": 1520885478361}, {"current_trial": 199, "trialdata": {"rt": -1000, "trial_type": "single-audio", "word": "slide", "stimulus": "/static/audio/wordpool/SLIDE.wav", "conditions": [12, 1600, "a", 12000], "internal_node_id": "0.0-145.0", "trial": 5, "time_elapsed": 853145, "serialpos": 2, "key_press": -1, "wordID": 1325, "type": "PRES_AUD", "trial_index": 199}, "uniqueid": "MTK3657:3TMSXRD2X77XVJ7FYOWPHVCJG7ZW1P", "dateTime": 1520885480827}, {"current_trial": 200, "trialdata": {"rt": -1000, "trial_type": "single-audio", "word": "sword", "stimulus": "/static/audio/wordpool/SWORD.wav", "conditions": [12, 1600, "a", 12000], "internal_node_id": "0.0-146.0", "trial": 5, "time_elapsed": 855568, "serialpos": 3, "key_press": -1, "wordID": 1422, "type": "PRES_AUD", "trial_index": 200}, "uniqueid": "MTK3657:3TMSXRD2X77XVJ7FYOWPHVCJG7ZW1P", "dateTime": 1520885483250}, {"current_trial": 201, "trialdata": {"rt": -1000, "trial_type": "single-audio", "word": "zipper", "stimulus": "/static/audio/wordpool/ZIPPER.wav", "conditions": [12, 1600, "a", 12000], "internal_node_id": "0.0-147.0", "trial": 5, "time_elapsed": 858065, "serialpos": 4, "key_press": -1, "wordID": 1635, "type": "PRES_AUD", "trial_index": 201}, "uniqueid": "MTK3657:3TMSXRD2X77XVJ7FYOWPHVCJG7ZW1P", "dateTime": 1520885485747}, {"current_trial": 202, "trialdata": {"rt": -1000, "trial_type": "single-audio", "word": "pork", "stimulus": "/static/audio/wordpool/PORK.wav", "conditions": [12, 1600, "a", 12000], "internal_node_id": "0.0-148.0", "trial": 5, "time_elapsed": 860493, "serialpos": 5, "key_press": -1, "wordID": 1107, "type": "PRES_AUD", "trial_index": 202}, "uniqueid": "MTK3657:3TMSXRD2X77XVJ7FYOWPHVCJG7ZW1P", "dateTime": 1520885488175}, {"current_trial": 203, "trialdata": {"rt": -1000, "trial_type": "single-audio", "word": "sausage", "stimulus": "/static/audio/wordpool/SAUSAGE.wav", "conditions": [12, 1600, "a", 12000], "internal_node_id": "0.0-149.0", "trial": 5, "time_elapsed": 863295, "serialpos": 6, "key_press": -1, "wordID": 1237, "type": "PRES_AUD", "trial_index": 203}, "uniqueid": "MTK3657:3TMSXRD2X77XVJ7FYOWPHVCJG7ZW1P", "dateTime": 1520885490977}, {"current_trial": 204, "trialdata": {"rt": -1000, "trial_type": "single-audio", "word": "shelf", "stimulus": "/static/audio/wordpool/SHELF.wav", "conditions": [12, 1600, "a", 12000], "internal_node_id": "0.0-150.0", "trial": 5, "time_elapsed": 865946, "serialpos": 7, "key_press": -1, "wordID": 1279, "type": "PRES_AUD", "trial_index": 204}, "uniqueid": "MTK3657:3TMSXRD2X77XVJ7FYOWPHVCJG7ZW1P", "dateTime": 1520885493628}, {"current_trial": 205, "trialdata": {"rt": -1000, "trial_type": "single-audio", "word": "grape", "stimulus": "/static/audio/wordpool/GRAPE.wav", "conditions": [12, 1600, "a", 12000], "internal_node_id": "0.0-151.0", "trial": 5, "time_elapsed": 868615, "serialpos": 8, "key_press": -1, "wordID": 653, "type": "PRES_AUD", "trial_index": 205}, "uniqueid": "MTK3657:3TMSXRD2X77XVJ7FYOWPHVCJG7ZW1P", "dateTime": 1520885496298}, {"current_trial": 206, "trialdata": {"rt": -1000, "trial_type": "single-audio", "word": "server", "stimulus": "/static/audio/wordpool/SERVER.wav", "conditions": [12, 1600, "a", 12000], "internal_node_id": "0.0-152.0", "trial": 5, "time_elapsed": 871163, "serialpos": 9, "key_press": -1, "wordID": 1271, "type": "PRES_AUD", "trial_index": 206}, "uniqueid": "MTK3657:3TMSXRD2X77XVJ7FYOWPHVCJG7ZW1P", "dateTime": 1520885498845}, {"current_trial": 207, "trialdata": {"rt": -1000, "trial_type": "single-audio", "word": "captive", "stimulus": "/static/audio/wordpool/CAPTIVE.wav", "conditions": [12, 1600, "a", 12000], "internal_node_id": "0.0-153.0", "trial": 5, "time_elapsed": 873592, "serialpos": 10, "key_press": -1, "wordID": 239, "type": "PRES_AUD", "trial_index": 207}, "uniqueid": "MTK3657:3TMSXRD2X77XVJ7FYOWPHVCJG7ZW1P", "dateTime": 1520885501274}, {"current_trial": 208, "trialdata": {"rt": -1000, "trial_type": "single-audio", "word": "citrus", "stimulus": "/static/audio/wordpool/CITRUS.wav", "conditions": [12, 1600, "a", 12000], "internal_node_id": "0.0-154.0", "trial": 5, "time_elapsed": 876246, "serialpos": 11, "key_press": -1, "wordID": 312, "type": "PRES_AUD", "trial_index": 208}, "uniqueid": "MTK3657:3TMSXRD2X77XVJ7FYOWPHVCJG7ZW1P", "dateTime": 1520885503928}, {"current_trial": 209, "trialdata": {"rt": -1, "trial_type": "single-stim", "stimulus": "", "internal_node_id": "0.0-155.0-0.0", "time_elapsed": 877494, "key_press": -1, "type": "PRE_RECALL_DELAY", "trial_index": 209}, "uniqueid": "MTK3657:3TMSXRD2X77XVJ7FYOWPHVCJG7ZW1P", "dateTime": 1520885505176}, {"current_trial": 210, "trialdata": {"rt": -1000, "trial_type": "single-audio", "stimulus": "/static/audio/400Hz.wav", "internal_node_id": "0.0-156.0", "time_elapsed": 877996, "key_press": -1, "type": "PRE_RECALL_ALERT", "trial_index": 210}, "uniqueid": "MTK3657:3TMSXRD2X77XVJ7FYOWPHVCJG7ZW1P", "dateTime": 1520885505678}, {"current_trial": 211, "trialdata": {"rt": [4869, 6447, 8833, 11432, 12681, 15739, 18590, 21558, 23896, 26172, 29861, 31019, 34535, 36989, 44441, 48255, 53729, 57640], "recwords": ["citrus", "pork", "rest", "police", "slide", "zipper", "sausage", "shelf", "grape", "server", "captive", "", "sausage", "pork", "police", "citrus", "shelf", "zipper"], "key_times": [3627, 3880, 4230, 4331, 4500, 4615, 4869, 5736, 5841, 6097, 6201, 6447, 8190, 8282, 8473, 8667, 8833, 10010, 10238, 10399, 10604, 10730, 10845, 11432, 11877, 12046, 12169, 12352, 12471, 12681, 14076, 14313, 14531, 14652, 14765, 14847, 15739, 16235, 16373, 16612, 16760, 16923, 17676, 17839, 18590, 19315, 19521, 19646, 19804, 20091, 21558, 22340, 22713, 22829, 22983, 23322, 23896, 24568, 24811, 24971, 25227, 25365, 25493, 26172, 27649, 27760, 27925, 28471, 28690, 29001, 29162, 29463, 29572, 29861, 31019, 32361, 32567, 32740, 32870, 33985, 34273, 34380, 34535, 36291, 36429, 36595, 36723, 36989, 43577, 43706, 43882, 44084, 44219, 44336, 44441, 46825, 47081, 47622, 47808, 47933, 48079, 48255, 52238, 52492, 52638, 52833, 53637, 53729, 56782, 57004, 57222, 57338, 57425, 57534, 57640], "trial_type": "free-recall", "conditions": [12, 1600, "a", 12000], "internal_node_id": "0.0-157.0-0.0", "key_presses": [67, 73, 84, 82, 85, 83, 13, 80, 79, 82, 75, 13, 82, 69, 83, 84, 13, 80, 79, 76, 73, 67, 69, 13, 83, 76, 73, 68, 69, 13, 90, 73, 80, 80, 69, 82, 13, 83, 65, 85, 83, 65, 71, 69, 13, 83, 72, 69, 76, 70, 13, 71, 82, 65, 80, 69, 13, 83, 69, 82, 86, 69, 82, 13, 67, 65, 82, 8, 80, 84, 73, 86, 69, 13, 13, 83, 65, 85, 83, 65, 71, 69, 13, 80, 79, 82, 75, 13, 80, 79, 76, 73, 67, 69, 13, 67, 73, 84, 82, 85, 83, 13, 83, 72, 69, 76, 70, 13, 90, 73, 80, 80, 69, 82, 13], "trial": 5, "time_elapsed": 937998, "type": "FREE_RECALL", "trial_index": 211}, "uniqueid": "MTK3657:3TMSXRD2X77XVJ7FYOWPHVCJG7ZW1P", "dateTime": 1520885565682}, {"current_trial": 212, "trialdata": {"rt": 940, "trial_type": "text", "internal_node_id": "0.0-158.0", "time_elapsed": 940941, "key_press": 32, "type": "INSTRUCTIONS", "trial_index": 212}, "uniqueid": "MTK3657:3TMSXRD2X77XVJ7FYOWPHVCJG7ZW1P", "dateTime": 1520885568623}, {"current_trial": 213, "trialdata": {"rt": [2593, 7744, 10083, 12667, 15542, 18471, 20605, 22601], "trial_type": "math-distractor", "key_times": [2192, 2381, 2593, 5676, 5695, 6546, 7329, 7744, 9722, 9845, 10083, 12266, 12413, 12667, 14306, 14437, 15542, 17419, 17608, 18471, 20371, 20605, 22272, 22387, 22601], "responses": ["24", "16", "12", "19", "16", "10", "4", "11"], "num2": [8, 9, 8, 8, 4, 2, 1, 6, 9], "num3": [8, 5, 3, 2, 6, 4, 1, 4, 6], "conditions": [24, 800, "a", 24000], "internal_node_id": "0.0-159.0", "key_presses": [98, 100, 13, 97, 98, 8, 102, 13, 97, 98, 13, 97, 105, 13, 97, 102, 13, 97, 96, 13, 100, 13, 97, 97, 13], "trial": 6, "time_elapsed": 966944, "type": "DISTRACTOR", "trial_index": 213, "num1": [8, 2, 1, 9, 6, 4, 2, 1, 5]}, "uniqueid": "MTK3657:3TMSXRD2X77XVJ7FYOWPHVCJG7ZW1P", "dateTime": 1520885594626}, {"current_trial": 214, "trialdata": {"rt": -1, "trial_type": "single-stim", "stimulus": "<p id=\"stim\">10</p>", "internal_node_id": "0.0-160.0-0.0", "time_elapsed": 969945, "key_press": -1, "trial_index": 214}, "uniqueid": "MTK3657:3TMSXRD2X77XVJ7FYOWPHVCJG7ZW1P", "dateTime": 1520885597627}, {"current_trial": 215, "trialdata": {"rt": -1, "trial_type": "single-stim", "stimulus": "<p id=\"stim\">9</p>", "internal_node_id": "0.0-160.0-1.0", "time_elapsed": 970946, "key_press": -1, "trial_index": 215}, "uniqueid": "MTK3657:3TMSXRD2X77XVJ7FYOWPHVCJG7ZW1P", "dateTime": 1520885598628}, {"current_trial": 216, "trialdata": {"rt": -1, "trial_type": "single-stim", "stimulus": "<p id=\"stim\">8</p>", "internal_node_id": "0.0-160.0-2.0", "time_elapsed": 971947, "key_press": -1, "trial_index": 216}, "uniqueid": "MTK3657:3TMSXRD2X77XVJ7FYOWPHVCJG7ZW1P", "dateTime": 1520885599630}, {"current_trial": 217, "trialdata": {"rt": -1, "trial_type": "single-stim", "stimulus": "<p id=\"stim\">7</p>", "internal_node_id": "0.0-160.0-3.0", "time_elapsed": 972948, "key_press": -1, "trial_index": 217}, "uniqueid": "MTK3657:3TMSXRD2X77XVJ7FYOWPHVCJG7ZW1P", "dateTime": 1520885600630}, {"current_trial": 218, "trialdata": {"rt": -1, "trial_type": "single-stim", "stimulus": "<p id=\"stim\">6</p>", "internal_node_id": "0.0-160.0-4.0", "time_elapsed": 973949, "key_press": -1, "trial_index": 218}, "uniqueid": "MTK3657:3TMSXRD2X77XVJ7FYOWPHVCJG7ZW1P", "dateTime": 1520885601631}, {"current_trial": 219, "trialdata": {"rt": -1, "trial_type": "single-stim", "stimulus": "<p id=\"stim\">5</p>", "internal_node_id": "0.0-160.0-5.0", "time_elapsed": 974950, "key_press": -1, "trial_index": 219}, "uniqueid": "MTK3657:3TMSXRD2X77XVJ7FYOWPHVCJG7ZW1P", "dateTime": 1520885602632}, {"current_trial": 220, "trialdata": {"rt": -1, "trial_type": "single-stim", "stimulus": "<p id=\"stim\">4</p>", "internal_node_id": "0.0-160.0-6.0", "time_elapsed": 975952, "key_press": -1, "trial_index": 220}, "uniqueid": "MTK3657:3TMSXRD2X77XVJ7FYOWPHVCJG7ZW1P", "dateTime": 1520885603635}, {"current_trial": 221, "trialdata": {"rt": -1, "trial_type": "single-stim", "stimulus": "<p id=\"stim\">3</p>", "internal_node_id": "0.0-160.0-7.0", "time_elapsed": 976954, "key_press": -1, "trial_index": 221}, "uniqueid": "MTK3657:3TMSXRD2X77XVJ7FYOWPHVCJG7ZW1P", "dateTime": 1520885604636}, {"current_trial": 222, "trialdata": {"rt": -1, "trial_type": "single-stim", "stimulus": "<p id=\"stim\">2</p>", "internal_node_id": "0.0-160.0-8.0", "time_elapsed": 977956, "key_press": -1, "trial_index": 222}, "uniqueid": "MTK3657:3TMSXRD2X77XVJ7FYOWPHVCJG7ZW1P", "dateTime": 1520885605638}, {"current_trial": 223, "trialdata": {"rt": -1, "trial_type": "single-stim", "stimulus": "<p id=\"stim\">1</p>", "internal_node_id": "0.0-160.0-9.0", "time_elapsed": 978958, "key_press": -1, "trial_index": 223}, "uniqueid": "MTK3657:3TMSXRD2X77XVJ7FYOWPHVCJG7ZW1P", "dateTime": 1520885606640}, {"current_trial": 224, "trialdata": {"rt": -1, "trial_type": "single-stim", "stimulus": "<p id=\"stim\">+</p>", "internal_node_id": "0.0-161.0-0.0", "time_elapsed": 980460, "key_press": -1, "type": "FIXATION", "trial_index": 224}, "uniqueid": "MTK3657:3TMSXRD2X77XVJ7FYOWPHVCJG7ZW1P", "dateTime": 1520885608142}, {"current_trial": 225, "trialdata": {"rt": -1000, "trial_type": "single-audio", "word": "motel", "stimulus": "/static/audio/wordpool/MOTEL.wav", "conditions": [24, 800, "a", 24000], "internal_node_id": "0.0-162.0", "trial": 6, "time_elapsed": 982103, "serialpos": 0, "key_press": -1, "wordID": 918, "type": "PRES_AUD", "trial_index": 225}, "uniqueid": "MTK3657:3TMSXRD2X77XVJ7FYOWPHVCJG7ZW1P", "dateTime": 1520885609785}, {"current_trial": 226, "trialdata": {"rt": -1000, "trial_type": "single-audio", "word": "temple", "stimulus": "/static/audio/wordpool/TEMPLE.wav", "conditions": [24, 800, "a", 24000], "internal_node_id": "0.0-163.0", "trial": 6, "time_elapsed": 984076, "serialpos": 1, "key_press": -1, "wordID": 1447, "type": "PRES_AUD", "trial_index": 226}, "uniqueid": "MTK3657:3TMSXRD2X77XVJ7FYOWPHVCJG7ZW1P", "dateTime": 1520885611758}, {"current_trial": 227, "trialdata": {"rt": -1000, "trial_type": "single-audio", "word": "poison", "stimulus": "/static/audio/wordpool/POISON.wav", "conditions": [24, 800, "a", 24000], "internal_node_id": "0.0-164.0", "trial": 6, "time_elapsed": 985902, "serialpos": 2, "key_press": -1, "wordID": 1095, "type": "PRES_AUD", "trial_index": 227}, "uniqueid": "MTK3657:3TMSXRD2X77XVJ7FYOWPHVCJG7ZW1P", "dateTime": 1520885613584}, {"current_trial": 228, "trialdata": {"rt": -1000, "trial_type": "single-audio", "word": "bison", "stimulus": "/static/audio/wordpool/BISON.wav", "conditions": [24, 800, "a", 24000], "internal_node_id": "0.0-165.0", "trial": 6, "time_elapsed": 987618, "serialpos": 3, "key_press": -1, "wordID": 130, "type": "PRES_AUD", "trial_index": 228}, "uniqueid": "MTK3657:3TMSXRD2X77XVJ7FYOWPHVCJG7ZW1P", "dateTime": 1520885615300}, {"current_trial": 229, "trialdata": {"rt": -1000, "trial_type": "single-audio", "word": "liver", "stimulus": "/static/audio/wordpool/LIVER.wav", "conditions": [24, 800, "a", 24000], "internal_node_id": "0.0-166.0", "trial": 6, "time_elapsed": 989352, "serialpos": 4, "key_press": -1, "wordID": 832, "type": "PRES_AUD", "trial_index": 229}, "uniqueid": "MTK3657:3TMSXRD2X77XVJ7FYOWPHVCJG7ZW1P", "dateTime": 1520885617034}, {"current_trial": 230, "trialdata": {"rt": -1000, "trial_type": "single-audio", "word": "kidney", "stimulus": "/static/audio/wordpool/KIDNEY.wav", "conditions": [24, 800, "a", 24000], "internal_node_id": "0.0-167.0", "trial": 6, "time_elapsed": 991306, "serialpos": 5, "key_press": -1, "wordID": 775, "type": "PRES_AUD", "trial_index": 230}, "uniqueid": "MTK3657:3TMSXRD2X77XVJ7FYOWPHVCJG7ZW1P", "dateTime": 1520885618988}, {"current_trial": 231, "trialdata": {"rt": -1000, "trial_type": "single-audio", "word": "tribe", "stimulus": "/static/audio/wordpool/TRIBE.wav", "conditions": [24, 800, "a", 24000], "internal_node_id": "0.0-168.0", "trial": 6, "time_elapsed": 992919, "serialpos": 6, "key_press": -1, "wordID": 1504, "type": "PRES_AUD", "trial_index": 231}, "uniqueid": "MTK3657:3TMSXRD2X77XVJ7FYOWPHVCJG7ZW1P", "dateTime": 1520885620601}, {"current_trial": 232, "trialdata": {"rt": -1000, "trial_type": "single-audio", "word": "basement", "stimulus": "/static/audio/wordpool/BASEMENT.wav", "conditions": [24, 800, "a", 24000], "internal_node_id": "0.0-169.0", "trial": 6, "time_elapsed": 994682, "serialpos": 7, "key_press": -1, "wordID": 93, "type": "PRES_AUD", "trial_index": 232}, "uniqueid": "MTK3657:3TMSXRD2X77XVJ7FYOWPHVCJG7ZW1P", "dateTime": 1520885622364}, {"current_trial": 233, "trialdata": {"rt": -1000, "trial_type": "single-audio", "word": "film", "stimulus": "/static/audio/wordpool/FILM.wav", "conditions": [24, 800, "a", 24000], "internal_node_id": "0.0-170.0", "trial": 6, "time_elapsed": 996477, "serialpos": 8, "key_press": -1, "wordID": 564, "type": "PRES_AUD", "trial_index": 233}, "uniqueid": "MTK3657:3TMSXRD2X77XVJ7FYOWPHVCJG7ZW1P", "dateTime": 1520885624160}, {"current_trial": 234, "trialdata": {"rt": -1000, "trial_type": "single-audio", "word": "orchid", "stimulus": "/static/audio/wordpool/ORCHID.wav", "conditions": [24, 800, "a", 24000], "internal_node_id": "0.0-171.0", "trial": 6, "time_elapsed": 998114, "serialpos": 9, "key_press": -1, "wordID": 981, "type": "PRES_AUD", "trial_index": 234}, "uniqueid": "MTK3657:3TMSXRD2X77XVJ7FYOWPHVCJG7ZW1P", "dateTime": 1520885625796}, {"current_trial": 235, "trialdata": {"rt": -1000, "trial_type": "single-audio", "word": "agent", "stimulus": "/static/audio/wordpool/AGENT.wav", "conditions": [24, 800, "a", 24000], "internal_node_id": "0.0-172.0", "trial": 6, "time_elapsed": 999993, "serialpos": 10, "key_press": -1, "wordID": 9, "type": "PRES_AUD", "trial_index": 235}, "uniqueid": "MTK3657:3TMSXRD2X77XVJ7FYOWPHVCJG7ZW1P", "dateTime": 1520885627675}, {"current_trial": 236, "trialdata": {"rt": -1000, "trial_type": "single-audio", "word": "cellar", "stimulus": "/static/audio/wordpool/CELLAR.wav", "conditions": [24, 800, "a", 24000], "internal_node_id": "0.0-173.0", "trial": 6, "time_elapsed": 1001774, "serialpos": 11, "key_press": -1, "wordID": 266, "type": "PRES_AUD", "trial_index": 236}, "uniqueid": "MTK3657:3TMSXRD2X77XVJ7FYOWPHVCJG7ZW1P", "dateTime": 1520885629456}, {"current_trial": 237, "trialdata": {"rt": -1000, "trial_type": "single-audio", "word": "widow", "stimulus": "/static/audio/wordpool/WIDOW.wav", "conditions": [24, 800, "a", 24000], "internal_node_id": "0.0-174.0", "trial": 6, "time_elapsed": 1003477, "serialpos": 12, "key_press": -1, "wordID": 1607, "type": "PRES_AUD", "trial_index": 237}, "uniqueid": "MTK3657:3TMSXRD2X77XVJ7FYOWPHVCJG7ZW1P", "dateTime": 1520885631159}, {"current_trial": 238, "trialdata": {"rt": -1000, "trial_type": "single-audio", "word": "shortcake", "stimulus": "/static/audio/wordpool/SHORTCAKE.wav", "conditions": [24, 800, "a", 24000], "internal_node_id": "0.0-175.0", "trial": 6, "time_elapsed": 1005234, "serialpos": 13, "key_press": -1, "wordID": 1291, "type": "PRES_AUD", "trial_index": 238}, "uniqueid": "MTK3657:3TMSXRD2X77XVJ7FYOWPHVCJG7ZW1P", "dateTime": 1520885632916}, {"current_trial": 239, "trialdata": {"rt": -1000, "trial_type": "single-audio", "word": "garlic", "stimulus": "/static/audio/wordpool/GARLIC.wav", "conditions": [24, 800, "a", 24000], "internal_node_id": "0.0-176.0", "trial": 6, "time_elapsed": 1007223, "serialpos": 14, "key_press": -1, "wordID": 623, "type": "PRES_AUD", "trial_index": 239}, "uniqueid": "MTK3657:3TMSXRD2X77XVJ7FYOWPHVCJG7ZW1P", "dateTime": 1520885634905}, {"current_trial": 240, "trialdata": {"rt": -1000, "trial_type": "single-audio", "word": "preacher", "stimulus": "/static/audio/wordpool/PREACHER.wav", "conditions": [24, 800, "a", 24000], "internal_node_id": "0.0-177.0", "trial": 6, "time_elapsed": 1008897, "serialpos": 15, "key_press": -1, "wordID": 1118, "type": "PRES_AUD", "trial_index": 240}, "uniqueid": "MTK3657:3TMSXRD2X77XVJ7FYOWPHVCJG7ZW1P", "dateTime": 1520885636579}, {"current_trial": 241, "trialdata": {"rt": -1000, "trial_type": "single-audio", "word": "brother", "stimulus": "/static/audio/wordpool/BROTHER.wav", "conditions": [24, 800, "a", 24000], "internal_node_id": "0.0-178.0", "trial": 6, "time_elapsed": 1010615, "serialpos": 16, "key