{"assignmentId": "3DIP6YHAPDZLPJ59C9BYAZSRNDW8E9", "workerId": "MTK3737", "questiondata": {"origin": "United States", "strat-rehearsal": "90", "marital": "Married/Domestic Partnership", "education": "Bachelor's degree", "ethnicity": "Not Hispanic", "color_depth": 24, "distracted": "No", "wrote-notes": "No", "strat-other": "I tried to associate related word with each other. Like perfume and fragrance. Some were easy like, sunrise and sunset.", "screen_width": 1366, "avail_screen_width": 1366, "avail_screen_height": 728, "strat-image": "79", "language": "English", "gender": "Male", "age": "33", "gender_other": "", "race": ["White"], "strat-categorize": "96", "pixel_depth": 24, "strat-spatial": "90", "strat-story": "1", "race_other": "", "screen_height": 768}, "bonus": 0, "hitId": "35NNO802AV3GLBW5OSL6ORKUJJTINB", "counterbalance": 521, "useragent": "Mozilla/5.0 (Windows NT 10.0; Win64; x64) AppleWebKit/537.36 (KHTML, like Gecko) Chrome/64.0.3282.186 Safari/537.36", "eventdata": [{"eventtype": "initialized", "interval": 0, "value": null, "timestamp": 1520984476866}, {"eventtype": "window_resize", "interval": 0, "value": [1366, 677], "timestamp": 1520984476866}, {"eventtype": "window_resize", "interval": 10162, "value": [1366, 721], "timestamp": 1520984487028}, {"eventtype": "focus", "interval": 1106, "value": "off", "timestamp": 1520984488134}, {"eventtype": "focus", "interval": 2715, "value": "on", "timestamp": 1520984490849}, {"eventtype": "window_resize", "interval": 4680, "value": [1366, 677], "timestamp": 1520984495529}, {"eventtype": "focus", "interval": 1078089, "value": "off", "timestamp": 1520985573618}, {"eventtype": "focus", "interval": 3184, "value": "on", "timestamp": 1520985576802}, {"eventtype": "window_resize", "interval": 552478, "value": [1366, 721], "timestamp": 1520986129280}, {"eventtype": "focus", "interval": 736342, "value": "off", "timestamp": 1520986865622}, {"eventtype": "focus", "interval": 8036, "value": "on", "timestamp": 1520986873658}, {"eventtype": "window_resize", "interval": 650125, "value": [1366, 677], "timestamp": 1520987523783}, {"eventtype": "window_resize", "interval": 1024, "value": [1366, 721], "timestamp": 1520987524807}], "data": [{"current_trial": 0, "trialdata": {"rt": 8108, "trial_type": "text", "internal_node_id": "0.0-0.0", "time_elapsed": 8118, "key_press": 32, "type": "INSTRUCTIONS", "trial_index": 0}, "uniqueid": "MTK3737:3DIP6YHAPDZLPJ59C9BYAZSRNDW8E9", "dateTime": 1520984497921}, {"current_trial": 1, "trialdata": {"rt": 1790, "trial_type": "text", "internal_node_id": "0.0-1.0", "time_elapsed": 9919, "key_press": 175, "type": "INSTRUCTIONS", "trial_index": 1}, "uniqueid": "MTK3737:3DIP6YHAPDZLPJ59C9BYAZSRNDW8E9", "dateTime": 1520984499720}, {"current_trial": 2, "trialdata": {"rt": [19743], "trial_type": "audio-test", "responses": ["ocean"], "internal_node_id": "0.0-2.0", "time_elapsed": 29761, "type": "AUDIO_TEST", "trial_index": 2}, "uniqueid": "MTK3737:3DIP6YHAPDZLPJ59C9BYAZSRNDW8E9", "dateTime": 1520984519562}, {"current_trial": 3, "trialdata": {"rt": [8354], "trial_type": "audio-test", "responses": ["crystal"], "internal_node_id": "0.0-3.0", "time_elapsed": 38125, "type": "AUDIO_TEST", "trial_index": 3}, "uniqueid": "MTK3737:3DIP6YHAPDZLPJ59C9BYAZSRNDW8E9", "dateTime": 1520984527926}, {"current_trial": 4, "trialdata": {"rt": [11398], "trial_type": "audio-test", "responses": ["spice"], "internal_node_id": "0.0-4.0", "time_elapsed": 49531, "type": "AUDIO_TEST", "trial_index": 4}, "uniqueid": "MTK3737:3DIP6YHAPDZLPJ59C9BYAZSRNDW8E9", "dateTime": 1520984539332}, {"current_trial": 5, "trialdata": {"rt": 28942, "trial_type": "survey-text", "responses": "{\"Q0\":\"1AM\",\"Q1\":\"6:15Am\",\"Q2\":\"3\"}", "internal_node_id": "0.0-5.0", "time_elapsed": 79229, "type": "SLEEP_SURVEY", "trial_index": 5}, "uniqueid": "MTK3737:3DIP6YHAPDZLPJ59C9BYAZSRNDW8E9", "dateTime": 1520984569030}, {"current_trial": 6, "trialdata": {"rt": 56549, "trial_type": "text", "internal_node_id": "0.0-6.0", "time_elapsed": 136781, "key_press": 13, "type": "INSTRUCTIONS", "trial_index": 6}, "uniqueid": "MTK3737:3DIP6YHAPDZLPJ59C9BYAZSRNDW8E9", "dateTime": 1520984626582}, {"current_trial": 7, "trialdata": {"rt": 20618, "trial_type": "text", "internal_node_id": "0.0-7.0", "time_elapsed": 157902, "key_press": 13, "type": "INSTRUCTIONS", "trial_index": 7}, "uniqueid": "MTK3737:3DIP6YHAPDZLPJ59C9BYAZSRNDW8E9", "dateTime": 1520984647703}, {"current_trial": 8, "trialdata": {"rt": 13753, "trial_type": "text", "internal_node_id": "0.0-8.0", "time_elapsed": 172157, "key_press": 13, "type": "INSTRUCTIONS", "trial_index": 8}, "uniqueid": "MTK3737:3DIP6YHAPDZLPJ59C9BYAZSRNDW8E9", "dateTime": 1520984661958}, {"current_trial": 9, "trialdata": {"rt": [4118, 8226, 12945, 14860, 17691], "trial_type": "math-distractor", "key_times": [3609, 3744, 4118, 7693, 7944, 8226, 12416, 12615, 12945, 14430, 14590, 14860, 17005, 17236, 17691], "responses": ["15", "26", "17", "14", "17"], "num2": [6, 9, 7, 4, 5, 9], "num3": [2, 9, 4, 9, 4, 1], "conditions": [18, 1200, "a", 18000], "internal_node_id": "0.0-9.0", "key_presses": [97, 101, 13, 98, 102, 13, 97, 103, 13, 97, 100, 13, 97, 103, 13], "trial": 0, "time_elapsed": 191184, "type": "DISTRACTOR", "trial_index": 9, "num1": [7, 8, 6, 1, 8, 7]}, "uniqueid": "MTK3737:3DIP6YHAPDZLPJ59C9BYAZSRNDW8E9", "dateTime": 1520984680986}, {"current_trial": 10, "trialdata": {"rt": -1, "trial_type": "single-stim", "stimulus": "<p id=\"stim\">10</p>", "internal_node_id": "0.0-10.0-0.0", "time_elapsed": 194193, "key_press": -1, "trial_index": 10}, "uniqueid": "MTK3737:3DIP6YHAPDZLPJ59C9BYAZSRNDW8E9", "dateTime": 1520984683994}, {"current_trial": 11, "trialdata": {"rt": -1, "trial_type": "single-stim", "stimulus": "<p id=\"stim\">9</p>", "internal_node_id": "0.0-10.0-1.0", "time_elapsed": 195198, "key_press": -1, "trial_index": 11}, "uniqueid": "MTK3737:3DIP6YHAPDZLPJ59C9BYAZSRNDW8E9", "dateTime": 1520984684999}, {"current_trial": 12, "trialdata": {"rt": -1, "trial_type": "single-stim", "stimulus": "<p id=\"stim\">8</p>", "internal_node_id": "0.0-10.0-2.0", "time_elapsed": 196204, "key_press": -1, "trial_index": 12}, "uniqueid": "MTK3737:3DIP6YHAPDZLPJ59C9BYAZSRNDW8E9", "dateTime": 1520984686005}, {"current_trial": 13, "trialdata": {"rt": -1, "trial_type": "single-stim", "stimulus": "<p id=\"stim\">7</p>", "internal_node_id": "0.0-10.0-3.0", "time_elapsed": 197213, "key_press": -1, "trial_index": 13}, "uniqueid": "MTK3737:3DIP6YHAPDZLPJ59C9BYAZSRNDW8E9", "dateTime": 1520984687014}, {"current_trial": 14, "trialdata": {"rt": -1, "trial_type": "single-stim", "stimulus": "<p id=\"stim\">6</p>", "internal_node_id": "0.0-10.0-4.0", "time_elapsed": 198217, "key_press": -1, "trial_index": 14}, "uniqueid": "MTK3737:3DIP6YHAPDZLPJ59C9BYAZSRNDW8E9", "dateTime": 1520984688019}, {"current_trial": 15, "trialdata": {"rt": -1, "trial_type": "single-stim", "stimulus": "<p id=\"stim\">5</p>", "internal_node_id": "0.0-10.0-5.0", "time_elapsed": 199221, "key_press": -1, "trial_index": 15}, "uniqueid": "MTK3737:3DIP6YHAPDZLPJ59C9BYAZSRNDW8E9", "dateTime": 1520984689022}, {"current_trial": 16, "trialdata": {"rt": -1, "trial_type": "single-stim", "stimulus": "<p id=\"stim\">4</p>", "internal_node_id": "0.0-10.0-6.0", "time_elapsed": 200224, "key_press": -1, "trial_index": 16}, "uniqueid": "MTK3737:3DIP6YHAPDZLPJ59C9BYAZSRNDW8E9", "dateTime": 1520984690026}, {"current_trial": 17, "trialdata": {"rt": -1, "trial_type": "single-stim", "stimulus": "<p id=\"stim\">3</p>", "internal_node_id": "0.0-10.0-7.0", "time_elapsed": 201232, "key_press": -1, "trial_index": 17}, "uniqueid": "MTK3737:3DIP6YHAPDZLPJ59C9BYAZSRNDW8E9", "dateTime": 1520984691033}, {"current_trial": 18, "trialdata": {"rt": -1, "trial_type": "single-stim", "stimulus": "<p id=\"stim\">2</p>", "internal_node_id": "0.0-10.0-8.0", "time_elapsed": 202236, "key_press": -1, "trial_index": 18}, "uniqueid": "MTK3737:3DIP6YHAPDZLPJ59C9BYAZSRNDW8E9", "dateTime": 1520984692037}, {"current_trial": 19, "trialdata": {"rt": -1, "trial_type": "single-stim", "stimulus": "<p id=\"stim\">1</p>", "internal_node_id": "0.0-10.0-9.0", "time_elapsed": 203239, "key_press": -1, "trial_index": 19}, "uniqueid": "MTK3737:3DIP6YHAPDZLPJ59C9BYAZSRNDW8E9", "dateTime": 1520984693041}, {"current_trial": 20, "trialdata": {"rt": -1, "trial_type": "single-stim", "stimulus": "<p id=\"stim\">+</p>", "internal_node_id": "0.0-11.0-0.0", "time_elapsed": 204744, "key_press": -1, "type": "FIXATION", "trial_index": 20}, "uniqueid": "MTK3737:3DIP6YHAPDZLPJ59C9BYAZSRNDW8E9", "dateTime": 1520984694546}, {"current_trial": 21, "trialdata": {"rt": -1000, "trial_type": "single-audio", "word": "dime", "stimulus": "/static/audio/wordpool/DIME.wav", "conditions": [18, 1200, "a", 18000], "internal_node_id": "0.0-12.0", "trial": 0, "time_elapsed": 207118, "serialpos": 0, "key_press": -1, "wordID": 465, "type": "PRES_AUD", "trial_index": 21}, "uniqueid": "MTK3737:3DIP6YHAPDZLPJ59C9BYAZSRNDW8E9", "dateTime": 1520984696919}, {"current_trial": 22, "trialdata": {"rt": -1000, "trial_type": "single-audio", "word": "label", "stimulus": "/static/audio/wordpool/LABEL.wav", "conditions": [18, 1200, "a", 18000], "internal_node_id": "0.0-13.0", "trial": 0, "time_elapsed": 209276, "serialpos": 1, "key_press": -1, "wordID": 789, "type": "PRES_AUD", "trial_index": 22}, "uniqueid": "MTK3737:3DIP6YHAPDZLPJ59C9BYAZSRNDW8E9", "dateTime": 1520984699077}, {"current_trial": 23, "trialdata": {"rt": -1000, "trial_type": "single-audio", "word": "servant", "stimulus": "/static/audio/wordpool/SERVANT.wav", "conditions": [18, 1200, "a", 18000], "internal_node_id": "0.0-14.0", "trial": 0, "time_elapsed": 211437, "serialpos": 2, "key_press": -1, "wordID": 1270, "type": "PRES_AUD", "trial_index": 23}, "uniqueid": "MTK3737:3DIP6YHAPDZLPJ59C9BYAZSRNDW8E9", "dateTime": 1520984701238}, {"current_trial": 24, "trialdata": {"rt": -1000, "trial_type": "single-audio", "word": "atom", "stimulus": "/static/audio/wordpool/ATOM.wav", "conditions": [18, 1200, "a", 18000], "internal_node_id": "0.0-15.0", "trial": 0, "time_elapsed": 213533, "serialpos": 3, "key_press": -1, "wordID": 54, "type": "PRES_AUD", "trial_index": 24}, "uniqueid": "MTK3737:3DIP6YHAPDZLPJ59C9BYAZSRNDW8E9", "dateTime": 1520984703334}, {"current_trial": 25, "trialdata": {"rt": -1000, "trial_type": "single-audio", "word": "dress", "stimulus": "/static/audio/wordpool/DRESS.wav", "conditions": [18, 1200, "a", 18000], "internal_node_id": "0.0-16.0", "trial": 0, "time_elapsed": 215934, "serialpos": 4, "key_press": -1, "wordID": 494, "type": "PRES_AUD", "trial_index": 25}, "uniqueid": "MTK3737:3DIP6YHAPDZLPJ59C9BYAZSRNDW8E9", "dateTime": 1520984705735}, {"current_trial": 26, "trialdata": {"rt": -1000, "trial_type": "single-audio", "word": "brick", "stimulus": "/static/audio/wordpool/BRICK.wav", "conditions": [18, 1200, "a", 18000], "internal_node_id": "0.0-17.0", "trial": 0, "time_elapsed": 217995, "serialpos": 5, "key_press": -1, "wordID": 171, "type": "PRES_AUD", "trial_index": 26}, "uniqueid": "MTK3737:3DIP6YHAPDZLPJ59C9BYAZSRNDW8E9", "dateTime": 1520984707797}, {"current_trial": 27, "trialdata": {"rt": -1000, "trial_type": "single-audio", "word": "crib", "stimulus": "/static/audio/wordpool/CRIB.wav", "conditions": [18, 1200, "a", 18000], "internal_node_id": "0.0-18.0", "trial": 0, "time_elapsed": 220381, "serialpos": 6, "key_press": -1, "wordID": 406, "type": "PRES_AUD", "trial_index": 27}, "uniqueid": "MTK3737:3DIP6YHAPDZLPJ59C9BYAZSRNDW8E9", "dateTime": 1520984710182}, {"current_trial": 28, "trialdata": {"rt": -1000, "trial_type": "single-audio", "word": "window", "stimulus": "/static/audio/wordpool/WINDOW.wav", "conditions": [18, 1200, "a", 18000], "internal_node_id": "0.0-19.0", "trial": 0, "time_elapsed": 222516, "serialpos": 7, "key_press": -1, "wordID": 1610, "type": "PRES_AUD", "trial_index": 28}, "uniqueid": "MTK3737:3DIP6YHAPDZLPJ59C9BYAZSRNDW8E9", "dateTime": 1520984712318}, {"current_trial": 29, "trialdata": {"rt": -1000, "trial_type": "single-audio", "word": "citrus", "stimulus": "/static/audio/wordpool/CITRUS.wav", "conditions": [18, 1200, "a", 18000], "internal_node_id": "0.0-20.0", "trial": 0, "time_elapsed": 224793, "serialpos": 8, "key_press": -1, "wordID": 312, "type": "PRES_AUD", "trial_index": 29}, "uniqueid": "MTK3737:3DIP6YHAPDZLPJ59C9BYAZSRNDW8E9", "dateTime": 1520984714594}, {"current_trial": 30, "trialdata": {"rt": -1000, "trial_type": "single-audio", "word": "backbone", "stimulus": "/static/audio/wordpool/BACKBONE.wav", "conditions": [18, 1200, "a", 18000], "internal_node_id": "0.0-21.0", "trial": 0, "time_elapsed": 227080, "serialpos": 9, "key_press": -1, "wordID": 65, "type": "PRES_AUD", "trial_index": 30}, "uniqueid": "MTK3737:3DIP6YHAPDZLPJ59C9BYAZSRNDW8E9", "dateTime": 1520984716881}, {"current_trial": 31, "trialdata": {"rt": -1000, "trial_type": "single-audio", "word": "jungle", "stimulus": "/static/audio/wordpool/JUNGLE.wav", "conditions": [18, 1200, "a", 18000], "internal_node_id": "0.0-22.0", "trial": 0, "time_elapsed": 229339, "serialpos": 10, "key_press": -1, "wordID": 763, "type": "PRES_AUD", "trial_index": 31}, "uniqueid": "MTK3737:3DIP6YHAPDZLPJ59C9BYAZSRNDW8E9", "dateTime": 1520984719140}, {"current_trial": 32, "trialdata": {"rt": -1000, "trial_type": "single-audio", "word": "crater", "stimulus": "/static/audio/wordpool/CRATER.wav", "conditions": [18, 1200, "a", 18000], "internal_node_id": "0.0-23.0", "trial": 0, "time_elapsed": 231445, "serialpos": 11, "key_press": -1, "wordID": 399, "type": "PRES_AUD", "trial_index": 32}, "uniqueid": "MTK3737:3DIP6YHAPDZLPJ59C9BYAZSRNDW8E9", "dateTime": 1520984721246}, {"current_trial": 33, "trialdata": {"rt": -1000, "trial_type": "single-audio", "word": "forehead", "stimulus": "/static/audio/wordpool/FOREHEAD.wav", "conditions": [18, 1200, "a", 18000], "internal_node_id": "0.0-24.0", "trial": 0, "time_elapsed": 233454, "serialpos": 12, "key_press": -1, "wordID": 591, "type": "PRES_AUD", "trial_index": 33}, "uniqueid": "MTK3737:3DIP6YHAPDZLPJ59C9BYAZSRNDW8E9", "dateTime": 1520984723256}, {"current_trial": 34, "trialdata": {"rt": -1000, "trial_type": "single-audio", "word": "canal", "stimulus": "/static/audio/wordpool/CANAL.wav", "conditions": [18, 1200, "a", 18000], "internal_node_id": "0.0-25.0", "trial": 0, "time_elapsed": 235634, "serialpos": 13, "key_press": -1, "wordID": 225, "type": "PRES_AUD", "trial_index": 34}, "uniqueid": "MTK3737:3DIP6YHAPDZLPJ59C9BYAZSRNDW8E9", "dateTime": 1520984725435}, {"current_trial": 35, "trialdata": {"rt": -1000, "trial_type": "single-audio", "word": "tile", "stimulus": "/static/audio/wordpool/TILE.wav", "conditions": [18, 1200, "a", 18000], "internal_node_id": "0.0-26.0", "trial": 0, "time_elapsed": 237826, "serialpos": 14, "key_press": -1, "wordID": 1467, "type": "PRES_AUD", "trial_index": 35}, "uniqueid": "MTK3737:3DIP6YHAPDZLPJ59C9BYAZSRNDW8E9", "dateTime": 1520984727627}, {"current_trial": 36, "trialdata": {"rt": -1000, "trial_type": "single-audio", "word": "boyfriend", "stimulus": "/static/audio/wordpool/BOYFRIEND.wav", "conditions": [18, 1200, "a", 18000], "internal_node_id": "0.0-27.0", "trial": 0, "time_elapsed": 240133, "serialpos": 15, "key_press": -1, "wordID": 161, "type": "PRES_AUD", "trial_index": 36}, "uniqueid": "MTK3737:3DIP6YHAPDZLPJ59C9BYAZSRNDW8E9", "dateTime": 1520984729935}, {"current_trial": 37, "trialdata": {"rt": -1000, "trial_type": "single-audio", "word": "guitar", "stimulus": "/static/audio/wordpool/GUITAR.wav", "conditions": [18, 1200, "a", 18000], "internal_node_id": "0.0-28.0", "trial": 0, "time_elapsed": 242349, "serialpos": 16, "key_press": -1, "wordID": 669, "type": "PRES_AUD", "trial_index": 37}, "uniqueid": "MTK3737:3DIP6YHAPDZLPJ59C9BYAZSRNDW8E9", "dateTime": 1520984732150}, {"current_trial": 38, "trialdata": {"rt": -1000, "trial_type": "single-audio", "word": "highway", "stimulus": "/static/audio/wordpool/HIGHWAY.wav", "conditions": [18, 1200, "a", 18000], "internal_node_id": "0.0-29.0", "trial": 0, "time_elapsed": 244569, "serialpos": 17, "key_press": -1, "wordID": 706, "type": "PRES_AUD", "trial_index": 38}, "uniqueid": "MTK3737:3DIP6YHAPDZLPJ59C9BYAZSRNDW8E9", "dateTime": 1520984734370}, {"current_trial": 39, "trialdata": {"rt": -1, "trial_type": "single-stim", "stimulus": "", "internal_node_id": "0.0-30.0-0.0", "time_elapsed": 245787, "key_press": -1, "type": "PRE_RECALL_DELAY", "trial_index": 39}, "uniqueid": "MTK3737:3DIP6YHAPDZLPJ59C9BYAZSRNDW8E9", "dateTime": 1520984735589}, {"current_trial": 40, "trialdata": {"rt": -1000, "trial_type": "single-audio", "stimulus": "/static/audio/400Hz.wav", "internal_node_id": "0.0-31.0", "time_elapsed": 246296, "key_press": -1, "type": "PRE_RECALL_ALERT", "trial_index": 40}, "uniqueid": "MTK3737:3DIP6YHAPDZLPJ59C9BYAZSRNDW8E9", "dateTime": 1520984736097}, {"current_trial": 41, "trialdata": {"rt": [4546, 6283, 8898, 11148, 12909, 32543, 48599], "recwords": ["apple", "atom", "boyfriend", "guitar", "highway", "label", "canal"], "key_times": [3438, 3455, 3736, 3961, 4147, 4279, 4546, 5137, 5622, 5745, 5962, 6283, 7193, 7362, 7515, 7676, 8039, 8184, 8366, 8570, 8717, 8898, 9562, 9686, 9871, 10167, 10394, 10554, 11148, 11456, 11602, 11763, 11864, 12170, 12347, 12493, 12909, 31636, 31800, 31954, 32125, 32219, 32543, 46483, 46733, 46925, 47311, 47486, 47790, 47945, 48103, 48278, 48599], "trial_type": "free-recall", "conditions": [18, 1200, "a", 18000], "internal_node_id": "0.0-32.0-0.0", "key_presses": [16, 65, 80, 80, 76, 69, 13, 65, 84, 79, 77, 13, 66, 79, 89, 70, 82, 73, 69, 78, 68, 13, 71, 85, 73, 84, 65, 82, 13, 72, 73, 71, 72, 87, 65, 89, 13, 76, 65, 66, 69, 76, 13, 67, 78, 65, 8, 8, 65, 78, 65, 76, 13], "trial": 0, "time_elapsed": 306305, "type": "FREE_RECALL", "trial_index": 41}, "uniqueid": "MTK3737:3DIP6YHAPDZLPJ59C9BYAZSRNDW8E9", "dateTime": 1520984796116}, {"current_trial": 42, "trialdata": {"rt": 1973, "trial_type": "text", "internal_node_id": "0.0-33.0", "time_elapsed": 310289, "key_press": 13, "type": "INSTRUCTIONS", "trial_index": 42}, "uniqueid": "MTK3737:3DIP6YHAPDZLPJ59C9BYAZSRNDW8E9", "dateTime": 1520984800090}, {"current_trial": 43, "trialdata": {"rt": [2828, 6189, 8252, 12953, 15145, 16606], "trial_type": "math-distractor", "key_times": [2334, 2504, 2828, 5485, 5883, 6189, 7606, 7854, 8252, 11053, 11278, 12084, 12356, 12953, 14912, 15145, 16404, 16606], "responses": ["19", "15", "17", "18", "6", "6"], "num2": [7, 4, 8, 3, 2, 2, 9], "num3": [6, 2, 2, 5, 1, 2, 2], "conditions": [18, 1200, "a", 18000], "internal_node_id": "0.0-34.0", "key_presses": [97, 105, 13, 97, 101, 13, 97, 103, 13, 97, 103, 8, 104, 13, 102, 13, 102, 13], "trial": 1, "time_elapsed": 330326, "type": "DISTRACTOR", "trial_index": 43, "num1": [1, 9, 7, 9, 3, 2, 1]}, "uniqueid": "MTK3737:3DIP6YHAPDZLPJ59C9BYAZSRNDW8E9", "dateTime": 1520984820127}, {"current_trial": 44, "trialdata": {"rt": -1, "trial_type": "single-stim", "stimulus": "<p id=\"stim\">10</p>", "internal_node_id": "0.0-35.0-0.0", "time_elapsed": 333331, "key_press": -1, "trial_index": 44}, "uniqueid": "MTK3737:3DIP6YHAPDZLPJ59C9BYAZSRNDW8E9", "dateTime": 1520984823132}, {"current_trial": 45, "trialdata": {"rt": -1, "trial_type": "single-stim", "stimulus": "<p id=\"stim\">9</p>", "internal_node_id": "0.0-35.0-1.0", "time_elapsed": 334335, "key_press": -1, "trial_index": 45}, "uniqueid": "MTK3737:3DIP6YHAPDZLPJ59C9BYAZSRNDW8E9", "dateTime": 1520984824137}, {"current_trial": 46, "trialdata": {"rt": -1, "trial_type": "single-stim", "stimulus": "<p id=\"stim\">8</p>", "internal_node_id": "0.0-35.0-2.0", "time_elapsed": 335338, "key_press": -1, "trial_index": 46}, "uniqueid": "MTK3737:3DIP6YHAPDZLPJ59C9BYAZSRNDW8E9", "dateTime": 1520984825139}, {"current_trial": 47, "trialdata": {"rt": -1, "trial_type": "single-stim", "stimulus": "<p id=\"stim\">7</p>", "internal_node_id": "0.0-35.0-3.0", "time_elapsed": 336342, "key_press": -1, "trial_index": 47}, "uniqueid": "MTK3737:3DIP6YHAPDZLPJ59C9BYAZSRNDW8E9", "dateTime": 1520984826145}, {"current_trial": 48, "trialdata": {"rt": -1, "trial_type": "single-stim", "stimulus": "<p id=\"stim\">6</p>", "internal_node_id": "0.0-35.0-4.0", "time_elapsed": 337346, "key_press": -1, "trial_index": 48}, "uniqueid": "MTK3737:3DIP6YHAPDZLPJ59C9BYAZSRNDW8E9", "dateTime": 1520984827147}, {"current_trial": 49, "trialdata": {"rt": -1, "trial_type": "single-stim", "stimulus": "<p id=\"stim\">5</p>", "internal_node_id": "0.0-35.0-5.0", "time_elapsed": 338348, "key_press": -1, "trial_index": 49}, "uniqueid": "MTK3737:3DIP6YHAPDZLPJ59C9BYAZSRNDW8E9", "dateTime": 1520984828154}, {"current_trial": 50, "trialdata": {"rt": -1, "trial_type": "single-stim", "stimulus": "<p id=\"stim\">4</p>", "internal_node_id": "0.0-35.0-6.0", "time_elapsed": 339355, "key_press": -1, "trial_index": 50}, "uniqueid": "MTK3737:3DIP6YHAPDZLPJ59C9BYAZSRNDW8E9", "dateTime": 1520984829156}, {"current_trial": 51, "trialdata": {"rt": -1, "trial_type": "single-stim", "stimulus": "<p id=\"stim\">3</p>", "internal_node_id": "0.0-35.0-7.0", "time_elapsed": 340358, "key_press": -1, "trial_index": 51}, "uniqueid": "MTK3737:3DIP6YHAPDZLPJ59C9BYAZSRNDW8E9", "dateTime": 1520984830160}, {"current_trial": 52, "trialdata": {"rt": -1, "trial_type": "single-stim", "stimulus": "<p id=\"stim\">2</p>", "internal_node_id": "0.0-35.0-8.0", "time_elapsed": 341361, "key_press": -1, "trial_index": 52}, "uniqueid": "MTK3737:3DIP6YHAPDZLPJ59C9BYAZSRNDW8E9", "dateTime": 1520984831162}, {"current_trial": 53, "trialdata": {"rt": -1, "trial_type": "single-stim", "stimulus": "<p id=\"stim\">1</p>", "internal_node_id": "0.0-35.0-9.0", "time_elapsed": 342364, "key_press": -1, "trial_index": 53}, "uniqueid": "MTK3737:3DIP6YHAPDZLPJ59C9BYAZSRNDW8E9", "dateTime": 1520984832166}, {"current_trial": 54, "trialdata": {"rt": -1, "trial_type": "single-stim", "stimulus": "<p id=\"stim\">+</p>", "internal_node_id": "0.0-36.0-0.0", "time_elapsed": 343868, "key_press": -1, "type": "FIXATION", "trial_index": 54}, "uniqueid": "MTK3737:3DIP6YHAPDZLPJ59C9BYAZSRNDW8E9", "dateTime": 1520984833669}, {"current_trial": 55, "trialdata": {"rt": -1000, "trial_type": "single-audio", "word": "laser", "stimulus": "/static/audio/wordpool/LASER.wav", "conditions": [18, 1200, "a", 18000], "internal_node_id": "0.0-37.0", "trial": 1, "time_elapsed": 346107, "serialpos": 0, "key_press": -1, "wordID": 800, "type": "PRES_AUD", "trial_index": 55}, "uniqueid": "MTK3737:3DIP6YHAPDZLPJ59C9BYAZSRNDW8E9", "dateTime": 1520984835908}, {"current_trial": 56, "trialdata": {"rt": -1000, "trial_type": "single-audio", "word": "france", "stimulus": "/static/audio/wordpool/FRANCE.wav", "conditions": [18, 1200, "a", 18000], "internal_node_id": "0.0-38.0", "trial": 1, "time_elapsed": 348382, "serialpos": 1, "key_press": -1, "wordID": 600, "type": "PRES_AUD", "trial_index": 56}, "uniqueid": "MTK3737:3DIP6YHAPDZLPJ59C9BYAZSRNDW8E9", "dateTime": 1520984838183}, {"current_trial": 57, "trialdata": {"rt": -1000, "trial_type": "single-audio", "word": "cashew", "stimulus": "/static/audio/wordpool/CASHEW.wav", "conditions": [18, 1200, "a", 18000], "internal_node_id": "0.0-39.0", "trial": 1, "time_elapsed": 350722, "serialpos": 2, "key_press": -1, "wordID": 252, "type": "PRES_AUD", "trial_index": 57}, "uniqueid": "MTK3737:3DIP6YHAPDZLPJ59C9BYAZSRNDW8E9", "dateTime": 1520984840523}, {"current_trial": 58, "trialdata": {"rt": -1000, "trial_type": "single-audio", "word": "girl", "stimulus": "/static/audio/wordpool/GIRL.wav", "conditions": [18, 1200, "a", 18000], "internal_node_id": "0.0-40.0", "trial": 1, "time_elapsed": 352851, "serialpos": 3, "key_press": -1, "wordID": 636, "type": "PRES_AUD", "trial_index": 58}, "uniqueid": "MTK3737:3DIP6YHAPDZLPJ59C9BYAZSRNDW8E9", "dateTime": 1520984842653}, {"current_trial": 59, "trialdata": {"rt": -1000, "trial_type": "single-audio", "word": "expert", "stimulus": "/static/audio/wordpool/EXPERT.wav", "conditions": [18, 1200, "a", 18000], "internal_node_id": "0.0-41.0", "trial": 1, "time_elapsed": 355188, "serialpos": 4, "key_press": -1, "wordID": 542, "type": "PRES_AUD", "trial_index": 59}, "uniqueid": "MTK3737:3DIP6YHAPDZLPJ59C9BYAZSRNDW8E9", "dateTime": 1520984844989}, {"current_trial": 60, "trialdata": {"rt": -1000, "trial_type": "single-audio", "word": "star", "stimulus": "/static/audio/wordpool/STAR.wav", "conditions": [18, 1200, "a", 18000], "internal_node_id": "0.0-42.0", "trial": 1, "time_elapsed": 357536, "serialpos": 5, "key_press": -1, "wordID": 1372, "type": "PRES_AUD", "trial_index": 60}, "uniqueid": "MTK3737:3DIP6YHAPDZLPJ59C9BYAZSRNDW8E9", "dateTime": 1520984847337}, {"current_trial": 61, "trialdata": {"rt": -1000, "trial_type": "single-audio", "word": "victim", "stimulus": "/static/audio/wordpool/VICTIM.wav", "conditions": [18, 1200, "a", 18000], "internal_node_id": "0.0-43.0", "trial": 1, "time_elapsed": 359815, "serialpos": 6, "key_press": -1, "wordID": 1561, "type": "PRES_AUD", "trial_index": 61}, "uniqueid": "MTK3737:3DIP6YHAPDZLPJ59C9BYAZSRNDW8E9", "dateTime": 1520984849617}, {"current_trial": 62, "trialdata": {"rt": -1000, "trial_type": "single-audio", "word": "lamp", "stimulus": "/static/audio/wordpool/LAMP.wav", "conditions": [18, 1200, "a", 18000], "internal_node_id": "0.0-44.0", "trial": 1, "time_elapsed": 361952, "serialpos": 7, "key_press": -1, "wordID": 797, "type": "PRES_AUD", "trial_index": 62}, "uniqueid": "MTK3737:3DIP6YHAPDZLPJ59C9BYAZSRNDW8E9", "dateTime": 1520984851754}, {"current_trial": 63, "trialdata": {"rt": -1000, "trial_type": "single-audio", "word": "soda", "stimulus": "/static/audio/wordpool/SODA.wav", "conditions": [18, 1200, "a", 18000], "internal_node_id": "0.0-45.0", "trial": 1, "time_elapsed": 364121, "serialpos": 8, "key_press": -1, "wordID": 1340, "type": "PRES_AUD", "trial_index": 63}, "uniqueid": "MTK3737:3DIP6YHAPDZLPJ59C9BYAZSRNDW8E9", "dateTime": 1520984853922}, {"current_trial": 64, "trialdata": {"rt": -1000, "trial_type": "single-audio", "word": "powder", "stimulus": "/static/audio/wordpool/POWDER.wav", "conditions": [18, 1200, "a", 18000], "internal_node_id": "0.0-46.0", "trial": 1, "time_elapsed": 366438, "serialpos": 9, "key_press": -1, "wordID": 1116, "type": "PRES_AUD", "trial_index": 64}, "uniqueid": "MTK3737:3DIP6YHAPDZLPJ59C9BYAZSRNDW8E9", "dateTime": 1520984856239}, {"current_trial": 65, "trialdata": {"rt": -1000, "trial_type": "single-audio", "word": "summit", "stimulus": "/static/audio/wordpool/SUMMIT.wav", "conditions": [18, 1200, "a", 18000], "internal_node_id": "0.0-47.0", "trial": 1, "time_elapsed": 368582, "serialpos": 10, "key_press": -1, "wordID": 1404, "type": "PRES_AUD", "trial_index": 65}, "uniqueid": "MTK3737:3DIP6YHAPDZLPJ59C9BYAZSRNDW8E9", "dateTime": 1520984858383}, {"current_trial": 66, "trialdata": {"rt": -1000, "trial_type": "single-audio", "word": "toaster", "stimulus": "/static/audio/wordpool/TOASTER.wav", "conditions": [18, 1200, "a", 18000], "internal_node_id": "0.0-48.0", "trial": 1, "time_elapsed": 370912, "serialpos": 11, "key_press": -1, "wordID": 1471, "type": "PRES_AUD", "trial_index": 66}, "uniqueid": "MTK3737:3DIP6YHAPDZLPJ59C9BYAZSRNDW8E9", "dateTime": 1520984860714}, {"current_trial": 67, "trialdata": {"rt": -1000, "trial_type": "single-audio", "word": "gymnast", "stimulus": "/static/audio/wordpool/GYMNAST.wav", "conditions": [18, 1200, "a", 18000], "internal_node_id": "0.0-49.0", "trial": 1, "time_elapsed": 373181, "serialpos": 12, "key_press": -1, "wordID": 674, "type": "PRES_AUD", "trial_index": 67}, "uniqueid": "MTK3737:3DIP6YHAPDZLPJ59C9BYAZSRNDW8E9", "dateTime": 1520984862982}, {"current_trial": 68, "trialdata": {"rt": -1000, "trial_type": "single-audio", "word": "dancer", "stimulus": "/static/audio/wordpool/DANCER.wav", "conditions": [18, 1200, "a", 18000], "internal_node_id": "0.0-50.0", "trial": 1, "time_elapsed": 375490, "serialpos": 13, "key_press": -1, "wordID": 436, "type": "PRES_AUD", "trial_index": 68}, "uniqueid": "MTK3737:3DIP6YHAPDZLPJ59C9BYAZSRNDW8E9", "dateTime": 1520984865299}, {"current_trial": 69, "trialdata": {"rt": -1000, "trial_type": "single-audio", "word": "plaza", "stimulus": "/static/audio/wordpool/PLAZA.wav", "conditions": [18, 1200, "a", 18000], "internal_node_id": "0.0-51.0", "trial": 1, "time_elapsed": 377692, "serialpos": 14, "key_press": -1, "wordID": 1087, "type": "PRES_AUD", "trial_index": 69}, "uniqueid": "MTK3737:3DIP6YHAPDZLPJ59C9BYAZSRNDW8E9", "dateTime": 1520984867493}, {"current_trial": 70, "trialdata": {"rt": -1000, "trial_type": "single-audio", "word": "marine", "stimulus": "/static/audio/wordpool/MARINE.wav", "conditions": [18, 1200, "a", 18000], "internal_node_id": "0.0-52.0", "trial": 1, "time_elapsed": 379786, "serialpos": 15, "key_press": -1, "wordID": 868, "type": "PRES_AUD", "trial_index": 70}, "uniqueid": "MTK3737:3DIP6YHAPDZLPJ59C9BYAZSRNDW8E9", "dateTime": 1520984869588}, {"current_trial": 71, "trialdata": {"rt": -1000, "trial_type": "single-audio", "word": "husband", "stimulus": "/static/audio/wordpool/HUSBAND.wav", "conditions": [18, 1200, "a", 18000], "internal_node_id": "0.0-53.0", "trial": 1, "time_elapsed": 381930, "serialpos": 16, "key_press": -1, "wordID": 727, "type": "PRES_AUD", "trial_index": 71}, "uniqueid": "MTK3737:3DIP6YHAPDZLPJ59C9BYAZSRNDW8E9", "dateTime": 1520984871731}, {"current_trial": 72, "trialdata": {"rt": -1000, "trial_type": "single-audio", "word": "finger", "stimulus": "/static/audio/wordpool/FINGER.wav", "conditions": [18, 1200, "a", 18000], "internal_node_id": "0.0-54.0", "trial": 1, "time_elapsed": 384127, "serialpos": 17, "key_press": -1, "wordID": 566, "type": "PRES_AUD", "trial_index": 72}, "uniqueid": "MTK3737:3DIP6YHAPDZLPJ59C9BYAZSRNDW8E9", "dateTime": 1520984873928}, {"current_trial": 73, "trialdata": {"rt": -1, "trial_type": "single-stim", "stimulus": "", "internal_node_id": "0.0-55.0-0.0", "time_elapsed": 385378, "key_press": -1, "type": "PRE_RECALL_DELAY", "trial_index": 73}, "uniqueid": "MTK3737:3DIP6YHAPDZLPJ59C9BYAZSRNDW8E9", "dateTime": 1520984875179}, {"current_trial": 74, "trialdata": {"rt": -1000, "trial_type": "single-audio", "stimulus": "/static/audio/400Hz.wav", "internal_node_id": "0.0-56.0", "time_elapsed": 385879, "key_press": -1, "type": "PRE_RECALL_ALERT", "trial_index": 74}, "uniqueid": "MTK3737:3DIP6YHAPDZLPJ59C9BYAZSRNDW8E9", "dateTime": 1520984875680}, {"current_trial": 75, "trialdata": {"rt": [3293, 4700, 6608, 7700, 9900, 11056, 18601, 28356, 38362], "recwords": ["finger", "marine", "cashew", "laser", "powder", "soda", "husband", "france", "finger"], "key_times": [1385, 1566, 1813, 2480, 2641, 2864, 2982, 3293, 3764, 3880, 4134, 4296, 4430, 4527, 4700, 5278, 5403, 5576, 5762, 6017, 6174, 6608, 6866, 6985, 7114, 7321, 7457, 7700, 8043, 8405, 8631, 9173, 9387, 9520, 9900, 10179, 10294, 10423, 10571, 11056, 17380, 17569, 17789, 18066, 18214, 18311, 18425, 18601, 27319, 27499, 27654, 27796, 27902, 28039, 28356, 37354, 37533, 37829, 37926, 38089, 38186, 38362], "trial_type": "free-recall", "conditions": [18, 1200, "a", 18000], "internal_node_id": "0.0-57.0-0.0", "key_presses": [16, 70, 73, 78, 71, 69, 82, 13, 77, 65, 82, 73, 78, 69, 32, 67, 65, 83, 72, 69, 87, 13, 76, 65, 83, 69, 82, 13, 80, 79, 87, 68, 69, 82, 13, 83, 79, 68, 65, 13, 72, 85, 83, 66, 65, 78, 68, 13, 70, 82, 65, 78, 67, 69, 13, 70, 73, 78, 71, 69, 82, 13], "trial": 1, "time_elapsed": 445885, "type": "FREE_RECALL", "trial_index": 75}, "uniqueid": "MTK3737:3DIP6YHAPDZLPJ59C9BYAZSRNDW8E9", "dateTime": 1520984935694}, {"current_trial": 76, "trialdata": {"rt": 2442, "trial_type": "text", "internal_node_id": "0.0-58.0", "time_elapsed": 450337, "key_press": 13, "type": "INSTRUCTIONS", "trial_index": 76}, "uniqueid": "MTK3737:3DIP6YHAPDZLPJ59C9BYAZSRNDW8E9", "dateTime": 1520984940138}, {"current_trial": 77, "trialdata": {"rt": [3545, 6374, 8793, 10764], "trial_type": "math-distractor", "key_times": [3202, 3339, 3545, 5874, 6026, 6374, 8178, 8519, 8793, 10303, 10465, 10764], "responses": ["16", "18", "19", "17"], "num2": [7, 8, 4, 8, 4], "num3": [5, 7, 8, 4, 2], "conditions": [24, 800, "a", 12000], "internal_node_id": "0.0-59.0", "key_presses": [97, 102, 13, 97, 104, 13, 97, 105, 13, 97, 103, 13], "trial": 2, "time_elapsed": 463340, "type": "DISTRACTOR", "trial_index": 77, "num1": [4, 3, 7, 5, 1]}, "uniqueid": "MTK3737:3DIP6YHAPDZLPJ59C9BYAZSRNDW8E9", "dateTime": 1520984953141}, {"current_trial": 78, "trialdata": {"rt": -1, "trial_type": "single-stim", "stimulus": "<p id=\"stim\">10</p>", "internal_node_id": "0.0-60.0-0.0", "time_elapsed": 466345, "key_press": -1, "trial_index": 78}, "uniqueid": "MTK3737:3DIP6YHAPDZLPJ59C9BYAZSRNDW8E9", "dateTime": 1520984956146}, {"current_trial": 79, "trialdata": {"rt": -1, "trial_type": "single-stim", "stimulus": "<p id=\"stim\">9</p>", "internal_node_id": "0.0-60.0-1.0", "time_elapsed": 467347, "key_press": -1, "trial_index": 79}, "uniqueid": "MTK3737:3DIP6YHAPDZLPJ59C9BYAZSRNDW8E9", "dateTime": 1520984957149}, {"current_trial": 80, "trialdata": {"rt": -1, "trial_type": "single-stim", "stimulus": "<p id=\"stim\">8</p>", "internal_node_id": "0.0-60.0-2.0", "time_elapsed": 468349, "key_press": -1, "trial_index": 80}, "uniqueid": "MTK3737:3DIP6YHAPDZLPJ59C9BYAZSRNDW8E9", "dateTime": 1520984958150}, {"current_trial": 81, "trialdata": {"rt": -1, "trial_type": "single-stim", "stimulus": "<p id=\"stim\">7</p>", "internal_node_id": "0.0-60.0-3.0", "time_elapsed": 469350, "key_press": -1, "trial_index": 81}, "uniqueid": "MTK3737:3DIP6YHAPDZLPJ59C9BYAZSRNDW8E9", "dateTime": 1520984959152}, {"current_trial": 82, "trialdata": {"rt": -1, "trial_type": "single-stim", "stimulus": "<p id=\"stim\">6</p>", "internal_node_id": "0.0-60.0-4.0", "time_elapsed": 470353, "key_press": -1, "trial_index": 82}, "uniqueid": "MTK3737:3DIP6YHAPDZLPJ59C9BYAZSRNDW8E9", "dateTime": 1520984960154}, {"current_trial": 83, "trialdata": {"rt": -1, "trial_type": "single-stim", "stimulus": "<p id=\"stim\">5</p>", "internal_node_id": "0.0-60.0-5.0", "time_elapsed": 471354, "key_press": -1, "trial_index": 83}, "uniqueid": "MTK3737:3DIP6YHAPDZLPJ59C9BYAZSRNDW8E9", "dateTime": 1520984961156}, {"current_trial": 84, "trialdata": {"rt": -1, "trial_type": "single-stim", "stimulus": "<p id=\"stim\">4</p>", "internal_node_id": "0.0-60.0-6.0", "time_elapsed": 472359, "key_press": -1, "trial_index": 84}, "uniqueid": "MTK3737:3DIP6YHAPDZLPJ59C9BYAZSRNDW8E9", "dateTime": 1520984962160}, {"current_trial": 85, "trialdata": {"rt": -1, "trial_type": "single-stim", "stimulus": "<p id=\"stim\">3</p>", "internal_node_id": "0.0-60.0-7.0", "time_elapsed": 473361, "key_press": -1, "trial_index": 85}, "uniqueid": "MTK3737:3DIP6YHAPDZLPJ59C9BYAZSRNDW8E9", "dateTime": 1520984963163}, {"current_trial": 86, "trialdata": {"rt": -1, "trial_type": "single-stim", "stimulus": "<p id=\"stim\">2</p>", "internal_node_id": "0.0-60.0-8.0", "time_elapsed": 474365, "key_press": -1, "trial_index": 86}, "uniqueid": "MTK3737:3DIP6YHAPDZLPJ59C9BYAZSRNDW8E9", "dateTime": 1520984964166}, {"current_trial": 87, "trialdata": {"rt": -1, "trial_type": "single-stim", "stimulus": "<p id=\"stim\">1</p>", "internal_node_id": "0.0-60.0-9.0", "time_elapsed": 475366, "key_press": -1, "trial_index": 87}, "uniqueid": "MTK3737:3DIP6YHAPDZLPJ59C9BYAZSRNDW8E9", "dateTime": 1520984965168}, {"current_trial": 88, "trialdata": {"rt": -1, "trial_type": "single-stim", "stimulus": "<p id=\"stim\">+</p>", "internal_node_id": "0.0-61.0-0.0", "time_elapsed": 476869, "key_press": -1, "type": "FIXATION", "trial_index": 88}, "uniqueid": "MTK3737:3DIP6YHAPDZLPJ59C9BYAZSRNDW8E9", "dateTime": 1520984966670}, {"current_trial": 89, "trialdata": {"rt": -1000, "trial_type": "single-audio", "word": "supper", "stimulus": "/static/audio/wordpool/SUPPER.wav", "conditions": [24, 800, "a", 12000], "internal_node_id": "0.0-62.0", "trial": 2, "time_elapsed": 478797, "serialpos": 0, "key_press": -1, "wordID": 1410, "type": "PRES_AUD", "trial_index": 89}, "uniqueid": "MTK3737:3DIP6YHAPDZLPJ59C9BYAZSRNDW8E9", "dateTime": 1520984968598}, {"current_trial": 90, "trialdata": {"rt": -1000, "trial_type": "single-audio", "word": "couch", "stimulus": "/static/audio/wordpool/COUCH.wav", "conditions": [24, 800, "a", 12000], "internal_node_id": "0.0-63.0", "trial": 2, "time_elapsed": 480783, "serialpos": 1, "key_press": -1, "wordID": 385, "type": "PRES_AUD", "trial_index": 90}, "uniqueid": "MTK3737:3DIP6YHAPDZLPJ59C9BYAZSRNDW8E9", "dateTime": 1520984970584}, {"current_trial": 91, "trialdata": {"rt": -1000, "trial_type": "single-audio", "word": "mattress", "stimulus": "/static/audio/wordpool/MATTRESS.wav", "conditions": [24, 800, "a", 12000], "internal_node_id": "0.0-64.0", "trial": 2, "time_elapsed": 482465, "serialpos": 2, "key_press": -1, "wordID": 878, "type": "PRES_AUD", "trial_index": 91}, "uniqueid": "MTK3737:3DIP6YHAPDZLPJ59C9BYAZSRNDW8E9", "dateTime": 1520984972266}, {"current_trial": 92, "trialdata": {"rt": -1000, "trial_type": "single-audio", "word": "ketchup", "stimulus": "/static/audio/wordpool/KETCHUP.wav", "conditions": [24, 800, "a", 12000], "internal_node_id": "0.0-65.0", "trial": 2, "time_elapsed": 484319, "serialpos": 3, "key_press": -1, "wordID": 770, "type": "PRES_AUD", "trial_index": 92}, "uniqueid": "MTK3737:3DIP6YHAPDZLPJ59C9BYAZSRNDW8E9", "dateTime": 1520984974120}, {"current_trial": 93, "trialdata": {"rt": -1000, "trial_type": "single-audio", "word": "mister", "stimulus": "/static/audio/wordpool/MISTER.wav", "conditions": [24, 800, "a", 12000], "internal_node_id": "0.0-66.0", "trial": 2, "time_elapsed": 486275, "serialpos": 4, "key_press": -1, "wordID": 900, "type": "PRES_AUD", "trial_index": 93}, "uniqueid": "MTK3737:3DIP6YHAPDZLPJ59C9BYAZSRNDW8E9", "dateTime": 1520984976076}, {"current_trial": 94, "trialdata": {"rt": -1000, "trial_type": "single-audio", "word": "ox", "stimulus": "/static/audio/wordpool/OX.wav", "conditions": [24, 800, "a", 12000], "internal_node_id": "0.0-67.0", "trial": 2, "time_elapsed": 488164, "serialpos": 5, "key_press": -1, "wordID": 993, "type": "PRES_AUD", "trial_index": 94}, "uniqueid": "MTK3737:3DIP6YHAPDZLPJ59C9BYAZSRNDW8E9", "dateTime": 1520984977965}, {"current_trial": 95, "trialdata": {"rt": -1000, "trial_type": "single-audio", "word": "scalpel", "stimulus": "/static/audio/wordpool/SCALPEL.wav", "conditions": [24, 800, "a", 12000], "internal_node_id": "0.0-68.0", "trial": 2, "time_elapsed": 490105, "serialpos": 6, "key_press": -1, "wordID": 1242, "type": "PRES_AUD", "trial_index": 95}, "uniqueid": "MTK3737:3DIP6YHAPDZLPJ59C9BYAZSRNDW8E9", "dateTime": 1520984979906}, {"current_trial": 96, "trialdata": {"rt": -1000, "trial_type": "single-audio", "word": "picnic", "stimulus": "/static/audio/wordpool/PICNIC.wav", "conditions": [24, 800, "a", 12000], "internal_node_id": "0.0-69.0", "trial": 2, "time_elapsed": 492096, "serialpos": 7, "key_press": -1, "wordID": 1059, "type": "PRES_AUD", "trial_index": 96}, "uniqueid": "MTK3737:3DIP6YHAPDZLPJ59C9BYAZSRNDW8E9", "dateTime": 1520984981898}, {"current_trial": 97, "trialdata": {"rt": -1000, "trial_type": "single-audio", "word": "baby", "stimulus": "/static/audio/wordpool/BABY.wav", "conditions": [24, 800, "a", 12000], "internal_node_id": "0.0-70.0", "trial": 2, "time_elapsed": 493967, "serialpos": 8, "key_press": -1, "wordID": 63, "type": "PRES_AUD", "trial_index": 97}, "uniqueid": "MTK3737:3DIP6YHAPDZLPJ59C9BYAZSRNDW8E9", "dateTime": 1520984983769}, {"current_trial": 98, "trialdata": {"rt": -1000, "trial_type": "single-audio", "word": "headband", "stimulus": "/static/audio/wordpool/HEADBAND.wav", "conditions": [24, 800, "a", 12000], "internal_node_id": "0.0-71.0", "trial": 2, "time_elapsed": 495972, "serialpos": 9, "key_press": -1, "wordID": 695, "type": "PRES_AUD", "trial_index": 98}, "uniqueid": "MTK3737:3DIP6YHAPDZLPJ59C9BYAZSRNDW8E9", "dateTime": 1520984985773}, {"current_trial": 99, "trialdata": {"rt": -1000, "trial_type": "single-audio", "word": "spider", "stimulus": "/static/audio/wordpool/SPIDER.wav", "conditions": [24, 800, "a", 12000], "internal_node_id": "0.0-72.0", "trial": 2, "time_elapsed": 497874, "serialpos": 10, "key_press": -1, "wordID": 1350, "type": "PRES_AUD", "trial_index": 99}, "uniqueid": "MTK3737:3DIP6YHAPDZLPJ59C9BYAZSRNDW8E9", "dateTime": 1520984987676}, {"current_trial": 100, "trialdata": {"rt": -1000, "trial_type": "single-audio", "word": "bacon", "stimulus": "/static/audio/wordpool/BACON.wav", "conditions": [24, 800, "a", 12000], "internal_node_id": "0.0-73.0", "trial": 2, "time_elapsed": 499766, "serialpos": 11, "key_press": -1, "wordID": 66, "type": "PRES_AUD", "trial_index": 100}, "uniqueid": "MTK3737:3DIP6YHAPDZLPJ59C9BYAZSRNDW8E9", "dateTime": 1520984989568}, {"current_trial": 101, "trialdata": {"rt": -1000, "trial_type": "single-audio", "word": "sponge", "stimulus": "/static/audio/wordpool/SPONGE.wav", "conditions": [24, 800, "a", 12000], "internal_node_id": "0.0-74.0", "trial": 2, "time_elapsed": 501696, "serialpos": 12, "key_press": -1, "wordID": 1354, "type": "PRES_AUD", "trial_index": 101}, "uniqueid": "MTK3737:3DIP6YHAPDZLPJ59C9BYAZSRNDW8E9", "dateTime": 1520984991497}, {"current_trial": 102, "trialdata": {"rt": -1000, "trial_type": "single-audio", "word": "europe", "stimulus": "/static/audio/wordpool/EUROPE.wav", "conditions": [24, 800, "a", 12000], "internal_node_id": "0.0-75.0", "trial": 2, "time_elapsed": 503503, "serialpos": 13, "key_press": -1, "wordID": 540, "type": "PRES_AUD", "trial_index": 102}, "uniqueid": "MTK3737:3DIP6YHAPDZLPJ59C9BYAZSRNDW8E9", "dateTime": 1520984993305}, {"current_trial": 103, "trialdata": {"rt": -1000, "trial_type": "single-audio", "word": "london", "stimulus": "/static/audio/wordpool/LONDON.wav", "conditions": [24, 800, "a", 12000], "internal_node_id": "0.0-76.0", "trial": 2, "time_elapsed": 505130, "serialpos": 14, "key_press": -1, "wordID": 842, "type": "PRES_AUD", "trial_index": 103}, "uniqueid": "MTK3737:3DIP6YHAPDZLPJ59C9BYAZSRNDW8E9", "dateTime": 1520984994931}, {"current_trial": 104, "trialdata": {"rt": -1000, "trial_type": "single-audio", "word": "chauffeur", "stimulus": "/static/audio/wordpool/CHAUFFEUR.wav", "conditions": [24, 800, "a", 12000], "internal_node_id": "0.0-77.0", "trial": 2, "time_elapsed": 506828, "serialpos": 15, "key_press": -1, "wordID": 282, "type": "PRES_AUD", "trial_index": 104}, "uniqueid": "MTK3737:3DIP6YHAPDZLPJ59C9BYAZSRNDW8E9", "dateTime": 1520984996630}, {"current_trial": 105, "trialdata": {"rt": -1000, "trial_type": "single-audio", "word": "omelet", "stimulus": "/static/audio/wordpool/OMELET.wav", "conditions": [24, 800, "a", 12000], "internal_node_id": "0.0-78.0", "trial": 2, "time_elapsed": 508444, "serialpos": 16, "key_press": -1, "wordID": 975, "type": "PRES_AUD", "trial_index": 105}, "uniqueid": "MTK3737:3DIP6YHAPDZLPJ59C9BYAZSRNDW8E9", "dateTime": 1520984998245}, {"current_trial": 106, "trialdata": {"rt": -1000, "trial_type": "single-audio", "word": "briefcase", "stimulus": "/static/audio/wordpool/BRIEFCASE.wav", "conditions": [24, 800, "a", 12000], "internal_node_id": "0.0-79.0", "trial": 2, "time_elapsed": 510456, "serialpos": 17, "key_press": -1, "wordID": 174, "type": "PRES_AUD", "trial_index": 106}, "uniqueid": "MTK3737:3DIP6YHAPDZLPJ59C9BYAZSRNDW8E9", "dateTime": 1520985000257}, {"current_trial": 107, "trialdata": {"rt": -1000, "trial_type": "single-audio", "word": "wife", "stimulus": "/static/audio/wordpool/WIFE.wav", "conditions": [24, 800, "a", 12000], "internal_node_id": "0.0-80.0", "trial": 2, "time_elapsed": 512314, "serialpos": 18, "key_press": -1, "wordID": 1608, "type": "PRES_AUD", "trial_index": 107}, "uniqueid": "MTK3737:3DIP6YHAPDZLPJ59C9BYAZSRNDW8E9", "dateTime": 1520985002115}, {"current_trial": 108, "trialdata": {"rt": -1000, "trial_type": "single-audio", "word": "agent", "stimulus": "/static/audio/wordpool/AGENT.wav", "conditions": [24, 800, "a", 12000], "internal_node_id": "0.0-81.0", "trial": 2, "time_elapsed": 513940, "serialpos": 19, "key_press": -1, "wordID": 9, "type": "PRES_AUD", "trial_index": 108}, "uniqueid": "MTK3737:3DIP6YHAPDZLPJ59C9BYAZSRNDW8E9", "dateTime": 1520985003742}, {"current_trial": 109, "trialdata": {"rt": -1000, "trial_type": "single-audio", "word": "police", "stimulus": "/static/audio/wordpool/POLICE.wav", "conditions": [24, 800, "a", 12000], "internal_node_id": "0.0-82.0", "trial": 2, "time_elapsed": 515766, "serialpos": 20, "key_press": -1, "wordID": 1097, "type": "PRES_AUD", "trial_index": 109}, "uniqueid": "MTK3737:3DIP6YHAPDZLPJ59C9BYAZSRNDW8E9", "dateTime": 1520985005568}, {"current_trial": 110, "trialdata": {"rt": -1000, "trial_type": "single-audio", "word": "receipt", "stimulus": "/static/audio/wordpool/RECEIPT.wav", "conditions": [24, 800, "a", 12000], "internal_node_id": "0.0-83.0", "trial": 2, "time_elapsed": 517405, "serialpos": 21, "key_press": -1, "wordID": 1172, "type": "PRES_AUD", "trial_index": 110}, "uniqueid": "MTK3737:3DIP6YHAPDZLPJ59C9BYAZSRNDW8E9", "dateTime": 1520985007206}, {"current_trial": 111, "trialdata": {"rt": -1000, "trial_type": "single-audio", "word": "shorts", "stimulus": "/static/audio/wordpool/SHORTS.wav", "conditions": [24, 800, "a", 12000], "internal_node_id": "0.0-84.0", "trial": 2, "time_elapsed": 519389, "serialpos": 22, "key_press": -1, "wordID": 1292, "type": "PRES_AUD", "trial_index": 111}, "uniqueid": "MTK3737:3DIP6YHAPDZLPJ59C9BYAZSRNDW8E9", "dateTime": 1520985009191}, {"current_trial": 112, "trialdata": {"rt": -1000, "trial_type": "single-audio", "word": "suitcase", "stimulus": "/static/audio/wordpool/SUITCASE.wav", "conditions": [24, 800, "a", 12000], "internal_node_id": "0.0-85.0", "trial": 2, "time_elapsed": 521293, "serialpos": 23, "key_press": -1, "wordID": 1402, "type": "PRES_AUD", "trial_index": 112}, "uniqueid": "MTK3737:3DIP6YHAPDZLPJ59C9BYAZSRNDW8E9", "dateTime": 1520985011095}, {"current_trial": 113, "trialdata": {"rt": -1, "trial_type": "single-stim", "stimulus": "", "internal_node_id": "0.0-86.0-0.0", "time_elapsed": 522613, "key_press": -1, "type": "PRE_RECALL_DELAY", "trial_index": 113}, "uniqueid": "MTK3737:3DIP6YHAPDZLPJ59C9BYAZSRNDW8E9", "dateTime": 1520985012414}, {"current_trial": 114, "trialdata": {"rt": -1000, "trial_type": "single-audio", "stimulus": "/static/audio/400Hz.wav", "internal_node_id": "0.0-87.0", "time_elapsed": 523120, "key_press": -1, "type": "PRE_RECALL_ALERT", "trial_index": 114}, "uniqueid": "MTK3737:3DIP6YHAPDZLPJ59C9BYAZSRNDW8E9", "dateTime": 1520985012921}, {"current_trial": 115, "trialdata": {"rt": [2231, 3217, 7153, 15713, 17294, 19763, 21539, 25964, 38726, 45062], "recwords": ["suitcase", "wife", "london", "agent", "bacon", "couch", "supper", "bacon", "chaufer", "police"], "key_times": [441, 658, 846, 1202, 1469, 1634, 1830, 1982, 2231, 2558, 2699, 2817, 2949, 3217, 3463, 3657, 3771, 3910, 4092, 4286, 7153, 11595, 11861, 12721, 12889, 14721, 14930, 15076, 15208, 15336, 15713, 16375, 16475, 16624, 16771, 16965, 17294, 18157, 18284, 18387, 18769, 19113, 19763, 20644, 20817, 20976, 21110, 21232, 21337, 21539, 25196, 25331, 25463, 25563, 25659, 25964, 33175, 33376, 33691, 34127, 34199, 34679, 35365, 36307, 36880, 37034, 37317, 37596, 37748, 38726, 43851, 44142, 44365, 44547, 44635, 44822, 45062], "trial_type": "free-recall", "conditions": [24, 800, "a", 12000], "internal_node_id": "0.0-88.0-0.0", "key_presses": [83, 85, 73, 84, 67, 65, 83, 69, 13, 87, 73, 70, 69, 13, 76, 79, 78, 68, 79, 78, 13, 67, 72, 8, 8, 65, 71, 69, 78, 84, 13, 66, 65, 67, 79, 78, 13, 67, 79, 85, 67, 72, 13, 83, 85, 80, 80, 69, 82, 13, 66, 65, 67, 79, 78, 13, 67, 72, 85, 8, 65, 85, 8, 8, 65, 85, 70, 69, 82, 13, 80, 79, 76, 73, 67, 69, 13], "trial": 2, "time_elapsed": 583129, "type": "FREE_RECALL", "trial_index": 115}, "uniqueid": "MTK3737:3DIP6YHAPDZLPJ59C9BYAZSRNDW8E9", "dateTime": 1520985072942}, {"current_trial": 116, "trialdata": {"rt": 3456, "trial_type": "text", "internal_node_id": "0.0-89.0", "time_elapsed": 588600, "key_press": 13, "type": "INSTRUCTIONS", "trial_index": 116}, "uniqueid": "MTK3737:3DIP6YHAPDZLPJ59C9BYAZSRNDW8E9", "dateTime": 1520985078402}, {"current_trial": 117, "trialdata": {"rt": [2942, 5274, 7294, 9245, 10790, 13444, 15508, 18239, 22081], "trial_type": "math-distractor", "key_times": [2541, 2693, 2942, 4817, 4976, 5274, 6828, 6976, 7294, 8775, 8993, 9245, 10365, 10535, 10790, 13032, 13202, 13444, 15097, 15263, 15508, 17813, 17997, 18239, 21481, 21800, 22081], "responses": ["14", "19", "18", "13", "13", "10", "14", "20", "13"], "num2": [9, 9, 1, 5, 1, 1, 3, 5, 4, 1], "num3": [1, 8, 8, 4, 3, 5, 6, 7, 6, 2], "conditions": [12, 800, "a", 24000], "internal_node_id": "0.0-90.0", "key_presses": [97, 100, 13, 97, 105, 13, 97, 104, 13, 97, 99, 13, 97, 99, 13, 97, 96, 13, 97, 100, 13, 98, 96, 13, 97, 99, 13], "trial": 3, "time_elapsed": 614671, "type": "DISTRACTOR", "trial_index": 117, "num1": [4, 2, 9, 4, 9, 4, 5, 6, 3, 8]}, "uniqueid": "MTK3737:3DIP6YHAPDZLPJ59C9BYAZSRNDW8E9", "dateTime": 1520985104472}, {"current_trial": 118, "trialdata": {"rt": -1, "trial_type": "single-stim", "stimulus": "<p id=\"stim\">10</p>", "internal_node_id": "0.0-91.0-0.0", "time_elapsed": 617672, "key_press": -1, "trial_index": 118}, "uniqueid": "MTK3737:3DIP6YHAPDZLPJ59C9BYAZSRNDW8E9", "dateTime": 1520985107473}, {"current_trial": 119, "trialdata": {"rt": -1, "trial_type": "single-stim", "stimulus": "<p id=\"stim\">9</p>", "internal_node_id": "0.0-91.0-1.0", "time_elapsed": 618673, "key_press": -1, "trial_index": 119}, "uniqueid": "MTK3737:3DIP6YHAPDZLPJ59C9BYAZSRNDW8E9", "dateTime": 1520985108475}, {"current_trial": 120, "trialdata": {"rt": -1, "trial_type": "single-stim", "stimulus": "<p id=\"stim\">8</p>", "internal_node_id": "0.0-91.0-2.0", "time_elapsed": 619676, "key_press": -1, "trial_index": 120}, "uniqueid": "MTK3737:3DIP6YHAPDZLPJ59C9BYAZSRNDW8E9", "dateTime": 1520985109477}, {"current_trial": 121, "trialdata": {"rt": -1, "trial_type": "single-stim", "stimulus": "<p id=\"stim\">7</p>", "internal_node_id": "0.0-91.0-3.0", "time_elapsed": 620677, "key_press": -1, "trial_index": 121}, "uniqueid": "MTK3737:3DIP6YHAPDZLPJ59C9BYAZSRNDW8E9", "dateTime": 1520985110478}, {"current_trial": 122, "trialdata": {"rt": -1, "trial_type": "single-stim", "stimulus": "<p id=\"stim\">6</p>", "internal_node_id": "0.0-91.0-4.0", "time_elapsed": 621678, "key_press": -1, "trial_index": 122}, "uniqueid": "MTK3737:3DIP6YHAPDZLPJ59C9BYAZSRNDW8E9", "dateTime": 1520985111480}, {"current_trial": 123, "trialdata": {"rt": -1, "trial_type": "single-stim", "stimulus": "<p id=\"stim\">5</p>", "internal_node_id": "0.0-91.0-5.0", "time_elapsed": 622681, "key_press": -1, "trial_index": 123}, "uniqueid": "MTK3737:3DIP6YHAPDZLPJ59C9BYAZSRNDW8E9", "dateTime": 1520985112482}, {"current_trial": 124, "trialdata": {"rt": -1, "trial_type": "single-stim", "stimulus": "<p id=\"stim\">4</p>", "internal_node_id": "0.0-91.0-6.0", "time_elapsed": 623684, "key_press": -1, "trial_index": 124}, "uniqueid": "MTK3737:3DIP6YHAPDZLPJ59C9BYAZSRNDW8E9", "dateTime": 1520985113485}, {"current_trial": 125, "trialdata": {"rt": -1, "trial_type": "single-stim", "stimulus": "<p id=\"stim\">3</p>", "internal_node_id": "0.0-91.0-7.0", "time_elapsed": 624686, "key_press": -1, "trial_index": 125}, "uniqueid": "MTK3737:3DIP6YHAPDZLPJ59C9BYAZSRNDW8E9", "dateTime": 1520985114487}, {"current_trial": 126, "trialdata": {"rt": -1, "trial_type": "single-stim", "stimulus": "<p id=\"stim\">2</p>", "internal_node_id": "0.0-91.0-8.0", "time_elapsed": 625688, "key_press": -1, "trial_index": 126}, "uniqueid": "MTK3737:3DIP6YHAPDZLPJ59C9BYAZSRNDW8E9", "dateTime": 1520985115489}, {"current_trial": 127, "trialdata": {"rt": -1, "trial_type": "single-stim", "stimulus": "<p id=\"stim\">1</p>", "internal_node_id": "0.0-91.0-9.0", "time_elapsed": 626690, "key_press": -1, "trial_index": 127}, "uniqueid": "MTK3737:3DIP6YHAPDZLPJ59C9BYAZSRNDW8E9", "dateTime": 1520985116491}, {"current_trial": 128, "trialdata": {"rt": -1, "trial_type": "single-stim", "stimulus": "<p id=\"stim\">+</p>", "internal_node_id": "0.0-92.0-0.0", "time_elapsed": 628194, "key_press": -1, "type": "FIXATION", "trial_index": 128}, "uniqueid": "MTK3737:3DIP6YHAPDZLPJ59C9BYAZSRNDW8E9", "dateTime": 1520985117996}, {"current_trial": 129, "trialdata": {"rt": -1000, "trial_type": "single-audio", "word": "cook", "stimulus": "/static/audio/wordpool/COOK.wav", "conditions": [12, 800, "a", 24000], "internal_node_id": "0.0-93.0", "trial": 3, "time_elapsed": 630106, "serialpos": 0, "key_press": -1, "wordID": 371, "type": "PRES_AUD", "trial_index": 129}, "uniqueid": "MTK3737:3DIP6YHAPDZLPJ59C9BYAZSRNDW8E9", "dateTime": 1520985119907}, {"current_trial": 130, "trialdata": {"rt": -1000, "trial_type": "single-audio", "word": "slide", "stimulus": "/static/audio/wordpool/SLIDE.wav", "conditions": [12, 800, "a", 24000], "internal_node_id": "0.0-94.0", "trial": 3, "time_elapsed": 632109, "serialpos": 1, "key_press": -1, "wordID": 1325, "type": "PRES_AUD", "trial_index": 130}, "uniqueid": "MTK3737:3DIP6YHAPDZLPJ59C9BYAZSRNDW8E9", "dateTime": 1520985121910}, {"current_trial": 131, "trialdata": {"rt": -1000, "trial_type": "single-audio", "word": "sticker", "stimulus": "/static/audio/wordpool/STICKER.wav", "conditions": [12, 800, "a", 24000], "internal_node_id": "0.0-95.0", "trial": 3, "time_elapsed": 633846, "serialpos": 2, "key_press": -1, "wordID": 1381, "type": "PRES_AUD", "trial_index": 131}, "uniqueid": "MTK3737:3DIP6YHAPDZLPJ59C9BYAZSRNDW8E9", "dateTime": 1520985123648}, {"current_trial": 132, "trialdata": {"rt": -1000, "trial_type": "single-audio", "word": "postage", "stimulus": "/static/audio/wordpool/POSTAGE.wav", "conditions": [12, 800, "a", 24000], "internal_node_id": "0.0-96.0", "trial": 3, "time_elapsed": 635565, "serialpos": 3, "key_press": -1, "wordID": 1112, "type": "PRES_AUD", "trial_index": 132}, "uniqueid": "MTK3737:3DIP6YHAPDZLPJ59C9BYAZSRNDW8E9", "dateTime": 1520985125368}, {"current_trial": 133, "trialdata": {"rt": -1000, "trial_type": "single-audio", "word": "sunrise", "stimulus": "/static/audio/wordpool/SUNRISE.wav", "conditions": [12, 800, "a", 24000], "internal_node_id": "0.0-97.0", "trial": 3, "time_elapsed": 637537, "serialpos": 4, "key_press": -1, "wordID": 1406, "type": "PRES_AUD", "trial_index": 133}, "uniqueid": "MTK3737:3DIP6YHAPDZLPJ59C9BYAZSRNDW8E9", "dateTime": 1520985127338}, {"current_trial": 134, "trialdata": {"rt": -1000, "trial_type": "single-audio", "word": "sunset", "stimulus": "/static/audio/wordpool/SUNSET.wav", "conditions": [12, 800, "a", 24000], "internal_node_id": "0.0-98.0", "trial": 3, "time_elapsed": 639468, "serialpos": 5, "key_press": -1, "wordID": 1407, "type": "PRES_AUD", "trial_index": 134}, "uniqueid": "MTK3737:3DIP6YHAPDZLPJ59C9BYAZSRNDW8E9", "dateTime": 1520985129269}, {"current_trial": 135, "trialdata": {"rt": -1000, "trial_type": "single-audio", "word": "farmer", "stimulus": "/static/audio/wordpool/FARMER.wav", "conditions": [12, 800, "a", 24000], "internal_node_id": "0.0-99.0", "trial": 3, "time_elapsed": 641242, "serialpos": 6, "key_press": -1, "wordID": 552, "type": "PRES_AUD", "trial_index": 135}, "uniqueid": "MTK3737:3DIP6YHAPDZLPJ59C9BYAZSRNDW8E9", "dateTime": 1520985131044}, {"current_trial": 136, "trialdata": {"rt": -1000, "trial_type": "single-audio", "word": "grill", "stimulus": "/static/audio/wordpool/GRILL.wav", "conditions": [12, 800, "a", 24000], "internal_node_id": "0.0-100.0", "trial": 3, "time_elapsed": 642856, "serialpos": 7, "key_press": -1, "wordID": 660, "type": "PRES_AUD", "trial_index": 136}, "uniqueid": "MTK3737:3DIP6YHAPDZLPJ59C9BYAZSRNDW8E9", "dateTime": 1520985132657}, {"current_trial": 137, "trialdata": {"rt": -1000, "trial_type": "single-audio", "word": "rooster", "stimulus": "/static/audio/wordpool/ROOSTER.wav", "conditions": [12, 800, "a", 24000], "internal_node_id": "0.0-101.0", "trial": 3, "time_elapsed": 644795, "serialpos": 8, "key_press": -1, "wordID": 1208, "type": "PRES_AUD", "trial_index": 137}, "uniqueid": "MTK3737:3DIP6YHAPDZLPJ59C9BYAZSRNDW8E9", "dateTime": 1520985134597}, {"current_trial": 138, "trialdata": {"rt": -1000, "trial_type": "single-audio", "word": "staple", "stimulus": "/static/audio/wordpool/STAPLE.wav", "conditions": [12, 800, "a", 24000], "internal_node_id": "0.0-102.0", "trial": 3, "time_elapsed": 646807, "serialpos": 9, "key_press": -1, "wordID": 1370, "type": "PRES_AUD", "trial_index": 138}, "uniqueid": "MTK3737:3DIP6YHAPDZLPJ59C9BYAZSRNDW8E9", "dateTime": 1520985136608}, {"current_trial": 139, "trialdata": {"rt": -1000, "trial_type": "single-audio", "word": "rifle", "stimulus": "/static/audio/wordpool/RIFLE.wav", "conditions": [12, 800, "a", 24000], "internal_node_id": "0.0-103.0", "trial": 3, "time_elapsed": 648650, "serialpos": 10, "key_press": -1, "wordID": 1191, "type": "PRES_AUD", "trial_index": 139}, "uniqueid": "MTK3737:3DIP6YHAPDZLPJ59C9BYAZSRNDW8E9", "dateTime": 1520985138452}, {"current_trial": 140, "trialdata": {"rt": -1000, "trial_type": "single-audio", "word": "padding", "stimulus": "/static/audio/wordpool/PADDING.wav", "conditions": [12, 800, "a", 24000], "internal_node_id": "0.0-104.0", "trial": 3, "time_elapsed": 650575, "serialpos": 11, "key_press": -1, "wordID": 998, "type": "PRES_AUD", "trial_index": 140}, "uniqueid": "MTK3737:3DIP6YHAPDZLPJ59C9BYAZSRNDW8E9", "dateTime": 1520985140376}, {"current_trial": 141, "trialdata": {"rt": -1, "trial_type": "single-stim", "stimulus": "", "internal_node_id": "0.0-105.0-0.0", "time_elapsed": 651902, "key_press": -1, "type": "PRE_RECALL_DELAY", "trial_index": 141}, "uniqueid": "MTK3737:3DIP6YHAPDZLPJ59C9BYAZSRNDW8E9", "dateTime": 1520985141703}, {"current_trial": 142, "trialdata": {"rt": -1000, "trial_type": "single-audio", "stimulus": "/static/audio/400Hz.wav", "internal_node_id": "0.0-106.0", "time_elapsed": 652404, "key_press": -1, "type": "PRE_RECALL_ALERT", "trial_index": 142}, "uniqueid": "MTK3737:3DIP6YHAPDZLPJ59C9BYAZSRNDW8E9", "dateTime": 1520985142205}, {"current_trial": 143, "trialdata": {"rt": [3250, 5636, 7590, 9111, 10641], "recwords": ["padding", "rooster", "sunrise", "sunset", "staple"], "key_times": [2143, 2267, 2436, 2578, 2708, 2952, 3077, 3250, 3543, 3650, 4008, 4371, 4580, 4662, 5234, 5391, 5474, 5636, 6137, 6289, 6483, 6611, 6839, 6992, 7153, 7590, 7796, 7956, 8136, 8606, 8771, 8959, 9111, 9286, 9682, 9831, 9935, 10128, 10242, 10641, 11369, 11460, 11593, 11723, 11842, 11951, 12051, 13117, 13620, 13650, 13682, 13714, 13747, 13781, 13814, 13845, 13877], "trial_type": "free-recall", "conditions": [12, 800, "a", 24000], "internal_node_id": "0.0-107.0-0.0", "key_presses": [80, 65, 68, 68, 73, 78, 71, 13, 82, 79, 83, 8, 79, 83, 84, 69, 82, 13, 83, 85, 78, 82, 73, 83, 69, 13, 83, 85, 78, 83, 69, 84, 13, 83, 84, 65, 80, 76, 69, 13, 80, 65, 68, 68, 73, 78, 71, 8, 8, 8, 8, 8, 8, 8, 8, 8, 8], "trial": 3, "time_elapsed": 712410, "type": "FREE_RECALL", "trial_index": 143}, "uniqueid": "MTK3737:3DIP6YHAPDZLPJ59C9BYAZSRNDW8E9", "dateTime": 1520985202220}, {"current_trial": 144, "trialdata": {"rt": 2076, "trial_type": "text", "internal_node_id": "0.0-108.0", "time_elapsed": 716500, "key_press": 13, "type": "INSTRUCTIONS", "trial_index": 144}, "uniqueid": "MTK3737:3DIP6YHAPDZLPJ59C9BYAZSRNDW8E9", "dateTime": 1520985206301}, {"current_trial": 145, "trialdata": {"rt": [3627, 5929, 8403, 10476, 12421, 14496, 18386, 21205, 23451], "trial_type": "math-distractor", "key_times": [2862, 3050, 3627, 5418, 5563, 5929, 7299, 8093, 8403, 10100, 10233, 10476, 12058, 12214, 12421, 14088, 14243, 14496, 17817, 18004, 18386, 20912, 21205, 23073, 23255, 23451], "responses": ["12", "11", "19", "11", "14", "16", "22", "9", "10"], "num2": [4, 1, 9, 2, 3, 5, 6, 4, 2, 8], "num3": [5, 9, 9, 4, 5, 4, 9, 3, 5, 2], "conditions": [12, 1600, "a", 24000], "internal_node_id": "0.0-109.0", "key_presses": [97, 98, 13, 97, 97, 13, 97, 105, 13, 97, 97, 13, 97, 100, 13, 97, 102, 13, 98, 98, 13, 105, 13, 97, 96, 13], "trial": 4, "time_elapsed": 742523, "type": "DISTRACTOR", "trial_index": 145, "num1": [3, 1, 1, 5, 6, 7, 7, 2, 3, 9]}, "uniqueid": "MTK3737:3DIP6YHAPDZLPJ59C9BYAZSRNDW8E9", "dateTime": 1520985232325}, {"current_trial": 146, "trialdata": {"rt": -1, "trial_type": "single-stim", "stimulus": "<p id=\"stim\">10</p>", "internal_node_id": "0.0-110.0-0.0", "time_elapsed": 745530, "key_press": -1, "trial_index": 146}, "uniqueid": "MTK3737:3DIP6YHAPDZLPJ59C9BYAZSRNDW8E9", "dateTime": 1520985235331}, {"current_trial": 147, "trialdata": {"rt": -1, "trial_type": "single-stim", "stimulus": "<p id=\"stim\">9</p>", "internal_node_id": "0.0-110.0-1.0", "time_elapsed": 746532, "key_press": -1, "trial_index": 147}, "uniqueid": "MTK3737:3DIP6YHAPDZLPJ59C9BYAZSRNDW8E9", "dateTime": 1520985236333}, {"current_trial": 148, "trialdata": {"rt": -1, "trial_type": "single-stim", "stimulus": "<p id=\"stim\">8</p>", "internal_node_id": "0.0-110.0-2.0", "time_elapsed": 747536, "key_press": -1, "trial_index": 148}, "uniqueid": "MTK3737:3DIP6YHAPDZLPJ59C9BYAZSRNDW8E9", "dateTime": 1520985237337}, {"current_trial": 149, "trialdata": {"rt": -1, "trial_type": "single-stim", "stimulus": "<p id=\"stim\">7</p>", "internal_node_id": "0.0-110.0-3.0", "time_elapsed": 748539, "key_press": -1, "trial_index": 149}, "uniqueid": "MTK3737:3DIP6YHAPDZLPJ59C9BYAZSRNDW8E9", "dateTime": 1520985238340}, {"current_trial": 150, "trialdata": {"rt": -1, "trial_type": "single-stim", "stimulus": "<p id=\"stim\">6</p>", "internal_node_id": "0.0-110.0-4.0", "time_elapsed": 749543, "key_press": -1, "trial_index": 150}, "uniqueid": "MTK3737:3DIP6YHAPDZLPJ59C9BYAZSRNDW8E9", "dateTime": 1520985239345}, {"current_trial": 151, "trialdata": {"rt": -1, "trial_type": "single-stim", "stimulus": "<p id=\"stim\">5</p>", "internal_node_id": "0.0-110.0-5.0", "time_elapsed": 750548, "key_press": -1, "trial_index": 151}, "uniqueid": "MTK3737:3DIP6YHAPDZLPJ59C9BYAZSRNDW8E9", "dateTime": 1520985240349}, {"current_trial": 152, "trialdata": {"rt": -1, "trial_type": "single-stim", "stimulus": "<p id=\"stim\">4</p>", "internal_node_id": "0.0-110.0-6.0", "time_elapsed": 751551, "key_press": -1, "trial_index": 152}, "uniqueid": "MTK3737:3DIP6YHAPDZLPJ59C9BYAZSRNDW8E9", "dateTime": 1520985241352}, {"current_trial": 153, "trialdata": {"rt": -1, "trial_type": "single-stim", "stimulus": "<p id=\"stim\">3</p>", "internal_node_id": "0.0-110.0-7.0", "time_elapsed": 752555, "key_press": -1, "trial_index": 153}, "uniqueid": "MTK3737:3DIP6YHAPDZLPJ59C9BYAZSRNDW8E9", "dateTime": 1520985242357}, {"current_trial": 154, "trialdata": {"rt": -1, "trial_type": "single-stim", "stimulus": "<p id=\"stim\">2</p>", "internal_node_id": "0.0-110.0-8.0", "time_elapsed": 753559, "key_press": -1, "trial_index": 154}, "uniqueid": "MTK3737:3DIP6YHAPDZLPJ59C9BYAZSRNDW8E9", "dateTime": 1520985243361}, {"current_trial": 155, "trialdata": {"rt": -1, "trial_type": "single-stim", "stimulus": "<p id=\"stim\">1</p>", "internal_node_id": "0.0-110.0-9.0", "time_elapsed": 754563, "key_press": -1, "trial_index": 155}, "uniqueid": "MTK3737:3DIP6YHAPDZLPJ59C9BYAZSRNDW8E9", "dateTime": 1520985244364}, {"current_trial": 156, "trialdata": {"rt": -1, "trial_type": "single-stim", "stimulus": "<p id=\"stim\">+</p>", "internal_node_id": "0.0-111.0-0.0", "time_elapsed": 756069, "key_press": -1, "type": "FIXATION", "trial_index": 156}, "uniqueid": "MTK3737:3DIP6YHAPDZLPJ59C9BYAZSRNDW8E9", "dateTime": 1520985245870}, {"current_trial": 157, "trialdata": {"rt": -1000, "trial_type": "single-audio", "word": "blouse", "stimulus": "/static/audio/wordpool/BLOUSE.wav", "conditions": [12, 1600, "a", 24000], "internal_node_id": "0.0-112.0", "trial": 4, "time_elapsed": 758820, "serialpos": 0, "key_press": -1, "wordID": 138, "type": "PRES_AUD", "trial_index": 157}, "uniqueid": "MTK3737:3DIP6YHAPDZLPJ59C9BYAZSRNDW8E9", "dateTime": 1520985248621}, {"current_trial": 158, "trialdata": {"rt": -1000, "trial_type": "single-audio", "word": "captive", "stimulus": "/static/audio/wordpool/CAPTIVE.wav", "conditions": [12, 1600, "a", 24000], "internal_node_id": "0.0-113.0", "trial": 4, "time_elapsed": 761309, "serialpos": 1, "key_press": -1, "wordID": 239, "type": "PRES_AUD", "trial_index": 158}, "uniqueid": "MTK3737:3DIP6YHAPDZLPJ59C9BYAZSRNDW8E9", "dateTime": 1520985251111}, {"current_trial": 159, "trialdata": {"rt": -1000, "trial_type": "single-audio", "word": "infant", "stimulus": "/static/audio/wordpool/INFANT.wav", "conditions": [12, 1600, "a", 24000], "internal_node_id": "0.0-114.0", "trial": 4, "time_elapsed": 763835, "serialpos": 2, "key_press": -1, "wordID": 736, "type": "PRES_AUD", "trial_index": 159}, "uniqueid": "MTK3737:3DIP6YHAPDZLPJ59C9BYAZSRNDW8E9", "dateTime": 1520985253636}, {"current_trial": 160, "trialdata": {"rt": -1000, "trial_type": "single-audio", "word": "dresser", "stimulus": "/static/audio/wordpool/DRESSER.wav", "conditions": [12, 1600, "a", 24000], "internal_node_id": "0.0-115.0", "trial": 4, "time_elapsed": 766424, "serialpos": 3, "key_press": -1, "wordID": 495, "type": "PRES_AUD", "trial_index": 160}, "uniqueid": "MTK3737:3DIP6YHAPDZLPJ59C9BYAZSRNDW8E9", "dateTime": 1520985256225}, {"current_trial": 161, "trialdata": {"rt": -1000, "trial_type": "single-audio", "word": "marker", "stimulus": "/static/audio/wordpool/MARKER.wav", "conditions": [12, 1600, "a", 24000], "internal_node_id": "0.0-116.0", "trial": 4, "time_elapsed": 769223, "serialpos": 4, "key_press": -1, "wordID": 869, "type": "PRES_AUD", "trial_index": 161}, "uniqueid": "MTK3737:3DIP6YHAPDZLPJ59C9BYAZSRNDW8E9", "dateTime": 1520985259024}, {"current_trial": 162, "trialdata": {"rt": -1000, "trial_type": "single-audio", "word": "denim", "stimulus": "/static/audio/wordpool/DENIM.wav", "conditions": [12, 1600, "a", 24000], "internal_node_id": "0.0-117.0", "trial": 4, "time_elapsed": 771725, "serialpos": 5, "key_press": -1, "wordID": 445, "type": "PRES_AUD", "trial_index": 162}, "uniqueid": "MTK3737:3DIP6YHAPDZLPJ59C9BYAZSRNDW8E9", "dateTime": 1520985261526}, {"current_trial": 163, "trialdata": {"rt": -1000, "trial_type": "single-audio", "word": "missile", "stimulus": "/static/audio/wordpool/MISSILE.wav", "conditions": [12, 1600, "a", 24000], "internal_node_id": "0.0-118.0", "trial": 4, "time_elapsed": 774452, "serialpos": 6, "key_press": -1, "wordID": 899, "type": "PRES_AUD", "trial_index": 163}, "uniqueid": "MTK3737:3DIP6YHAPDZLPJ59C9BYAZSRNDW8E9", "dateTime": 1520985264253}, {"current_trial": 164, "trialdata": {"rt": -1000, "trial_type": "single-audio", "word": "piano", "stimulus": "/static/audio/wordpool/PIANO.wav", "conditions": [12, 1600, "a", 24000], "internal_node_id": "0.0-119.0", "trial": 4, "time_elapsed": 776962, "serialpos": 7, "key_press": -1, "wordID": 1056, "type": "PRES_AUD", "trial_index": 164}, "uniqueid": "MTK3737:3DIP6YHAPDZLPJ59C9BYAZSRNDW8E9", "dateTime": 1520985266764}, {"current_trial": 165, "trialdata": {"rt": -1000, "trial_type": "single-audio", "word": "lodge", "stimulus": "/static/audio/wordpool/LODGE.wav", "conditions": [12, 1600, "a", 24000], "internal_node_id": "0.0-120.0", "trial": 4, "time_elapsed": 779622, "serialpos": 8, "key_press": -1, "wordID": 838, "type": "PRES_AUD", "trial_index": 165}, "uniqueid": "MTK3737:3DIP6YHAPDZLPJ59C9BYAZSRNDW8E9", "dateTime": 1520985269423}, {"current_trial": 166, "trialdata": {"rt": -1000, "trial_type": "single-audio", "word": "hand", "stimulus": "/static/audio/wordpool/HAND.wav", "conditions": [12, 1600, "a", 24000], "internal_node_id": "0.0-121.0", "trial": 4, "time_elapsed": 782406, "serialpos": 9, "key_press": -1, "wordID": 682, "type": "PRES_AUD", "trial_index": 166}, "uniqueid": "MTK3737:3DIP6YHAPDZLPJ59C9BYAZSRNDW8E9", "dateTime": 1520985272208}, {"current_trial": 167, "trialdata": {"rt": -1000, "trial_type": "single-audio", "word": "tractor", "stimulus": "/static/audio/wordpool/TRACTOR.wav", "conditions": [12, 1600, "a", 24000], "internal_node_id": "0.0-122.0", "trial": 4, "time_elapsed": 784850, "serialpos": 10, "key_press": -1, "wordID": 1492, "type": "PRES_AUD", "trial_index": 167}, "uniqueid": "MTK3737:3DIP6YHAPDZLPJ59C9BYAZSRNDW8E9", "dateTime": 1520985274652}, {"current_trial": 168, "trialdata": {"rt": -1000, "trial_type": "single-audio", "word": "truck", "stimulus": "/static/audio/wordpool/TRUCK.wav", "conditions": [12, 1600, "a", 24000], "internal_node_id": "0.0-123.0", "trial": 4, "time_elapsed": 787362, "serialpos": 11, "key_press": -1, "wordID": 1511, "type": "PRES_AUD", "trial_index": 168}, "uniqueid": "MTK3737:3DIP6YHAPDZLPJ59C9BYAZSRNDW8E9", "dateTime": 1520985277163}, {"current_trial": 169, "trialdata": {"rt": -1, "trial_type": "single-stim", "stimulus": "", "internal_node_id": "0.0-124.0-0.0", "time_elapsed": 788688, "key_press": -1, "type": "PRE_RECALL_DELAY", "trial_index": 169}, "uniqueid": "MTK3737:3DIP6YHAPDZLPJ59C9BYAZSRNDW8E9", "dateTime": 1520985278489}, {"current_trial": 170, "trialdata": {"rt": -1000, "trial_type": "single-audio", "stimulus": "/static/audio/400Hz.wav", "internal_node_id": "0.0-125.0", "time_elapsed": 789195, "key_press": -1, "type": "PRE_RECALL_ALERT", "trial_index": 170}, "uniqueid": "MTK3737:3DIP6YHAPDZLPJ59C9BYAZSRNDW8E9", "dateTime": 1520985278996}, {"current_trial": 171, "trialdata": {"rt": [4014, 7416, 10596, 15796, 20808, 56679], "recwords": ["truck", "tractor", "blouse", "denim", "piano", "infat"], "key_times": [3096, 3329, 3434, 3604, 3690, 4014, 5896, 6084, 6325, 6474, 6893, 7028, 7180, 7416, 8814, 8969, 9857, 10002, 10127, 10321, 10596, 14183, 14415, 14524, 14697, 14861, 15796, 19093, 19331, 19915, 20147, 20286, 20389, 20537, 20808, 55953, 56107, 56179, 56356, 56548, 56679], "trial_type": "free-recall", "conditions": [12, 1600, "a", 24000], "internal_node_id": "0.0-126.0-0.0", "key_presses": [84, 82, 85, 67, 75, 13, 84, 82, 65, 67, 84, 79, 82, 13, 66, 76, 79, 85, 83, 69, 13, 68, 69, 78, 73, 77, 13, 80, 65, 8, 73, 65, 78, 79, 13, 73, 78, 70, 65, 84, 13], "trial": 4, "time_elapsed": 849203, "type": "FREE_RECALL", "trial_index": 171}, "uniqueid": "MTK3737:3DIP6YHAPDZLPJ59C9BYAZSRNDW8E9", "dateTime": 1520985339014}, {"current_trial": 172, "trialdata": {"rt": 1246, "trial_type": "text", "internal_node_id": "0.0-127.0", "time_elapsed": 852464, "key_press": 13, "type": "INSTRUCTIONS", "trial_index": 172}, "uniqueid": "MTK3737:3DIP6YHAPDZLPJ59C9BYAZSRNDW8E9", "dateTime": 1520985342265}, {"current_trial": 173, "trialdata": {"rt": [3909, 5818, 7721], "trial_type": "math-distractor", "key_times": [3551, 3711, 3909, 5542, 5818, 7262, 7414, 7721], "responses": ["20", "6", "11"], "num2": [7, 1, 1, 6], "num3": [6, 2, 5, 9], "conditions": [24, 800, "a", 12000], "internal_node_id": "0.0-128.0", "key_presses": [98, 96, 13, 102, 13, 97, 97, 13], "trial": 5, "time_elapsed": 866474, "type": "DISTRACTOR", "trial_index": 173, "num1": [6, 3, 5, 9]}, "uniqueid": "MTK3737:3DIP6YHAPDZLPJ59C9BYAZSRNDW8E9", "dateTime": 1520985356276}, {"current_trial": 174, "trialdata": {"rt": -1, "trial_type": "single-stim", "stimulus": "<p id=\"stim\">10</p>", "internal_node_id": "0.0-129.0-0.0", "time_elapsed": 869477, "key_press": -1, "trial_index": 174}, "uniqueid": "MTK3737:3DIP6YHAPDZLPJ59C9BYAZSRNDW8E9", "dateTime": 1520985359279}, {"current_trial": 175, "trialdata": {"rt": -1, "trial_type": "single-stim", "stimulus": "<p id=\"stim\">9</p>", "internal_node_id": "0.0-129.0-1.0", "time_elapsed": 870481, "key_press": -1, "trial_index": 175}, "uniqueid": "MTK3737:3DIP6YHAPDZLPJ59C9BYAZSRNDW8E9", "dateTime": 1520985360283}, {"current_trial": 176, "trialdata": {"rt": -1, "trial_type": "single-stim", "stimulus": "<p id=\"stim\">8</p>", "internal_node_id": "0.0-129.0-2.0", "time_elapsed": 871485, "key_press": -1, "trial_index": 176}, "uniqueid": "MTK3737:3DIP6YHAPDZLPJ59C9BYAZSRNDW8E9", "dateTime": 1520985361287}, {"current_trial": 177, "trialdata": {"rt": -1, "trial_type": "single-stim", "stimulus": "<p id=\"stim\">7</p>", "internal_node_id": "0.0-129.0-3.0", "time_elapsed": 872488, "key_press": -1, "trial_index": 177}, "uniqueid": "MTK3737:3DIP6YHAPDZLPJ59C9BYAZSRNDW8E9", "dateTime": 1520985362290}, {"current_trial": 178, "trialdata": {"rt": -1, "trial_type": "single-stim", "stimulus": "<p id=\"stim\">6</p>", "internal_node_id": "0.0-129.0-4.0", "time_elapsed": 873491, "key_press": -1, "trial_index": 178}, "uniqueid": "MTK3737:3DIP6YHAPDZLPJ59C9BYAZSRNDW8E9", "dateTime": 1520985363292}, {"current_trial": 179, "trialdata": {"rt": -1, "trial_type": "single-stim", "stimulus": "<p id=\"stim\">5</p>", "internal_node_id": "0.0-129.0-5.0", "time_elapsed": 874495, "key_press": -1, "trial_index": 179}, "uniqueid": "MTK3737:3DIP6YHAPDZLPJ59C9BYAZSRNDW8E9", "dateTime": 1520985364296}, {"current_trial": 180, "trialdata": {"rt": -1, "trial_type": "single-stim", "stimulus": "<p id=\"stim\">4</p>", "internal_node_id": "0.0-129.0-6.0", "time_elapsed": 875496, "key_press": -1, "trial_index": 180}, "uniqueid": "MTK3737:3DIP6YHAPDZLPJ59C9BYAZSRNDW8E9", "dateTime": 1520985365297}, {"current_trial": 181, "trialdata": {"rt": -1, "trial_type": "single-stim", "stimulus": "<p id=\"stim\">3</p>", "internal_node_id": "0.0-129.0-7.0", "time_elapsed": 876500, "key_press": -1, "trial_index": 181}, "uniqueid": "MTK3737:3DIP6YHAPDZLPJ59C9BYAZSRNDW8E9", "dateTime": 1520985366301}, {"current_trial": 182, "trialdata": {"rt": -1, "trial_type": "single-stim", "stimulus": "<p id=\"stim\">2</p>", "internal_node_id": "0.0-129.0-8.0", "time_elapsed": 877504, "key_press": -1, "trial_index": 182}, "uniqueid": "MTK3737:3DIP6YHAPDZLPJ59C9BYAZSRNDW8E9", "dateTime": 1520985367305}, {"current_trial": 183, "trialdata": {"rt": -1, "trial_type": "single-stim", "stimulus": "<p id=\"stim\">1</p>", "internal_node_id": "0.0-129.0-9.0", "time_elapsed": 878507, "key_press": -1, "trial_index": 183}, "uniqueid": "MTK3737:3DIP6YHAPDZLPJ59C9BYAZSRNDW8E9", "dateTime": 1520985368308}, {"current_trial": 184, "trialdata": {"rt": -1, "trial_type": "single-stim", "stimulus": "<p id=\"stim\">+</p>", "internal_node_id": "0.0-130.0-0.0", "time_elapsed": 880011, "key_press": -1, "type": "FIXATION", "trial_index": 184}, "uniqueid": "MTK3737:3DIP6YHAPDZLPJ59C9BYAZSRNDW8E9", "dateTime": 1520985369813}, {"current_trial": 185, "trialdata": {"rt": -1000, "trial_type": "single-audio", "word": "beef", "stimulus": "/static/audio/wordpool/BEEF.wav", "conditions": [24, 800, "a", 12000], "internal_node_id": "0.0-131.0", "trial": 5, "time_elapsed": 881916, "serialpos": 0, "key_press": -1, "wordID": 112, "type": "PRES_AUD", "trial_index": 185}, "uniqueid": "MTK3737:3DIP6YHAPDZLPJ59C9BYAZSRNDW8E9", "dateTime": 1520985371717}, {"current_trial": 186, "trialdata": {"rt": -1000, "trial_type": "single-audio", "word": "bison", "stimulus": "/static/audio/wordpool/BISON.wav", "conditions": [24, 800, "a", 12000], "internal_node_id": "0.0-132.0", "trial": 5, "time_elapsed": 883770, "serialpos": 1, "key_press": -1, "wordID": 130, "type": "PRES_AUD", "trial_index": 186}, "uniqueid": "MTK3737:3DIP6YHAPDZLPJ59C9BYAZSRNDW8E9", "dateTime": 1520985373571}, {"current_trial": 187, "trialdata": {"rt": -1000, "trial_type": "single-audio", "word": "plate", "stimulus": "/static/audio/wordpool/PLATE.wav", "conditions": [24, 800, "a", 12000], "internal_node_id": "0.0-133.0", "trial": 5, "time_elapsed": 885616, "serialpos": 2, "key_press": -1, "wordID": 1085, "type": "PRES_AUD", "trial_index": 187}, "uniqueid": "MTK3737:3DIP6YHAPDZLPJ59C9BYAZSRNDW8E9", "dateTime": 1520985375417}, {"current_trial": 188, "trialdata": {"rt": -1000, "trial_type": "single-audio", "word": "termite", "stimulus": "/static/audio/wordpool/TERMITE.wav", "conditions": [24, 800, "a", 12000], "internal_node_id": "0.0-134.0", "trial": 5, "time_elapsed": 887510, "serialpos": 3, "key_press": -1, "wordID": 1450, "type": "PRES_AUD", "trial_index": 188}, "uniqueid": "MTK3737:3DIP6YHAPDZLPJ59C9BYAZSRNDW8E9", "dateTime": 1520985377311}, {"current_trial": 189, "trialdata": {"rt": -1000, "trial_type": "single-audio", "word": "cabin", "stimulus": "/static/audio/wordpool/CABIN.wav", "conditions": [24, 800, "a", 12000], "internal_node_id": "0.0-135.0", "trial": 5, "time_elapsed": 889260, "serialpos": 4, "key_press": -1, "wordID": 210, "type": "PRES_AUD", "trial_index": 189}, "uniqueid": "MTK3737:3DIP6YHAPDZLPJ59C9BYAZSRNDW8E9", "dateTime": 1520985379061}, {"current_trial": 190, "trialdata": {"rt": -1000, "trial_type": "single-audio", "word": "waitress", "stimulus": "/static/audio/wordpool/WAITRESS.wav", "conditions": [24, 800, "a", 12000], "internal_node_id": "0.0-136.0", "trial": 5, "time_elapsed": 891156, "serialpos": 5, "key_press": -1, "wordID": 1580, "type": "PRES_AUD", "trial_index": 190}, "uniqueid": "MTK3737:3DIP6YHAPDZLPJ59C9BYAZSRNDW8E9", "dateTime": 1520985380957}, {"current_trial": 191, "trialdata": {"rt": -1000, "trial_type": "single-audio", "word": "tablet", "stimulus": "/static/audio/wordpool/TABLET.wav", "conditions": [24, 800, "a", 12000], "internal_node_id": "0.0-137.0", "trial": 5, "time_elapsed": 893004, "serialpos": 6, "key_press": -1, "wordID": 1426, "type": "PRES_AUD", "trial_index": 191}, "uniqueid": "MTK3737:3DIP6YHAPDZLPJ59C9BYAZSRNDW8E9", "dateTime": 1520985382807}, {"current_trial": 192, "trialdata": {"rt": -1000, "trial_type": "single-audio", "word": "plaster", "stimulus": "/static/audio/wordpool/PLASTER.wav", "conditions": [24, 800, "a", 12000], "internal_node_id": "0.0-138.0", "trial": 5, "time_elapsed": 894662, "serialpos": 7, "key_press": -1, "wordID": 1084, "type": "PRES_AUD", "trial_index": 192}, "uniqueid": "MTK3737:3DIP6YHAPDZLPJ59C9BYAZSRNDW8E9", "dateTime": 1520985384463}, {"current_trial": 193, "trialdata": {"rt": -1000, "trial_type": "single-audio", "word": "hostess", "stimulus": "/static/audio/wordpool/HOSTESS.wav", "conditions": [24, 800, "a", 12000], "internal_node_id": "0.0-139.0", "trial": 5, "time_elapsed": 896386, "serialpos": 8, "key_press": -1, "wordID": 722, "type": "PRES_AUD", "trial_index": 193}, "uniqueid": "MTK3737:3DIP6YHAPDZLPJ59C9BYAZSRNDW8E9", "dateTime": 1520985386187}, {"current_trial": 194, "trialdata": {"rt": -1000, "trial_type": "single-audio", "word": "kitchen", "stimulus": "/static/audio/wordpool/KITCHEN.wav", "conditions": [24, 800, "a", 12000], "internal_node_id": "0.0-140.0", "trial": 5, "time_elapsed": 898250, "serialpos": 9, "key_press": -1, "wordID": 777, "type": "PRES_AUD", "trial_index": 194}, "uniqueid": "MTK3737:3DIP6YHAPDZLPJ59C9BYAZSRNDW8E9", "dateTime": 1520985388051}, {"current_trial": 195, "trialdata": {"rt": -1000, "trial_type": "single-audio", "word": "cupboard", "stimulus": "/static/audio/wordpool/CUPBOARD.wav", "conditions": [24, 800, "a", 12000], "internal_node_id": "0.0-141.0", "trial": 5, "time_elapsed": 899982, "serialpos": 10, "key_press": -1, "wordID": 424, "type": "PRES_AUD", "trial_index": 195}, "uniqueid": "MTK3737:3DIP6YHAPDZLPJ59C9BYAZSRNDW8E9", "dateTime": 1520985389784}, {"current_trial": 196, "trialdata": {"rt": -1000, "trial_type": "single-audio", "word": "banker", "stimulus": "/static/audio/wordpool/BANKER.wav", "conditions": [24, 800, "a", 12000], "internal_node_id": "0.0-142.0", "trial": 5, "time_elapsed": 901892, "serialpos": 11, "key_press": -1, "wordID": 83, "type": "PRES_AUD", "trial_index": 196}, "uniqueid": "MTK3737:3DIP6YHAPDZLPJ59C9BYAZSRNDW8E9", "dateTime": 1520985391693}, {"current_trial": 197, "trialdata": {"rt": -1000, "trial_type": "single-audio", "word": "crevice", "stimulus": "/static/audio/wordpool/CREVICE.wav", "conditions": [24, 800, "a", 12000], "internal_node_id": "0.0-143.0", "trial": 5, "time_elapsed": 903769, "serialpos": 12, "key_press": -1, "wordID": 404, "type": "PRES_AUD", "trial_index": 197}, "uniqueid": "MTK3737:3DIP6YHAPDZLPJ59C9BYAZSRNDW8E9", "dateTime": 1520985393571}, {"current_trial": 198, "trialdata": {"rt": -1000, "trial_type": "single-audio", "word": "sibling", "stimulus": "/static/audio/wordpool/SIBLING.wav", "conditions": [24, 800, "a", 12000], "internal_node_id": "0.0-144.0", "trial": 5, "time_elapsed": 905458, "serialpos": 13, "key_press": -1, "wordID": 1300, "type": "PRES_AUD", "trial_index": 198}, "uniqueid": "MTK3737:3DIP6YHAPDZLPJ59C9BYAZSRNDW8E9", "dateTime": 1520985395260}, {"current_trial": 199, "trialdata": {"rt": -1000, "trial_type": "single-audio", "word": "sister", "stimulus": "/static/audio/wordpool/SISTER.wav", "conditions": [24, 800, "a", 12000], "internal_node_id": "0.0-145.0", "trial": 5, "time_elapsed": 907079, "serialpos": 14, "key_press": -1, "wordID": 1311, "type": "PRES_AUD", "trial_index": 199}, "uniqueid": "MTK3737:3DIP6YHAPDZLPJ59C9BYAZSRNDW8E9", "dateTime": 1520985396881}, {"current_trial": 200, "trialdata": {"rt": -1000, "trial_type": "single-audio", "word": "carrot", "stimulus": "/static/audio/wordpool/CARROT.wav", "conditions": [24, 800, "a", 12000], "internal_node_id": "0.0-146.0", "trial": 5, "time_elapsed": 908930, "serialpos": 15, "key_press": -1, "wordID": 248, "type": "PRES_AUD", "trial_index": 200}, "uniqueid": "MTK3737:3DIP6YHAPDZLPJ59C9BYAZSRNDW8E9", "dateTime": 1520985398731}, {"current_trial": 201, "trialdata": {"rt": -1000, "trial_type": "single-audio", "word": "wardrobe", "stimulus": "/static/audio/wordpool/WARDROBE.wav", "conditions": [24, 800, "a", 12000], "internal_node_id": "0.0-147.0", "trial": 5, "time_elapsed": 910571, "serialpos": 16, "key_press": -1, "wordID": 1586, "type": "PRES_AUD", "trial_index": 201}, "uniqueid": "MTK3737:3DIP6YHAPDZLPJ59C9BYAZSRNDW8E9", "dateTime": 1520985400372}, {"current_trial": 202, "trialdata": {"rt": -1000, "trial_type": "single-audio", "word": "ghetto", "stimulus": "/static/audio/wordpool/GHETTO.wav", "conditions": [24, 800, "a", 12000], "internal_node_id": "0.0-148.0", "trial": 5, "time_elapsed": 912353, "serialpos": 17, "key_press": -1, "wordID": 632, "type": "PRES_AUD", "trial_index": 202}, "uniqueid": "MTK3737:3DIP6YHAPDZLPJ59C9BYAZSRNDW8E9", "dateTime": 1520985402155}, {"current_trial": 203, "trialdata": {"rt": -1000, "trial_type": "single-audio", "word": "egypt", "stimulus": "/static/audio/wordpool/EGYPT.wav", "conditions": [24, 800, "a", 12000], "internal_node_id": "0.0-149.0", "trial": 5, "time_elapsed": 914060, "serialpos": 18, "key_press": -1, "wordID": 518, "type": "PRES_AUD", "trial_index": 203}, "uniqueid": "MTK3737:3DIP6YHAPDZLPJ59C9BYAZSRNDW8E9", "dateTime": 1520985403861}, {"current_trial": 204, "trialdata": {"rt": -1000, "trial_type": "single-audio", "word": "cattle", "stimulus": "/static/audio/wordpool/CATTLE.wav", "conditions": [24, 800, "a", 12000], "internal_node_id": "0.0-150.0", "trial": 5, "time_elapsed": 915751, "serialpos": 19, "key_press": -1, "wordID": 260, "type": "PRES_AUD", "trial_index": 204}, "uniqueid": "MTK3737:3DIP6YHAPDZLPJ59C9BYAZSRNDW8E9", "dateTime": 1520985405554}, {"current_trial": 205, "trialdata": {"rt": -1000, "trial_type": "single-audio", "word": "foot", "stimulus": "/static/audio/wordpool/FOOT.wav", "conditions": [24, 800, "a", 12000], "internal_node_id": "0.0-151.0", "trial": 5, "time_elapsed": 917571, "serialpos": 20, "key_press": -1, "wordID": 589, "type": "PRES_AUD", "trial_index": 205}, "uniqueid": "MTK3737:3DIP6YHAPDZLPJ59C9BYAZSRNDW8E9", "dateTime": 1520985407372}, {"current_trial": 206, "trialdata": {"rt": -1000, "trial_type": "single-audio", "word": "oyster", "stimulus": "/static/audio/wordpool/OYSTER.wav", "conditions": [24, 800, "a", 12000], "internal_node_id": "0.0-152.0", "trial": 5, "time_elapsed": 919416, "serialpos": 21, "key_press": -1, "wordID": 994, "type": "PRES_AUD", "trial_index": 206}, "uniqueid": "MTK3737:3DIP6YHAPDZLPJ59C9BYAZSRNDW8E9", "dateTime": 1520985409217}, {"current_trial": 207, "trialdata": {"rt": -1000, "trial_type": "single-audio", "word": "clothes", "stimulus": "/static/audio/wordpool/CLOTHES.wav", "conditions": [24, 800, "a", 12000], "internal_node_id": "0.0-153.0", "trial": 5, "time_elapsed": 921384, "serialpos": 22, "key_press": -1, "wordID": 326, "type": "PRES_AUD", "trial_index": 207}, "uniqueid": "MTK3737:3DIP6YHAPDZLPJ59C9BYAZSRNDW8E9", "dateTime": 1520985411185}, {"current_trial": 208, "trialdata": {"rt": -1000, "trial_type": "single-audio", "word": "flower", "stimulus": "/static/audio/wordpool/FLOWER.wav", "conditions": [24, 800, "a", 12000], "internal_node_id": "0.0-154.0", "trial": 5, "time_elapsed": 923199, "serialpos": 23, "key_press": -1, "wordID": 583, "type": "PRES_AUD", "trial_index": 208}, "uniqueid": "MTK3737:3DIP6YHAPDZLPJ59C9BYAZSRNDW8E9", "dateTime": 1520985413001}, {"current_trial": 209, "trialdata": {"rt": -1, "trial_type": "single-stim", "stimulus": "", "internal_node_id": "0.0-155.0-0.0", "time_elapsed": 924557, "key_press": -1, "type": "PRE_RECALL_DELAY", "trial_index": 209}, "uniqueid": "MTK3737:3DIP6YHAPDZLPJ59C9BYAZSRNDW8E9", "dateTime": 1520985414358}, {"current_trial": 210, "trialdata": {"rt": -1000, "trial_type": "single-audio", "stimulus": "/static/audio/400Hz.wav", "internal_node_id": "0.0-156.0", "time_elapsed": 925060, "key_press": -1, "type": "PRE_RECALL_ALERT", "trial_index": 210}, "uniqueid": "MTK3737:3DIP6YHAPDZLPJ59C9BYAZSRNDW8E9", "dateTime": 1520985414862}, {"current_trial": 211, "trialdata": {"rt": [4037, 11597, 15710, 17798, 18559, 20317, 23355, 25139, 40977], "recwords": ["flour", "egypt", "beef", "bison", "", "sister", "carrot", "ghetto", "flour"], "key_times": [2171, 2479, 2661, 2809, 2926, 4037, 4747, 4899, 5456, 5970, 6107, 6189, 6353, 7356, 7512, 8376, 8534, 8693, 8822, 9052, 9515, 9609, 9798, 10192, 10347, 10515, 10663, 10811, 10969, 11204, 11368, 11597, 14598, 14790, 14991, 15212, 15710, 16083, 16287, 16453, 16606, 16824, 17798, 18559, 18887, 19070, 19517, 19768, 19947, 20052, 20317, 21170, 21329, 21521, 21666, 21846, 21952, 23355, 23875, 24067, 24229, 24403, 24536, 24809, 25139, 39616, 39715, 39921, 40066, 40159, 40977], "trial_type": "free-recall", "conditions": [24, 800, "a", 12000], "internal_node_id": "0.0-157.0-0.0", "key_presses": [70, 76, 79, 85, 82, 13, 69, 89, 71, 8, 8, 71, 89, 80, 84, 8, 8, 8, 8, 89, 71, 80, 84, 8, 8, 8, 8, 71, 89, 80, 84, 13, 66, 69, 69, 70, 13, 66, 73, 83, 79, 78, 13, 32, 83, 73, 83, 84, 69, 82, 13, 67, 65, 82, 82, 79, 84, 13, 71, 72, 69, 84, 84, 79, 13, 70, 76, 79, 85, 82, 13], "trial": 5, "time_elapsed": 985071, "type": "FREE_RECALL", "trial_index": 211}, "uniqueid": "MTK3737:3DIP6YHAPDZLPJ59C9BYAZSRNDW8E9", "dateTime": 1520985474888}, {"current_trial": 212, "trialdata": {"rt": 4248, "trial_type": "text", "internal_node_id": "0.0-158.0", "time_elapsed": 991338, "key_press": 13, "type": "INSTRUCTIONS", "trial_index": 212}, "uniqueid": "MTK3737:3DIP6YHAPDZLPJ59C9BYAZSRNDW8E9", "dateTime": 1520985481139}, {"current_trial": 213, "trialdata": {"rt": [3194, 6270, 8869, 10981, 14191, 17023, 20831], "trial_type": "math-distractor", "key_times": [2791, 2976, 3194, 5716, 5903, 6270, 8547, 8869, 10512, 10698, 10981, 13410, 13616, 14191, 16557, 16702, 17023, 19988, 20548, 20831], "responses": ["20", "24", "8", "14", "16", "11", "22"], "num2": [7, 6, 4, 7, 9, 4, 8, 6], "num3": [8, 8, 3, 5, 4, 4, 6, 9], "conditions": [24, 800, "a", 24000], "internal_node_id": "0.0-159.0", "key_presses": [98, 96, 13, 98, 100, 13, 104, 13, 97, 100, 13, 97, 102, 13, 97, 97, 13, 98, 98, 13], "trial": 6, "time_elapsed": 1017341, "type": "DISTRACTOR", "trial_index": 213, "num1": [6, 8, 1, 2, 3, 3, 7, 3]}, "uniqueid": "MTK3737:3DIP6YHAPDZLPJ59C9BYAZSRNDW8E9", "dateTime": 1520985507142}, {"current_trial": 214, "trialdata": {"rt": -1, "trial_type": "single-stim", "stimulus": "<p id=\"stim\">10</p>", "internal_node_id": "0.0-160.0-0.0", "time_elapsed": 1020343, "key_press": -1, "trial_index": 214}, "uniqueid": "MTK3737:3DIP6YHAPDZLPJ59C9BYAZSRNDW8E9", "dateTime": 1520985510144}, {"current_trial": 215, "trialdata": {"rt": -1, "trial_type": "single-stim", "stimulus": "<p id=\"stim\">9</p>", "internal_node_id": "0.0-160.0-1.0", "time_elapsed": 1021344, "key_press": -1, "trial_index": 215}, "uniqueid": "MTK3737:3DIP6YHAPDZLPJ59C9BYAZSRNDW8E9", "dateTime": 1520985511145}, {"current_trial": 216, "trialdata": {"rt": -1, "trial_type": "single-stim", "stimulus": "<p id=\"stim\">8</p>", "internal_node_id": "0.0-160.0-2.0", "time_elapsed": 1022345, "key_press": -1, "trial_index": 216}, "uniqueid": "MTK3737:3DIP6YHAPDZLPJ59C9BYAZSRNDW8E9", "dateTime": 1520985512146}, {"current_trial": 217, "trialdata": {"rt": -1, "trial_type": "single-stim", "stimulus": "<p id=\"stim\">7</p>", "internal_node_id": "0.0-160.0-3.0", "time_elapsed": 1023347, "key_press": -1, "trial_index": 217}, "uniqueid": "MTK3737:3DIP6YHAPDZLPJ59C9BYAZSRNDW8E9", "dateTime": 1520985513148}, {"current_trial": 218, "trialdata": {"rt": -1, "trial_type": "single-stim", "stimulus": "<p id=\"stim\">6</p>", "internal_node_id": "0.0-160.0-4.0", "time_elapsed": 1024347, "key_press": -1, "trial_index": 218}, "uniqueid": "MTK3737:3DIP6YHAPDZLPJ59C9BYAZSRNDW8E9", "dateTime": 1520985514148}, {"current_trial": 219, "trialdata": {"rt": -1, "trial_type": "single-stim", "stimulus": "<p id=\"stim\">5</p>", "internal_node_id": "0.0-160.0-5.0", "time_elapsed": 1025349, "key_press": -1, "trial_index": 219}, "uniqueid": "MTK3737:3DIP6YHAPDZLPJ59C9BYAZSRNDW8E9", "dateTime": 1520985515150}, {"current_trial": 220, "trialdata": {"rt": -1, "trial_type": "single-stim", "stimulus": "<p id=\"stim\">4</p>", "internal_node_id": "0.0-160.0-6.0", "time_elapsed": 1026352, "key_press": -1, "trial_index": 220}, "uniqueid": "MTK3737:3DIP6YHAPDZLPJ59C9BYAZSRNDW8E9", "dateTime": 1520985516154}, {"current_trial": 221, "trialdata": {"rt": -1, "trial_type": "single-stim", "stimulus": "<p id=\"stim\">3</p>", "internal_node_id": "0.0-160.0-7.0", "time_elapsed": 1027354, "key_press": -1, "trial_index": 221}, "uniqueid": "MTK3737:3DIP6YHAPDZLPJ59C9BYAZSRNDW8E9", "dateTime": 1520985517156}, {"current_trial": 222, "trialdata": {"rt": -1, "trial_type": "single-stim", "stimulus": "<p id=\"stim\">2</p>", "internal_node_id": "0.0-160.0-8.0", "time_elapsed": 1028360, "key_press": -1, "trial_index": 222}, "uniqueid": "MTK3737:3DIP6YHAPDZLPJ59C9BYAZSRNDW8E9", "dateTime": 1520985518161}, {"current_trial": 223, "trialdata": {"rt": -1, "trial_type": "single-stim", "stimulus": "<p id=\"stim\">1</p>", "internal_node_id": "0.0-160.0-9.0", "time_elapsed": 1029361, "key_press": -1, "trial_index": 223}, "uniqueid": "MTK3737:3DIP6YHAPDZLPJ59C9BYAZSRNDW8E9", "dateTime": 1520985519162}, {"current_trial": 224, "trialdata": {"rt": -1, "trial_type": "single-stim", "stimulus": "<p id=\"stim\">+</p>", "internal_node_id": "0.0-161.0-0.0", "time_elapsed": 1030864, "key_press": -1, "type": "FIXATION", "trial_index": 224}, "uniqueid": "MTK3737:3DIP6YHAPDZLPJ59C9BYAZSRNDW8E9", "dateTime": 1520985520665}, {"current_trial": 225, "trialdata": {"rt": -1000, "trial_type": "single-audio", "word": "leopard", "stimulus": "/static/audio/wordpool/LEOPARD.wav", "conditions": [24, 800, "a", 24000], "internal_node_id": "0.0-162.0", "trial": 6, "time_elapsed": 1032588, "serialpos": 0, "key_press": -1, "wordID": 811, "type": "PRES_AUD", "trial_index": 225}, "uniqueid": "MTK3737:3DIP6YHAPDZLPJ59C9BYAZSRNDW8E9", "dateTime": 1520985522390}, {"current_trial": 226, "trialdata": {"rt": -1000, "trial_type": "single-audio", "word": "robin", "stimulus": "/static/audio/wordpool/ROBIN.wav", "conditions": [24, 800, "a", 24000], "internal_node_id": "0.0-163.0", "trial": 6, "time_elapsed": 1034530, "serialpos": 1, "key_press": -1, "wordID": 1198, "type": "PRES_AUD", "trial_index": 226}, "uniqueid": "MTK3737:3DIP6YHAPDZLPJ59C9BYAZSRNDW8E9", "dateTime": 1520985524333}, {"current_trial": 227, "trialdata": {"rt": -1000, "trial_type": "single-audio", "word": "paddle", "stimulus": "/static/audio/wordpool/PADDLE.wav", "conditions": [24, 800, "a", 24000], "internal_node_id": "0.0-164.0", "trial": 6, "time_elapsed": 1036435, "serialpos": 2, "key_press": -1, "wordID": 999, "type": "PRES_AUD", "trial_index": 227}, "uniqueid": "MTK3737:3DIP6YHAPDZLPJ59C9BYAZSRNDW8E9", "dateTime": 1520985526236}, {"current_trial": 228, "trialdata": {"rt": -1000, "trial_type": "single-audio", "word": "stamp", "stimulus": "/static/audio/wordpool/STAMP.wav", "conditions": [24, 800, "a", 24000], "internal_node_id": "0.0-165.0", "trial": 6, "time_elapsed": 1038179, "serialpos": 3, "key_press": -1, "wordID": 1369, "type": "PRES_AUD", "trial_index": 228}, "uniqueid": "MTK3737:3DIP6YHAPDZLPJ59C9BYAZSRNDW8E9", "dateTime": 1520985527980}, {"current_trial": 229, "trialdata": {"rt": -1000, "trial_type": "single-audio", "word": "widow", "stimulus": "/static/audio/wordpool/WIDOW.wav", "conditions": [24, 800, "a", 24000], "internal_node_id": "0.0-166.0", "trial": 6, "time_elapsed": 1039798, "serialpos": 4, "key_press": -1, "wordID": 1607, "type": "PRES_AUD", "trial_index": 229}, "uniqueid": "MTK3737:3DIP6YHAPDZLPJ59C9BYAZSRNDW8E9", "dateTime": 1520985529599}, {"current_trial": 230, "trialdata": {"rt": -1000, "trial_type": "single-audio", "word": "bucket", "stimulus": "/static/audio/wordpool/BUCKET.wav", "conditions": [24, 800, "a", 24000], "internal_node_id": "0.0-167.0", "trial": 6, "time_elapsed": 1041465, "serialpos": 5, "key_press": -1, "wordID": 183, "type": "PRES_AUD", "trial_index": 230}, "uniqueid": "MTK3737:3DIP6YHAPDZLPJ59C9BYAZSRNDW8E9", "dateTime": 1520985531266}, {"current_trial": 231, "trialdata": {"rt": -1000, "trial_type": "single-audio", "word": "transplant", "stimulus": "/static/audio/wordpool/TRANSPLANT.wav", "conditions": [24, 800, "a", 24000], "internal_node_id": "0.0-168.0", "trial": 6, "time_elapsed": 1043103, "serialpos": 6, "key_press": -1, "wordID": 1495, "type": "PRES_AUD", "trial_index": 231}, "uniqueid": "MTK3737:3DIP6YHAPDZLPJ59C9BYAZSRNDW8E9", "dateTime": 1520985532905}, {"current_trial": 232, "trialdata": {"rt": -1000, "trial_type": "single-audio", "word": "mammal", "stimulus": "/static/audio/wordpool/MAMMAL.wav", "conditions": [24, 800, "a", 24000], "internal_node_id": "0.0-169.0", "trial": 6, "time_elapsed": 1045053, "serialpos": 7, "key_press": -1, "wordID": 860, "type": "PRES_AUD", "trial_index": 232}, "uniqueid": "MTK3737:3DIP6YHAPDZLPJ59C9BYAZSRNDW8E9", "dateTime": 1520985534855}, {"current_trial": 233, "trialdata": {"rt": -1000, "trial_type": "single-audio", "word": "penguin", "stimulus": "/static/audio/wordpool/PENGUIN.wav", "conditions": [24, 800, "a", 24000], "internal_node_id": "0.0-170.0", "trial": 6, "time_elapsed": 1047002, "serialpos": 8, "key_press": -1, "wordID": 1043, "type": "PRES_AUD", "trial_index": 233}, "uniqueid": "MTK3737:3DIP6YHAPDZLPJ59C9BYAZSRNDW8E9", "dateTime": 1520985536804}, {"current_trial": 234, "trialdata": {"rt": -1000, "trial_type": "single-audio", "word": "college", "stimulus": "/static/audio/wordpool/COLLEGE.wav", "conditions": [24, 800, "a", 24000], "internal_node_id": "0.0-171.0", "trial": 6, "time_elapsed": 1048806, "serialpos": 9, "key_press": -1, "wordID": 345, "type": "PRES_AUD", "trial_index": 234}, "uniqueid": "MTK3737:3DIP6YHAPDZLPJ59C9BYAZSRNDW8E9", "dateTime": 1520985538609}, {"current_trial": 235, "trialdata": {"rt": -1000, "trial_type": "single-audio", "word": "candy", "stimulus": "/static/audio/wordpool/CANDY.wav", "conditions": [24, 800, "a", 24000], "internal_node_id": "0.0-172.0", "trial": 6, "time_elapsed": 1050604, "serialpos": 10, "key_press": -1, "wordID": 229, "type": "PRES_AUD", "trial_index": 235}, "uniqueid": "MTK3737:3DIP6YHAPDZLPJ59C9BYAZSRNDW8E9", "dateTime": 1520985540405}, {"current_trial": 236, "trialdata": {"rt": -1000, "trial_type": "single-audio", "word": "uncle", "stimulus": "/static/audio/wordpool/UNCLE.wav", "conditions": [24, 800, "a", 24000], "internal_node_id": "0.0-173.0", "trial": 6, "time_elapsed": 1052481, "serialpos": 11, "key_press": -1, "wordID": 1535, "type": "PRES_AUD", "trial_index": 236}, "uniqueid": "MTK3737:3DIP6YHAPDZLPJ59C9BYAZSRNDW8E9", "dateTime": 1520985542283}, {"current_trial": 237, "trialdata": {"rt": -1000, "trial_type": "single-audio", "word": "camel", "stimulus": "/static/audio/wordpool/CAMEL.wav", "conditions": [24, 800, "a", 24000], "internal_node_id": "0.0-174.0", "trial": 6, "time_elapsed": 1054136, "serialpos": 12, "key_press": -1, "wordID": 222, "type": "PRES_AUD", "trial_index": 237}, "uniqueid": "MTK3737:3DIP6YHAPDZLPJ59C9BYAZSRNDW8E9", "dateTime": 1520985543937}, {"current_trial": 238, "trialdata": {"rt": -1000, "trial_type": "single-audio", "word": "tweezers", "stimulus": "/static/audio/wordpool/TWEEZERS.wav", "conditions": [24, 800, "a", 24000], "internal_node_id": "0.0-175.0", "trial": 6, "time_elapsed": 1056062, "serialpos": 13, "key_press": -1, "wordID": 1525, "type": "PRES_AUD", "trial_index": 238}, "uniqueid": "MTK3737:3DIP6YHAPDZLPJ59C9BYAZSRNDW8E9", "dateTime": 1520985545864}, {"current_trial": 239, "trialdata": {"rt": -1000, "trial_type": "single-audio", "word": "bank", "stimulus": "/static/audio/wordpool/BANK.wav", "conditions": [24, 800, "a", 24000], "internal_node_id": "0.0-176.0", "trial": 6, "time_elapsed": 1057808, "serialpos": 14, "key_press": -1, "wordID": 82, "type": "PRES_AUD", "trial_index": 239}, "uniqueid": "MTK3737:3DIP6YHAPDZLPJ59C9BYAZSRNDW8E9", "dateTime": 1520985547609}, {"current_trial": 240, "trialdata": {"rt": -1000, "trial_type": "single-audio", "word": "branch", "stimulus": "/static/audio/wordpool/BRANCH.wav", "conditions": [24, 800, "a", 24000], "internal_node_id": "0.0-177.0", "trial": 6, "time_elapsed": 1059590, "serialpos": 15, "key_press": -1, "wordID": 167, "type": "PRES_AUD", "trial_index": 240}, "uniqueid": "MTK3737:3DIP6YHAPDZLPJ59C9BYAZSRNDW8E9", "dateTime": 1520985549393}, {"current_trial": 241, "trialdata": {"rt": -1000, "trial_type": "single-audio", "word": "donkey", "stimulus": "/static/audio/wordpool/DONKEY.wav", "conditions": [24, 800, "a", 24000], "internal_node_id": "0.0-178.0", "trial": 6, "time_elapsed": 1061386, "serialpos": 16, "key_press": -1, "wordID": 483, "type": "PRES_AUD", "trial_index": 241}, "uniqueid": "MTK3737:3DIP6YHAPDZLPJ59C9BYAZSRNDW8E9", "dateTime": 1520985551187}, {"current_trial": 242, "trialdata": {"rt": -1000, "trial_type": "single-audio", "word": "parrot", "stimulus": "/static/audio/wordpool/PARROT.wav", "conditions": [24, 800, "a", 24000], "internal_node_id": "0.0-179.0", "trial": 6, "time_elapsed": 1063098, "serialpos": 17, "key_press": -1, "wordID": 1014, "type": "PRES_AUD", "trial_index": 242}, "uniqueid": "MTK3737:3DIP6YHAPDZLPJ59C9BYAZSRNDW8E9", "dateTime": 1520985552900}, {"current_trial": 243, "trialdata": {"rt": -1000, "trial_type": "single-audio", "word": "item", "stimulus": "/static/audio/wordpool/ITEM.wav", "conditions": [24, 800, "a", 24000], "internal_node_id": "0.0-180.0", "trial": 6, "time_elapsed": 1065026, "serialpos": 18, "key_press": -1, "wordID": 745, "type": "PRES_AUD", "trial_index": 243}, "uniqueid": "MTK3737:3DIP6YHAPDZLPJ59C9BYAZSRNDW8E9", "dateTime": 1520985554827}, {"current_trial": 244, "trialdata": {"rt": -1000, "trial_type": "single-audio", "word": "trench", "stimulus": "/static/audio/wordpool/TRENCH.wav", "conditions": [24, 800, "a", 24000], "internal_node_id": "0.0-181.0", "trial": 6, "time_elapsed": 1066985, "serialpos": 19, "key_press": -1, "wordID": 1502, "type": "PRES_AUD", "trial_index": 244}, "uniqueid": "MTK3737:3DIP6YHAPDZLPJ59C9BYAZSRNDW8E9", "dateTime": 1520985556786}, {"current_trial": 245, "trialdata": {"rt": -1000, "trial_type": "single-audio", "word": "carriage", "stimulus": "/static/audio/wordpool/CARRIAGE.wav", "conditions": [24, 800, "a", 24000], "internal_node_id": "0.0-182.0", "trial": 6, "time_elapsed": 1068792, "serialpos": 20, "key_press": -1, "wordID": 247, "type": "PRES_AUD", "trial_index": 245}, "uniqueid": "MTK3737:3DIP6YHAPDZLPJ59C9BYAZSRNDW8E9", "dateTime": 1520985558593}, {"current_trial": 246, "trialdata": {"rt": -1000, "trial_type": "single-audio", "word": "flask", "stimulus": "/static/audio/wordpool/FLASK.wav", "conditions": [24, 800, "a", 24000], "internal_node_id": "0.0-183.0", "trial": 6, "time_elapsed": 1070453, "serialpos": 21, "key_press": -1, "wordID": 575, "type": "PRES_AUD", "trial_index": 246}, "uniqueid": "MTK3737:3DIP6YHAPDZLPJ59C9BYAZSRNDW8E9", "dateTime": 1520985560256}, {"current_trial": 247, "trialdata": {"rt": -1000, "trial_type": "single-audio", "word": "brook", "stimulus": "/static/audio/wordpool/BROOK.wav", "conditions": [24, 800, "a", 24000], "internal_node_id": "0.0-184.0", "trial": 6, "time_elapsed": 1072263, "serialpos": 22, "key_press": -1, "wordID": 176, "type": "PRES_AUD", "trial_index": 247}, "uniqueid": "MTK3737:3DIP6YHAPDZLPJ59C9BYAZSRNDW8E9", "dateTime": 1520985562065}, {"current_trial": 248, "trialdata": {"rt": -1000, "trial_type": "single-audio", "word": "ankle", 