{"assignmentId": "3GGAI1SQEW5LDANZAJFMPTTJL4GMCL", "workerId": "MTK3100", "questiondata": {"origin": "United States", "strat-rehearsal": "4", "marital": "Single", "education": "High school diploma", "ethnicity": "Not Hispanic", "color_depth": 24, "distracted": "No", "wrote-notes": "No", "strat-other": "", "screen_width": 1366, "avail_screen_width": 1366, "avail_screen_height": 728, "strat-image": "31", "language": "English", "gender": "Female", "age": "31", "gender_other": "", "race": ["White"], "strat-categorize": "41", "pixel_depth": 24, "strat-spatial": "0", "strat-story": "7", "race_other": "", "screen_height": 768}, "bonus": 0, "hitId": "3DW3BNF1GHP04AT1HXV6LJKT2HJV88", "counterbalance": 468, "useragent": "Mozilla/5.0 (Windows NT 10.0; Win64; x64) AppleWebKit/537.36 (KHTML, like Gecko) Chrome/64.0.3282.186 Safari/537.36", "eventdata": [{"eventtype": "initialized", "interval": 0, "value": null, "timestamp": 1520014967387}, {"eventtype": "window_resize", "interval": 0, "value": [1366, 721], "timestamp": 1520014967387}, {"eventtype": "window_resize", "interval": 2961, "value": [1366, 677], "timestamp": 1520014970348}, {"eventtype": "focus", "interval": 17573, "value": "off", "timestamp": 1520014987921}, {"eventtype": "focus", "interval": 5015, "value": "on", "timestamp": 1520014992936}, {"eventtype": "focus", "interval": 740234, "value": "off", "timestamp": 1520015733170}, {"eventtype": "focus", "interval": 18208, "value": "on", "timestamp": 1520015751378}, {"eventtype": "focus", "interval": 20670, "value": "off", "timestamp": 1520015772048}, {"eventtype": "focus", "interval": 4668, "value": "on", "timestamp": 1520015776716}, {"eventtype": "focus", "interval": 439977, "value": "off", "timestamp": 1520016216693}, {"eventtype": "focus", "interval": 7888, "value": "on", "timestamp": 1520016224581}, {"eventtype": "focus", "interval": 234355, "value": "off", "timestamp": 1520016458936}, {"eventtype": "focus", "interval": 1673, "value": "on", "timestamp": 1520016460609}, {"eventtype": "focus", "interval": 744173, "value": "off", "timestamp": 1520017204782}, {"eventtype": "focus", "interval": 10143, "value": "on", "timestamp": 1520017214925}, {"eventtype": "focus", "interval": 108489, "value": "off", "timestamp": 1520017323414}, {"eventtype": "focus", "interval": 10968, "value": "on", "timestamp": 1520017334382}, {"eventtype": "focus", "interval": 274966, "value": "off", "timestamp": 1520017609348}, {"eventtype": "focus", "interval": 3125, "value": "on", "timestamp": 1520017612473}, {"eventtype": "focus", "interval": 274515, "value": "off", "timestamp": 1520017886988}, {"eventtype": "focus", "interval": 5127, "value": "on", "timestamp": 1520017892115}, {"eventtype": "focus", "interval": 32365, "value": "off", "timestamp": 1520017924480}, {"eventtype": "focus", "interval": 1620, "value": "on", "timestamp": 1520017926100}], "data": [{"current_trial": 0, "trialdata": {"rt": 2705, "trial_type": "text", "internal_node_id": "0.0-0.0", "time_elapsed": 2707, "key_press": 32, "type": "INSTRUCTIONS", "trial_index": 0}, "uniqueid": "MTK3100:3GGAI1SQEW5LDANZAJFMPTTJL4GMCL", "dateTime": 1520014993126}, {"current_trial": 1, "trialdata": {"rt": 12232, "trial_type": "text", "internal_node_id": "0.0-1.0", "time_elapsed": 14943, "key_press": 32, "type": "INSTRUCTIONS", "trial_index": 1}, "uniqueid": "MTK3100:3GGAI1SQEW5LDANZAJFMPTTJL4GMCL", "dateTime": 1520015005362}, {"current_trial": 2, "trialdata": {"rt": [44429], "trial_type": "audio-test", "responses": ["ocean"], "internal_node_id": "0.0-2.0", "time_elapsed": 59382, "type": "AUDIO_TEST", "trial_index": 2}, "uniqueid": "MTK3100:3GGAI1SQEW5LDANZAJFMPTTJL4GMCL", "dateTime": 1520015049802}, {"current_trial": 3, "trialdata": {"rt": [7649], "trial_type": "audio-test", "responses": ["crystal"], "internal_node_id": "0.0-3.0", "time_elapsed": 67035, "type": "AUDIO_TEST", "trial_index": 3}, "uniqueid": "MTK3100:3GGAI1SQEW5LDANZAJFMPTTJL4GMCL", "dateTime": 1520015057454}, {"current_trial": 4, "trialdata": {"rt": [4756], "trial_type": "audio-test", "responses": ["spice"], "internal_node_id": "0.0-4.0", "time_elapsed": 71795, "type": "AUDIO_TEST", "trial_index": 4}, "uniqueid": "MTK3100:3GGAI1SQEW5LDANZAJFMPTTJL4GMCL", "dateTime": 1520015062214}, {"current_trial": 5, "trialdata": {"rt": 18776, "trial_type": "survey-text", "responses": "{\"Q0\":\"4AM\",\"Q1\":\"10AM\",\"Q2\":\"3\"}", "internal_node_id": "0.0-5.0", "time_elapsed": 91324, "type": "SLEEP_SURVEY", "trial_index": 5}, "uniqueid": "MTK3100:3GGAI1SQEW5LDANZAJFMPTTJL4GMCL", "dateTime": 1520015081743}, {"current_trial": 6, "trialdata": {"rt": 25565, "trial_type": "text", "internal_node_id": "0.0-6.0", "time_elapsed": 117891, "key_press": 32, "type": "INSTRUCTIONS", "trial_index": 6}, "uniqueid": "MTK3100:3GGAI1SQEW5LDANZAJFMPTTJL4GMCL", "dateTime": 1520015108310}, {"current_trial": 7, "trialdata": {"rt": 10815, "trial_type": "text", "internal_node_id": "0.0-7.0", "time_elapsed": 129206, "key_press": 32, "type": "INSTRUCTIONS", "trial_index": 7}, "uniqueid": "MTK3100:3GGAI1SQEW5LDANZAJFMPTTJL4GMCL", "dateTime": 1520015119625}, {"current_trial": 8, "trialdata": {"rt": 6473, "trial_type": "text", "internal_node_id": "0.0-8.0", "time_elapsed": 136179, "key_press": 32, "type": "INSTRUCTIONS", "trial_index": 8}, "uniqueid": "MTK3100:3GGAI1SQEW5LDANZAJFMPTTJL4GMCL", "dateTime": 1520015126598}, {"current_trial": 9, "trialdata": {"rt": [3917, 6575, 10456, 13255, 16659], "trial_type": "math-distractor", "key_times": [3058, 3255, 3917, 6224, 6356, 6575, 10186, 10293, 10456, 12868, 13066, 13255, 16258, 16411, 16659], "responses": ["19", "18", "13", "14", "18"], "num2": [5, 8, 8, 8, 7, 1], "num3": [9, 5, 6, 4, 2, 7], "conditions": [18, 1200, "a", 18000], "internal_node_id": "0.0-9.0", "key_presses": [49, 57, 13, 49, 56, 13, 49, 51, 13, 49, 52, 13, 49, 56, 13], "trial": 0, "time_elapsed": 155185, "type": "DISTRACTOR", "trial_index": 9, "num1": [5, 5, 4, 2, 9, 2]}, "uniqueid": "MTK3100:3GGAI1SQEW5LDANZAJFMPTTJL4GMCL", "dateTime": 1520015145604}, {"current_trial": 10, "trialdata": {"rt": -1, "trial_type": "single-stim", "stimulus": "<p id=\"stim\">10</p>", "internal_node_id": "0.0-10.0-0.0", "time_elapsed": 158187, "key_press": -1, "trial_index": 10}, "uniqueid": "MTK3100:3GGAI1SQEW5LDANZAJFMPTTJL4GMCL", "dateTime": 1520015148607}, {"current_trial": 11, "trialdata": {"rt": -1, "trial_type": "single-stim", "stimulus": "<p id=\"stim\">9</p>", "internal_node_id": "0.0-10.0-1.0", "time_elapsed": 159189, "key_press": -1, "trial_index": 11}, "uniqueid": "MTK3100:3GGAI1SQEW5LDANZAJFMPTTJL4GMCL", "dateTime": 1520015149608}, {"current_trial": 12, "trialdata": {"rt": -1, "trial_type": "single-stim", "stimulus": "<p id=\"stim\">8</p>", "internal_node_id": "0.0-10.0-2.0", "time_elapsed": 160190, "key_press": -1, "trial_index": 12}, "uniqueid": "MTK3100:3GGAI1SQEW5LDANZAJFMPTTJL4GMCL", "dateTime": 1520015150610}, {"current_trial": 13, "trialdata": {"rt": -1, "trial_type": "single-stim", "stimulus": "<p id=\"stim\">7</p>", "internal_node_id": "0.0-10.0-3.0", "time_elapsed": 161191, "key_press": -1, "trial_index": 13}, "uniqueid": "MTK3100:3GGAI1SQEW5LDANZAJFMPTTJL4GMCL", "dateTime": 1520015151610}, {"current_trial": 14, "trialdata": {"rt": -1, "trial_type": "single-stim", "stimulus": "<p id=\"stim\">6</p>", "internal_node_id": "0.0-10.0-4.0", "time_elapsed": 162193, "key_press": -1, "trial_index": 14}, "uniqueid": "MTK3100:3GGAI1SQEW5LDANZAJFMPTTJL4GMCL", "dateTime": 1520015152612}, {"current_trial": 15, "trialdata": {"rt": -1, "trial_type": "single-stim", "stimulus": "<p id=\"stim\">5</p>", "internal_node_id": "0.0-10.0-5.0", "time_elapsed": 163194, "key_press": -1, "trial_index": 15}, "uniqueid": "MTK3100:3GGAI1SQEW5LDANZAJFMPTTJL4GMCL", "dateTime": 1520015153613}, {"current_trial": 16, "trialdata": {"rt": -1, "trial_type": "single-stim", "stimulus": "<p id=\"stim\">4</p>", "internal_node_id": "0.0-10.0-6.0", "time_elapsed": 164197, "key_press": -1, "trial_index": 16}, "uniqueid": "MTK3100:3GGAI1SQEW5LDANZAJFMPTTJL4GMCL", "dateTime": 1520015154616}, {"current_trial": 17, "trialdata": {"rt": -1, "trial_type": "single-stim", "stimulus": "<p id=\"stim\">3</p>", "internal_node_id": "0.0-10.0-7.0", "time_elapsed": 165198, "key_press": -1, "trial_index": 17}, "uniqueid": "MTK3100:3GGAI1SQEW5LDANZAJFMPTTJL4GMCL", "dateTime": 1520015155617}, {"current_trial": 18, "trialdata": {"rt": -1, "trial_type": "single-stim", "stimulus": "<p id=\"stim\">2</p>", "internal_node_id": "0.0-10.0-8.0", "time_elapsed": 166200, "key_press": -1, "trial_index": 18}, "uniqueid": "MTK3100:3GGAI1SQEW5LDANZAJFMPTTJL4GMCL", "dateTime": 1520015156619}, {"current_trial": 19, "trialdata": {"rt": -1, "trial_type": "single-stim", "stimulus": "<p id=\"stim\">1</p>", "internal_node_id": "0.0-10.0-9.0", "time_elapsed": 167202, "key_press": -1, "trial_index": 19}, "uniqueid": "MTK3100:3GGAI1SQEW5LDANZAJFMPTTJL4GMCL", "dateTime": 1520015157621}, {"current_trial": 20, "trialdata": {"rt": -1, "trial_type": "single-stim", "stimulus": "<p id=\"stim\">+</p>", "internal_node_id": "0.0-11.0-0.0", "time_elapsed": 168703, "key_press": -1, "type": "FIXATION", "trial_index": 20}, "uniqueid": "MTK3100:3GGAI1SQEW5LDANZAJFMPTTJL4GMCL", "dateTime": 1520015159122}, {"current_trial": 21, "trialdata": {"rt": -1000, "trial_type": "single-audio", "word": "tunnel", "stimulus": "/static/audio/wordpool/TUNNEL.wav", "conditions": [18, 1200, "a", 18000], "internal_node_id": "0.0-12.0", "trial": 0, "time_elapsed": 171097, "serialpos": 0, "key_press": -1, "wordID": 1518, "type": "PRES_AUD", "trial_index": 21}, "uniqueid": "MTK3100:3GGAI1SQEW5LDANZAJFMPTTJL4GMCL", "dateTime": 1520015161516}, {"current_trial": 22, "trialdata": {"rt": 961.3333333333571, "trial_type": "single-audio", "word": "robin", "stimulus": "/static/audio/wordpool/ROBIN.wav", "conditions": [18, 1200, "a", 18000], "internal_node_id": "0.0-13.0", "trial": 0, "time_elapsed": 173288, "serialpos": 1, "key_press": 175, "wordID": 1198, "type": "PRES_AUD", "trial_index": 22}, "uniqueid": "MTK3100:3GGAI1SQEW5LDANZAJFMPTTJL4GMCL", "dateTime": 1520015163707}, {"current_trial": 23, "trialdata": {"rt": -1000, "trial_type": "single-audio", "word": "nomad", "stimulus": "/static/audio/wordpool/NOMAD.wav", "conditions": [18, 1200, "a", 18000], "internal_node_id": "0.0-14.0", "trial": 0, "time_elapsed": 175509, "serialpos": 2, "key_press": -1, "wordID": 954, "type": "PRES_AUD", "trial_index": 23}, "uniqueid": "MTK3100:3GGAI1SQEW5LDANZAJFMPTTJL4GMCL", "dateTime": 1520015165928}, {"current_trial": 24, "trialdata": {"rt": -1000, "trial_type": "single-audio", "word": "canal", "stimulus": "/static/audio/wordpool/CANAL.wav", "conditions": [18, 1200, "a", 18000], "internal_node_id": "0.0-15.0", "trial": 0, "time_elapsed": 177754, "serialpos": 3, "key_press": -1, "wordID": 225, "type": "PRES_AUD", "trial_index": 24}, "uniqueid": "MTK3100:3GGAI1SQEW5LDANZAJFMPTTJL4GMCL", "dateTime": 1520015168173}, {"current_trial": 25, "trialdata": {"rt": -1000, "trial_type": "single-audio", "word": "record", "stimulus": "/static/audio/wordpool/RECORD.wav", "conditions": [18, 1200, "a", 18000], "internal_node_id": "0.0-16.0", "trial": 0, "time_elapsed": 179944, "serialpos": 4, "key_press": -1, "wordID": 1175, "type": "PRES_AUD", "trial_index": 25}, "uniqueid": "MTK3100:3GGAI1SQEW5LDANZAJFMPTTJL4GMCL", "dateTime": 1520015170363}, {"current_trial": 26, "trialdata": {"rt": -1000, "trial_type": "single-audio", "word": "leopard", "stimulus": "/static/audio/wordpool/LEOPARD.wav", "conditions": [18, 1200, "a", 18000], "internal_node_id": "0.0-17.0", "trial": 0, "time_elapsed": 182278, "serialpos": 5, "key_press": -1, "wordID": 811, "type": "PRES_AUD", "trial_index": 26}, "uniqueid": "MTK3100:3GGAI1SQEW5LDANZAJFMPTTJL4GMCL", "dateTime": 1520015172697}, {"current_trial": 27, "trialdata": {"rt": -1000, "trial_type": "single-audio", "word": "crutch", "stimulus": "/static/audio/wordpool/CRUTCH.wav", "conditions": [18, 1200, "a", 18000], "internal_node_id": "0.0-18.0", "trial": 0, "time_elapsed": 184532, "serialpos": 6, "key_press": -1, "wordID": 416, "type": "PRES_AUD", "trial_index": 27}, "uniqueid": "MTK3100:3GGAI1SQEW5LDANZAJFMPTTJL4GMCL", "dateTime": 1520015174951}, {"current_trial": 28, "trialdata": {"rt": -1000, "trial_type": "single-audio", "word": "dancer", "stimulus": "/static/audio/wordpool/DANCER.wav", "conditions": [18, 1200, "a", 18000], "internal_node_id": "0.0-19.0", "trial": 0, "time_elapsed": 186816, "serialpos": 7, "key_press": -1, "wordID": 436, "type": "PRES_AUD", "trial_index": 28}, "uniqueid": "MTK3100:3GGAI1SQEW5LDANZAJFMPTTJL4GMCL", "dateTime": 1520015177236}, {"current_trial": 29, "trialdata": {"rt": -1000, "trial_type": "single-audio", "word": "hook", "stimulus": "/static/audio/wordpool/HOOK.wav", "conditions": [18, 1200, "a", 18000], "internal_node_id": "0.0-20.0", "trial": 0, "time_elapsed": 188983, "serialpos": 8, "key_press": -1, "wordID": 714, "type": "PRES_AUD", "trial_index": 29}, "uniqueid": "MTK3100:3GGAI1SQEW5LDANZAJFMPTTJL4GMCL", "dateTime": 1520015179402}, {"current_trial": 30, "trialdata": {"rt": -1000, "trial_type": "single-audio", "word": "lava", "stimulus": "/static/audio/wordpool/LAVA.wav", "conditions": [18, 1200, "a", 18000], "internal_node_id": "0.0-21.0", "trial": 0, "time_elapsed": 191360, "serialpos": 9, "key_press": -1, "wordID": 803, "type": "PRES_AUD", "trial_index": 30}, "uniqueid": "MTK3100:3GGAI1SQEW5LDANZAJFMPTTJL4GMCL", "dateTime": 1520015181779}, {"current_trial": 31, "trialdata": {"rt": -1000, "trial_type": "single-audio", "word": "burglar", "stimulus": "/static/audio/wordpool/BURGLAR.wav", "conditions": [18, 1200, "a", 18000], "internal_node_id": "0.0-22.0", "trial": 0, "time_elapsed": 193410, "serialpos": 10, "key_press": -1, "wordID": 199, "type": "PRES_AUD", "trial_index": 31}, "uniqueid": "MTK3100:3GGAI1SQEW5LDANZAJFMPTTJL4GMCL", "dateTime": 1520015183830}, {"current_trial": 32, "trialdata": {"rt": -1000, "trial_type": "single-audio", "word": "beef", "stimulus": "/static/audio/wordpool/BEEF.wav", "conditions": [18, 1200, "a", 18000], "internal_node_id": "0.0-23.0", "trial": 0, "time_elapsed": 195643, "serialpos": 11, "key_press": -1, "wordID": 112, "type": "PRES_AUD", "trial_index": 32}, "uniqueid": "MTK3100:3GGAI1SQEW5LDANZAJFMPTTJL4GMCL", "dateTime": 1520015186062}, {"current_trial": 33, "trialdata": {"rt": -1000, "trial_type": "single-audio", "word": "icing", "stimulus": "/static/audio/wordpool/ICING.wav", "conditions": [18, 1200, "a", 18000], "internal_node_id": "0.0-24.0", "trial": 0, "time_elapsed": 197946, "serialpos": 12, "key_press": -1, "wordID": 731, "type": "PRES_AUD", "trial_index": 33}, "uniqueid": "MTK3100:3GGAI1SQEW5LDANZAJFMPTTJL4GMCL", "dateTime": 1520015188365}, {"current_trial": 34, "trialdata": {"rt": -1000, "trial_type": "single-audio", "word": "salt", "stimulus": "/static/audio/wordpool/SALT.wav", "conditions": [18, 1200, "a", 18000], "internal_node_id": "0.0-25.0", "trial": 0, "time_elapsed": 200275, "serialpos": 13, "key_press": -1, "wordID": 1228, "type": "PRES_AUD", "trial_index": 34}, "uniqueid": "MTK3100:3GGAI1SQEW5LDANZAJFMPTTJL4GMCL", "dateTime": 1520015190694}, {"current_trial": 35, "trialdata": {"rt": -1000, "trial_type": "single-audio", "word": "popcorn", "stimulus": "/static/audio/wordpool/POPCORN.wav", "conditions": [18, 1200, "a", 18000], "internal_node_id": "0.0-26.0", "trial": 0, "time_elapsed": 202672, "serialpos": 14, "key_press": -1, "wordID": 1103, "type": "PRES_AUD", "trial_index": 35}, "uniqueid": "MTK3100:3GGAI1SQEW5LDANZAJFMPTTJL4GMCL", "dateTime": 1520015193091}, {"current_trial": 36, "trialdata": {"rt": -1000, "trial_type": "single-audio", "word": "office", "stimulus": "/static/audio/wordpool/OFFICE.wav", "conditions": [18, 1200, "a", 18000], "internal_node_id": "0.0-27.0", "trial": 0, "time_elapsed": 204977, "serialpos": 15, "key_press": -1, "wordID": 971, "type": "PRES_AUD", "trial_index": 36}, "uniqueid": "MTK3100:3GGAI1SQEW5LDANZAJFMPTTJL4GMCL", "dateTime": 1520015195396}, {"current_trial": 37, "trialdata": {"rt": -1000, "trial_type": "single-audio", "word": "dentist", "stimulus": "/static/audio/wordpool/DENTIST.wav", "conditions": [18, 1200, "a", 18000], "internal_node_id": "0.0-28.0", "trial": 0, "time_elapsed": 207224, "serialpos": 16, "key_press": -1, "wordID": 446, "type": "PRES_AUD", "trial_index": 37}, "uniqueid": "MTK3100:3GGAI1SQEW5LDANZAJFMPTTJL4GMCL", "dateTime": 1520015197643}, {"current_trial": 38, "trialdata": {"rt": -1000, "trial_type": "single-audio", "word": "custard", "stimulus": "/static/audio/wordpool/CUSTARD.wav", "conditions": [18, 1200, "a", 18000], "internal_node_id": "0.0-29.0", "trial": 0, "time_elapsed": 209537, "serialpos": 17, "key_press": -1, "wordID": 428, "type": "PRES_AUD", "trial_index": 38}, "uniqueid": "MTK3100:3GGAI1SQEW5LDANZAJFMPTTJL4GMCL", "dateTime": 1520015199956}, {"current_trial": 39, "trialdata": {"rt": -1, "trial_type": "single-stim", "stimulus": "", "internal_node_id": "0.0-30.0-0.0", "time_elapsed": 210742, "key_press": -1, "type": "PRE_RECALL_DELAY", "trial_index": 39}, "uniqueid": "MTK3100:3GGAI1SQEW5LDANZAJFMPTTJL4GMCL", "dateTime": 1520015201161}, {"current_trial": 40, "trialdata": {"rt": -1000, "trial_type": "single-audio", "stimulus": "/static/audio/400Hz.wav", "internal_node_id": "0.0-31.0", "time_elapsed": 211243, "key_press": -1, "type": "PRE_RECALL_ALERT", "trial_index": 40}, "uniqueid": "MTK3100:3GGAI1SQEW5LDANZAJFMPTTJL4GMCL", "dateTime": 1520015201663}, {"current_trial": 41, "trialdata": {"rt": [2161, 3278, 4583, 5655, 7263, 10133, 13524, 49770], "recwords": ["tunnel", "record", "beef", "custard", "icing", "dentist", "record", "rocket"], "key_times": [1197, 1335, 1482, 1617, 1823, 1954, 2161, 2480, 2548, 2775, 2886, 2972, 3165, 3278, 3808, 3935, 4170, 4421, 4583, 4838, 4898, 4976, 5125, 5217, 5273, 5517, 5655, 6004, 6117, 6249, 6656, 6859, 6980, 7084, 7263, 8299, 8381, 8487, 9019, 9156, 9278, 9396, 9466, 9609, 9734, 9856, 10133, 12690, 12768, 13021, 13127, 13217, 13403, 13524, 48321, 48469, 48597, 49365, 49458, 49552, 49770], "trial_type": "free-recall", "conditions": [18, 1200, "a", 18000], "internal_node_id": "0.0-32.0-0.0", "key_presses": [84, 85, 78, 78, 69, 76, 13, 82, 69, 67, 79, 82, 68, 13, 66, 69, 69, 70, 13, 67, 85, 83, 84, 65, 82, 68, 13, 73, 67, 79, 8, 73, 78, 71, 13, 68, 79, 67, 8, 8, 69, 78, 84, 73, 83, 84, 13, 82, 69, 67, 79, 82, 68, 13, 82, 79, 67, 75, 69, 84, 13], "trial": 0, "time_elapsed": 271247, "type": "FREE_RECALL", "trial_index": 41}, "uniqueid": "MTK3100:3GGAI1SQEW5LDANZAJFMPTTJL4GMCL", "dateTime": 1520015261667}, {"current_trial": 42, "trialdata": {"rt": 2516, "trial_type": "text", "internal_node_id": "0.0-33.0", "time_elapsed": 275765, "key_press": 32, "type": "INSTRUCTIONS", "trial_index": 42}, "uniqueid": "MTK3100:3GGAI1SQEW5LDANZAJFMPTTJL4GMCL", "dateTime": 1520015266184}, {"current_trial": 43, "trialdata": {"rt": [3006, 6422, 8528, 12277, 17189], "trial_type": "math-distractor", "key_times": [2550, 2801, 3006, 5987, 6286, 6422, 8283, 8528, 11961, 12102, 12277, 16725, 16881, 17189], "responses": ["15", "24", "9", "21", "20"], "num2": [3, 8, 5, 3, 8, 6], "num3": [5, 5, 3, 9, 6, 2], "conditions": [18, 1200, "a", 18000], "internal_node_id": "0.0-34.0", "key_presses": [49, 53, 13, 50, 52, 13, 57, 13, 50, 49, 13, 50, 48, 13], "trial": 1, "time_elapsed": 295768, "type": "DISTRACTOR", "trial_index": 43, "num1": [7, 9, 1, 9, 5, 1]}, "uniqueid": "MTK3100:3GGAI1SQEW5LDANZAJFMPTTJL4GMCL", "dateTime": 1520015286187}, {"current_trial": 44, "trialdata": {"rt": -1, "trial_type": "single-stim", "stimulus": "<p id=\"stim\">10</p>", "internal_node_id": "0.0-35.0-0.0", "time_elapsed": 298771, "key_press": -1, "trial_index": 44}, "uniqueid": "MTK3100:3GGAI1SQEW5LDANZAJFMPTTJL4GMCL", "dateTime": 1520015289190}, {"current_trial": 45, "trialdata": {"rt": -1, "trial_type": "single-stim", "stimulus": "<p id=\"stim\">9</p>", "internal_node_id": "0.0-35.0-1.0", "time_elapsed": 299772, "key_press": -1, "trial_index": 45}, "uniqueid": "MTK3100:3GGAI1SQEW5LDANZAJFMPTTJL4GMCL", "dateTime": 1520015290191}, {"current_trial": 46, "trialdata": {"rt": -1, "trial_type": "single-stim", "stimulus": "<p id=\"stim\">8</p>", "internal_node_id": "0.0-35.0-2.0", "time_elapsed": 300774, "key_press": -1, "trial_index": 46}, "uniqueid": "MTK3100:3GGAI1SQEW5LDANZAJFMPTTJL4GMCL", "dateTime": 1520015291193}, {"current_trial": 47, "trialdata": {"rt": -1, "trial_type": "single-stim", "stimulus": "<p id=\"stim\">7</p>", "internal_node_id": "0.0-35.0-3.0", "time_elapsed": 301775, "key_press": -1, "trial_index": 47}, "uniqueid": "MTK3100:3GGAI1SQEW5LDANZAJFMPTTJL4GMCL", "dateTime": 1520015292194}, {"current_trial": 48, "trialdata": {"rt": -1, "trial_type": "single-stim", "stimulus": "<p id=\"stim\">6</p>", "internal_node_id": "0.0-35.0-4.0", "time_elapsed": 302776, "key_press": -1, "trial_index": 48}, "uniqueid": "MTK3100:3GGAI1SQEW5LDANZAJFMPTTJL4GMCL", "dateTime": 1520015293195}, {"current_trial": 49, "trialdata": {"rt": -1, "trial_type": "single-stim", "stimulus": "<p id=\"stim\">5</p>", "internal_node_id": "0.0-35.0-5.0", "time_elapsed": 303778, "key_press": -1, "trial_index": 49}, "uniqueid": "MTK3100:3GGAI1SQEW5LDANZAJFMPTTJL4GMCL", "dateTime": 1520015294197}, {"current_trial": 50, "trialdata": {"rt": -1, "trial_type": "single-stim", "stimulus": "<p id=\"stim\">4</p>", "internal_node_id": "0.0-35.0-6.0", "time_elapsed": 304778, "key_press": -1, "trial_index": 50}, "uniqueid": "MTK3100:3GGAI1SQEW5LDANZAJFMPTTJL4GMCL", "dateTime": 1520015295197}, {"current_trial": 51, "trialdata": {"rt": -1, "trial_type": "single-stim", "stimulus": "<p id=\"stim\">3</p>", "internal_node_id": "0.0-35.0-7.0", "time_elapsed": 305780, "key_press": -1, "trial_index": 51}, "uniqueid": "MTK3100:3GGAI1SQEW5LDANZAJFMPTTJL4GMCL", "dateTime": 1520015296199}, {"current_trial": 52, "trialdata": {"rt": -1, "trial_type": "single-stim", "stimulus": "<p id=\"stim\">2</p>", "internal_node_id": "0.0-35.0-8.0", "time_elapsed": 306783, "key_press": -1, "trial_index": 52}, "uniqueid": "MTK3100:3GGAI1SQEW5LDANZAJFMPTTJL4GMCL", "dateTime": 1520015297202}, {"current_trial": 53, "trialdata": {"rt": -1, "trial_type": "single-stim", "stimulus": "<p id=\"stim\">1</p>", "internal_node_id": "0.0-35.0-9.0", "time_elapsed": 307784, "key_press": -1, "trial_index": 53}, "uniqueid": "MTK3100:3GGAI1SQEW5LDANZAJFMPTTJL4GMCL", "dateTime": 1520015298203}, {"current_trial": 54, "trialdata": {"rt": -1, "trial_type": "single-stim", "stimulus": "<p id=\"stim\">+</p>", "internal_node_id": "0.0-36.0-0.0", "time_elapsed": 309285, "key_press": -1, "type": "FIXATION", "trial_index": 54}, "uniqueid": "MTK3100:3GGAI1SQEW5LDANZAJFMPTTJL4GMCL", "dateTime": 1520015299704}, {"current_trial": 55, "trialdata": {"rt": -1000, "trial_type": "single-audio", "word": "radish", "stimulus": "/static/audio/wordpool/RADISH.wav", "conditions": [18, 1200, "a", 18000], "internal_node_id": "0.0-37.0", "trial": 1, "time_elapsed": 311684, "serialpos": 0, "key_press": -1, "wordID": 1157, "type": "PRES_AUD", "trial_index": 55}, "uniqueid": "MTK3100:3GGAI1SQEW5LDANZAJFMPTTJL4GMCL", "dateTime": 1520015302103}, {"current_trial": 56, "trialdata": {"rt": -1000, "trial_type": "single-audio", "word": "monster", "stimulus": "/static/audio/wordpool/MONSTER.wav", "conditions": [18, 1200, "a", 18000], "internal_node_id": "0.0-38.0", "trial": 1, "time_elapsed": 313853, "serialpos": 1, "key_press": -1, "wordID": 911, "type": "PRES_AUD", "trial_index": 56}, "uniqueid": "MTK3100:3GGAI1SQEW5LDANZAJFMPTTJL4GMCL", "dateTime": 1520015304272}, {"current_trial": 57, "trialdata": {"rt": -1000, "trial_type": "single-audio", "word": "robber", "stimulus": "/static/audio/wordpool/ROBBER.wav", "conditions": [18, 1200, "a", 18000], "internal_node_id": "0.0-39.0", "trial": 1, "time_elapsed": 316227, "serialpos": 2, "key_press": -1, "wordID": 1196, "type": "PRES_AUD", "trial_index": 57}, "uniqueid": "MTK3100:3GGAI1SQEW5LDANZAJFMPTTJL4GMCL", "dateTime": 1520015306646}, {"current_trial": 58, "trialdata": {"rt": -1000, "trial_type": "single-audio", "word": "plaza", "stimulus": "/static/audio/wordpool/PLAZA.wav", "conditions": [18, 1200, "a", 18000], "internal_node_id": "0.0-40.0", "trial": 1, "time_elapsed": 318559, "serialpos": 3, "key_press": -1, "wordID": 1087, "type": "PRES_AUD", "trial_index": 58}, "uniqueid": "MTK3100:3GGAI1SQEW5LDANZAJFMPTTJL4GMCL", "dateTime": 1520015308978}, {"current_trial": 59, "trialdata": {"rt": -1000, "trial_type": "single-audio", "word": "wagon", "stimulus": "/static/audio/wordpool/WAGON.wav", "conditions": [18, 1200, "a", 18000], "internal_node_id": "0.0-41.0", "trial": 1, "time_elapsed": 320705, "serialpos": 4, "key_press": -1, "wordID": 1577, "type": "PRES_AUD", "trial_index": 59}, "uniqueid": "MTK3100:3GGAI1SQEW5LDANZAJFMPTTJL4GMCL", "dateTime": 1520015311124}, {"current_trial": 60, "trialdata": {"rt": -1000, "trial_type": "single-audio", "word": "thief", "stimulus": "/static/audio/wordpool/THIEF.wav", "conditions": [18, 1200, "a", 18000], "internal_node_id": "0.0-42.0", "trial": 1, "time_elapsed": 322770, "serialpos": 5, "key_press": -1, "wordID": 1455, "type": "PRES_AUD", "trial_index": 60}, "uniqueid": "MTK3100:3GGAI1SQEW5LDANZAJFMPTTJL4GMCL", "dateTime": 1520015313190}, {"current_trial": 61, "trialdata": {"rt": -1000, "trial_type": "single-audio", "word": "college", "stimulus": "/static/audio/wordpool/COLLEGE.wav", "conditions": [18, 1200, "a", 18000], "internal_node_id": "0.0-43.0", "trial": 1, "time_elapsed": 325083, "serialpos": 6, "key_press": -1, "wordID": 345, "type": "PRES_AUD", "trial_index": 61}, "uniqueid": "MTK3100:3GGAI1SQEW5LDANZAJFMPTTJL4GMCL", "dateTime": 1520015315502}, {"current_trial": 62, "trialdata": {"rt": -1000, "trial_type": "single-audio", "word": "fragrance", "stimulus": "/static/audio/wordpool/FRAGRANCE.wav", "conditions": [18, 1200, "a", 18000], "internal_node_id": "0.0-44.0", "trial": 1, "time_elapsed": 327122, "serialpos": 7, "key_press": -1, "wordID": 598, "type": "PRES_AUD", "trial_index": 62}, "uniqueid": "MTK3100:3GGAI1SQEW5LDANZAJFMPTTJL4GMCL", "dateTime": 1520015317541}, {"current_trial": 63, "trialdata": {"rt": -1000, "trial_type": "single-audio", "word": "crown", "stimulus": "/static/audio/wordpool/CROWN.wav", "conditions": [18, 1200, "a", 18000], "internal_node_id": "0.0-45.0", "trial": 1, "time_elapsed": 329257, "serialpos": 8, "key_press": -1, "wordID": 414, "type": "PRES_AUD", "trial_index": 63}, "uniqueid": "MTK3100:3GGAI1SQEW5LDANZAJFMPTTJL4GMCL", "dateTime": 1520015319677}, {"current_trial": 64, "trialdata": {"rt": -1000, "trial_type": "single-audio", "word": "plate", "stimulus": "/static/audio/wordpool/PLATE.wav", "conditions": [18, 1200, "a", 18000], "internal_node_id": "0.0-46.0", "trial": 1, "time_elapsed": 331291, "serialpos": 9, "key_press": -1, "wordID": 1085, "type": "PRES_AUD", "trial_index": 64}, "uniqueid": "MTK3100:3GGAI1SQEW5LDANZAJFMPTTJL4GMCL", "dateTime": 1520015321710}, {"current_trial": 65, "trialdata": {"rt": -1000, "trial_type": "single-audio", "word": "island", "stimulus": "/static/audio/wordpool/ISLAND.wav", "conditions": [18, 1200, "a", 18000], "internal_node_id": "0.0-47.0", "trial": 1, "time_elapsed": 333507, "serialpos": 10, "key_press": -1, "wordID": 744, "type": "PRES_AUD", "trial_index": 65}, "uniqueid": "MTK3100:3GGAI1SQEW5LDANZAJFMPTTJL4GMCL", "dateTime": 1520015323927}, {"current_trial": 66, "trialdata": {"rt": -1000, "trial_type": "single-audio", "word": "garden", "stimulus": "/static/audio/wordpool/GARDEN.wav", "conditions": [18, 1200, "a", 18000], "internal_node_id": "0.0-48.0", "trial": 1, "time_elapsed": 335853, "serialpos": 11, "key_press": -1, "wordID": 622, "type": "PRES_AUD", "trial_index": 66}, "uniqueid": "MTK3100:3GGAI1SQEW5LDANZAJFMPTTJL4GMCL", "dateTime": 1520015326273}, {"current_trial": 67, "trialdata": {"rt": -1000, "trial_type": "single-audio", "word": "robot", "stimulus": "/static/audio/wordpool/ROBOT.wav", "conditions": [18, 1200, "a", 18000], "internal_node_id": "0.0-49.0", "trial": 1, "time_elapsed": 338008, "serialpos": 12, "key_press": -1, "wordID": 1199, "type": "PRES_AUD", "trial_index": 67}, "uniqueid": "MTK3100:3GGAI1SQEW5LDANZAJFMPTTJL4GMCL", "dateTime": 1520015328427}, {"current_trial": 68, "trialdata": {"rt": -1000, "trial_type": "single-audio", "word": "outfit", "stimulus": "/static/audio/wordpool/OUTFIT.wav", "conditions": [18, 1200, "a", 18000], "internal_node_id": "0.0-50.0", "trial": 1, "time_elapsed": 340410, "serialpos": 13, "key_press": -1, "wordID": 987, "type": "PRES_AUD", "trial_index": 68}, "uniqueid": "MTK3100:3GGAI1SQEW5LDANZAJFMPTTJL4GMCL", "dateTime": 1520015330830}, {"current_trial": 69, "trialdata": {"rt": -1000, "trial_type": "single-audio", "word": "japan", "stimulus": "/static/audio/wordpool/JAPAN.wav", "conditions": [18, 1200, "a", 18000], "internal_node_id": "0.0-51.0", "trial": 1, "time_elapsed": 342682, "serialpos": 14, "key_press": -1, "wordID": 748, "type": "PRES_AUD", "trial_index": 69}, "uniqueid": "MTK3100:3GGAI1SQEW5LDANZAJFMPTTJL4GMCL", "dateTime": 1520015333102}, {"current_trial": 70, "trialdata": {"rt": -1000, "trial_type": "single-audio", "word": "highway", "stimulus": "/static/audio/wordpool/HIGHWAY.wav", "conditions": [18, 1200, "a", 18000], "internal_node_id": "0.0-52.0", "trial": 1, "time_elapsed": 344898, "serialpos": 15, "key_press": -1, "wordID": 706, "type": "PRES_AUD", "trial_index": 70}, "uniqueid": "MTK3100:3GGAI1SQEW5LDANZAJFMPTTJL4GMCL", "dateTime": 1520015335317}, {"current_trial": 71, "trialdata": {"rt": -1000, "trial_type": "single-audio", "word": "cabbage", "stimulus": "/static/audio/wordpool/CABBAGE.wav", "conditions": [18, 1200, "a", 18000], "internal_node_id": "0.0-53.0", "trial": 1, "time_elapsed": 346899, "serialpos": 16, "key_press": -1, "wordID": 209, "type": "PRES_AUD", "trial_index": 71}, "uniqueid": "MTK3100:3GGAI1SQEW5LDANZAJFMPTTJL4GMCL", "dateTime": 1520015337318}, {"current_trial": 72, "trialdata": {"rt": -1000, "trial_type": "single-audio", "word": "atlas", "stimulus": "/static/audio/wordpool/ATLAS.wav", "conditions": [18, 1200, "a", 18000], "internal_node_id": "0.0-54.0", "trial": 1, "time_elapsed": 349226, "serialpos": 17, "key_press": -1, "wordID": 52, "type": "PRES_AUD", "trial_index": 72}, "uniqueid": "MTK3100:3GGAI1SQEW5LDANZAJFMPTTJL4GMCL", "dateTime": 1520015339646}, {"current_trial": 73, "trialdata": {"rt": -1, "trial_type": "single-stim", "stimulus": "", "internal_node_id": "0.0-55.0-0.0", "time_elapsed": 350486, "key_press": -1, "type": "PRE_RECALL_DELAY", "trial_index": 73}, "uniqueid": "MTK3100:3GGAI1SQEW5LDANZAJFMPTTJL4GMCL", "dateTime": 1520015340905}, {"current_trial": 74, "trialdata": {"rt": -1000, "trial_type": "single-audio", "stimulus": "/static/audio/400Hz.wav", "internal_node_id": "0.0-56.0", "time_elapsed": 350987, "key_press": -1, "type": "PRE_RECALL_ALERT", "trial_index": 74}, "uniqueid": "MTK3100:3GGAI1SQEW5LDANZAJFMPTTJL4GMCL", "dateTime": 1520015341407}, {"current_trial": 75, "trialdata": {"rt": [1853, 2926, 6464, 8817, 10827, 14680, 50977], "recwords": ["plate", "island", "japan", "atlas", "island", "raddish", "college"], "key_times": [1026, 1243, 1363, 1426, 1543, 1853, 2153, 2377, 2484, 2556, 2686, 2772, 2926, 5817, 5957, 6071, 6175, 6241, 6464, 7664, 7853, 8016, 8124, 8637, 8817, 10181, 10230, 10373, 10415, 10524, 10613, 10827, 13557, 13639, 13979, 14101, 14256, 14349, 14446, 14680, 50048, 50223, 50416, 50554, 50616, 50729, 50822, 50977], "trial_type": "free-recall", "conditions": [18, 1200, "a", 18000], "internal_node_id": "0.0-57.0-0.0", "key_presses": [80, 76, 65, 84, 69, 13, 73, 83, 76, 65, 78, 68, 13, 74, 65, 80, 65, 78, 13, 65, 84, 76, 65, 83, 13, 73, 83, 76, 65, 78, 68, 13, 82, 65, 68, 68, 73, 83, 72, 13, 67, 79, 76, 76, 69, 71, 69, 13], "trial": 1, "time_elapsed": 410991, "type": "FREE_RECALL", "trial_index": 75}, "uniqueid": "MTK3100:3GGAI1SQEW5LDANZAJFMPTTJL4GMCL", "dateTime": 1520015401412}, {"current_trial": 76, "trialdata": {"rt": 2528, "trial_type": "text", "internal_node_id": "0.0-58.0", "time_elapsed": 415521, "key_press": 32, "type": "INSTRUCTIONS", "trial_index": 76}, "uniqueid": "MTK3100:3GGAI1SQEW5LDANZAJFMPTTJL4GMCL", "dateTime": 1520015405940}, {"current_trial": 77, "trialdata": {"rt": [2320, 4138, 8752, 11818], "trial_type": "math-distractor", "key_times": [1970, 2136, 2320, 3873, 3974, 4138, 8121, 8505, 8752, 11453, 11620, 11818], "responses": ["10", "14", "17", "19"], "num2": [2, 5, 8, 9, 8], "num3": [4, 5, 7, 3, 5], "conditions": [12, 1600, "a", 12000], "internal_node_id": "0.0-59.0", "key_presses": [49, 48, 13, 49, 52, 13, 49, 55, 13, 49, 57, 13], "trial": 2, "time_elapsed": 428524, "type": "DISTRACTOR", "trial_index": 77, "num1": [4, 4, 2, 7, 5]}, "uniqueid": "MTK3100:3GGAI1SQEW5LDANZAJFMPTTJL4GMCL", "dateTime": 1520015418943}, {"current_trial": 78, "trialdata": {"rt": -1, "trial_type": "single-stim", "stimulus": "<p id=\"stim\">10</p>", "internal_node_id": "0.0-60.0-0.0", "time_elapsed": 431525, "key_press": -1, "trial_index": 78}, "uniqueid": "MTK3100:3GGAI1SQEW5LDANZAJFMPTTJL4GMCL", "dateTime": 1520015421944}, {"current_trial": 79, "trialdata": {"rt": -1, "trial_type": "single-stim", "stimulus": "<p id=\"stim\">9</p>", "internal_node_id": "0.0-60.0-1.0", "time_elapsed": 432527, "key_press": -1, "trial_index": 79}, "uniqueid": "MTK3100:3GGAI1SQEW5LDANZAJFMPTTJL4GMCL", "dateTime": 1520015422946}, {"current_trial": 80, "trialdata": {"rt": -1, "trial_type": "single-stim", "stimulus": "<p id=\"stim\">8</p>", "internal_node_id": "0.0-60.0-2.0", "time_elapsed": 433528, "key_press": -1, "trial_index": 80}, "uniqueid": "MTK3100:3GGAI1SQEW5LDANZAJFMPTTJL4GMCL", "dateTime": 1520015423948}, {"current_trial": 81, "trialdata": {"rt": -1, "trial_type": "single-stim", "stimulus": "<p id=\"stim\">7</p>", "internal_node_id": "0.0-60.0-3.0", "time_elapsed": 434530, "key_press": -1, "trial_index": 81}, "uniqueid": "MTK3100:3GGAI1SQEW5LDANZAJFMPTTJL4GMCL", "dateTime": 1520015424949}, {"current_trial": 82, "trialdata": {"rt": -1, "trial_type": "single-stim", "stimulus": "<p id=\"stim\">6</p>", "internal_node_id": "0.0-60.0-4.0", "time_elapsed": 435530, "key_press": -1, "trial_index": 82}, "uniqueid": "MTK3100:3GGAI1SQEW5LDANZAJFMPTTJL4GMCL", "dateTime": 1520015425949}, {"current_trial": 83, "trialdata": {"rt": -1, "trial_type": "single-stim", "stimulus": "<p id=\"stim\">5</p>", "internal_node_id": "0.0-60.0-5.0", "time_elapsed": 436531, "key_press": -1, "trial_index": 83}, "uniqueid": "MTK3100:3GGAI1SQEW5LDANZAJFMPTTJL4GMCL", "dateTime": 1520015426950}, {"current_trial": 84, "trialdata": {"rt": -1, "trial_type": "single-stim", "stimulus": "<p id=\"stim\">4</p>", "internal_node_id": "0.0-60.0-6.0", "time_elapsed": 437532, "key_press": -1, "trial_index": 84}, "uniqueid": "MTK3100:3GGAI1SQEW5LDANZAJFMPTTJL4GMCL", "dateTime": 1520015427951}, {"current_trial": 85, "trialdata": {"rt": -1, "trial_type": "single-stim", "stimulus": "<p id=\"stim\">3</p>", "internal_node_id": "0.0-60.0-7.0", "time_elapsed": 438533, "key_press": -1, "trial_index": 85}, "uniqueid": "MTK3100:3GGAI1SQEW5LDANZAJFMPTTJL4GMCL", "dateTime": 1520015428952}, {"current_trial": 86, "trialdata": {"rt": -1, "trial_type": "single-stim", "stimulus": "<p id=\"stim\">2</p>", "internal_node_id": "0.0-60.0-8.0", "time_elapsed": 439535, "key_press": -1, "trial_index": 86}, "uniqueid": "MTK3100:3GGAI1SQEW5LDANZAJFMPTTJL4GMCL", "dateTime": 1520015429954}, {"current_trial": 87, "trialdata": {"rt": -1, "trial_type": "single-stim", "stimulus": "<p id=\"stim\">1</p>", "internal_node_id": "0.0-60.0-9.0", "time_elapsed": 440536, "key_press": -1, "trial_index": 87}, "uniqueid": "MTK3100:3GGAI1SQEW5LDANZAJFMPTTJL4GMCL", "dateTime": 1520015430955}, {"current_trial": 88, "trialdata": {"rt": -1, "trial_type": "single-stim", "stimulus": "<p id=\"stim\">+</p>", "internal_node_id": "0.0-61.0-0.0", "time_elapsed": 442037, "key_press": -1, "type": "FIXATION", "trial_index": 88}, "uniqueid": "MTK3100:3GGAI1SQEW5LDANZAJFMPTTJL4GMCL", "dateTime": 1520015432456}, {"current_trial": 89, "trialdata": {"rt": -1000, "trial_type": "single-audio", "word": "princess", "stimulus": "/static/audio/wordpool/PRINCESS.wav", "conditions": [12, 1600, "a", 12000], "internal_node_id": "0.0-62.0", "trial": 2, "time_elapsed": 444505, "serialpos": 0, "key_press": -1, "wordID": 1124, "type": "PRES_AUD", "trial_index": 89}, "uniqueid": "MTK3100:3GGAI1SQEW5LDANZAJFMPTTJL4GMCL", "dateTime": 1520015434924}, {"current_trial": 90, "trialdata": {"rt": -1000, "trial_type": "single-audio", "word": "daughter", "stimulus": "/static/audio/wordpool/DAUGHTER.wav", "conditions": [12, 1600, "a", 12000], "internal_node_id": "0.0-63.0", "trial": 2, "time_elapsed": 446959, "serialpos": 1, "key_press": -1, "wordID": 441, "type": "PRES_AUD", "trial_index": 90}, "uniqueid": "MTK3100:3GGAI1SQEW5LDANZAJFMPTTJL4GMCL", "dateTime": 1520015437378}, {"current_trial": 91, "trialdata": {"rt": -1000, "trial_type": "single-audio", "word": "kidney", "stimulus": "/static/audio/wordpool/KIDNEY.wav", "conditions": [12, 1600, "a", 12000], "internal_node_id": "0.0-64.0", "trial": 2, "time_elapsed": 449447, "serialpos": 2, "key_press": -1, "wordID": 775, "type": "PRES_AUD", "trial_index": 91}, "uniqueid": "MTK3100:3GGAI1SQEW5LDANZAJFMPTTJL4GMCL", "dateTime": 1520015439866}, {"current_trial": 92, "trialdata": {"rt": -1000, "trial_type": "single-audio", "word": "iceberg", "stimulus": "/static/audio/wordpool/ICEBERG.wav", "conditions": [12, 1600, "a", 12000], "internal_node_id": "0.0-65.0", "trial": 2, "time_elapsed": 452076, "serialpos": 3, "key_press": -1, "wordID": 730, "type": "PRES_AUD", "trial_index": 92}, "uniqueid": "MTK3100:3GGAI1SQEW5LDANZAJFMPTTJL4GMCL", "dateTime": 1520015442495}, {"current_trial": 93, "trialdata": {"rt": -1000, "trial_type": "single-audio", "word": "badge", "stimulus": "/static/audio/wordpool/BADGE.wav", "conditions": [12, 1600, "a", 12000], "internal_node_id": "0.0-66.0", "trial": 2, "time_elapsed": 454656, "serialpos": 4, "key_press": -1, "wordID": 67, "type": "PRES_AUD", "trial_index": 93}, "uniqueid": "MTK3100:3GGAI1SQEW5LDANZAJFMPTTJL4GMCL", "dateTime": 1520015445075}, {"current_trial": 94, "trialdata": {"rt": -1000, "trial_type": "single-audio", "word": "sticker", "stimulus": "/static/audio/wordpool/STICKER.wav", "conditions": [12, 1600, "a", 12000], "internal_node_id": "0.0-67.0", "trial": 2, "time_elapsed": 457313, "serialpos": 5, "key_press": -1, "wordID": 1381, "type": "PRES_AUD", "trial_index": 94}, "uniqueid": "MTK3100:3GGAI1SQEW5LDANZAJFMPTTJL4GMCL", "dateTime": 1520015447732}, {"current_trial": 95, "trialdata": {"rt": -1000, "trial_type": "single-audio", "word": "transplant", "stimulus": "/static/audio/wordpool/TRANSPLANT.wav", "conditions": [12, 1600, "a", 12000], "internal_node_id": "0.0-68.0", "trial": 2, "time_elapsed": 459820, "serialpos": 6, "key_press": -1, "wordID": 1495, "type": "PRES_AUD", "trial_index": 95}, "uniqueid": "MTK3100:3GGAI1SQEW5LDANZAJFMPTTJL4GMCL", "dateTime": 1520015450239}, {"current_trial": 96, "trialdata": {"rt": -1000, "trial_type": "single-audio", "word": "necklace", "stimulus": "/static/audio/wordpool/NECKLACE.wav", "conditions": [12, 1600, "a", 12000], "internal_node_id": "0.0-69.0", "trial": 2, "time_elapsed": 462549, "serialpos": 7, "key_press": -1, "wordID": 939, "type": "PRES_AUD", "trial_index": 96}, "uniqueid": "MTK3100:3GGAI1SQEW5LDANZAJFMPTTJL4GMCL", "dateTime": 1520015452968}, {"current_trial": 97, "trialdata": {"rt": -1000, "trial_type": "single-audio", "word": "puppy", "stimulus": "/static/audio/wordpool/PUPPY.wav", "conditions": [12, 1600, "a", 12000], "internal_node_id": "0.0-70.0", "trial": 2, "time_elapsed": 465203, "serialpos": 8, "key_press": -1, "wordID": 1143, "type": "PRES_AUD", "trial_index": 97}, "uniqueid": "MTK3100:3GGAI1SQEW5LDANZAJFMPTTJL4GMCL", "dateTime": 1520015455622}, {"current_trial": 98, "trialdata": {"rt": -1000, "trial_type": "single-audio", "word": "keeper", "stimulus": "/static/audio/wordpool/KEEPER.wav", "conditions": [12, 1600, "a", 12000], "internal_node_id": "0.0-71.0", "trial": 2, "time_elapsed": 467973, "serialpos": 9, "key_press": -1, "wordID": 768, "type": "PRES_AUD", "trial_index": 98}, "uniqueid": "MTK3100:3GGAI1SQEW5LDANZAJFMPTTJL4GMCL", "dateTime": 1520015458392}, {"current_trial": 99, "trialdata": {"rt": -1000, "trial_type": "single-audio", "word": "message", "stimulus": "/static/audio/wordpool/MESSAGE.wav", "conditions": [12, 1600, "a", 12000], "internal_node_id": "0.0-72.0", "trial": 2, "time_elapsed": 470662, "serialpos": 10, "key_press": -1, "wordID": 887, "type": "PRES_AUD", "trial_index": 99}, "uniqueid": "MTK3100:3GGAI1SQEW5LDANZAJFMPTTJL4GMCL", "dateTime": 1520015461081}, {"current_trial": 100, "trialdata": {"rt": -1000, "trial_type": "single-audio", "word": "yacht", "stimulus": "/static/audio/wordpool/YACHT.wav", "conditions": [12, 1600, "a", 12000], "internal_node_id": "0.0-73.0", "trial": 2, "time_elapsed": 473086, "serialpos": 11, "key_press": -1, "wordID": 1628, "type": "PRES_AUD", "trial_index": 100}, "uniqueid": "MTK3100:3GGAI1SQEW5LDANZAJFMPTTJL4GMCL", "dateTime": 1520015463505}, {"current_trial": 101, "trialdata": {"rt": -1, "trial_type": "single-stim", "stimulus": "", "internal_node_id": "0.0-74.0-0.0", "time_elapsed": 474491, "key_press": -1, "type": "PRE_RECALL_DELAY", "trial_index": 101}, "uniqueid": "MTK3100:3GGAI1SQEW5LDANZAJFMPTTJL4GMCL", "dateTime": 1520015464910}, {"current_trial": 102, "trialdata": {"rt": -1000, "trial_type": "single-audio", "stimulus": "/static/audio/400Hz.wav", "internal_node_id": "0.0-75.0", "time_elapsed": 474993, "key_press": -1, "type": "PRE_RECALL_ALERT", "trial_index": 102}, "uniqueid": "MTK3100:3GGAI1SQEW5LDANZAJFMPTTJL4GMCL", "dateTime": 1520015465412}, {"current_trial": 103, "trialdata": {"rt": [3068, 4611, 5779, 7629, 9207, 10947, 13224, 18254], "recwords": ["princess", "puppy", "keeper", "transplant", "kidney", "yacht", "message", "badge"], "key_times": [1847, 1994, 2064, 2234, 2373, 2488, 2644, 2811, 3068, 3708, 3940, 4177, 4324, 4448, 4611, 4837, 4931, 5336, 5491, 5603, 5669, 5779, 5957, 6048, 6100, 6238, 6350, 7043, 7218, 7266, 7408, 7494, 7629, 7956, 8139, 8240, 8319, 8419, 9016, 9207, 9741, 10003, 10358, 10532, 10645, 10947, 12025, 12073, 12230, 12702, 12837, 12940, 13036, 13224, 17603, 17713, 17816, 17969, 18085, 18254], "trial_type": "free-recall", "conditions": [12, 1600, "a", 12000], "internal_node_id": "0.0-76.0-0.0", "key_presses": [80, 82, 73, 78, 67, 69, 83, 83, 13, 80, 85, 80, 80, 89, 13, 75, 69, 69, 80, 69, 82, 13, 84, 82, 65, 78, 83, 80, 76, 65, 78, 84, 13, 75, 73, 68, 78, 69, 89, 13, 89, 65, 67, 72, 84, 13, 77, 69, 83, 83, 65, 71, 69, 13, 66, 65, 68, 71, 69, 13], "trial": 2, "time_elapsed": 534996, "type": "FREE_RECALL", "trial_index": 103}, "uniqueid": "MTK3100:3GGAI1SQEW5LDANZAJFMPTTJL4GMCL", "dateTime": 1520015525417}, {"current_trial": 104, "trialdata": {"rt": 1195, "trial_type": "text", "internal_node_id": "0.0-77.0", "time_elapsed": 538193, "key_press": 32, "type": "INSTRUCTIONS", "trial_index": 104}, "uniqueid": "MTK3100:3GGAI1SQEW5LDANZAJFMPTTJL4GMCL", "dateTime": 1520015528612}, {"current_trial": 105, "trialdata": {"rt": [2015, 4642, 6766, 8347, 11111], "trial_type": "math-distractor", "key_times": [1785, 2015, 4311, 4508, 4642, 6496, 6567, 6766, 8007, 8181, 8347, 10788, 10975, 11111], "responses": ["7", "15", "13", "15", "15"], "num2": [3, 5, 6, 5, 5, 4], "num3": [1, 8, 4, 5, 7, 4], "conditions": [12, 800, "a", 12000], "internal_node_id": "0.0-78.0", "key_presses": [55, 13, 49, 53, 13, 49, 51, 13, 49, 53, 13, 49, 53, 13], "trial": 3, "time_elapsed": 552197, "type": "DISTRACTOR", "trial_index": 105, "num1": [3, 2, 3, 5, 3, 7]}, "uniqueid": "MTK3100:3GGAI1SQEW5LDANZAJFMPTTJL4GMCL", "dateTime": 1520015542617}, {"current_trial": 106, "trialdata": {"rt": -1, "trial_type": "single-stim", "stimulus": "<p id=\"stim\">10</p>", "internal_node_id": "0.0-79.0-0.0", "time_elapsed": 555200, "key_press": -1, "trial_index": 106}, "uniqueid": "MTK3100:3GGAI1SQEW5LDANZAJFMPTTJL4GMCL", "dateTime": 1520015545619}, {"current_trial": 107, "trialdata": {"rt": -1, "trial_type": "single-stim", "stimulus": "<p id=\"stim\">9</p>", "internal_node_id": "0.0-79.0-1.0", "time_elapsed": 556201, "key_press": -1, "trial_index": 107}, "uniqueid": "MTK3100:3GGAI1SQEW5LDANZAJFMPTTJL4GMCL", "dateTime": 1520015546620}, {"current_trial": 108, "trialdata": {"rt": -1, "trial_type": "single-stim", "stimulus": "<p id=\"stim\">8</p>", "internal_node_id": "0.0-79.0-2.0", "time_elapsed": 557203, "key_press": -1, "trial_index": 108}, "uniqueid": "MTK3100:3GGAI1SQEW5LDANZAJFMPTTJL4GMCL", "dateTime": 1520015547622}, {"current_trial": 109, "trialdata": {"rt": -1, "trial_type": "single-stim", "stimulus": "<p id=\"stim\">7</p>", "internal_node_id": "0.0-79.0-3.0", "time_elapsed": 558203, "key_press": -1, "trial_index": 109}, "uniqueid": "MTK3100:3GGAI1SQEW5LDANZAJFMPTTJL4GMCL", "dateTime": 1520015548623}, {"current_trial": 110, "trialdata": {"rt": -1, "trial_type": "single-stim", "stimulus": "<p id=\"stim\">6</p>", "internal_node_id": "0.0-79.0-4.0", "time_elapsed": 559205, "key_press": -1, "trial_index": 110}, "uniqueid": "MTK3100:3GGAI1SQEW5LDANZAJFMPTTJL4GMCL", "dateTime": 1520015549624}, {"current_trial": 111, "trialdata": {"rt": -1, "trial_type": "single-stim", "stimulus": "<p id=\"stim\">5</p>", "internal_node_id": "0.0-79.0-5.0", "time_elapsed": 560206, "key_press": -1, "trial_index": 111}, "uniqueid": "MTK3100:3GGAI1SQEW5LDANZAJFMPTTJL4GMCL", "dateTime": 1520015550625}, {"current_trial": 112, "trialdata": {"rt": -1, "trial_type": "single-stim", "stimulus": "<p id=\"stim\">4</p>", "internal_node_id": "0.0-79.0-6.0", "time_elapsed": 561207, "key_press": -1, "trial_index": 112}, "uniqueid": "MTK3100:3GGAI1SQEW5LDANZAJFMPTTJL4GMCL", "dateTime": 1520015551626}, {"current_trial": 113, "trialdata": {"rt": -1, "trial_type": "single-stim", "stimulus": "<p id=\"stim\">3</p>", "internal_node_id": "0.0-79.0-7.0", "time_elapsed": 562208, "key_press": -1, "trial_index": 113}, "uniqueid": "MTK3100:3GGAI1SQEW5LDANZAJFMPTTJL4GMCL", "dateTime": 1520015552627}, {"current_trial": 114, "trialdata": {"rt": -1, "trial_type": "single-stim", "stimulus": "<p id=\"stim\">2</p>", "internal_node_id": "0.0-79.0-8.0", "time_elapsed": 563210, "key_press": -1, "trial_index": 114}, "uniqueid": "MTK3100:3GGAI1SQEW5LDANZAJFMPTTJL4GMCL", "dateTime": 1520015553629}, {"current_trial": 115, "trialdata": {"rt": -1, "trial_type": "single-stim", "stimulus": "<p id=\"stim\">1</p>", "internal_node_id": "0.0-79.0-9.0", "time_elapsed": 564211, "key_press": -1, "trial_index": 115}, "uniqueid": "MTK3100:3GGAI1SQEW5LDANZAJFMPTTJL4GMCL", "dateTime": 1520015554630}, {"current_trial": 116, "trialdata": {"rt": -1, "trial_type": "single-stim", "stimulus": "<p id=\"stim\">+</p>", "internal_node_id": "0.0-80.0-0.0", "time_elapsed": 565711, "key_press": -1, "type": "FIXATION", "trial_index": 116}, "uniqueid": "MTK3100:3GGAI1SQEW5LDANZAJFMPTTJL4GMCL", "dateTime": 1520015556130}, {"current_trial": 117, "trialdata": {"rt": -1000, "trial_type": "single-audio", "word": "server", "stimulus": "/static/audio/wordpool/SERVER.wav", "conditions": [12, 800, "a", 12000], "internal_node_id": "0.0-81.0", "trial": 3, "time_elapsed": 567441, "serialpos": 0, "key_press": -1, "wordID": 1271, "type": "PRES_AUD", "trial_index": 117}, "uniqueid": "MTK3100:3GGAI1SQEW5LDANZAJFMPTTJL4GMCL", "dateTime": 1520015557860}, {"current_trial": 118, "trialdata": {"rt": 299.9999999999545, "trial_type": "single-audio", "word": "omelet", "stimulus": "/static/audio/wordpool/OMELET.wav", "conditions": [12, 800, "a", 12000], "internal_node_id": "0.0-82.0", "trial": 3, "time_elapsed": 569345, "serialpos": 1, "key_press": 175, "wordID": 975, "type": "PRES_AUD", "trial_index": 118}, "uniqueid": "MTK3100:3GGAI1SQEW5LDANZAJFMPTTJL4GMCL", "dateTime": 1520015559764}, {"current_trial": 119, "trialdata": {"rt": -1000, "trial_type": "single-audio", "word": "label", "stimulus": "/static/audio/wordpool/LABEL.wav", "conditions": [12, 800, "a", 12000], "internal_node_id": "0.0-83.0", "trial": 3, "time_elapsed": 571276, "serialpos": 2, "key_press": -1, "wordID": 789, "type": "PRES_AUD", "trial_index": 119}, "uniqueid": "MTK3100:3GGAI1SQEW5LDANZAJFMPTTJL4GMCL", "dateTime": 1520015561695}, {"current_trial": 120, "trialdata": {"rt": -1000, "trial_type": "single-audio", "word": "neutron", "stimulus": "/static/audio/wordpool/NEUTRON.wav", "conditions": [12, 800, "a", 12000], "internal_node_id": "0.0-84.0", "trial": 3, "time_elapsed": 573072, "serialpos": 3, "key_press": -1, "wordID": 946, "type": "PRES_AUD", "trial_index": 120}, "uniqueid": "MTK3100:3GGAI1SQEW5LDANZAJFMPTTJL4GMCL", "dateTime": 1520015563491}, {"current_trial": 121, "trialdata": {"rt": -1000, "trial_type": "single-audio", "word": "salad", "stimulus": "/static/audio/wordpool/SALAD.wav", "conditions": [12, 800, "a", 12000], "internal_node_id": "0.0-85.0", "trial": 3, "time_elapsed": 574899, "serialpos": 4, "key_press": -1, "wordID": 1223, "type": "PRES_AUD", "trial_index": 121}, "uniqueid": "MTK3100:3GGAI1SQEW5LDANZAJFMPTTJL4GMCL", "dateTime": 1520015565318}, {"current_trial": 122, "trialdata": {"rt": -1000, "trial_type": "single-audio", "word": "napkin", "stimulus": "/static/audio/wordpool/NAPKIN.wav", "conditions": [12, 800, "a", 12000], "internal_node_id": "0.0-86.0", "trial": 3, "time_elapsed": 576565, "serialpos": 5, "key_press": -1, "wordID": 936, "type": "PRES_AUD", "trial_index": 122}, "uniqueid": "MTK3100:3GGAI1SQEW5LDANZAJFMPTTJL4GMCL", "dateTime": 1520015566984}, {"current_trial": 123, "trialdata": {"rt": -1000, "trial_type": "single-audio", "word": "bug", "stimulus": "/static/audio/wordpool/BUG.wav", "conditions": [12, 800, "a", 12000], "internal_node_id": "0.0-87.0", "trial": 3, "time_elapsed": 578431, "serialpos": 6, "key_press": -1, "wordID": 186, "type": "PRES_AUD", "trial_index": 123}, "uniqueid": "MTK3100:3GGAI1SQEW5LDANZAJFMPTTJL4GMCL", "dateTime": 1520015568850}, {"current_trial": 124, "trialdata": {"rt": -1000, "trial_type": "single-audio", "word": "virus", "stimulus": "/static/audio/wordpool/VIRUS.wav", "conditions": [12, 800, "a", 12000], "internal_node_id": "0.0-88.0", "trial": 3, "time_elapsed": 580056, "serialpos": 7, "key_press": -1, "wordID": 1571, "type": "PRES_AUD", "trial_index": 124}, "uniqueid": "MTK3100:3GGAI1SQEW5LDANZAJFMPTTJL4GMCL", "dateTime": 1520015570475}, {"current_trial": 125, "trialdata": {"rt": -1000, "trial_type": "single-audio", "word": "dashboard", "stimulus": "/static/audio/wordpool/DASHBOARD.wav", "conditions": [12, 800, "a", 12000], "internal_node_id": "0.0-89.0", "trial": 3, "time_elapsed": 581979, "serialpos": 8, "key_press": -1, "wordID": 440, "type": "PRES_AUD", "trial_index": 125}, "uniqueid": "MTK3100:3GGAI1SQEW5LDANZAJFMPTTJL4GMCL", "dateTime": 1520015572398}, {"current_trial": 126, "trialdata": {"rt": -1000, "trial_type": "single-audio", "word": "mop", "stimulus": "/static/audio/wordpool/MOP.wav", "conditions": [12, 800, "a", 12000], "internal_node_id": "0.0-90.0", "trial": 3, "time_elapsed": 583725, "serialpos": 9, "key_press": -1, "wordID": 915, "type": "PRES_AUD", "trial_index": 126}, "uniqueid": "MTK3100:3GGAI1SQEW5LDANZAJFMPTTJL4GMCL", "dateTime": 1520015574144}, {"current_trial": 127, "trialdata": {"rt": -1000, "trial_type": "single-audio", "word": "dandruff", "stimulus": "/static/audio/wordpool/DANDRUFF.wav", "conditions": [12, 800, "a", 12000], "internal_node_id": "0.0-91.0", "trial": 3, "time_elapsed": 585697, "serialpos": 10, "key_press": -1, "wordID": 438, "type": "PRES_AUD", "trial_index": 127}, "uniqueid": "MTK3100:3GGAI1SQEW5LDANZAJFMPTTJL4GMCL", "dateTime": 1520015576117}, {"current_trial": 128, "trialdata": {"rt": -1000, "trial_type": "single-audio", "word": "shelter", "stimulus": "/static/audio/wordpool/SHELTER.wav", "conditions": [12, 800, "a", 12000], "internal_node_id": "0.0-92.0", "trial": 3, "time_elapsed": 587522, "serialpos": 11, "key_press": -1, "wordID": 1281, "type": "PRES_AUD", "trial_index": 128}, "uniqueid": "MTK3100:3GGAI1SQEW5LDANZAJFMPTTJL4GMCL", "dateTime": 1520015577941}, {"current_trial": 129, "trialdata": {"rt": -1, "trial_type": "single-stim", "stimulus": "", "internal_node_id": "0.0-93.0-0.0", "time_elapsed": 588852, "key_press": -1, "type": "PRE_RECALL_DELAY", "trial_index": 129}, "uniqueid": "MTK3100:3GGAI1SQEW5LDANZAJFMPTTJL4GMCL", "dateTime": 1520015579271}, {"current_trial": 130, "trialdata": {"rt": -1000, "trial_type": "single-audio", "stimulus": "/static/audio/400Hz.wav", "internal_node_id": "0.0-94.0", "time_elapsed": 589354, "key_press": -1, "type": "PRE_RECALL_ALERT", "trial_index": 130}, "uniqueid": "MTK3100:3GGAI1SQEW5LDANZAJFMPTTJL4GMCL", "dateTime": 1520015579773}, {"current_trial": 131, "trialdata": {"rt": [2260, 3824, 5166], "recwords": ["dandruff", "mop", "shelter"], "key_times": [1052, 1119, 1279, 1546, 1697, 1796, 1890, 2042, 2260, 3087, 3504, 3642, 3824, 3918, 4089, 4170, 4591, 4690, 4825, 4907, 5166], "trial_type": "free-recall", "conditions": [12, 800, "a", 12000], "internal_node_id": "0.0-95.0-0.0", "key_presses": [68, 65, 78, 68, 82, 85, 70, 70, 13, 77, 79, 80, 13, 83, 72, 69, 76, 84, 69, 82, 13], "trial": 3, "time_elapsed": 649356, "type": "FREE_RECALL", "trial_index": 131}, "uniqueid": "MTK3100:3GGAI1SQEW5LDANZAJFMPTTJL4GMCL", "dateTime": 1520015639777}, {"current_trial": 132, "trialdata": {"rt": 2357, "trial_type": "text", "internal_node_id": "0.0-96.0", "time_elapsed": 653716, "key_press": 32, "type": "INSTRUCTIONS", "trial_index": 132}, "uniqueid": "MTK3100:3GGAI1SQEW5LDANZAJFMPTTJL4GMCL", "dateTime": 1520015644135}, {"current_trial": 133, "trialdata": {"rt": [2048, 9679, 11322, 13323, 16132, 19984], "trial_type": "math-distractor", "key_times": [1769, 2048, 9223, 9393, 9679, 11078, 11174, 11322, 12848, 13055, 13323, 15169, 15633, 16132, 19580, 19708, 19984, 23866, 23988], "responses": ["5", "28", "14", "11", "16", "19"], "num2": [2, 8, 5, 9, 5, 5, 5], "num3": [2, 7, 5, 1, 6, 8, 8], "conditions": [12, 1600, "a", 24000], "internal_node_id": "0.0-97.0", "key_presses": [53, 13, 50, 56, 13, 49, 52, 13, 49, 49, 13, 49, 54, 13, 49, 57, 13, 50, 48], "trial": 4, "time_elapsed": 679717, "type": "DISTRACTOR", "trial_index": 133, "num1": [1, 9, 4, 1, 5, 6, 6]}, "uniqueid": "MTK3100:3GGAI1SQEW5LDANZAJFMPTTJL4GMCL", "dateTime": 1520015670137}, {"current_trial": 134, "trialdata": {"rt": -1, "trial_type": "single-stim", "stimulus": "<p id=\"stim\">10</p>", "internal_node_id": "0.0-98.0-0.0", "time_elapsed": 682720, "key_press": -1, "trial_index": 134}, "uniqueid": "MTK3100:3GGAI1SQEW5LDANZAJFMPTTJL4GMCL", "dateTime": 1520015673139}, {"current_trial": 135, "trialdata": {"rt": -1, "trial_type": "single-stim", "stimulus": "<p id=\"stim\">9</p>", "internal_node_id": "0.0-98.0-1.0", "time_elapsed": 683721, "key_press": -1, "trial_index": 135}, "uniqueid": "MTK3100:3GGAI1SQEW5LDANZAJFMPTTJL4GMCL", "dateTime": 1520015674140}, {"current_trial": 136, "trialdata": {"rt": -1, "trial_type": "single-stim", "stimulus": "<p id=\"stim\">8</p>", "internal_node_id": "0.0-98.0-2.0", "time_elapsed": 684722, "key_press": -1, "trial_index": 136}, "uniqueid": "MTK3100:3GGAI1SQEW5LDANZAJFMPTTJL4GMCL", "dateTime": 1520015675141}, {"current_trial": 137, "trialdata": {"rt": -1, "trial_type": "single-stim", "stimulus": "<p id=\"stim\">7</p>", "internal_node_id": "0.0-98.0-3.0", "time_elapsed": 685723, "key_press": -1, "trial_index": 137}, "uniqueid": "MTK3100:3GGAI1SQEW5LDANZAJFMPTTJL4GMCL", "dateTime": 1520015676142}, {"current_trial": 138, "trialdata": {"rt": -1, "trial_type": "single-stim", "stimulus": "<p id=\"stim\">6</p>", "internal_node_id": "0.0-98.0-4.0", "time_elapsed": 686724, "key_press": -1, "trial_index": 138}, "uniqueid": "MTK3100:3GGAI1SQEW5LDANZAJFMPTTJL4GMCL", "dateTime": 1520015677143}, {"current_trial": 139, "trialdata": {"rt": -1, "trial_type": "single-stim", "stimulus": "<p id=\"stim\">5</p>", "internal_node_id": "0.0-98.0-5.0", "time_elapsed": 687724, "key_press": -1, "trial_index": 139}, "uniqueid": "MTK3100:3GGAI1SQEW5LDANZAJFMPTTJL4GMCL", "dateTime": 1520015678144}, {"current_trial": 140, "trialdata": {"rt": -1, "trial_type": "single-stim", "stimulus": "<p id=\"stim\">4</p>", "internal_node_id": "0.0-98.0-6.0", "time_elapsed": 688727, "key_press": -1, "trial_index": 140}, "uniqueid": "MTK3100:3GGAI1SQEW5LDANZAJFMPTTJL4GMCL", "dateTime": 1520015679146}, {"current_trial": 141, "trialdata": {"rt": -1, "trial_type": "single-stim", "stimulus": "<p id=\"stim\">3</p>", "internal_node_id": "0.0-98.0-7.0", "time_elapsed": 689728, "key_press": -1, "trial_index": 141}, "uniqueid": "MTK3100:3GGAI1SQEW5LDANZAJFMPTTJL4GMCL", "dateTime": 1520015680147}, {"current_trial": 142, "trialdata": {"rt": -1, "trial_type": "single-stim", "stimulus": "<p id=\"stim\">2</p>", "internal_node_id": "0.0-98.0-8.0", "time_elapsed": 690729, "key_press": -1, "trial_index": 142}, "uniqueid": "MTK3100:3GGAI1SQEW5LDANZAJFMPTTJL4GMCL", "dateTime": 1520015681148}, {"current_trial": 143, "trialdata": {"rt": -1, "trial_type": "single-stim", "stimulus": "<p id=\"stim\">1</p>", "internal_node_id": "0.0-98.0-9.0", "time_elapsed": 691731, "key_press": -1, "trial_index": 143}, "uniqueid": "MTK3100:3GGAI1SQEW5LDANZAJFMPTTJL4GMCL", "dateTime": 1520015682150}, {"current_trial": 144, "trialdata": {"rt": -1, "trial_type": "single-stim", "stimulus": "<p id=\"stim\">+</p>", "internal_node_id": "0.0-99.0-0.0", "time_elapsed": 693233, "key_press": -1, "type": "FIXATION", "trial_index": 144}, "uniqueid": "MTK3100:3GGAI1SQEW5LDANZAJFMPTTJL4GMCL", "dateTime": 1520015683652}, {"current_trial": 145, "trialdata": {"rt": -1000, "trial_type": "single-audio", "word": "husband", "stimulus": "/static/audio/wordpool/HUSBAND.wav", "conditions": [12, 1600, "a", 24000], "internal_node_id": "0.0-100.0", "trial": 4, "time_elapsed": 695909, "serialpos": 0, "key_press": -1, "wordID": 727, "type": "PRES_AUD", "trial_index": 145}, "uniqueid": "MTK3100:3GGAI1SQEW5LDANZAJFMPTTJL4GMCL", "dateTime": 1520015686329}, {"current_trial": 146, "trialdata": {"rt": -1000, "trial_type": "single-audio", "word": "victim", "stimulus": "/static/audio/wordpool/VICTIM.wav", "conditions": [12, 1600, "a", 24000], "internal_node_id": "0.0-101.0", "trial": 4, "time_elapsed": 698634, "serialpos": 1, "key_press": -1, "wordID": 1561, "type": "PRES_AUD", "trial_index": 146}, "uniqueid": "MTK3100:3GGAI1SQEW5LDANZAJFMPTTJL4GMCL", "dateTime": 1520015689053}, {"current_trial": 147, "trialdata": {"rt": -1000, "trial_type": "single-audio", "word": "hero", "stimulus": "/static/audio/wordpool/HERO.wav", "conditions": [12, 1600, "a", 24000], "internal_node_id": "0.0-102.0", "trial": 4, "time_elapsed": 701272, "serialpos": 2, "key_press": -1, "wordID": 705, "type": "PRES_AUD", "trial_index": 147}, "uniqueid": "MTK3100:3GGAI1SQEW5LDANZAJFMPTTJL4GMCL", "dateTime": 1520015691692}, {"current_trial": 148, "trialdata": {"rt": -1000, "trial_type": "single-audio", "word": "nurse", "stimulus": "/static/audio/wordpool/NURSE.wav", "conditions": [12, 1600, "a", 24000], "internal_node_id": "0.0-103.0", "trial": 4, "time_elapsed": 703862, "serialpos": 3, "key_press": -1, "wordID": 962, "type": "PRES_AUD", "trial_index": 148}, "uniqueid": "MTK3100:3GGAI1SQEW5LDANZAJFMPTTJL4GMCL", "dateTime": 1520015694281}, {"current_trial": 149, "trialdata": {"rt": -1000, "trial_type": "single-audio", "word": "patient", "stimulus": "/static/audio/wordpool/PATIENT.wav", "conditions": [12, 1600, "a", 24000], "internal_node_id": "0.0-104.0", "trial": 4, "time_elapsed": 706546, "serialpos": 4, "key_press": -1, "wordID": 1023, "type": "PRES_AUD", "trial_index": 149}, "uniqueid": "MTK3100:3GGAI1SQEW5LDANZAJFMPTTJL4GMCL", "dateTime": 1520015696965}, {"current_trial": 150, "trialdata": {"rt": -1000, "trial_type": "single-audio", "word": "marker", "stimulus": "/static/audio/wordpool/MARKER.wav", "conditions": [12, 1600, "a", 24000], "internal_node_id": "0.0-105.0", "trial": 4, "time_elapsed": 709151, "serialpos": 5, "key_press": -1, "wordID": 869, "type": "PRES_AUD", "trial_index": 150}, "uniqueid": "MTK3100:3GGAI1SQEW5LDANZAJFMPTTJL4GMCL", "dateTime": 1520015699570}, {"current_trial": 151, "trialdata": {"rt": -1000, "trial_type": "single-audio", "word": "waitress", "stimulus": "/static/audio/wordpool/WAITRESS.wav", "conditions": [12, 1600, "a", 24000], "internal_node_id": "0.0-106.0", "trial": 4, "time_elapsed": 711936, "serialpos": 6, "key_press": -1, "wordID": 1580, "type": "PRES_AUD", "trial_index": 151}, "uniqueid": "MTK3100:3GGAI1SQEW5LDANZAJFMPTTJL4GMCL", "dateTime": 1520015702355}, {"current_trial": 152, "trialdata": {"rt": -1000, "trial_type": "single-audio", "word": "comet", "stimulus": "/static/audio/wordpool/COMET.wav", "conditions": [12, 1600, "a", 24000], "internal_node_id": "0.0-107.0", "trial": 4, "time_elapsed": 714499, "serialpos": 7, "key_press": -1, "wordID": 352, "type": "PRES_AUD", "trial_index": 152}, "uniqueid": "MTK3100:3GGAI1SQEW5LDANZAJFMPTTJL4GMCL", "dateTime": 1520015704918}, {"current_trial": 153, "trialdata": {"rt": -1000, "trial_type": "single-audio", "word": "shovel", "stimulus": "/static/audio/wordpool/SHOVEL.wav", "conditions": [12, 1600, "a", 24000], "internal_node_id": "0.0-108.0", "trial": 4, "time_elapsed": 717238, "serialpos": 8, "key_press": -1, "wordID": 1294, "type": "PRES_AUD", "trial_index": 153}, "uniqueid": "MTK3100:3GGAI1SQEW5LDANZAJFMPTTJL4GMCL", "dateTime": 1520015707657}, {"current_trial": 154, "trialdata": {"rt": -1000, "trial_type": "single-audio", "word": "diver", "stimulus": "/static/audio/wordpool/DIVER.wav", "conditions": [12, 1600, "a", 24000], "internal_node_id": "0.0-109.0", "trial": 4, "time_elapsed": 719784, "serialpos": 9, "key_press": -1, "wordID": 475, "type": "PRES_AUD", "trial_index": 154}, "uniqueid": "MTK3100:3GGAI1SQEW5LDANZAJFMPTTJL4GMCL", "dateTime": 1520015710203}, {"current_trial": 155, "trialdata": {"rt": -1000, "trial_type": "single-audio", "word": "widow", "stimulus": "/static/audio/wordpool/WIDOW.wav", "conditions": [12, 1600, "a", 24000], "internal_node_id": "0.0-110.0", "trial": 4, "time_elapsed": 722542, "serialpos": 10, "key_press": -1, "wordID": 1607, "type": "PRES_AUD", "trial_index": 155}, "uniqueid": "MTK3100:3GGAI1SQEW5LDANZAJFMPTTJL4GMCL", "dateTime": 1520015712961}, {"current_trial": 156, "trialdata": {"rt": -1000, "trial_type": "single-audio", "word": "brother", "stimulus": "/static/audio/wordpool/BROTHER.wav", "conditions": [12, 1600, "a", 24000], "internal_node_id": "0.0-111.0", "trial": 4, "time_elapsed": 725189, "serialpos": 11, "key_press": -1, "wordID": 178, "type": "PRES_AUD", "trial_index": 156}, "uniqueid": "MTK3100:3GGAI1SQEW5LDANZAJFMPTTJL4GMCL", "dateTime": 1520015715608}, {"current_trial": 157, "trialdata": {"rt": -1, "trial_type": "single-stim", "stimulus": "", "internal_node_id": "0.0-112.0-0.0", "time_elapsed": 726441, "key_press": -1, "type": "PRE_RECALL_DELAY", "trial_index": 157}, "uniqueid": "MTK3100:3GGAI1SQEW5LDANZAJFMPTTJL4GMCL", "dateTime": 1520015716860}, {"current_trial": 158, "trialdata": {"rt": -1000, "trial_type": "single-audio", "stimulus": "/static/audio/400Hz.wav", "internal_node_id": "0.0-113.0", "time_elapsed": 726942, "key_press": -1, "type": "PRE_RECALL_ALERT", "trial_index": 158}, "uniqueid": "MTK3100:3GGAI1SQEW5LDANZAJFMPTTJL4GMCL", "dateTime": 1520015717362}, {"current_trial": 159, "trialdata": {"rt": [3625, 4632, 5932, 8261, 11462, 39858], "recwords": ["husband", "brother", "diver", "widow", "doctor", "diver"], "key_times": [824, 965, 969, 1224, 1298, 1745, 1906, 2286, 2620, 2870, 2928, 3096, 3242, 3376, 3427, 3625, 3842, 3957, 4028, 4125, 4208, 4352, 4416, 4632, 5322, 5437, 5525, 5647, 5739, 5932, 7655, 7764, 7910, 7991, 8084, 8261, 9931, 10734, 10857, 11085, 11204, 11282, 11462, 38628, 38720, 38895, 39140, 39227, 39858], "trial_type": "free-recall", "conditions": [12, 1600, "a", 24000], "internal_node_id": "0.0-114.0-0.0", "key_presses": [72, 83, 85, 66, 65, 8, 8, 8, 8, 85, 83, 66, 65, 78, 68, 13, 66, 82, 79, 84, 72, 69, 82, 13, 68, 73, 86, 69, 82, 13, 87, 73, 68, 79, 87, 13, 68, 79, 67, 84, 79, 82, 13, 68, 73, 86, 69, 82, 13], "trial": 4, "time_elapsed": 786944, "type": "FREE_RECALL", "trial_index": 159}, "uniqueid": "MTK3100:3GGAI1SQEW5LDANZAJFMPTTJL4GMCL", "dateTime": 1520015777365}, {"current_trial": 160, "trialdata": {"rt": 1184, "trial_type": "text", "internal_node_id": "0.0-115.0", "time_elapsed": 790131, "key_press": 32, "type": "INSTRUCTIONS", "trial_index": 160}, "uniqueid": "MTK3100:3GGAI1SQEW5LDANZAJFMPTTJL4GMCL", "dateTime": 1520015780550}, {"current_trial": 161, "trialdata": {"rt": [6571, 9401, 13199, 17488, 20074, 22595], "trial_type": "math-distractor", "key_times": [5992, 6362, 6571, 8835, 9401, 12755, 12924, 13199, 16884, 17134, 17488, 19711, 19888, 20074, 22230, 22378, 22595], "responses": ["13", "8", "20", "17", "11", "10"], "num2": [4, 2, 6, 5, 8, 1, 3], "num3": [2, 5, 5, 4, 2, 6, 3], "conditions": [24, 1600, "a", 24000], "internal_node_id": "0.0-116.0", "key_presses": [49, 51, 13, 56, 13, 50, 48, 13, 49, 55, 13, 49, 49, 13, 49, 48, 13], "trial": 5, "time_elapsed": 816134, "type": "DISTRACTOR", "trial_index": 161, "num1": [7, 1, 9, 8, 1, 3, 9]}, "uniqueid": "MTK3100:3GGAI1SQEW5LDANZAJFMPTTJL4GMCL", "dateTime": 1520015806553}, {"current_trial": 162, "trialdata": {"rt": -1, "trial_type": "single-stim", "stimulus": "<p id=\"stim\">10</p>", "internal_node_id": "0.0-117.0-0.0", "time_elapsed": 819136, "key_press": -1, "trial_index": 162}, "uniqueid": "MTK3100:3GGAI1SQEW5LDANZAJFMPTTJL4GMCL", "dateTime": 1520015809555}, {"current_trial": 163, "trialdata": {"rt": -1, "trial_type": "single-stim", "stimulus": "<p id=\"stim\">9</p>", "internal_node_id": "0.0-117.0-1.0", "time_elapsed": 820138, "key_press": -1, "trial_index": 163}, "uniqueid": "MTK3100:3GGAI1SQEW5LDANZAJFMPTTJL4GMCL", "dateTime": 1520015810557}, {"current_trial": 164, "trialdata": {"rt": -1, "trial_type": "single-stim", "stimulus": "<p id=\"stim\">8</p>", "internal_node_id": "0.0-117.0-2.0", "time_elapsed": 821139, "key_press": -1, "trial_index": 164}, "uniqueid": "MTK3100:3GGAI1SQEW5LDANZAJFMPTTJL4GMCL", "dateTime": 1520015811558}, {"current_trial": 165, "trialdata": {"rt": -1, "trial_type": "single-stim", "stimulus": "<p id=\"stim\">7</p>", "internal_node_id": "0.0-117.0-3.0", "time_elapsed": 822141, "key_press": -1, "trial_index": 165}, "uniqueid": "MTK3100:3GGAI1SQEW5LDANZAJFMPTTJL4GMCL", "dateTime": 1520015812560}, {"current_trial": 166, "trialdata": {"rt": -1, "trial_type": "single-stim", "stimulus": "<p id=\"stim\">6</p>", "internal_node_id": "0.0-117.0-4.0", "time_elapsed": 823142, "key_press": -1, "trial_index": 166}, "uniqueid": "MTK3100:3GGAI1SQEW5LDANZAJFMPTTJL4GMCL", "dateTime": 1520015813561}, {"current_trial": 167, "trialdata": {"rt": -1, "trial_type": "single-stim", "stimulus": "<p id=\"stim\">5</p>", "internal_node_id": "0.0-117.0-5.0", "time_elapsed": 824142, "key_press": -1, "trial_index": 167}, "uniqueid": "MTK3100:3GGAI1SQEW5LDANZAJFMPTTJL4GMCL", "dateTime": 1520015814562}, {"current_trial": 168, "trialdata": {"rt": -1, "trial_type": "single-stim", "stimulus": "<p id=\"stim\">4</p>", "internal_node_id": "0.0-117.0-6.0", "time_elapsed": 825144, "key_press": -1, "trial_index": 168}, "uniqueid": "MTK3100:3GGAI1SQEW5LDANZAJFMPTTJL4GMCL", "dateTime": 1520015815563}, {"current_trial": 169, "trialdata": {"rt": -1, "trial_type": "single-stim", "stimulus": "<p id=\"stim\">3</p>", "internal_node_id": "0.0-117.0-7.0", "time_elapsed": 826145, "key_press": -1, "trial_index": 169}, "uniqueid": "MTK3100:3GGAI1SQEW5LDANZAJFMPTTJL4GMCL", "dateTime": 1520015816564}, {"current_trial": 170, "trialdata": {"rt": -1, "trial_type": "single-stim", "stimulus": "<p id=\"stim\">2</p>", "internal_node_id": "0.0-117.0-8.0", "time_elapsed": 827147, "key_press": -1, "trial_index": 170}, "uniqueid": "MTK3100:3GGAI1SQEW5LDANZAJFMPTTJL4GMCL", "dateTime": 1520015817566}, {"current_trial": 171, "trialdata": {"rt": -1, "trial_type": "single-stim", "stimulus": "<p id=\"stim\">1</p>", "internal_node_id": "0.0-117.0-9.0", "time_elapsed": 828149, "key_press": -1, "trial_index": 171}, "uniqueid": "MTK3100:3GGAI1SQEW5LDANZAJFMPTTJL4GMCL", "dateTime": 1520015818568}, {"current_trial": 172, "trialdata": {"rt": -1, "trial_type": "single-stim", "stimulus": "<p id=\"stim\">+</p>", "internal_node_id": "0.0-118.0-0.0", "time_elapsed": 829651, "key_press": -1, "type": "FIXATION", "trial_index": 172}, "uniqueid": "MTK3100:3GGAI1SQEW5LDANZAJFMPTTJL4GMCL", "dateTime": 1520015820070}, {"current_trial": 173, "trialdata": {"rt": -1000, "trial_type": "single-audio", "word": "cousin", "stimulus": "/static/audio/wordpool/COUSIN.wav", "conditions": [24, 1600, "a", 24000], "internal_node_id": "0.0-119.0", "trial": 5, "time_elapsed": 832345, "serialpos": 0, "key_press": -1, "wordID": 391, "type": "PRES_AUD", "trial_index": 173}, "uniqueid": "MTK3100:3GGAI1SQEW5LDANZAJFMPTTJL4GMCL", "dateTime": 1520015822764}, {"current_trial": 174, "trialdata": {"rt": -1000, "trial_type": "single-audio", "word": "survey", "stimulus": "/static/audio/wordpool/SURVEY.wav", "conditions": [24, 1600, "a", 24000], "internal_node_id": "0.0-120.0", "trial": 5, "time_elapsed": 834866, "serialpos": 1, "key_press": -1, "wordID": 1413, "type": "PRES_AUD", "trial_index": 174}, "uniqueid": "MTK3100:3GGAI1SQEW5LDANZAJFMPTTJL4GMCL", "dateTime": 1520015825285}, {"current_trial": 175, "trialdata": {"rt": -1000, "trial_type": "single-audio", "word": "valley", "stimulus": "/static/audio/wordpool/VALLEY.wav", "conditions": [24, 1600, "a", 24000], "internal_node_id": "0.0-121.0", "trial": 5, "time_elapsed": 837272, "serialpos": 2, "key_press": -1, "wordID": 1544, "type": "PRES_AUD", "trial_index": 175}, "uniqueid": "MTK3100:3GGAI1SQEW5LDANZAJFMPTTJL4GMCL", "dateTime": 1520015827691}, {"current_trial": 176, "trialdata": {"rt": -1000, "trial_type": "single-audio", "word": "pimple", "stimulus": "/static/audio/wordpool/PIMPLE.wav", "conditions": [24, 1600, "a", 24000], "internal_node_id": "0.0-122.0", "trial": 5, "time_elapsed": 839974, "serialpos": 3, "key_press": -1, "wordID": 1070, "type": "PRES_AUD", "trial_index": 176}, "uniqueid": "MTK3100:3GGAI1SQEW5LDANZAJFMPTTJL4GMCL", "dateTime": 1520015830393}, {"current_trial": 177, "trialdata": {"rt": -1000, "trial_type": "single-audio", "word": "guard", "stimulus": "/static/audio/wordpool/GUARD.wav", "conditions": [24, 1600, "a", 24000], "internal_node_id": "0.0-123.0", "trial": 5, "time_elapsed": 842541, "serialpos": 4, "key_press": -1, "wordID": 666, "type": "PRES_AUD", "trial_index": 177}, "uniqueid": "MTK3100:3GGAI1SQEW5LDANZAJFMPTTJL4GMCL", "dateTime": 1520015832960}, {"current_trial": 178, "trialdata": {"rt": -1000, "trial_type": "single-audio", "word": "twister", "stimulus": "/static/audio/wordpool/TWISTER.wav", "conditions": [24, 1600, "a", 24000], "internal_node_id": "0.0-124.0", "trial": 5, "time_elapsed": 845229, "serialpos": 5, "key_press": -1, "wordID": 1529, "type": "PRES_AUD", "trial_index": 178}, "uniqueid": "MTK3100:3GGAI1SQEW5LDANZAJFMPTTJL4GMCL", "dateTime": 1520015835650}, {"current_trial": 179, "trialdata": {"rt": -1000, "trial_type": "single-audio", "word": "freckle", "stimulus": "/static/audio/wordpool/FRECKLE.wav", "conditions": [24, 1600, "a", 24000], "internal_node_id": "0.0-125.0", "trial": 5, "time_elapsed": 847985, "serialpos": 6, "key_press": -1, "wordID": 601, "type": "PRES_AUD", "trial_index": 179}, "uniqueid": "MTK3100:3GGAI1SQEW5LDANZAJFMPTTJL4GMCL", "dateTime": 1520015838405}, {"current_trial": 180, "trialdata": {"rt": -1000, "trial_type": "single-audio", "word": "hornet", "stimulus": "/static/audio/wordpool/HORNET.wav", "conditions": [24, 1600, "a", 24000], "internal_node_id": "0.0-126.0", "trial": 5, "time_elapsed": 850546, "serialpos": 7, "key_press": -1, "wordID": 717, "type": "PRES_AUD", "trial_index": 180}, "uniqueid": "MTK3100:3GGAI1SQEW5LDANZAJFMPTTJL4GMCL", "dateTime": 1520015840965}, {"current_trial": 181, "trialdata": {"rt": -1000, "trial_type": "single-audio", "word": "flag", "stimulus": "/static/audio/wordpool/FLAG.wav", "conditions": [24, 1600, "a", 24000], "internal_node_id": "0.0-127.0", "trial": 5, "time_elapsed": 853074, "serialpos": 8, "key_press": -1, "wordID": 572, "type": "PRES_AUD", "trial_index": 181}, "uniqueid": "MTK3100:3GGAI1SQEW5LDANZAJFMPTTJL4GMCL", "dateTime": 1520015843493}, {"current_trial": 182, "trialdata": {"rt": -1000, "trial_type": "single-audio", "word": "sister", "stimulus": "/static/audio/wordpool/SISTER.wav", "conditions": [24, 1600, "a", 24000], "internal_node_id": "0.0-128.0", "trial": 5, "time_elapsed": 855755, "serialpos": 9, "key_press": -1, "wordID": 1311, "type": "PRES_AUD", "trial_index": 182}, "uniqueid": "MTK3100:3GGAI1SQEW5LDANZAJFMPTTJL4GMCL", "dateTime": 1520015846174}, {"current_trial": 183, "trialdata": {"rt": -1000, "trial_type": "single-audio", "word": "sibling", "stimulus": "/static/audio/wordpool/SIBLING.wav", "conditions": [24, 1600, "a", 24000], "internal_node_id": "0.0-129.0", "trial": 5, "time_elapsed": 858445, "serialpos": 10, "key_press": -1, "wordID": 1300, "type": "PRES_AUD", "trial_index": 183}, "uniqueid": "MTK3100:3GGAI1SQEW5LDANZAJFMPTTJL4GMCL", "dateTime": 1520015848864}, {"current_trial": 184, "trialdata": {"rt": -1000, "trial_type": "single-audio", "word": "frame", "stimulus": "/static/audio/wordpool/FRAME.wav", "conditions": [24, 1600, "a", 24000], "internal_node_id": "0.0-130.0", "trial": 5, "time_elapsed": 861221, "serialpos": 11, "key_press": -1, "wordID": 599, "type": "PRES_AUD", "trial_index": 184}, "uniqueid": "MTK3100:3GGAI1SQEW5LDANZAJFMPTTJL4GMCL", "dateTime": 1520015851640}, {"current_trial": 185, "trialdata": {"rt": -1000, "trial_type": "single-audio", "word": "servant", "stimulus": "/static/audio/wordpool/SERVANT.wav", "conditions": [24, 1600, "a", 24000], "internal_node_id": "0.0-131.0", "trial": 5, "time_elapsed": 863914, "serialpos": 12, "key_press": -1, "wordID": 1270, "type": "PRES_AUD", "trial_index": 185}, "uniqueid": "MTK3100:3GGAI1SQEW5LDANZAJFMPTTJL4GMCL", "dateTime": 1520015854334}, {"current_trial": 186, "trialdata": {"rt": -1000, "trial_type": "single-audio", "word": "county", "stimulus": "/static/audio/wordpool/COUNTY.wav", "conditions": [24, 1600, "a", 24000], "internal_node_id": "0.0-132.0", "trial": 5, "time_elapsed": 866627, "serialpos": 13, "key_press": -1, "wordID": 388, "type": "PRES_AUD", "trial_index": 186}, "uniqueid": "MTK3100:3GGAI1SQEW5LDANZAJFMPTTJL4GMCL", "dateTime": 1520015857046}, {"current_trial": 187, "trialdata": {"rt": -1000, "trial_type": "single-audio", "word": "spool", "stimulus": "/static/audio/wordpool/SPOOL.wav", "conditions": [24, 1600, "a", 24000], "internal_node_id": "0.0-133.0", "trial": 5, "time_elapsed": 869366, "serialpos": 14, "key_press": -1, "wordID": 1355, "type": "PRES_AUD", "trial_index": 187}, "uniqueid": "MTK3100:3GGAI1SQEW5LDANZAJFMPTTJL4GMCL", "dateTime": 1520015859785}, {"current_trial": 188, "trialdata": {"rt": -1000, "trial_type": "single-audio", "word": "cook", "stimulus": "/static/audio/wordpool/COOK.wav", "conditions": [24, 1600, "a", 24000], "internal_node_id": "0.0-134.0", "trial": 5, "time_elapsed": 871905, "serialpos": 15, "key_press": -1, "wordID": 371, "type": "PRES_AUD", "trial_index": 188}, "uniqueid": "MTK3100:3GGAI1SQEW5LDANZAJFMPTTJL4GMCL", "dateTime": 1520015862324}, {"current_trial": 189, "trialdata": {"rt": -1000, "trial_type": "single-audio", "word": "costume", "stimulus": "/static/audio/wordpool/COSTUME.wav", "conditions": [24, 1600, "a", 24000], "internal_node_id": "0.0-135.0", "trial": 5, "time_elapsed": 874474, "serialpos": 16, "key_press": -1, "wordID": 382, "type": "PRES_AUD", "trial_index": 189}, "uniqueid": "MTK3100:3GGAI1SQEW5LDANZAJFMPTTJL4GMCL", "dateTime": 1520015864893}, {"current_trial": 190, "trialdata": {"rt": -1000, "trial_type": "single-audio", "word": "match", "stimulus": "/static/audio/wordpool/MATCH.wav", "conditions": [24, 1600, "a", 24000], "internal_node_id": "0.0-136.0", "trial": 5, "time_elapsed": 877162, "serialpos": 17, "key_press": -1, "wordID": 877, "type": "PRES_AUD", "trial_index": 190}, "uniqueid": "MTK3100:3GGAI1SQEW5LDANZAJFMPTTJL4GMCL", "dateTime": 1520015867581}, {"current_trial": 191, "trialdata": {"rt": -1000, "trial_type": "single-audio", "word": "jury", "stimulus": "/static/audio/wordpool/JURY.wav", "conditions": [24, 1600, "a", 24000], "internal_node_id": "0.0-137.0", "trial": 5, "time_elapsed": 879902, "serialpos": 18, "key_press": -1, "wordID": 765, "type": "PRES_AUD", "trial_index": 191}, "uniqueid": "MTK3100:3GGAI1SQEW5LDANZAJFMPTTJL4GMCL", "dateTime": 1520015870321}, {"current_trial": 192, "trialdata": {"rt": -1000, "trial_type": "single-audio", "word": "rod", "stimulus": "/static/audio/wordpool/ROD.wav", "conditions": [24, 1600, "a", 24000], "internal_node_id": "0.0-138.0", "trial": 5, "time_elapsed": 882551, "serialpos": 19, "key_press": -1, "wordID": 1202, "type": "PRES_AUD", "trial_index": 192}, "uniqueid": "MTK3100:3GGAI1SQEW5LDANZAJFMPTTJL4GMCL", "dateTime": 1520015872970}, {"current_trial": 193, "trialdata": {"rt": -1000, "trial_type": "single-audio", "word": "slug", "stimulus": "/static/audio/wordpool/SLUG.wav", "conditions": [24, 1600, "a", 24000], "internal_node_id": "0.0-139.0", "trial": 5, "time_elapsed": 884978, "serialpos": 20, "key_press": -1, "wordID": 1328, "type": "PRES_AUD", "trial_index": 193}, "uniqueid": "MTK3100:3GGAI1SQEW5LDANZAJFMPTTJL4GMCL", "dateTime": 1520015875397}, {"current_trial": 194, "trialdata": {"rt": -1000, "trial_type": "single-audio", "word": "banker", "stimulus": "/static/audio/wordpool/BANKER.wav", "conditions": [24, 1600, "a", 24000], "internal_node_id": "0.0-140.0", "trial": 5, "time_elapsed": 887531, "serialpos": 21, "key_press": -1, "wordID": 83, "type": "PRES_AUD", "trial_index": 194}, "uniqueid": "MTK3100:3GGAI1SQEW5LDANZAJFMPTTJL4GMCL", "dateTime": 1520015877950}, {"current_trial": 195, "trialdata": {"rt": -1000, "trial_type": "single-audio", "word": "bank", "stimulus": "/static/audio/wordpool/BANK.wav", "conditions": [24, 1600, "a", 24000], "internal_node_id": "0.0-141.0", "trial": 5, "time_elapsed": 890144, "serialpos": 22, "key_press": -1, "wordID": 82, "type": "PRES_AUD", "trial_index": 195}, "uniqueid": "MTK3100:3GGAI1SQEW5LDANZAJFMPTTJL4GMCL", "dateTime": 1520015880563}, {"current_trial": 196, "trialdata": {"rt": -1000, "trial_type": "single-audio", "word": "sphinx", "stimulus": "/static/audio/wordpool/SPHINX.wav", "conditions": [24, 1600, "a", 24000], "internal_node_id": "0.0-142.0", "trial": 5, "time_elapsed": 892727, "serialpos": 23, "key_press": -1, "wordID": 1348, "type": "PRES_AUD", "trial_index": 196}, "uniqueid": "MTK3100:3GGAI1SQEW5LDANZAJFMPTTJL4GMCL", "dateTime": 1520015883146}, {"current_trial": 197, "trialdata": {"rt": -1, "trial_type": "single-stim", "stimulus": "", "internal_node_id": "0.0-143.0-0.0", "time_elapsed": 894048, "key_press": -1, "type": "PRE_RECALL_DELAY", "trial_index": 197}, "uniqueid": "MTK3100:3GGAI1SQEW5LDANZAJFMPTTJL4GMCL", "dateTime": 1520015884467}, {"current_trial": 198, "trialdata": {"rt": -1000, "trial_type": "single-audio", "stimulus": "/static/audio/400Hz.wav", "internal_node_id": "0.0-144.0", "time_elapsed": 894550, "key_press": -1, "type": "PRE_RECALL_ALERT", "trial_index": 198}, "uniqueid": "MTK3100:3GGAI1SQEW5LDANZAJFMPTTJL4GMCL", "dateTime": 1520015884969}, {"current_trial": 199, "trialdata": {"rt": [1454, 3339, 4604, 5745, 9271, 12162], "recwords": ["valley", "freckle", "survey", "match", "sphynx", "match"], "key_times": [686, 831, 983, 1131, 1224, 1346, 1454, 1659, 1762, 2334, 2559, 2645, 2790, 2962, 3339, 3721, 3911, 3981, 4142, 4255, 4470, 4604, 4824, 4948, 5049, 5408, 5477, 5745, 5860, 5974, 6145, 6481, 6825, 6949, 7176, 7296, 7880, 7989, 8573, 8645, 9271, 11242, 11343, 11456, 11780, 11890, 12162], "trial_type": "free-recall", "conditions": [24, 1600, "a", 24000], "internal_node_id": "0.0-145.0-0.0", "key_presses": [86, 65, 76, 76, 69, 89, 13, 70, 82, 69, 67, 75, 76, 69, 13, 83, 85, 82, 86, 69, 89, 13, 77, 65, 84, 67, 72, 13, 83, 80, 89, 67, 8, 8, 72, 89, 78, 67, 8, 88, 13, 77, 65, 84, 67, 72, 13], "trial": 5, "time_elapsed": 954552, "type": "FREE_RECALL", "trial_index": 199}, "uniqueid": "MTK3100:3GGAI1SQEW5LDANZAJFMPTTJL4GMCL", "dateTime": 1520015944974}, {"current_trial": 200, "trialdata": {"rt": 701, "trial_type": "text", "internal_node_id": "0.0-146.0", "time_elapsed": 957256, "key_press": 32, "type": "INSTRUCTIONS", "trial_index": 200}, "uniqueid": "MTK3100:3GGAI1SQEW5LDANZAJFMPTTJL4GMCL", "dateTime": 1520015947675}, {"current_trial": 201, "trialdata": {"rt": [2811, 5491, 7578, 12251, 15677], "trial_type": "math-distractor", "key_times": [2190, 2520, 2811, 5190, 5305, 5491, 7354, 7578, 11856, 12029, 12251, 15169, 15426, 15677], "responses": ["16", "10", "9", "22", "15"], "num2": [5, 3, 1, 9, 6, 6], "num3": [6, 5, 6, 6, 1, 7], "conditions": [24, 800, "a", 24000], "internal_node_id": "0.0-147.0", "key_presses": [49, 54, 13, 49, 48, 13, 57, 13, 50, 50, 13, 49, 53, 13], "trial": 6, "time_elapsed": 983258, "type": "DISTRACTOR", "trial_index": 201, "num1": [5, 2, 2, 6, 8, 8]}, "uniqueid": "MTK3100:3GGAI1SQEW5LDANZAJFMPTTJL4GMCL", "dateTime": 1520015973678}, {"current_trial": 202, "trialdata": {"rt": -1, "trial_type": "single-stim", "stimulus": "<p id=\"stim\">10</p>", "internal_node_id": "0.0-148.0-0.0", "time_elapsed": 986260, "key_press": -1, "trial_index": 202}, "uniqueid": "MTK3100:3GGAI1SQEW5LDANZAJFMPTTJL4GMCL", "dateTime": 1520015976679}, {"current_trial": 203, "trialdata": {"rt": -1, "trial_type": "single-stim", "stimulus": "<p id=\"stim\">9</p>", "internal_node_id": "0.0-148.0-1.0", "time_elapsed": 987261, "key_press": -1, "trial_index": 203}, "uniqueid": "MTK3100:3GGAI1SQEW5LDANZAJFMPTTJL4GMCL", "dateTime": 1520015977680}, {"current_trial": 204, "trialdata": {"rt": -1, "trial_type": "single-stim", "stimulus": "<p id=\"stim\">8</p>", "internal_node_id": "0.0-148.0-2.0", "time_elapsed": 988262, "key_press": -1, "trial_index": 204}, "uniqueid": "MTK3100:3GGAI1SQEW5LDANZAJFMPTTJL4GMCL", "dateTime": 1520015978681}, {"current_trial": 205, "trialdata": {"rt": 192, "trial_type": "single-stim", "stimulus": "<p id=\"stim\">7</p>", "internal_node_id": "0.0-148.0-3.0", "time_elapsed": 989263, "key_press": 32, "trial_index": 205}, "uniqueid": "MTK3100:3GGAI1SQEW5LDANZAJFMPTTJL4GMCL", "dateTime": 1520015979682}, {"current_trial": 206, "trialdata": {"rt": -1, "trial_type": "single-stim", "stimulus": "<p id=\"stim\">6</p>", "internal_node_id": "0.0-148.0-4.0", "time_elapsed": 990265, "key_press": -1, "trial_index": 206}, "uniqueid": "MTK3100:3GGAI1SQEW5LDANZAJFMPTTJL4GMCL", "dateTime": 1520015980684}, {"current_trial": 207, "trialdata": {"rt": -1, "trial_type": "single-stim", "stimulus": "<p id=\"stim\">5</p>", "internal_node_id": "0.0-148.0-5.0", "time_elapsed": 991266, "key_press": -1, "trial_index": 207}, "uniqueid": "MTK3100:3GGAI1SQEW5LDANZAJFMPTTJL4GMCL", "dateTime": 1520015981685}, {"current_trial": 208, "trialdata": {"rt": -1, "trial_type": "single-stim", "stimulus": "<p id=\"stim\">4</p>", "internal_node_id": "0.0-148.0-6.0", "time_elapsed": 992267, "key_press": -1, "trial_index": 208}, "uniqueid": "MTK3100:3GGAI1SQEW5LDANZAJFMPTTJL4GMCL", "dateTime": 1520015982687}, {"current_trial": 209, "trialdata": {"rt": -1, "trial_type": "single-stim", "stimulus": "<p id=\"stim\">3</p>", "internal_node_id": "0.0-148.0-7.0", "time_elapsed": 993269, "key_press": -1, "trial_index": 209}, "uniqueid": "MTK3100:3GGAI1SQEW5LDANZAJFMPTTJL4GMCL", "dateTime": 1520015983688}, {"current_trial": 210, "trialdata": {"rt": -1, "trial_type": "single-stim", "stimulus": "<p id=\"stim\">2</p>", "internal_node_id": "0.0-148.0-8.0", "time_elapsed": 994269, "key_press": -1, "trial_index": 210}, "uniqueid": "MTK3100:3GGAI1SQEW5LDANZAJFMPTTJL4GMCL", "dateTime": 1520015984689}, {"current_trial": 211, "trialdata": {"rt": -1, "trial_type": "single-stim", "stimulus": "<p id=\"stim\">1</p>", "internal_node_id": "0.0-148.0-9.0", "time_elapsed": 995271, "key_press": -1, "trial_index": 211}, "uniqueid": "MTK3100:3GGAI1SQEW5LDANZAJFMPTTJL4GMCL", "dateTime": 1520015985690}, {"current_trial": 212, "trialdata": {"rt": -1, "trial_type": "single-stim", "stimulus": "<p id=\"stim\">+</p>", "internal_node_id": "0.0-149.0-0.0", "time_elapsed": 996772, "key_press": -1, "type": "FIXATION", "trial_index": 212}, "uniqueid": "MTK3100:3GGAI1SQEW5LDANZAJFMPTTJL4GMCL", "dateTime": 1520015987191}, {"current_trial": 213, "trialdata": {"rt": -1000, "trial_type": "single-audio", "word": "pilot", "stimulus": "/static/audio/wordpool/PILOT.wav", "conditions": [24, 800, "a", 24000], "internal_node_id": "0.0-150.0", "trial": 6, "time_elapsed": 998497, "serialpos": 0, "key_press": -1, "wordID": 1069, "type": "PRES_AUD", "trial_index": 213}, "uniqueid": "MTK3100:3GGAI1SQEW5LDANZAJFMPTTJL4GMCL", "dateTime": 1520015988916}, {"current_trial": 214, "trialdata": {"rt": -1000, "trial_type": "single-audio", "word": "tractor", "stimulus": "/static/audio/wordpool/TRACTOR.wav", "conditions": [24, 800, "a", 24000], "internal_node_id": "0.0-151.0", "trial": 6, "time_elapsed": 1000309, "serialpos": 1, "key_press": -1, "wordID": 1492, "type": "PRES_AUD", "trial_index": 214}, "uniqueid": "MTK3100:3GGAI1SQEW5LDANZAJFMPTTJL4GMCL", "dateTime": 1520015990728}, {"current_trial": 215, "trialdata": {"rt": -1000, "trial_type": "single-audio", "word": "hamper", "stimulus": "/static/audio/wordpool/HAMPER.wav", "conditions": [24, 800, "a", 24000], "internal_node_id": "0.0-152.0", "trial": 6, "time_elapsed": 1001932, "serialpos": 2, "key_press": -1, "wordID": 681, "type": "PRES_AUD", "trial_index": 215}, "uniqueid": "MTK3100:3GGAI1SQEW5LDANZAJFMPTTJL4GMCL", "dateTime": 1520015992351}, {"current_trial": 216, "trialdata": {"rt": -1000, "trial_type": "single-audio", "word": "blender", "stimulus": "/static/audio/wordpool/BLENDER.wav", "conditions": [24, 800, "a", 24000], "internal_node_id": "0.0-153.0", "trial": 6, "time_elapsed": 1003542, "serialpos": 3, "key_press": -1, "wordID": 135, "type": "PRES_AUD", "trial_index": 216}, "uniqueid": "MTK3100:3GGAI1SQEW5LDANZAJFMPTTJL4GMCL", "dateTime": 1520015993961}, {"current_trial": 217, "trialdata": {"rt": -1000, "trial_type": "single-audio", "word": "motel", "stimulus": "/static/audio/wordpool/MOTEL.wav", "conditions": [24, 800, "a", 24000], "internal_node_id": "0.0-154.0", "trial": 6, "time_elapsed": 1005218, "serialpos": 4, "key_press": -1, "wordID": 918, "type": "PRES_AUD", "trial_index": 217}, "uniqueid": "MTK3100:3GGAI1SQEW5LDANZAJFMPTTJL4GMCL", "dateTime": 1520015995637}, {"current_trial": 218, "trialdata": {"rt": -1000, "trial_type": "single-audio", "word": "truck", "stimulus": "/static/audio/wordpool/TRUCK.wav", "conditions": [24, 800, "a", 24000], "internal_node_id": "0.0-155.0", "trial": 6, "time_elapsed": 1007024, "serialpos": 5, "key_press": -1, "wordID": 1511, "type": "PRES_AUD", "trial_index": 218}, "uniqueid": "MTK3100:3GGAI1SQEW5LDANZAJFMPTTJL4GMCL", "dateTime": 1520015997443}, {"current_trial": 219, "trialdata": {"rt": -1000, "trial_type": "single-audio", "word": "flower", "stimulus": "/static/audio/wordpool/FLOWER.wav", "conditions": [24, 800, "a", 24000], "internal_node_id": "0.0-156.0", "trial": 6, "time_elapsed": 1009006, "serialpos": 6, "key_press": -1, "wordID": 583, "type": "PRES_AUD", "trial_index": 219}, "uniqueid": "MTK3100:3GGAI1SQEW5LDANZAJFMPTTJL4GMCL", "dateTime": 1520015999425}, {"current_trial": 220, "trialdata": {"rt": -1000, "trial_type": "single-audio", "word": "clamp", "stimulus": "/static/audio/wordpool/CLAMP.wav", "conditions": [24, 800, "a", 24000], "internal_node_id": "0.0-157.0", "trial": 6, "time_elapsed": 1010633, "serialpos": 7, "key_press": -1, "wordID": 315, "type": "PRES_AUD", "trial_index": 220}, "uniqueid": "MTK3100:3GGAI1SQEW5LDANZAJFMPTTJL4GMCL", "dateTime": 1520016001052}, {"current_trial": 221, "trialdata": {"rt": -1000, "trial_type": "single-audio", "word": "blade", "stimulus": "/static/audio/wordpool/BLADE.wav", "conditions": [24, 800, "a", 24000], "internal_node_id": "0.0-158.0", "trial": 6, "time_elapsed": 1012601, "serialpos": 8, "key_press": -1, "wordID": 133, "type": "PRES_AUD", "trial_index": 221}, "uniqueid": "MTK3100:3GGAI1SQEW5LDANZAJFMPTTJL4GMCL", "dateTime": 1520016003020}, {"current_trial": 222, "trialdata": {"rt": -1000, "trial_type": "single-audio", "word": "knife", "stimulus": "/static/audio/wordpool/KNIFE.wav", "conditions": [24, 800, "a", 24000], "internal_node_id": "0.0-159.0", "trial": 6, "time_elapsed": 1014247, "serialpos": 9, "key_press": -1, "wordID": 784, "type": "PRES_AUD", "trial_index": 222}, "uniqueid": "MTK3100:3GGAI1SQEW5LDANZAJFMPTTJL4GMCL", "dateTime": 1520016004666}, {"current_trial": 223, "trialdata": {"rt": -1000, "trial_type": "single-audio", "word": "oyster", "stimulus": "/static/audio/wordpool/OYSTER.wav", "conditions": [24, 800, "a", 24000], "internal_node_id": "0.0-160.0", "trial": 6, "time_elapsed": 1016150, "serialpos": 10, "key_press": -1, "wordID": 994, "type": "PRES_AUD", "trial_index": 223}, "uniqueid": "MTK3100:3GGAI1SQEW5LDANZAJFMPTTJL4GMCL", "dateTime": 1520016006569}, {"current_trial": 224, "trialdata": {"rt": -1000, "trial_type": "single-audio", "word": "liver", "stimulus": "/static/audio/wordpool/LIVER.wav", "conditions": [24, 800, "a", 24000], "internal_node_id": "0.0-161.0", "trial": 6, "time_elapsed": 1017958, "serialpos": 11, "key_press": -1, "wordID": 832, "type": "PRES_AUD", "trial_index": 224}, "uniqueid": "MTK3100:3GGAI1SQEW5LDANZAJFMPTTJL4GMCL", "dateTime": 1520016008377}, {"current_trial": 225, "trialdata": {"rt": -1000, "trial_type": "single-audio", "word": "brandy", "stimulus": "/static/audio/wordpool/BRANDY.wav", "conditions": [24, 800, "a", 24000], "internal_node_id": "0.0-162.0", "trial": 6, "time_elapsed": 1019816, "serialpos": 12, "key_press": -1, "wordID": 168, "type": "PRES_AUD", "trial_index": 225}, "uniqueid": "MTK3100:3GGAI1SQEW5LDANZAJFMPTTJL4GMCL", "dateTime": 1520016010235}, {"current_trial": 226, "trialdata": {"rt": -1000, "trial_type": "single-audio", "word": "sunset", "stimulus": "/static/audio/wordpool/SUNSET.wav", "conditions": [24, 800, "a", 24000], "internal_node_id": "0.0-163.0", "trial": 6, "time_elapsed": 1021627, "serialpos": 13, "key_press": -1, "wordID": 1407, "type": "PRES_AUD", "trial_index": 226}, "uniqueid": "MTK3100:3GGAI1SQEW5LDANZAJFMPTTJL4GMCL", "dateTime": 1520016012046}, {"current_trial": 227, "trialdata": {"rt": -1000, "trial_type": "single-audio", "word": "beaker", "stimulus": "/static/audio/wordpool/BEAKER.wav", "conditions": [24, 800, "a", 24000], "internal_node_id": "0.0-164.0", "trial": 6, "time_elapsed": 1023442, "serialpos": 14, "key_press": -1, "wordID": 103, "type": "PRES_AUD", "trial_index": 227}, "uniqueid": "MTK3100:3GGAI1SQEW5LDANZAJFMPTTJL4GMCL", "dateTime": 1520016013861}, {"current_trial": 228, "trialdata": {"rt": -1000, "trial_type": "single-audio", "word": "girl", "stimulus": "/static/audio/wordpool/GIRL.wav", "conditions": [24, 800, "a", 24000], "internal_node_id": "0.0-165.0", "trial": 6, "time_elapsed": 1025398, "serialpos": 15, "key_press": -1, "wordID": 636, "type": "PRES_AUD", "trial_index": 228}, "uniqueid": "MTK3100:3GGAI1SQEW5LDANZAJFMPTTJL4GMCL", "dateTime": 1520016015817}, {"current_trial": 229, "trialdata": {"rt": -1000, "trial_type": "single-audio", "word": "lily", "stimulus": "/static/audio/wordpool/LILY.wav", "conditions": [24, 800, "a", 24000], "internal_node_id": "0.0-166.0", "trial": 6, "time_elapsed": 1027395, "serialpos": 16, "key_press": -1, "wordID": 820, "type": "PRES_AUD", "trial_index": 229}, "uniqueid": "MTK3100:3GGAI1SQEW5LDANZAJFMPTTJL4GMCL", "dateTime": 1520016017814}, {"current_trial": 230, "trialdata": {"rt": -1000, "trial_type": "single-audio", "word": "shrub", "stimulus": "/static/audio/wordpool/SHRUB.wav", "conditions": [24, 800, "a", 24000], "internal_node_id": "0.0-167.0", "trial": 6, "time_elapsed": 1029102, "serialpos": 17, "key_press": -1, "wordID": 1298, "type": "PRES_AUD", "trial_index": 230}, "uniqueid": "MTK3100:3GGAI1SQEW5LDANZAJFMPTTJL4GMCL", "dateTime": 1520016019521}, {"current_trial": 231, "trialdata": {"rt": -1000, "trial_type": "single-audio", "word": "glass", "stimulus": "/static/audio/wordpool/GLASS.wav", "conditions": [24, 800, "a", 24000], "internal_node_id": "0.0-168.0", "trial": 6, "time_elapsed": 1031049, "serialpos": 18, "key_press": -1, "wordID": 638, "type": "PRES_AUD", "trial_index": 231}, "uniqueid": "MTK3100:3GGAI1SQEW5LDANZAJFMPTTJL4GMCL", "dateTime": 1520016021468}, {"current_trial": 232, "trialdata": {"rt": -1000, "trial_type": "single-audio", "word": "curtain", "stimulus": "/static/audio/wordpool/CURTAIN.wav", "conditions": [24, 800, "a", 24000], "internal_node_id": "0.0-169.0", "trial": 6, "time_elapsed": 1032799, "serialpos": 19, "key_press": -1, "wordID": 426, "type": "PRES_AUD", "trial_index": 232}, "uniqueid": "MTK3100:3GGAI1SQEW5LDANZAJFMPTTJL4GMCL", "dateTime": 1520016023218}, {"current_trial": 233, "trialdata": {"rt": -1000, "trial_type": "single-audio", "word": "boyfriend", "stimulus": "/static/audio/wordpool/BOYFRIEND.wav", "conditions": [24, 800, "a", 24000], "internal_node_id": "0.0-170.0", "trial": 6, "time_elapsed": 1034524, "serialpos": 20, "key_press": -1, "wordID": 161, "type": "PRES_AUD", "trial_index": 233}, "uniqueid": "MTK3100:3GGAI1SQEW5LDANZAJFMPTTJL4GMCL", "dateTime": 1520016024943}, {"current_trial": 234, "trialdata": {"rt": -1000, "trial_type": "single-audio", "word": "crab", "stimulus": "/static/audio/wordpool/CRAB.wav", "conditions": [24, 800, "a", 24000], "internal_node_id": "0.0-171.0", "trial": 6, "time_elapsed": 1036278, "serialpos": 21, "key_press": -1, "wordID": 396, "type": "PRES_AUD", "trial_index": 234}, "uniqueid": "MTK3100:3GGAI1SQEW5LDANZAJFMPTTJL4GMCL", "dateTime": 1520016026697}, {"current_trial": 235, "trialdata": {"rt": -1000, "trial_type": "single-audio", "word": "banquet", "stimulus": "/static/audio/wordpool/BANQUET.wav", "conditions": [24, 800, "a", 24000], "internal_node_id": "0.0-172.0", "trial": 6, "time_elapsed": 1038012, "serialpos": 22, "key_press": -1, "wordID": 85, "type": "PRES_AUD", "trial_index": 235}, "uniqueid": "MTK3100:3GGAI1SQEW5LDANZAJFMPTTJL4GMCL", "dateTime": 1520016028431}, {"current_trial": 236, "trialdata": {"rt": -1000, "trial_type": "single-audio", "word": "fungus", "stimulus": "/static/audio/wordpool/FUNGUS.wav", "conditions": [24, 800, "a", 24000], "internal_node_id": "0.0-173.0", "trial": 6, "time_elapsed": 1039844, "serialpos": 23, "key_press": -1, "wordID": 613, "type": "PRES_AUD", "trial_index": 236}, "uniqueid": "MTK3100:3GGAI1SQEW5LDANZAJFMPTTJL4GMCL", "dateTime": 1520016030263}, {"current_trial": 237, "trialdata": {"rt": -1, "trial_type": "single-stim", "stimulus": "", "internal_node_id": "0.0-174.0-0.0", "time_elapsed": 1041244, "key_press": -1, "type": "PRE_RECALL_DELAY", "trial_index": 237}, "uniqueid": "MTK3100:3GGAI1SQEW5LDANZAJFMPTTJL4GMCL", "dateTime": 1520016031663}, {"current_trial": 238, "trialdata": {"rt": -1000, "trial_type": "single-audio", "stimulus": "/static/audio/400Hz.wav", "internal_node_id": "0.0-175.0", "time_elapsed": 1041746, "key_press": -1, "type": "PRE_RECALL_ALERT", "trial_index": 238}, "uniqueid": "MTK3100:3GGAI1SQEW5LDANZAJFMPTTJL4GMCL", "dateTime": 1520016032165}, {"current_trial": 239, "trialdata": {"rt": [1117, 4707, 6774, 8114, 11302, 13181, 18670], "recwords": ["fungues", "lily", "boyfriend", "glass", "shrug", "shrub", "banquet"], "key_times": [417, 496, 613, 698, 778, 903, 970, 1117, 4034, 4219, 4363, 4548, 4707, 5305, 5412, 5573, 6157, 6239, 6322, 6413, 6467, 6623, 6774, 6953, 7149, 7281, 7449, 7923, 8114, 10638, 10733, 10864, 10935, 11043, 11302, 12295, 12394, 12509, 12593, 12785, 13181, 17536, 17641, 17790, 18077, 18178, 18306, 18448, 18670], "trial_type": "free-recall", "conditions": [24, 800, "a", 24000], "internal_node_id": "0.0-176.0-0.0", "key_presses": [70, 85, 78, 71, 85, 69, 83, 13, 76, 73, 76, 89, 13, 66, 79, 89, 70, 82, 73, 69, 78, 68, 13, 71, 76, 65, 83, 83, 13, 83, 72, 82, 85, 71, 13, 83, 72, 82, 85, 66, 13, 66, 65, 78, 81, 85, 69, 84, 13], "trial": 6, "time_elapsed": 1101748, "type": "FREE_RECALL", "trial_index": 239}, "uniqueid": "MTK3100:3GGAI1SQEW5LDANZAJFMPTTJL4GMCL", "dateTime": 1520016092171}, {"current_trial": 240, "trialdata": {"rt": 878, "trial_type": "text", "internal_node_id": "0.0-177.0", "time_elapsed": 1104631, "key_press": 32, "type": "INSTRUCTIONS", "trial_index": 240}, "uniqueid": "MTK3100:3GGAI1SQEW5LDANZAJFMPTTJL4GMCL", "dateTime": 1520016095050}, {"current_trial": 241, "trialdata": {"rt": [2028, 6833, 11182, 13752, 16833, 20190, 23733], "trial_type": "math-distractor", "key_times": [1760, 2028, 6490, 6615, 6833, 10838, 10969, 11182, 13375, 13458, 13752, 16492, 16617, 16833, 19724, 19840, 20190, 23110, 23435, 23733], "responses": ["9", "14", "14", "12", "14", "11", "15"], "num2": [2, 7, 8, 6, 2, 3, 1, 1], "num3": [6, 4, 5, 4, 8, 1, 9, 7], "conditions": [12, 800, "a", 24000], "internal_node_id": "0.0-178.0", "key_presses": [57, 13, 49, 52, 13, 49, 52, 13, 49, 50, 13, 49, 52, 13, 49, 49, 13, 49, 53, 13], "trial": 7, "time_elapsed": 1130634, "type": "DISTRACTOR", "trial_index": 241, "num1": [1, 2, 1, 2, 4, 7, 5, 8]}, "uniqueid": "MTK3100:3GGAI1SQEW5LDANZAJFMPTTJL4GMCL", "dateTime": 1520016121053}, {"current_trial": 242, "trialdata": {"rt": -1, "trial_type": "single-stim", "stimulus": "<p id=\"stim\">10</p>", "internal_node_id": "0.0-179.0-0.0", "time_elapsed": 1133636, "key_press": -1, "trial_index": 242}, "uniqueid": "MTK3100:3GGAI1SQEW5LDANZAJFMPTTJL4GMCL", "dateTime": 1520016124055}, {"current_trial": 243, "trialdata": {"rt": -1, "trial_type": "single-stim", "stimulus": "<p id=\"stim\">9</p>", "internal_node_id": "0.0-179.0-1.0", "time_elapsed": 1134636, "key_press": -1, "trial_index": 243}, "uniqueid": "MTK3100:3GGAI1SQEW5LDANZAJFMPTTJL4GMCL", "dateTime": 1520016125055}, {"current_trial": 244, "trialdata": {"rt": -1, "trial_type": "single-stim", "stimulus": "<p id=\"stim\">8</p>", "internal_node_id": "0.0-179.0-2.0", "time_elapsed": 1135638, "key_press": -1, "trial_index": 244}, "uniqueid": "MTK3100:3GGAI1SQEW5LDANZAJFMPTTJL4GMCL", "dateTime": 1520016126057}, {"current_trial": 245, "trialdata": {"rt": -1, "trial_type": "single-stim", "stimulus": "<p id=\"stim\">7</p>", "internal_node_id": "0.0-179.0-3.0", "time_elapsed": 1136640, "key_press": -1, "trial_index": 245}, "uniqueid": "MTK3100:3GGAI1SQEW5LDANZAJFMPTTJL4GMCL", "dateTime": 1520016127059}, {"current_trial": 246, "trialdata": {"rt": -1, "trial_type": "single-stim", "stimulus": "<p id=\"stim\">6</p>", "internal_node_id": "0.0-179.0-4.0", "time_elapsed": 1137641, "key_press": -1, "trial_index": 246}, "uniqueid": "MTK3100:3GGAI1SQEW5LDANZAJFMPTTJL4GMCL", "dateTime": 1520016128060}, {"current_trial": 247, "trialdata": {"rt": -1, "trial_type": "single-stim", "stimulus": "<p id=\"stim\">5</p>", "internal_node_id": "0.0-179.0-5.0", "time_elapsed": 1138643, "key_press": -1, "trial_index": 247}, "uniqueid": "MTK3100:3GGAI1SQEW5LDANZAJFMPTTJL4GMCL", "dateTime": 1520016129062}, {"current_trial": 248, "trialdata": {"rt": -1, "trial_type": "single-stim", "stimulus": "<p id=\"stim\">4</p>", "internal_node_id": "0.0-179.0-6.0", "time_elapsed": 1139643, "key_press": -1, "trial_index": 248}, "uniqueid": "MTK3100:3GGAI1SQEW5LDANZAJFMPTTJL4GMCL", "dateTime": 1520016130062}, {"current_trial": 249, "trialdata": {"rt": -1, "trial_type": "single-stim", "stimulus": "<p id=\"stim\">3</p>", "internal_node_id": "0.0-179.0-7.0", "time_elapsed": 1140646, "key_press": -1, "trial_index": 249}, "uniqueid": "MTK3100:3GGAI1SQEW5LDANZAJFMPTTJL4GMCL", "dateTime": 1520016131065}, {"current_trial": 250, "trialdata": {"rt": -1, "trial_type": "single-stim", "stimulus": "<p id=\"stim\">2</p>", "internal_node_id": "0.0-179.0-8.0", "time_elapsed": 1141647, "key_press": -1, "trial_index": 250}, "uniqueid": "MTK3100:3GGAI1SQEW5LDANZAJFMPTTJL4GMCL", "dateTime": 1520016132066}, {"current_trial": 251, "trialdata": {"rt": -1, "trial_type": "single-stim", "stimulus": "<p id=\"stim\">1</p>", "internal_node_id": "0.0-179.0-9.0", "time_elapsed": 1142647, "key_press": -1, "trial_index": 